AppTimestamp(s),SensorTimestamp(s),acc_x,acc_y,acc_z,gyro_x,gyro_y,gyro_z,mag_x,mag_y,mag_z
50.0087,6566.2275,0.2303682419333567,-0.014287047935610146,-0.085406808040414,-0.03775,0.02829,-0.15267,14.7,-19.5,0.5
50.0197,6566.2475,0.05424267961981344,-0.09687692526839058,-0.12999336102377868,-0.0237,-0.04807,-0.08426,14.7,-19.5,0.4
50.0458,6566.2675,-0.08209817542301064,-0.18007081929393476,-0.16233001521159984,0.06487,0.06921,-0.04089,14.7,-19.5,0.3
50.0614,6566.2875,-0.17550780695064322,-0.24747211389535406,-0.17486113603703224,0.02272,0.12725,0.00126,14.7,-19.5,0.3
50.0816,6566.3075,-0.21230739843139457,-0.29595422532666216,-0.16709887844647398,-0.05241,0.04967,0.06052,14.7,-19.4,0.3
50.113,6566.3275,-0.20613028936184807,-0.32692788525818134,-0.14618594978762545,-0.01759,-0.06823,0.12221,14.7,-19.4,0.3
50.1208,6566.3475,-0.1350121008783563,-0.332275240989518,-0.12333368724961247,0.10458,-0.05113,0.10878,14.8,-19.4,0.3
50.1416,6566.3675,-0.04648511154188652,-0.3214363041002814,-0.11304823983580015,0.10214,0.08754,0.0483,14.8,-19.4,0.4
50.1808,6566.3875,0.05124716687780864,-0.301769581826042,-0.12545156475624175,0.06426,0.13702,0.01531,14.9,-19.4,0.4
50.1823,6566.4075,0.09850917873387853,-0.23089386901651493,-0.16177203761324854,0.07404,0.08571,-0.00973,14.9,-19.3,0.4
50.2001,6566.4275,0.11993055934894031,-0.1678832944863397,-0.2186784471113743,0.09419,0.07532,-0.04028,14.9,-19.3,0.5
50.2185,6566.4475,0.10839496499189867,-0.11299626741630872,-0.28530842777956344,0.08259,0.13702,-0.0586,14.8,-19.3,0.5
50.2419,6566.4675,0.08529919931156131,-0.0765105492791015,-0.3498900760460213,0.03372,0.11625,-0.04516,14.8,-19.3,0.5
50.2614,6566.4875,0.059681749738594324,-0.05582611075514471,-0.4029601686122657,0.027,0.10098,-0.02012,14.8,-19.3,0.6
50.2783,6566.5075,0.0485905604974061,-0.04523601367796153,-0.4400588895318158,0.03005,0.0851,0.02631,14.8,-19.3,0.6
50.301,6566.5275,0.05937238824094046,-0.03256155885397872,-0.4613724303668878,0.0496,0.0625,0.08923,14.8,-19.3,0.6
50.3187,6566.5475,0.09536421333277785,-0.00042643267863369636,-0.4696852712518531,-0.00415,0.04906,0.14482,14.8,-19.3,0.8
50.34,6566.5675,0.14380432108344365,0.058604339512043614,-0.4673625058457702,-0.01148,0.07166,0.16986,14.8,-19.2,0.8
50.364,6566.5875,0.19255297086531742,0.14034828779783218,-0.45373405975070114,0.01234,0.19017,0.12221,14.9,-19.2,1.0
50.381,6566.6074,0.22507639170528723,0.22684674036302765,-0.42372727933838483,-0.02553,0.17001,0.0709,14.9,-19.2,1.0
50.4027,6566.6274,0.2313813787991598,0.2996054937629111,-0.3695281011092426,-0.06096,0.0234,-0.00057,14.8,-19.3,1.1
50.4235,6566.6474,0.20463713630845098,0.3375935239935377,-0.28431508771194736,-0.0628,0.09121,-0.04822,14.8,-19.3,1.3
50.4526,6566.6674,0.14925520059226474,0.3401511760806046,-0.1678034323636659,-0.16664,0.01729,-0.01828,14.7,-19.3,1.3
50.4625,6566.6874,0.08161223343539946,0.2597932742281752,-0.02704607711325835,-0.19536,-0.05601,0.03058,14.7,-19.4,1.3
50.4864,6566.7074,0.002825442323383668,0.15709029057085624,0.11887207590617699,-0.12938,-0.13481,0.06357,14.7,-19.4,1.3
50.4998,6566.7274,-0.05165353466345893,0.02594885893492803,0.24847686714816142,-0.03897,-0.09816,0.02264,14.6,-19.5,1.3
50.5191,6566.7474,-0.0880260832988421,-0.09032708784259258,0.3420156044158631,0.01723,0.04478,0.02203,14.7,-19.5,1.4
50.5442,6566.7674,-0.10222332452793638,-0.17230999773497221,0.3889877288978507,0.02944,0.13702,0.0373,14.6,-19.5,1.4
50.5651,6566.7874,-0.10683509030014068,-0.2090372239938722,0.3902016082339781,0.04899,0.15657,0.03058,14.6,-19.5,1.5
50.5833,6566.8074,-0.10374323975476755,-0.211267777001577,0.35558315523869943,0.07465,0.14802,0.00615,14.6,-19.5,1.5
50.603,6566.8274,-0.08199087186486503,-0.20027895330821438,0.29888934417609114,0.05388,0.08998,-0.02745,14.6,-19.5,1.5
50.6238,6566.8474,-0.03377933036963638,-0.19220496810338522,0.2318481205579861,0.0777,0.07471,-0.03417,14.6,-19.6,1.4
50.6466,6566.8674,0.040953742516199626,-0.19607179020829651,0.1601304411716562,0.08931,0.15901,0.00615,14.6,-19.6,1.5
50.6665,6566.8874,0.1290912305003706,-0.21008357640483297,0.08298342135231529,0.06793,0.16023,0.07212,14.6,-19.6,1.5
50.6864,6566.9074,0.21918907646016805,-0.23134141809236047,-0.00419299989499855,0.07343,0.07716,0.08495,14.5,-19.6,1.4
50.7078,6566.9274,0.2980288471713382,-0.25079966586745933,-0.10515941656091954,0.1449,-0.02425,0.04158,14.5,-19.6,1.4
50.7235,6566.9474,0.352299253685737,-0.24516574550626016,-0.21781190599888056,0.18644,0.02218,-0.00912,14.5,-19.6,1.4
50.7527,6566.9674,0.3708155946793313,-0.22990360056221804,-0.33296165866759253,0.09725,0.07044,0.01715,14.4,-19.6,1.3
50.769,6566.9874,0.34686609590992457,-0.18323457805855795,-0.43367871805377867,0.03311,0.04906,0.06785,14.4,-19.6,1.4
50.7813,6567.0074,0.2960362053791791,-0.13011881459007751,-0.5026609161757634,0.06548,0.01118,0.09839,14.4,-19.6,1.4
50.8032,6567.0273,0.23282569302641878,-0.0861860522401195,-0.5256025894427783,0.03005,-0.0719,0.09656,14.5,-19.6,1.5
50.825,6567.0473,0.1887022126512391,-0.0518591902339327,-0.4966605102332693,-0.00721,-0.0719,0.06052,14.5,-19.6,1.5
50.8439,6567.0673,0.17942625942133877,-0.0325866235566955,-0.420209028455087,-0.07074,-0.03646,0.04158,14.5,-19.6,1.6
50.8598,6567.0873,0.20887276158230564,-0.033361178577215926,-0.31046803490004393,-0.07196,-0.06884,0.0874,14.4,-19.7,1.6
50.8839,6567.1073,0.26086781263677933,-0.05526766935908165,-0.18793164521252592,0.04044,-0.1397,0.12954,14.4,-19.7,1.6
50.9056,6567.1273,0.34541529545801514,-0.08875492515962338,-0.0754525559705197,0.09969,-0.08839,0.07762,14.4,-19.7,1.7
50.9239,6567.1473,0.4420354629470135,-0.11715195921696836,0.008207287788467355,0.06732,0.0179,4e-05,14.3,-19.7,1.7
50.9445,6567.1673,0.5168870453625902,-0.13709222730499807,0.05223723872624575,0.00684,0.09731,-0.05433,14.2,-19.8,1.7
50.9693,6567.1873,0.5392910586583439,-0.15268727580513153,0.05485692205190773,-0.06402,-0.09755,-0.07754,14.2,-19.8,1.7
50.9937,6567.2073,0.5018313242520099,-0.17051287580128333,0.021175624720696007,-0.00721,-0.26798,-0.07815,14.2,-19.9,1.8
51.0173,6567.2273,0.42692165129073983,-0.17914666526891074,-0.03895706329498694,0.12046,-0.15558,-0.10503,14.2,-19.9,1.8
51.0444,6567.2473,0.3428425885977167,-0.15902257042321075,-0.11189083114451748,0.08931,0.04295,-0.1093,14.2,-19.9,1.9
51.0559,6567.2673,0.24145402148610204,-0.08768168611920414,-0.18236972367112436,0.00562,0.09426,-0.07204,14.2,-20.0,2.0
51.072,6567.2873,0.14629086856235277,0.01826760605177663,-0.24046928121159183,-0.01637,0.04111,-0.0641,14.2,-20.0,1.9
51.0824,6567.3073,0.06118102433760438,0.14585269929970465,-0.2806735985814619,0.05632,-0.1061,-0.04455,14.2,-19.9,1.8
51.1042,6567.3273,-0.003966021520418202,0.2695843940253777,-0.30235510405154287,0.09542,-0.18674,-0.047,14.1,-19.9,1.8
51.1293,6567.3473,-0.03211595262448336,0.3791148530591081,-0.3081716866348838,0.02761,-0.08717,-0.06776,14.1,-19.9,1.7
51.1489,6567.3674,-0.027328894764032875,0.4639361830758034,-0.30185768931129964,-0.05425,0.04478,-0.11053,14.1,-19.9,1.7
51.1637,6567.3874,-0.009886318371430253,0.5010171259384084,-0.28508365180396744,-0.04386,0.01668,-0.13679,14.1,-19.8,1.6
51.181,6567.4075,0.015174174307199171,0.47784506719492026,-0.25686198376926406,-0.10861,0.05883,-0.13679,14.1,-19.8,1.6
51.2026,6567.4275,0.04716745799923706,0.3889215653530075,-0.2143263156108297,-0.20391,-0.03463,-0.06532,14.2,-19.7,1.5
51.2209,6567.4476,0.08505102716071343,0.22707056180387516,-0.15521029584875734,-0.16054,-0.01753,-0.0696,14.2,-19.7,1.5
51.2451,6567.4677,0.1339384682172687,0.02581765265383851,-0.08287215915488133,-0.08296,0.06983,-0.1258,14.3,-19.6,1.4
51.273,6567.4877,0.17037829708265734,-0.18658569572310246,-0.006434931730673554,-0.14099,-0.0719,-0.17711,14.3,-19.6,1.3
51.2822,6567.5078,0.19910704512487515,-0.3969544729894234,0.05690185248439583,-0.16909,-0.34129,-0.07998,14.4,-19.6,1.3
51.3012,6567.5279,0.21300697619108996,-0.5424048583577818,0.08910475840591126,0.00073,-0.32479,0.03058,14.4,-19.6,1.2
51.323,6567.5479,0.23753191199701976,-0.6047291381703898,0.07685745237402841,0.16139,0.01118,0.00676,14.4,-19.5,1.1
51.3415,6567.568,0.2725270350324524,-0.566226606373323,0.02169214090839411,0.13268,0.13397,-0.07998,14.5,-19.5,1.1
51.3615,6567.588,0.2980459248244897,-0.445545701608977,-0.059754720354272095,0.04044,0.06433,-0.1093,14.5,-19.5,1.3
51.3833,6567.6081,0.2968029187828994,-0.2775058034729813,-0.14084803861292094,0.08686,-0.05723,-0.01767,14.6,-19.5,1.3
51.4011,6567.6282,0.2679267358087764,-0.10591267352445549,-0.19624565694094187,0.02211,-0.06334,-0.03722,14.6,-19.4,1.2
51.4236,6567.6482,0.22379896970394889,0.030577990375068368,-0.21180468117115936,-0.17886,-0.03708,-0.08243,14.7,-19.5,1.3
51.4456,6567.6683,0.17148927863392313,0.09467632459416464,-0.18885600994301655,-0.24361,-0.10183,-0.13862,14.7,-19.5,1.2
51.463,6567.6883,0.1123939957212294,0.06860948558211243,-0.1432975005508368,-0.14771,-0.09144,-0.13679,14.7,-19.5,1.3
51.4889,6567.7084,0.058459879334591354,-0.014970740971285352,-0.10035300186452467,-0.0182,-0.1507,-0.09831,14.8,-19.5,1.2
51.5153,6567.7285,0.015225635916843174,-0.11717919106870217,-0.08343711035462675,0.12107,-0.0328,-0.10075,14.8,-19.5,1.2
51.5381,6567.7485,-0.019374280089917255,-0.18549013276260926,-0.10439376261859046,0.03494,0.11381,-0.07998,14.8,-19.5,1.2
51.5445,6567.7686,-0.05175521477322743,-0.19877865702036646,-0.16003745984285445,-0.05852,0.07105,0.01165,14.8,-19.5,1.1
51.5664,6567.7887,-0.07536167331862163,-0.1698718930803822,-0.23505513851283233,-0.00049,-0.01814,0.04158,14.8,-19.4,1.1
51.5812,6567.8087,-0.08106885518930865,-0.11493530494211321,-0.30752134828984623,0.0496,-0.18185,-0.01156,14.7,-19.4,1.0
51.6006,6567.8288,-0.06571614716181086,-0.050564176829055736,-0.35637938871263053,-0.00782,-0.01875,-0.09342,14.8,-19.4,0.9
51.6226,6567.8488,-0.034400008147581845,0.008266592629648836,-0.3675620515490099,-0.16726,0.11198,-0.06593,14.8,-19.4,0.9
51.651,6567.8689,-0.003941970949459384,0.04850505519736306,-0.33685238973478526,-0.17398,0.09243,0.01653,14.8,-19.3,0.8
51.674,6567.889,0.013898591675805417,0.04204857999335225,-0.2694019940967589,-0.07624,-0.04746,0.07518,14.7,-19.3,0.6
51.6894,6567.909,0.035343481670777596,-0.004835970879668527,-0.17787403784323175,-0.03775,-0.07434,0.05746,14.7,-19.3,0.6
51.7071,6567.9291,0.06546248306185755,-0.06622296231012265,-0.078462742731368,-0.08112,-0.02547,-0.00362,14.7,-19.3,0.5
51.7258,6567.9491,0.10467908644547752,-0.12717664425711275,0.013454664684799056,-0.11045,0.02706,-0.02561,14.7,-19.3,0.4
51.7474,6567.9691,0.14261601668167942,-0.1796726400127958,0.0860828496484487,-0.08418,0.06127,0.02325,14.7,-19.3,0.3
51.7644,6567.9891,0.17673584044408602,-0.2238400299572763,0.13223705183737877,-0.00354,-0.03341,0.08984,14.7,-19.3,0.3
51.7845,6568.0091,0.21111400506819622,-0.25059643906762913,0.14970551578788616,0.08076,-0.09205,0.08678,14.8,-19.3,0.3
51.806,6568.0291,0.254805999514872,-0.25258696099065175,0.14031151536789643,0.04838,0.06555,-0.00118,14.7,-19.3,0.4
51.8231,6568.0491,0.2991837436487577,-0.22990842203066725,0.10899207256709786,-0.03897,0.13152,-0.03905,14.7,-19.3,0.3
51.8438,6568.0691,0.33225209856231686,-0.19586336415663322,0.062270992450947915,0.0044,0.03501,-0.01095,14.7,-19.3,0.3
51.8625,6568.0891,0.3444762913967646,-0.16157238360167833,0.007595462332213643,0.06854,-0.04624,-0.00485,14.8,-19.3,0.2
51.8856,6568.1091,0.3419559634394497,-0.13457940934121662,-0.047823496979459534,0.04044,-0.02852,-0.03111,14.8,-19.3,0.3
51.9046,6568.1291,0.32722514968232236,-0.11580733961150035,-0.09674395738204922,0.00073,0.0625,-0.06776,14.8,-19.3,0.3
51.9301,6568.1491,0.30358607381145547,-0.11392722877643263,-0.13260600507339504,0.00318,0.07593,-0.05433,14.9,-19.3,0.2
51.9457,6568.1691,0.26094377418227593,-0.13167444269830456,-0.1496467037131115,0.02822,0.01729,-0.03844,15.0,-19.2,0.2
51.9647,6568.1891,0.21480487673570495,-0.17102748202112708,-0.14523528770201288,0.04777,-0.08045,-0.04028,15.0,-19.2,0.3
51.9831,6568.2091,0.17868397555136525,-0.2216679108822966,-0.11972872331219975,0.04227,-0.02058,-0.07448,15.0,-19.1,0.3
52.0049,6568.2291,0.1643085434606856,-0.27413862577149073,-0.07742954863547524,-0.02553,0.0967,-0.0922,15.1,-19.1,0.2
52.0298,6568.249,0.16737043363270482,-0.325074140283552,-0.026621160845152758,-0.05302,0.11198,-0.04822,15.1,-19.1,0.3
52.0521,6568.269,0.17635206656311456,-0.375964769868026,0.021549066563059327,0.02272,-0.03341,-0.00423,15.1,-19.1,0.2
52.0794,6568.289,0.19372316558745634,-0.4236240096612642,0.055749827971846244,0.13207,-0.08656,0.01104,15.1,-19.1,0.2
52.0842,6568.309,0.23079325474535803,-0.4212640175660119,0.06930273451482805,0.14734,0.00568,-0.00607,15.1,-19.0,0.1
52.1038,6568.329,0.2804245222011617,-0.4019275801400282,0.0572836310808178,0.06365,0.11442,-0.01156,15.1,-19.0,0.1
52.1336,6568.349,0.33672534065176063,-0.35974673482870195,0.02173618585667647,0.02761,0.05761,-0.05371,15.2,-19.0,0.0
52.1434,6568.369,0.3591628421171496,-0.2943479108835964,-0.029551319588751568,0.08686,0.02096,-0.07326,15.2,-19.0,0.0
52.1685,6568.389,0.3632396442719632,-0.24610889113867399,-0.08859022168575414,0.10397,-0.02608,-0.04638,15.2,-18.9,0.0
52.1985,6568.409,0.3456576668976663,-0.21589736498443676,-0.14431117773841784,0.11741,-0.02669,-0.00729,15.2,-18.9,0.1
52.2017,6568.429,0.31361646660939446,-0.1721174422822664,-0.18696793937383838,0.10214,0.01485,-0.00607,15.1,-18.9,0.1
52.2243,6568.449,0.27472927075054243,-0.1573548497039431,-0.21202725958597846,0.02578,-0.01692,-0.05127,15.1,-18.8,0.1
52.2448,6568.469,0.2273411597736938,-0.1587287227638503,-0.21856986110280552,-0.0066,-0.07373,-0.07815,15.0,-18.8,0.1
52.2623,6568.489,0.1764157324308673,-0.17691722384997582,-0.21127007667505104,0.01661,-0.09389,-0.03539,15.0,-18.8,0.1
52.2872,6568.509,0.12973550303493964,-0.2068997503931509,-0.19809472126050132,0.05143,-0.06395,0.00615,15.0,-18.8,0.2
52.3033,6568.529,0.0934617339725584,-0.23131230159493518,-0.18711018105182475,0.05143,0.02401,-0.02073,15.0,-18.7,0.2
52.3245,6568.549,0.06512643925920328,-0.24668283959615478,-0.18416050390518457,0.03494,0.03684,-0.01218,15.0,-18.7,0.3
52.3471,6568.569,0.03688317062550138,-0.24948924633185451,-0.1911015771948481,0.0441,-0.02913,0.0257,15.0,-18.7,0.5
52.3665,6568.589,0.013996025132812683,-0.2384548278995627,-0.2059105560621095,0.05938,-0.13237,0.05135,15.0,-18.7,0.6
52.3874,6568.609,0.0028623266722769608,-0.21700086783695277,-0.22389728846534318,0.07098,-0.11832,0.05502,15.0,-18.7,0.6
52.4072,6568.629,0.008991419812383616,-0.18677368630135296,-0.23936996518906817,0.027,0.03989,0.02936,15.0,-18.7,0.6
52.4246,6568.6489,0.02119465520499711,-0.1576186435308637,-0.24738017260239786,-0.06646,0.11564,0.04402,15.0,-18.7,0.7
52.4448,6568.6689,0.02417732951913868,-0.14069476891533264,-0.24433623350767597,-0.02126,0.01302,0.07518,15.1,-18.7,0.8
52.4651,6568.6889,0.014958328332050306,-0.14252959362277381,-0.22841110631488704,0.05571,-0.1342,0.09045,15.1,-18.7,0.8
52.4889,6568.7089,0.0014772530282690392,-0.15882795748916698,-0.19985056224998132,0.06732,-0.13237,0.10816,15.1,-18.8,0.8
52.5095,6568.7289,0.007270955183717649,-0.17731656830098882,-0.16124267893303923,0.00257,0.00141,0.10389,15.1,-18.8,0.9
52.5309,6568.7489,0.030465026533117313,-0.19402524467517987,-0.11799159274717574,-0.07074,0.07593,0.09717,15.1,-18.8,0.9
52.5576,6568.7689,0.06140485955567506,-0.20812061179086827,-0.07780925112767356,-0.02553,0.00691,0.09656,15.1,-18.8,0.9
52.5736,6568.7889,0.10748265533887699,-0.22037379961193151,-0.04917990031994002,0.03433,-0.08595,0.07701,15.1,-18.9,0.9
52.5848,6568.8089,0.1655845989387746,-0.2196439831817738,-0.03848109998588356,0.03555,-0.03769,0.06113,15.1,-18.9,0.9
52.6055,6568.8289,0.22890332414358797,-0.20393939941040196,-0.047901384814830195,0.00318,0.05944,0.04769,15.0,-18.9,0.8
52.625,6568.8489,0.2938186721740112,-0.17461161243505852,-0.07414097960685062,0.01051,0.15779,0.02875,15.0,-18.9,0.8
52.649,6568.8689,0.34853560602587863,-0.14374953800182377,-0.10885405075603671,0.03005,0.11992,0.03975,15.0,-19.0,0.6
52.6653,6568.8889,0.38062264534045953,-0.11971463516320492,-0.14092102910762705,0.0441,0.02829,0.03242,15.0,-19.0,0.7
52.6842,6568.9089,0.39431816951361703,-0.11274523219810469,-0.16080997268617203,-0.00049,0.01546,-0.03417,15.0,-19.0,0.7
52.7057,6568.9289,0.3938001566586003,-0.12786381542079425,-0.1629666995408563,-0.07074,0.04906,-0.0415,15.0,-19.1,0.8
52.7235,6568.9489,0.37830180590018286,-0.17092425704867797,-0.14715610494593534,-0.06035,0.05516,-0.02867,14.9,-19.1,0.7
52.7469,6568.9689,0.35370155795129077,-0.23431097851377294,-0.1183863326900827,0.01845,0.03012,-0.00485,14.9,-19.1,0.7
52.7649,6568.9889,0.32373257395422744,-0.30265671890819207,-0.08453189579979181,0.04716,0.02035,0.01715,14.9,-19.1,0.8
52.7836,6569.0089,0.2994808793206145,-0.35634880835969684,-0.053912582496360884,0.00684,0.00935,0.03669,14.9,-19.1,0.8
52.8004,6569.0289,0.2879944197725145,-0.3820876799116385,-0.03293487043520038,0.00318,0.03501,0.02936,14.8,-19.0,0.8
52.8216,6569.0489,0.28932792872261875,-0.3786859162608267,-0.02519507573932067,0.02639,0.07471,0.0202,14.8,-19.1,0.8
52.844,6569.0688,0.2984829813379461,-0.3512306407927714,-0.031124792764410714,0.03922,-0.0102,0.01837,14.7,-19.1,0.8
52.8598,6569.0888,0.3142200639295609,-0.30361050954394125,-0.04848774156072011,0.04533,-0.02364,0.03608,14.7,-19.1,0.8
52.8822,6569.1088,0.3322143734255237,-0.24847637039380457,-0.07362975277494677,0.03861,-0.02913,0.03792,14.7,-19.1,0.7
52.9031,6569.1288,0.3531042240574248,-0.1905571110469903,-0.10249278778033322,0.03128,0.04111,0.01715,14.7,-19.2,0.8
52.9214,6569.1488,0.3705661858444098,-0.13971129539698524,-0.13162093983602574,0.01478,0.03501,0.01287,14.7,-19.2,0.8
52.9473,6569.1688,0.37859177685975315,-0.10572425242016814,-0.15858501669368685,0.00562,-0.03708,-0.02256,14.7,-19.2,0.8
52.969,6569.1888,0.3726963005883316,-0.0912791046634229,-0.18176750101966377,0.01234,-0.04807,-0.06288,14.7,-19.2,0.8
52.9828,6569.2088,0.3513954100051803,-0.09376953651674716,-0.199908178808629,0.01478,-0.01997,-0.04638,14.7,-19.2,0.7
53.011,6569.2288,0.3237993968730764,-0.11049504386795592,-0.2117989004541947,0.01173,0.04478,-0.02745,14.6,-19.3,0.7
53.0228,6569.2488,0.27879676026055006,-0.1374411157746482,-0.2150240887238244,-0.02126,0.03867,-0.03478,14.7,-19.2,0.8
53.0493,6569.2688,0.23202218943199032,-0.16807284198879138,-0.20798910401675563,-0.04081,0.00263,-0.04577,14.7,-19.3,0.7
53.08,6569.2888,0.1846476137956755,-0.20236784161211674,-0.1895014344705519,-0.03348,-0.04013,-0.03783,14.8,-19.3,0.7
53.0996,6569.3088,0.14346290971098075,-0.23946445078910825,-0.16018203078191817,-0.00232,-0.02119,-0.0305,14.9,-19.3,0.7
53.1046,6569.3288,0.11539380268080345,-0.2748270523705061,-0.12266303349193919,-0.01759,0.01546,-0.01828,14.8,-19.3,0.6
53.1221,6569.3488,0.10677236732618782,-0.2998297344581675,-0.08139798145840871,-0.03225,0.04234,0.01592,14.9,-19.3,0.7
53.1453,6569.3688,0.11350713796454334,-0.318241648025601,-0.0423414674907594,-0.00171,0.02157,0.06785,14.9,-19.3,0.7
53.168,6569.3888,0.13525155402262506,-0.3307559876143805,-0.01147521117973227,0.05388,0.0289,0.06235,14.9,-19.3,0.7
53.1868,6569.4088,0.17194962831077243,-0.33239560864354883,0.006606736987400552,0.05999,0.00324,0.03669,14.9,-19.3,0.7
53.201,6569.4288,0.21559472581676378,-0.3221616933731427,0.009360132615078953,0.02211,0.00324,-0.01401,15.0,-19.2,0.7
53.2221,6569.4489,0.2576293188177414,-0.3066928089692596,-0.0035275506364733644,-0.00354,0.05333,-0.01767,15.0,-19.2,0.8
53.2444,6569.4689,0.28581687406312767,-0.2931317412474207,-0.02979785110661126,0.01784,0.05394,-0.01156,15.0,-19.2,0.8
53.2655,6569.4889,0.29619067059298104,-0.28568066586845126,-0.0652066639769,0.06487,0.01118,0.0147,15.0,-19.1,0.7
53.2813,6569.5089,0.29482419612186544,-0.2783735582307487,-0.10415782056201728,0.07587,-0.01997,0.01226,15.0,-19.1,0.8
53.3042,6569.529,0.29171593188618744,-0.2726901402539804,-0.14101607052467813,0.04838,0.05028,-0.02623,15.1,-19.0,0.7
53.3336,6569.549,0.2925090269395304,-0.2638622155271195,-0.17065650958689638,-0.01698,0.06494,-0.036,15.0,-19.1,0.8
53.3629,6569.569,0.29133127465039155,-0.2569031262220165,-0.1898483589533022,-0.01148,0.04111,-0.00179,15.0,-19.0,0.8
53.3765,6569.5891,0.2884541198617465,-0.25466706990095866,-0.1980544906500441,0.03311,-0.00042,0.02692,14.9,-19.0,0.9
53.3859,6569.6091,0.29357734321535084,-0.25238850629140047,-0.1972513502964528,0.04716,-0.01386,0.03181,14.9,-19.0,0.8
53.4014,6569.6291,0.30656140898129364,-0.24782092899626793,-0.19085831727526426,0.02761,-0.01631,0.01348,14.8,-19.0,0.9
53.4275,6569.6491,0.3273695533416072,-0.23664969302380498,-0.1828112892438618,-0.00049,0.03134,0.01715,14.8,-19.1,0.8
53.4448,6569.6692,0.3510383367523017,-0.22082730721378196,-0.17639598218098484,-0.02065,0.04234,0.01959,14.8,-19.0,0.8
53.4623,6569.6892,0.3695696863094002,-0.20670318557146347,-0.17314755325520004,0.01173,0.00691,0.00187,14.8,-19.0,0.9
53.4907,6569.7092,0.3789149748679354,-0.19951023360556974,-0.17246943409443283,0.04105,0.00507,-0.02867,14.8,-19.0,1.1
53.5043,6569.7293,0.3735341804382074,-0.19898206754426762,-0.17178165875023943,-0.01576,-0.01692,-0.02928,14.8,-19.0,1.0
53.522,6569.7493,0.35648036004759004,-0.2077676360240725,-0.16834460704600573,-0.04203,-0.00592,-0.0134,14.8,-19.0,1.1
53.5483,6569.7693,0.33072151949039125,-0.22488460527154033,-0.16029188176004716,0.00134,0.00446,-0.0134,14.8,-19.1,1.1
53.5612,6569.7893,0.29585001535027955,-0.252421645911258,-0.14776573821620076,0.00195,0.01668,-0.02806,14.7,-19.1,1.2
53.5873,6569.8094,0.2604604688579036,-0.2811359056141035,-0.1331083667349553,-0.03775,-0.02547,-0.02928,14.7,-19.1,1.2
53.6039,6569.8294,0.22698116951080782,-0.3050431900206242,-0.11979502655907126,0.0044,-0.0157,-0.02256,14.7,-19.1,1.3
53.6238,6569.8494,0.20303107288244274,-0.3173622275970676,-0.11120097912251659,0.02639,0.02768,-0.00912,14.7,-19.1,1.2
53.6412,6569.8695,0.19047592187348705,-0.3153519526514708,-0.10905286163057504,0.00562,0.04173,0.00187,14.8,-19.1,1.1
53.6645,6569.8895,0.189958704763179,-0.3028052244114072,-0.11286487926584599,-0.00354,0.02951,0.02387,14.8,-19.1,1.1
53.6858,6569.9095,0.19990990134396827,-0.28554143690614037,-0.11988678113556439,0.01234,0.01179,0.04036,14.8,-19.1,1.1
53.7067,6569.9295,0.2198875769114099,-0.26932949888116664,-0.12611079924396407,0.04288,-0.02975,0.00859,14.9,-19.1,1.1
53.7271,6569.9496,0.24829014306173033,-0.2580144070730621,-0.12771758858818494,0.01784,0.0008,-0.00301,14.9,-19.0,1.2
53.7448,6569.9696,0.27982798862415886,-0.2559744176110316,-0.12254000992737701,-0.03164,0.01363,0.00859,14.9,-19.1,1.2
53.7624,6569.9896,0.3074323632299303,-0.26674510296384957,-0.11086255846578297,-0.01759,0.07288,-0.0079,14.9,-19.0,1.2
53.7831,6570.0096,0.32633001657487,-0.2896074729396019,-0.095356011333946,0.01661,0.03134,-0.01218,14.8,-19.1,1.1
53.8153,6570.0296,0.3361777403973868,-0.31934449870864934,-0.080236071181508,0.03677,-0.00653,-0.00607,14.9,-19.1,1.2
53.8349,6570.0496,0.337938474265839,-0.34081262789116173,-0.06959777609550954,0.01906,-0.0047,-0.00851,14.9,-19.1,1.2
53.8553,6570.0696,0.3384582366837275,-0.35069902124081137,-0.06699811929693489,-0.02309,0.01851,-0.036,14.8,-19.1,1.2
53.8703,6570.0896,0.33798241604473694,-0.3493944121212371,-0.07389225353443152,-0.00354,0.0234,-0.02989,14.8,-19.1,1.1
53.8866,6570.1096,0.33774858880471326,-0.33991268288152837,-0.08938018922430224,0.05571,0.01607,-0.00423,14.8,-19.1,1.1
53.9075,6570.1296,0.3365601368646886,-0.3261682543373058,-0.11018189739212758,0.05205,0.03684,0.01104,14.8,-19.1,1.1
53.9231,6570.1496,0.33301974809932217,-0.30662785298644696,-0.13142097773605954,0.02211,-0.0047,-0.0079,14.8,-19.2,1.2
53.9444,6570.1696,0.3282806644164029,-0.2889966712269969,-0.14863411031300267,0.00195,-0.01814,-0.01095,14.8,-19.1,1.2
53.9651,6570.1896,0.3242118370039222,-0.27747748491400087,-0.1586206994075603,0.00745,-0.00775,0.00126,14.8,-19.1,1.2
53.985,6570.2096,0.32129117019646003,-0.2757103585730154,-0.16023826176784794,0.01723,0.02279,-0.00362,14.8,-19.1,1.2
54.007,6570.2296,0.3188172204705778,-0.2831343619522762,-0.15429220720606374,0.00379,0.01424,-0.01584,14.7,-19.2,1.1
54.0246,6570.2496,0.3149107603189476,-0.2957681512678425,-0.14294507695114156,0.0044,-0.01203,-0.0079,14.8,-19.2,1.1
54.059,6570.2696,0.3088700820451376,-0.31209140646318284,-0.12913263467495284,0.01051,-0.02119,0.00126,14.8,-19.1,1.0
54.0713,6570.2895,0.3055636463678364,-0.3263140473920434,-0.11576463156738903,0.01234,-0.02913,-0.01645,14.8,-19.2,1.0
54.0843,6570.3095,0.30380525440461914,-0.33927107668806455,-0.10523886412712002,0.0099,-0.00898,-0.01828,14.8,-19.1,1.1
54.1061,6570.3295,0.30547086361920944,-0.3513553660900044,-0.09934251085503121,0.01539,0.03012,-0.0189,14.8,-19.1,1.0
54.1248,6570.3495,0.3058670153223867,-0.3598180813552891,-0.09886977647600226,0.01539,0.0234,-0.02561,14.8,-19.2,1.1
54.1446,6570.3695,0.3043904449309895,-0.3639747900224876,-0.10424009480108332,0.01661,0.01485,-0.02073,14.9,-19.1,1.1
54.1634,6570.3895,0.3012193336480164,-0.36253680896608337,-0.11532456525565848,0.01417,0.00813,-0.00912,14.9,-19.1,1.2
54.181,6570.4095,0.29912626956781835,-0.35497491029633343,-0.13140797644544655,0.01723,0.0008,-0.00851,15.0,-19.2,1.2
54.2221,6570.4295,0.302727940885542,-0.34702100592589064,-0.1511259918450314,0.02089,0.00691,-0.00301,15.0,-19.2,1.2
54.2343,6570.4495,0.3063318523762481,-0.3270921957847388,-0.1711364802388573,0.03128,0.01912,-0.01218,15.0,-19.1,1.1
54.2487,6570.4695,0.311509419873794,-0.3049939755893149,-0.18830047614135026,0.01173,-0.00775,-0.00729,15.1,-19.1,1.2
54.2642,6570.4895,0.3164200431983857,-0.2849503778627551,-0.19895235587804727,0.00012,-0.00287,0.00187,15.1,-19.1,1.2
54.2972,6570.5095,0.31939872323357393,-0.2724686157886423,-0.2000874132084327,-0.00843,0.00019,0.0147,15.1,-19.2,1.3
54.3016,6570.5295,0.32143178536434625,-0.2712822875885015,-0.19021389639782527,0.00195,-0.0157,-0.00118,15.1,-19.2,1.4
54.3239,6570.5495,0.3199715885247834,-0.28195394019851766,-0.16983180128717912,0.016,0.00019,-0.02806,15.1,-19.3,1.5
54.3428,6570.5695,0.31346585484360767,-0.30172636651422385,-0.14194751083578083,-0.02248,-0.01447,-0.01218,15.1,-19.3,1.6
54.3604,6570.5895,0.3029863749114411,-0.32695284176715705,-0.11193975715185722,-0.03287,-0.01936,0.00065,15.1,-19.3,1.6
54.3828,6570.6095,0.29228425314340045,-0.35228967232934283,-0.08642875481404744,-0.00721,0.00385,-0.01462,15.1,-19.3,1.5
54.4054,6570.6295,0.28324148940051413,-0.3736922565360886,-0.07143343675934055,0.01112,0.03134,-0.03172,15.0,-19.3,1.5
54.428,6570.6495,0.2748003891630806,-0.3861545519747187,-0.07039466575146847,0.00012,0.02706,-0.03722,15.0,-19.3,1.4
54.4484,6570.6695,0.26573995718273463,-0.38605126559652064,-0.08318661365180446,0.01112,0.0008,-0.01034,15.0,-19.3,1.3
54.4631,6570.6895,0.2595907373908476,-0.3725624322060276,-0.10635273557149816,0.03189,0.00568,0.0092,15.0,-19.3,1.2
54.4846,6570.7095,0.26040467650335086,-0.3516457728732743,-0.13426711157397264,0.01661,0.00935,0.02692,14.9,-19.2,1.2
54.5042,6570.7295,0.2699210538805974,-0.3282053922884024,-0.16044014721469502,0.00806,0.03745,0.02264,14.9,-19.2,1.2
54.5255,6570.7494,0.2853973906442316,-0.3098366178226487,-0.1792303497409229,-0.01087,0.03562,-0.00362,14.9,-19.2,1.3
54.5497,6570.7694,0.30335712378350016,-0.30092853709372885,-0.18686826213009589,-0.01393,0.0008,-0.0134,14.8,-19.2,1.3
54.5639,6570.7894,0.319401605547501,-0.30411639685492503,-0.18199161965724464,-0.01943,-0.01386,-0.00607,14.8,-19.2,1.3
54.5848,6570.8094,0.33636133121441536,-0.31211850782067135,-0.1655369889217848,-0.04753,0.09182,-0.01584,14.9,-19.2,1.4
54.6043,6570.8294,0.3475729439088909,-0.32624098612572694,-0.14015763987565855,-0.08601,0.13213,-0.02317,14.8,-19.2,1.3
54.6258,6570.8494,0.35108514933021995,-0.3444293881764176,-0.10942410676786096,-0.07868,0.11992,-0.0134,14.9,-19.1,1.3
54.6558,6570.8694,0.3501621794775095,-0.3640398701482332,-0.07699766688053344,-0.03531,0.05272,-0.00912,14.9,-19.1,1.2
54.6734,6570.8894,0.3385158590490678,-0.387724058272057,-0.0456405283450394,0.0099,0.03989,-0.02561,14.9,-19.2,1.2
54.6833,6570.9094,0.327495446891602,-0.40734809040147163,-0.017456916488130858,-0.01393,0.0515,-0.02561,14.9,-19.1,1.2
54.7058,6570.9294,0.33048249609259606,-0.4202304134353863,0.005633596815680875,-0.03287,0.057,-0.01584,14.9,-19.2,1.2
54.7207,6570.9494,0.3438084759515924,-0.4296010403831382,0.021744455756840253,0.01845,0.03745,0.01226,14.9,-19.2,1.3
54.7491,6570.9694,0.37155323255722167,-0.44088750337300603,0.02799055068638623,0.05632,0.00263,0.03486,15.0,-19.2,1.3
54.7654,6570.9894,0.4133825941500965,-0.4407196858302139,0.022170696437001425,0.0777,0.00691,0.01104,15.0,-19.2,1.5
54.7835,6571.0094,0.4632572846251578,-0.4329062437400439,0.0021563561773767503,0.04288,0.05761,-0.03783,15.0,-19.3,1.5
54.8046,6571.0294,0.5112391170603142,-0.4192778526365027,-0.03211733525232674,0.03005,0.01424,-0.0586,15.0,-19.3,1.5
54.825,6571.0494,0.5459592733267614,-0.4006955449787292,-0.07783748499074683,0.08564,-0.0218,-0.05921,15.0,-19.3,1.5
54.8448,6571.0694,0.5629580723731201,-0.37887911171126654,-0.12968326274983077,0.08259,0.00691,-0.05371,15.0,-19.2,1.5
54.8658,6571.0894,0.5622697051515166,-0.35662821207878204,-0.1805683758169181,0.02883,0.06921,-0.06471,14.9,-19.2,1.4
54.8842,6571.1093,0.5396472803432372,-0.33787399741724483,-0.2227535410081387,0.01234,0.03806,-0.09037,14.9,-19.2,1.3
54.9068,6571.1293,0.500029758456398,-0.33106253180933715,-0.2506743788692898,0.00806,-0.02791,-0.09342,15.0,-19.2,1.3
54.9233,6571.1493,0.44481676447699364,-0.338277904284033,-0.26135718108006323,0.02089,-0.08472,-0.07326,14.9,-19.2,1.3
54.9503,6571.1693,0.38951351138273377,-0.35996150316519826,-0.25601005463643034,0.02333,-0.04257,-0.05066,15.0,-19.2,1.4
54.9617,6571.1894,0.3365774644271569,-0.38575062004881494,-0.23783789864974736,0.01784,0.00691,-0.03966,15.0,-19.2,1.5
54.9836,6571.2094,0.2962135160802488,-0.412986009756226,-0.21250998176641467,-0.00965,0.05272,-0.04638,14.9,-19.2,1.5
55.0063,6571.2294,0.26228446178981973,-0.43741046861433963,-0.18557840847080875,-0.02981,-0.01203,-0.04211,15.0,-19.1,1.5
55.0402,6571.2494,0.2343033332589213,-0.45600012972168313,-0.16205358626189437,0.03066,-0.08411,-0.03417,15.0,-19.1,1.5
55.0645,6571.2695,0.21538701387937859,-0.4620710349816974,-0.1449871470531896,0.03677,-0.03097,-0.02195,15.0,-19.1,1.5
55.0763,6571.2895,0.2097391630949002,-0.45229187121831965,-0.13522515004625824,-0.00782,0.0179,0.00493,15.0,-19.1,1.4
55.0907,6571.3095,0.2156588164834619,-0.43109652721203084,-0.13160567687059377,0.00073,0.03195,0.02081,15.0,-19.1,1.2
55.1064,6571.3296,0.2298724844916501,-0.40398742774365043,-0.13134279578710562,0.03738,0.01057,0.02936,15.1,-19.1,1.2
55.1354,6571.3496,0.24646269830200457,-0.37913585303790137,-0.1310591582525955,0.0551,-0.05601,0.00798,15.0,-19.0,1.2
55.1459,6571.3696,0.2718166307409866,-0.35380983996646437,-0.12784923853135233,0.00379,-0.02669,-0.00607,15.0,-19.0,1.1
55.169,6571.3896,0.2978784578360144,-0.33654259031055755,-0.12044759730085275,-0.04753,-0.02303,-0.00729,15.1,-19.0,1.2
55.1837,6571.4097,0.32181963000966957,-0.3367826868939879,-0.10948014014899954,-0.01271,0.00263,-0.00851,15.1,-19.0,1.1
55.2063,6571.4297,0.3385569430475668,-0.3560024731808075,-0.09647586079634962,0.02272,0.00996,-0.00912,15.1,-19.0,1.1
55.227,6571.4497,0.34382820610419323,-0.3886713561782078,-0.08311228254956582,0.03616,0.00202,0.00859,15.1,-18.9,1.1
55.2469,6571.4698,0.33892739304770897,-0.42460832353050626,-0.07074998027477442,0.02333,-0.02119,0.00432,15.1,-18.9,1.1
55.2697,6571.4898,0.3279030293208196,-0.45700094630560445,-0.06051242566629256,-0.0182,-0.02669,-0.01401,15.1,-18.9,1.0
55.2849,6571.5098,0.3142983107161137,-0.48545358050096554,-0.053588666018395514,-0.02248,0.00324,-0.02256,15.0,-18.9,1.0
55.3039,6571.5298,0.30191053874670687,-0.509177311677652,-0.05106326069028455,0.03311,0.04417,0.01287,15.1,-18.9,1.1
55.326,6571.5499,0.2938320060600723,-0.526207654697135,-0.05359857181592176,0.0661,0.03806,0.04036,15.1,-18.9,1.1
55.3551,6571.5699,0.29347202892269214,-0.5329512283266485,-0.0611905638122785,0.05754,-0.00653,0.03425,15.1,-18.9,1.1
55.3676,6571.5899,0.30796141210012207,-0.5148775167747295,-0.07286231377767827,0.02822,0.01729,0.02081,15.1,-18.9,1.3
55.3879,6571.61,0.33252602550654253,-0.48633684841533453,-0.08871257422439704,0.01539,0.04173,0.03181,15.1,-18.8,1.4
55.4049,6571.63,0.3634936990107968,-0.45085267769399173,-0.10817919861962544,0.04105,0.00935,0.04525,15.1,-18.8,1.5
55.4327,6571.65,0.39265317305918973,-0.4189690263371985,-0.130338599333502,0.0325,0.02279,0.01043,15.2,-18.8,1.5
55.4521,6571.67,0.41413871911687306,-0.3892612121637544,-0.15261952937296464,0.03128,0.00752,0.00371,15.2,-18.8,1.4
55.466,6571.6901,0.42153465606929474,-0.3662905369139694,-0.17122402084689803,0.03983,0.00996,0.00248,15.2,-18.8,1.4
55.4999,6571.7101,0.41412217797609663,-0.3608565259539344,-0.18184565810263997,0.01845,0.02035,-0.00607,15.2,-18.9,1.3
55.5058,6571.7301,0.39222701698161894,-0.3657321883743451,-0.18000482967976872,0.01356,0.00324,0.00248,15.2,-18.9,1.3
55.5274,6571.7502,0.3617830585687479,-0.3892236674970665,-0.1643115647271962,0.01784,-0.03219,0.01531,15.2,-18.9,1.3
55.5454,6571.7702,0.33507973830801613,-0.42616912483526215,-0.1366670595830506,-0.00171,-0.02852,0.01104,15.2,-18.9,1.3
55.564,6571.7902,0.31932577112433724,-0.4704112172745459,-0.10243668617105506,0.00257,0.00813,0.01348,15.1,-19.0,1.4
55.5851,6571.8102,0.3167872866142411,-0.5133763441710585,-0.06929275043670735,0.02333,0.03317,0.02936,15.2,-19.0,1.3
55.6039,6571.8302,0.32666527536518447,-0.5450876373654443,-0.045156521114320114,0.03005,0.00935,0.05013,15.2,-19.0,1.2
55.6266,6571.8502,0.3446716704074895,-0.5607174472494721,-0.036084543865094076,0.04166,-0.02852,0.04525,15.1,-19.0,1.2
55.6475,6571.8702,0.3706873254897135,-0.5557311089194269,-0.04437072641694506,0.05021,-0.0218,0.02875,15.1,-19.0,1.1
55.6741,6571.8902,0.39846643806693044,-0.5366296153723692,-0.06806224615337442,0.06243,0.02218,0.02692,15.1,-19.0,1.1
55.6823,6571.9102,0.4226128643161326,-0.49615530302411764,-0.10052380810376427,0.07159,0.046,0.03181,15.1,-19.1,1.1
55.7091,6571.9301,0.4338960626004857,-0.46373163014328317,-0.13486172483675674,0.03616,0.01607,0.02448,15.0,-19.1,1.0
55.7252,6571.9501,0.4318025151371982,-0.43536391366297356,-0.16325329238909347,0.02211,-0.00165,0.0202,15.0,-19.2,1.0
55.7478,6571.9701,0.4176733703191254,-0.4233874858727037,-0.18144145828319225,0.03189,-0.0157,0.00432,14.9,-19.2,1.1
55.768,6571.9901,0.3973786868063822,-0.4269303054060725,-0.18845369717970328,0.02578,0.00202,0.00065,15.0,-19.2,1.1
55.7893,6572.0101,0.3753043434830955,-0.44374323048422787,-0.18658161255704186,0.00806,0.00752,-0.00423,15.0,-19.2,1.3
55.8046,6572.0301,0.35571358442869155,-0.46642377105673943,-0.17988114995420013,0.01112,-0.00714,0.00737,15.0,-19.1,1.4
55.8277,6572.0501,0.3416699593599724,-0.4910772301056523,-0.17274844228030517,0.04471,0.01179,0.0257,15.0,-19.1,1.5
55.8484,6572.0701,0.3358078827167588,-0.5077535207013631,-0.16805515890107792,0.05388,0.00996,0.02997,15.0,-19.1,1.5
55.8621,6572.0901,0.3383963558114832,-0.5125588952238842,-0.16709254913700633,0.01234,0.04783,0.03792,15.0,-19.1,1.5
55.887,6572.1101,0.34389597856223686,-0.5117500890191918,-0.16991214693837797,0.00134,0.00935,0.03486,15.0,-19.1,1.6
55.9072,6572.1301,0.3540568839278446,-0.5049101904374181,-0.1753903201288214,0.04349,-0.02547,0.02448,14.9,-19.0,1.6
55.9251,6572.1501,0.36799776610512147,-0.4935127394673103,-0.18172436644975498,0.04716,-0.00531,0.0092,15.0,-19.0,1.7
55.949,6572.1701,0.3842880038865914,-0.479491337308962,-0.1865943022551111,0.01234,0.02951,0.02387,15.0,-19.1,1.8
55.9654,6572.1901,0.40200937771310136,-0.4631207102997377,-0.18722877618242428,0.00562,0.05883,0.05563,14.9,-19.1,1.8
55.9823,6572.2101,0.41920066161419983,-0.4506759555143341,-0.18102876728033301,0.02028,0.0179,0.06235,14.9,-19.1,1.7
56.0089,6572.2301,0.4308012511650661,-0.44921733448938855,-0.16578931414338527,0.03433,-0.04929,0.03669,14.9,-19.1,1.8
56.0242,6572.2501,0.44808965427087843,-0.45094277520992265,-0.14070580068465333,0.0441,-0.06884,0.02753,14.9,-19.1,1.8
56.0482,6572.2701,0.4597061075154855,-0.4597503241009976,-0.1067156820242392,0.03066,-0.01325,0.02997,14.9,-19.1,1.8
56.0645,6572.2901,0.46642238917106327,-0.4758142242013839,-0.06781281510679626,-0.04081,0.02462,0.01043,14.8,-19.2,1.8
56.0853,6572.3101,0.46167537047150076,-0.5020057710004354,-0.030192759298346417,-0.03775,-0.01264,0.00432,14.8,-19.2,1.6
56.1141,6572.33,0.44736669442035665,-0.5393463538874741,-0.0015715844611321472,0.0551,-0.05846,-0.02073,14.8,-19.2,1.5
56.1232,6572.35,0.4226702167571539,-0.569673648054141,0.012276823588367236,0.09664,-0.00898,-0.04394,14.7,-19.2,1.5
56.1447,6572.37,0.39671492395495367,-0.5960098136628136,0.006757560616652114,0.00195,0.03928,-0.02623,14.7,-19.2,1.5
56.1613,6572.39,0.36734389713165133,-0.6061089434503696,-0.017302512078009258,0.027,0.03745,0.00798,14.6,-19.3,1.4
56.1831,6572.41,0.33988824820919616,-0.6054760090649044,-0.05610729353304755,0.11558,-0.00226,0.02387,14.5,-19.3,1.3
56.2019,6572.43,0.32273518136526697,-0.5865743740774675,-0.10160751833924486,0.1058,-0.05357,0.02448,14.5,-19.3,1.4
56.2248,6572.45,0.32033858873693755,-0.5552591616704898,-0.14477745900733652,0.04471,0.03928,0.0147,14.5,-19.3,1.4
56.2488,6572.47,0.33063479267525286,-0.5182791620193178,-0.17722525685531387,-0.00904,0.07166,0.01409,14.4,-19.4,1.3
56.262,6572.49,0.3469603662602227,-0.4864981525025308,-0.19358075289187937,0.02761,0.01668,0.03058,14.4,-19.3,1.3
56.2857,6572.51,0.3616042970476255,-0.47512217277434143,-0.19278851016182408,0.08442,-0.04196,0.05441,14.4,-19.3,1.3
56.3038,6572.53,0.3804202264391674,-0.474713924804594,-0.17741127172693005,0.06548,-0.00959,0.05746,14.4,-19.3,1.4
56.3256,6572.55,0.40003957589744643,-0.4831460980610599,-0.15353330750401106,0.00745,0.00813,0.04158,14.4,-19.3,1.5
56.3557,6572.57,0.4174802519875624,-0.49671724471860534,-0.12894633102044573,-0.01515,0.01179,-0.0024,14.5,-19.3,1.6
56.3665,6572.59,0.425289741180306,-0.5124451626752151,-0.11094814864430447,0.02456,0.01057,-0.0079,14.5,-19.3,1.7
56.3836,6572.61,0.4189233319441563,-0.5301026842837911,-0.10469948875280721,0.07953,-0.03769,0.01165,14.5,-19.3,1.8
56.4023,6572.63,0.3997641120096231,-0.5418705719383095,-0.11141365658141034,0.06915,-0.00103,0.01837,14.5,-19.3,1.9
56.4237,6572.65,0.3730216313414947,-0.5427424413742764,-0.12859753132330987,0.03861,0.03378,0.01226,14.6,-19.3,1.9
56.4461,6572.67,0.3445500540990683,-0.5333295201865851,-0.15119074984370506,0.03128,0.03134,0.00859,14.6,-19.4,1.9
56.4616,6572.69,0.3197451638501547,-0.5196517037126032,-0.1734419540417278,0.02089,0.0063,-0.00057,14.6,-19.4,2.0
56.49,6572.71,0.3060601657946237,-0.5141500558288068,-0.1910293262041698,0.03372,-0.00775,0.00676,14.6,-19.4,2.2
56.5071,6572.73,0.30592297635037025,-0.5089258483778673,-0.20091167156376777,0.06671,0.0063,0.01104,14.6,-19.4,2.2
56.524,6572.7499,0.31897403549889014,-0.50543199924719,-0.20368186377931252,0.0325,0.08998,0.0312,14.6,-19.4,2.2
56.5499,6572.7699,0.3364658049831077,-0.5034505689877617,-0.20240425762840353,-0.00843,-0.00042,0.06601,14.6,-19.3,2.4
56.5695,6572.7899,0.35902947741167657,-0.498744674361819,-0.2017504054190482,0.03861,-0.03402,0.0483,14.6,-19.4,2.4
56.5855,6572.8099,0.3844610497542412,-0.48982815907473,-0.20598672635641968,0.04838,-0.0499,0.04463,14.7,-19.4,2.5
56.6075,6572.8299,0.40735025790406826,-0.47799385470030253,-0.2169076167413735,0.03861,0.0405,0.03608,14.7,-19.5,2.5
56.6266,6572.85,0.42214322546549493,-0.4610963985401345,-0.23242614466757594,0.01539,0.11931,0.0147,14.6,-19.5,2.5
56.6472,6572.87,0.42126213868571033,-0.44610400104492454,-0.24738277705938927,-0.01148,0.09304,0.01959,14.6,-19.5,2.4
56.6686,6572.89,0.403284513090752,-0.4411790185080858,-0.25520420216287576,-0.01026,-0.01264,0.00798,14.5,-19.5,2.3
56.6837,6572.9101,0.38052136840681805,-0.45366269321101904,-0.2505141741500676,-0.01148,-0.10061,0.00432,14.6,-19.5,2.4
56.7116,6572.9301,0.3623658219044612,-0.4813860368356206,-0.23005081347542422,-0.02676,-0.02303,0.00187,14.5,-19.5,2.4
56.7403,6572.9502,0.3609604594473705,-0.5229224456529243,-0.19454005843979694,-0.01332,0.03623,0.02203,14.5,-19.6,2.5
56.7573,6572.9703,0.3749794244357277,-0.5709702594335664,-0.1478933807281706,0.00501,0.04234,0.04402,14.4,-19.6,2.4
56.7761,6572.9903,0.3965488116819719,-0.6155027743079915,-0.096777025177742,0.00073,-0.01875,0.05319,14.4,-19.6,2.3
56.7925,6573.0104,0.42297940755198626,-0.6491629538931486,-0.04988845444025536,-0.0066,-0.02791,0.04952,14.5,-19.6,2.3
56.8035,6573.0304,0.45074987005052775,-0.6680264861998578,-0.01590236996369221,-0.01698,0.01118,0.01776,14.4,-19.7,2.3
56.8235,6573.0505,0.47423361733383235,-0.6714485403595772,-0.001253983668574321,0.01234,0.02829,-0.00729,14.4,-19.7,2.3
56.8518,6573.0706,0.489662739161338,-0.6639805367403552,-0.0086428127274214,0.05327,0.09609,-0.01156,14.3,-19.7,2.2
56.8659,6573.0906,0.48360328185070056,-0.6408999664348359,-0.03480330181620417,0.03738,0.04722,0.02081,14.4,-19.7,2.3
56.8863,6573.1107,0.46483217970238866,-0.6133125207901624,-0.07460944355724486,0.03983,0.00324,0.0428,14.3,-19.8,2.2
56.9081,6573.1308,0.442222050611992,-0.5823690225407484,-0.12006439726886953,0.05938,0.00202,0.04647,14.3,-19.8,2.1
56.9355,6573.1508,0.42428980696763086,-0.5527449704348278,-0.1632833559960325,0.04533,0.02645,0.03181,14.3,-19.8,2.2
56.9544,6573.1709,0.41595461901558395,-0.5251307479208933,-0.1976384496149013,0.00684,0.02462,0.0202,14.3,-19.8,2.2
56.9697,6573.1909,0.41419429132839297,-0.5058043470641577,-0.2191161983738379,0.00684,0.01973,0.03608,14.2,-19.9,2.2
56.9898,6573.211,0.4158287972236198,-0.4980765762975177,-0.22635559925147497,0.03555,0.01179,0.05563,14.3,-19.9,2.2
57.0046,6573.2311,0.42255450445309006,-0.49923422454305955,-0.22042549941470924,0.016,-0.00103,0.04158,14.3,-19.9,2.3
57.0289,6573.2511,0.43038711461321705,-0.5078037809115238,-0.20424582885514297,-0.00782,0.05394,0.01837,14.3,-19.9,2.3
57.0687,6573.2712,0.4362160516828055,-0.5203975738597947,-0.1821230550499937,-0.03409,0.02523,0.02997,14.3,-20.0,2.3
57.0804,6573.2912,0.43955848950334,-0.5448387542619684,-0.15984157553130807,-0.0066,0.01973,0.02142,14.3,-19.9,2.3
57.0985,6573.3113,0.43727899381947216,-0.5720315311133063,-0.14196334195151294,0.00501,-0.0157,0.02081,14.3,-19.9,2.3
57.1084,6573.3314,0.4313438393779155,-0.5944790917229819,-0.1320470891263401,0.0325,-0.0047,0.01715,14.3,-19.9,2.4
57.1313,6573.3514,0.42174308162838064,-0.6076630726183202,-0.13156045429287566,0.00073,0.07838,0.00554,14.4,-19.9,2.4
57.1471,6573.3715,0.40958787178569783,-0.6085146382358774,-0.13958740177319306,-0.02798,0.01729,0.03486,14.4,-19.9,2.5
57.1677,6573.3916,0.39697732522882356,-0.5999710248273248,-0.15332435862776705,0.02883,-0.0102,0.03792,14.3,-20.0,2.5
57.1836,6573.4116,0.3889894474832083,-0.5853051834107489,-0.1684859688046867,0.03555,0.0289,0.02875,14.4,-19.9,2.6
57.2075,6573.4317,0.38661171724021437,-0.5707023901312076,-0.18023032756950563,-0.00354,0.07655,0.03364,14.4,-19.9,2.7
57.2229,6573.4517,0.3880962146911915,-0.5596291682595986,-0.18415526055559894,-0.0011,0.03317,0.03608,14.3,-20.0,2.7
57.2443,6573.4717,0.38906489291110047,-0.5572530335390371,-0.1777510572820038,0.00745,-0.00103,0.03792,14.3,-20.0,2.9
57.2774,6573.4918,0.38496506057112484,-0.5631078418631154,-0.16081046573276225,-0.00721,-0.00409,0.04158,14.3,-20.0,3.0
57.2941,6573.5118,0.38898310691481885,-0.577655799751686,-0.13656631885644543,-0.01943,0.0008,0.04586,14.3,-20.0,3.0
57.3118,6573.5318,0.3960693751672459,-0.5945911074883177,-0.10907111864998242,-0.01393,0.03012,0.04097,14.2,-19.9,3.0
57.3378,6573.5518,0.405466119103616,-0.60962455714904,-0.08335404371339372,0.00134,0.08571,0.03914,14.2,-20.0,3.0
57.3514,6573.5717,0.41284491870346646,-0.6191077616111632,-0.06371107638633866,0.02089,0.0625,0.04402,14.2,-19.9,3.0
57.364,6573.5917,0.41762229550786895,-0.6209608971245748,-0.053215382535642064,0.027,0.01607,0.04036,14.2,-20.0,3.1
57.3884,6573.6117,0.41809633412833136,-0.6185681970793929,-0.05361351869930964,0.01967,0.0179,0.04586,14.2,-20.0,3.0
57.4087,6573.6317,0.42056076584337265,-0.6109955076868859,-0.06542586859904098,0.01784,0.04295,0.04586,14.2,-20.0,3.0
57.4233,6573.6517,0.42334045722378766,-0.602640128308287,-0.08822727962495236,0.0099,0.05394,0.03181,14.1,-20.0,3.1
57.45,6573.6717,0.4240950083375277,-0.5992319257418222,-0.12071091529986155,0.02456,0.07777,0.02203,14.1,-20.0,3.0
57.4693,6573.6917,0.41476863128662556,-0.599950481020734,-0.15966713700160007,0.02395,0.08204,0.03669,14.1,-20.0,3.0
57.4931,6573.7117,0.39663246329872837,-0.6059352381112432,-0.20086050507855902,0.01295,0.03989,0.05013,14.0,-20.1,2.9
57.5061,6573.7317,0.37659723003305773,-0.6125521342899042,-0.23846704406412478,0.027,0.01424,0.04463,14.0,-20.1,2.8
57.5259,6573.7517,0.36180426428203016,-0.6212691803759042,-0.2664391309301948,0.02028,0.06983,0.02814,14.0,-20.1,2.8
57.544,6573.7718,0.35943062996321856,-0.6304072619384846,-0.2795944558426413,0.00012,0.03562,0.04891,14.0,-20.1,2.8
57.567,6573.7918,0.3698754223451273,-0.640997261961347,-0.27575400295487285,0.02822,0.0008,0.09411,14.0,-20.1,2.8
57.5927,6573.8118,0.3905892084890531,-0.6523793701379748,-0.2570699379878221,0.05999,-0.07739,0.12405,13.9,-20.1,2.8
57.6085,6573.8319,0.4384979773012831,-0.6524929975665745,-0.23045107685956445,0.06548,-0.15986,0.09411,13.9,-20.2,2.8
57.6289,6573.8519,0.4854833144540366,-0.6463451946848958,-0.20515077212322375,0.07343,-0.23133,0.09289,13.8,-20.2,2.8
57.6589,6573.8719,0.517234143952361,-0.6350179976309628,-0.19031950693439725,0.10091,-0.18429,0.07762,13.8,-20.2,2.7
57.6745,6573.8919,0.5590274113401837,-0.5905875023303152,-0.1913162636147252,0.08198,-0.06945,0.0538,13.7,-20.2,2.7
57.6923,6573.912,0.5766816740796022,-0.5329084219312049,-0.2062980527725813,0.02639,0.09121,0.01348,13.8,-20.3,2.7
57.7047,6573.932,0.5533062940955987,-0.47557997254266965,-0.22572736683086525,-0.03714,0.19322,-0.04394,13.7,-20.3,2.7
57.7245,6573.952,0.5001832912810852,-0.4303946462952464,-0.2364102587325334,-0.08296,0.18894,-0.06043,13.7,-20.2,2.7
57.7502,6573.972,0.4206259957990828,-0.41271414591207106,-0.22491643320550914,-0.1135,0.11808,-0.02928,13.8,-20.2,2.8
57.7703,6573.9921,0.3287220784292628,-0.44409812199375664,-0.184530957416829,-0.108,0.04111,0.01959,13.8,-20.2,2.8
57.7945,6574.0121,0.2581702566638397,-0.5094854945137312,-0.11717229922625094,-0.07318,0.0515,0.07579,13.8,-20.2,2.8
57.8065,6574.0321,0.23768030493033013,-0.6048193808493925,-0.03458227489629628,-0.06035,0.07838,0.11122,13.8,-20.2,2.7
57.8286,6574.0522,0.2594538160213814,-0.6960462241309715,0.04717813108679536,-0.04142,0.046,0.11427,13.8,-20.3,2.6
57.8451,6574.0722,0.3251979714420561,-0.7712462274602897,0.10856931737795428,0.00623,0.00691,0.13565,13.7,-20.3,2.7
57.8667,6574.0922,0.40846294557321744,-0.8178472660469683,0.13447889297230908,0.05449,-0.02303,0.14848,13.6,-20.3,2.6
57.8842,6574.1122,0.500968150095384,-0.8230526286315674,0.11767870885830689,0.09297,0.02096,0.10389,13.6,-20.3,2.5
57.9041,6574.1323,0.5782194570008292,-0.792222087149874,0.060963083048839906,0.08442,0.11931,0.02753,13.5,-20.3,2.5
57.9343,6574.1523,0.6280512724438394,-0.7397670778898938,-0.023708380292923437,0.0551,0.15412,-0.0189,13.5,-20.4,2.4
57.952,6574.1723,0.619024604922956,-0.6811094919651277,-0.11610556240216141,0.01478,0.09793,-0.01523,13.5,-20.4,2.5
57.965,6574.1924,0.5662958629797845,-0.6423196363884172,-0.19827382224963763,0.00379,0.04539,-0.01584,13.5,-20.4,2.6
57.986,6574.2124,0.49922363062843456,-0.6351228729436547,-0.2562379915332169,0.02272,0.04478,-0.01951,13.5,-20.4,2.7
58.0039,6574.2324,0.4393948947363662,-0.6543257067390699,-0.28236924889950643,0.02761,0.07593,0.01104,13.5,-20.4,2.7
58.0311,6574.2524,0.4080604792270793,-0.6855860177779007,-0.27775035419027994,0.00134,0.10098,0.05441,13.5,-20.4,2.7
58.0528,6574.2725,0.4100407731157232,-0.7163088658953294,-0.25091284995391305,-0.03897,0.06433,0.08617,13.4,-20.5,2.6
58.0682,6574.2925,0.44751408973450074,-0.7341261404687635,-0.21493325783736594,-0.00232,0.02401,0.11672,13.4,-20.5,2.6
58.0891,6574.3125,0.5023838057105661,-0.7309001640077881,-0.18226706690455963,0.06548,0.00507,0.12954,13.3,-20.5,2.7
58.1163,6574.3326,0.5584710917879601,-0.7031867250671328,-0.16147493316599615,0.08198,0.0063,0.12649,13.3,-20.6,2.7
58.1247,6574.3526,0.6120188107443757,-0.6445362152820995,-0.15513163878321024,0.02333,0.05761,0.07151,13.3,-20.6,2.6
58.147,6574.3725,0.6306566987218937,-0.5836362736356552,-0.15996770439949692,-0.02737,0.05028,0.04647,13.3,-20.6,2.5
58.1852,6574.3925,0.6136432092180286,-0.5374829237747255,-0.16919941341584277,-0.00904,0.02462,0.01776,13.4,-20.6,2.6
58.1879,6574.4125,0.5611561707540185,-0.530867936638799,-0.17600394520481366,0.00195,0.00568,-0.01828,13.3,-20.6,2.5
58.2035,6574.4325,0.496291068156348,-0.5537227056498603,-0.17664205576315162,-0.06219,-0.00898,-0.00973,13.3,-20.6,2.5
58.2252,6574.4525,0.4408891166774384,-0.5951676365745281,-0.17309327615084946,-0.10311,-0.04074,0.01226,13.4,-20.6,2.6
58.2452,6574.4725,0.4183122357389295,-0.6490732127985682,-0.17298820164836037,-0.07685,-0.03402,0.03303,13.4,-20.6,2.6
58.2636,6574.4925,0.4397577170854969,-0.7017810642160203,-0.1848564880805128,-0.01454,0.046,0.03364,13.4,-20.6,2.5
58.2859,6574.5125,0.5012784326656051,-0.7391711867946402,-0.2135061588992624,0.06365,0.03806,0.05319,13.3,-20.7,2.4
58.3036,6574.5325,0.5892168928106345,-0.7423938301584467,-0.25609044813139015,0.1003,0.05028,0.0483,13.3,-20.8,2.3
58.3238,6574.5525,0.6833688176253956,-0.7119702931825616,-0.3037937472782133,0.02456,0.11014,-0.00607,13.2,-20.8,2.4
58.3533,6574.5725,0.7710611397458255,-0.6538864123899187,-0.344665076011923,-0.0744,0.09854,-0.09281,13.2,-20.8,2.5
58.3708,6574.5925,0.8136237225755123,-0.6089747379138203,-0.36666816123103807,-0.12511,0.06066,-0.14779,13.2,-20.8,2.5
58.3843,6574.6125,0.8151503316024041,-0.5898583405695328,-0.36195025514797763,-0.08173,0.03745,-0.1429,13.2,-20.8,2.4
58.4082,6574.6325,0.8027599972427741,-0.5858536153070412,-0.32857981408316483,-0.02859,0.02462,-0.11786,13.2,-20.8,2.5
58.4239,6574.6525,0.767290365925369,-0.601213586382808,-0.2680575853711389,-0.06035,0.12847,-0.08059,13.2,-20.8,2.5
58.4467,6574.6725,0.7367881351360837,-0.6147173381752689,-0.18831154911918446,-0.11655,0.08082,-0.03539,13.2,-20.8,2.5
58.4664,6574.6925,0.714479735520075,-0.6317480769601431,-0.10035521751134624,-0.08051,-0.0102,-0.02073,13.1,-20.8,2.5
58.4845,6574.7125,0.7094502352696984,-0.6499129434284149,-0.016942691524574727,-0.01393,-0.07251,-0.02256,13.1,-20.8,2.5
58.5043,6574.7325,0.7214277069042205,-0.665841076557797,0.05002361166993907,0.00012,-0.05662,-0.04028,13.2,-20.8,2.6
58.5263,6574.7525,0.7406382858837219,-0.6782572634211176,0.09107191722227981,-0.01759,0.03928,-0.05738,13.1,-20.9,2.6
58.5593,6574.7725,0.7552383440466289,-0.6894750455377341,0.10031569457797218,-0.02798,0.02096,-0.07509,13.1,-20.8,2.6
58.5703,6574.7924,0.7332411960300745,-0.7031400061002141,0.07852312175182874,0.00928,-0.07861,-0.10503,13.1,-20.8,2.7
58.5863,6574.8124,0.6892721534767886,-0.7186891967526112,0.02914239659831175,0.05571,-0.10366,-0.16734,13.1,-20.8,2.7
58.6044,6574.8324,0.6309885492958537,-0.7313939672636199,-0.03803816490496459,0.01112,-0.05662,-0.20154,13.2,-20.7,2.7
58.6244,6574.8524,0.5695341919642032,-0.737771947557711,-0.11015227004301664,-0.00049,0.04356,-0.18933,13.2,-20.7,2.7
58.6539,6574.8724,0.5232938822949567,-0.7394450430466661,-0.17516488405274977,0.01417,0.05455,-0.15634,13.2,-20.7,2.7
58.669,6574.8924,0.46638749771860544,-0.7404845700291972,-0.22258610561236125,0.01661,0.01057,-0.11969,13.3,-20.7,2.6
58.6857,6574.9124,0.42946662929550683,-0.7430428033218006,-0.2509262057827062,0.0099,-0.0664,-0.09098,13.4,-20.6,2.7
58.7073,6574.9324,0.41780056056902143,-0.7463413652598105,-0.2632022104518459,0.00562,-0.04074,-0.07754,13.5,-20.7,2.7
58.7333,6574.9524,0.42801452398520967,-0.7469790432781911,-0.26619306093683903,-0.01271,0.00019,-0.08609,13.5,-20.6,2.7
58.7526,6574.9724,0.4425928297032317,-0.7450797762365169,-0.26718516575952833,-0.00843,-0.01447,-0.08426,13.6,-20.6,2.7
58.7702,6574.9924,0.45117506997194,-0.739653245163573,-0.27069973097574973,-0.0121,-0.03158,-0.06838,13.7,-20.5,2.8
58.7841,6575.0124,0.44833734549705695,-0.7292767147589316,-0.27602449112100835,0.00134,-0.03708,-0.04944,13.8,-20.4,2.8
58.8043,6575.0324,0.4396071129663789,-0.713384922006878,-0.2777514265393357,0.01173,-0.03158,-0.04761,13.8,-20.4,2.7
58.8261,6575.0524,0.4300080579801541,-0.690913276805789,-0.26799123315919005,-0.01271,-0.03219,-0.04211,13.8,-20.4,2.8
58.848,6575.0724,0.42421813638006534,-0.6664480229345113,-0.24119137895990228,-0.07013,-0.03585,-0.02623,13.9,-20.3,2.8
58.8669,6575.0924,0.42727191368902245,-0.6512983633162885,-0.19790201729625778,-0.08906,-0.06456,0.00065,13.9,-20.3,2.6
58.8881,6575.1124,0.4403302683865205,-0.6488404347045879,-0.14483562870067068,-0.05913,-0.0835,0.01653,13.9,-20.3,2.6
58.9124,6575.1324,0.46389727791938956,-0.6585486016993036,-0.0935724412579777,-0.00049,-0.08045,0.00065,13.9,-20.2,2.6
58.9239,6575.1524,0.4905975697017228,-0.6733662230742827,-0.05594427028002258,0.01661,-0.0157,-0.04638,13.9,-20.2,2.6
58.9533,6575.1724,0.5135398698599598,-0.684000649265742,-0.03993267763817343,-0.0402,0.05394,-0.06715,14.0,-20.2,2.6
58.9645,6575.1924,0.5087001063880235,-0.6938828464414601,-0.04634602209667271,-0.02004,-0.02425,-0.06043,14.0,-20.2,2.6
58.9845,6575.2123,0.4890538543869324,-0.7025644492381511,-0.06975028435621944,-0.00721,-0.1061,-0.07326,13.9,-20.2,2.5
59.0059,6575.2323,0.46007149733861497,-0.713557620549151,-0.09868688472580267,0.00928,-0.06151,-0.06654,14.0,-20.1,2.5
59.0259,6575.2523,0.4313128087326092,-0.727587352809008,-0.11985445729036392,-0.03653,0.01485,-0.03722,14.0,-20.1,2.6
59.0681,6575.2723,0.39618496240006884,-0.7341865878806032,-0.12139432270754291,-0.07013,-0.08717,0.0373,14.0,-20.0,2.6
59.0831,6575.2923,0.3986639395030581,-0.7565524056432966,-0.10300363907689025,-0.06158,-0.11832,0.0764,13.9,-20.0,2.6
59.1022,6575.3123,0.42145598840530357,-0.7762116475682684,-0.0671622073015179,-0.06341,-0.14214,0.05807,13.9,-20.0,2.4
59.1048,6575.3323,0.48645618985688616,-0.7982244453953403,-0.02712970420365224,-0.06096,-0.09816,0.03853,13.9,-20.0,2.5
59.1267,6575.3524,0.5478348764065861,-0.8049082502758393,0.005534184768189121,-0.00599,-0.04074,0.04891,13.9,-20.0,2.4
59.1524,6575.3724,0.6036121838887657,-0.8039350947730288,0.017210478189939593,0.02761,-0.02425,0.06113,13.9,-20.1,2.3
59.1709,6575.3924,0.6456509569275399,-0.7905943829579813,0.0013398029628000074,0.05449,-0.07739,0.05197,13.9,-20.1,2.2
59.1876,6575.4125,0.662927370750419,-0.76937348947501,-0.04170189794254853,0.05266,-0.12199,-0.00729,13.9,-20.1,2.1
59.2065,6575.4325,0.6522041576849263,-0.748238264583966,-0.10554470196229637,0.01967,-0.09022,-0.06288,13.9,-20.1,2.0
59.2244,6575.4525,0.613928895653192,-0.7350690829053803,-0.17954541889037046,-0.03225,-0.00653,-0.08548,13.9,-20.1,2.0
59.2476,6575.4725,0.5525966530258817,-0.736659561281302,-0.2514308228248723,-0.0237,0.01363,-0.08792,13.9,-20.1,1.9
59.2671,6575.4926,0.46671603621884467,-0.7563600961861751,-0.3091098718820309,-0.0066,0.00691,-0.0922,13.9,-20.2,1.9
59.2882,6575.5126,0.3734921406942267,-0.7859417003434701,-0.34343501821765443,-0.01271,-0.04196,-0.08059,13.9,-20.2,1.8
59.3095,6575.5326,0.29176251210653215,-0.8142743192114253,-0.3488488544281374,-0.00415,0.00019,-0.0415,13.9,-20.2,1.8
59.3391,6575.5527,0.24199712954882927,-0.8307427954847634,-0.3242386934447996,-0.04814,0.02645,0.00065,13.9,-20.2,1.7
59.354,6575.5727,0.23213060276265496,-0.8398942389445837,-0.2739514741724154,-0.03714,0.07899,0.03425,13.9,-20.2,1.7
59.367,6575.5927,0.2670209915854587,-0.837916521355675,-0.20545078721437626,0.01295,0.0515,0.04952,13.9,-20.2,1.7
59.3851,6575.6127,0.3394636245294486,-0.8270263802090976,-0.12909200993023617,0.01845,0.02096,0.05807,13.9,-20.2,1.7
59.4052,6575.6328,0.4372881215826925,-0.810843044666214,-0.05640261829326754,0.01173,0.03867,0.04891,13.9,-20.2,1.6
59.4266,6575.6528,0.5435839638396712,-0.7932306817108773,0.0015383801312172096,0.02822,0.06188,0.02264,13.9,-20.2,1.5
59.4496,6575.6728,0.6384866704217915,-0.7787163096513733,0.03561851204418609,0.04044,0.06799,-0.00912,13.9,-20.2,1.4
59.4666,6575.6929,0.6981339363287613,-0.7682562308042659,0.040767132377535376,0.02883,0.08754,-0.04577,14.0,-20.1,1.5
59.4898,6575.7129,0.7220005975588624,-0.7641744251877769,0.014783339355737724,0.027,0.04478,-0.07876,14.0,-20.1,1.6
59.5048,6575.7329,0.6957105576423761,-0.7570799575463921,-0.037760665276184824,0.05388,0.06799,-0.10564,14.0,-20.1,1.7
59.5248,6575.7529,0.6463686389267082,-0.7452225566847127,-0.11150232993467313,0.04533,0.10526,-0.11358,14.0,-20.1,1.7
59.5528,6575.773,0.5940039107462354,-0.7258062406147301,-0.1972428927243044,0.01723,0.0796,-0.08976,14.0,-20.1,1.7
59.5683,6575.793,0.5339541393835354,-0.6937077678297219,-0.28274375785587047,0.03677,0.06005,-0.05494,14.0,-20.0,1.7
59.5958,6575.813,0.5031613151055169,-0.6603953720074186,-0.35968496263187255,0.05388,0.07777,-0.00301,14.0,-20.0,1.7
59.611,6575.8331,0.5014080203091902,-0.6254235209549405,-0.41791013848221326,0.02028,0.04478,0.02936,14.0,-19.9,1.7
59.6477,6575.8531,0.5312458060468864,-0.6012814428649669,-0.45069056991758316,-0.01026,0.03867,0.03792,14.0,-20.0,1.7
59.6584,6575.8731,0.5799835067918043,-0.6029249403253332,-0.45392624345114996,-0.04264,0.0179,-0.00057,14.0,-20.0,1.6
59.6737,6575.8931,0.6274024061928748,-0.6329855412815634,-0.42631475507437955,-0.07196,-0.02791,-0.04211,14.0,-20.1,1.5
59.6898,6575.9132,0.6534349064234732,-0.6933911555888653,-0.3707435286274645,-0.07135,-0.04013,-0.06104,14.0,-20.1,1.5
59.7048,6575.9332,0.6471306650069935,-0.7787698686752073,-0.29423940983471475,-0.12511,-0.10977,-0.04944,14.0,-20.1,1.6
59.7263,6575.9532,0.6089644099869808,-0.8688314299510967,-0.20663704986316134,-0.10128,-0.12382,-0.06227,14.0,-20.1,1.6
59.7481,6575.9732,0.5544537281731544,-0.952468104577312,-0.12114910572285531,-0.06585,-0.07495,-0.03966,14.0,-20.1,1.6
59.7694,6575.9932,0.503177445831038,-1.0140416262522924,-0.05039074527897114,-0.07868,-0.0157,-0.00057,14.0,-20.1,1.6
59.7942,6576.0132,0.4711017054692674,-1.0405119761921178,-0.004276148924780898,-0.05119,-0.0157,0.01104,14.0,-20.1,1.6
59.8054,6576.0331,0.47036483753193586,-1.0353023379451427,0.0103233581708988,-0.0237,-0.00959,0.01348,14.0,-20.2,1.6
59.8354,6576.0531,0.49444860739907404,-0.9963399249310508,-0.0062543768396121635,-0.00171,-0.02364,0.0312,14.1,-20.2,1.7
59.8523,6576.0731,0.5532024740254216,-0.9324039210571762,-0.04987485832244509,0.016,-0.03708,0.04402,14.1,-20.2,1.6
59.8663,6576.0931,0.6332967935165714,-0.853282240420945,-0.110942151685677,0.03005,-0.03891,0.05746,14.1,-20.2,1.6
59.8876,6576.1131,0.7171628238232457,-0.771581114941358,-0.17737542667462058,-0.00232,0.02462,0.02875,14.1,-20.2,1.6
59.9127,6576.1331,0.7899450590785153,-0.6987984068380383,-0.23675678373721176,-0.04264,-0.00165,-0.04883,14.1,-20.2,1.4
59.9249,6576.1531,0.8258023033355243,-0.6607899231545823,-0.2779604686377315,-0.08051,0.00263,-0.09342,14.0,-20.2,1.3
59.9505,6576.1731,0.8243640740948761,-0.6554441613652492,-0.29261626648572836,-0.06096,-0.05723,-0.06043,14.1,-20.1,1.3
59.9683,6576.1931,0.7825097236681724,-0.6926901043612687,-0.277296375870856,-0.02187,-0.07617,-0.05677,14.1,-20.1,1.3
59.9874,6576.2131,0.7159136966629122,-0.7581158354750116,-0.23378546156247992,-0.03897,-0.03097,-0.06593,14.1,-20.1,1.3
60.0039,6576.2331,0.6385786395183422,-0.8409587099304008,-0.16958605681776362,-0.10067,-0.0438,-0.08365,14.1,-20.1,1.2
60.0309,6576.2531,0.5638691575750457,-0.9210709940998877,-0.09652139913372437,-0.0854,-0.07739,-0.05616,14.2,-20.0,1.2
60.0518,6576.2731,0.5014117263241429,-0.9976768813825447,-0.03135496019488215,-0.02615,-0.03524,-0.025,14.2,-20.0,1.2
60.0717,6576.2931,0.4626967530326014,-1.0499332669239987,0.010859737616852883,0.05999,-0.04502,0.01104,14.2,-19.9,1.0
60.0869,6576.3131,0.45412133760818213,-1.058509764272541,0.01931765642655847,0.07159,-0.01875,0.01715,14.2,-19.9,0.9
60.1046,6576.3331,0.4725930525651912,-1.0202600195114109,-0.011066098030013904,0.02089,0.03562,-0.01401,14.2,-19.9,0.9
60.1304,6576.3531,0.5113979781610788,-0.9429040117562012,-0.07795142309717562,0.01051,0.05028,-0.03905,14.1,-19.9,0.6
60.1464,6576.3731,0.5602902978690857,-0.8318456111716587,-0.17057545887210424,0.00318,-0.01447,-0.02073,14.2,-19.9,0.6
60.1877,6576.3931,0.6327606858518607,-0.6873248862541892,-0.2737709901697176,0.00867,-0.0328,-0.03172,14.2,-19.9,0.8
60.1894,6576.4131,0.6739728540085671,-0.5926758476110932,-0.37134635944742556,-0.17214,0.10342,-0.09892,14.2,-19.8,0.9
60.2061,6576.433,0.7155237280059643,-0.5097092098573877,-0.44472754546779214,-0.31508,0.23048,-0.07693,14.3,-19.8,0.8
60.224,6576.453,0.7257926706445798,-0.4863087271094732,-0.48147509413950296,-0.26011,0.05455,-0.0641,14.3,-19.8,0.8
60.2447,6576.473,0.7011058533171631,-0.5225204153421071,-0.47503085278634494,-0.09884,-0.11343,-0.14718,14.2,-19.8,0.9
60.2658,6576.493,0.6525194834470125,-0.6047344191599685,-0.4271830928162714,-0.26316,-0.12138,-0.2779,14.3,-19.7,0.9
60.2838,6576.513,0.591687263798195,-0.725599979833533,-0.3472574340964254,-0.53133,0.01668,-0.27179,14.2,-19.7,0.8
60.3067,6576.5331,0.5458107332159665,-0.8473076037519727,-0.2484054918711287,-0.35662,0.31539,-0.15695,14.2,-19.7,0.9
60.3284,6576.5531,0.49584590682306345,-0.9770014215445059,-0.14673797215005813,-0.10617,0.45467,-0.03478,14.3,-19.6,0.9
60.355,6576.5731,0.4512319057312325,-1.0761604870080967,-0.05445734361172505,-0.1923,0.3496,0.04769,14.3,-19.6,0.8
60.3664,6576.5931,0.40012735372199915,-1.1562848035597477,0.017286995273661176,-0.22529,0.0515,0.10511,14.3,-19.6,0.7
60.396,6576.6132,0.38776919673453425,-1.15379334167655,0.06950999125168522,-0.21368,0.17978,0.05807,14.3,-19.6,0.7
60.4058,6576.6332,0.3931863125649796,-1.1434684732757663,0.09456677646208966,-0.11167,0.24148,0.04891,14.3,-19.6,0.6
60.4267,6576.6532,0.41280913958804105,-1.0923640888592712,0.0992834077015452,-0.06891,0.09243,0.12893,14.4,-19.6,0.5
60.4521,6576.6733,0.4264326599967314,-1.030746639872273,0.0852795727733131,-0.06646,-0.07678,0.20285,14.4,-19.6,0.4
60.4657,6576.6933,0.47226114069809105,-0.9720709532798928,0.05475252821651466,0.00501,-0.19285,0.16314,14.3,-19.6,0.3
60.4864,6576.7133,0.5287545624511707,-0.9326259328622245,0.013602585824287416,0.13024,-0.10977,0.05807,14.3,-19.6,0.1
60.5082,6576.7333,0.6032433421670155,-0.9123297305210923,-0.030322217502744664,0.13818,-0.04685,-0.05188,14.3,-19.6,0.2
60.5256,6576.7534,0.6768119335323667,-0.8984009531839585,-0.06583118402213906,0.07831,-0.06701,0.01287,14.4,-19.6,0.2
60.5466,6576.7734,0.7289731573528927,-0.8901979673485035,-0.08415502291846622,-0.00965,-0.11893,0.12588,14.4,-19.6,0.1
60.5747,6576.7934,0.7543908826784788,-0.8784850940578849,-0.08172510473919381,-0.12266,-0.08778,0.1381,14.4,-19.6,0.0
60.5853,6576.8135,0.7993486796180581,-0.8920383041887427,-0.06949249526859269,-0.12327,-0.02913,0.0593,14.4,-19.7,0.0
60.6055,6576.8335,0.838150756185912,-0.9101161184528908,-0.053475951426145585,0.02822,-0.02669,0.02448,14.4,-19.6,0.0
60.6302,6576.8535,0.8776399811297773,-0.9408735493117181,-0.044946580836093375,0.20476,0.05883,-0.0024,14.3,-19.6,-0.1
60.6498,6576.8735,0.9017348834655878,-0.9638876239683974,-0.04526070800485371,0.17544,0.05883,-0.04516,14.3,-19.7,-0.1
60.6672,6576.8936,0.9035147759809454,-0.982677034830019,-0.051445449400258525,0.19804,-0.11099,-0.12641,14.3,-19.7,-0.2
60.6897,6576.9136,0.8849094306930007,-1.02138530064693,-0.05866790489306695,0.17483,-0.13665,-0.20093,14.3,-19.7,-0.2
60.711,6576.9336,0.8434388800294437,-1.075947045425748,-0.05939084602226963,0.15162,-0.17513,-0.15939,14.3,-19.7,-0.1
60.7283,6576.9537,0.7825265407305085,-1.1481499875882257,-0.052765416756917816,0.09481,-0.20323,-0.19421,14.3,-19.7,0.0
60.7544,6576.9737,0.7098970758879571,-1.2487204825078624,-0.04740299456286934,0.09236,-0.18552,-0.18933,14.3,-19.7,-0.1
60.7655,6576.9937,0.6338942881608243,-1.3205115160347973,-0.04921885619755173,0.26768,-0.14581,-0.15634,14.3,-19.7,-0.1
60.7859,6577.0137,0.5769381951553644,-1.3971107930494546,-0.07638941156776013,0.44666,0.07288,-0.1093,14.3,-19.7,-0.1
60.8076,6577.0338,0.5396977290088469,-1.4278933076082327,-0.1272654711725547,0.63298,0.14069,-0.08792,14.4,-19.7,-0.1
60.8285,6577.0538,0.5091733194090396,-1.3803831600894017,-0.19097213147114367,0.49492,0.12969,-0.18261,14.4,-19.7,-0.2
60.8488,6577.0738,0.47849886283688187,-1.2614001000646504,-0.2550341332246209,0.40085,-0.03036,-0.15329,14.4,-19.6,0.0
60.8672,6577.0939,0.4554813089223208,-1.098274050543266,-0.30868355615831966,0.37641,-0.20262,-0.05066,14.4,-19.6,0.1
60.8929,6577.1139,0.45216089652850794,-0.955097775976254,-0.3480230218733489,0.27318,-0.09755,0.02325,14.5,-19.5,0.1
60.9058,6577.1339,0.4918482018481942,-0.8098460894315359,-0.3659375801917921,0.21576,0.00324,0.06113,14.6,-19.5,0.2
60.9281,6577.1539,0.5584097068936639,-0.7254764368700412,-0.36846093427469384,0.23286,0.14252,0.11794,14.7,-19.5,0.3
60.9524,6577.1739,0.6377593937449726,-0.6798683899990559,-0.3586547940020637,0.19438,0.19627,0.13443,14.8,-19.5,0.6
60.9708,6577.1939,0.7135008013483073,-0.6504466350157504,-0.34243181243650866,0.13329,-0.10122,0.06846,14.8,-19.5,0.9
60.9979,6577.2139,0.7679986980406001,-0.6479706603699413,-0.32778131554550605,0.12229,-0.078,0.02997,14.8,-19.4,1.1
61.0077,6577.2339,0.8150315248411962,-0.6422127119963008,-0.32050838610004284,0.08809,0.06005,0.04402,14.8,-19.4,1.3
61.0263,6577.2538,0.8429162979129474,-0.6572699771315051,-0.3250766443659696,0.15589,0.01363,0.02448,14.8,-19.4,1.4
61.0465,6577.2738,0.8589576067455176,-0.6763344712677647,-0.3409108270703314,0.25119,-0.00348,-0.09281,14.9,-19.4,1.6
61.0648,6577.2938,0.8582097572498997,-0.6760298749683205,-0.3620736898844932,0.20965,0.2879,-0.08487,14.9,-19.3,1.8
61.0849,6577.3138,0.8448610114874373,-0.6512489948542564,-0.38244461246385697,0.05388,0.29462,0.00493,14.9,-19.3,1.9
61.1357,6577.3338,0.857547213120408,-0.584521157874445,-0.3983577094586135,-0.0347,0.22499,0.03242,14.9,-19.3,2.1
61.1384,6577.3538,0.8152229753547086,-0.563099633759113,-0.4037296532622179,-0.14526,0.22254,0.00187,14.9,-19.3,2.2
61.147,6577.3738,0.7904399702491328,-0.5571902938673237,-0.4004733433167207,-0.09762,0.07716,0.00798,14.9,-19.3,2.3
61.1693,6577.3938,0.7881539477762909,-0.5770817713928992,-0.38796067807514056,0.03311,0.11198,0.02936,14.9,-19.3,2.4
61.1854,6577.4138,0.7996514808009256,-0.6196890453180977,-0.3640853981893173,0.01417,0.0851,0.00676,14.9,-19.2,2.6
61.2063,6577.4338,0.8219968441123905,-0.6684662121752957,-0.32726628500603994,-0.08906,0.03623,-0.025,14.8,-19.3,2.6
61.2306,6577.4538,0.8468761250193917,-0.7150535850279367,-0.2786639223377314,-0.23445,0.02768,-0.04394,14.8,-19.3,2.8
61.254,6577.4738,0.862562538674621,-0.7670400507909766,-0.22514666392626026,-0.26011,0.11808,-0.02867,14.7,-19.2,2.9
61.2679,6577.4938,0.8485119787409684,-0.8304838191155964,-0.1780254179060794,-0.06158,0.13946,-0.0812,14.7,-19.2,2.8
61.2901,6577.5138,0.8210816958879227,-0.8611993469635447,-0.15012127196482616,-0.01087,0.10953,-0.15206,14.8,-19.2,2.9
61.3054,6577.5338,0.764835482203603,-0.8718302956245368,-0.15351592010427773,-0.02248,0.10159,-0.1093,14.8,-19.2,3.0
61.3291,6577.5538,0.7221278317680808,-0.8821271086042063,-0.19724895250600838,-0.01759,0.20422,-0.07082,14.8,-19.2,3.0
61.3493,6577.5738,0.6753683320767929,-0.872103453299269,-0.269635346997374,0.73683,0.30928,-0.20277,14.7,-19.2,3.1
61.3671,6577.5938,0.6290429440325881,-0.8178084338294421,-0.34943555172599794,0.44789,0.01363,-0.16306,14.7,-19.2,3.0
61.3847,6577.6138,0.5925829480787677,-0.721047765359444,-0.41323701778075517,-0.02737,0.09243,-0.00301,14.7,-19.2,3.2
61.4065,6577.6338,0.5743437250116488,-0.5990891289082965,-0.44153476187940477,-0.35174,0.04906,0.03058,14.7,-19.2,3.2
61.4255,6577.6537,0.5885593468095873,-0.5236426428901707,-0.42645667321965597,-0.61197,-0.25027,0.06296,14.7,-19.1,3.2
61.446,6577.6737,0.6357304143676378,-0.5158525440160424,-0.36708208493431904,-0.39205,-0.06518,0.02081,14.7,-19.1,3.1
61.4715,6577.6937,0.7031468316546191,-0.5558354856515892,-0.2736968367532864,-0.2876,-0.22156,0.00065,14.7,-19.1,3.1
61.4875,6577.7137,0.806626310098075,-0.6539955112714382,-0.17299278723701583,-0.389,-0.25943,0.10389,14.7,-19.1,3.0
61.5126,6577.7337,0.9124058765504459,-0.7228291732159811,-0.08700486229075644,-0.27843,0.00141,0.07762,14.8,-19.2,3.0
61.5272,6577.7537,1.0197052989059487,-0.7821403447005728,-0.04219351240174163,-0.04264,0.11931,0.01837,14.8,-19.2,3.0
61.5487,6577.7737,1.103883817167696,-0.8100022002673261,-0.046153271777031435,0.14062,0.08021,-0.00668,14.8,-19.2,2.8
61.5666,6577.7937,1.140846419724462,-0.7970776997851075,-0.09012303119457776,0.15284,0.06127,0.01715,14.8,-19.2,2.8
61.5896,6577.8137,1.1280968414596078,-0.7540004758962222,-0.1573803858813907,-0.04142,-0.05846,4e-05,14.7,-19.2,2.5
61.608,6577.8337,1.0822716759519122,-0.7077542278173018,-0.23162701480906556,-0.17703,-0.19712,-0.02012,14.7,-19.2,2.4
61.625,6577.8537,1.0189195833529654,-0.6934157801254647,-0.3010224344983854,-0.14282,-0.01692,-0.03233,14.6,-19.2,2.3
61.6474,6577.8737,0.9471864577688296,-0.7180074907196755,-0.3586681696936225,-0.0628,0.04111,-0.03722,14.6,-19.2,2.1
61.6677,6577.8937,0.8690810457487916,-0.7748206460964175,-0.403424981114183,0.02639,0.08204,0.00126,14.6,-19.3,2.0
61.6861,6577.9137,0.785769526034937,-0.8316498578741199,-0.4359350005520142,-0.05119,0.05639,-0.01095,14.6,-19.3,1.9
61.7068,6577.9337,0.7043190062618162,-0.865201559376702,-0.4575787004450671,-0.04997,0.19933,0.06235,14.6,-19.2,1.8
61.7274,6577.9537,0.6255118868287296,-0.8726911132712535,-0.4686387511108787,0.00073,0.23232,0.1155,14.6,-19.3,1.7
61.7475,6577.9737,0.5511822993755312,-0.8656682976110613,-0.4689067079406417,-0.04569,-0.01692,0.10878,14.5,-19.3,1.5
61.7671,6577.9937,0.4891090000160487,-0.8564511402145633,-0.4582613850013715,-0.01576,-0.14276,0.1607,14.5,-19.3,1.4
61.7879,6578.0137,0.45016693599286234,-0.8491302761952114,-0.4373436334027332,0.05205,-0.12748,0.24133,14.4,-19.3,1.2
61.807,6578.0337,0.4562224014946776,-0.836792572375425,-0.40888420696651373,-0.02615,-0.10305,0.28532,14.3,-19.3,1.2
61.8293,6578.0537,0.49761719470607974,-0.809013734286138,-0.3767933900102136,-0.13549,0.08388,0.29081,14.3,-19.3,1.0
61.85,6578.0736,0.5625970555690541,-0.7675937796667185,-0.3478805786974686,-0.08051,0.31906,0.24072,14.2,-19.2,0.9
61.868,6578.0936,0.6212643569507693,-0.7189990535806651,-0.32734928221661264,-0.03958,0.20238,0.21323,14.1,-19.3,0.9
61.8902,6578.1136,0.6541156450584565,-0.6668016164914126,-0.3164417349407689,0.06365,0.07349,0.16253,14.1,-19.4,0.9
61.9095,6578.1336,0.6644861805729648,-0.5947758321817145,-0.31061449922590967,0.22736,0.11869,0.09473,14.0,-19.4,0.8
61.9305,6578.1536,0.6600597814967366,-0.4923619717512484,-0.3012845793958032,0.19743,0.23232,0.02936,14.0,-19.4,0.7
61.9549,6578.1736,0.6440289771640143,-0.35165123169463547,-0.27875845974040736,-0.05913,0.33067,0.03181,13.9,-19.4,0.8
61.973,6578.1936,0.6027978479014299,-0.20851598946694996,-0.23732919330199742,-0.2711,0.23598,0.04402,13.8,-19.4,0.7
61.9887,6578.2136,0.5528113333504637,-0.10314198757200385,-0.17787400709494072,-0.27049,-0.04441,0.00187,13.7,-19.5,0.4
62.0116,6578.2336,0.5063225802592508,-0.03870384478174669,-0.10535021512987619,-0.16237,-0.2411,-0.09586,13.6,-19.6,0.3
62.0408,6578.2536,0.4813391644069047,-0.025764338806305378,-0.028767972546226872,-0.10495,-0.18246,-0.10014,13.6,-19.6,0.3
62.0655,6578.2736,0.48412899933795234,-0.0509770266965202,0.04269131109063906,-0.0628,-0.04502,-0.07387,13.5,-19.6,0.2
62.0848,6578.2936,0.49528234449335456,-0.08750706694486939,0.10253575933319325,-0.06952,0.03867,-0.03905,13.5,-19.7,0.3
62.1019,6578.3136,0.5001533739135052,-0.123165015328076,0.14667532445507625,-0.0628,-0.03891,-0.02684,13.5,-19.7,0.3
62.1093,6578.3336,0.5017102723032537,-0.15509489636452334,0.1723750438013809,0.02089,-0.18368,-0.01706,13.5,-19.6,0.2
62.1375,6578.3536,0.4886413200233098,-0.20244404046925726,0.17874879182410552,0.10824,-0.22339,-0.04944,13.4,-19.7,0.2
62.1542,6578.3737,0.489535996981653,-0.2243083148784586,0.16547182302581298,0.28906,-0.07067,-0.08853,13.4,-19.7,0.2
62.1847,6578.3937,0.5160542734025239,-0.2673525986371366,0.13318819042834207,0.32816,-0.00409,-0.13557,13.3,-19.7,0.1
62.1875,6578.4137,0.49664042123077523,-0.19764689478185865,0.09330972606288057,0.28417,0.04967,-0.13862,13.4,-19.6,0.0
62.2068,6578.4338,0.48733182605416264,-0.1506259091343437,0.04575156356436949,0.27318,-0.00103,-0.15267,13.4,-19.6,0.0
62.227,6578.4538,0.45823912164813374,-0.09140714586984623,-0.00045136560835246087,0.2011,-0.07617,-0.15145,13.3,-19.6,0.0
62.25,6578.4738,0.41955203747209047,-0.03589812732573289,-0.03954880165480468,0.12107,-0.09999,-0.14962,13.3,-19.6,-0.1
62.2686,6578.4938,0.36990734931770536,0.01217083400760821,-0.06506445421059404,0.05938,-0.01631,-0.19055,13.3,-19.6,-0.1
62.2858,6578.5139,0.30733557745417356,0.04003158953423343,-0.06997927599747555,0.03066,0.12358,-0.21376,13.3,-19.5,0.0
62.3133,6578.5339,0.24359459839206535,0.042757905923025065,-0.047157525270401734,0.01784,0.12236,-0.16001,13.3,-19.5,-0.1
62.329,6578.5539,0.13984079687817177,0.011976325800659318,0.01091026607258705,0.01173,-0.03097,-0.11602,13.4,-19.5,-0.2
62.3526,6578.574,0.03341809145982209,-0.06030678792838707,0.10698531232153208,0.12168,-0.17269,-0.09403,13.4,-19.5,-0.3
62.3713,6578.594,-0.05840681947164534,-0.14382842393153747,0.2412082783013716,0.34587,-0.03097,-0.0024,13.4,-19.5,-0.4
62.3894,6578.614,-0.12016537107536808,-0.22919752853040334,0.40993961862300665,0.31655,0.13519,0.08801,13.4,-19.5,-0.6
62.4106,6578.634,-0.15565539448720658,-0.32434206926423587,0.6043253190691118,0.15345,0.2146,0.20774,13.4,-19.6,-0.7
62.4423,6578.6541,-0.19231476035642736,-0.4687034456313319,0.8087075010029281,0.15772,0.26775,0.36045,13.5,-19.5,-0.8
62.463,6578.6741,-0.19146584299460942,-0.605656957843507,1.0083656078887504,0.34831,0.23354,0.50278,13.5,-19.6,-0.9
62.4713,6578.6941,-0.13250075320164123,-0.7187686029030331,1.186421255157967,0.33304,0.21094,0.46491,13.5,-19.6,-0.9
62.493,6578.7142,-0.06309845798812583,-0.879179977674509,1.3192258174965161,0.12657,0.31845,0.32136,13.5,-19.7,-0.9
62.5103,6578.7342,0.038693431150535036,-1.0417762407933047,1.3937637872969102,-0.01087,0.3441,0.24011,13.5,-19.7,-1.0
62.532,6578.7542,0.15298797488885343,-1.2393801920988101,1.3947562208624813,0.12718,0.27202,0.30731,13.5,-19.8,-1.1
62.5732,6578.7742,0.25326708688144484,-1.540363741884805,1.3051842024221543,0.33915,0.19017,0.39466,13.5,-19.9,-1.2
62.575,6578.7943,0.44410260337482094,-1.681332249805512,1.155202641074336,0.4375,0.2317,0.45269,13.4,-20.0,-1.3
62.5859,6578.8143,0.6551749627875353,-1.8313852603809821,0.927881120267326,0.41673,0.27141,0.50767,13.4,-20.1,-1.3
62.6083,6578.8343,0.8780345616457778,-1.9872519728628546,0.6296673461373068,0.43994,0.23965,0.49606,13.3,-20.2,-1.2
62.6293,6578.8544,1.1198965784424537,-2.076574421313844,0.28139279131815265,0.53952,0.11747,0.40932,13.2,-20.4,-1.1
62.6501,6578.8744,1.3557480778923903,-2.1092375351518395,-0.10675509496576474,0.58411,-0.02058,0.31036,13.1,-20.5,-0.9
62.6766,6578.8944,1.5625886711341488,-2.1150147091962745,-0.527704713158542,0.58105,-0.04563,0.17414,12.9,-20.7,-0.8
62.6959,6578.9144,1.729833826700414,-2.019446440026481,-0.9484208602941528,0.52241,-0.0157,0.02753,12.8,-20.8,-0.6
62.7256,6578.9344,1.8504715216681251,-1.910290351044137,-1.3666119787247286,0.42467,0.02523,-0.13924,12.7,-20.9,-0.5
62.7351,6578.9544,1.8548996070527952,-1.715332718433866,-1.7218987824251446,0.29395,-0.00103,-0.2553,12.5,-21.1,-0.3
62.7534,6578.9744,1.7954102421290354,-1.5385530456357475,-2.015719222356057,0.19804,-0.04807,-0.23636,12.4,-21.2,-0.2
62.766,6578.9944,1.6678204306670545,-1.3592823548918442,-2.2128373265348644,0.13757,-0.16902,-0.17528,12.3,-21.2,0.0
62.7874,6579.0144,1.5125298879401157,-1.1805869549813515,-2.3034296288286686,-0.02126,-0.26859,-0.19605,12.2,-21.4,0.0
62.8059,6579.0344,1.35856517376439,-0.9875765155627962,-2.2851454106375018,-0.25827,-0.224,-0.21743,12.2,-21.4,0.1
62.826,6579.0544,1.2278136902275314,-0.775181808666092,-2.1687184491431593,-0.25766,-0.07373,-0.10808,12.2,-21.5,0.3
62.8629,6579.0744,1.1234507445101944,-0.5298642777109083,-1.9704990126639217,-0.12572,0.05089,-0.01279,12.2,-21.6,0.5
62.8717,6579.0944,1.043447622344603,-0.31538894575003457,-1.7155290093098152,-0.0964,0.03928,0.07823,12.1,-21.6,0.6
62.8858,6579.1144,0.9745800665268274,-0.10611487122105001,-1.4207406905616704,-0.11594,-0.12687,0.12832,12.0,-21.7,0.7
62.9084,6579.1344,0.9024960630703552,0.08740288492964758,-1.1058884580855057,-0.20024,-0.27592,0.0764,12.0,-21.7,0.7
62.9275,6579.1544,0.8480598581926831,0.22927970265719902,-0.7914023148961977,-0.34502,-0.23866,0.00615,12.0,-21.7,0.6
62.954,6579.1744,0.7974951520815049,0.3256068422730891,-0.49038889677386344,-0.44886,-0.19712,-0.05799,12.0,-21.7,0.4
62.9709,6579.1944,0.7608161972930252,0.29413630743188984,-0.2120394745392371,-0.4116,-0.22278,-0.0812,12.0,-21.7,0.4
62.9888,6579.2144,0.7271341303237966,0.18138113035023398,0.03244902449815079,-0.31203,-0.29547,-0.03661,12.0,-21.7,0.3
63.0079,6579.2344,0.7015190724682686,0.020760182431993044,0.23018880953289944,-0.17398,-0.33884,0.02753,12.1,-21.7,0.1
63.0351,6579.2544,0.6790907412226701,-0.13894355110741102,0.3706882434095,-0.03225,-0.29486,0.10572,12.1,-21.7,0.0
63.0634,6579.2744,0.6831815010807164,-0.2623801808429474,0.4485724751052267,0.08809,-0.20506,0.17475,12.1,-21.7,-0.2
63.0755,6579.2943,0.7482290157508782,-0.2954983816905483,0.4702718121759393,0.18766,-0.13176,0.21079,12.1,-21.7,-0.4
63.0873,6579.3143,0.815343528120679,-0.26656778232599987,0.45989712874253463,0.34221,-0.05235,0.23278,12.1,-21.7,-0.6
63.1219,6579.3343,0.8150501233405623,-0.3295229900569665,0.4508318563565581,0.47354,-0.06762,0.26149,11.9,-21.8,-0.9
63.1251,6579.3543,0.8340026547801124,-0.23320177647939744,0.47887645189772066,0.54257,-0.07923,0.20163,11.9,-21.8,-1.1
63.1497,6579.3743,0.7990808613430963,-0.27840866327913316,0.5703736378160595,0.43689,-0.07312,0.01226,11.8,-21.8,-1.2
63.1665,6579.3943,0.7217013163903163,-0.3414968643059838,0.740861025065902,0.17788,0.00324,-0.08731,11.7,-21.8,-1.3
63.1858,6579.4143,0.6009188632993786,-0.46925950061323984,0.9808086557081346,-0.04508,-0.07312,-0.03233,11.7,-21.7,-1.4
63.2086,6579.4343,0.43718234362916814,-0.668788752190837,1.2573803252476647,0.02456,-0.16414,0.10083,11.7,-21.7,-1.6
63.2364,6579.4543,0.2419016542537252,-0.9441236588968311,1.5173274553997569,0.24447,-0.29303,0.23889,11.7,-21.7,-1.7
63.2496,6579.4743,0.14267447659996454,-1.175472810640828,1.7120283389300806,0.37031,-0.42498,0.28959,11.6,-21.7,-1.7
63.2699,6579.4943,0.08968086640197812,-1.3926582049891487,1.7980629617457566,0.42589,-0.37427,0.22606,11.6,-21.7,-1.7
63.2876,6579.5143,0.13334342491895435,-1.511533624452135,1.761637374695578,0.37031,-0.1452,0.16253,11.5,-21.7,-1.8
63.3068,6579.5343,0.24870597884715234,-1.5558833571366388,1.5977019916664474,0.23469,-0.04135,0.15031,11.4,-21.8,-1.8
63.3295,6579.5543,0.41882593254912104,-1.5568540559018913,1.3127473819321764,0.10214,0.08815,0.13688,11.4,-21.8,-1.8
63.3562,6579.5743,0.6337404603766976,-1.5373656776879336,0.9201331030750453,0.08381,0.32089,0.00615,11.3,-21.9,-1.7
63.3657,6579.5943,0.7821365424062091,-1.4945305140562732,0.44627734705832367,0.11741,0.49865,-0.22048,11.3,-21.9,-1.6
63.3875,6579.6143,0.9317688021626628,-1.412678906985382,-0.08795953593749317,0.06854,0.62083,-0.37503,11.2,-21.9,-1.6
63.4116,6579.6343,1.0025412299701826,-1.2799887445041893,-0.6450528834097469,-0.02309,0.80531,-0.43123,11.3,-21.8,-1.4
63.4253,6579.6543,0.8816504700075113,-1.1191759194365596,-1.173389410876002,0.02822,0.86945,-0.45872,11.3,-21.8,-1.4
63.4516,6579.6743,0.776035061207448,-0.9453088340803532,-1.640931366050756,0.33671,0.90366,-0.76293,11.3,-21.8,-1.4
63.4665,6579.6942,0.4967314833718954,-0.7761403264770783,-1.9713301124375455,0.40207,0.98551,-0.83379,11.4,-21.8,-1.5
63.4876,6579.7142,0.25394919868662447,-0.6602198584752955,-2.141166163333035,0.12657,0.91221,-0.62182,11.5,-21.8,-1.5
63.5152,6579.7342,0.07329639622734974,-0.6013986186393817,-2.132133918099311,-0.2204,0.58173,-0.46422,11.6,-21.7,-1.4
63.5264,6579.7542,-0.063723646519104,-0.7059775166867213,-1.9679849984263722,-0.62907,0.06983,-0.28279,11.7,-21.7,-1.4
63.5483,6579.7742,-0.06898873901430422,-0.8502116510398644,-1.6748992819415935,-0.94,-0.38893,-0.036,11.8,-21.6,-1.4
63.5682,6579.7942,0.07254186085237141,-1.0942634062384786,-1.3102722752851257,-0.84898,-0.48117,0.16009,12.0,-21.5,-1.5
63.6147,6579.8142,0.252731599488319,-1.275879803194856,-0.9208901492035722,-0.42626,-0.26065,0.2059,12.1,-21.4,-1.5
63.6214,6579.8342,0.5991082105871237,-1.510154782807353,-0.6015285540598363,-0.06158,0.17001,0.14482,12.3,-21.3,-1.5
63.6336,6579.8542,0.909812349472502,-1.5965809762839551,-0.37398817872420054,-0.01087,0.21949,-0.03417,12.5,-21.2,-1.6
63.6521,6579.8742,1.1338851205182723,-1.514971745679337,-0.24833654670372773,-0.09456,0.18406,-0.20704,12.6,-21.1,-1.7
63.6663,6579.8942,1.2139360246343847,-1.3059638577016803,-0.20692090395166396,-0.13427,0.03623,-0.3396,12.8,-21.0,-1.7
63.6885,6579.9142,1.1990464450474623,-1.0179970997376242,-0.22205352481052465,-0.04936,0.15657,-0.30356,13.0,-20.9,-1.6
63.7055,6579.9342,1.0860243358672448,-0.7371205425607893,-0.256969974973849,-0.01515,0.25431,-0.21437,13.1,-20.8,-1.7
63.7253,6579.9542,0.9385118018339302,-0.5036160030773716,-0.2851429014851714,-0.03531,0.18467,-0.09831,13.3,-20.7,-1.8
63.7521,6579.9742,0.7893974493904933,-0.3502828250293102,-0.29142826435986,0.01906,0.02035,-0.02561,13.5,-20.7,-1.9
63.7719,6579.9942,0.65599014397428,-0.2803657203826743,-0.27340864065728887,0.10336,-0.08106,0.00187,13.7,-20.6,-1.7
63.7902,6580.0142,0.5519537796574423,-0.2883277801758683,-0.2385887946386731,0.14123,-0.03219,0.0538,13.8,-20.5,-1.8
63.8081,6580.0342,0.4692332386643829,-0.35805124043155434,-0.19639266521344645,0.09725,0.00202,0.07762,13.9,-20.4,-1.9
63.8301,6580.0542,0.38908917386449215,-0.4707854325762075,-0.15387017480601095,0.11924,-0.03952,-0.00423,13.9,-20.3,-1.9
63.848,6580.0742,0.2885788495800509,-0.5838856819928758,-0.11106005880183645,0.17239,-0.08595,-0.06593,14.0,-20.3,-1.8
63.8721,6580.0942,0.15445203182533093,-0.6775607290021282,-0.061888403465001574,0.20965,-0.17635,-0.00973,14.0,-20.2,-1.8
63.8978,6580.1142,-0.004892904680039121,-0.7155584836640729,0.007711643496550735,0.17177,-0.25271,0.11977,14.1,-20.2,-1.9
63.9094,6580.1341,-0.12621125994205426,-0.6575082282189565,0.1187670535713945,0.173,-0.17635,0.2114,14.1,-20.1,-1.9
63.9292,6580.1541,-0.22031594941502047,-0.5728740680088628,0.28620229520623397,0.20537,0.04356,0.25416,14.2,-20.1,-1.9
63.9504,6580.1741,-0.25452428102284136,-0.49303054660853257,0.5222534064452411,0.17116,0.10831,0.34457,14.2,-20.0,-1.8
63.9653,6580.1941,-0.20286439218557564,-0.45539475966481485,0.8239465399127344,0.05815,0.06188,0.38183,14.2,-20.0,-2.0
63.9897,6580.2141,-0.10769954531639173,-0.5141510164002234,1.1657395269201274,-0.11533,0.07227,0.28226,14.2,-20.0,-2.1
64.0059,6580.2341,0.07122977671654541,-0.7065245011723716,1.5043886396285373,-0.34013,0.01668,0.13016,14.2,-20.0,-2.1
64.0343,6580.2541,0.28363809393178296,-0.9591970769291077,1.7880450619559483,-0.52889,-0.0664,0.02325,14.2,-20.0,-2.1
64.0549,6580.2741,0.533674627358994,-1.360799313080688,1.9447707792771265,-0.41832,-0.14153,-0.16184,14.2,-20.0,-2.1
64.0739,6580.2941,0.7788878593442854,-1.8227514643610183,1.9158919310887033,-0.07135,-0.14703,-0.20643,14.0,-20.1,-2.1
64.0848,6580.3141,0.9886012516564461,-2.220280297298692,1.6730978769921627,0.297,-0.14214,-0.07448,13.9,-20.1,-2.2
64.107,6580.3341,1.1555280608130467,-2.525367421181515,1.2133148161710245,0.63359,-0.12504,0.03303,14.0,-20.1,-2.4
64.152,6580.3541,1.2788875488393538,-2.8132671500751383,0.5542048602706693,0.77897,-0.13726,0.07823,13.9,-20.2,-2.5
64.1582,6580.3741,1.3737228697615458,-2.528899151572474,-0.07082230348332708,0.83701,-0.08839,0.02753,13.9,-20.2,-2.5
64.1732,6580.3941,1.4403685741237149,-2.1523777133282076,-0.6811461069461835,0.75943,0.04111,-0.01951,14.0,-20.2,-2.5
64.2036,6580.4141,1.4839221154779463,-1.7705670925989607,-1.205278066633566,0.55234,0.08082,-0.0415,14.0,-20.2,-2.4
64.2134,6580.4341,1.4461156533526311,-1.3209971389224644,-1.5637873296188776,0.34587,0.01973,-0.04944,14.1,-20.3,-2.3
64.2274,6580.4541,1.3618564445174877,-0.9774550889647442,-1.7802603801141235,0.16689,-0.13298,-0.01156,14.1,-20.3,-2.3
64.2479,6580.4741,1.2392075673963476,-0.7653768341549257,-1.8700898878105825,0.07281,-0.2973,0.01104,14.1,-20.3,-2.3
64.2698,6580.4941,1.1048802907398267,-0.66898336361324,-1.8645238625184009,0.09358,-0.29608,-0.01218,14.2,-20.3,-2.2
64.2897,6580.514,0.9816599306949143,-0.6445171036379499,-1.7969187440914567,0.18644,-0.13237,-0.0079,14.2,-20.3,-2.2
64.3076,6580.534,0.8753306843287655,-0.642233911516351,-1.6941957152302152,0.11558,-0.06212,-0.0079,14.2,-20.3,-2.1
64.3249,6580.554,0.7827576151615003,-0.626001897710593,-1.575472583783048,0.00562,-0.02852,-0.01767,14.4,-20.3,-2.0
64.3538,6580.574,0.6923914457701495,-0.5795281768613121,-1.4522800660901751,-0.03103,-0.11282,0.01592,14.5,-20.3,-1.9
64.3669,6580.594,0.6249674516025925,-0.5041675146546325,-1.3329917764783286,-0.00354,-0.26187,0.04525,14.5,-20.3,-1.8
64.3887,6580.614,0.5662167831201723,-0.410289544864872,-1.2179848243248106,0.04166,-0.23011,0.05258,14.6,-20.4,-1.6
64.4105,6580.634,0.5315441177547734,-0.3042015606011095,-1.1058660770884803,0.05143,-0.13665,0.02631,14.6,-20.4,-1.4
64.4357,6580.654,0.5155276468930028,-0.19457502325312667,-0.9917612488460907,-0.02553,-0.00042,0.01898,14.6,-20.4,-1.4
64.4583,6580.674,0.511314714168427,-0.0948854323122532,-0.8701553763257088,-0.08296,0.00874,0.06174,14.6,-20.4,-1.4
64.4716,6580.694,0.5248215288835845,-0.03357178508548997,-0.7367329706657504,-0.10983,-0.02242,0.10022,14.6,-20.4,-1.3
64.4858,6580.714,0.5552527123727216,-0.016858311681926415,-0.588163521872632,-0.15015,-0.05846,0.10572,14.6,-20.4,-1.2
64.5063,6580.734,0.6028718663850922,-0.04598296925017815,-0.4238814933138144,-0.10067,0.01912,0.12099,14.6,-20.4,-1.3
64.5286,6580.754,0.6685549187139085,-0.126096631328281,-0.2459202112589356,0.02395,0.15046,0.13382,14.6,-20.4,-1.2
64.5516,6580.774,0.7315228128535896,-0.24761067938137052,-0.05618786305523038,0.13146,0.15962,0.17475,14.6,-20.5,-1.0
64.5697,6580.794,0.7783107618602264,-0.3781354088514687,0.14425255743685206,0.21515,0.0179,0.2566,14.5,-20.5,-1.0
64.588,6580.814,0.7961387844974477,-0.5010331332805447,0.35636251575598443,0.28784,-0.23744,0.27554,14.5,-20.5,-0.9
64.6069,6580.834,0.7968004388440882,-0.5972716194449335,0.5814662675522495,0.32205,-0.2747,0.19185,14.5,-20.6,-0.8
64.6285,6580.854,0.7990532464770631,-0.6674303497392073,0.8196023698991812,0.33732,-0.08167,0.09045,14.3,-20.6,-0.8
64.6577,6580.874,0.8184694032807646,-0.7426517675026281,1.0648835676248787,0.33671,0.10037,0.07151,14.2,-20.7,-0.7
64.673,6580.8941,0.8540509279371806,-0.7757915929327986,1.3079954896821295,0.308,0.08571,0.12466,14.1,-20.7,-0.8
64.6953,6580.9141,0.8955520839419306,-0.8679322480736116,1.5161315618073417,0.25302,0.02706,0.19796,14.1,-20.8,-0.8
64.7139,6580.9341,0.9548861124190655,-0.991851203850905,1.6503088276707736,0.17177,0.01607,0.25355,14.0,-20.9,-0.7
64.7307,6580.9541,1.0310225241182993,-1.1462389269425992,1.6651827119977725,-0.06096,0.01057,0.20224,14.0,-20.9,-0.7
64.7496,6580.9742,1.1044084285425957,-1.3069941262597904,1.5263199020906164,-0.254,0.02279,0.02814,13.9,-21.0,-0.7
64.7693,6580.9942,1.1514376853631776,-1.4574341782440559,1.2213285837704717,-0.33708,0.14374,-0.15512,13.9,-21.1,-0.6
64.7869,6581.0142,1.1215703871798064,-1.5951354325870437,0.7731994418409371,-0.21368,0.36365,-0.23881,13.8,-21.2,-0.6
64.8073,6581.0343,1.0015738780547807,-1.6876035598133203,0.2439977825671189,0.04166,0.52614,-0.18749,13.7,-21.3,-0.6
64.8314,6581.0543,0.8008655567515801,-1.7187114085850341,-0.2793685989703345,0.14612,0.42718,-0.07082,13.7,-21.3,-0.6
64.8529,6581.0743,0.5603093425069191,-1.6786220932196236,-0.7082156406948243,0.03066,0.28057,0.06113,13.7,-21.4,-0.7
64.8677,6581.0943,0.35523811085041096,-1.6014135104994396,-0.9861268759140458,-0.1135,0.47361,0.16253,13.6,-21.4,-0.8
64.8888,6581.1144,0.24440752836640414,-1.5266328219306866,-1.0969458067970415,-0.18008,0.59822,0.14726,13.6,-21.5,-0.7
64.9067,6581.1344,0.22105101269353522,-1.507300862489089,-1.069812853441487,-0.16481,0.45284,0.1552,13.7,-21.5,-0.8
64.9287,6581.1544,0.2528304408809175,-1.5447841945599345,-0.9593033359338143,-0.14954,-0.00714,0.16864,13.7,-21.5,-0.8
64.966,6581.1745,0.28410747296754557,-1.6170607748221877,-0.8302344800387864,-0.108,-0.32052,0.12405,13.7,-21.6,-0.7
64.9732,6581.1945,0.37102202947358887,-1.6968880379370723,-0.7434096505711256,-0.03958,-0.20629,-0.03539,13.8,-21.5,-0.6
64.9928,6581.2145,0.44984299906405206,-1.7219738236667093,-0.7244377398923554,-0.05913,0.10403,-0.19299,13.7,-21.6,-0.7
65.009,6581.2345,0.49260629589800686,-1.6805102092035096,-0.7745477180592051,-0.10861,0.32517,-0.22476,13.8,-21.5,-0.6
65.0288,6581.2546,0.4932158190180278,-1.5705235120033851,-0.8677121857928114,-0.10128,0.31051,-0.15206,13.9,-21.6,-0.5
65.059,6581.2746,0.45039978637688244,-1.4136627827755368,-0.9663308579435235,-0.07501,0.10709,-0.07754,13.9,-21.6,-0.5
65.077,6581.2946,0.38498682553831004,-1.255263039921583,-1.0373909539050068,-0.05058,-0.17757,-0.02378,13.9,-21.6,-0.5
65.0899,6581.3147,0.3521610844653689,-1.1013512685893045,-1.0544949869038192,0.00379,-0.24233,0.00248,14.0,-21.5,-0.5
65.1087,6581.3347,0.36619633645875144,-0.9646176615698646,-1.0080664789001261,0.01723,-0.00226,-0.05677,14.0,-21.5,-0.3
65.1382,6581.3548,0.4196230666981753,-0.8443315403610832,-0.9035543351191322,-0.07624,0.11564,-0.07571,14.0,-21.5,-0.5
65.1542,6581.3748,0.47269156617911784,-0.7750425329916105,-0.7603360362836309,-0.15565,-0.07739,-0.03539,14.0,-21.6,-0.6
65.1664,6581.3949,0.5142028680351757,-0.7596064868032244,-0.6009901768249328,-0.15015,-0.35045,0.02081,14.0,-21.6,-0.6
65.1883,6581.415,0.5204031054265759,-0.7889222679140165,-0.44639058525957864,-0.04814,-0.39504,0.00859,14.0,-21.6,-0.7
65.207,6581.435,0.5136106654993494,-0.8484191489962953,-0.3140270880158482,0.07892,-0.20995,-0.04822,14.0,-21.6,-0.8
65.2318,6581.4551,0.4872586606799883,-0.9093579467920904,-0.20842393565917305,0.06671,-0.05601,-0.07448,14.0,-21.6,-0.8
65.2526,6581.4751,0.4253722830665348,-0.9432483625642721,-0.1215138830801532,-0.02187,-0.08045,-0.07509,14.0,-21.6,-1.0
65.2735,6581.4951,0.3233792932416129,-0.9491090862091164,-0.038382569644634046,-0.04081,-0.20079,-0.04272,13.9,-21.6,-1.1
65.289,6581.5151,0.2106627401836752,-0.9382743120441688,0.059236235232456025,0.00684,-0.37733,0.01959,13.9,-21.6,-1.3
65.3176,6581.5352,0.09311180021026846,-0.9345783593289041,0.18961986365407313,0.0441,-0.42253,0.08006,13.8,-21.6,-1.4
65.3309,6581.5552,0.06675993369116874,-0.92750767352415,0.36738818867871537,0.06304,-0.224,0.12099,13.8,-21.6,-1.5
65.3486,6581.5752,0.10844909040420424,-0.9437993433248687,0.592121580592508,-0.05058,-0.06395,0.10816,13.8,-21.7,-1.7
65.3705,6581.5953,0.21513375332565254,-0.9866829044114689,0.8474262017667034,-0.25033,-0.02303,0.13382,13.8,-21.7,-1.8
65.3952,6581.6153,0.37688690882072184,-1.0697456501860008,1.0986741774097126,-0.39328,-0.11099,0.13504,13.8,-21.7,-2.0
65.4101,6581.6353,0.6139738641560567,-1.2560639001952112,1.2908597330682632,-0.40305,-0.1623,0.07579,13.7,-21.7,-2.1
65.4377,6581.6553,0.8880692139521198,-1.4462362880447392,1.3822427357168312,-0.28637,-0.04135,-0.08609,13.7,-21.7,-2.1
65.4652,6581.6754,1.194108489477296,-1.6502644406508842,1.3262968919771012,-0.15626,0.03378,-0.27485,13.8,-21.7,-2.1
65.4776,6581.6954,1.4277161181161286,-1.8446511083010682,1.1131150925166544,-0.09701,0.03562,-0.35854,13.7,-21.8,-2.2
65.4983,6581.7154,1.6156801489885892,-1.9610086530556605,0.761404933663961,0.01906,-0.03219,-0.35182,13.8,-21.8,-2.4
65.5072,6581.7355,1.6857962237867072,-1.9691793629439278,0.3323043697154553,0.24325,-0.18979,-0.30722,13.8,-21.8,-2.6
65.529,6581.7555,1.7037113013844996,-1.9324149229400358,-0.12895842889795261,0.46377,-0.23072,-0.25225,13.8,-21.7,-2.8
65.5586,6581.7755,1.6656115190978131,-1.8489062774328637,-0.5491675903405433,0.43811,-0.23439,-0.19238,13.8,-21.7,-3.0
65.5809,6581.7955,1.5867263768447208,-1.672591034299266,-0.8632974784892475,0.24019,-0.31502,-0.18077,13.9,-21.6,-3.2
65.5889,6581.8156,1.4780713831899988,-1.461678865246271,-1.055719928887001,0.06732,-0.32296,-0.28523,14.0,-21.6,-3.2
65.6095,6581.8356,1.370713587187371,-1.2894739382002989,-1.1448519207244576,-0.07318,-0.28448,-0.38908,14.0,-21.6,-3.3
65.627,6581.8556,1.2479480717138347,-1.1749763828073854,-1.1516924954814645,-0.12938,-0.20323,-0.41474,14.0,-21.5,-3.4
65.6496,6581.8757,1.1232999242978456,-1.1116074011955885,-1.1095483416945608,-0.08968,-0.1226,-0.3732,14.1,-21.4,-3.5
65.6719,6581.8957,0.9825107463308606,-1.0843215870672707,-1.0486041801343902,-0.09029,-0.19834,-0.28218,14.1,-21.4,-3.6
65.6926,6581.9157,0.8393796924292464,-1.0627764568682914,-0.9954456389563759,-0.08723,-0.35595,-0.18749,14.1,-21.3,-3.7
65.7071,6581.9357,0.7280402970242229,-1.0209226566967458,-0.9676329964353645,-0.06035,-0.48301,-0.0977,14.2,-21.3,-3.8
65.7337,6581.9557,0.6561916068960391,-0.9428101967825624,-0.9674161901469542,0.01478,-0.3816,-0.07326,14.3,-21.1,-3.9
65.7552,6581.9757,0.6441612280286119,-0.8265643487577056,-0.986969504539216,0.08625,-0.10671,-0.02623,14.3,-21.1,-4.3
65.7824,6581.9957,0.6670374220468707,-0.6877681417423668,-1.0081762729672477,0.0551,-0.03402,0.03181,14.4,-20.9,-4.3
65.7952,6582.0158,0.7091160932107995,-0.5382160427701193,-1.0106112956514064,0.02578,-0.05662,0.05197,14.4,-20.8,-4.5
65.815,6582.0358,0.7460887252838074,-0.4187122653012645,-0.9783279845488462,-0.00415,-0.12993,-0.00668,14.4,-20.7,-4.5
65.8365,6582.0558,0.7757495700937628,-0.35206068689083597,-0.9030298073071741,-0.09273,-0.1397,-0.11724,14.4,-20.7,-4.6
65.8507,6582.0758,0.7909931934496358,-0.36143057171113324,-0.7854441893694037,-0.15687,-0.15009,-0.20949,14.5,-20.6,-4.7
65.8681,6582.0959,0.8008991456299583,-0.42923952204213145,-0.6359424625574874,-0.14526,-0.0218,-0.11419,14.5,-20.6,-4.8
65.8883,6582.1159,0.8113806180350086,-0.5331933893408949,-0.47274007806784724,-0.09151,0.14557,-0.02806,14.6,-20.5,-5.0
65.9106,6582.1359,0.828493322430264,-0.6432436439327852,-0.3179301749697352,-0.00232,0.16512,0.02448,14.6,-20.4,-5.2
65.9318,6582.156,0.8594177924215392,-0.723873945065474,-0.19056600957852154,0.06365,0.06433,0.09839,14.7,-20.4,-5.3
65.9561,6582.176,0.9054857901946518,-0.75017399336302,-0.09883264526599866,0.19193,0.07288,0.11427,14.6,-20.4,-5.5
65.9733,6582.196,0.9636545634047505,-0.6904498827469927,-0.033012990388348484,0.3025,0.25614,0.17353,14.6,-20.4,-5.7
66.001,6582.216,1.0070724051143118,-0.603129737317597,0.030082535121985998,0.23042,0.25675,0.22362,14.5,-20.3,-5.7
66.0156,6582.2361,1.045169613109273,-0.471697517596078,0.12702647051701277,0.21698,0.11625,0.20041,14.6,-20.3,-5.9
66.0356,6582.2561,1.061337752897581,-0.39455565820384886,0.29005122152542206,0.24202,0.05822,0.21934,14.6,-20.4,-5.9
66.0544,6582.2761,1.073926329630534,-0.3907518195193025,0.5372452874163933,0.13329,0.00691,0.2169,14.5,-20.4,-5.8
66.0678,6582.2962,1.1008976745120271,-0.49114041047384777,0.8586309844706062,-0.23017,0.19444,0.25844,14.5,-20.4,-5.9
66.1002,6582.3162,1.092173644126509,-0.5995134621097338,1.2257714927910612,-0.53805,0.47849,0.36228,14.4,-20.4,-5.9
66.1158,6582.3362,1.1302060951629755,-0.8905497850886124,1.5547643912775495,-0.61502,0.47239,0.37328,14.4,-20.4,-5.9
66.1309,6582.3562,1.16573548399939,-1.2500048450627017,1.771781570634987,-0.56371,0.2201,0.20957,14.3,-20.4,-5.8
66.1527,6582.3763,1.1790709644791564,-1.5929018074867065,1.8088898526209594,-0.38167,-0.0499,-0.09464,14.2,-20.4,-5.9
66.167,6582.3963,1.1413970563298217,-1.915008564168457,1.6219729781944938,-0.12388,-0.04318,-0.25102,14.2,-20.4,-6.0
66.1958,6582.4163,1.0762729282793837,-2.1409641186799373,1.2230246586562217,0.14734,0.15596,-0.1765,14.1,-20.4,-6.0
66.2096,6582.4364,0.9013798947332172,-2.1868064388794415,0.697179622592623,0.34037,0.35815,0.01165,14.0,-20.5,-6.1
66.2277,6582.4564,0.6873686810047054,-2.098605886354453,0.12930037516790982,0.31716,0.4284,0.17536,13.9,-20.5,-6.2
66.2522,6582.4764,0.4709753088340261,-1.928568152731608,-0.3858654846612328,0.13268,0.32333,0.19185,13.9,-20.5,-6.1
66.2855,6582.4964,0.30250895756768303,-1.746801280720425,-0.7790827694248872,0.00867,0.19933,0.16131,13.9,-20.5,-6.1
66.2998,6582.5165,0.22134911338474625,-1.6035987757692736,-1.0156038484576122,0.03005,0.23354,0.13321,13.8,-20.6,-6.2
66.3116,6582.5365,0.23350468128998866,-1.545013358802384,-1.101925560588434,-0.06219,0.25309,0.10694,13.7,-20.7,-6.1
66.3734,6582.5565,0.28415805170683184,-1.3947627987497264,-1.0397293867453499,-0.42626,0.10037,0.0709,13.5,-20.7,-6.3
66.3793,6582.5766,0.4225779635434382,-1.489713768815427,-0.9405460727141097,-0.71581,-0.04441,0.07579,13.4,-20.7,-6.4
66.3811,6582.5965,0.5804713989527657,-1.6354679598807134,-0.8317287233953508,-0.77995,-0.19468,-0.06776,13.3,-20.8,-6.6
66.3908,6582.6165,0.7158681105613862,-1.713113654693624,-0.7426579268943723,-0.74697,-0.20018,-0.2498,13.4,-20.8,-6.6
66.4094,6582.6365,0.8554141001743223,-1.6989648376020487,-0.7032494171740158,-0.66022,0.20544,-0.46422,13.4,-20.8,-6.7
66.4271,6582.6565,0.9654685441971766,-1.6605338223256578,-0.730513769487068,-0.5295,0.54019,-0.53263,13.4,-20.9,-6.9
66.4525,6582.6765,1.0578849153333716,-1.5632672186406857,-0.8021416980424974,-0.44886,0.64404,-0.52286,13.4,-20.9,-7.0
66.4691,6582.6965,1.0078156087025483,-1.5071350180408933,-0.8898900119386717,-0.40916,0.13519,-0.55951,13.4,-20.8,-7.1
66.4932,6582.7165,0.8932679075899648,-1.424968401792588,-0.9607826947764053,-0.48124,-0.51294,-0.55707,13.4,-20.8,-7.1
66.5196,6582.7365,0.7344288298716032,-1.3529438879037636,-1.0039984969513949,-0.50751,-0.6907,-0.55035,13.5,-20.7,-7.3
66.5461,6582.7565,0.5850785733718701,-1.3147465624652617,-1.0200835292107584,-0.34929,-0.48606,-0.50514,13.5,-20.6,-7.4
66.5554,6582.7765,0.4506986421324344,-1.34188760398276,-1.013324067314608,-0.09212,-0.31258,-0.43551,13.5,-20.5,-7.6
66.5724,6582.7965,0.3503023099788226,-1.3728742304307266,-0.977276076857347,0.11985,-0.21728,-0.32127,13.6,-20.4,-7.8
66.5905,6582.8165,0.2701442020891283,-1.409848357535382,-0.9119555491359446,0.13696,-0.1507,-0.13557,13.8,-20.2,-8.0
66.6174,6582.8365,0.20218283339002946,-1.45873063669543,-0.8174035092850662,0.10397,-0.1342,0.03303,14.0,-20.2,-8.3
66.6445,6582.8565,0.15471125102074637,-1.4968031777473776,-0.691156745913645,0.07404,-0.33518,0.09228,14.1,-20.0,-8.5
66.6618,6582.8765,0.18219117621639339,-1.5166794879013714,-0.5384694387181632,-0.02737,-0.65405,0.11488,14.3,-19.9,-8.7
66.6732,6582.8965,0.29118912758150844,-1.522053933038884,-0.371928569609711,-0.15931,-0.80799,0.0373,14.4,-19.8,-8.8
66.6953,6582.9165,0.3817047280073613,-1.470932395381326,-0.19667166213753617,-0.31081,-0.65405,0.16375,14.4,-19.7,-9.2
66.7089,6582.9365,0.556179164759363,-1.3976817938714694,-0.033456375919646675,-0.16542,-0.69559,0.41421,14.5,-19.6,-9.5
66.7293,6582.9565,0.710776526325993,-1.2910030961506607,0.12129033664702682,0.11008,-0.66505,0.29265,14.5,-19.5,-9.7
66.7573,6582.9765,0.8583101476852828,-1.1660093233380775,0.2716126191923234,0.05876,-0.45369,0.10816,14.6,-19.4,-9.9
66.7759,6582.9964,1.0338707362774924,-1.0337679349441988,0.4204802641251817,-0.17275,-0.17391,-0.01462,14.6,-19.3,-10.1
66.8,6583.0164,1.1665039309122684,-0.92671704167552,0.5719273902746682,-0.41221,-0.06823,-0.09953,14.5,-19.3,-10.4
66.823,6583.0364,1.2207176944840092,-0.9315695459208586,0.7147640290754023,-0.62785,-0.32968,-0.27179,14.5,-19.3,-10.7
66.8323,6583.0564,1.1899715761518224,-1.1742654513228337,0.8193694682559443,-0.5692,-0.81104,-0.4691,14.5,-19.3,-11.0
66.8521,6583.0764,1.0784915757350144,-1.5136380287224471,0.866976647857566,-0.29187,-0.89901,-0.50209,14.5,-19.2,-11.2
66.8705,6583.0964,0.935087568076365,-1.9391438516230672,0.8198467444258846,-0.0573,-0.70292,-0.40985,14.4,-19.2,-11.5
66.8886,6583.1164,0.806023422547537,-2.3479992191308874,0.6673557435084412,0.26829,-0.51783,-0.28951,14.3,-19.2,-11.9
66.9114,6583.1364,0.7202528272440243,-2.669437188934605,0.4251832922115,0.38191,-0.28203,-0.15451,14.2,-19.1,-12.2
66.9336,6583.1564,0.6955196212965641,-2.8299354075840615,0.14380244563736966,0.38008,-0.22522,0.00065,14.1,-19.0,-12.4
66.9491,6583.1764,0.7458758164178444,-2.806028633778469,-0.11838056308197942,0.38191,-0.28509,0.08251,14.0,-19.0,-12.6
66.9703,6583.1964,0.8254355314525414,-2.680583573827782,-0.332783582740829,0.26829,-0.40909,0.12649,13.9,-19.0,-12.9
66.9908,6583.2164,0.9409586547138086,-2.4921961336764795,-0.48289523509396126,0.2011,-0.5221,0.12099,13.9,-18.9,-13.0
67.0146,6583.2364,1.0617293958938059,-2.299498755501522,-0.5820154872836305,0.21759,-0.42436,-0.02012,13.9,-18.9,-13.0
67.0314,6583.2564,1.188649054848893,-2.1047844858289757,-0.6538140711731586,0.18644,-0.34984,-0.1991,13.8,-18.9,-13.3
67.0654,6583.2764,1.299490074115177,-1.945612633722563,-0.7348384851924123,0.08992,-0.19346,-0.34143,13.8,-18.9,-13.5
67.0848,6583.2964,1.3342106073882145,-1.7765775879381491,-0.8281146216269004,-0.03287,0.03378,-0.38786,13.7,-18.9,-13.6
67.0976,6583.3164,1.2828543426802599,-1.616821550160306,-0.9419110978100864,-0.11228,0.1358,-0.31394,13.7,-18.8,-13.8
67.1169,6583.3364,1.1938450152935842,-1.4635801713707144,-1.074222687228195,-0.09578,0.13824,-0.20704,13.7,-18.8,-13.8
67.1308,6583.3564,1.069654157892408,-1.320443984600171,-1.2087117410360975,-0.01882,0.0179,-0.11541,13.7,-18.7,-13.9
67.1516,6583.3764,0.9569446009424367,-1.1768890022233276,-1.3293733848248674,-0.05852,0.01851,-0.05188,13.7,-18.7,-13.9
67.1702,6583.3963,0.8661106249351062,-1.0382224855178963,-1.4182358801014612,-0.11228,0.14863,-0.05555,13.7,-18.7,-13.8
67.1904,6583.4163,0.8003421447543236,-0.9142979413821373,-1.4594845837894912,-0.08296,0.19994,-0.06288,13.7,-18.7,-13.8
67.2077,6583.4363,0.7440446700070824,-0.8252432460668497,-1.4399152401825646,0.01478,0.16207,-0.06043,13.7,-18.7,-13.9
67.2296,6583.4563,0.6967414259065908,-0.7863815635158923,-1.3517370436214353,0.03433,-0.01081,0.01409,13.8,-18.7,-14.0
67.252,6583.4763,0.6552212842400824,-0.8006053279150845,-1.1925548177599126,0.02272,-0.04196,0.04219,13.8,-18.6,-13.9
67.2673,6583.4963,0.6365138267160854,-0.8603892875718653,-0.9699434489874115,-0.02187,-0.00775,0.10572,13.8,-18.6,-13.9
67.2916,6583.5163,0.6267695447875783,-0.944526006326722,-0.6988131503409072,-0.06646,-0.15192,0.20041,13.9,-18.6,-14.0
67.3093,6583.5363,0.6711360324135175,-1.0626625015115911,-0.4124766177348853,-0.14832,-0.21484,0.25722,13.9,-18.6,-14.1
67.3335,6583.5563,0.7536205582622955,-1.200420886979122,-0.1458587387033905,-0.01454,-0.07251,0.18391,14.0,-18.5,-14.1
67.355,6583.5763,0.8898707127226845,-1.3392650318678978,0.06386742956052593,0.33732,0.15657,0.0654,14.1,-18.5,-14.0
67.3737,6583.5963,1.0463830235772855,-1.4183185892393864,0.2003577761173876,0.52547,0.26591,0.02081,14.1,-18.5,-14.1
67.3959,6583.6163,1.1899886500253019,-1.4161302002548435,0.2634683104693103,0.45766,0.29035,0.02814,14.2,-18.5,-14.1
67.4227,6583.6363,1.2978586567508756,-1.324090920196182,0.2728754761691494,0.21881,0.1022,-0.00423,14.2,-18.6,-14.0
67.4315,6583.6563,1.3516647218646705,-1.1327108414941616,0.26449041519682837,0.16444,-0.05357,-0.1258,14.2,-18.6,-14.1
67.4506,6583.6763,1.3880817492846251,-0.9776244160435376,0.2578955668734597,0.27318,0.06311,-0.2382,14.3,-18.7,-14.1
67.4728,6583.6963,1.4094605333022119,-0.8906570875184852,0.28799118607642527,0.23958,0.13641,-0.20277,14.4,-18.7,-14.0
67.492,6583.7163,1.4000875099096064,-0.879385165434817,0.37727356927575606,0.06243,0.24148,-0.0641,14.5,-18.7,-13.9
67.5106,6583.7363,1.3599807713522865,-0.9584004411579403,0.5203348877901064,-0.24422,0.26042,-0.01095,14.6,-18.7,-13.7
67.5351,6583.7563,1.2892400946652527,-1.0995103659093215,0.6904924694782029,-0.49896,0.04539,-0.03233,14.7,-18.8,-13.6
67.5596,6583.7763,1.1769306103706945,-1.319548170253116,0.8388971424158722,-0.57287,-0.15192,-0.11541,14.7,-18.8,-13.8
67.5795,6583.7962,1.0273207333376515,-1.6274722711928284,0.9053919407627617,-0.45619,-0.14031,-0.13618,14.8,-18.8,-13.8
67.5959,6583.8162,0.8461534603290451,-1.95412714634321,0.8484043023199259,-0.26133,0.09121,-0.13129,14.9,-18.8,-13.8
67.6074,6583.8362,0.6273791376087662,-2.2177714129845865,0.661372522626861,-0.00904,0.42535,-0.15634,14.9,-18.7,-13.8
67.6283,6583.8562,0.43302238835933804,-2.373154499823185,0.3690728253986464,0.08198,0.49743,-0.13557,15.0,-18.7,-13.7
67.6522,6583.8762,0.24819472738243514,-2.4152450509780565,0.026750569896506704,0.06854,0.4058,0.00676,15.2,-18.6,-13.7
67.6685,6583.8962,0.07998587289247279,-2.372093321919317,-0.3069104934491005,0.05999,0.24087,0.11061,15.3,-18.5,-13.7
67.688,6583.9162,-0.01405951343399044,-2.3138760663320843,-0.5915368699449264,0.12718,0.18772,0.18391,15.4,-18.4,-13.6
67.7134,6583.9362,-0.031839466004784135,-2.2908644703432137,-0.8015746667395174,0.25607,0.01485,0.22667,15.7,-18.3,-13.6
67.7329,6583.9562,0.044165483056784374,-2.293437786221393,-0.9224582441299276,0.27868,-0.29303,0.24378,16.0,-18.3,-13.4
67.7594,6583.9762,0.15055358201420746,-2.3335879268127377,-0.9686566170632815,0.09053,-0.45246,0.19552,16.3,-18.3,-13.3
67.7711,6583.9962,0.348012786690955,-2.380786895191106,-0.9624729092844237,0.00195,-0.51905,0.11,16.6,-18.2,-13.3
67.8028,6584.0162,0.5029744476695317,-2.427970667697228,-0.9347929459896918,0.07343,-0.2576,0.04525,16.7,-18.2,-13.4
67.8119,6584.0362,0.665039835908136,-2.4356241364870654,-0.9093391814563532,0.06915,0.05455,-0.05005,17.0,-18.1,-13.5
67.8319,6584.0562,0.7907171526245351,-2.381620841703358,-0.8985927806642646,-0.05425,0.14985,-0.0867,17.3,-18.0,-13.4
67.8622,6584.0762,0.8857929613851122,-2.25069998368207,-0.9051861025234977,-0.11594,0.14618,-0.16306,17.6,-18.0,-13.2
67.8717,6584.0962,0.8761157402506465,-2.071702822260463,-0.9220521688408958,0.01906,0.2598,-0.07632,18.0,-18.0,-13.0
67.8919,6584.1162,0.8347941967227673,-1.8671763788596947,-0.9447732359882508,0.09419,0.19505,0.01165,18.3,-18.0,-12.7
67.9094,6584.1362,0.7622891736059948,-1.6665641542162017,-0.9576068748446875,0.14001,0.11503,0.03669,18.6,-18.1,-12.6
67.936,6584.1562,0.6874212492941154,-1.5127758988587905,-0.9483233558759334,0.19743,0.04722,0.06785,18.8,-18.1,-12.5
67.9592,6584.1762,0.6321852107473075,-1.398207334232452,-0.8990147797812984,0.15834,0.06555,-0.03661,18.9,-18.1,-12.3
67.9868,6584.1962,0.6012364444921683,-1.3481716361148781,-0.8054659196910947,-0.07563,0.29218,-0.06776,19.1,-18.1,-12.2
68.0018,6584.2161,0.5510221475528715,-1.4109570114557743,-0.6754212584983215,-0.34502,0.21399,0.08923,19.0,-17.9,-12.2
68.0133,6584.2361,0.48933309156416266,-1.5702903771628953,-0.5252943316376957,0.14612,-0.02791,0.05074,18.9,-17.8,-12.2
68.0319,6584.2561,0.400490584603671,-1.7879833687266549,-0.37993334770372833,0.33976,-0.50256,0.01226,18.6,-17.7,-12.4
68.0473,6584.2761,0.33167835316377026,-1.9633624939885614,-0.25882880960169885,0.29089,-0.67482,0.04586,18.3,-17.4,-12.4
68.0669,6584.2961,0.2903928750607088,-2.0334735193872335,-0.17570671980938357,0.32266,-0.11954,0.12527,18.0,-17.4,-12.5
68.0884,6584.3161,0.2905085533726353,-1.94925724243835,-0.12854301464527573,0.25119,0.12236,0.1888,17.8,-17.2,-12.5
68.1067,6584.3361,0.30656891474580067,-1.7202604310465612,-0.10484430635279551,0.18399,0.02279,0.20774,17.5,-17.1,-12.6
68.1303,6584.3561,0.29187054536016144,-1.4213108436190613,-0.0855282034863194,0.17911,-0.14337,0.2676,17.2,-17.0,-12.8
68.1492,6584.3761,0.27818070387641014,-1.0842999381794416,-0.040189865956309134,0.29639,-0.48851,0.12527,16.8,-16.8,-13.0
68.167,6584.3961,0.27865721652354425,-0.7709478002404362,0.04828025303181249,0.02578,-0.57342,0.07335,16.3,-16.7,-13.1
68.194,6584.4161,0.29379812005362704,-0.5023129042333099,0.18537167042221903,-0.51117,-0.10549,0.12038,15.8,-16.6,-13.3
68.2067,6584.4361,0.3442403522975692,-0.4577021498897499,0.3553252068451975,-0.67977,0.20483,0.10389,15.3,-16.5,-13.5
68.2268,6584.4561,0.416000633491045,-0.5817814662315903,0.5451927279840607,-0.40122,0.27569,-0.00607,14.9,-16.3,-13.6
68.251,6584.4761,0.49228745822120856,-0.9001665636955957,0.7255912756351215,-0.13366,0.08265,-0.04638,14.5,-16.3,-13.7
68.2709,6584.4961,0.5638770908018567,-1.3509426172713288,0.8646113832298052,-0.12144,-0.22583,-0.00729,14.1,-16.2,-13.8
68.2943,6584.5161,0.6419374662777628,-1.812562905215731,0.9403755112947074,-0.30348,-0.34495,-0.0189,13.8,-16.1,-13.8
68.3112,6584.5361,0.757865117414743,-2.254067742269524,0.9262630078974574,-0.42565,-0.26676,-0.09648,13.6,-16.0,-13.9
68.3411,6584.5561,0.8963370804896208,-2.592885948459152,0.8158683537847491,-0.32486,-0.26615,-0.14657,13.4,-16.0,-14.0
68.3531,6584.5761,1.0534092731561266,-2.8809205561486575,0.5843759982327139,0.03005,-0.12993,-0.09831,13.4,-16.0,-13.9
68.372,6584.5961,1.2080706995252148,-3.0548702469454514,0.2557038116125341,0.4375,0.15962,-0.05371,13.5,-16.0,-13.6
68.3923,6584.616,1.3439657453935154,-3.0745857503123055,-0.12263895766724175,0.42712,0.14863,-0.06166,13.2,-15.9,-13.4
68.4071,6584.636,1.4407927818331046,-2.9147545719730648,-0.48633397479097873,0.24202,0.14313,-0.10442,13.2,-16.0,-12.9
68.4324,6584.656,1.5214051533010422,-2.662547403428195,-0.8106948124226125,0.11558,0.22621,-0.10197,13.1,-15.9,-12.6
68.4545,6584.676,1.5659276531135617,-2.3631109104182384,-1.0621520579263102,0.10947,0.17489,-0.07265,12.9,-15.9,-12.3
68.4699,6584.696,1.581000542366204,-2.073700557228857,-1.2329337748254083,0.11985,0.17612,-0.04089,13.0,-15.9,-11.8
68.4919,6584.716,1.5956198165240143,-1.825552021175881,-1.3318107437160531,0.0606,0.15962,-0.05555,13.2,-15.9,-10.7
68.5094,6584.736,1.5977494369615806,-1.613289300091621,-1.3680791605849976,-0.0463,0.25003,-0.0696,13.6,-16.0,-9.5
68.5268,6584.756,1.5869439485959829,-1.4322777369568382,-1.3633366141854601,-0.17398,0.16146,-0.07998,13.1,-15.8,-9.8
68.5512,6584.776,1.5640352910583255,-1.2654876727766444,-1.3385671981098035,-0.22346,0.13763,-0.12519,13.0,-15.7,-9.6
68.5668,6584.796,1.485906891590003,-1.1401988024399865,-1.3072689368737702,-0.18925,0.24575,-0.1539,13.1,-15.9,-9.2
68.5892,6584.816,1.3778092011326664,-1.0264694741797802,-1.276271497101888,-0.13183,0.26042,-0.16917,12.8,-15.8,-9.4
68.6091,6584.836,1.2161828796408465,-0.9275201651568569,-1.2379965059377067,-0.0799,0.23781,-0.19544,12.8,-15.8,-9.1
68.6357,6584.856,1.0309573638715508,-0.8289271930841765,-1.1840741194916546,-0.09701,0.15046,-0.20582,12.9,-15.9,-8.8
68.6586,6584.876,0.8145790096379727,-0.7454994487000431,-1.1029062750291896,-0.14526,0.06555,-0.17283,12.5,-15.8,-8.5
68.6895,6584.896,0.6074106855286122,-0.6845925900478878,-0.9920905530507049,-0.108,-0.05418,-0.08914,12.1,-15.8,-8.4
68.6918,6584.916,0.44825361018199855,-0.6609097377755543,-0.854589098292605,0.0551,-0.09816,0.01898,12.1,-15.8,-8.3
68.7143,6584.936,0.35676738839535427,-0.6757059423075626,-0.6961293168544422,0.15834,-0.00714,0.07701,11.8,-15.8,-8.4
68.7292,6584.956,0.3671942002394338,-0.6933670699051819,-0.5231224286758511,0.13512,0.13213,0.18025,11.7,-15.8,-8.4
68.7471,6584.976,0.46416475895244735,-0.7122543884102462,-0.3425310010158711,0.13757,0.30806,0.27188,11.6,-15.8,-8.3
68.7697,6584.996,0.6151209458304011,-0.7343034231600154,-0.15836321543990906,0.16017,0.28852,0.25355,11.3,-15.8,-8.2
68.7904,6585.016,0.7868097398569901,-0.7591923504532748,0.029748662442662166,0.26829,0.12541,0.28287,11.1,-15.8,-8.3
68.8168,6585.0359,0.9321599821984746,-0.8177198475889337,0.22394441185264924,0.39963,-0.07861,0.28959,10.8,-15.8,-8.4
68.8333,6585.0559,1.076231031724686,-0.844172074541014,0.42673565515534406,0.43933,-0.10305,0.24989,10.6,-15.8,-8.4
68.8605,6585.0759,1.1669960533922306,-0.9166548348837407,0.6310181209115076,0.36786,0.17367,0.15703,10.5,-15.9,-8.3
68.8682,6585.0959,1.2279675262653493,-0.9698319477653151,0.8264785959346881,0.19926,0.23842,0.08923,10.4,-16.0,-8.3
68.8863,6585.1159,1.250063933288373,-1.1174726230449568,0.9827013842320866,0.11191,0.37587,0.07212,10.3,-16.1,-8.2
68.909,6585.1359,1.2438765749932874,-1.3544620867096937,1.0717082066237609,0.21515,0.67275,0.04952,10.4,-16.4,-8.1
68.9268,6585.1559,1.1623836191540837,-1.6293261906766219,1.0784804138900306,0.162,0.57012,-0.10258,10.4,-16.6,-8.0
68.9502,6585.1759,1.0193328432831552,-1.878870923041132,0.9924774396827782,-0.2204,0.14313,-0.19116,10.5,-16.7,-7.8
68.9693,6585.1959,0.8052292402298913,-2.0900637526550447,0.8109473087866128,-0.50873,-0.22828,-0.08304,11.0,-16.9,-7.5
68.9914,6585.2159,0.5772629047675426,-2.24304108910253,0.5424573697855646,-0.33341,-0.10305,-0.03111,11.3,-17.2,-7.2
69.0128,6585.2359,0.3895730217795546,-2.3573158337841438,0.20995626290268987,0.09114,0.52553,-0.01951,11.4,-17.4,-7.1
69.0319,6585.2559,0.2536752695383476,-2.403126656373696,-0.13036761078564751,0.29028,0.91954,0.07273,11.8,-17.6,-6.8
69.0472,6585.2759,0.14974788113095547,-2.3575582420992007,-0.414519306722374,0.09847,0.91648,0.20529,12.1,-17.8,-6.6
69.066,6585.2959,0.10377943734358905,-2.256115109772433,-0.6066372856796907,-0.18192,0.91587,0.3519,12.9,-18.3,-6.1
69.1094,6585.3159,0.11245424742483418,-2.0879442869138227,-0.6876848765310619,-0.35296,0.72162,0.43742,13.7,-18.6,-5.7
69.1128,6585.3359,0.19492070849829118,-2.0730992105568,-0.7222589398281531,-0.34868,0.31234,0.43986,14.1,-19.0,-5.5
69.1297,6585.3559,0.3190244753402032,-2.0912257391745244,-0.7158012730110137,-0.12694,-0.07251,0.40505,13.8,-19.2,-5.6
69.1523,6585.3759,0.48523784075633314,-2.1446772063651465,-0.7114644088622359,0.05876,0.10892,0.36717,14.0,-19.2,-5.3
69.1708,6585.3959,0.6895419097408613,-2.1704004738489395,-0.7312386718011599,0.05327,0.32578,0.3519,14.3,-19.2,-5.3
69.1869,6585.4159,0.8842317315659491,-2.127096291065551,-0.7811330260896074,-0.03042,0.50782,0.31525,14.5,-19.4,-5.3
69.2101,6585.4358,1.044904749288706,-2.006507310472426,-0.854387873208049,-0.07074,0.48705,0.24072,14.6,-19.5,-5.1
69.2321,6585.4558,1.1412576790363325,-1.8403471106679583,-0.9358502261287001,-0.06524,0.47911,0.18086,14.7,-19.6,-5.1
69.2521,6585.4758,1.1712710966033077,-1.6628248043134835,-1.006377681986681,-0.00354,0.39053,0.20346,14.7,-19.8,-5.1
69.2771,6585.4958,1.1490826746657088,-1.4965169563827956,-1.049148234936375,0.08625,0.11992,0.22301,14.4,-19.9,-5.3
69.2878,6585.5158,1.1226126020187848,-1.337884339804881,-1.0557017632188046,0.07159,-0.04441,0.21018,14.2,-19.9,-5.4
69.3069,6585.5358,1.08630739394865,-1.2125450805978464,-1.0240192749173858,0.05571,-0.06151,0.16986,14.2,-20.1,-5.4
69.3316,6585.5558,1.0594152352001938,-1.1216468856993302,-0.957220365193816,0.11619,-0.07678,0.08251,13.9,-20.2,-5.5
69.3598,6585.5758,1.0408903679129842,-1.0613037075171796,-0.858486685992359,0.14856,0.01668,0.01043,13.7,-20.2,-5.6
69.3715,6585.5958,1.0068767771459572,-1.0302885015980265,-0.7296061432304093,0.00195,0.04173,-0.03966,13.4,-20.2,-5.7
69.4023,6585.6158,0.9438775514931591,-1.0412365892587283,-0.5750484010016628,-0.08296,-0.089,-0.01584,13.1,-20.3,-5.8
69.4215,6585.6358,0.8524395178200795,-1.084247583624334,-0.398220978303792,0.02883,-0.19285,-0.00607,12.8,-20.3,-5.9
69.4341,6585.6558,0.7420352974977363,-1.128906139073239,-0.2009074023521933,0.13268,-0.05846,0.00554,12.5,-20.3,-5.9
69.454,6585.6758,0.6146899580919181,-1.1469335003525962,0.016374196970557975,0.03311,-0.06945,-0.00118,12.3,-20.3,-6.1
69.4695,6585.6958,0.4937142364358826,-1.122220492174566,0.25190573575969033,-0.10189,-0.32418,-0.0079,12.2,-20.4,-6.2
69.4921,6585.7158,0.3833804221661766,-1.0817276738782478,0.5025140698031461,-0.0402,-0.44086,0.04708,12.0,-20.4,-6.2
69.5101,6585.7358,0.3388245108835736,-1.0733295818178727,0.7621812127676257,0.17911,-0.24049,0.13016,11.9,-20.5,-6.3
69.532,6585.7558,0.36268198769923904,-1.1476291507118577,1.023473138069722,0.12168,-0.15864,0.21934,11.9,-20.7,-6.3
69.551,6585.7758,0.48044570758849564,-1.3027794070987433,1.2736131554578982,-0.12572,-0.07251,0.25172,11.9,-20.8,-6.2
69.5696,6585.7958,0.6697847351331254,-1.5406197660253507,1.4890102210228235,-0.54111,0.06127,0.10694,12.0,-20.9,-6.2
69.5893,6585.8158,0.8955115919380053,-1.8540699489830423,1.6359118410678626,-0.97299,-0.07495,-0.14901,12.3,-21.1,-6.0
69.607,6585.8358,1.1188121094706005,-2.2874651768632877,1.6576083669310187,-0.97787,-0.24416,-0.3451,12.4,-21.2,-6.0
69.6299,6585.8557,1.3130218578395745,-2.7609498588345422,1.5059730776411193,-0.48735,-0.18735,-0.43856,12.5,-21.2,-6.0
69.6532,6585.8757,1.4452448629808716,-3.239227277346187,1.135932005463662,0.2237,0.06738,-0.42084,12.7,-21.3,-5.9
69.6865,6585.8957,1.5266174597948745,-3.626928844482441,0.5539576039982332,0.64092,0.1358,-0.27912,12.8,-21.3,-6.0
69.6957,6585.9157,1.468727638724835,-3.5972546498451554,-0.056816674490370644,0.60854,0.00141,-0.10258,13.1,-21.5,-5.9
69.7171,6585.9357,1.3992427180897948,-3.3768105427418367,-0.6815305195202992,0.49126,0.04661,0.07396,13.4,-21.6,-5.9
69.7308,6585.9557,1.338156966731948,-2.9502410700038633,-1.1989886706729127,0.41123,0.07838,0.17231,13.8,-21.7,-5.7
69.7544,6585.9757,1.2972936189189965,-2.5062247095099934,-1.5865881901709127,0.37703,0.0234,0.21629,14.0,-21.8,-5.6
69.7682,6585.9957,1.294860392614616,-2.0849097208098595,-1.8174214231968167,0.31105,-0.16352,0.13138,14.2,-21.9,-5.5
69.796,6586.0157,1.2871542751432528,-1.8031293502285801,-1.9232839136306943,0.26829,-0.25577,0.01959,14.4,-22.0,-5.4
69.8095,6586.0357,1.2879679507100872,-1.588709846752285,-1.9281443970186602,0.2408,-0.28387,-0.0531,14.6,-22.0,-5.4
69.8269,6586.0557,1.2654719532341607,-1.4546509466427127,-1.8812668113978743,0.10458,-0.18002,-0.01828,14.7,-22.0,-5.4
69.8493,6586.0757,1.2212798464609897,-1.3562675205425065,-1.8170540079500057,-0.00415,-0.02425,0.07212,14.7,-22.0,-5.4
69.8761,6586.0957,1.1666109339822504,-1.2641760308639005,-1.7579256251717617,-0.00843,0.06372,0.06724,14.6,-21.8,-5.3
69.888,6586.1157,1.112113634262106,-1.1643325958664772,-1.7095726965601692,0.04899,0.09121,0.03853,14.4,-21.7,-5.5
69.9093,6586.1357,1.0627022752564086,-1.0594340497406323,-1.6630152113292613,0.10153,0.04111,0.04769,14.2,-21.7,-5.6
69.9299,6586.1557,1.0204876359369592,-0.9470642642883924,-1.5986047262030834,0.08992,-0.00898,0.03547,14.2,-21.8,-5.7
69.9519,6586.1757,0.987067872019183,-0.8387928661014477,-1.4973111197823172,-0.03103,0.00996,0.04463,14.0,-21.7,-5.7
69.9663,6586.1957,0.9699427730264234,-0.7662854792858815,-1.3483121066389199,-0.16787,0.0234,0.0483,13.9,-21.7,-5.6
69.9883,6586.2157,0.9706792157112366,-0.7363726939607714,-1.1471341320373707,-0.21918,0.00813,-0.00423,13.6,-21.7,-5.7
70.0067,6586.2357,0.9973839790685504,-0.7752038544430956,-0.9030749884603964,-0.14832,-0.01508,-0.04761,13.3,-21.6,-6.0
70.0266,6586.2556,1.0534235567688568,-0.8600716825762361,-0.6312755071820604,-0.03531,0.05883,-0.0189,13.0,-21.5,-6.2
70.052,6586.2756,1.1408621158816334,-0.9553162478342386,-0.3524013821894947,-0.02553,0.23476,0.05807,12.7,-21.4,-6.4
70.0735,6586.2956,1.2478478973349794,-1.0337711234277416,-0.08710371853885945,-0.07318,0.32517,0.12405,12.5,-21.4,-6.5
70.088,6586.3156,1.3519942339339346,-1.0842716192243467,0.1493362257930464,0.01661,0.38625,0.10939,12.4,-21.3,-6.6
70.1112,6586.3356,1.4484187194885605,-1.1170573519385716,0.34802405960298444,0.12535,0.33983,0.02081,12.2,-21.3,-6.7
70.1283,6586.3556,1.4970655207268089,-1.1469609792906308,0.5176888923101544,0.22859,0.24087,-0.06593,12.2,-21.3,-6.7
70.153,6586.3756,1.523809792649296,-1.220853150878282,0.6639814494022129,0.27196,0.16329,-0.15267,12.2,-21.4,-6.7
70.1711,6586.3956,1.4972477124060215,-1.3200948570108355,0.8092338947823343,0.26218,0.23842,-0.19421,12.2,-21.5,-6.9
70.1885,6586.4156,1.4429496670144968,-1.4682890287347348,0.9526367203263977,0.16261,0.32272,-0.23331,12.4,-21.6,-6.8
70.2064,6586.4356,1.3668039732395376,-1.663661849708408,1.080470592720161,0.00562,0.23293,-0.1991,12.7,-21.7,-6.4
70.2337,6586.4556,1.2682266404507239,-1.8792881337882004,1.1637971713807076,-0.10922,-0.01753,-0.10197,12.8,-21.7,-6.3
70.2463,6586.4756,1.1474301938869558,-2.1217092979048835,1.1568898461670454,-0.08112,-0.27837,-0.02806,13.1,-21.8,-6.2
70.2658,6586.4956,1.0118152269316851,-2.3411540057464806,1.0298270545755361,0.05388,-0.29608,0.01287,13.3,-21.9,-6.1
70.2888,6586.5156,0.8965346199887356,-2.5097324135091563,0.7753754148547358,0.24935,-0.05601,0.0202,13.6,-21.9,-6.0
70.3065,6586.5356,0.7975784350712783,-2.5626491406584617,0.44095059515549906,0.34587,0.41558,0.01165,13.9,-22.0,-5.5
70.3297,6586.5556,0.7174014306763339,-2.5179827667007566,0.08927178619771503,0.11924,0.6642,0.00493,14.5,-22.2,-5.7
