AppTimestamp(s),SensorTimestamp(s),acc_x,acc_y,acc_z,gyro_x,gyro_y,gyro_z,mag_x,mag_y,mag_z,PitchX,RollY,YawZ,Quat_w,Quat_x,Quat_y,Quat_z
0.0422,6516.2181,-0.85476,6.43102,6.71594,0.36786,-0.77011,-0.39519,13.3,-19.2,1.8,40.230042,8.395441,127.074341,0.39477852267761454,0.091307,0.33767599,0.849581
0.044,6516.2381,-1.16841,6.36638,6.15568,0.0441,-0.79272,-0.37992,13.6,-19.1,2.1,40.551476,7.909926,126.627342,0.39891896214128464,0.097455,0.337944,0.84685302
0.0475,6516.2581,-1.45332,6.27061,7.09663,-0.36212,-0.74812,-0.10869,13.7,-19.1,2.2,40.405621,7.328452,126.372803,0.40277446724379085,0.101934,0.334638,0.84581298
0.052,6516.2782,-1.43896,6.15807,8.41588,0.11252,-0.43841,0.17903,13.8,-19.0,2.1,40.097343,6.530366,126.578758,0.40411988942245836,0.106045,0.32978901,0.84657001
0.0874,6516.2982,-1.34558,6.13653,8.54517,0.63053,-0.09755,0.38611,14.0,-18.9,2.1,40.434483,5.993161,127.055382,0.4015582977237789,0.109925,0.330791,0.84690303
0.1364,6516.3182,-0.8763,6.21793,7.63295,0.55723,-0.24844,0.47896,14.1,-18.8,2.1,41.177254,5.586023,127.736519,0.3964325493628644,0.113745,0.33542699,0.84698999
0.1416,6516.3382,-0.28013,6.45736,6.82368,0.17849,-0.92527,0.04036,14.2,-18.8,2.0,41.714596,4.823617,128.415527,0.39274743764668885,0.119373,0.33739901,0.84714901
0.1439,6516.3583,-0.11253,6.49088,6.34483,-0.07868,-1.15924,-0.17772,14.3,-18.7,1.9,41.827358,3.772358,128.438126,0.3954791276223302,0.12748399,0.334629,0.84579402
0.1556,6516.3783,-0.09817,6.36159,6.53158,-0.27843,-0.72613,-0.24736,14.4,-18.6,1.9,41.637012,2.732369,128.274063,0.39999982120953387,0.134939,0.32944199,0.84454697
0.1739,6516.3983,-0.19633,6.27779,7.15649,-0.29248,-0.25149,-0.19482,14.5,-18.6,1.7,41.292503,2.24989,128.066986,0.4034234858711868,0.13783599,0.32498601,0.84417701
0.195,6516.4184,-0.33999,6.25624,7.6521,-0.04447,0.25736,-0.12763,14.6,-18.6,1.5,41.023533,2.332832,127.947891,0.404467050325239,0.136584,0.32316801,0.84457898
0.2356,6516.4384,-0.249,6.37595,7.37676,0.0832,0.2934,-0.06104,14.7,-18.6,1.5,41.023533,2.770953,127.92099,0.40342734927788304,0.13343,0.32468101,0.84500003
0.237,6516.4584,-0.07662,6.55552,6.95297,0.02639,0.05394,-0.13496,14.7,-18.6,1.4,41.096809,3.114527,127.940689,0.40219397740702156,0.131108,0.32644701,0.84527099
0.2513,6516.4784,-0.15084,6.73031,6.74228,0.02639,-0.43231,-0.25041,14.7,-18.5,1.4,41.128872,3.247937,127.81501,0.40269072114552007,0.13060001,0.32700601,0.84489697
0.2696,6516.4985,-0.43815,6.93143,6.76143,-0.02126,-1.03767,-0.28096,14.7,-18.5,1.2,41.144146,2.806402,127.539085,0.4059558618276621,0.134694,0.32523999,0.84337199
0.2932,6516.5185,-0.62251,7.15888,7.32888,-0.04264,-1.1067,-0.23697,14.7,-18.6,1.0,41.118942,1.831174,127.265396,0.41075721193468956,0.142542,0.32124999,0.84128398
0.3126,6516.5385,-0.63688,7.26423,8.02082,0.04105,-0.57525,-0.17222,14.6,-18.5,0.8,41.134735,0.882298,127.062775,0.4148650014797097,0.150123,0.31768799,0.83929998
0.3294,6516.5586,-0.77814,7.2331,8.57629,0.30128,0.17367,-0.09586,14.5,-18.5,0.7,41.283649,0.722493,126.925186,0.41610342033597836,0.15222,0.318014,0.83818501
0.3519,6516.5786,-1.01996,7.21156,8.4494,0.54501,0.64221,0.03669,14.6,-18.5,0.7,41.712582,1.140265,126.944672,0.41417530289716575,0.150684,0.32268,0.83763403
0.374,6516.5986,-1.10137,7.24986,7.6952,0.52119,0.89877,0.08068,14.6,-18.5,0.7,42.348431,1.994432,127.104874,0.4096195326503107,0.146318,0.33058199,0.83756697
0.3935,6516.6186,-1.14207,7.38155,6.91945,0.19499,0.69718,-0.03233,14.7,-18.5,0.7,42.857922,2.991655,127.248611,0.40485991415083267,0.14048199,0.33799899,0.83792001
0.412,6516.6387,-1.4222,7.34324,6.86678,-0.01759,0.23842,-0.12763,14.8,-18.5,0.7,42.997276,3.773309,127.209312,0.40260143238701834,0.135396,0.34171301,0.83833897
0.4291,6516.6587,-1.79331,7.13015,7.24986,0.09481,-0.02608,-0.11908,14.9,-18.5,0.7,42.99662,4.149424,127.056656,0.40259592018017126,0.13309801,0.34285101,0.83824497
0.4495,6516.6787,-2.14288,6.941,7.60182,0.40146,0.10587,-0.03966,15.0,-18.5,0.7,43.20261,4.345911,126.894096,0.4028448090987639,0.132917,0.34483701,0.83733898
0.4718,6516.6987,-2.44695,6.72552,7.67365,0.59999,0.60372,0.1216,15.0,-18.5,0.8,43.72789,4.80763,126.799034,0.4012280813503456,0.131798,0.350122,0.83609802
0.4895,6516.7187,-2.77257,6.59623,7.57549,0.59144,1.19443,0.4081,15.0,-18.5,1.0,44.403957,5.793831,126.90554,0.3961868132788362,0.12681,0.35851401,0.83571702
0.5159,6516.7387,-3.18439,6.71834,7.49169,0.48454,1.54751,0.62862,15.0,-18.5,1.2,45.009293,7.121413,127.402618,0.38721069707486094,0.117816,0.36790001,0.83715999
0.5333,6516.7586,-3.65606,7.00565,7.53718,0.47049,1.55973,0.78073,15.0,-18.5,1.4,45.511829,8.585874,128.144302,0.37603406215450735,0.106571,0.37707901,0.839674
0.5579,6516.7786,-4.04872,7.21874,7.56112,0.46682,1.20848,0.80394,15.0,-18.6,1.5,46.016918,9.896679,128.997299,0.36437607748827233,0.095993,0.38565499,0.84219098
0.5707,6516.7986,-4.37913,7.01044,7.52042,0.41368,0.93481,0.87419,15.0,-18.7,1.9,46.484993,10.878085,129.763107,0.3544170464057846,0.087902,0.392667,0.844082
0.5968,6516.8186,-4.57546,6.3975,7.59943,0.39046,0.80286,1.19123,15.0,-18.9,2.3,46.902588,11.502714,130.699326,0.3444561589165159,0.081593,0.39822599,0.846232
0.6154,6516.8386,-4.2235,5.74626,7.64013,0.5047,0.7711,1.55836,15.0,-19.0,2.8,47.359737,11.619925,132.129257,0.33247960261273024,0.077371,0.402814,0.84924197
0.6398,6516.8586,-2.97369,5.02798,6.91227,0.42101,1.57072,1.61028,14.9,-19.2,3.3,47.928562,11.58483,134.000885,0.31748784445846107,0.072995,0.40800601,0.85288
0.6582,6516.8786,-1.56825,4.24505,5.83245,-0.2149,2.46014,1.35616,14.5,-19.5,3.8,48.17886,12.513845,135.892944,0.29950219070484274,0.060125,0.413403,0.857777
0.6725,6516.8986,-0.2107,3.58184,5.07586,-0.93389,2.63607,1.2401,14.1,-19.9,4.5,47.620953,14.153214,137.791443,0.2805120593317156,0.039105,0.41434899,0.86492699
0.6963,6516.9186,0.85236,3.16044,4.85798,-1.52093,2.32392,1.2737,12.9,-20.6,5.9,46.354012,15.478557,140.058655,0.2613025913118349,0.016843,0.40881899,0.87424499
0.7208,6516.9386,1.57783,3.03115,5.32008,-1.83919,1.63364,1.46673,12.3,-21.1,5.7,44.618492,15.802999,142.913284,0.24194958851322737,-0.001001,0.396927,0.88538599
0.741,6516.9586,2.41582,2.95932,6.17483,-1.66754,0.95253,1.5889,11.2,-22.0,6.4,42.743092,14.839416,146.284378,0.22276115796785578,-0.010295,0.38070899,0.897403
0.7624,6516.9787,3.47649,2.76539,6.91706,-1.14036,0.50721,1.39953,10.8,-22.3,6.0,41.140324,13.03596,149.693939,0.20465616278534074,-0.011333,0.36472699,0.90827399
0.7772,6516.9987,4.28815,2.69116,7.08705,-0.50629,0.52187,1.10082,10.1,-22.7,6.3,39.990955,11.020571,152.628555,0.18940633092703074,-0.007145,0.352052,0.91658801
0.7941,6517.0187,4.59222,2.85398,6.47412,0.04227,1.0411,1.10143,9.5,-23.2,6.7,39.387871,9.292402,155.122986,0.17547091907686557,-0.002127,0.34443101,0.92226499
0.8161,6517.0387,4.49884,3.16284,5.63852,-0.03958,1.23108,1.10571,8.4,-23.9,6.7,39.226597,8.03403,157.688965,0.15873146270478086,4.2e-05,0.341286,0.92646003
0.8325,6517.0588,4.02956,3.54113,4.77179,-0.68283,0.55852,0.92795,7.6,-23.8,8.1,38.835674,6.618059,160.299057,0.14217622161275645,0.003145,0.336321,0.93094802
0.851,6517.0788,3.62254,3.84281,3.92422,-1.61378,0.3942,0.83509,7.3,-24.3,6.6,37.670521,4.553656,162.736618,0.129259236435853,0.011241,0.32458299,0.93691599
0.8732,6517.0988,3.80211,4.2666,4.08224,-2.77748,0.60494,0.79294,6.2,-24.5,7.2,35.495781,2.671242,164.994278,0.11728355271852856,0.017783,0.30503601,0.944924
0.9028,6517.1189,3.9721,4.35997,5.96653,-3.19715,0.31051,0.56754,5.9,-24.9,6.0,32.269947,1.116663,166.997604,0.10607459202504409,0.022163,0.277161,0.95469302
0.9247,6517.1389,3.71352,4.56828,8.0304,-2.69074,0.26042,0.32808,5.7,-24.7,4.3,28.963972,-0.250623,168.35408,0.09878043584191964,0.027478,0.24857,0.96317202
0.9332,6517.1589,3.41902,5.34163,9.76864,-1.78788,-0.00287,0.22851,5.0,-24.8,3.8,26.378084,-1.435767,169.225845,0.09425389624699282,0.033564,0.22599401,0.96897697
0.9556,6517.1789,3.55071,6.28976,10.64973,-1.16969,0.04295,-0.18872,4.4,-25.1,2.2,24.809799,-2.409375,169.748154,0.09174320070730023,0.03964,0.21207801,0.97212899
0.9725,6517.199,3.59381,7.06551,11.23154,-1.18496,-0.32846,-0.74766,4.3,-24.7,3.0,23.771679,-3.076653,169.587631,0.09426917982882829,0.044844,0.202655,0.97367001
0.9925,6517.219,3.50043,7.4845,12.39756,-0.95833,-0.90389,-1.10929,4.2,-24.9,1.9,22.816431,-3.829978,168.736649,0.10272764311352531,0.051998,0.193519,0.97431701
1.0218,6517.239,3.5531,7.69759,13.43906,-0.44214,-1.66992,-1.55033,4.2,-25.0,0.3,22.320158,-5.070137,167.428604,0.1158248486334409,0.064304,0.18744799,0.97329998
1.033,6517.2591,3.28973,7.84843,14.20523,-0.07074,-1.95764,-1.97611,4.0,-24.6,0.1,22.433018,-6.772542,165.555496,0.13450810134174063,0.081891,0.185353,0.96997201
1.0687,6517.2791,2.87074,7.73351,14.89718,0.28417,-1.71634,-2.2626,4.9,-24.6,0.7,22.87422,-8.1213,163.192062,0.156787161318265,0.097569,0.185527,0.96513098
1.0852,6517.2991,2.33921,7.34324,15.11266,0.76859,-1.31623,-2.49595,5.0,-24.2,0.0,23.723057,-8.886628,160.532761,0.18065933314395693,0.109374,0.189161,0.95896697
1.0947,6517.3192,1.86514,6.7758,14.6386,1.07097,-1.38892,-2.78367,5.7,-24.2,-0.8,25.172039,-9.092602,157.691483,0.20515726583340652,0.11792,0.19815101,0.95117903
1.112,6517.3392,1.78134,5.97372,13.73595,0.9042,-1.37854,-3.07994,6.5,-23.5,-1.1,26.870045,-9.21302,154.490128,0.2322476247819531,0.12731799,0.20863099,0.94144797
1.1348,6517.3593,1.82923,5.31529,13.15654,0.77348,-1.34921,-3.41714,7.2,-23.1,-0.1,28.409685,-8.972183,150.823029,0.26200233708171317,0.13499901,0.21765199,0.93046099
1.1523,6517.3794,1.66163,4.94657,12.52924,0.96651,-1.32234,-3.60773,7.9,-22.7,-1.1,29.93305,-8.427573,146.718552,0.2940900125942037,0.14176901,0.22644199,0.91768003
1.1716,6517.3994,1.7143,3.91464,11.34407,1.08319,-1.09082,-3.57657,8.8,-22.9,-2.3,31.640442,-7.508306,142.39711,0.32631611380791414,0.14730801,0.23721699,0.90307599
1.1954,6517.4195,1.56586,2.48765,10.12778,0.85167,-1.28263,-3.57841,10.7,-21.5,-1.8,32.985966,-6.353465,138.050491,0.3573925109877918,0.15108199,0.24565899,0.88831103
1.2173,6517.4395,1.13967,1.38868,9.16768,0.52119,-1.84646,-3.36766,12.1,-20.5,-2.0,33.738964,-5.519416,133.645233,0.3890516645450055,0.15643799,0.248328,0.87321198
1.2321,6517.4596,0.69673,0.7949,8.1549,0.19682,-1.77315,-3.14836,14.2,-18.9,-1.6,33.934025,-5.321979,129.463135,0.42009256641602233,0.164589,0.24466,0.858239
1.2537,6517.4797,0.14605,0.53153,7.36239,-0.02004,-0.70109,-3.03046,15.3,-18.1,-3.0,33.641899,-4.820345,125.435356,0.4491912125245106,0.168304,0.23851199,0.844401
1.2784,6517.4997,-0.53871,0.38548,7.41507,0.05693,0.1077,-2.8136,16.8,-17.0,-4.0,33.015324,-3.181732,121.542503,0.474875171652593,0.16192199,0.234873,0.83253199
1.2937,6517.5198,-1.32164,0.47646,8.33447,0.68429,0.39542,-2.4874,17.8,-15.3,-2.9,32.426861,-1.021411,117.983704,0.4967847937785934,0.151171,0.234896,0.82169098
1.3263,6517.5399,-1.75979,0.23943,7.87238,1.6348,1.01972,-2.25039,18.4,-14.4,-2.2,32.517586,1.262418,114.841339,0.5143018911502073,0.141837,0.241602,0.81055802
1.3315,6517.5599,-1.96091,-0.249,6.93861,2.24872,2.24817,-2.41532,19.7,-13.8,-0.8,33.374908,4.595262,111.697884,0.5277755923360605,0.12929,0.259002,0.79853302
1.3521,6517.5799,-2.06865,-0.34478,6.23948,2.87058,2.36057,-2.68471,20.8,-12.3,0.9,34.55645,9.335941,108.057549,0.5394503354744896,0.110989,0.28522301,0.78442502
1.3738,6517.5999,-3.21551,-0.28252,5.32966,3.54986,1.48276,-2.7067,21.2,-11.0,2.5,35.982891,14.40104,103.547455,0.5534577046451151,0.095964,0.31449601,0.76522398
1.3938,6517.62,-4.05351,-0.54829,3.17241,3.19067,-0.84403,-2.8301,21.0,-9.5,3.7,37.696217,18.827772,98.617332,0.5686473753110266,0.090423,0.34257999,0.74236298
1.4196,6517.64,-5.33444,-0.11014,1.25699,0.59022,-4.62773,-4.57534,21.9,-7.1,3.8,37.367123,19.847454,92.739616,0.6039006904376082,0.099563,0.341043,0.71349901
1.4364,6517.66,-8.52841,0.53153,2.25062,-0.53622,-4.35528,-4.42629,22.8,-5.5,-0.7,35.011513,19.101551,86.249352,0.6522993553270917,0.108333,0.31826699,0.67931998
1.4642,6517.6801,-9.15571,1.18995,3.62972,-0.63884,-4.09872,-3.10865,22.9,-3.4,-2.0,31.653395,18.383461,80.320114,0.6977360424318209,0.106641,0.29108301,0.64580399
1.4802,6517.7001,-9.09585,1.0439,3.41902,0.38436,-2.46038,-1.43244,23.1,-2.1,-2.5,29.41758,17.675112,76.091476,0.7286271279610984,0.106002,0.27164701,0.61973703
1.501,6517.7201,-8.43264,0.52674,4.36716,-1.94182,0.31723,0.49545,23.3,-1.4,-3.6,27.832083,19.178642,74.447701,0.7378708920954665,0.091014,0.27220801,0.61087298
1.5236,6517.7401,-8.30334,1.24981,5.53317,-2.71212,1.48398,0.61824,23.3,-1.2,-2.0,24.98946,21.293985,75.347755,0.7350227446490482,0.05805,0.27272201,0.61805701
1.5396,6517.7602,-8.58108,1.87472,6.90509,-2.77993,0.74056,0.90657,23.2,-1.1,-3.1,21.803911,23.46603,76.877769,0.7291551869823869,0.020906,0.27152601,0.62782902
1.5541,6517.7802,-8.51165,2.32245,8.29137,-2.55024,0.75888,1.36349,22.7,-1.0,-4.8,19.000431,24.960276,78.946915,0.7206679707890311,-0.0111,0.26697201,0.63971901
1.5748,6517.8002,-8.4901,2.81567,8.91628,-2.17639,-0.10671,1.55225,22.5,-1.5,-4.7,16.841564,25.784779,81.451324,0.7094555579877425,-0.035821,0.26040301,0.65389597
1.5953,6517.8202,-8.13096,3.25382,9.62977,-1.93082,-0.73102,1.28164,22.3,-1.7,-4.8,15.23447,25.71595,83.895073,0.6989905832171128,-0.051325,0.25043601,0.66787702
1.6141,6517.8403,-7.71196,3.65127,11.35365,-1.53987,-0.57952,0.72331,22.7,-2.0,-4.4,13.784192,25.239401,85.84024,0.6915951360919477,-0.061951,0.23858,0.67892402
1.6365,6517.8603,-7.64013,3.90746,13.18288,-0.92228,-0.22095,0.77401,22.4,-1.9,-4.1,12.686177,25.04298,87.09874,0.6867072149240023,-0.07029,0.23048399,0.685835
1.6543,6517.8803,-7.53957,3.88591,14.46381,0.23042,-0.0664,1.07639,22.2,-2.5,-4.8,12.487701,25.065262,88.208023,0.6803843643776505,-0.073888,0.22878499,0.69229698
1.6736,6517.9004,-7.94181,3.56986,14.56916,1.07402,0.14924,1.21078,22.6,-2.3,-3.4,13.52159,25.084042,89.060638,0.6731010437514711,-0.069309,0.234318,0.69801599
1.6946,6517.9204,-8.49489,3.49085,14.32255,1.32875,0.17245,1.89067,22.9,-1.6,-3.3,15.393225,25.058767,89.85125,0.6644179587676722,-0.059255,0.244541,0.703731
1.7221,6517.9404,-7.67844,3.45254,14.02327,1.34341,0.36365,2.51558,22.9,-1.3,-3.9,17.785929,24.835421,91.289093,0.6507762317640374,-0.046361,0.256475,0.713135
1.7341,6517.9604,-6.16047,3.7207,13.80539,1.55844,0.66725,2.54796,22.8,-1.5,-4.2,20.442675,24.644972,93.153,0.6333864460704535,-0.033374,0.270282,0.72433102
1.7514,6517.9803,-5.25783,3.78774,13.27865,1.7979,0.87556,2.43251,22.7,-1.9,-4.2,23.352343,24.763615,94.818756,0.6153880782200284,-0.020819,0.28763899,0.73357201
1.7712,6518.0003,-5.69359,3.67282,12.49333,1.72704,0.84746,2.6964,22.4,-3.3,-3.7,26.402323,24.966997,96.3218,0.5972833633358958,-0.008056,0.30649501,0.74111301
1.794,6518.0203,-5.35839,3.28734,11.36802,1.47597,0.63915,3.49969,21.9,-6.0,-3.7,29.535742,24.737623,98.483589,0.5752896187639055,0.005662,0.32382801,0.75109601
1.8307,6518.0403,-3.83563,3.27058,10.27623,1.13267,0.47972,3.83628,20.5,-8.5,-2.8,32.475166,23.520586,101.870178,0.5481108949636557,0.02058,0.33587199,0.76572901
1.8349,6518.0603,-2.38949,3.32804,9.55555,0.8425,0.43573,3.74587,20.3,-10.9,-0.9,34.510628,21.793692,105.913857,0.5201704463355256,0.031374,0.341252,0.78229499
1.8533,6518.0803,-1.15643,3.21312,9.10782,0.87305,0.91221,3.6353,19.1,-13.8,-0.7,36.094589,19.776249,110.25013,0.491933905798248,0.040557,0.34374601,0.79887098
1.8715,6518.1003,0.10056,2.98805,8.57869,1.07524,1.7381,3.28039,17.3,-15.6,0.8,37.608021,18.498566,114.631516,0.46093579094967163,0.043739,0.34992999,0.81435502
1.901,6518.1203,0.48843,2.57624,7.60422,1.06669,2.12294,3.15699,16.7,-17.4,1.6,39.08604,17.912872,118.777946,0.429200219807072,0.041991,0.35909599,0.82769197
1.9236,6518.1403,0.31844,1.9657,6.51722,0.95063,2.06735,3.36102,15.0,-19.1,3.4,40.440338,17.364649,123.150681,0.3956644652962652,0.038059,0.36790499,0.84062302
1.9351,6518.1603,-0.02634,1.2953,5.41585,0.95246,1.65258,3.88453,13.7,-20.8,5.5,41.69062,16.052256,128.208633,0.3594542007077946,0.036504,0.37396801,0.85417098
1.9519,6518.1803,-0.06704,0.70871,4.35279,0.9659,1.24147,4.40743,12.1,-22.1,3.8,42.922264,13.536984,134.288666,0.3192272212317735,0.040043,0.37739801,0.86836702
1.974,6518.2003,0.52674,0.28971,3.31607,0.69101,0.84624,4.69698,9.9,-23.0,5.8,43.880379,9.878903,141.298889,0.27585479347671205,0.047989,0.37768599,0.88258398
1.9943,6518.2203,1.60895,0.0407,2.58582,0.16933,0.82119,4.78373,7.3,-23.7,7.9,44.225826,5.437419,148.923584,0.23069638585062346,0.058388,0.37403899,0.89636201
2.031,6518.2403,2.69116,-0.1676,2.24104,-0.37678,0.89816,4.72875,5.8,-24.7,7.7,44.4487,1.033192,156.733337,0.18332326433767043,0.068092,0.37213299,0.90734398
2.0448,6518.2603,3.85957,-0.25379,2.37273,-0.90274,0.62022,4.38483,3.7,-25.5,6.7,43.762962,-3.1631,164.260727,0.13720114662057312,0.076379,0.365531,0.917458
2.096,6518.2803,5.28416,0.04789,3.12453,-1.15319,0.11625,3.84299,1.1,-26.0,7.3,42.191525,-7.046983,170.849426,0.09633682781314554,0.085813,0.35352901,0.92648399
2.1153,6518.3003,7.07748,0.68716,3.90985,-0.97177,0.12175,3.10751,1.0,-25.8,6.7,40.283218,-10.431098,176.216583,0.062155687652536123,0.096617,0.339912,0.93341398
2.1164,6518.3203,8.23391,1.14207,4.41265,-0.91373,0.23048,2.25719,-1.4,-26.1,7.1,37.936977,-13.816866,-179.153305,0.032176225479689985,0.111364,0.32352,0.93909401
2.1311,6518.3403,8.55953,1.37671,4.96094,-1.13426,0.13458,1.64266,-3.3,-26.6,5.4,35.28904,-17.000191,-175.43335,0.007275032089268424,0.128802,0.30515501,0.943524
2.1347,6518.3604,8.81811,1.59459,6.1054,-1.15441,-0.4714,1.30668,-3.1,-26.2,4.6,32.621651,-19.680124,-172.816162,0.011441768524987909,-0.14636201,-0.28644899,-0.94678098
2.1591,6518.3804,9.63456,1.88908,6.9003,-0.63823,-0.71453,0.90595,-3.7,-26.4,4.9,30.210596,-22.568087,-170.928848,0.024072984469303445,-0.16811199,-0.26969501,-0.94785202
2.1739,6518.4004,10.4965,2.37512,7.08466,-0.59486,-0.09511,0.56509,-4.8,-26.9,4.1,28.502754,-24.980919,-169.50647,0.03352334172750163,-0.186764,-0.25851199,-0.94718897
2.1923,6518.4204,11.00648,2.85876,6.99847,-0.84837,0.16023,-0.00668,-3.8,-26.6,3.7,26.991404,-26.404778,-168.717331,0.04001834581613103,-0.19867501,-0.247935,-0.94734102
2.2181,6518.4405,10.85325,3.24185,7.02241,-1.14097,-0.09022,-0.34449,-3.8,-26.0,3.0,25.578901,-27.241184,-168.783142,0.04076627694184927,-0.207524,-0.23655701,-0.94832098
2.2326,6518.4605,10.92747,3.71352,7.43183,-1.25276,-0.7524,-0.53813,-3.8,-26.0,3.1,24.150391,-28.323298,-169.405075,0.03658302707212303,-0.219496,-0.22406,-0.94883102
2.2534,6518.4805,11.2076,4.11815,7.74308,-1.31263,-0.9998,-0.84173,-3.7,-26.1,2.8,22.896652,-29.866699,-170.366135,0.028574639894827506,-0.235572,-0.212312,-0.94795197
2.2759,6518.5006,11.39675,4.37913,8.19081,-1.56492,-0.9662,-1.1435,-3.6,-26.6,2.2,21.817171,-31.370806,-171.770691,0.01686769028703782,-0.25171301,-0.200774,-0.94659698
2.2914,6518.5206,11.56914,4.59461,9.22754,-1.61073,-1.04317,-1.42205,-3.2,-26.1,2.2,20.807831,-32.595657,-173.676743,0.0018950615185462144,-0.26603699,-0.188289,-0.94539303
2.3474,6518.5406,11.8756,4.86517,10.65931,-1.17274,-1.53614,-1.85821,-3.2,-26.1,2.9,20.193266,-33.583767,-175.980164,0.017590449403583792,0.27836099,0.177706,0.94373
2.355,6518.5606,11.85645,4.98009,11.32971,-0.70115,-1.76521,-2.4031,-3.1,-26.2,2.1,20.490519,-34.543213,-178.565552,0.041058635592525025,0.29001901,0.17348599,0.94026899
2.3575,6518.5807,11.27703,4.91305,11.29858,-0.67427,-1.40969,-2.75863,-3.1,-26.1,1.0,21.51379,-35.421185,178.626648,0.06799415517733585,0.300973,0.174202,0.93511802
2.3729,6518.6007,10.4151,4.81728,11.4566,-0.76346,-1.0224,-2.85453,-2.7,-25.8,0.9,22.70719,-35.655674,175.541275,0.09654522740726013,0.30723,0.17559201,0.93029898
2.3938,6518.6207,9.64174,4.65926,11.85166,-0.47819,-1.03645,-3.14286,-2.2,-25.8,0.3,23.977854,-35.429188,172.331329,0.1253857746625982,0.31020501,0.177527,0.92549199
2.4141,6518.6408,8.75826,4.40786,11.99771,-0.01454,-1.32539,-3.52648,-1.3,-25.3,-1.1,25.786102,-35.170509,169.009781,0.1560928615363937,0.31352299,0.183525,0.91850799
2.4326,6518.6608,7.90829,4.11576,11.92349,0.42773,-1.68947,-3.95409,0.7,-25.2,-1.5,28.267403,-35.102787,165.554245,0.18930126874107087,0.31938401,0.194203,0.90798903
2.4538,6518.6808,6.98649,3.5531,11.50928,0.89382,-1.99979,-4.57595,1.7,-25.2,-1.1,31.476067,-35.1287,161.803741,0.22593047095520236,0.32769999,0.209411,0.89314902
2.4734,6518.7008,5.79415,2.57385,10.69044,1.35685,-1.93687,-5.19842,4.4,-24.7,-0.9,35.539463,-34.957726,157.552612,0.26671017515460393,0.33721399,0.229862,0.87310702
2.4928,6518.7209,4.34082,1.73345,9.7878,1.84249,-1.6968,-5.60526,6.6,-23.6,-0.7,39.868027,-33.935719,152.683212,0.3090088295124907,0.34359401,0.252092,0.85023898
2.5203,6518.7409,3.07185,1.16362,8.66249,2.10394,-1.74811,-5.63397,10.0,-22.3,-1.1,44.049614,-32.045967,147.215332,0.35075863936105617,0.34719899,0.27357599,0.82557702
2.5411,6518.7609,1.83641,0.39027,7.55633,1.93779,-1.48605,-5.72499,12.3,-20.9,0.3,48.045082,-29.362936,141.058701,0.39179036826325814,0.34951901,0.29412201,0.79864198
2.5573,6518.781,0.90264,0.01915,6.67524,1.58654,-1.43901,-5.44949,14.2,-18.5,-0.6,51.320076,-25.319323,133.840332,0.4320700218449319,0.347361,0.31124601,0.771869
2.5744,6518.801,0.15802,-0.30407,5.33444,0.58716,-1.06394,-5.53073,17.2,-16.2,1.0,53.418385,-20.17598,125.548637,0.4723694885556643,0.341584,0.321904,0.74603301
2.5967,6518.821,-0.8763,-0.90982,3.89309,-0.29676,0.19689,-5.65474,19.0,-14.5,-0.5,53.744675,-12.999189,115.65712,0.5152143935813507,0.32459399,0.326381,0.72295803
2.6231,6518.841,-2.43258,-1.11334,2.91383,-0.88441,0.88228,-5.23446,20.7,-11.4,-0.8,52.230671,-4.308732,105.476372,0.5564319659063984,0.29318601,0.32964501,0.70410198
2.6344,6518.8611,-4.64968,-0.66561,3.05988,-1.21306,0.46017,-4.57717,21.6,-7.2,-0.2,49.875801,3.673122,96.428711,0.5938328670024081,0.25914201,0.33359301,0.68478
2.6547,6518.8811,-6.27539,-0.07183,4.1804,-1.11471,-0.18185,-3.67004,22.0,-5.3,1.2,47.795513,9.493728,89.219711,0.6250975089306787,0.234274,0.337383,0.66373301
2.6749,6518.9011,-7.50126,0.0431,4.71912,-0.87891,0.24087,-2.64684,23.4,-3.8,1.9,45.110332,13.576731,83.655106,0.653098233531082,0.21101899,0.33535001,0.64534801
2.6944,6518.9211,-8.74868,0.45012,5.15966,-0.96993,0.54997,-1.55339,23.6,-2.2,1.9,41.71347,17.737663,79.636963,0.6740162272215111,0.17793401,0.33592001,0.633403
2.7247,6518.9411,-9.29457,1.40305,5.51401,-0.71093,0.42779,-0.48926,24.5,-2.1,-0.3,38.856976,20.90974,77.306816,0.6865418930123344,0.148563,0.337955,0.62639898
2.7499,6518.9611,-8.88037,2.29372,5.18121,-0.75796,0.07716,0.13199,22.9,-2.5,-0.6,36.812317,22.855219,76.355011,0.6924293181509285,0.127092,0.33907899,0.62403101
2.7549,6518.9811,-8.58348,3.0958,4.75982,-1.38838,0.25492,0.30914,23.5,-2.2,1.6,34.947681,24.148615,76.212944,0.6951882703858283,0.107912,0.33820599,0.62504798
2.7759,6519.0011,-8.45658,3.67521,5.01122,-1.94304,0.29401,0.31647,22.7,-2.9,0.2,32.717422,25.274319,76.750107,0.6957508621664366,0.085135,0.33518401,0.62955099
2.7934,6519.0211,-8.55714,3.9314,5.61457,-2.15929,0.52187,0.17292,22.8,-2.5,-0.5,30.224943,26.306683,77.580055,0.695581368844594,0.060254,0.33028001,0.63517803
2.823,6519.0411,-9.49809,4.15646,6.00484,-2.43601,1.11074,0.23217,21.9,-2.3,0.0,27.663839,27.683954,78.490181,0.6939652627048417,0.032807,0.326765,0.64074999
2.8434,6519.0611,-10.60664,4.53236,6.84523,-2.78542,1.4009,0.75874,22.8,-2.8,0.0,25.063185,29.437029,79.93248,0.6882030143640173,0.001529,0.32488599,0.648709
2.8606,6519.0811,-10.9969,5.02319,8.55235,-2.65714,1.26956,1.40809,23.3,-3.2,1.1,22.70075,31.028576,82.297218,0.6767386642578063,-0.029765,0.322258,0.66127801
2.9014,6519.1011,-10.68325,5.86837,10.5372,-1.86729,0.80286,1.87662,22.8,-3.3,0.9,21.141125,32.131294,85.201241,0.6609749155162692,-0.054382,0.31957,0.67677897
2.9153,6519.1211,-9.8716,7.01762,12.08869,-0.88441,0.43879,2.16434,23.1,-2.8,0.6,20.773855,32.601322,87.998314,0.6439666186060887,-0.067296,0.318804,0.69220102
2.9191,6519.1411,-8.70319,8.23391,12.86204,-0.09701,0.85906,2.32072,23.2,-2.5,0.6,21.478863,32.401688,90.575348,0.6268288649702883,-0.068907,0.320021,0.70705301
2.9386,6519.1611,-7.27141,9.35443,13.07992,0.21209,1.45832,2.24375,23.2,-2.5,0.8,22.89818,32.635155,92.828239,0.608106962748035,-0.068123,0.32784,0.71978199
2.9524,6519.1811,-6.1485,10.04159,12.97218,0.49309,1.92319,2.04033,23.1,-2.7,1.0,24.5312,33.610596,94.694397,0.5886376860540445,-0.069992,0.34099701,0.729608
2.9738,6519.201,-5.38233,10.30496,12.47417,0.82235,2.07774,1.91144,22.9,-3.0,1.2,26.375963,35.157734,96.101273,0.569204021532543,-0.07331,0.35832399,0.73636699
2.9959,6519.221,-4.8532,10.09426,11.47576,1.11434,1.95801,1.69764,21.9,-5.3,2.2,28.464741,36.946659,97.051575,0.55050724474023,-0.075689,0.37812799,0.74042702
3.0235,6519.241,-4.6832,9.50288,10.19482,1.15221,1.63364,1.54309,21.9,-6.4,3.8,30.658396,38.708748,97.628334,0.533249956045248,-0.076292,0.398182,0.74247903
3.041,6519.261,-4.81249,8.59545,9.26105,1.04409,1.46199,1.47406,21.3,-7.8,5.8,32.758331,40.183758,98.069031,0.5175701526350025,-0.075247,0.416053,0.74388099
3.0693,6519.281,-5.15248,7.41986,8.56193,1.01049,1.49436,1.60356,21.1,-8.5,6.2,34.767937,41.512901,98.615158,0.5015488844577365,-0.074281,0.432345,0.74566001
3.0814,6519.301,-5.53077,6.05752,7.83646,1.07891,1.57133,1.94748,19.4,-10.9,8.0,36.935398,42.561016,99.4786,0.4834562531098124,-0.071938,0.44772199,0.74875897
3.0921,6519.321,-6.01442,4.79094,6.99368,1.21269,1.36425,2.49848,19.2,-12.0,9.2,39.378456,43.118992,100.9189,0.4619904996029886,-0.06733,0.46190599,0.75410497
3.1229,6519.341,-6.17723,4.01999,6.26821,1.34403,0.79492,3.08674,18.4,-12.4,9.5,42.208183,43.006775,102.875259,0.4378751032327366,-0.058569,0.47512099,0.76098299
3.1491,6519.361,-5.51401,3.36156,5.81569,1.35624,0.29768,3.44166,17.7,-13.8,11.0,45.308994,41.855991,105.370499,0.41309570331880663,-0.044079,0.48594901,0.76893598
3.1602,6519.381,-4.38631,2.73426,5.4781,1.2921,0.30257,3.50702,16.8,-14.7,12.8,48.342117,39.880348,108.421227,0.38827574415451127,-0.027287,0.49418899,0.77735102
3.1768,6519.401,-3.63211,2.25062,4.99206,1.18276,0.732,3.68478,15.2,-16.3,11.5,51.085926,37.643875,111.976677,0.3623887873699171,-0.013004,0.50113702,0.78572702
3.1925,6519.421,-3.2203,2.11175,4.40068,1.04104,1.06187,4.01465,13.6,-17.1,13.1,53.627552,35.20377,116.408638,0.3322831487031502,-0.002837,0.507649,0.79490399
3.2136,6519.441,-2.48765,1.92739,3.68239,0.67452,0.98735,4.26449,11.6,-18.5,15.1,55.913498,31.987577,122.002159,0.29866689489399306,0.005609,0.51214802,0.80527699
3.2345,6519.461,-1.12052,1.66163,3.20833,0.23775,0.95314,4.37567,9.8,-19.5,16.7,57.625645,27.517099,128.974136,0.26311917625942716,0.013559,0.51222998,0.81743801
3.2559,6519.481,0.46449,1.48445,3.05749,-0.06585,1.11807,4.15026,7.7,-20.5,18.0,58.606365,22.093288,137.016541,0.22631067541642755,0.020516,0.50818002,0.83073199
3.2746,6519.501,1.78613,1.32643,2.82764,-0.31631,1.47482,3.7984,6.1,-21.4,15.8,59.721581,16.155746,145.713913,0.18623610209306773,0.028853,0.50697398,0.84110701
3.2939,6519.521,2.7175,1.19953,2.49962,-0.84715,1.87005,3.53023,4.6,-22.1,20.0,60.189377,10.642391,154.324539,0.14607318194555766,0.032701,0.50461799,0.85026699
3.3135,6519.541,3.3448,1.01278,2.44455,-1.26132,1.86394,3.50091,2.0,-22.6,16.8,59.669243,5.645194,162.69809,0.10610319922725968,0.032509,0.49766701,0.86023998
3.336,6519.561,3.99365,0.8356,2.76299,-1.53559,1.46687,3.50274,1.0,-23.2,16.7,58.36639,0.854698,170.780029,0.06655930924566342,0.032698,0.48653701,0.870507
3.3545,6519.581,5.12375,0.82363,3.40705,-1.63394,1.00995,3.39095,-1.7,-23.9,15.6,56.457623,-3.779827,178.151398,0.029828474879206604,0.036679,0.47220701,0.88021898
3.3732,6519.6009,6.84763,0.98884,4.05351,-1.5191,1.01361,3.18204,-2.4,-23.7,17.0,54.227165,-7.916054,-175.388229,0.00436771257064487,-0.043097,-0.45677301,-0.88852799
3.4042,6519.6209,8.71277,1.2977,4.54194,-1.38715,1.25002,2.59378,-3.7,-24.2,15.6,51.327045,-12.291271,-168.975555,0.03995833960814182,-0.054687,-0.437875,-0.89648098
3.422,6519.6409,9.97694,1.84838,4.94657,-1.40731,1.4064,1.80698,-4.8,-24.2,14.8,47.991821,-16.06015,-163.482651,0.07372887219943035,-0.068454,-0.41683999,-0.903395
3.4458,6519.6609,10.66649,2.54033,5.55472,-1.39082,1.16266,1.15763,-6.1,-24.8,11.7,44.863518,-18.297626,-159.814621,0.10019154735125962,-0.078676,-0.39665401,-0.90908599
3.4542,6519.6809,10.99451,3.13889,6.32328,-1.26803,0.37037,0.51867,-7.5,-25.5,9.3,42.085361,-19.974903,-157.470764,0.11848172835487936,-0.089672,-0.378429,-0.91362602
3.484,6519.7009,10.77903,3.52198,7.06072,-1.23138,-0.27104,-0.06104,-7.4,-25.2,10.7,39.76194,-21.71722,-156.291656,0.12702278518423296,-0.104774,-0.36324799,-0.917027
3.4926,6519.7209,10.26665,3.84521,7.68323,-1.22283,-0.20262,-0.20399,-5.8,-25.7,11.8,37.749218,-23.340361,-156.026901,0.12844771482210143,-0.121432,-0.34965399,-0.92005301
3.5171,6519.7409,10.07271,4.41025,8.24828,-1.20512,-0.02669,-0.01034,-6.6,-26.4,9.5,35.847328,-24.553968,-156.034576,0.1290128849801425,-0.13547701,-0.336164,-0.92303598
3.5343,6519.7609,10.68804,5.12854,8.98332,-1.05851,-0.55509,-0.02928,-7.3,-25.6,9.7,34.009064,-25.694202,-155.954605,0.13061247188932396,-0.14857399,-0.323163,-0.92543602
3.5547,6519.7809,11.38238,5.73908,9.63217,-0.63579,-1.70779,-0.45994,-7.4,-25.3,8.7,32.562702,-27.473797,-156.038315,0.12843970007213248,-0.16644301,-0.31371999,-0.92594802
3.576,6519.8009,11.66491,6.17962,9.88117,-0.29309,-2.43167,-0.89427,-6.8,-25.6,8.6,31.974152,-29.971535,-156.628586,0.11834986430131599,-0.189539,-0.31088701,-0.92380601
3.6,6519.8209,11.72476,6.4837,9.74709,-0.19597,-2.41212,-1.17954,-6.4,-25.3,9.6,32.247463,-32.210911,-157.858292,0.10163340218914148,-0.210301,-0.313021,-0.92057699
3.6247,6519.8409,11.58111,6.69679,9.44063,-0.29798,-1.91732,-1.47214,-5.7,-25.4,9.5,32.832253,-33.997288,-159.403122,0.08271047168224756,-0.227597,-0.31604499,-0.917319
3.6387,6519.8609,11.12859,6.8596,9.3257,-0.41771,-1.53003,-1.8124,-5.8,-25.3,8.6,33.522583,-34.956364,-161.352814,0.0624974747683415,-0.23921899,-0.318028,-0.91527402
3.6733,6519.8809,10.29778,6.92903,9.32809,-0.34441,-1.44146,-2.13554,-6.0,-25.6,9.1,34.393452,-35.2887,-163.703064,0.04033662408902218,-0.2467,-0.319942,-0.91386497
3.6797,6519.9009,9.34725,6.8572,9.31852,-0.07868,-1.66503,-2.41349,-6.2,-25.5,8.9,35.610786,-35.412685,-166.285675,0.016028138747810502,-0.25272,-0.323789,-0.91161197
3.7008,6519.9209,8.39433,6.69439,9.23232,0.21026,-2.0175,-2.56987,-6.2,-25.6,8.4,37.2388,-35.723255,-168.889008,0.010220465647851321,0.25988099,0.330603,0.90722603
3.7173,6519.9409,7.64731,6.58426,9.22514,0.50531,-2.42678,-2.83132,-5.6,-25.7,7.8,39.267113,-36.398342,-171.44162,0.03790127367700897,0.269526,0.34025499,0.90008098
3.7364,6519.9609,6.99128,6.34004,8.89234,0.81929,-2.49214,-3.21983,-4.0,-25.7,7.6,41.749496,-37.327663,-174.085388,0.0682178065932917,0.28119501,0.35256499,0.889929
3.7564,6519.9809,6.273,5.97132,8.04237,0.86022,-2.23069,-3.60773,-1.9,-25.5,7.1,44.422958,-38.017262,-176.972,0.09996777404313636,0.29199299,0.365255,0.87825698
3.7734,6520.0009,5.35839,5.54753,7.17085,0.73927,-1.96069,-4.00296,0.8,-24.9,8.6,47.048,-37.84277,179.482361,0.13334699444486856,0.29902399,0.376219,0.866754
3.792,6520.0208,4.32645,4.94897,6.44539,0.67024,-1.68886,-4.34321,3.5,-24.4,8.6,49.73069,-36.534748,175.000885,0.1692576714219439,0.30153799,0.38651401,0.85500503
3.8181,6520.0408,3.36396,4.21153,5.55711,0.61221,-1.35227,-4.5228,6.5,-23.8,9.1,52.380733,-34.04298,169.566345,0.20668334481229975,0.299961,0.39638999,0.842722
3.8385,6520.0608,2.36554,3.56747,4.65208,0.41429,-1.16962,-4.68774,8.9,-22.4,8.8,54.768822,-30.316328,163.163666,0.2444493790632731,0.29467499,0.405182,0.83020401
3.8536,6520.0808,1.19235,3.0527,3.83802,0.1113,-1.04439,-4.79097,11.2,-20.7,8.7,56.656662,-25.35466,155.602661,0.2832530970167836,0.28663999,0.41168401,0.81738698
3.8746,6520.1008,0.01676,2.65525,3.12932,-0.29309,-0.81165,-4.69568,13.9,-18.7,8.8,57.765366,-19.290632,147.032867,0.3225385024974834,0.275792,0.41499299,0.80479097
3.8932,6520.1208,-0.97447,2.38949,2.66004,-0.68649,-0.65466,-4.61382,15.5,-17.2,7.4,57.874794,-12.542017,137.938507,0.3615167332502597,0.26182699,0.41461599,0.79299802
3.9266,6520.1408,-1.89866,2.06386,2.61934,-0.929,-0.43903,-4.53136,17.3,-15.4,7.8,57.213238,-5.363522,128.579208,0.4006323511307582,0.24449401,0.4131,0.78042603
3.9391,6520.1608,-3.42142,1.72148,2.89468,-0.87036,-0.32296,-4.27724,19.4,-13.1,6.7,56.256088,2.069632,119.300018,0.43818535954755383,0.224428,0.41481701,0.76521403
3.9542,6520.1808,-5.32966,1.62811,3.42142,-0.7152,-0.57952,-3.53137,20.0,-11.6,5.2,54.861061,8.373181,111.249992,0.4720329656877356,0.205924,0.41579199,0.74959803
3.9729,6520.2008,-6.79735,1.81486,3.53634,-0.57715,-0.88618,-2.53566,21.5,-9.0,6.4,53.422974,12.5382,105.214516,0.5002262245784401,0.193838,0.414224,0.735268
3.9928,6520.2208,-7.55873,2.27217,3.28734,-0.84776,-1.02973,-1.67373,20.8,-9.4,4.3,51.678925,15.493798,100.585922,0.5245410743295122,0.18257301,0.40975699,0.72361797
4.0175,6520.2408,-7.77182,2.66722,3.32804,-1.34684,-0.82143,-1.10868,21.5,-8.7,3.2,49.264587,18.112116,96.86808,0.5465037620931615,0.16603801,0.40288401,0.71515697
4.0378,6520.2608,-7.87956,2.90904,3.55789,-1.74879,-0.16108,-0.64564,21.1,-8.0,3.1,46.565346,20.138588,94.440468,0.5635404265902134,0.146447,0.39472401,0.71075201
4.0655,6520.2808,-8.00646,3.18678,3.56986,-2.10736,0.12725,-0.4129,21.5,-7.9,2.9,43.737602,22.049652,93.086174,0.5748265033000828,0.122642,0.38745999,0.710217
4.0811,6520.3008,-8.24109,3.43339,3.48606,-2.83307,0.24087,-0.22964,22.3,-8.3,3.5,40.616955,23.672667,92.645889,0.5824045857395184,0.095463,0.37852901,0.713027
4.0978,6520.3208,-8.56672,3.54592,4.20435,-3.52518,0.327,-0.09648,23.1,-7.7,3.3,36.931248,24.896141,93.092628,0.5874594661109306,0.064298,0.36514199,0.71932501
4.1207,6520.3408,-9.19162,3.71831,5.9378,-3.71333,0.41985,0.18391,21.7,-7.6,2.0,32.853867,25.8402,94.228859,0.589901893734068,0.030436,0.34791201,0.72804302
4.1411,6520.3608,-9.92666,4.29293,8.04237,-3.49891,0.40641,0.89313,21.5,-7.4,0.6,29.012341,26.535826,96.040108,0.5875277421637212,-0.002101,0.32984999,0.738922
4.156,6520.3808,-10.03919,5.37036,10.2451,-3.07314,0.34655,1.85707,21.3,-8.1,0.6,25.936769,26.807913,98.713112,0.5779727517902717,-0.02922,0.312783,0.75316697
4.1825,6520.4008,-8.58587,7.0272,12.86923,-2.25458,0.06127,2.47893,21.0,-8.7,0.7,23.927378,26.540735,102.205742,0.5608495808432594,-0.048082,0.29802901,0.77091801
4.1957,6520.4207,-6.18441,8.92825,15.21562,-1.1929,0.15412,2.42151,21.1,-8.9,1.0,23.125257,25.848869,105.7575,0.5405308117293218,-0.056822,0.288017,0.78844398
4.2136,6520.4407,-4.27378,10.43425,16.40796,-0.2149,0.85357,2.16861,21.3,-8.7,0.7,23.334328,25.072149,108.791985,0.5208704866367836,-0.057907,0.28425601,0.80283201
4.2347,6520.4607,-3.261,11.25549,16.23558,0.3477,1.57988,2.01468,21.2,-8.5,1.2,24.320185,25.300135,111.081932,0.5016595200987214,-0.060225,0.29059801,0.81256598
4.2539,6520.4807,-2.86116,11.24591,15.46462,0.61404,1.86088,1.94198,21.2,-8.6,1.0,25.750046,26.361813,112.917267,0.4821073338313778,-0.065403,0.303655,0.81919998
4.278,6520.5007,-2.72708,10.52523,14.77028,0.98178,1.73321,1.75811,20.8,-9.1,0.9,27.444405,27.698706,114.425369,0.4630365443038152,-0.070769,0.31955001,0.82369697
4.2979,6520.5207,-2.80609,9.33767,13.94426,1.52362,1.4852,1.52537,20.3,-10.2,1.0,29.493576,29.001902,115.4123,0.4463256818565339,-0.07303,0.33769,0.82548499
4.3633,6520.5407,-3.32565,8.0304,12.59867,1.96589,1.43755,1.41725,19.5,-11.8,3.1,31.975288,30.359631,115.776596,0.4320938507081534,-0.071909,0.35896099,0.82417899
4.3674,6520.5607,-3.90506,6.88593,10.90592,2.107,1.53407,1.5999,18.8,-13.3,3.6,34.818001,31.881975,115.893631,0.4172783216405563,-0.06944,0.38291001,0.82124102
4.3702,6520.5807,-4.3073,5.88992,9.12698,1.96528,1.5866,1.87845,18.3,-14.0,6.0,37.862675,33.42551,116.152588,0.39987049416869946,-0.066566,0.407574,0.81826401
4.3773,6520.6007,-4.35997,5.15966,7.99209,1.70871,1.46687,2.05866,17.1,-15.3,5.7,40.836731,34.567802,116.973053,0.3793732495718429,-0.063254,0.42952999,0.81705499
4.3916,6520.6207,-4.13012,4.47729,7.36239,1.63907,1.30866,2.08309,16.2,-15.6,7.6,43.343739,34.754616,118.510185,0.3586065262596591,-0.058372,0.44479099,0.81862998
4.4122,6520.6407,-3.87394,3.91943,6.67763,1.61708,1.45893,2.14418,15.4,-16.5,10.1,45.697937,34.794876,120.144379,0.3381080957658946,-0.05393,0.45859799,0.82003802
4.4331,6520.6607,-3.84281,3.6369,5.75584,1.33547,1.91525,2.46366,14.7,-17.6,10.0,47.926777,34.919125,122.113434,0.3152179904288138,-0.052428,0.471733,0.82180101
4.4565,6520.6807,-4.06787,3.40466,4.85798,1.0166,1.92502,2.94197,12.9,-18.0,10.5,49.997185,34.85947,124.8722,0.2879165158149145,-0.054089,0.48304999,0.825131
4.4725,6520.7007,-3.86436,3.12932,4.31209,0.81013,1.42472,3.47525,11.5,-18.7,14.2,52.00663,33.826317,128.756287,0.2568402250548365,-0.054374,0.49128199,0.83049297
4.4941,6520.7207,-2.90426,2.79651,4.40786,0.82051,0.70818,3.69822,8.7,-20.2,14.3,53.984486,31.322332,133.676849,0.2248250887772979,-0.049264,0.49640799,0.83702201
4.5172,6520.7407,-1.8819,2.3847,4.59701,1.07158,0.4394,3.72571,7.2,-20.3,14.8,55.882191,27.672199,139.146118,0.19437472338573206,-0.039194,0.500094,0.84296399
4.5367,6520.7607,-1.02954,1.84599,4.19716,1.11678,0.49316,3.84666,6.3,-20.6,16.9,57.70734,23.402649,145.030014,0.16434039855531454,-0.027446,0.50408298,0.847431
4.5627,6520.7807,0.11253,1.68078,3.37832,0.74232,0.78332,3.967,4.3,-20.8,17.7,59.158714,18.377869,151.892639,0.13200812395856457,-0.016392,0.50643301,0.85195702
4.5769,6520.8007,1.28094,1.84359,2.73187,0.13451,1.05088,3.78985,2.1,-21.2,17.9,60.25898,12.466998,160.01358,0.0955301123894438,-0.005896,0.50771499,0.85619199
4.5971,6520.8206,2.18597,2.03274,2.78933,-0.389,1.08997,3.3989,1.4,-21.3,19.1,60.929619,6.26415,168.586655,0.05803760518421807,0.003478,0.50842702,0.85913998
4.6214,6520.8406,3.32804,2.14766,3.20593,-0.58387,1.13212,3.04643,-0.7,-21.4,17.0,60.640038,0.677743,176.456497,0.023745445373769988,0.010505,0.50473797,0.86288202
4.6404,6520.8606,4.36955,2.11175,3.43578,-0.71093,1.30255,2.60416,-1.6,-21.8,19.9,59.84473,-3.832829,-176.782013,0.007736523526726744,-0.014974,-0.499165,-0.86634302
4.6555,6520.8806,4.98488,2.05908,3.52677,-0.88747,1.4119,2.27979,-2.6,-22.7,18.9,58.712807,-6.980654,-171.32254,0.03607455419765859,-0.015891,-0.49194399,-0.86973399
4.676,6520.9006,5.71035,2.27935,3.80211,-1.01269,1.36608,2.14235,-5.0,-23.0,16.5,57.1679,-9.470983,-166.584854,0.06299763036289086,-0.016305,-0.48201701,-0.87374198
4.7115,6520.9206,6.78537,2.61934,4.18759,-0.97299,1.27567,1.81675,-5.4,-22.6,16.3,54.855389,-12.790113,-161.365341,0.09218723593513319,-0.023446,-0.46772999,-0.87873799
4.7294,6520.9406,7.66407,2.86834,4.15167,-0.90029,1.30561,1.20284,-7.0,-22.5,17.6,52.395237,-15.809319,-156.834396,0.11897757878230504,-0.033088,-0.45314601,-0.88284099
4.7415,6520.9606,8.03758,3.19875,4.06787,-1.11654,1.17794,0.66772,-6.7,-22.2,16.6,50.145142,-17.685869,-153.705521,0.1401425173351027,-0.04035,-0.43942499,-0.88636202
4.7549,6520.9806,8.30574,3.64887,4.32167,-1.3786,0.75949,0.32808,-8.0,-23.3,13.5,47.865894,-18.95158,-151.736481,0.15535279971329694,-0.048229,-0.42476201,-0.890571
4.7733,6521.0006,8.70558,4.05351,4.71193,-1.61928,0.50721,0.20224,-7.7,-23.5,14.5,45.525936,-20.085958,-150.535431,0.1656498636235467,-0.058631,-0.40935901,-0.89529198
4.7954,6521.0206,9.50767,4.64729,5.46852,-1.89906,0.27752,0.14909,-8.5,-23.4,12.9,43.043278,-21.148029,-149.806549,0.1731843348239067,-0.070896,-0.39263901,-0.90045297
4.8191,6521.0406,10.2044,5.44698,6.90509,-1.98214,-0.6455,-0.29684,-8.3,-24.2,12.7,40.449821,-22.269876,-149.664566,0.1764588808147072,-0.086151,-0.374796,-0.90607297
4.8364,6521.0606,10.64734,6.13892,8.77502,-1.50016,-1.59967,-0.58272,-7.8,-23.7,12.4,38.199436,-23.957436,-150.265442,0.17154006547398543,-0.107429,-0.359694,-0.91085303
4.858,6521.0806,10.78381,6.58186,10.04159,-0.91618,-2.03827,-0.70123,-7.2,-24.3,11.8,36.706142,-26.358683,-151.08989,0.1611693265658192,-0.13302401,-0.35089201,-0.91280001
4.877,6521.1006,10.68565,7.00086,10.69523,-0.52522,-2.11402,-0.70795,-7.4,-24.5,11.6,35.852718,-29.012365,-151.877213,0.14901152363813958,-0.158785,-0.346957,-0.91225201
4.8934,6521.1206,10.26186,7.40549,10.82691,-0.35968,-2.13662,-0.78614,-6.9,-24.7,10.9,35.612057,-31.146704,-152.85228,0.13545401457276846,-0.17933699,-0.346333,-0.91079301
4.9246,6521.1406,9.43823,7.6952,10.7048,-0.27416,-2.20748,-0.7727,-6.4,-24.2,10.7,35.767479,-32.919922,-154.049408,0.12014157716435915,-0.19664501,-0.34752801,-0.908912
4.9396,6521.1606,8.76783,7.89632,10.39834,-0.24056,-2.22458,-0.68901,-6.9,-24.2,11.4,35.993927,-34.823456,-155.10759,0.1053091590911248,-0.214369,-0.34921801,-0.90609199
4.9698,6521.1806,8.14293,8.22194,10.13257,-0.25155,-2.21603,-0.73911,-6.8,-24.4,10.9,36.233643,-36.787113,-156.044479,0.09119503102954336,-0.232134,-0.35088399,-0.90259498
4.9771,6521.2006,7.60422,8.55474,10.01286,-0.19658,-1.99307,-0.86372,-6.4,-24.0,11.1,36.551155,-38.63324,-157.025116,0.07681661869634353,-0.24887501,-0.352561,-0.89881098
4.9929,6521.2206,7.00325,8.83487,10.05835,-0.01943,-1.89716,-0.99933,-6.1,-24.2,10.4,37.05957,-40.177444,-158.050735,0.06236934849074345,-0.26289299,-0.35500401,-0.89496899
5.0119,6521.2406,6.18441,8.84206,10.08947,0.38008,-2.15495,-0.98101,-6.4,-24.3,10.8,37.877644,-41.772713,-158.955093,0.04764103333848895,-0.276169,-0.35971501,-0.88998097
5.0325,6521.2605,5.62655,8.64812,10.02243,0.90665,-2.57644,-0.72444,-6.3,-24.4,10.2,39.021912,-44.066544,-159.269806,0.03397681134567497,-0.29213101,-0.36816299,-0.88202101
5.0564,6521.2805,5.83006,8.43264,9.63696,1.41489,-2.69923,-0.587,-6.1,-24.5,10.0,40.402496,-47.365555,-158.670685,0.022775342842635847,-0.31193,-0.38053599,-0.87027198
5.0715,6521.3005,6.34962,8.20757,8.60263,1.63541,-2.24352,-0.91442,-5.5,-24.4,9.9,42.054436,-50.988182,-157.478729,0.0131051203725789,-0.33077899,-0.39609101,-0.85646099
5.0941,6521.3205,6.54595,7.87716,7.22353,1.51934,-1.75544,-1.42633,-4.5,-24.2,10.4,44.014408,-53.716915,-156.587814,0.0022429639497251485,-0.34233099,-0.412332,-0.84426701
5.1187,6521.3405,6.40229,7.24508,5.84203,1.42405,-1.44756,-1.98038,-3.3,-24.0,10.3,46.178486,-55.206528,-156.515289,0.012055804135756689,0.34658501,0.42699701,0.835109
5.1345,6521.3605,5.73908,6.41187,4.46532,1.32753,-1.41641,-2.53261,-1.7,-23.4,12.2,48.73579,-55.990143,-157.044525,0.029766571639339337,0.346535,0.44211301,0.82677901
5.154,6521.3805,5.02558,5.66246,3.3472,1.21635,-1.70596,-2.88202,-0.3,-23.1,12.7,51.609039,-56.449512,-158.127228,0.0516552415630732,0.34527501,0.45735601,0.81788898
5.1717,6521.4005,4.69038,5.06389,2.50441,1.09479,-2.05232,-3.28702,1.5,-22.6,12.5,54.656818,-56.908604,-159.679413,0.07753255590833835,0.34544101,0.47196901,0.80740601
5.1921,6521.4205,4.54673,4.54194,1.85077,0.90176,-2.52146,-4.08909,4.2,-21.6,14.6,58.040531,-57.144836,-162.096893,0.10970610058150719,0.34683701,0.48592401,0.79469901
5.2207,6521.4405,4.0583,3.86197,0.93377,0.47354,-2.61004,-4.76288,8.4,-20.4,15.0,61.870247,-56.571899,-165.922256,0.14921409737206426,0.34792799,0.499082,0.779486
5.2358,6521.4605,3.14368,3.07185,0.08859,-0.37739,-2.14823,-5.21553,10.4,-19.3,14.9,65.742699,-53.617386,-172.301239,0.193918570505816,0.34542701,0.50875598,0.76435798
5.2517,6521.4805,1.98725,2.25301,-0.03591,-1.13426,-1.62349,-5.50447,12.5,-16.7,14.9,68.991821,-46.357277,177.378555,0.24018905729220794,0.336216,0.51307702,0.752343
5.2796,6521.5005,0.49083,1.37671,0.61054,-1.52338,-1.38526,-5.70178,14.4,-14.9,14.2,71.371483,-33.548115,161.888214,0.2886599563532816,0.31939599,0.51466298,0.74147397
5.2921,6521.5205,-1.24023,0.72068,1.62332,-1.50261,-1.42802,-5.62114,17.3,-12.9,12.9,72.439262,-14.530718,140.432999,0.3411852564265621,0.294393,0.51701301,0.72775197
5.3137,6521.5405,-3.15326,0.43097,2.55469,-1.24238,-1.72245,-5.25462,19.3,-10.1,12.1,71.373993,3.71117,119.557808,0.3922822143027132,0.27074599,0.517048,0.71096599
5.3359,6521.5605,-5.37036,0.46928,2.87313,-1.10799,-1.93809,-4.55213,19.7,-8.6,12.4,68.954903,16.977451,103.395515,0.43976475620526795,0.25152501,0.51479203,0.69161499
5.3534,6521.5805,-7.23071,0.68955,2.63849,-1.3108,-1.67908,-3.59429,21.5,-6.1,9.8,65.965645,24.826294,92.674919,0.4809432339129422,0.23661999,0.50910699,0.67343497
5.3738,6521.6005,-8.53559,1.10615,1.93936,-1.94548,-0.8483,-2.71587,22.3,-4.9,8.6,62.748348,28.741228,86.504181,0.513852362911935,0.222131,0.49991599,0.66083097
5.3958,6521.6205,-9.42626,1.78852,1.91063,-2.73839,-0.27348,-2.1221,22.5,-4.3,8.2,58.529671,31.606831,82.773628,0.5417486359859338,0.19582801,0.489227,0.65484101
5.4279,6521.6404,-10.13257,2.62173,2.77496,-3.08353,-0.23377,-1.66884,22.6,-3.6,5.2,53.222858,34.329514,80.225655,0.5681318648701363,0.15731201,0.47754201,0.65148503
5.4327,6521.6604,-10.19482,3.42621,3.98407,-3.04871,-0.29669,-1.32431,22.2,-3.4,5.5,48.160473,35.698608,79.296989,0.5893302658738303,0.12048,0.463283,0.65080202
5.4587,6521.6804,-10.51805,4.02717,4.60898,-3.01267,-0.27959,-1.2333,22.5,-2.9,4.6,43.540195,36.491417,79.08197,0.606235492294438,0.086525,0.44847199,0.65104902
5.4721,6521.7004,-11.67927,4.38392,4.9346,-3.41706,-0.00714,-0.90648,22.6,-2.4,3.2,39.140266,37.011879,79.327484,0.6199664549356029,0.053631,0.43296701,0.65215403
5.492,6521.7204,-12.84528,5.12614,7.06311,-3.90514,0.27385,-0.02134,22.4,-2.4,3.2,34.792217,37.241035,80.660202,0.6275977727303522,0.018792,0.41564301,0.65803403
5.5174,6521.7404,-12.77824,5.85161,10.44383,-3.27961,0.35876,0.96277,22.1,-3.2,3.0,31.02298,37.031116,83.326241,0.6261394520133826,-0.013963,0.397172,0.67082697
5.5323,6521.7604,-11.98095,6.38553,12.8788,-2.03101,0.62693,1.7349,22.6,-3.7,3.4,28.806334,36.595219,86.431686,0.6167086346125209,-0.036109,0.38332599,0.68660599
5.5509,6521.7804,-10.90353,6.64411,13.46301,-1.01941,1.0075,2.12402,22.2,-3.6,3.3,28.445282,35.854332,89.655251,0.600798824571087,-0.044555,0.376412,0.703825
5.5738,6521.8004,-9.91709,7.02241,12.99133,-0.72009,1.62265,2.26696,22.0,-4.3,5.0,29.08209,35.779194,92.543938,0.5810104157306304,-0.04971,0.378196,0.71897399
5.5934,6521.8204,-9.39274,7.25465,12.18686,-0.78912,2.18281,2.51436,21.7,-4.9,4.2,29.961195,36.319038,95.469849,0.5577236267596335,-0.057613,0.38425601,0.73346603
5.6174,6521.8404,-9.04557,7.2762,11.58111,-0.76285,2.27383,2.98229,22.1,-4.8,5.6,31.021593,37.150146,98.721703,0.5302394925694424,-0.067823,0.39226601,0.74858099
5.6407,6521.8604,-8.48531,6.97931,10.82452,-0.38656,1.93358,3.42333,22.1,-4.6,4.6,32.560905,37.643196,102.317223,0.49938135075330853,-0.074792,0.40090099,0.76439703
5.6559,6521.8804,-7.39831,6.70158,10.07271,-0.1135,1.32882,3.8094,21.5,-6.5,5.2,34.755199,37.406612,106.04184,0.4672439676491927,-0.074307,0.41007799,0.779742
5.6757,6521.9004,-5.37036,6.39271,10.13018,0.11863,1.12662,3.74953,20.4,-9.1,5.9,37.314171,36.247921,110.095741,0.43429248245414,-0.067391,0.41804099,0.79504102
5.6948,6521.9204,-3.73267,6.00005,9.74709,0.51691,1.38563,3.49908,18.8,-11.5,8.3,39.949726,34.960079,114.030029,0.40197022195418886,-0.059411,0.42700499,0.80781001
5.733,6521.9404,-3.50761,5.62415,8.24349,0.41795,1.75765,3.60598,17.4,-13.9,8.6,42.262215,34.041206,117.798538,0.37035083838865535,-0.055728,0.436198,0.81820899
5.7382,6521.9604,-3.43578,5.50683,7.10621,-0.04997,1.43939,4.00915,16.0,-15.7,8.7,44.295189,32.695328,122.401527,0.33517311222954554,-0.054182,0.44259799,0.82995802
5.7641,6521.9804,-2.94256,4.82925,7.38634,-0.09762,0.9061,4.06596,14.9,-17.0,8.6,45.962357,30.061522,128.050171,0.2983973793037726,-0.049489,0.443551,0.84366602
5.7771,6522.0004,-2.23146,3.98647,7.89871,0.35076,0.71673,4.20463,13.1,-18.6,10.4,47.521175,26.585964,134.043228,0.2624314245669505,-0.040666,0.44316,0.85620397
5.7969,6522.0204,-1.68557,2.95693,7.62098,0.77592,0.88838,4.40438,11.7,-20.4,13.3,49.252457,22.73304,140.312195,0.22528613318830537,-0.029844,0.44508401,0.86617303
5.8134,6522.0404,-1.16122,1.91063,6.46933,0.76248,1.06676,4.92056,9.5,-21.1,13.4,50.992916,18.458576,147.283218,0.18468296326954362,-0.01924,0.44845599,0.87430501
5.8312,6522.0604,-0.04789,1.38629,5.56908,0.51936,0.76499,5.30296,7.1,-22.2,13.0,52.247498,13.050651,155.719864,0.1386805498898803,-0.007753,0.44913399,0.88260198
5.8523,6522.0803,1.49403,1.36234,5.24586,0.50347,-0.08045,4.96699,2.5,-23.0,14.4,52.632458,6.434646,165.018738,0.0920100321169375,0.007825,0.44540799,0.890553
5.8796,6522.1003,3.15326,1.55388,5.34163,0.68979,-0.76462,4.26327,1.2,-23.5,15.1,52.283279,-0.696249,173.777725,0.05141607261197352,0.029358,0.439639,0.89622098
5.8943,6522.1203,4.67123,1.64726,4.97291,0.859,-0.50011,3.41539,-0.5,-24.0,13.4,51.539703,-7.460712,-178.676743,0.01792149427697861,0.053577,0.434484,0.89890599
5.9286,6522.1403,5.45655,1.70951,3.73746,0.48637,0.34349,2.64509,-1.2,-23.5,15.8,50.541531,-12.781667,-172.416489,0.01207794983594267,-0.072382,-0.42997199,-0.89985502
5.9374,6522.1603,5.35839,1.83401,2.3416,-0.4507,1.20237,2.21809,-2.6,-23.1,15.3,48.92923,-16.315823,-167.380386,0.04063154009336828,-0.083325,-0.421653,-0.90200597
5.9597,6522.1803,4.92023,1.98485,1.72148,-1.6877,1.76864,2.19305,-3.4,-23.1,16.1,46.268631,-18.164679,-163.370819,0.0699544944769095,-0.087532,-0.40487599,-0.90748
5.9729,6522.2003,4.99685,2.20273,2.65286,-2.14768,1.1926,2.2352,-4.9,-24.3,13.3,42.84301,-19.157928,-160.114609,0.0986414479374643,-0.090403,-0.381473,-0.91464502
5.9937,6522.2203,6.00484,2.39427,4.6018,-1.73962,0.41802,2.08431,-6.9,-25.0,12.2,39.190254,-20.8125,-157.143753,0.12421996327434509,-0.101435,-0.357032,-0.92022198
6.0223,6522.2403,7.29057,2.47807,5.75105,-0.93389,0.07044,1.70863,-6.7,-24.5,11.7,36.173504,-23.035097,-154.408722,0.1458456226097277,-0.117715,-0.338687,-0.92204303
6.0387,6522.2603,8.16208,2.89707,5.88034,-0.73841,-0.21728,1.25293,-7.5,-24.1,12.5,34.020279,-25.213997,-152.153687,0.162574733075776,-0.13388801,-0.32732099,-0.921143
6.0534,6522.2803,8.85163,3.52916,6.74946,-0.77446,-0.68032,1.00186,-7.8,-24.3,12.8,32.120827,-27.334713,-150.559967,0.17404384633855785,-0.151305,-0.31769001,-0.91972202
6.0736,6522.3003,10.15412,3.95774,7.75506,-0.48613,-0.36328,0.59319,-8.5,-23.9,13.1,30.452353,-29.521421,-149.388046,0.18176715077648067,-0.17008001,-0.30985001,-0.91762
6.0912,6522.3203,11.07113,4.83883,8.58108,-0.40549,0.1584,-0.16856,-7.8,-24.3,11.0,29.345043,-30.820452,-148.762604,0.18626993497255387,-0.18182699,-0.30438101,-0.91629398
6.1272,6522.3403,10.89395,5.85879,9.80216,-0.23751,-0.13665,-0.75132,-7.7,-24.0,10.9,28.789955,-31.282373,-149.018875,0.18452670829936713,-0.187723,-0.30045,-0.91675502
6.1368,6522.3603,10.6641,6.15329,10.44383,0.30861,-0.8312,-0.87411,-7.8,-24.5,10.5,28.833689,-32.029469,-149.641312,0.1774636632416891,-0.195213,-0.300926,-0.91642898
6.1599,6522.3803,10.43904,6.50285,10.2044,0.48698,-1.08593,-1.03415,-7.2,-24.4,11.3,29.490471,-33.322834,-150.118515,0.16835768085068112,-0.205034,-0.30707899,-0.91395801
6.1728,6522.4003,9.99849,7.12297,10.17567,0.63237,-1.51842,-1.15327,-7.3,-24.2,12.8,30.566158,-34.433369,-150.871536,0.15619517201943162,-0.21303099,-0.315485,-0.91142201
6.191,6522.4203,9.64893,7.3193,9.55555,0.91642,-1.87273,-1.26689,-7.2,-24.2,12.4,32.016174,-35.903145,-151.599442,0.14192354744389565,-0.22285201,-0.32700801,-0.90733701
6.2112,6522.4403,9.47175,7.71675,8.64094,0.89382,-2.21725,-1.46542,-7.7,-24.2,12.0,33.760834,-37.784985,-152.237,0.12593993178320773,-0.234881,-0.34104401,-0.90147603
6.2375,6522.4603,9.3257,8.06871,7.97772,0.79425,-2.45488,-1.82461,-7.7,-24.3,11.7,35.646763,-39.873238,-153.078842,0.10682731364880292,-0.24871901,-0.35539901,-0.89466101
6.2512,6522.4802,8.83727,7.9442,7.47493,0.78814,-2.51658,-2.26382,-7.7,-24.3,11.6,37.787773,-41.928616,-154.325027,0.0833506256575184,-0.26286301,-0.37003499,-0.88714701
6.2773,6522.5002,7.83886,7.60901,6.73031,0.67024,-2.1409,-2.51672,-7.5,-24.3,11.5,40.211716,-43.628551,-155.89537,0.0571235019124258,-0.27462399,-0.384969,-0.87927097
6.2997,6522.5202,6.63693,7.42704,6.23469,0.48454,-2.01078,-2.61507,-6.5,-24.1,11.5,42.484127,-44.722416,-157.729355,0.031260487580002924,-0.28321099,-0.397239,-0.87236202
6.3567,6522.5402,5.78217,7.26662,6.29934,0.567,-2.38463,-2.72869,-4.4,-23.8,12.8,44.579475,-45.53294,-159.832306,0.005080527334767197,-0.29129401,-0.40702999,-0.86570698
6.3581,6522.5602,5.31529,6.93861,6.4382,0.96651,-2.91608,-3.19356,-1.7,-23.7,13.2,47.008904,-46.658485,-162.077988,0.02487846250754192,0.301682,0.418311,0.85637897
6.3595,6522.5802,4.76221,6.47172,5.98329,1.22491,-3.20197,-3.68409,0.7,-22.4,14.1,50.107586,-48.063328,-164.515137,0.05943998584824256,0.31345701,0.43293899,0.84307498
6.3713,6522.6002,4.04154,5.8133,5.16445,1.13877,-2.91547,-4.16606,3.2,-21.7,14.0,53.699085,-49.050079,-167.519226,0.09813679311205764,0.32348299,0.44872299,0.82726997
6.3911,6522.6202,3.05988,4.97051,4.02956,0.70873,-1.97352,-4.44339,8.3,-20.5,15.4,57.437862,-48.393738,-171.727646,0.13875006754326077,0.32690501,0.46308199,0.81205702
6.4138,6522.6402,2.03274,4.33124,3.3448,0.26402,-0.96376,-4.6969,10.6,-18.7,14.9,60.849785,-44.888809,-177.831696,0.178231877954141,0.32029799,0.47419399,0.80048901
6.431,6522.6602,0.93137,3.7638,2.93059,0.06854,-0.43475,-4.92659,11.3,-16.7,16.3,63.780708,-38.19091,173.740891,0.21637827196412213,0.30460501,0.483318,0.79170698
6.4509,6522.6802,-0.24422,3.21072,2.593,-0.00232,-0.39138,-5.05548,14.2,-15.4,13.5,66.080353,-28.760721,162.981232,0.25407954112741915,0.28405401,0.49152401,0.78304601
6.4768,6522.7002,-1.58022,2.65764,2.36794,0.07404,-0.70414,-5.09946,16.6,-13.5,14.4,67.514969,-17.285845,149.966614,0.29362397010376984,0.26301399,0.49823701,0.77224898
6.4948,6522.7202,-3.27537,2.16921,1.8819,0.02028,-1.01385,-4.80808,16.8,-11.3,14.9,68.345535,-4.430166,135.200714,0.33510999874321845,0.24344499,0.50673801,0.75607699
6.5313,6522.7402,-5.31768,2.01598,1.47248,-0.254,-1.34066,-4.08787,18.5,-8.7,13.9,68.139984,7.717212,120.919334,0.37468378863841784,0.22707701,0.51376498,0.73762703
6.5435,6522.7602,-6.78059,2.1309,1.31925,-0.535,-1.63693,-3.16729,19.1,-7.5,13.0,66.844139,16.334547,109.904297,0.41037561815741347,0.216024,0.51444602,0.72129798
6.5618,6522.7802,-7.45817,2.23625,1.09418,-0.94794,-1.43168,-2.4196,19.6,-6.5,13.0,65.062347,21.226274,102.594917,0.440858114894349,0.209315,0.509583,0.70863003
6.5757,6522.8002,-7.61619,2.35836,1.10376,-1.48672,-0.96742,-1.93823,19.7,-6.2,11.5,62.381577,25.633827,96.542915,0.46945934894855323,0.194493,0.50318599,0.69898802
6.5961,6522.8202,-7.6521,2.5092,1.56586,-1.8056,-0.68032,-1.6945,21.3,-4.9,12.1,58.902798,29.811607,91.561188,0.4962052416292474,0.170838,0.49673399,0.69126701
6.617,6522.8402,-8.09983,2.64807,1.83401,-1.84652,-0.63511,-1.49108,21.1,-4.8,9.0,55.254391,32.856945,88.167847,0.5191966668504332,0.145172,0.489434,0.68542999
6.6445,6522.8602,-8.71756,2.83243,1.72148,-2.03162,-0.63817,-1.07325,20.9,-4.2,8.7,51.733486,34.935398,85.843414,0.5393506692860216,0.120814,0.48119199,0.68041098
6.6534,6522.8802,-9.01205,3.03355,1.89148,-2.48549,-0.48362,-0.75804,21.5,-3.8,8.5,48.281216,36.067501,84.814156,0.5553111390352798,0.096624,0.470855,0.67866701
6.6745,6522.9001,-9.19641,3.28973,2.21949,-3.00228,-0.29058,-0.61021,21.4,-4.5,7.8,44.686047,36.642506,84.810646,0.567750830765239,0.070401,0.45805201,0.68036097
6.691,6522.9201,-9.28979,3.5986,3.07904,-3.7622,-0.00409,-0.53447,21.7,-4.9,7.1,40.793301,36.937252,85.646553,0.5770143575918186,0.040625,0.44248,0.68528497
6.7171,6522.9401,-9.79977,3.95534,4.81728,-4.08962,0.0344,-0.40924,21.7,-5.1,6.4,36.416435,37.04871,87.304047,0.5831777486055516,0.006048,0.42288199,0.693569
6.7315,6522.9601,-10.39594,4.4749,6.99607,-4.0884,-0.10061,0.08129,22.3,-4.9,7.2,32.086479,36.867966,89.50486,0.5859514201572683,-0.027767,0.40040201,0.70396602
6.7513,6522.9801,-10.49889,5.19079,9.38316,-3.75914,0.04906,0.65245,21.3,-5.1,3.9,28.279617,36.335068,92.250153,0.5836768315116335,-0.057078,0.37687299,0.716959
6.773,6523.0001,-10.1613,6.07906,11.85884,-3.17577,0.42901,1.12342,21.7,-4.7,5.3,25.272802,35.883911,95.322769,0.5754232015375806,-0.082017,0.35629299,0.73158503
6.7927,6523.0201,-9.71357,6.97931,13.94186,-2.25703,0.66298,1.54431,21.6,-5.0,4.6,23.256317,35.76123,98.38649,0.5623372522824528,-0.102272,0.34172699,0.74601603
6.8197,6523.0401,-9.04557,7.71196,15.49335,-1.17335,0.57257,1.84241,21.7,-5.6,4.2,22.474976,35.42057,101.323097,0.5464307392962434,-0.113088,0.332715,0.76021397
6.8344,6523.0601,-8.16448,7.92984,16.18051,-0.02615,0.54386,1.99879,21.2,-5.9,4.2,22.897566,35.066151,103.713837,0.5301877990767797,-0.115317,0.331218,0.77194399
6.852,6523.0801,-7.34085,7.75027,15.76391,0.91092,0.82424,2.03667,21.2,-6.0,4.2,24.437344,34.989864,105.41497,0.5141517036109284,-0.111443,0.33860099,0.780114
6.8735,6523.1001,-6.82847,7.38155,14.30579,1.38495,1.12479,2.04339,21.4,-6.0,4.5,26.77836,35.458878,106.513603,0.49782242096811935,-0.10544,0.35396799,0.78470498
6.8937,6523.1201,-6.59862,6.89312,12.546,1.46925,1.2604,2.11608,21.1,-6.4,4.5,29.473055,36.292194,107.312584,0.4808174418370864,-0.099355,0.3732,0.78718799
6.9183,6523.1401,-6.07188,6.29215,11.15014,1.49552,1.27018,2.20099,20.9,-7.0,4.6,32.295891,37.161079,108.128334,0.46258894818782625,-0.0931,0.39307201,0.78920102
6.9321,6523.1601,-5.55472,5.68161,9.78301,1.60792,1.26407,2.10508,20.5,-8.7,6.0,35.20713,38.009609,108.898911,0.4438577557568186,-0.086287,0.41311699,0.79049301
6.9539,6523.1801,-5.38951,5.186,8.1118,1.55661,1.30988,2.06904,20.0,-9.5,6.7,38.139904,38.931446,109.54879,0.4250424430723593,-0.079602,0.433305,0.79072702
6.9751,6523.2001,-5.41585,4.8532,6.42863,1.22307,1.20787,2.16006,18.7,-11.7,8.0,40.550545,39.474674,110.542664,0.40681783330382537,-0.074535,0.44853699,0.79231203
6.9991,6523.2201,-5.48049,4.58982,5.37994,0.75393,0.8218,2.25902,18.1,-12.8,8.8,42.51717,39.411915,112.159531,0.388156564793177,-0.070286,0.45861501,0.79628301
7.0217,6523.2401,-5.20755,4.37913,5.54275,0.48637,0.61533,2.37142,17.0,-14.3,8.4,44.115791,38.608406,114.3396,0.3698986435207349,-0.065297,0.46392801,0.80229801
7.045,6523.2601,-4.65926,4.12294,5.70077,0.68857,0.55424,2.4264,15.3,-15.6,9.8,45.59201,37.471478,116.832542,0.3512328133574366,-0.060081,0.467659,0.80890101
7.0655,6523.2801,-4.3073,3.84042,5.08305,0.72155,0.56218,2.55163,15.6,-15.9,12.3,47.204292,36.319607,119.321289,0.33211467242956894,-0.054316,0.47260001,0.814493
7.0814,6523.3,-4.42223,3.5986,4.1397,0.29028,0.41008,2.91876,14.4,-17.3,12.3,48.760387,34.914566,122.145493,0.31189012319722403,-0.048683,0.47681499,0.82036698
7.0933,6523.32,-4.55391,3.33522,3.59381,-0.03225,-0.30891,3.47403,13.7,-17.9,13.3,50.074444,32.338928,126.141602,0.2890266432086478,-0.040869,0.476661,0.82920903
7.1246,6523.34,-4.1828,3.13411,3.39987,-0.14893,-0.88618,4.0122,12.1,-19.0,12.9,51.25539,28.116901,131.253189,0.26523940302831983,-0.026348,0.47255701,0.84002602
7.1353,6523.36,-3.01679,2.37751,4.01759,-0.19474,-0.87396,4.38361,10.3,-19.9,12.8,52.282574,22.666082,137.43251,0.23882980357585118,-0.00757,0.466566,0.85159802
7.1504,6523.38,-1.87472,1.38629,4.6856,0.04166,-0.10488,4.76235,8.9,-20.4,13.5,53.007736,17.084164,144.390335,0.20749760826558825,0.008382,0.46081701,0.86285698
7.1733,6523.4,-0.5435,1.03672,4.89869,0.19071,-0.16719,4.86742,7.8,-21.3,13.6,53.422825,11.311942,152.100998,0.17129983776944904,0.02239,0.45534,0.87339598
7.1926,6523.42,1.01517,0.89785,4.71672,0.39413,-0.35045,4.83993,5.0,-23.0,13.7,53.511314,4.847202,160.36142,0.13339284625121386,0.0395,0.449635,0.882312
7.2166,6523.44,2.59779,0.80926,4.15407,0.23286,0.03501,4.54121,2.7,-23.6,13.8,53.649288,-2.474567,169.312302,0.09279728732037326,0.061203,0.44740099,0.887398
7.2311,6523.46,3.98886,0.81405,3.55789,-0.34502,0.63549,4.0623,0.6,-24.7,14.4,53.256222,-9.116284,177.850845,0.052341637069923425,0.079408,0.44536999,0.89028102
7.2527,6523.48,5.51401,0.84278,3.29213,-1.15075,1.58355,3.6127,-0.9,-24.9,12.3,51.736271,-13.758536,-175.035538,0.01356016753876896,0.088915,0.43742201,0.89474702
7.272,6523.5,6.8572,0.9625,3.76859,-1.68648,2.15349,3.02871,-2.7,-24.9,12.8,49.252907,-15.932205,-169.562775,0.024395765273500944,-0.087924,-0.42242801,-0.90179199
7.2918,6523.52,7.6928,1.32643,4.67123,-1.66082,1.92808,2.36165,-4.6,-25.6,11.7,45.752117,-17.241558,-165.049194,0.060742911393997116,-0.086927,-0.399048,-0.91077697
7.3209,6523.54,7.9035,1.506,5.20755,-1.44885,1.20909,1.92732,-5.6,-25.4,11.4,42.140045,-18.793217,-161.225082,0.09225729287107555,-0.092459,-0.37478501,-0.91786498
7.3362,6523.56,7.83167,1.64966,5.62176,-1.32118,0.31539,1.8754,-7.3,-25.2,10.8,38.900818,-20.661655,-158.159409,0.11710534706878259,-0.103975,-0.35369501,-0.922158
7.3511,6523.58,8.4063,2.17161,6.27779,-1.13487,-0.46468,2.03483,-8.1,-25.6,9.7,35.818043,-23.234552,-155.323898,0.13867341754900042,-0.122829,-0.335195,-0.92375702
7.3738,6523.6,9.67048,2.77975,6.46694,-0.90457,-1.00774,1.78499,-7.9,-23.9,10.2,32.959602,-26.36968,-152.668762,0.15770681575588233,-0.147278,-0.32005501,-0.92249799
7.3914,6523.62,10.42467,3.31368,6.28018,-1.20145,-1.3822,1.30546,-9.8,-25.0,8.8,30.432734,-29.57583,-150.693527,0.17120747438893993,-0.174087,-0.30782199,-0.91957998
7.4156,6523.64,10.93465,4.03196,6.63693,-1.56003,-1.6687,1.14114,-9.9,-25.2,8.0,27.876947,-32.593277,-149.668121,0.17847578864221275,-0.20237701,-0.29440001,-0.916798
7.4338,6523.66,12.40474,4.74785,7.59943,-1.68281,-1.89105,0.89679,-9.4,-24.3,6.8,25.229563,-35.562637,-149.238724,0.18215878957903647,-0.232182,-0.27955601,-0.91365099
7.4512,6523.68,13.88919,5.12854,8.45897,-1.491,-1.76766,-0.18627,-9.1,-24.4,5.8,22.959257,-38.356403,-149.450577,0.18078333642396274,-0.261042,-0.26614699,-0.91013199
7.4758,6523.6999,14.25312,5.2698,8.91149,-1.26559,-1.60089,-1.0818,-9.6,-25.0,5.7,21.852222,-40.332634,-150.803513,0.16907086558582127,-0.28272599,-0.257494,-0.90839303
7.4947,6523.7199,13.55399,5.24586,8.98811,-1.12509,-1.65953,-1.57538,-9.1,-24.9,6.1,21.713093,-41.373955,-152.962265,0.15008878227602251,-0.29613599,-0.25242701,-0.90887702
7.518,6523.7399,12.69205,5.25304,9.06951,-1.0017,-1.75544,-1.7959,-7.8,-25.5,6.8,22.034836,-42.425713,-155.369171,0.12762119775593503,-0.308992,-0.24981301,-0.90875202
7.5493,6523.7599,12.37601,5.41824,9.16768,-0.80072,-1.35288,-2.08179,-8.3,-25.3,6.4,22.678127,-43.406952,-157.836411,0.1037519379892236,-0.320712,-0.248963,-0.90796298
7.5553,6523.7799,12.45502,5.67443,9.19402,-0.55638,-1.05722,-2.76412,-7.8,-25.3,6.8,23.819321,-43.790268,-160.405807,0.07865769939427332,-0.326978,-0.250779,-0.907749
7.5728,6523.7999,12.20601,5.7726,9.2012,-0.21612,-1.2924,-3.6902,-8.0,-25.2,5.9,25.795807,-43.719635,-163.427155,0.04816295432009088,-0.32929701,-0.25731,-0.90721297
7.5967,6523.8199,11.30577,5.47331,8.98811,0.1168,-1.77987,-4.51364,-7.6,-25.4,6.1,28.78319,-43.605049,-166.978912,0.010327203164422254,-0.33126801,-0.27007201,-0.90399998
7.6196,6523.8399,9.88357,4.75982,8.50207,0.40451,-2.17816,-5.06831,-5.4,-25.4,5.3,32.633289,-43.572762,-171.033142,0.034324425829121534,0.33471599,0.287925,0.89659703
7.6367,6523.8599,8.3632,3.90506,7.93463,0.54013,-2.27223,-5.39084,-3.5,-25.7,5.3,37.072014,-43.378304,-175.551163,0.08321707129862119,0.33866999,0.308772,0.88489401
7.6522,6523.8799,6.89791,3.17481,7.36958,0.59694,-1.97108,-5.65596,-0.1,-25.8,5.1,41.517559,-42.653538,179.482803,0.13283436441636517,0.34156299,0.32862499,0.87045699
7.6756,6523.8999,5.40627,2.48286,6.40469,0.53646,-1.46345,-5.80745,2.9,-25.4,5.5,45.369267,-40.973515,173.907043,0.18072504100157144,0.34165999,0.343595,0.85589099
7.6949,6523.9199,3.70873,1.86035,5.03755,0.15467,-0.96742,-5.80135,6.7,-23.8,4.0,48.834354,-37.763237,167.373688,0.22770560359521175,0.33589301,0.356359,0.84162599
7.7223,6523.9399,1.69754,1.46769,3.69915,-0.42138,-0.49461,-5.52523,10.1,-21.8,4.2,51.37434,-32.923172,159.60141,0.27392404273261495,0.32494,0.36390299,0.82882702
7.7357,6523.9599,-0.37111,1.13728,2.8875,-0.79645,-0.04502,-4.87466,12.4,-20.5,4.2,52.593063,-26.89814,151.175461,0.31681681823984603,0.309192,0.36541101,0.81884199
7.7537,6523.9799,-1.9226,0.95771,2.70792,-0.75857,-0.13604,-3.99257,14.6,-18.6,4.8,52.607605,-20.860884,143.281052,0.35384100778982497,0.29130501,0.362506,0.81149697
7.7746,6523.9999,-2.73666,1.13489,2.60737,-0.32975,-0.90939,-3.30779,15.6,-16.9,4.2,52.87191,-15.639171,136.266449,0.3866174280497448,0.277334,0.363951,0.80071998
7.7929,6524.0199,-2.79172,1.67599,1.75261,-0.45375,-1.89533,-2.98037,17.9,-15.3,4.9,53.421146,-12.137693,130.266983,0.4166434674875871,0.273637,0.365814,0.78594601
7.8177,6524.0399,-2.46371,2.14288,0.89306,-1.66998,-1.87212,-3.01152,18.1,-14.9,1.9,53.274723,-9.69575,124.472092,0.4484263941171159,0.274948,0.36011899,0.77047497
7.8335,6524.0599,-2.64807,2.08302,1.40544,-3.64674,-0.25332,-3.05612,19.8,-12.8,0.0,51.403404,-6.609902,118.303864,0.48272976360680253,0.266606,0.34507799,0.75948298
7.8555,6524.0799,-3.47649,1.98246,4.3504,-4.14399,0.43512,-2.85698,20.3,-12.0,-0.9,47.248119,-2.186917,112.477524,0.5154250053625841,0.237196,0.323378,0.75729901
7.8746,6524.0999,-4.63532,2.0064,6.88593,-3.50502,0.64465,-2.50084,20.5,-10.6,-0.6,42.678886,1.576907,107.952133,0.5437003941929963,0.20362701,0.301817,0.75619602
7.892,6524.1198,-6.32089,2.5092,8.87558,-3.17516,0.23109,-1.87837,21.0,-8.4,-1.3,38.392059,5.026847,104.280983,0.567661944717822,0.16890199,0.28476301,0.75375199
7.9159,6524.1398,-7.45817,3.10537,11.29379,-2.41952,-0.35473,-0.93703,20.3,-8.0,-2.7,34.166557,7.591077,101.599319,0.5877532755313915,0.136225,0.26714101,0.75141501
7.9381,6524.1598,-7.74787,3.66324,12.74473,-1.37738,-0.55631,-0.24064,20.4,-7.8,-4.7,31.072187,8.595215,100.339333,0.5999641132657014,0.115632,0.25135699,0.75066102
7.9545,6524.1798,-8.0711,4.20914,12.48375,-0.97665,-0.01753,0.37389,20.5,-7.2,-3.6,29.164162,9.124666,99.881241,0.6055487619501009,0.102599,0.24163,0.75126499
7.973,6524.1998,-8.97853,4.67602,11.7942,-1.25154,0.19689,1.05562,20.8,-7.8,-3.5,27.664911,9.840495,100.260643,0.6044205960708317,0.088779,0.23620901,0.75564498
7.9915,6524.2198,-9.8285,4.97051,11.92109,-1.38899,0.20788,1.98047,20.3,-7.8,-5.0,26.081554,10.236949,101.653091,0.5973191327490187,0.074585,0.229132,0.76494801
8.0141,6524.2398,-9.64414,4.83404,12.38319,-1.19107,0.6025,3.11179,20.3,-9.2,-4.7,24.833153,9.967872,104.430229,0.5813423688539135,0.064189,0.221274,0.78035802
8.0356,6524.2598,-8.98332,4.37673,12.54839,-0.84165,0.89449,4.17531,19.9,-10.7,-4.6,24.197531,9.007514,108.787468,0.554140791117113,0.059228,0.214587,0.80210501
8.0529,6524.2799,-8.21955,3.80211,12.07433,-0.42504,0.44306,5.28708,19.1,-11.9,-4.4,24.106768,7.652633,114.394394,0.5169117734069516,0.058023,0.21048801,0.82772601
8.0753,6524.2999,-5.62415,3.62972,12.20362,0.01906,-0.43292,5.95476,18.4,-12.6,-3.9,24.444757,4.988793,121.243439,0.47097085294998836,0.066694,0.205173,0.85536098
8.1157,6524.3199,-1.81965,3.3017,12.78303,0.54685,0.02218,5.48317,16.9,-14.1,-4.6,24.964973,1.548802,128.421249,0.42211209195025434,0.082145,0.20033699,0.88030601
8.1226,6524.34,0.11493,2.77736,12.51487,1.14305,0.76133,4.73486,16.9,-16.3,-3.3,25.58634,-0.309715,134.567429,0.37713347674622977,0.087941,0.203237,0.89929497
8.135,6524.36,0.14605,2.4254,11.05676,1.37762,0.79065,5.07511,15.2,-18.3,-3.2,26.53614,-1.117641,140.05806,0.3345173152583877,0.087305,0.21245401,0.91396898
8.1559,6524.38,0.18436,1.93218,9.05275,1.05447,0.23781,5.8558,12.0,-20.1,-3.7,27.350193,-2.770472,146.401794,0.2862164527259038,0.090795,0.21947201,0.92826098
8.2082,6524.4001,1.18038,1.03672,7.54436,0.5499,-0.02913,6.37198,8.4,-22.5,-4.5,27.37669,-5.589987,153.811295,0.23110195673840475,0.099694,0.21947999,0.94259298
8.2084,6524.4201,2.61934,0.33041,6.90269,0.16689,0.01057,6.2498,5.7,-23.7,-2.9,26.400251,-8.702295,161.716904,0.17134036185785284,0.109101,0.21306799,0.95568901
8.2149,6524.4401,3.31846,-0.11971,7.05353,0.16261,-0.50439,6.06716,2.7,-24.4,-3.1,24.714468,-11.676543,169.237076,0.11281637845454769,0.118893,0.202639,0.96543998
8.2328,6524.4601,3.81647,-0.78532,7.51563,0.64703,-1.39564,6.27179,-0.2,-25.1,-2.9,22.738583,-15.196224,176.591003,0.05497371201710646,0.13538399,0.191459,0.97056299
8.2533,6524.4802,4.84122,-1.27375,7.64253,1.67267,-2.26734,6.32494,-3.7,-24.8,-1.1,20.829348,-19.748371,-175.780182,0.004762345283537732,-0.161989,-0.184182,-0.96943998
8.2741,6524.5002,6.09103,-1.34798,6.9003,2.25055,-2.73282,6.07815,-7.4,-24.5,2.3,19.306829,-25.013731,-167.886459,0.06544401326935592,-0.195025,-0.185321,-0.96090502
8.2953,6524.5202,7.10142,-1.65923,5.53077,2.22734,-1.87945,5.92421,-9.5,-23.3,0.8,17.57646,-30.300394,-160.186493,0.12478762481488166,-0.229059,-0.18971001,-0.94655699
8.313,6524.5402,7.51323,-2.05189,3.96492,1.48575,-1.46222,5.81731,-13.5,-22.1,3.5,15.11799,-34.38879,-152.924103,0.1838783016824429,-0.25548601,-0.19077501,-0.92979598
8.3332,6524.5603,7.75745,-2.1309,3.09101,0.45522,-1.5172,5.79349,-14.3,-20.0,5.3,11.534511,-37.75705,-146.470001,0.2404193273251113,-0.28081599,-0.183899,-0.91078103
8.3523,6524.5803,8.26743,-2.23865,3.56747,-0.17642,-1.63021,5.68903,-17.5,-19.3,3.5,6.832932,-40.807396,-141.02507,0.29253064452655186,-0.30944401,-0.168752,-0.888928
8.374,6524.6003,8.72713,-2.35836,4.68081,-0.16237,-2.13357,5.30541,-19.7,-16.6,6.8,1.776524,-43.640388,-136.397766,0.3393887414991251,-0.33972499,-0.151388,-0.86399299
8.4043,6524.6204,9.11261,-2.44934,5.41346,0.3251,-2.42006,4.97187,-19.6,-14.1,7.8,-2.90487,-46.565559,-132.187012,0.3812853600872445,-0.37067801,-0.138844,-0.83542901
8.4152,6524.6404,9.16289,-2.49723,5.30332,0.67757,-2.72305,4.60963,-20.5,-12.4,6.3,-6.987333,-49.487518,-128.116226,0.419494038232988,-0.39989701,-0.13299599,-0.80400199
8.434,6524.6604,9.37359,-2.96411,4.58504,0.60366,-2.68029,4.40194,-21.6,-11.0,9.0,-10.644117,-52.225609,-124.205025,0.45440328834461474,-0.42628199,-0.131442,-0.77105403
8.4535,6524.6804,9.48133,-3.24185,3.94816,0.31655,-2.53307,4.10567,-22.1,-8.6,11.7,-14.268197,-54.635559,-120.732025,0.48545290375151634,-0.45037001,-0.129253,-0.73810297
8.474,6524.7005,9.79977,-3.21072,3.56029,0.17727,-2.74871,3.8094,-21.2,-6.4,11.8,-17.870794,-56.924648,-117.802216,0.5119598700605544,-0.47366199,-0.126252,-0.70540899
8.4925,6524.7205,10.02243,-3.10298,3.23227,0.25607,-3.08468,3.36224,-21.4,-1.9,8.9,-21.202467,-59.502316,-115.26178,0.5339785494300494,-0.49748501,-0.12623,-0.67189401
8.5173,6524.7405,9.89075,-3.52677,2.74863,0.36603,-3.10851,2.83018,-20.2,-0.2,10.8,-24.018099,-62.408714,-113.020195,0.5515324675967318,-0.520823,-0.131202,-0.63823301
8.5323,6524.7606,9.36401,-4.13252,2.12851,0.32021,-2.58072,2.8479,-21.0,1.7,12.9,-26.381844,-65.195313,-110.9991,0.5659140050812832,-0.54116303,-0.138658,-0.60634798
8.5546,6524.7806,8.54756,-4.07745,1.35037,0.20904,-2.28078,2.83018,-18.8,3.6,14.2,-28.824331,-67.346527,-109.175766,0.5795258543913628,-0.55768901,-0.142355,-0.57694697
8.5766,6524.8006,7.9059,-4.5563,0.30168,0.05143,-2.81896,3.11545,-18.8,4.8,13.3,-31.457117,-69.521576,-107.516403,0.5921588221003212,-0.574287,-0.144832,-0.54641199
8.5943,6524.8206,7.78139,-5.61457,-0.49561,-0.21002,-3.15676,2.92303,-17.9,6.3,15.4,-34.390896,-72.404732,-106.17514,0.6025901133154605,-0.59441501,-0.148139,-0.51147902
8.6191,6524.8407,7.6521,-6.79495,-0.9218,-0.35296,-2.81285,2.63898,-15.7,7.7,16.1,-37.242733,-75.810577,-105.451736,0.6089455735926648,-0.61586702,-0.152109,-0.47618899
8.637,6524.8607,7.2786,-7.37437,-1.13728,-0.45375,-2.3602,2.27979,-15.5,7.0,17.0,-39.865513,-79.061058,-105.249901,0.6125833371084782,-0.63511902,-0.154265,-0.44448599
8.6733,6524.8807,6.73031,-7.64971,-1.19235,-0.55699,-2.16838,2.30178,-15.5,7.9,16.2,-42.329601,-82.094452,-105.532005,0.6143145215475371,-0.65232098,-0.153743,-0.41648301
8.675,6524.9007,6.62496,-7.72393,-1.20911,-0.47819,-2.60332,2.31094,-13.5,9.0,19.4,-44.895084,-85.194572,-106.096558,0.6155218490340364,-0.66887897,-0.15142301,-0.388336
8.6976,6524.9207,6.4837,-7.70478,-1.36953,-0.26744,-3.6479,2.2297,-12.0,8.9,20.0,-47.415966,-89.031357,-106.612114,0.6161591038400388,-0.686046,-0.15369201,-0.35506001
8.7156,6524.9406,6.024,-7.80294,-1.56825,0.0215,-4.53243,2.37692,-9.9,9.4,20.9,-49.882889,-93.926025,-107.024094,0.6157891485326125,-0.70397401,-0.162725,-0.314237
8.732,6524.9606,5.46613,-8.35123,-2.02316,0.40696,-5.05656,2.47527,-8.0,10.0,21.6,-52.529491,-99.563942,-107.246857,0.6154797639224859,-0.72079003,-0.17606799,-0.26579401
8.7544,6524.9806,5.19797,-8.87079,-2.69356,0.65619,-5.08832,2.32561,-6.0,12.0,22.5,-55.26408,-105.416199,-107.231674,0.6154571615563507,-0.73411,-0.191875,-0.213258
8.7785,6525.0006,4.79573,-9.05036,-3.22988,0.72827,-5.18667,2.04766,-4.4,12.2,22.1,-57.825985,-111.264809,-107.22731,0.6144110180810236,-0.74358201,-0.208919,-0.161052
8.7935,6525.0206,4.07266,-9.33528,-3.21791,0.88343,-5.18972,1.93221,-0.8,12.6,22.0,-60.119381,-117.309944,-107.382591,0.6113303762720446,-0.74995202,-0.227723,-0.109496
8.8166,6525.0406,3.11974,-9.37119,-3.10059,1.51812,-5.56541,1.88273,1.5,13.6,21.4,-62.469151,-123.333694,-107.276665,0.6081482642311823,-0.751984,-0.24803001,-0.056186
8.835,6525.0606,2.04711,-9.17726,-3.33044,1.72215,-5.98751,1.82347,4.6,15.2,21.5,-65.123894,-129.116608,-106.476707,0.6060558337020274,-0.74809998,-0.27026299,0.000814
8.8522,6525.0806,1.06545,-9.23951,-3.94576,1.58104,-6.62343,1.8754,8.2,15.5,20.5,-67.851685,-135.876801,-106.125717,0.6007292203506996,-0.74063802,-0.29456601,0.06173
8.8742,6525.1006,0.14126,-9.09824,-4.91066,0.96346,-6.61915,1.99268,10.6,14.9,16.9,-70.360687,-144.906036,-107.632408,0.5888727258088792,-0.73155302,-0.31988499,0.12543
8.8921,6525.1206,-0.91222,-9.66569,-5.93301,0.14917,-6.66252,1.87601,14.5,15.6,15.4,-72.021782,-157.000305,-112.215805,0.5681738376173439,-0.72334599,-0.344715,0.18740501
8.9233,6525.1406,-1.86035,-10.45819,-5.87076,-0.13121,-5.66376,2.09287,16.9,14.9,13.9,-72.384689,-170.600388,-118.68409,0.5399757855854092,-0.71657199,-0.368512,0.24320699
8.939,6525.1606,-1.84359,-10.83409,-4.37434,-0.15015,-5.52875,2.49298,18.2,14.0,11.8,-71.996704,175.396622,-126.624222,0.5101344378376546,-0.711658,-0.38415501,0.29279801
8.9527,6525.1806,-1.35037,-10.80776,-3.13171,0.24325,-5.68636,2.17961,21.4,13.1,9.5,-71.132431,161.235016,-134.715668,0.4785844188218414,-0.70420098,-0.396478,0.343312
8.9753,6525.2006,-1.13728,-10.44383,-3.07904,0.6513,-5.67842,1.64083,22.7,13.0,9.1,-70.464287,148.916489,-140.885986,0.4504765725002797,-0.68981099,-0.40908101,0.392281
8.9949,6525.2206,-1.06306,-10.15651,-3.77098,0.48942,-6.01134,0.75263,22.7,11.8,3.7,-70.115334,138.546371,-144.977493,0.4251644713900956,-0.66894698,-0.424227,0.43792301
9.0145,6525.2406,-2.07344,-9.89793,-4.36237,0.00012,-5.8519,0.37023,23.9,11.4,2.1,-70.041176,130.900787,-145.815903,0.3989415647502268,-0.64193702,-0.44683599,0.47864401
9.0409,6525.2606,-3.96731,-9.93863,-4.43899,-0.61441,-4.84642,0.63901,24.9,12.1,0.5,-69.644928,125.615303,-144.68013,0.370188694613625,-0.61661899,-0.47016799,0.51155001
9.0642,6525.2806,-5.16924,-10.04638,-3.95055,-1.00414,-4.66194,1.35738,25.5,11.1,-4.0,-68.402283,122.096283,-142.763412,0.33829803945346676,-0.59896302,-0.48890901,0.53643799
9.0815,6525.3006,-4.6425,-10.0775,-3.53156,-1.04629,-5.20805,1.6677,25.2,10.2,-5.9,-66.298325,118.164078,-141.031006,0.2987699392658832,-0.58342999,-0.50445402,0.56202501
9.091,6525.3206,-3.96252,-9.84286,-3.5986,-1.01086,-5.08343,1.29446,24.7,9.8,-8.4,-64.153107,113.735138,-139.311554,0.2559583086185691,-0.56439602,-0.51884198,0.58885098
9.1173,6525.3405,-3.56508,-9.81892,-4.07984,-1.4293,-4.56603,1.00003,24.5,9.5,-10.9,-62.499763,110.402473,-136.738312,0.21615421937385026,-0.54344898,-0.53399301,0.61056697
9.1351,6525.3605,-3.27297,-10.2858,-4.17322,-2.12019,-4.44325,1.37693,24.0,8.4,-13.7,-60.912125,108.769218,-132.771881,0.17648571760717358,-0.52385402,-0.55116898,0.62501401
9.1579,6525.3805,-2.60737,-10.39115,-3.81887,-2.6999,-3.88064,1.64388,22.9,8.6,-14.4,-58.734329,108.251282,-127.763466,0.13198380039072524,-0.50755399,-0.56891203,0.63348901
9.1744,6525.4005,-1.77895,-10.77663,-3.23945,-2.9864,-3.05842,1.43741,23.5,8.3,-16.3,-56.40826,108.936646,-122.174957,0.08907285259123442,-0.49499199,-0.58715999,0.63426501
9.1941,6525.4205,-1.6329,-11.21957,-2.32724,-3.22708,-2.55567,1.5437,22.7,7.9,-18.2,-54.247318,110.430557,-116.497261,0.05121394077435731,-0.48470899,-0.60583502,0.62880701
9.213,6525.4405,-2.28414,-11.04479,-1.08221,-3.29061,-2.11829,1.38671,22.3,9.1,-19.5,-52.050777,112.219658,-111.013489,0.016491871651194923,-0.47624201,-0.624075,0.61923498
9.2336,6525.4605,-2.6768,-10.2882,-0.14366,-2.82269,-2.21542,1.33784,21.7,8.9,-20.4,-50.073765,113.659172,-106.087029,0.01502885789339452,0.46682,0.64097899,-0.609097
9.254,6525.4805,-2.6337,-9.39992,-0.02873,-1.82698,-2.60576,0.88396,20.9,9.0,-22.0,-48.623569,113.697517,-102.585747,0.04268148813922593,0.45460799,0.65281099,-0.60443997
9.2725,6525.5006,-2.75342,-8.87558,-0.66561,-1.38899,-3.10667,0.31586,20.7,9.4,-24.1,-48.155197,112.240372,-100.23304,0.0664576869055774,0.435801,0.66055,-0.60772902
9.2947,6525.5206,-3.4717,-8.89713,-1.49403,-1.52582,-2.98633,0.10694,17.7,9.8,-23.9,-48.364994,110.28051,-98.027115,0.08825657176969305,0.411484,0.66769999,-0.61405897
9.317,6525.5406,-4.54912,-9.17726,-2.06386,-2.15257,-3.24656,0.70498,17.5,10.6,-25.7,-48.457829,108.828285,-95.292198,0.11088631201045374,0.38715899,0.67610699,-0.61700201
9.3444,6525.5607,-5.5212,-9.39992,-1.87951,-2.74999,-3.36873,1.44291,15.0,11.0,-24.7,-47.486618,107.637451,-91.826859,0.14252907648237453,0.36532301,0.68477303,-0.61425602
9.3575,6525.5807,-6.4813,-9.51724,-1.32643,-2.95708,-3.54589,2.09836,14.5,11.5,-27.6,-45.5826,106.525475,-87.984825,0.18111222686058137,0.34645799,0.69246203,-0.60635102
9.3841,6525.6007,-6.88354,-9.33528,-0.56984,-2.80558,-2.92036,2.81002,12.5,12.8,-27.8,-42.904278,105.05365,-84.362282,0.2247045666781162,0.331112,0.696769,-0.595303
9.4007,6525.6207,-6.99368,-8.80135,0.1676,-2.24664,-1.9558,3.40256,11.4,13.2,-27.2,-39.623646,103.870049,-81.499977,0.2652498214515125,0.32519901,0.69754398,-0.58079302
9.4257,6525.6408,-6.76622,-8.0711,-0.0431,-1.63028,-1.39442,3.68173,11.0,12.8,-29.3,-36.0144,102.743149,-79.761749,0.30073736352142855,0.32828099,0.69385999,-0.565992
9.4433,6525.6608,-6.51961,-7.91068,-0.78293,-1.70114,-1.55874,3.35552,10.1,13.2,-29.4,-32.446854,101.540497,-78.690018,0.33240659751548224,0.33489999,0.68720901,-0.552351
9.454,6525.6808,-6.45736,-7.87716,-0.56744,-2.19594,-2.23008,3.01283,9.3,13.8,-29.9,-29.36908,100.319466,-77.124725,0.3632467119419237,0.33601999,0.68201703,-0.53851199
9.4754,6525.7009,-6.98171,-7.39352,0.46688,-2.20571,-3.15005,2.79719,8.0,14.5,-28.7,-26.665085,98.395226,-74.86869,0.39878386613166755,0.32807001,0.67646599,-0.525105
9.4992,6525.7209,-8.09504,-6.57947,1.12291,-1.61867,-3.07063,3.23274,7.0,15.3,-30.2,-24.192795,95.522476,-72.660515,0.43761395914522644,0.31538799,0.66665,-0.514395
9.5157,6525.741,-9.09346,-5.65288,0.93137,-1.11593,-1.93503,3.87781,5.7,15.3,-30.5,-21.246716,92.785645,-71.102852,0.47391291409331665,0.31034401,0.65294302,-0.50275099
9.538,6525.761,-9.33049,-4.9753,0.45012,-0.89968,-1.91976,4.22845,5.6,16.1,-28.8,-17.59667,90.898659,-69.994179,0.5054095524862778,0.31600699,0.63844699,-0.48691499
9.5539,6525.7811,-9.44302,-4.6856,-0.31365,-0.99681,-1.86295,4.23334,5.1,16.3,-28.9,-13.73776,88.938637,-68.860779,0.537013227339271,0.32284299,0.62191302,-0.469695
9.5791,6525.8012,-9.25866,-4.2666,-0.79729,-1.73718,-1.70107,4.49418,5.6,17.0,-29.4,-9.838756,87.147141,-67.266411,0.5682497261546192,0.32864401,0.60619599,-0.44901201
9.5954,6525.8212,-8.89713,-3.86197,-0.48843,-2.45495,-1.0896,4.67011,5.2,17.2,-27.7,-5.804784,85.875488,-64.602562,0.5995771668116285,0.33221599,0.59485698,-0.41986299
9.6172,6525.8413,-8.56911,-3.23467,0.02155,-2.71273,-0.56364,4.72142,5.7,18.2,-29.2,-1.76792,85.190666,-61.213547,0.6282012652460983,0.33478099,0.58823597,-0.38374901
9.6398,6525.8614,-8.45658,-2.53314,0.49561,-2.85934,-0.29425,4.68721,5.8,18.0,-28.6,2.215099,84.908188,-57.606178,0.6527013730133405,0.337652,0.58450699,-0.34398201
9.6578,6525.8815,-8.36799,-2.37033,0.97208,-3.20265,-0.55387,4.19302,6.4,18.8,-29.0,5.933928,84.348267,-53.764149,0.675849772059886,0.33737901,0.580688,-0.30365101
9.6744,6525.9016,-8.60502,-2.28893,1.53712,-3.47998,-0.39321,4.06718,6.7,19.7,-26.6,9.011968,83.302322,-49.571384,0.6981661547206364,0.331049,0.57689798,-0.26487601
9.7013,6525.9217,-8.99529,-1.89866,2.37033,-3.79641,0.49682,4.37445,7.3,20.9,-26.2,11.929111,82.312775,-44.905643,0.7181922794453584,0.32229599,0.57505399,-0.22279599
9.7185,6525.9418,-9.12458,-1.33601,2.69356,-3.68401,1.61776,4.85459,8.4,21.4,-25.2,15.158959,81.929893,-39.849567,0.7331770610402236,0.31510499,0.57702601,-0.173785
9.74,6525.9619,-9.28021,-0.63448,2.75342,-3.86116,2.41921,5.08305,10.2,22.7,-23.0,18.874258,82.45475,-34.759399,0.7403278558592804,0.31188399,0.58361298,-0.118486
9.7598,6525.982,-9.29936,-0.45012,3.05988,-4.29793,2.4858,5.00914,13.5,23.7,-19.9,22.755823,82.969383,-29.171169,0.7436511017335478,0.30656201,0.59125602,-0.058473
9.7773,6526.0021,-9.04796,-0.63927,3.91464,-4.42987,1.98794,4.64934,16.3,22.2,-17.2,26.376951,82.709854,-22.896851,0.746213244610493,0.29553801,0.59650302,0.002688
9.8004,6526.0221,-9.2443,-0.38548,4.74066,-3.94485,1.84867,4.43126,19.2,22.2,-14.8,29.461988,81.458473,-16.433781,0.7490816548428476,0.28090501,0.59701997,0.059466
9.8202,6526.0422,-9.64174,-0.02155,4.83404,-3.73898,2.02704,4.85947,20.3,20.1,-12.9,32.401726,79.896805,-10.21356,0.7492040346731453,0.267928,0.59511298,0.112909
9.8511,6526.0623,-9.77822,0.49083,4.61616,-3.77075,3.37827,5.35428,23.6,18.3,-7.5,35.683704,78.315277,-3.613266,0.7438513398774108,0.25641099,0.59329802,0.17010599
9.8571,6526.0824,-9.68724,1.28812,4.87953,-3.74326,3.93172,5.61878,24.8,15.6,-6.8,39.313614,77.643036,3.65337,0.7266046028369211,0.243127,0.598418,0.23416001
9.8749,6526.1025,-8.54756,1.45572,5.00164,-3.75548,2.68189,5.16735,27.1,12.6,-6.5,42.957802,76.157669,11.417069,0.7064009299713583,0.229711,0.59973699,0.29756701
9.904,6526.1225,-7.91308,1.52755,5.3536,-3.49891,2.10401,4.36651,26.6,10.8,-3.0,45.640419,72.855751,19.466692,0.6920135925452908,0.21503299,0.59220999,0.35237101
9.9211,6526.1426,-8.31053,1.56825,5.70556,-3.22097,1.7943,4.46974,26.8,7.8,-0.7,47.395744,68.961823,27.373013,0.6795360526174009,0.199239,0.58206397,0.39967
9.934,6526.1626,-8.38236,1.28812,5.30811,-3.22036,1.60493,5.1081,27.8,4.8,0.3,49.125568,64.365082,35.703011,0.6648319026169393,0.18638299,0.56894898,0.44671801
9.9561,6526.1827,-7.5707,1.40305,4.767,-3.4922,1.66418,5.66826,26.9,1.5,-0.8,50.881931,58.656704,45.205837,0.6459406605878434,0.175752,0.55228698,0.49684101
9.9774,6526.2028,-5.84203,2.23625,4.0966,-3.75365,1.79247,5.65971,25.9,-1.7,0.1,52.168312,51.897568,56.120697,0.6221675337169723,0.164021,0.532785,0.54967701
9.9937,6526.2228,-4.03914,3.16523,3.57944,-4.14277,1.95007,5.12764,24.6,-4.8,-0.6,52.308842,44.968483,67.631348,0.5952580540496357,0.147346,0.51186597,0.601623
10.0161,6526.2429,-3.10537,3.03355,3.91464,-4.59236,1.87127,4.41049,23.3,-7.7,-0.5,50.988842,38.631348,78.688766,0.5684912114200182,0.124846,0.488415,0.65013999
10.0395,6526.263,-2.54033,2.27935,4.24984,-5.07739,1.57378,3.82345,22.1,-10.1,-4.1,48.292274,33.413628,88.651627,0.5430616138765654,0.096989,0.46142399,0.69481301
10.0749,6526.283,-2.11654,1.66402,4.59222,-5.54043,0.89877,3.60903,20.9,-12.2,-6.8,44.39077,28.82873,97.442284,0.5209399194810271,0.068163,0.42701599,0.73595703
10.0814,6526.3031,-1.80768,1.30727,5.84921,-5.63145,1.11929,3.70311,19.4,-13.4,-5.3,39.706642,24.707928,105.568115,0.49783679069313425,0.040393,0.38590401,0.77563202
10.095,6526.3231,-1.3791,0.60575,7.47253,-5.19162,1.53407,3.70188,17.7,-13.9,-9.5,34.783829,21.808973,113.110481,0.46925829721930307,0.01113,0.34440199,0.81305599
10.1263,6526.3431,-0.88109,-0.14845,8.70079,-4.38956,1.13334,3.54001,17.4,-14.3,-10.1,30.207949,19.91028,119.881584,0.4373216657132139,-0.015904,0.305733,0.84559101
10.142,6526.3632,-0.48843,-0.82124,9.39274,-3.71577,0.67703,3.17532,15.4,-15.5,-12.2,26.184181,18.215004,125.747971,0.4065889777005018,-0.035237,0.269355,0.87229103
10.1547,6526.3832,0.27295,-1.34558,9.52921,-3.43538,0.2537,2.69212,15.6,-15.5,-13.1,22.487682,16.560001,130.818405,0.3783610105335908,-0.048142,0.23423,0.894238
10.2028,6526.4032,0.4597,-1.64487,9.8692,-3.24968,0.28913,2.10386,13.9,-16.4,-14.6,18.709682,15.011242,134.972275,0.35496419593682926,-0.057356,0.19822501,0.91182101
10.2031,6526.4233,0.15802,-2.0926,11.25788,-2.57101,0.09915,1.92793,13.7,-15.2,-15.5,15.062744,13.949973,138.408203,0.3344939381329352,-0.066355,0.16436601,0.925578
10.2144,6526.4433,-0.24661,-2.45413,13.10387,-1.35417,-0.27104,1.48872,12.8,-15.9,-17.9,12.216255,12.848998,141.189041,0.31706250603153946,-0.069807,0.136696,0.935902
10.2381,6526.4633,-0.76617,-2.75102,14.14059,0.25852,-1.12747,1.2908,12.3,-15.6,-17.3,10.755603,11.549771,143.106873,0.30448423859976714,-0.065525,0.120154,0.94263399
10.2561,6526.4833,-1.07024,-2.82285,13.214,0.89687,-2.50008,1.29874,11.5,-16.2,-18.2,10.807878,9.310941,144.508774,0.2951574148509226,-0.048349,0.114028,0.94738698
10.278,6526.5033,-0.90264,-2.95214,12.19165,0.90054,-4.01808,0.99758,10.2,-16.7,-16.2,11.156619,5.614747,145.774033,0.2879638827391031,-0.018019,0.107135,0.95145899
10.2959,6526.5233,-0.60336,-2.84679,11.86842,1.17787,-5.01441,0.46308,9.7,-16.8,-16.8,11.397336,0.562471,146.628937,0.2852309447208333,0.023831,0.096517,0.95328897
10.3181,6526.5433,-1.59698,-2.2985,11.93546,1.7753,-6.16039,0.65061,7.8,-17.3,-16.8,11.931608,-5.316512,147.081223,0.28612290518174116,0.073654,0.086499,0.95143402
10.334,6526.5633,-2.23146,-1.90824,11.43027,2.94632,-7.533,1.56019,5.1,-18.2,-17.8,13.102626,-12.427933,148.264648,0.28191554086754234,0.13444901,0.079699,0.94662303
10.3553,6526.5832,-0.81166,-1.48924,9.27781,3.87545,-8.41204,1.97436,2.2,-24.4,-13.5,15.059864,-21.048489,151.081741,0.2665501836675787,0.20751099,0.079546,0.93785
10.3772,6526.6032,1.17319,-1.45332,5.88992,3.91332,-8.5898,1.82958,0.7,-25.5,-11.2,17.111599,-30.526899,154.921539,0.24535173583583966,0.28527901,0.083582,0.92273098
10.4021,6526.6232,2.80848,-1.9657,3.1365,3.49794,-7.89952,1.96092,-2.6,-26.7,-6.4,18.366228,-39.895164,158.952957,0.22301586026092382,0.358522,0.085982,0.90240401
10.4163,6526.6432,4.74545,-2.37512,2.08781,3.28597,-7.22391,2.51009,-4.4,-27.0,-5.6,18.284279,-48.419109,163.240707,0.19568860885565073,0.421662,0.084362,0.88135701
10.4392,6526.6632,7.26423,-2.18837,1.64726,3.5749,-6.79325,3.17532,-5.4,-27.9,-2.4,16.794718,-56.554512,168.101257,0.15911566524613308,0.47946599,0.079341,0.85935998
10.4771,6526.6832,9.2443,-1.925,1.40065,4.17477,-6.38824,3.03482,-7.8,-27.7,4.5,14.28263,-64.671898,173.717484,0.11234548945702995,0.53569198,0.075798,0.83346701
10.4896,6526.7032,9.56992,-1.92021,-0.05267,4.87727,-5.93681,2.36898,-9.9,-26.9,6.3,11.818884,-72.57299,179.9021,0.06162743933184131,0.58874899,0.082487,0.80173099
10.4975,6526.7232,8.77502,-2.06865,-2.58582,4.3672,-5.37726,2.05744,-10.3,-25.9,7.4,9.552398,-79.929153,-173.865677,0.012581168578447205,0.63575202,0.097974,0.76554698
10.5148,6526.7432,7.54915,-3.02876,-4.58025,3.48755,-4.5477,2.53269,-10.0,-24.4,12.5,6.735596,-86.509796,-168.650681,0.03185595865108203,-0.67647898,-0.110215,-0.72747099
10.5353,6526.7632,7.30254,-3.04552,-5.44698,3.14424,-3.34125,3.41233,-11.4,-23.0,13.5,2.784946,-91.797798,-164.458694,0.07679370033433147,-0.70902199,-0.113822,-0.69169003
10.5565,6526.7832,8.45418,-2.52835,-6.34483,2.41548,-3.00405,4.06046,-12.2,-21.3,13.3,-2.315135,-95.94352,-161.003723,0.12526424478516837,-0.73471397,-0.109211,-0.65770602
10.5755,6526.8032,10.15651,-2.73426,-6.60341,1.39717,-3.38095,3.03421,-13.2,-18.8,15.8,-7.497101,-99.81897,-159.055405,0.1659900986501291,-0.75832802,-0.097352,-0.622823
10.5964,6526.8232,10.34087,-3.22988,-5.98569,1.2469,-4.78289,1.75261,-10.3,-16.6,19.0,-11.032567,-104.467133,-158.043808,0.19069308798905032,-0.783665,-0.092047,-0.58398002
10.6172,6526.8432,9.45499,-3.82126,-5.91146,1.63174,-5.73706,1.11365,-10.6,-16.3,20.2,-13.30071,-110.446976,-156.904526,0.2066143060545862,-0.81256503,-0.098603,-0.53602803
10.6378,6526.8632,8.48052,-4.24505,-6.09343,1.75208,-6.31005,0.86747,-7.8,-16.0,19.7,-15.191547,-116.932777,-155.40184,0.22051173368231392,-0.84018999,-0.112421,-0.48251101
10.6573,6526.8832,7.97294,-4.11336,-6.27539,1.97016,-6.63747,0.71536,-6.1,-13.9,24.3,-17.07979,-123.907104,-153.852127,0.2328458934821052,-0.86595201,-0.129418,-0.42327401
10.6909,6526.9032,7.11818,-3.98647,-6.62975,2.43625,-6.43284,0.38977,-3.0,-12.6,23.9,-19.124701,-130.857086,-152.059799,0.24560530407770093,-0.88695699,-0.149468,-0.36144799
10.6996,6526.9232,5.73189,-3.81408,-7.70956,2.80399,-6.25935,0.41971,-1.8,-11.4,27.3,-21.446611,-137.181442,-149.804443,0.26066717420879854,-0.900855,-0.172684,-0.301153
10.7147,6526.9432,4.69517,-3.85478,-9.25387,2.87974,-5.38887,0.55532,1.0,-9.6,26.6,-24.215975,-142.900406,-147.616135,0.27771013008170947,-0.908795,-0.194405,-0.24326
10.7368,6526.9632,4.03435,-4.13491,-10.621,2.38555,-4.99364,0.54554,2.7,-7.8,27.0,-26.993826,-147.987137,-145.894989,0.29311203634702443,-0.91246402,-0.212566,-0.19055299
10.7544,6526.9831,3.12213,-4.51081,-11.15732,1.77285,-4.82198,0.38977,4.7,-6.9,27.5,-29.191916,-152.921753,-144.798279,0.30203685763025595,-0.91462898,-0.228259,-0.141864
10.7744,6527.0031,1.81725,-4.85559,-11.16211,1.36174,-4.7444,0.51011,6.2,-5.5,25.8,-30.742643,-157.973694,-144.147507,0.30425827776551945,-0.91610801,-0.243136,-0.095173
10.7962,6527.0231,1.06066,-5.11178,-11.04718,1.18276,-4.52816,0.73797,8.5,-4.5,26.5,-31.991119,-163.188599,-144.08638,0.3026504374738612,-0.91705298,-0.254859,-0.049633
10.8204,6527.0431,1.15165,-5.35839,-11.14774,1.11129,-4.34368,0.54799,10.6,-4.1,25.7,-33.100342,-168.402237,-144.474823,0.2994348874151771,-0.91698301,-0.263529,-0.005777
10.8342,6527.0631,1.13728,-5.70077,-11.16929,0.94269,-4.60268,-0.01584,12.0,-3.8,24.9,-34.00367,-173.270859,-144.570282,0.29513818844788436,-0.91460103,-0.27413201,0.035356
10.856,6527.0831,0.14605,-5.97611,-11.26506,0.75271,-5.25325,-0.56012,14.0,-3.1,22.7,-34.650616,-178.176529,-143.980774,0.2878713016338361,-0.90920597,-0.290604,0.077614
10.8739,6527.1031,-1.74303,-5.86118,-11.24112,0.54135,-5.43651,-0.55157,16.3,-2.3,21.3,-35.094353,176.653183,-142.781097,0.27672421159681654,-0.90042198,-0.31248,0.122557
10.8944,6527.1231,-2.82285,-5.82048,-11.6697,0.51325,-5.14513,0.15398,18.7,-1.8,19.6,-35.413719,171.237045,-141.95575,0.2629805089109828,-0.89039898,-0.33155099,0.16764501
10.9234,6527.1431,-2.06147,-6.45018,-12.45502,-0.19841,-4.79572,0.67871,20.4,-2.3,16.7,-35.426331,165.611252,-142.122894,0.24680177728436126,-0.88156402,-0.34277299,0.21080901
10.9367,6527.1631,-1.50121,-6.68003,-12.36882,-1.65654,-4.70531,0.3745,20.7,-3.1,14.4,-34.370647,160.435745,-142.334717,0.22318723520698835,-0.87485802,-0.351421,0.24761701
10.9567,6527.1831,-2.43498,-6.37835,-11.15732,-2.16478,-4.91972,0.16681,22.7,-3.5,12.9,-32.104771,156.05159,-141.295197,0.18915212673263784,-0.86796999,-0.36565399,0.277753
10.9788,6527.2031,-3.41424,-5.37036,-10.03919,-2.0139,-4.86658,0.12771,23.7,-3.4,9.9,-29.789917,151.758911,-139.68779,0.1527792099535126,-0.85819298,-0.38180801,0.30722299
11.003,6527.2231,-3.68239,-4.30969,-9.16289,-1.74146,-3.45242,-0.24125,23.5,-4.0,7.4,-27.848589,147.941269,-137.923996,0.1196563408175239,-0.84684002,-0.396909,0.33317801
11.0163,6527.2431,-3.64648,-4.48448,-8.69601,-1.35478,-2.89776,-0.32738,25.8,-3.9,7.9,-26.569702,145.721222,-135.904007,0.09587878079116297,-0.83658499,-0.411879,0.34826499
11.0343,6527.2631,-3.5555,-5.12614,-8.84445,-1.64066,-2.61493,-0.26813,26.1,-4.7,5.4,-25.55279,143.882294,-134.120132,0.07580282913295375,-0.82714999,-0.42452201,0.360358
11.0568,6527.2831,-3.95055,-5.00164,-8.57629,-2.0927,-2.6021,-0.29623,26.0,-4.1,3.6,-24.275045,142.366165,-132.021805,0.053647050520410446,-0.81788898,-0.43819001,0.36901101
11.0767,6527.3031,-4.59461,-4.32167,-7.75506,-1.87951,-2.36447,-0.20032,25.3,-3.5,1.7,-22.8083,141.013077,-129.658463,0.02959850303747971,-0.80825901,-0.45273799,0.37532601
11.1047,6527.3231,-5.57387,-4.28815,-8.45658,-2.14402,-2.48298,-0.01828,25.1,-3.1,0.1,-21.492464,139.527481,-127.575066,0.006992890092049072,-0.79853398,-0.46503001,0.38215399
11.1237,6527.3431,-5.79415,-4.70714,-8.92825,-2.83613,-2.54407,0.16803,24.9,-3.7,-1.6,-19.748232,137.940002,-125.339706,0.020146202673939285,0.78866702,0.47685701,-0.387564
11.1347,6527.3631,-5.13093,-4.87714,-8.18363,-3.26434,-2.44266,0.03792,24.7,-3.3,-3.1,-17.443903,136.358047,-122.635162,0.05284177870056904,0.777964,0.48986199,-0.389891
11.1572,6527.383,-5.10459,-4.66165,-7.12536,-3.13423,-2.44205,-0.32677,25.7,-1.8,-6.7,-15.26448,134.955322,-119.444229,0.08548340215198884,0.76500702,0.50554597,-0.389718
11.1744,6527.403,-5.78457,-4.39349,-7.01044,-3.10857,-2.52024,-0.40374,24.4,-2.1,-6.3,-13.614944,133.426254,-116.103104,0.11534078313883402,0.74910998,0.52238399,-0.390699
11.1938,6527.423,-6.58665,-4.40068,-6.99368,-3.48975,-2.47321,-0.10319,24.3,-1.1,-9.6,-12.024051,131.734634,-112.718689,0.14567872493414669,0.73186499,0.53843403,-0.39145899
11.2176,6527.443,-7.11339,-4.34321,-6.82608,-3.8019,-2.13112,0.37817,24.1,-0.6,-10.3,-9.965835,130.064819,-109.208046,0.17938617121689732,0.71495903,0.55299503,-0.38839501
11.2344,6527.463,-7.50845,-4.18998,-6.49327,-4.02059,-1.90632,0.79661,23.6,-0.2,-11.9,-7.4431,128.644196,-105.830269,0.21407048160248413,0.700486,0.56473798,-0.380216
11.2535,6527.483,-8.6553,-4.42701,-6.02639,-3.89781,-2.20443,1.12342,22.7,0.7,-13.4,-4.607337,126.99234,-102.525635,0.25096350003767265,0.68625897,0.573524,-0.37031901
11.2809,6527.503,-9.45978,-4.33843,-6.02639,-3.5093,-2.0566,1.68298,22.2,1.1,-15.0,-1.805957,124.972809,-99.605644,0.2874461455086844,0.67265701,0.57791299,-0.36183399
11.2998,6527.523,-8.80135,-4.13012,-6.54355,-3.84222,-1.97413,2.44656,21.7,2.0,-16.4,1.306109,122.913254,-97.267097,0.3232767390772481,0.66283602,0.57642102,-0.35196501
11.3194,6527.543,-7.66886,-3.7207,-6.4813,-4.59664,-1.40847,2.35737,20.2,2.1,-16.2,5.059861,120.916122,-94.626434,0.36219439190575464,0.65364099,0.57327402,-0.33604401
11.3394,6527.563,-7.70717,-3.51001,-5.44937,-4.87764,-1.14396,2.26635,20.2,3.4,-16.7,8.849248,119.351898,-91.111885,0.4000197464479714,0.64169401,0.57480198,-0.31275499
11.3593,6527.583,-8.59545,-3.68718,-4.27857,-4.52761,-1.41641,2.46549,20.2,4.0,-17.8,12.48727,117.659317,-87.312225,0.43648866909811,0.62788999,0.57651502,-0.28785801
11.3786,6527.603,-8.81333,-3.24424,-3.15565,-3.99005,-1.76827,2.4661,19.8,4.8,-17.5,15.814811,115.540573,-83.882759,0.4707055600795668,0.61458403,0.57419598,-0.26649901
11.3997,6527.623,-8.42066,-1.96809,-2.64807,-3.64186,-2.12807,2.04705,17.9,5.6,-18.4,18.585947,112.719795,-80.650253,0.5037983614821296,0.59988302,0.56849003,-0.25128999
11.422,6527.643,-9.12937,-0.40463,-2.95454,-3.46593,-1.95153,1.92915,17.6,6.5,-19.3,20.611729,109.445915,-77.349266,0.5348757387237895,0.58258098,0.56249601,-0.241051
11.4344,6527.663,-10.55875,0.24182,-3.10537,-3.6614,-1.2643,2.70068,18.5,7.6,-17.2,22.659901,106.546936,-73.96067,0.5631149207982501,0.56658798,0.55712301,-0.22692201
11.4564,6527.683,-10.69283,0.26816,-2.14527,-3.69378,-1.23743,3.27122,18.2,7.9,-18.5,25.620478,104.000954,-70.316269,0.5914213695030134,0.554075,0.54961401,-0.20284501
11.4769,6527.703,-10.5372,0.79729,-1.0463,-3.14645,-1.04256,3.25595,18.0,8.3,-18.4,28.802401,101.221329,-66.648514,0.6191827178800773,0.54312301,0.53877598,-0.17706101
11.5073,6527.723,-10.43186,1.27615,-0.74701,-2.77076,-0.44636,3.58277,18.1,8.3,-18.4,31.791977,98.87709,-63.4361,0.6413868908217397,0.53563797,0.52789497,-0.151795
11.5206,6527.743,-10.35284,1.01996,-0.62012,-3.02183,-0.1623,3.88759,18.6,8.4,-17.9,35.011902,96.888138,-60.238445,0.6601656520279423,0.53070903,0.51716697,-0.12275
11.5399,6527.763,-11.16211,0.82124,-0.32083,-3.22097,0.65442,4.65117,18.4,8.4,-18.0,38.520245,94.780434,-56.376656,0.6779890022084134,0.52502799,0.506899,-0.08792
11.5566,6527.7829,-11.6673,0.78772,-0.31604,-3.30283,1.60371,5.99385,18.6,7.3,-18.2,42.888496,93.116348,-52.003284,0.6916071995347358,0.52221799,0.49719599,-0.042
11.5787,6527.8029,-11.1669,0.99841,-0.26576,-3.34986,2.52673,6.9859,19.2,7.1,-17.7,48.486008,91.769341,-47.046951,0.6996284574716067,0.52335101,0.48614401,0.016963
11.5946,6527.8229,-9.25387,1.36713,-0.42618,-3.40973,2.69288,6.9413,19.3,7.0,-17.0,54.676834,90.299126,-41.22147,0.7009989890626661,0.524845,0.47544399,0.084209
11.614,6527.8429,-6.70158,0.89306,-0.70631,-3.82939,2.1822,5.72507,20.7,5.6,-15.3,60.139748,87.126404,-33.838226,0.7004405765312566,0.52092397,0.464928,0.147862
11.6359,6527.8629,-5.56908,0.86433,0.0431,-4.44209,1.35814,4.42881,21.6,3.7,-14.5,63.54414,80.502319,-23.633146,0.7047697223791469,0.50583899,0.45537999,0.200139
11.6566,6527.8829,-5.36796,1.81247,1.88669,-4.29976,1.02278,4.14476,22.2,2.0,-12.4,64.860909,70.935242,-11.064721,0.714221469797835,0.48194799,0.44536099,0.243449
11.6775,6527.9029,-5.1429,2.81088,3.36874,-3.65346,0.86273,4.49479,23.0,0.0,-12.0,65.274216,60.831509,1.7321,0.7219972886865018,0.45859599,0.433314,0.28398699
11.7018,6527.9229,-4.3073,3.18199,4.26181,-3.3352,0.95069,4.71226,22.7,-1.5,-12.3,65.430367,50.593132,14.572792,0.7252536079781471,0.43909401,0.41859001,0.325555
11.7134,6527.9429,-3.39269,3.03115,5.22191,-3.3071,1.16022,4.65483,22.1,-3.9,-10.8,64.889854,40.200661,27.725628,0.7252468578118625,0.419649,0.40228701,0.36888599
11.7369,6527.9629,-2.01598,3.07664,5.93062,-3.08963,1.33309,4.60597,22.6,-5.4,-12.2,63.388912,30.422083,40.573795,0.7223256417506027,0.39813,0.38517901,0.413975
11.7556,6527.9829,-0.49322,3.23706,5.87316,-3.20326,1.41801,4.1692,22.1,-7.1,-11.5,61.107677,22.019749,52.242188,0.7162223190269483,0.37562001,0.36735699,0.45932999
11.774,6528.0029,0.10535,3.19636,5.76302,-3.70844,1.14861,3.57788,21.8,-8.3,-12.3,57.738506,15.410689,62.093307,0.7101129601567907,0.34935799,0.347352,0.50302601
11.8003,6528.0229,0.63209,2.51159,5.96893,-4.00838,0.53042,3.24679,20.3,-8.9,-12.5,53.353863,10.240499,70.005272,0.7060264592564925,0.32054299,0.321825,0.54333001
11.8165,6528.0429,0.66561,1.9226,6.29215,-4.22035,0.44429,2.75016,21.1,-9.1,-13.8,48.326466,6.040236,76.240936,0.703474447147812,0.29190999,0.290158,0.57941401
11.8341,6528.0629,0.52674,2.01598,6.51003,-4.42193,0.94214,2.96885,20.0,-8.4,-14.7,42.902672,3.364789,81.110664,0.6998613041007617,0.25997299,0.25843799,0.61303997
11.8572,6528.0829,0.74941,1.7981,6.72312,-4.80006,0.97391,3.49663,19.7,-8.5,-14.3,37.226933,1.336537,85.960823,0.6907346068937331,0.225958,0.225674,0.64876801
11.8767,6528.1029,0.87391,0.70871,7.69041,-5.1959,1.3276,3.41233,19.6,-8.3,-15.1,31.099548,-0.250516,90.843651,0.6766072223432436,0.189657,0.18946999,0.68580902
11.898,6528.1229,0.57223,-0.1269,8.98571,-4.74936,1.5133,3.12645,19.6,-7.7,-13.6,24.737177,-0.505585,95.112556,0.6598929771602059,0.147735,0.155157,0.72016799
11.9168,6528.1429,0.22027,-1.01278,9.96976,-3.7677,1.47726,3.16066,19.5,-7.5,-15.2,19.098242,-0.281909,98.936859,0.6411705426522335,0.109652,0.12451,0.74924898
11.9383,6528.1629,0.11732,-1.73585,10.13496,-2.93509,1.48887,3.27428,19.3,-7.6,-14.9,14.557928,0.172412,102.739609,0.6191107541462672,0.077932,0.099909,0.77501398
11.9565,6528.1829,0.81884,-2.53793,10.02483,-2.97662,1.14922,3.16432,19.7,-7.6,-14.2,10.79935,0.888917,106.622185,0.5942154751433183,0.050029,0.080072,0.79874498
11.9746,6528.2029,1.78613,-3.78535,10.57551,-3.23013,0.83035,2.31583,19.6,-8.0,-14.6,6.806967,1.397652,110.145897,0.5708873761060231,0.024005,0.055641,0.81878901
11.9972,6528.2228,1.74543,-4.72151,12.11742,-2.67852,0.21765,1.25109,19.3,-8.1,-14.7,2.701926,1.713004,112.583839,0.55445276712629,0.000651,0.027904,0.831747
12.0152,6528.2428,0.64406,-5.34642,13.72877,-1.4348,-0.41764,0.8015,19.2,-8.3,-14.8,-0.569411,1.499974,113.89846,0.5453830710480475,-0.013681,0.002974,0.83806998
12.045,6528.2628,-1.35037,-5.43261,15.00492,0.09358,-1.34983,1.37204,19.0,-8.4,-15.0,-2.368421,0.511713,114.935844,0.5377299142534289,-0.014878,-0.015023,0.842852
12.0641,6528.2828,-2.7199,-5.29853,15.27308,1.69833,-1.28752,2.75382,18.6,-8.3,-15.4,-2.419314,-1.000104,116.859154,0.5232532938086295,-0.003618,-0.022554,0.85187101
12.0913,6528.3028,-1.50121,-5.55472,14.68888,2.57125,-1.71634,3.64324,18.1,-8.3,-15.7,-0.831748,-2.303315,120.363441,0.49701119368442787,0.013829,-0.01629,0.86748099
12.1012,6528.3228,-0.28731,-5.55232,14.16453,3.09293,-2.57156,3.35919,17.8,-8.3,-16.0,1.820368,-4.423319,124.435783,0.46624727601048677,0.041537,-0.003942,0.88366997
12.1201,6528.3428,-0.9194,-5.18121,13.44385,3.49488,-4.26487,3.34025,17.2,-8.6,-16.2,5.015895,-8.046763,128.268875,0.43753236950975316,0.082117,0.008697,0.89540303
12.1365,6528.3628,-1.2139,-4.86996,12.07433,3.92249,-5.48599,3.68234,13.7,-11.8,-17.1,8.189983,-13.821679,132.504852,0.40662683393135757,0.138404,0.016557,0.90289801
12.1576,6528.3828,0.3352,-4.83165,10.55636,3.89194,-5.67231,3.56994,10.2,-15.9,-16.5,10.544591,-20.532448,137.561768,0.3699024139815797,0.198162,0.020056,0.90746999
12.1759,6528.4028,2.10696,-5.24825,9.69442,3.67142,-5.96064,2.8479,7.0,-18.4,-16.3,11.59961,-27.161417,142.559265,0.3328529850299374,0.25277999,0.018053,0.90828699
12.1937,6528.4228,2.78454,-5.27698,8.85642,4.07581,-4.94782,2.65853,2.2,-20.9,-14.2,12.310724,-33.555721,147.215317,0.2983376679558918,0.304304,0.017493,0.90448201
12.2179,6528.4428,3.0096,-4.7239,8.13814,4.35681,-4.68332,3.33292,-0.8,-22.1,-12.7,12.703682,-39.038158,152.495712,0.2585916137655659,0.347339,0.022346,0.90110302
12.2386,6528.4628,3.50282,-4.31927,6.84763,4.71967,-4.99852,3.85399,-3.4,-23.8,-9.1,12.270139,-44.600468,158.851883,0.2086780632165241,0.389025,0.027966,0.89684498
12.2552,6528.4828,4.34561,-4.42223,5.37036,5.13444,-5.1885,3.97067,-6.8,-24.2,-5.1,11.105894,-50.552357,165.916199,0.15135009414599004,0.4325,0.034741,0.888161
12.2851,6528.5028,5.49486,-4.66165,3.68,5.31037,-5.56907,3.59987,-9.9,-24.9,-0.7,9.437951,-56.682434,173.410263,0.08941244841575408,0.47649199,0.045096,0.87345701
12.3223,6528.5228,6.6896,-4.2235,1.78373,5.17293,-5.11703,2.90165,-10.0,-23.8,2.4,7.485356,-62.870689,-179.168243,0.027895813329961112,0.520006,0.059471,0.85163301
12.3254,6528.5428,7.72633,-3.33044,0.31126,4.70195,-4.654,2.54979,-11.2,-22.4,7.1,5.360086,-68.447678,-172.400131,0.028503975854949407,-0.55801499,-0.07581,-0.82586902
12.3351,6528.5628,8.70558,-2.36075,-0.45252,4.58039,-3.74991,2.45389,-11.8,-22.1,11.2,2.925541,-73.382294,-166.195679,0.0812015494371867,-0.590518,-0.092102,-0.797629
12.3559,6528.5828,9.41668,-1.1708,-0.78772,4.69462,-3.05658,2.51681,-11.2,-20.4,11.6,0.353239,-77.318352,-160.070175,0.13323419433531178,-0.61484301,-0.110469,-0.76942402
12.3736,6528.6028,9.00966,-0.48125,-1.38389,4.52724,-3.10851,2.81063,-11.8,-19.6,16.2,-2.311657,-80.636742,-154.016357,0.18409400846719245,-0.63380098,-0.130445,-0.73985797
12.3954,6528.6227,8.37278,-0.95053,-2.15724,4.30306,-2.60332,3.34942,-11.4,-17.3,17.2,-5.426715,-83.817574,-148.326859,0.23328631549977272,-0.65148801,-0.14818101,-0.70652902
12.4163,6528.6427,8.32968,-1.81965,-2.65046,3.91149,-2.08592,3.72449,-12.1,-14.5,19.1,-9.124994,-86.073349,-142.945908,0.28299154065091714,-0.66352099,-0.16103899,-0.67358899
12.4413,6528.6627,8.28658,-2.86834,-2.86355,2.97931,-2.59477,3.45693,-12.3,-12.4,20.7,-13.15087,-88.02121,-138.303116,0.328635498536782,-0.67434001,-0.16868199,-0.63938302
12.457,6528.6827,7.79815,-3.81647,-2.2602,2.82415,-3.1867,2.89249,-11.6,-10.4,20.4,-16.82617,-90.704575,-134.778976,0.3633640635138525,-0.68922198,-0.17566501,-0.60173202
12.4788,6528.7027,7.52999,-4.46532,-2.09978,3.43257,-4.19829,2.42762,-9.8,-7.5,25.4,-20.102076,-93.842606,-131.242493,0.3937053897416695,-0.70428199,-0.188291,-0.559937
12.5098,6528.7227,7.51323,-4.82207,-3.01918,4.04955,-4.84092,1.84241,-7.9,-4.6,24.9,-23.087021,-97.510681,-126.905998,0.42329413508424507,-0.71798497,-0.21123099,-0.510589
12.526,6528.7427,6.941,-5.25064,-4.67123,4.22609,-4.76578,1.55958,-6.2,-3.0,26.2,-25.783895,-101.252907,-121.952591,0.45083598241866163,-0.72758001,-0.241833,-0.457046
12.5381,6528.7627,5.54753,-5.5212,-6.11737,4.10208,-4.43225,2.30117,-4.4,-0.4,24.5,-28.717051,-104.611214,-117.03981,0.4766765151627668,-0.73292702,-0.27098599,-0.40269601
12.5558,6528.7827,4.55391,-5.87555,-7.64013,3.63782,-4.60268,3.55772,-2.0,1.5,25.9,-32.830463,-108.080284,-112.959282,0.5017643638340801,-0.73894697,-0.290425,-0.343283
12.5746,6528.8027,4.44617,-6.39511,-9.11022,2.81682,-4.74685,4.09895,0.8,3.9,25.1,-38.061691,-112.571045,-110.521133,0.521897145433829,-0.74932098,-0.29936701,-0.27662399
12.6058,6528.8227,5.55232,-7.49169,-10.01286,2.23039,-4.40782,3.83017,1.9,4.1,24.3,-43.266758,-118.071274,-109.889214,0.5334818139764087,-0.76143998,-0.30254799,-0.209931
12.6149,6528.8427,6.62975,-8.22433,-9.85244,1.59753,-5.18117,3.20281,3.7,5.5,25.0,-47.62923,-124.512352,-110.727982,0.5360843971395735,-0.77302301,-0.305536,-0.14729799
12.6389,6528.8627,6.99368,-8.3656,-9.10064,1.48086,-5.63627,2.14479,6.0,6.3,22.7,-50.735069,-132.125504,-112.238098,0.5294625496083359,-0.78253102,-0.31608,-0.08607
12.6556,6528.8827,6.39511,-8.13335,-8.85403,1.74292,-5.38703,1.25659,8.0,6.5,21.6,-52.812538,-139.265503,-112.901779,0.5197492674694213,-0.78533,-0.335044,-0.029377
12.6738,6528.9027,5.58824,-7.44141,-9.18204,1.61464,-5.0199,0.69643,10.6,7.1,22.0,-54.390316,-145.034714,-112.437149,0.51089106440849,-0.78147501,-0.35759699,0.020286
12.6949,6528.9227,4.76461,-6.53158,-9.8716,0.98789,-4.52938,0.38916,13.2,8.3,22.1,-55.385536,-149.889236,-111.58609,0.5004489178447681,-0.77500802,-0.38086599,0.062085
12.7172,6528.9427,3.43578,-6.51243,-10.34327,0.03677,-4.32291,0.50401,14.3,7.9,19.4,-55.463779,-154.717087,-111.202232,0.4840905376765793,-0.77017498,-0.403905,0.096683
12.7353,6528.9627,2.26738,-7.12536,-10.19482,-0.58203,-4.35834,1.04157,17.9,7.5,20.1,-54.715641,-160.234573,-111.958519,0.46052494450637504,-0.76933801,-0.42416799,0.126954
12.7556,6528.9827,2.50441,-7.53478,-9.56034,-1.20878,-5.19278,1.35861,19.0,7.0,18.3,-53.503124,-167.027634,-114.046959,0.43009403321750445,-0.77198499,-0.44027001,0.15881
12.7842,6529.0027,2.99045,-8.18603,-10.02004,-1.57652,-5.62222,0.88091,21.2,6.1,16.3,-51.523594,-174.804306,-116.099297,0.39001105189853263,-0.773812,-0.459382,0.195127
12.8094,6529.0227,3.48128,-7.84364,-9.11261,-1.46718,-3.4738,-0.58578,21.1,6.4,14.0,-49.376427,179.940323,-116.246506,0.35444148479809684,-0.77144998,-0.48000601,0.220976
12.8194,6529.0426,2.57624,-6.83805,-7.88195,-1.1538,-3.61003,-1.42389,23.1,7.1,11.6,-47.400768,178.033707,-113.891144,0.3282808562084602,-0.76358801,-0.50514001,0.23237599
12.8413,6529.0626,0.44773,-5.99766,-8.53559,-0.85631,-5.08832,-1.0873,22.8,8.3,11.0,-46.077133,176.544189,-110.375526,0.3053254562685521,-0.74846298,-0.53480399,0.246098
12.8588,6529.0826,-1.02714,-6.37595,-11.36083,-2.40363,-5.32534,0.58892,23.4,8.2,8.9,-44.639931,172.43779,-108.232338,0.2712756108850173,-0.73319298,-0.56133801,0.27154601
12.8735,6529.1026,-0.73744,-7.03199,-12.26108,-4.19591,-4.25082,1.66709,25.0,7.3,5.7,-40.885258,167.004364,-108.037422,0.21851988674260076,-0.73015398,-0.57896698,0.28969201
12.8955,6529.1226,0.5028,-7.49647,-9.79019,-4.16293,-2.56423,1.08005,25.3,5.8,6.7,-35.611935,163.238861,-107.863312,0.16285113237199095,-0.73513699,-0.59058499,0.29028001
12.9206,6529.1426,0.4621,-7.46056,-6.57947,-2.7445,-2.34615,-0.36526,26.2,5.9,5.3,-31.306036,161.618073,-106.54155,0.12149499735231696,-0.73606598,-0.603001,0.282552
12.9355,6529.1626,-0.80926,-6.93861,-5.11896,-0.9345,-3.19403,-1.19481,26.6,5.9,2.6,-29.526932,160.551636,-104.085915,0.09759246482366898,-0.72501302,-0.62015498,0.28326601
12.9567,6529.1826,-1.52994,-6.63932,-7.97294,-0.79645,-4.46096,-0.45078,25.9,6.3,2.9,-29.739962,158.049911,-101.872803,0.07966530065517655,-0.70592999,-0.63587201,0.30163401
12.9819,6529.2026,-1.23784,-6.45018,-11.37999,-2.83307,-3.57948,0.2566,26.9,6.0,1.2,-29.05158,154.336426,-100.377632,0.05022303803753283,-0.68936902,-0.64710301,0.32172301
13.0004,6529.2226,-1.14207,-5.87794,-11.09507,-4.16598,-1.83852,0.58281,25.7,5.5,-1.3,-26.054001,152.340775,-98.342239,0.013426534062784901,-0.68059403,-0.65927899,0.319316
13.0237,6529.2426,-1.85796,-5.33684,-9.29697,-4.2906,-0.9998,0.7062,26.4,5.9,-1.6,-21.935316,152.067337,-96.033607,0.021295509949273546,0.67747498,0.671413,-0.299631
13.0432,6529.2626,-3.94576,-5.01601,-7.54675,-3.71394,-0.92894,0.94627,26.2,5.8,-1.4,-17.953863,152.39447,-94.01683,0.04988043102198463,0.67624599,0.68131697,-0.2757
13.0744,6529.2826,-5.88273,-5.02079,-7.03199,-2.83429,-0.9662,1.28347,25.9,5.2,-3.5,-14.51174,151.905212,-92.866859,0.0771797714812608,0.67614901,0.685444,-0.25890601
13.0899,6529.3026,-6.1485,-4.41504,-6.90748,-2.09026,0.26225,0.94933,26.7,5.5,-1.1,-12.046495,151.569366,-92.374222,0.0956762689389556,0.67780799,0.68599498,-0.24664401
13.0941,6529.3226,-4.41265,-4.01041,-8.12377,-2.31078,-0.59418,0.70437,26.0,5.3,-2.8,-10.298097,151.845612,-91.976997,0.10571278182471085,0.67962003,0.68691599,-0.234708
13.1172,6529.3426,-2.80848,-3.35198,-9.56273,-3.38713,-1.15435,0.23645,26.5,5.5,-2.9,-8.200052,151.128036,-90.950356,0.12500227398299477,0.676171,0.69004798,-0.225834
13.1432,6529.3626,-3.929,-2.35118,-9.32091,-4.29915,-1.20444,0.234,26.1,5.7,-2.7,-5.231106,150.218307,-88.820747,0.15252045221752777,0.66720998,0.69784302,-0.21114799
13.1645,6529.3826,-6.27779,-1.64487,-8.58587,-4.40666,-1.74567,1.16802,26.3,5.8,-2.8,-1.46668,149.155228,-86.539459,0.18516382078564633,0.65821999,0.70419103,-0.191248
13.1734,6529.4026,-8.3632,-1.74782,-8.97374,-4.37062,-2.35897,2.04339,26.5,5.7,-3.1,2.890211,146.93103,-85.055962,0.22600906035440232,0.65308201,0.70139599,-0.174492
13.1953,6529.4226,-8.10462,-0.94574,-8.81093,-4.01021,0.12908,2.05499,26.4,5.5,-3.4,7.352577,145.121445,-84.083488,0.26308134130367344,0.651847,0.69419301,-0.154854
13.2171,6529.4426,-6.87875,0.34717,-8.81093,-4.15804,0.61044,1.90838,26.4,5.5,-3.2,11.611993,145.269455,-83.079689,0.28627938616589177,0.65226799,0.69069201,-0.12464
13.2354,6529.4625,-6.50046,0.55547,-9.29457,-4.47019,0.46689,1.93771,26.4,5.5,-3.8,15.899801,145.634171,-81.844536,0.30763071770507416,0.650657,0.68817103,-0.091812
13.2586,6529.4825,-6.8165,0.49801,-8.83009,-4.88619,-0.03524,2.17961,26.4,5.4,-4.3,20.574507,145.615494,-80.453842,0.3322251540102583,0.64734399,0.68356299,-0.057566
13.2739,6529.5025,-6.28258,1.14925,-7.70717,-4.73592,-0.8312,1.77277,26.4,5.4,-4.7,25.491175,144.719391,-78.912056,0.3618277222143153,0.64230299,0.67518699,-0.025497
13.2941,6529.5225,-6.00963,2.27217,-7.87956,-4.26127,-0.13481,0.98415,26.4,5.3,-4.9,29.642609,142.940323,-76.795479,0.39142792891718886,0.633035,0.66786999,-0.000736
13.3203,6529.5425,-6.86439,2.82046,-8.23152,-4.54777,0.93176,0.97559,26.4,5.2,-5.0,33.035881,141.78598,-74.059029,0.41232606779358394,0.61986202,0.66716498,0.025479
13.346,6529.5625,-7.07748,3.11974,-7.43901,-4.87642,1.15961,1.78988,26.6,5.1,-5.0,36.87986,141.437408,-71.167122,0.42849300213175007,0.60599399,0.667458,0.060538
13.3618,6529.5825,-5.46374,3.34001,-6.73749,-4.93323,0.9061,1.49361,26.7,4.9,-4.8,41.346844,141.052002,-68.599731,0.445237304990181,0.59430498,0.66236401,0.099193
13.3785,6529.6025,-4.348,3.87873,-6.34722,-5.03585,0.82241,0.52416,26.8,4.8,-4.7,45.346813,139.676498,-65.061569,0.4627260331745555,0.577806,0.65882701,0.134059
13.3937,6529.6225,-4.8077,4.26899,-5.95217,-5.33334,1.00506,0.40505,26.8,4.7,-4.4,48.774452,137.026993,-60.000397,0.4810119079327643,0.55471897,0.65831703,0.165931
13.4198,6529.6425,-6.39032,3.92422,-4.79094,-5.44819,2.01604,1.34883,26.9,4.6,-4.0,52.383076,134.097824,-54.217243,0.49667215902725936,0.52972698,0.65708798,0.20234001
13.4378,6529.6625,-6.72791,3.70873,-2.89228,-5.27959,2.47663,2.50825,26.9,3.7,-1.7,56.69487,132.378632,-48.910419,0.5032642774862917,0.50782198,0.65358102,0.24834201
13.4564,6529.6825,-6.37595,4.20914,-1.08221,-4.56976,2.76252,2.63715,27.1,2.4,0.0,61.358673,131.195984,-44.172749,0.5039517197982556,0.48981699,0.64647299,0.29695901
13.4772,6529.7025,-4.92981,4.79573,-0.16042,-4.01998,2.92929,2.09653,26.8,0.5,0.9,65.381798,129.925354,-39.303974,0.49999837392545554,0.47170201,0.64122599,0.34106901
13.4997,6529.7225,-4.24265,5.21712,0.46688,-3.82634,3.32085,1.18207,26.7,-0.7,4.9,68.466736,127.01059,-32.57542,0.495231796198911,0.44841599,0.63983899,0.37983501
13.5313,6529.7425,-4.38152,5.75344,1.22587,-3.77625,2.98426,0.92672,26.4,-2.0,6.9,70.727104,121.559677,-22.894417,0.4904267998765564,0.418165,0.64149201,0.416062
13.5521,6529.7625,-5.11896,6.64651,1.68557,-3.56428,2.26589,0.7288,25.7,-3.3,5.5,72.500053,113.074455,-10.735333,0.4888648127687239,0.38755101,0.63932002,0.44953901
13.569,6529.7825,-6.43581,7.26662,1.2139,-3.21059,2.55238,1.00553,25.3,-5.0,8.7,73.504524,102.716827,2.689953,0.4892154726653889,0.35884899,0.63441199,0.478975
13.5735,6529.8025,-6.74707,7.11578,0.29928,-3.51724,3.10521,1.77888,24.6,-6.8,10.5,74.312408,92.844627,16.186855,0.4823178373604479,0.33091801,0.63024002,0.51054901
13.5949,6529.8225,-5.75344,5.87316,0.45012,-4.59542,2.76618,1.4368,23.7,-8.8,10.3,74.927727,79.732201,33.438694,0.47130272239788695,0.30076101,0.62158501,0.54867899
13.616,6529.8425,-5.23388,5.13333,2.01359,-4.52395,1.991,0.69826,23.3,-10.5,10.9,73.568489,64.766281,52.25251,0.46601375326258326,0.265127,0.60779399,0.585769
13.6399,6529.8624,-5.20037,5.17163,3.28734,-3.77991,1.23047,0.19979,23.2,-11.2,10.8,70.642921,54.53157,65.410271,0.46716617451450704,0.230482,0.59221298,0.61475003
13.6536,6529.8824,-5.40627,5.19558,3.32325,-3.28328,0.6923,0.06235,22.7,-12.7,9.1,67.361389,48.926311,73.046112,0.4720140125160684,0.200564,0.57734197,0.635337
13.6764,6529.9024,-5.6864,4.91305,2.86834,-3.45188,0.36915,0.22484,22.2,-13.2,9.4,64.084251,45.003429,78.507423,0.4779331791783231,0.17427699,0.56135398,0.65275502
13.7053,6529.9224,-6.0647,4.69038,2.74384,-3.76037,0.2818,0.68421,22.4,-13.5,9.5,60.691139,41.201542,83.706955,0.48309090213565353,0.149644,0.54171199,0.67140001
13.7239,6529.9424,-6.00724,4.61137,2.6768,-3.90514,0.14191,1.33295,22.3,-14.8,7.3,57.342972,37.303726,89.162827,0.48439246830645477,0.12682,0.51894701,0.69280201
13.7394,6529.9624,-5.28177,4.25463,2.23386,-4.24356,0.36487,1.74651,22.0,-15.5,7.7,54.143452,33.438732,94.883286,0.48033965239588444,0.106105,0.49430999,0.71670997
13.7533,6529.9824,-3.52198,3.01679,2.17161,-5.05418,0.02157,1.40076,20.9,-16.6,5.0,50.540462,29.991751,100.664513,0.47256446719413847,0.083102,0.46677399,0.742899
13.7738,6530.0024,-1.46769,1.82204,3.33762,-5.42131,-0.72186,0.16498,20.9,-17.8,1.7,45.772259,27.066769,105.434135,0.4701604015901805,0.0575,0.43143401,0.76779401
13.7969,6530.0224,-0.67279,1.47727,4.66644,-5.19956,-1.28507,-0.90526,20.9,-17.6,1.6,40.121185,24.921642,108.167465,0.4780925935901536,0.032326,0.39014801,0.78623599
13.8204,6530.0424,-0.67519,1.40544,5.12375,-4.8416,-1.51903,-0.97734,21.6,-15.3,-2.6,34.297028,22.663197,109.726036,0.4918496927567606,0.012848,0.34447899,0.79953301
13.8335,6530.0624,-0.6704,0.59139,4.99446,-4.9601,-1.39136,-0.67191,21.6,-14.9,-6.7,28.778028,20.379177,110.969185,0.5039734023968921,-0.002605,0.29862699,0.81044799
13.8555,6530.0824,-1.05348,-0.80208,5.22191,-5.39076,-1.21666,-0.34021,21.3,-14.0,-8.2,23.068396,18.221407,112.4244,0.5117006801301517,-0.019147,0.25036401,0.82165301
13.8738,6530.1024,-1.23305,-2.32005,6.28497,-5.45124,-1.13419,0.05991,21.4,-12.2,-9.6,17.02063,16.300152,114.116966,0.5147571764625132,-0.038004,0.199182,0.83301097
13.8962,6530.1224,-0.56026,-3.91943,7.97533,-4.9259,-1.01629,0.20774,21.0,-11.0,-10.6,10.986958,14.596904,115.930794,0.5134081759140376,-0.056831,0.14757299,0.84344798
13.9229,6530.1424,0.12929,-5.23628,9.953,-4.17087,-1.15068,-0.10991,25.5,-10.3,-12.8,5.080843,13.103595,117.405365,0.5112585972559287,-0.074527,0.096842,0.85069501
13.9367,6530.1624,-0.13887,-6.24427,11.51167,-3.11163,-1.11159,-0.53019,21.1,-7.8,-14.9,-0.114686,11.548484,118.06591,0.5120209390071855,-0.086781,0.050914,0.85306001
13.9537,6530.1824,-0.32323,-7.07748,13.12781,-1.89906,-0.86724,-0.54119,19.6,-6.8,-16.4,-4.189077,10.156901,117.988319,0.5155336701314659,-0.094574,0.014365,0.85151303
13.975,6530.2024,-0.21788,-7.55873,14.38959,-0.3719,-0.91061,-0.21926,20.4,-6.1,-17.1,-6.64694,8.856234,117.721504,0.5185405611164857,-0.095862,-0.009613,0.849608
13.9979,6530.2224,0.02155,-7.90111,15.3042,0.50653,-0.65222,0.10022,19.3,-6.6,-17.6,-7.564269,7.701947,117.540916,0.519959420076221,-0.091427,-0.021532,0.849011
14.0197,6530.2424,-0.19872,-8.05674,16.6019,1.45459,-0.54654,0.55959,19.6,-6.4,-18.0,-7.326593,6.770609,117.637932,0.5190127895283507,-0.083439,-0.024057,0.850344
14.0328,6530.2623,-0.49322,-8.29856,17.83495,2.80155,-0.39016,1.26514,18.4,-7.7,-18.3,-5.206335,6.295381,118.207108,0.5143248591238606,-0.070356,-0.010748,0.85463703
14.0598,6530.2823,-0.38787,-8.35362,17.92594,4.09475,-0.50133,1.77033,18.2,-8.4,-16.9,-1.43963,5.897285,119.42923,0.5041579953732162,-0.050744,0.015106,0.86198699
14.0793,6530.3023,0.09817,-7.73351,16.32895,4.79602,-0.32418,1.68175,18.3,-10.6,-15.3,3.685441,5.336475,120.886696,0.49119276981038723,-0.024629,0.050893,0.869214
14.1,6530.3224,0.15084,-6.56031,14.66733,4.80702,-0.3755,1.56447,18.6,-12.4,-15.2,9.345432,4.807091,122.227112,0.47805527529562936,0.002721,0.091457,0.87355101
14.1335,6530.3424,0.27534,-5.605,13.95144,4.84917,-0.72308,1.35861,18.4,-13.5,-13.1,14.965628,4.020946,123.446205,0.4653870245465375,0.031023,0.13109601,0.87479502
14.1393,6530.3624,0.39027,-4.99446,13.54202,5.48997,-1.13114,0.91512,17.2,-15.4,-13.6,20.7421,2.70974,124.452179,0.4544767594883153,0.063285,0.170076,0.872078
14.166,6530.3825,-0.14845,-4.52997,12.31615,6.04952,-1.51537,0.48385,16.9,-16.7,-11.9,27.246759,1.021165,125.012009,0.4467881884018865,0.101051,0.212927,0.86303598
14.1896,6530.4025,-1.00799,-3.65127,10.61861,6.28287,-1.84951,0.69398,16.2,-19.4,-7.7,34.270535,-1.164262,125.508522,0.44012612613399743,0.143508,0.25748199,0.84817302
14.1969,6530.4225,-1.66881,-2.23146,8.78459,6.44536,-1.55019,1.42458,14.7,-21.2,-6.6,39.727474,-4.09719,126.996429,0.4302796020352805,0.181611,0.28888401,0.83571702
14.2168,6530.4425,-1.43417,-0.29689,6.90269,6.3409,-1.04195,2.1173,13.6,-23.1,-2.5,44.47023,-7.498657,130.110229,0.411985906666405,0.21413299,0.31684601,0.827057
14.2363,6530.4626,-0.88349,1.61614,4.67123,5.23585,-0.62473,2.49115,12.3,-24.0,-1.2,48.543724,-11.514438,134.814468,0.3865257466278278,0.24155501,0.34247601,0.82155901
14.2555,6530.4826,-0.86433,2.80609,3.36874,3.56941,-0.15192,2.86805,11.6,-24.9,0.1,50.901169,-15.612938,140.287354,0.3587582359574758,0.25996599,0.35878,0.821576
14.2758,6530.5026,-0.89546,3.57226,3.75183,2.86141,0.56402,3.76419,9.6,-25.4,4.2,51.366451,-19.36969,146.313492,0.32719043520261937,0.268893,0.364963,0.82912302
14.2944,6530.5227,-0.72786,4.099,4.47969,3.1363,0.06555,4.48929,7.2,-27.5,6.8,51.262589,-23.554417,153.619827,0.28736265207135014,0.275796,0.37031001,0.83918399
14.3226,6530.5427,-0.60096,4.09421,4.28096,3.38493,-0.86724,5.51615,5.9,-26.0,9.0,51.027588,-29.618139,162.476608,0.241718585296497,0.29141301,0.376425,0.84555
14.3393,6530.5627,0.38787,3.69915,2.8851,3.33484,-0.83792,6.40985,2.0,-25.4,10.6,49.977528,-37.753677,173.068451,0.18827669398016195,0.31687701,0.381262,0.84780902
14.3581,6530.5827,1.97528,3.46691,1.47727,2.69831,-0.26187,6.86983,-1.2,-25.1,13.4,47.542255,-46.622219,-175.278412,0.12476006937333711,0.346596,0.38478401,0.84631401
14.3769,6530.6028,3.15326,2.98566,1.04869,1.84738,0.00324,7.37074,-3.5,-24.5,10.8,43.155945,-54.23719,-164.578766,0.055086721210650565,0.37613699,0.38124999,0.842695
14.3991,6530.6228,4.52518,1.80289,1.48445,1.3819,0.33189,7.50635,-7.4,-23.4,13.2,37.059238,-59.440849,-156.213379,0.01557966070745139,-0.40309799,-0.36694199,-0.83822602
14.4323,6530.6428,5.91865,0.39745,1.91303,1.40022,0.62999,6.97734,-9.3,-21.8,11.8,30.391146,-62.651066,-149.409866,0.08602390472838949,-0.42488801,-0.348324,-0.83110797
14.4422,6530.6628,7.09424,-0.36632,2.28174,1.2078,0.58601,6.43551,-12.1,-19.7,14.8,24.097208,-64.396835,-143.755432,0.15170177757817943,-0.44032201,-0.32996699,-0.82111198
14.4605,6530.6829,9.05994,-0.27295,3.23227,0.85839,-0.4262,5.89733,-13.7,-17.7,13.4,18.027206,-65.579872,-139.09906,0.21060159579993418,-0.455145,-0.31028801,-0.80759603
14.4787,6530.7029,10.86043,-0.03831,3.4717,0.97751,-1.22032,4.73547,-14.5,-16.0,16.2,12.350742,-67.304123,-135.374786,0.25905661889849385,-0.47568601,-0.292007,-0.78825402
14.5032,6530.7229,11.42309,0.27295,2.47807,0.96712,-0.75118,3.7477,-16.2,-12.2,17.1,7.940364,-69.168549,-132.229507,0.2966225249410092,-0.49467999,-0.28140101,-0.76688999
14.5211,6530.743,11.07113,0.57941,1.95852,0.41918,0.24759,3.39951,-17.9,-10.8,16.9,4.351702,-70.012863,-129.611328,0.32872024879447065,-0.50548297,-0.27216801,-0.74990302
