AppTimestamp(s),SensorTimestamp(s),acc_x,acc_y,acc_z,gyro_x,gyro_y,gyro_z,mag_x,mag_y,mag_z,yaw_deg_ori,yaw_deg_ori_cal,yaw_deg,yaw_error,Quat_w,Quat_x,Quat_y,Quat_z,q_w,q_x,q_y,q_z,quat_angle_error_deg
0.0652,6244.6343,0.2678222001446944,1.3105066594934494,1.2367239869938391,0.25837766453412614,0.25188903660344397,0.15627923524883894,-1.2105988867864657,21.662486211168805,-24.857720294428105,-64.286354,-45.081761888969524,0.0,64.286354,0.7759475835669827,0.41322699,-0.17226499,-0.44437999,1.0,0.0,0.0,0.0,78.2179541489759
0.0684,6244.6543,-0.1270042933873503,1.3727505682074777,1.299665876963962,0.08256518966178947,0.1014057602905532,0.10560720300365711,-1.3552737404539723,21.748831512483825,-24.762746261602015,-64.708786,-45.21527657219788,0.0,64.708786,0.7755226338371691,0.41438699,-0.16913,-0.445245,1.0,0.0,0.0,0.0,78.29511917290891
0.072,6244.6743,-0.4951615939263645,1.42724069116371,1.3256043708575689,-0.051941684191472895,-0.04248872819509458,0.07259528130539328,-1.377378445667004,21.716616877057525,-24.778866453718955,-64.87841,-45.3947051045875,0.0,64.87841,0.7752987044786543,0.41392899,-0.168589,-0.44626501,1.0,0.0,0.0,0.0,78.33575599179386
0.0735,6244.6943,-0.8129558429527179,1.4161012817690741,1.286455700464085,-0.12220546627415405,-0.1695414701706482,0.06286372416249773,-1.284343981965966,21.61441965383361,-24.86059007981096,-64.791161,-45.45045699048605,0.0,64.791161,0.7751458598201503,0.413138,-0.170294,-0.44661599,1.0,0.0,0.0,0.0,78.36348280144192
0.0763,6244.7143,-1.0424586085813559,1.2813449647949313,1.1781880038996242,-0.1288610106429463,-0.2692247740244435,0.06696459394231424,-1.2114216731235707,21.561214772644238,-24.887381644731406,-64.623962,-45.2371441963567,0.0,64.623962,0.7750367226080451,0.413964,-0.17154901,-0.445559,1.0,0.0,0.0,0.0,78.38327581872403
0.0872,6244.7343,-1.1730882739022244,1.0686389739341506,1.0062374905641995,-0.09150243756573892,-0.33313031964102946,0.07238644962480792,-1.1217637026726788,21.536070951711057,-24.870283410838002,-64.495781,-44.937850570543766,0.0,64.495781,0.7745897398218878,0.41571599,-0.172848,-0.44420099,1.0,0.0,0.0,0.0,78.46429646678388
0.1347,6244.7543,-1.2164177204689555,0.8201655489894693,0.7879077467382043,-0.03471022804517622,-0.3593230049964347,0.07288648782391877,-1.0479323286915836,21.543952910777268,-24.80403801488618,-64.450653,-44.60063303837457,0.0,64.450653,0.7738824582709184,0.41820499,-0.17370699,-0.44275999,1.0,0.0,0.0,0.0,78.59235606240631
0.1369,6244.7743,-1.2087584612257967,0.5856095258669005,0.5362554959744141,0.019888845794951558,-0.3519678280012848,0.07205162950871492,-0.9741054862091874,21.549623424235712,-24.731531243484095,-64.41626,-44.26500798192752,0.0,64.41626,0.7731067279328256,0.420728,-0.174629,-0.44136,1.0,0.0,0.0,0.0,78.73260814920332
0.1457,6244.7943,-1.1551078094181548,0.3678325158930775,0.26208642292747797,0.05810376698042207,-0.3179457272335672,0.07981637281365471,-0.936916880068897,21.5857550853864,-24.638131775368567,-64.635681,-44.134955237207954,0.0,64.635681,0.7719879538238273,0.42300501,-0.174583,-0.44115999,1.0,0.0,0.0,0.0,78.93451493267959
0.1692,6244.8142,-1.0896550850534927,0.1702863014291316,-0.03670367851476897,0.07678443458850298,-0.2591144113085129,0.11115632267968384,-0.960435221866434,21.642696144490788,-24.544602631614588,-64.865639,-43.97405734677239,0.0,64.865639,0.7711287022801057,0.425464,-0.17360701,-0.44068301,1.0,0.0,0.0,0.0,79.08929239963072
0.1877,6244.8342,-1.0447033870367624,0.025936133791676808,-0.3629111958748137,0.07983784444725278,-0.17109426570118255,0.18451795228656886,-0.9463773714227299,21.643524525904073,-24.53061414445709,-64.848671,-43.72277190780051,0.0,64.848671,0.7707132246783492,0.42730001,-0.17378201,-0.43956301,1.0,0.0,0.0,0.0,79.16404185320826
0.2056,6244.8542,-1.0126606250776096,-0.08819444247025343,-0.7047336555644144,0.0742963883025923,-0.05404129605557921,0.3144232332845934,-0.9196328580249258,21.629767996764926,-24.556586211847495,-64.80117,-43.51763514085105,0.0,64.80117,0.7704001333374885,0.42862901,-0.174224,-0.438642,1.0,0.0,0.0,0.0,79.2203318314932
0.2274,6244.8742,-0.9751958338934346,-0.2128086920249399,-1.037265208176633,0.06660972091897105,0.07682991445809521,0.5041330849422357,-1.027240603633464,21.64241620372932,-24.567902073915356,-64.826149,-43.39018744066333,0.0,64.826149,0.7707238426020827,0.429591,-0.172492,-0.43781599,1.0,0.0,0.0,0.0,79.16213229461935
0.2455,6244.8942,-0.9312479802328002,-0.36798785646132504,-1.331770920909685,0.0619735503991235,0.19556130206840414,0.7374922879295991,-1.3121675900271033,21.640485613418765,-24.580811854063427,-64.729584,-43.256103383958994,0.0,64.729584,0.7723981521990971,0.42975301,-0.168345,-0.43631801,1.0,0.0,0.0,0.0,78.86053607719835
0.2657,6244.9142,-0.8604119161620156,-0.5708552675464549,-1.566924980746986,0.06467770079374857,0.2796537104116479,0.9780913895641823,-1.7886798509542352,21.5904790101351,-24.6065117397998,-64.303841,-42.972175424941035,0.0,64.303841,0.7759485383101637,0.42907599,-0.16186801,-0.43312401,1.0,0.0,0.0,0.0,78.21778070879824
0.2878,6244.9342,-0.738409497706142,-0.8244374040887537,-1.7416905527291604,0.07202585605235723,0.3197809937087267,1.1806715767901619,-2.4004031646531736,21.49748117756141,-24.6307790319105,-63.461163,-42.37429538486157,0.0,63.461163,0.781151043434418,0.42840701,-0.153736,-0.42735901,1.0,0.0,0.0,0.0,77.267830005571
0.3054,6244.9542,-0.5528874524845349,-1.1056096955890624,-1.8695931635242546,0.07268216980639153,0.3185243878606915,1.307892731834106,-3.021572255094979,21.387620663514003,-24.63776996562459,-62.342442,-41.49053279585656,0.0,62.342442000000005,0.7869643076959334,0.42849401,-0.145226,-0.41951099,1.0,0.0,0.0,0.0,76.19456109491477
0.3316,6244.9742,-0.30893505039604596,-1.382292064085184,-1.9604449866366211,0.05373308730871329,0.2805852703967503,1.3438713878335338,-3.5971249421861877,21.28120980916073,-24.622250642529252,-61.101147,-40.431096750566205,0.0,61.101147,0.792754748521256,0.429465,-0.136746,-0.410366,1.0,0.0,0.0,0.0,75.11260516577796
0.3477,6244.9942,-0.023712580930125515,-1.6250707302971688,-2.010845177653569,0.01421404033485052,0.20748702699348734,1.2992742916891415,-4.116638955086728,21.155312624780525,-24.61763365800274,-59.904877,-39.480735406231034,0.0,59.904877,0.7983497898803507,0.429957,-0.128365,-0.401618,1.0,0.0,0.0,0.0,74.054386832898
0.3658,6245.0142,0.2700725995933664,-1.823743132364819,-2.016569448835643,-0.033714621015104806,0.10287057358935564,1.2082061175089405,-4.5316526297997575,20.968196528016698,-24.684560973028795,-58.773071,-38.79361172623144,0.0,58.773071,0.8037910250276498,0.428642,-0.121039,-0.39438,1.0,0.0,0.0,0.0,73.01268216164019
0.3849,6245.0342,0.5227428671177963,-1.9788363082589897,-1.9843812993562349,-0.07475594900915716,-0.015999023323087114,1.1127954246187617,-4.6836880429461365,20.69014125676765,-24.89421187114077,-57.475864,-38.1729784282191,0.0,57.475864,0.8089615328284032,0.42566901,-0.117581,-0.38802299,1.0,0.0,0.0,0.0,72.01081179296345
0.4071,6245.0542,0.7297341879849881,-2.096094998503292,-1.9375996609981927,-0.09738042481161224,-0.11929197618061366,1.039536194876463,-4.512191280325535,20.35776146893589,-25.230581311303943,-55.985447,-37.483699960609826,0.0,55.98544699999999,0.8135268184550156,0.42202699,-0.118765,-0.38205001,1.0,0.0,0.0,0.0,71.11608719984427
0.4335,6245.0742,0.9547512129629863,-2.1820839416217783,-1.9124981487993544,-0.10394646854204881,-0.17887483112116884,0.9839928152741781,-4.273924855695652,20.0630395516191,-25.55912214890773,-54.312576,-36.54892648442182,0.0,54.31257600000001,0.8181154546650978,0.41942599,-0.120394,-0.37453201,1.0,0.0,0.0,0.0,70.20682786224886
0.445,6245.0942,1.219614937128077,-2.2145182911422636,-1.9242240458063726,-0.11639872400230855,-0.17323841665284131,0.9210328092919992,-4.073078204745324,19.84439150694135,-25.818977028884852,-52.525215,-35.37731662557589,0.0,52.525215,0.8228318942843306,0.41832101,-0.120771,-0.36519799,1.0,0.0,0.0,0.0,69.26141941720141
0.4675,6245.1142,1.4752630017000572,-2.1623489560563143,-1.9488888618983422,-0.16035097465150017,-0.09296921414909512,0.8329022075053542,-3.792208596546776,19.65299252983212,-26.05474828028231,-50.658092,-34.11129720649906,0.0,50.65809200000001,0.8272765680498511,0.41769701,-0.121898,-0.35536399,1.0,0.0,0.0,0.0,68.36003262450544
0.4872,6245.1342,1.6728116219512696,-2.026439483262133,-1.9420630099942562,-0.24075852954661317,0.04984371849439109,0.7241395568205207,-3.3677887999269345,19.427170078877253,-26.311782819518164,-48.878078,-33.030299963377495,0.0,48.878078000000016,0.8312422869844988,0.41587201,-0.124886,-0.34711701,1.0,0.0,0.0,0.0,67.54687362754765
0.5295,6245.1542,1.8154176426956468,-1.8391769980807786,-1.8649822207063789,-0.3392973362903374,0.2194226893690174,0.6125307738587025,-2.930050379181492,19.135067552560315,-26.594140111215175,-47.522629,-32.493256214458256,0.0,47.522628999999995,0.8350860230823048,0.41118801,-0.127766,-0.34239101,1.0,0.0,0.0,0.0,66.75040686625351
0.562,6245.1742,1.911362887372911,-1.6453627899715246,-1.6863409442058561,-0.43547845559611065,0.36783793266924764,0.5086728591907381,-2.612627563198606,18.810100960211237,-26.872350389307154,-46.491661,-32.31632565726553,0.0,46.49166099999999,0.8393629595497647,0.404549,-0.128664,-0.33949301,1.0,0.0,0.0,0.0,65.85417852440989
0.568,6245.1942,1.9560611573181177,-1.466985725116332,-1.3830139732279534,-0.5148056324612409,0.46128688574675314,0.4054999349569456,-2.372028936469821,18.459582548368918,-27.157319588106617,-45.462391,-32.17434113259441,0.0,45.462391,0.8442170463233374,0.39699,-0.128562,-0.33640501,1.0,0.0,0.0,0.0,64.82370868223292
0.569,6245.2142,1.944681385660424,-1.3154306937222788,-0.9577903274448172,-0.567399772493136,0.4904240461185471,0.2888792953161514,-2.0883234487843154,18.10148661667439,-27.451090686227005,-44.307362,-31.91253085748947,0.0,44.30736200000001,0.8491344829712311,0.38939199,-0.12931,-0.33260101,1.0,0.0,0.0,0.0,63.764689179626146
0.5917,6245.2341,1.8974484933581781,-1.207528531115201,-0.4452448286684536,-0.5873482466874403,0.4625005126833171,0.15645254615581647,-1.7402118330227658,17.80016431593597,-27.710506118148686,-43.307339,-31.69323034439126,0.0,43.30733900000001,0.853277643245714,0.38240701,-0.130825,-0.32949501,1.0,0.0,0.0,0.0,62.86005208885569
0.611,6245.2541,1.82909931304488,-1.1389098979416676,0.11241901771021645,-0.5735404430632411,0.3897902327547762,0.017353946649306347,-1.3300685260085032,17.55667492636564,-27.929244228462483,-42.65686,-31.699995712233296,0.0,42.656859999999995,0.8563139211694972,0.3757,-0.133068,-0.32843399,1.0,0.0,0.0,0.0,62.18960864939362
0.6371,6245.2741,1.7337596264338102,-1.0866087893725531,0.6746186083737626,-0.5275455955482964,0.28190948949068995,-0.11839348279019382,-0.850959715770002,17.324597828500888,-28.12707847564785,-42.193573,-31.85190708065315,0.0,42.193573000000015,0.8585570962319861,0.368931,-0.13662399,-0.32879099,1.0,0.0,0.0,0.0,61.69008454710078
0.6545,6245.2941,1.6332638499895218,-1.0427785458029186,1.1924342037374842,-0.4530323644053633,0.14926957354549106,-0.2463499850459203,-0.37985807080799017,17.116445068448343,-28.286005896495098,-41.821827,-32.04832406781873,0.0,41.821826999999985,0.8603736472690571,0.362443,-0.14054701,-0.329604,1.0,0.0,0.0,0.0,61.28287619562696
0.6672,6245.3142,1.531427605647007,-1.0081615732470084,1.6231323794132173,-0.3581874819044164,0.010498333904327944,-0.3729717832202953,0.1078470853363438,16.972385500991134,-28.383853949372924,-41.523056,-32.22766283253634,0.0,41.523056,0.8614748160139329,0.35708499,-0.14504901,-0.33062401,1.0,0.0,0.0,0.0,61.03483875705818
0.6886,6245.3342,1.408346643214394,-0.9904370158617812,1.9375336535984502,-0.2549676645543467,-0.11024412673518696,-0.5092445208225752,0.6827695818120336,16.944029535554503,-28.394718794893038,-41.255894,-32.29612604780965,0.0,41.25589400000001,0.8613454886405104,0.35410199,-0.15087201,-0.33156201,1.0,0.0,0.0,0.0,61.06401681274904
0.7127,6245.3542,1.2560277745489374,-0.9655463951644494,2.1243107566943884,-0.15477645570513934,-0.1974415012046041,-0.6601032891168966,1.33375388303826,16.978825325290302,-28.349696812164805,-40.987419,-32.28874650297158,0.0,40.98741899999999,0.8602730349708282,0.35269099,-0.15805,-0.33250499,1.0,0.0,0.0,0.0,61.30549385023434
0.732,6245.3742,1.0819769521535454,-0.9384691044568347,2.1875694467478333,-0.06662663506928596,-0.25575303850775966,-0.820242381427279,1.9892557888086424,17.05988478361231,-28.25823240236081,-41.012661,-32.48528264883147,0.0,41.01266100000001,0.858204021819404,0.351926,-0.165281,-0.335136,1.0,0.0,0.0,0.0,61.76895061516371
0.7472,6245.3943,0.8986494093176294,-0.9154848827561741,2.1468719259987665,0.0047444294894377625,-0.3076449771415106,-0.9766378002545786,2.5255441212230334,17.178724830266457,-28.137196773230613,-41.50972,-33.045368207985845,0.0,41.509720000000016,0.8555430361399827,0.35105601,-0.170672,-0.34011301,1.0,0.0,0.0,0.0,62.36044210333289
0.7681,6245.4143,0.6535377273926861,-0.8694021830555805,2.033310437123035,0.06546538017161418,-0.3741071845199383,-1.1120880031546694,3.0329098096099214,17.26569429391098,-28.031555000770062,-42.223755,-33.83289574785001,0.0,42.22375499999998,0.8524713671908164,0.34957999,-0.17606001,-0.34653899,1.0,0.0,0.0,0.0,63.03700992855411
0.7862,6245.4343,0.31040156521944917,-0.8121113501741499,1.8648529245783152,0.1266730129974875,-0.4524883130760018,-1.2115670723344745,3.643934774014933,17.359683179324684,-27.9065043319095,-42.964104,-34.64139025374179,0.0,42.96410399999999,0.8483236247064677,0.34894401,-0.183375,-0.353495,1.0,0.0,0.0,0.0,63.940393949765806
0.8128,6245.4544,-0.09049525867194363,-0.7517292920965266,1.6493538002122392,0.19376185666267043,-0.5260215180975809,-1.2674256362017693,4.327387756521409,17.497457840401307,-27.735721823252778,-43.673111,-35.37176563816122,0.0,43.673111000000006,0.8430985354913979,0.349843,-0.192229,-0.36033699,1.0,0.0,0.0,0.0,65.06244319313528
0.8423,6245.4744,-0.47988142174438364,-0.6722163426053993,1.4003020430377866,0.2650519489354475,-0.5862532990022673,-1.2812446396674284,4.963357452012908,17.648236928827444,-27.55022493399365,-44.358112,-36.060720488148895,0.0,44.358112000000006,0.8374874768018683,0.351383,-0.20130201,-0.366909,1.0,0.0,0.0,0.0,66.24850656771096
0.8509,6245.4944,-0.8085907391191953,-0.5732431917859713,1.1358248460284646,0.3344076589751135,-0.6382279836388252,-1.2646526824954438,5.453477031782887,17.810364606140993,-27.36979729138146,-45.1492,-36.81413243570137,0.0,45.14920000000001,0.8318007693621111,0.35306999,-0.209305,-0.373685,1.0,0.0,0.0,0.0,67.43166526023916
0.8692,6245.5144,-1.0687057713018215,-0.4637660893939266,0.8675800494935686,0.3959407912871934,-0.692283679465671,-1.2356441974272685,5.753536797788438,18.011336021273458,-27.191309019176877,-46.0205,-37.55270738290969,0.0,46.0205,0.8261794038213249,0.35537201,-0.215791,-0.380227,1.0,0.0,0.0,0.0,68.58350488878
0.8887,6245.5345,-1.2744295703726718,-0.33177713059646496,0.5942877946303575,0.442590642505774,-0.7540512585031489,-1.2113182514806147,5.900077246706934,18.220511836663807,-27.03443586155359,-46.872421,-38.2216146830321,0.0,46.872421,0.8205360598201763,0.35820401,-0.221798,-0.38628501,1.0,0.0,0.0,0.0,69.72301709974444
0.9103,6245.5545,-1.4412302260962533,-0.17259586259506543,0.30399643931365006,0.467914194402785,-0.8152059330615609,-1.202592691154203,5.918439671644288,18.421652678728577,-26.909715444315285,-47.557617,-38.70137467488049,0.0,47.55761699999999,0.814802126370863,0.36182201,-0.22826,-0.39125401,1.0,0.0,0.0,0.0,70.86439741800442
0.9399,6245.5745,-1.5635366750721635,0.008427178713013905,-0.013500326051516964,0.46196990781646985,-0.8617259335241536,-1.2118993729981893,5.821718025643722,18.60160658759912,-26.823532518572883,-48.242355,-39.15267417786894,0.0,48.242355,0.8084838936925335,0.36600399,-0.235402,-0.39620799,1.0,0.0,0.0,0.0,72.10386576462989
0.9484,6245.5946,-1.6111499885653737,0.19886559937331194,-0.3582742510784911,0.4154290162644424,-0.8831187352183915,-1.2370422205952953,5.567254175620385,18.749731538157423,-26.788921904446138,-49.260361,-39.8975300755063,0.0,49.26036099999999,0.8014041319643541,0.36982301,-0.242239,-0.402868,1.0,0.0,0.0,0.0,73.47120589946526
0.9673,6245.6146,-1.5920680074375517,0.4021826626774896,-0.7302617272482959,0.33576950165200015,-0.8753087565034379,-1.2731153439166252,5.121143760297284,18.81369479874971,-26.843433434586906,-50.239933,-40.7089297661591,0.0,50.23993300000001,0.7948540241402692,0.37247401,-0.24872699,-0.40939599,1.0,0.0,0.0,0.0,74.71705993224063
0.9908,6245.6346,-1.517061819931774,0.5948471471777741,-1.1213571210464544,0.23294534232670772,-0.8325633986957448,-1.3220106741543214,4.562170515811497,18.829344222494356,-26.942966064623697,-51.228256,-41.610288232970596,0.0,51.22825599999999,0.788529437980092,0.37430099,-0.25503099,-0.41602799,1.0,0.0,0.0,0.0,75.90340643151056
1.0157,6245.6546,-1.393540369967941,0.7535463047105027,-1.5116751366295862,0.12045983828910334,-0.7454533528763805,-1.3845651153401695,3.9799582705666756,18.858340644713284,-27.038771599745132,-52.353851,-42.67158293536132,0.0,52.35385099999999,0.7819064019768989,0.375763,-0.26120999,-0.42331299,1.0,0.0,0.0,0.0,77.12908660449273
1.0365,6245.6747,-1.2121837600653107,0.8877880265870262,-1.8773377571893253,0.013383516407485585,-0.6066225194997518,-1.4555396203948505,3.442165840513834,18.855477261046012,-27.172276000265803,-53.688171,-44.1684463626911,0.0,53.688171,0.7750820369294207,0.375177,-0.26767999,-0.43224701,1.0,0.0,0.0,0.0,78.37505816717639
1.0587,6245.6947,-0.9809472250422044,0.9833475325563237,-2.2015886988833033,-0.06580177100301865,-0.404182149979847,-1.533285997468992,2.957245515276897,18.839332328073745,-27.338268368096614,-55.09074,-45.97618824284599,0.0,55.09074,0.7685715238532974,0.37268701,-0.27400199,-0.44195601,1.0,0.0,0.0,0.0,79.54842865900278
1.0701,6245.7147,-0.7095123092926721,1.029319923946157,-2.4740902702959575,-0.10249409947285915,-0.12488264524564618,-1.6224310423111787,2.553081255596253,18.85010427836801,-27.484301026433393,-56.693104,-48.11177672788296,0.0,56.693104000000005,0.7620919758237847,0.368972,-0.279524,-0.452705,1.0,0.0,0.0,0.0,80.70205887209836
1.1022,6245.7348,-0.4190317749208581,1.033553545095003,-2.6873663963774135,-0.09259388264994017,0.2394088849209512,-1.7289927543677104,2.2314689357162765,18.92038402841536,-27.543061297587904,-58.671165,-50.587294603441805,0.0,58.671165,0.7553540975544382,0.364786,-0.28331801,-0.46486801,1.0,0.0,0.0,0.0,81.8873606865658
1.1142,6245.7548,-0.14915803640958192,1.0328983740272963,-2.833519843931523,-0.03932027473435573,0.6799769094758588,-1.8523264921828213,1.9536058458539927,19.030878148890125,-27.505390484936036,-61.058193,-53.403669961469475,0.0,61.058193,0.7486400884094303,0.35987899,-0.284623,-0.47855499,1.0,0.0,0.0,0.0,83.05456984954718
1.1317,6245.7748,0.0420319120299566,1.0618197362332633,-2.8999536274759166,0.054992697607975205,1.1690280636656758,-1.9745443951616353,1.648879358085983,19.20114557562873,-27.38849898275635,-63.86478,-56.49683016021233,0.0,63.864779999999996,0.7423170993241769,0.35412499,-0.28239,-0.49377799,1.0,0.0,0.0,0.0,84.14165454088098
1.1741,6245.7948,0.11321186455164334,1.1837542479264547,-2.8784428830663416,0.20889765690946593,1.6444739651194624,-2.0686618776251615,1.4351773192367414,19.2966981866506,-27.33140849215935,-67.230026,-60.58761713035724,0.0,67.230026,0.7351118494799004,0.34394199,-0.27885401,-0.513376,1.0,0.0,0.0,0.0,85.36666383141241
1.1744,6245.8149,0.053400396048360665,1.3994779961140842,-2.7564785919288646,0.4332446627656643,2.040701475384869,-2.1091967241920813,1.2590435425137407,19.406393003603853,-27.30847455746777,-71.20591,-65.53190710202627,0.0,71.20591,0.726357555876979,0.33017099,-0.27307001,-0.53742403,1.0,0.0,0.0,0.0,86.83620412498155
1.1892,6245.8349,-0.12721659450742306,1.6819591140489822,-2.5260986682809996,0.6972522609213565,2.300569807309034,-2.1005408068793807,1.0160089477948766,19.68616472073732,-27.20943025156452,-75.491547,-70.47236430531788,0.0,75.491547,0.7164662039936844,0.316486,-0.263592,-0.56305599,1.0,0.0,0.0,0.0,88.47302177267558
1.2056,6245.8549,-0.3539469760778968,1.9822038274362872,-2.1932077179974137,0.9024866629301742,2.399382325188565,-2.0893483661907197,0.4076114093334411,20.273076376476677,-26.902626595757027,-79.72773,-74.58545348476314,0.0,79.72773,0.707727986286313,0.305011,-0.246675,-0.58757198,1.0,0.0,0.0,0.0,89.89928513207546
1.2285,6245.875,-0.5838094375498777,2.2467365201883487,-1.7923665499999348,0.9612315363524274,2.3635467271117943,-2.1165007722716704,-0.5675389238299573,21.201971653837994,-26.274114975749782,-83.635544,-77.59353700427154,0.0,83.635544,0.7006050507948818,0.29751199,-0.222242,-0.60930097,1.0,0.0,0.0,0.0,91.04886502117897
1.2487,6245.895,-0.796635889394258,2.552717237019157,-1.4212665599415892,0.8866346542905746,2.233698530031471,-2.178653889663445,-1.308937452463736,22.112962377980068,-25.55539102976975,-87.327591,-80.66670531139359,0.0,87.327591,0.6911881669134243,0.290492,-0.19975699,-0.630849,1.0,0.0,0.0,0.0,92.55152736580611
1.2685,6245.915,-0.9937475411762913,2.962787198563305,-1.1554034188117566,0.7564653588784227,2.091958377486335,-2.1828306609981745,-1.2285099071040921,22.82874021460213,-24.962637137177154,-91.369919,-84.70763409347303,0.0,91.369919,0.6751259612548606,0.28331301,-0.186803,-0.65501398,1.0,0.0,0.0,0.0,95.07213483493162
1.2865,6245.935,-1.1772362482063832,3.4133594175936564,-0.9493134102425564,0.6194804019838538,2.0258331017712385,-2.014906451860948,-0.6882287342044027,23.406541458271523,-24.462060830801065,-95.324036,-88.77972877039609,0.0,95.324036,0.6565909286987748,0.278045,-0.179021,-0.67788702,1.0,0.0,0.0,0.0,97.91921408470603
1.3085,6245.955,-1.1977449666911553,3.896248667407262,-0.6862656515201024,0.5078550806036052,2.005976745797612,-1.6439573121688764,-0.4741731550306181,23.70003533783135,-24.18571388907437,-98.381798,-92.43191876118247,0.0,98.381798,0.6418348095544365,0.26628301,-0.169055,-0.69897199,1.0,0.0,0.0,0.0,100.14245382997694
1.3265,6245.975,-1.102669953611389,4.226290297377501,-0.2157544815360648,0.4884916107212456,1.9737109038970706,-1.0564483547825856,-0.685258216391702,24.04188005704852,-23.823475140956432,-100.755348,-95.18292102744007,0.0,100.755348,0.6311103659529765,0.25321499,-0.151651,-0.717345,1.0,0.0,0.0,0.0,101.73581817231246
1.3473,6245.995,-1.0081084667707723,4.423469037532304,0.44453772905307964,0.6058517548179438,1.8446108319753238,-0.34362921396995616,-0.8510577424696351,24.225446085323565,-23.58733568257626,-102.440765,-97.18260622113705,0.0,102.440765,0.6232334345511157,0.241292,-0.13480499,-0.73156399,1.0,0.0,0.0,0.0,102.89471321673228
1.3716,6246.015,-0.9006155301167134,4.420308680874099,1.2600347716815534,0.7949180112426035,1.6208832801159143,0.36747882182499636,-1.0196870442868633,24.25364899865494,-23.483922143294436,-103.32988,-98.27195285027511,0.0,103.32988,0.6195289790889527,0.231112,-0.117825,-0.74087,1.0,0.0,0.0,0.0,103.43650763032136
1.3864,6246.035,-0.8447910563939898,3.9900191264280416,2.195753133325283,0.9122953189016503,1.366392931739334,0.9575858170728436,-1.4303780310766925,24.463223037806614,-23.174655535052572,-103.040306,-97.55761088179479,0.0,103.040306,0.6236822081181727,0.229268,-0.094731,-0.74127102,1.0,0.0,0.0,0.0,102.82893946816063
1.4066,6246.0549,-0.7730481815516193,3.074113601170887,3.104574788292915,0.8347806003318727,1.1502452068079816,1.3280304436500927,-1.8937934132656231,24.97560974924236,-22.555392849955158,-102.000458,-95.59594182062374,0.0,102.000458,0.6326218235842639,0.236147,-0.06542,-0.73467302,1.0,0.0,0.0,0.0,101.51235619197209
1.4336,6246.0749,-0.6377229690621915,2.064230082263997,3.7636290167047246,0.4991978817712957,1.0666758821195492,1.4630493308522259,-2.0266909293195194,25.357690820369218,-22.14795254286541,-100.533585,-93.4179565124871,0.0,100.533585,0.6430320921999151,0.243444,-0.041084,-0.724953,1.0,0.0,0.0,0.0,99.9634232904366
1.4585,6246.0949,-0.4488763587486355,1.2195259390574749,4.135919838296456,-0.057778987014825645,1.1605632779233424,1.4746051815865893,-1.6277270409882476,25.550919217583168,-22.039104833624577,-99.20977,-91.80338625231998,0.0,99.20977,0.6516387966996438,0.246687,-0.025155,-0.71685398,1.0,0.0,0.0,0.0,98.66945124900474
1.4691,6246.1149,-0.265999300996012,0.610097055786142,4.2772199512801805,-0.7047450748501027,1.4037470177607474,1.5185950139765731,-0.849099640048756,25.60532248859979,-22.077290889290527,-98.035698,-90.78827080403094,0.0,98.035698,0.658873667021228,0.243899,-0.015137,-0.711456,1.0,0.0,0.0,0.0,97.57194258296448
1.4916,6246.1349,-0.1736288933739374,0.35247297065742916,4.256059371964431,-1.243568916229655,1.7209170343265616,1.6846408887794733,0.27044878971656416,25.269266750829857,-22.452882786435648,-96.88958,-90.45985904530805,0.0,96.88958,0.6656685435094857,0.230473,-0.012934,-0.70964801,1.0,0.0,0.0,0.0,96.53273062782698
1.5086,6246.1549,-0.20214366642136694,0.4002392671841436,4.172351617732055,-1.5088785165388159,1.9707501250016441,1.9504624690667767,1.3086604257044572,24.389371385987108,-23.298614959985017,-95.062256,-90.10663149504039,0.0,95.062256,0.6764825440477819,0.203683,-0.016311,-0.70754403,1.0,0.0,0.0,0.0,94.86123130574214
1.5294,6246.1749,-0.33666603665770456,0.23334475057866094,4.158029525926729,-1.460421738962129,1.9088455311468238,2.2567938974962556,1.6647147664488138,23.65979948891841,-23.986457266869184,-92.085815,-88.51780798427065,0.0,92.085815,0.6944631424016682,0.17381801,-0.011753,-0.69811898,1.0,0.0,0.0,0.0,92.03109595333117
1.5546,6246.1949,-0.5515260266664375,-0.3780827304587368,4.277460081118601,-1.1275581560908092,1.3808682956624916,2.4744696010428218,1.4042858408949717,23.43864698005295,-24.264724242336634,-88.427788,-85.81448860159966,0.0,88.427788,0.7165215363288113,0.149519,0.00293,-0.681346,1.0,0.0,0.0,0.0,88.46393249707606
1.5696,6246.2149,-0.8449704397174467,-1.1888743374078259,4.440142489662492,-0.5775904802714361,0.4125797407533715,2.46432252425734,0.8977179203850365,23.369110470435256,-24.40265700545432,-84.739082,-82.76888824511344,0.0,84.739082,0.7381418718289187,0.131862,0.017766,-0.66139501,1.0,0.0,0.0,0.0,84.85325761997727
1.5997,6246.2349,-1.3235868149706302,-1.9524809835003312,4.4540422861065085,0.07781752864275004,-0.8761053006816566,2.2257371781546422,0.4853676910643037,23.223863492429167,-24.49537764700422,-81.494537,-79.79941663999293,0.0,81.494537,0.7566037826840413,0.124213,0.024223,-0.64151001,1.0,0.0,0.0,0.0,81.66859447105327
1.6154,6246.2549,-2.041428037963453,-2.6004812769051746,4.0910415287680895,0.7211144132413907,-2.3132398750645464,1.8604125479243654,0.2654696804249446,23.143504771058893,-24.376570835018544,-78.928482,-77.00827034126306,0.0,78.928482,0.7707458525727524,0.13184901,0.021449,-0.62298203,1.0,0.0,0.0,0.0,79.15817383425502
1.6366,6246.2749,-2.903822710468866,-3.074557819346594,3.183240881046956,1.2341388876323278,-3.666623219506793,1.4491513127522508,0.22031620819280479,23.291934919653784,-23.948873753329007,-77.285042,-74.52094436243165,0.0,77.285042,0.7790854607808696,0.156524,0.012094,-0.60694301,1.0,0.0,0.0,0.0,77.64616569057218
1.6512,6246.2949,-3.75149045381135,-3.1804683434174508,1.7280030214361126,1.5376586957418183,-4.6580211837739265,1.0827962075313822,0.33607609044361175,23.517491167312404,-23.478274057764683,-76.242554,-71.932690292603,0.0,76.242554,0.7829452434259497,0.193919,-0.005652,-0.59106702,1.0,0.0,0.0,0.0,76.93792847221157
1.6751,6246.3149,-4.311409503305928,-2.8703087221645354,-0.10040049890669245,1.6484769209242103,-5.055401125361255,0.8596427971108747,0.5531487713825731,23.749416366229642,-23.181398736214085,-75.32235,-68.80967996239495,0.0,75.32235,0.7840723938489353,0.237636,-0.030422,-0.572568,1.0,0.0,0.0,0.0,76.73006550893292
1.6921,6246.3349,-4.4889008856578245,-2.169419832125308,-2.019810125635768,1.5884933415038,-4.770666843472031,0.9365129580886802,1.2707505719460181,23.799535532808594,-23.296253219983047,-74.122116,-65.02286081014792,0.0,74.122116,0.7829781552985113,0.28143299,-0.065897,-0.550816,1.0,0.0,0.0,0.0,76.93186577297512
1.7098,6246.3549,-4.176917793652456,-1.139353122101325,-3.5976162672262824,1.3219367754082905,-3.931463107912437,1.3937713930975286,2.5936472997935223,23.185958948084515,-24.136329594502165,-72.720856,-62.15791960258689,0.0,72.720856,0.7792800483693009,0.30827299,-0.108953,-0.534621,1.0,0.0,0.0,0.0,77.61059101079368
1.7311,6246.3749,-3.335812355661983,-0.4523294516461457,-4.513609116568073,1.067086019336389,-2.8515519855871023,1.897049147086029,2.588608538880779,22.974338037520393,-24.650205245334742,-71.740906,-60.2733263123141,0.0,71.740906,0.7792781574711045,0.32194,-0.120807,-0.52391398,1.0,0.0,0.0,0.0,77.61093677259358
1.747,6246.3949,-2.508599899428586,-0.18301615664366822,-4.915936638239061,0.8015236657226833,-1.885263634368314,2.4021030393908154,1.549714685661642,23.01924272296592,-24.90317090643802,-69.838669,-57.71380416534442,0.0,69.838669,0.7877423131743653,0.32980201,-0.112752,-0.50791699,1.0,0.0,0.0,0.0,76.04995022605364
1.7677,6246.4149,-1.8742503981507521,-0.2935826261195887,-4.994722886400648,0.4325054498689158,-1.2957489467953076,2.7636988980712323,-0.11071306647201595,23.11876588533228,-24.96701246400599,-66.564003,-54.115657206243334,0.0,66.564003,0.8033546151236575,0.33512601,-0.094989,-0.48300001,1.0,0.0,0.0,0.0,73.09670157740037
1.7943,6246.4349,-1.3564256899054765,-0.677579966862656,-4.932803387141881,-0.04308669539808352,-1.1797254446139331,2.8701946252408055,-1.907249937812626,23.15883221153811,-24.870046870991143,-62.828506,-50.44602025895569,0.0,62.828506000000004,0.8202923556211529,0.33822501,-0.075228,-0.455044,1.0,0.0,0.0,0.0,69.77185922669764
1.8125,6246.4548,-0.8669011423586881,-1.1527389262723229,-4.902091681072853,-0.5438244396779147,-1.4170832519935017,2.7501450842677104,-3.509639629736453,22.898917296734936,-24.86186110399894,-58.572456,-46.797440134288316,0.0,58.572456,0.837316342912271,0.33749101,-0.062107,-0.42561001,1.0,0.0,0.0,0.0,66.28438462027644
1.8413,6246.4748,-0.46412028345054357,-1.5017354286941373,-4.9889054870537395,-1.043414618658573,-1.7452497663532958,2.543805882146793,-3.999646760387961,22.110737847268858,-25.373404159175553,-54.139488,-43.56794648727216,0.0,54.139488,0.8514624534903109,0.33076301,-0.070214,-0.400846,1.0,0.0,0.0,0.0,63.25781611410236
1.8583,6246.4948,-0.12414598600140336,-1.7662897852164394,-5.175690165296597,-1.4885840631046543,-1.987105957168245,2.3690257184039694,-3.602543994410264,21.15513102186572,-26.11421135068636,-49.66814,-40.45669944148904,0.0,49.668139999999994,0.8619418430698441,0.32353199,-0.093476,-0.379006,1.0,0.0,0.0,0.0,60.92936583336436
1.8692,6246.5148,0.3097887575190337,-2.093187029468357,-5.352614314333471,-1.811085838491907,-2.1014091114429747,2.2786619728012196,-3.2404556179805484,20.371030042786124,-26.687287252371835,-45.20052,-37.19285716320102,0.0,45.20051999999998,0.8705881593052939,0.31938499,-0.115335,-0.35604399,1.0,0.0,0.0,0.0,58.9458810150673
1.8892,6246.5348,0.9396399721318447,-2.535230442053704,-5.31785914948223,-1.9983075550794134,-2.0849068765765675,2.2797942075609297,-3.1583052056233645,19.465735958776946,-27.30136874543257,-40.872883,-34.197366003109366,0.0,40.872883,0.8798361714467414,0.31174701,-0.13206001,-0.33355999,1.0,0.0,0.0,0.0,56.754785604919675
1.9123,6246.5548,1.7751314488815937,-3.054085946200968,-4.864138768452186,-2.042204794505252,-1.9966244277386365,2.2741104698484165,-3.0872507016451367,18.074548958175836,-28.17852710539839,-35.766857,-30.801945793694177,0.0,35.766857000000016,0.8915597128196069,0.297708,-0.150059,-0.30655101,1.0,0.0,0.0,0.0,53.86020248642689
1.9331,6246.5748,2.8088580864729398,-3.5525347992050134,-3.9492296753285663,-1.9114185699746764,-1.9568920002851464,2.1239707744055996,-3.0279188129052224,16.62063829924529,-28.969032506724698,-29.99897,-26.58984039797985,0.0,29.998969999999986,0.9034757269619808,0.28464499,-0.16787501,-0.27299601,1.0,0.0,0.0,0.0,50.762469583082414
1.9498,6246.5948,3.9613399037671293,-3.867103613271606,-2.7236719369045144,-1.6136047092959005,-1.9996919948837375,1.811082344690919,-3.167640653232809,15.421989134041898,-29.5141634755808,-25.004471,-22.7482082767359,0.0,25.004470999999995,0.9134409392780356,0.272457,-0.18156201,-0.24171899,1.0,0.0,0.0,0.0,48.02943788904068
1.9708,6246.6148,4.923375357412921,-3.8408366383639465,-1.3239277269782868,-1.2483263873314752,-2.1079787496847713,1.3741568618492388,-3.0002416046673073,14.410275875247207,-29.98888340706573,-20.618504,-19.38446760103814,0.0,20.618504,0.919934509132036,0.25922799,-0.200977,-0.21477801,1.0,0.0,0.0,0.0,46.166981009771405
1.9892,6246.6348,5.4978216006075655,-3.599053325121987,0.0042258942394788335,-0.8994645999205817,-2.263868998624238,0.8833867646098837,-2.4531505885017566,14.032540445187356,-30.243805210939968,-17.074472,-16.622190040679044,0.0,17.074472000000014,0.9205616842563784,0.25105301,-0.22696,-0.195007,1.0,0.0,0.0,0.0,45.98333010582586
2.0092,6246.6548,5.725004304571212,-3.2544015668908712,1.094950948949279,-0.6233199878900479,-2.3947853956454876,0.41715063653577733,-1.8146731049329545,14.28380152526105,-30.27146069561556,-14.154113,-14.271926745381267,0.0,14.154112999999995,0.9163896838937788,0.24896801,-0.25587201,-0.18103699,1.0,0.0,0.0,0.0,47.19228429031324
2.0326,6246.6748,5.662813189314852,-2.812711712733897,1.9782724639373743,-0.45041916041133284,-2.4212506396523272,0.020670636312906332,-1.1241797678379881,14.750499271910998,-30.20410543123271,-11.416057,-12.009364541452582,0.0,11.416056999999995,0.9090479753148236,0.249051,-0.28774899,-0.169723,1.0,0.0,0.0,0.0,49.25176291786441
2.0467,6246.6948,5.363427517343286,-2.2762557466882063,2.732541778295788,-0.36652928627362646,-2.319491758416543,-0.3013255618020254,-0.4039048520198921,15.066035579712937,-30.144396287260278,-8.922816,-9.92981996700501,0.0,8.922816000000012,0.8998502844094011,0.246878,-0.32185,-0.16041601,1.0,0.0,0.0,0.0,51.723210471967214
2.0859,6246.7148,4.9816390443011915,-1.7427782327834755,3.3485202140416277,-0.31717033874651474,-2.134598994385311,-0.5860257644469955,-0.015436070521195833,15.263372362212813,-30.054841781260542,-7.086882,-8.367753679718128,0.0,7.086882000000003,0.8907757158875516,0.243084,-0.35164899,-0.154181,1.0,0.0,0.0,0.0,54.0582291969187
2.0952,6246.7348,4.592437389465378,-1.3032518840641742,3.8389263210574107,-0.2411417988092116,-1.9460739669129958,-0.8658662162728625,-0.08947042870347693,15.431946578161595,-29.935779927817286,-6.044823,-7.513448379219444,0.0,6.044823000000008,0.883082360264885,0.23919,-0.3741,-0.151667,1.0,0.0,0.0,0.0,55.967096242624365
2.1114,6246.7548,4.0880959763191935,-0.9007709773251724,4.262862839749639,-0.08222672755333986,-1.8246472897626755,-1.1393279066917557,-0.25476607492005066,15.371838886482982,-29.956468550713673,-5.556461,-7.287992640483776,0.0,5.556461000000013,0.8761199344627424,0.23262,-0.394106,-0.151599,1.0,0.0,0.0,0.0,57.64440428750479
2.1258,6246.7748,3.3534046435642386,-0.6121538389511985,4.6070227026269635,0.19770620425025348,-1.7841306759908964,-1.4086984738361066,-0.13213745116808553,15.241521771701603,-30.105630069185292,-5.397151,-7.548792172764797,0.0,5.397151000000008,0.8670198327995271,0.226207,-0.41608599,-0.154853,1.0,0.0,0.0,0.0,59.77169960187862
2.1476,6246.7948,2.467791049951565,-0.5401153047893592,4.771057045338008,0.5975644872568775,-1.7873230872671357,-1.6670458845229703,0.12243464234770446,15.305371850673124,-30.267010120647317,-5.399341,-8.062424036654242,0.0,5.399340999999993,0.8554573440327811,0.224925,-0.43751901,-0.161798,1.0,0.0,0.0,0.0,62.37940607577638
2.1678,6246.8148,1.5489288008128286,-0.6234090191950843,4.6661610850925825,1.0656099294965666,-1.8004210953590287,-1.8866233933657905,0.37222001880908007,15.445772569648444,-30.439908095506755,-5.910291,-9.427972337027578,0.0,5.910291000000001,0.8424652170720284,0.226208,-0.456911,-0.17411099,1.0,0.0,0.0,0.0,65.19727324013553
2.1881,6246.8348,0.6476928379889104,-0.7742705464969832,4.239819864684762,1.557040606895772,-1.7878083847002872,-2.042331671299875,0.5401677588603684,15.579550714044442,-30.58435730461322,-6.763306,-11.55260689382353,0.0,6.763306,0.8281363594016505,0.229524,-0.47460899,-0.19040801,1.0,0.0,0.0,0.0,68.184459392444
2.2099,6246.8547,-0.18727152359616916,-0.9514085044451432,3.461834623610569,2.0262505198887846,-1.7019652064713344,-2.1177856829718427,0.6282066541259251,15.779471274749753,-30.64117798270586,-7.772682,-14.266291064199214,0.0,7.772682000000003,0.8116954574250369,0.236334,-0.49102199,-0.210224,1.0,0.0,0.0,0.0,71.47617102069731
2.234,6246.8747,-0.9007223819797525,-1.0521080844971973,2.3497463845445417,2.4262049274256436,-1.5100652216883077,-2.0956277310250995,0.7582921294625607,16.03134728846412,-30.64981629842284,-8.816731,-17.55278112112025,0.0,8.816731000000004,0.7925984553151106,0.24626,-0.50687498,-0.23285501,1.0,0.0,0.0,0.0,75.14198285290499
2.2461,6246.8947,-1.3417663888132931,-0.9819813751315829,1.007998167341448,2.7032282474861646,-1.20071844296652,-1.9987511969283127,0.7951652330857575,16.312416572998217,-30.650892841587208,-10.177053,-21.857984743221117,0.0,10.177053,0.7731445511019914,0.257765,-0.51880401,-0.25816101,1.0,0.0,0.0,0.0,78.7257745724045
2.2708,6246.9147,-1.4930292079499767,-0.6892299119881011,-0.38756568182266093,2.8452133032707656,-0.7808060009073042,-1.8609321689176292,0.6389913338341833,16.548739805330868,-30.679228312228993,-11.711558,-26.488125023462366,0.0,11.711557999999997,0.7557446745043589,0.27040499,-0.52502602,-0.28298199,1.0,0.0,0.0,0.0,81.81903922035252
2.2885,6246.9347,-1.4094016532829114,-0.22140276150379945,-1.6558969736213243,2.8594278931325574,-0.29733602976018497,-1.7277754135779928,0.2580721688871286,16.77713875818315,-30.705700635078944,-13.973932,-31.922124037499923,0.0,13.97393199999999,0.7415432574098958,0.282579,-0.52431703,-0.30879501,1.0,0.0,0.0,0.0,84.27391225350611
2.3077,6246.9547,-1.2008345416285349,0.32318612573772176,-2.6796779945830203,2.799070610610773,0.20753808359917703,-1.61574527374,-0.352108220772835,16.995293051951435,-30.732630313138678,-17.114689,-37.524141043248385,0.0,17.114689,0.7313343531681524,0.29358,-0.51675701,-0.33454901,1.0,0.0,0.0,0.0,86.00325093954942
2.3335,6246.9747,-1.0018246524096215,0.8789224954978963,-3.450780650532412,2.7576505765809047,0.672093650736449,-1.4988922825174582,-0.7971150964301845,16.980061634655705,-30.87549236599079,-20.9175,-43.61363015778032,0.0,20.91749999999999,0.7230977298773794,0.29980701,-0.50812602,-0.35924,1.0,0.0,0.0,0.0,87.37833885994193
2.3609,6246.9947,-0.8352653093972218,1.33584851909132,-4.020551002523936,2.814309459016912,1.0743023194813424,-1.3673280955029887,-1.0221678596146546,16.835882482933798,-31.027770963237668,-25.567396,-50.37546623959629,0.0,25.567396000000002,0.7154492100627408,0.302223,-0.498667,-0.38486999,1.0,0.0,0.0,0.0,88.63994868262881
2.3745,6247.0147,-0.7096747654133129,1.6509475141043763,-4.446973878921967,2.9870776477064163,1.4181791817502962,-1.2205839340883178,-1.2147051837589062,16.75978319971464,-30.991909755584764,-31.119694,-56.349231050633925,0.0,31.11969400000001,0.7084223846143061,0.30572,-0.48512101,-0.41149801,1.0,0.0,0.0,0.0,89.78659850842661
2.3905,6247.0347,-0.640082226635903,1.9048868670980497,-4.775720415435012,3.227662364574875,1.6843966563398798,-1.0803344253205247,-1.427934490330486,16.737620045800618,-30.711816501109496,-37.652641,-60.96107666223636,0.0,37.65264100000002,0.7018565440551507,0.31216401,-0.46648499,-0.43856901,1.0,0.0,0.0,0.0,90.84770955954016
2.4172,6247.0547,-0.6164475715981415,2.203158110042768,-5.00613882652928,3.4375662993632567,1.8613417271096415,-0.9842064789857962,-1.7522369622079008,16.799120326890044,-30.17827259040689,-45.615868,-64.35317809284926,0.0,45.615868000000006,0.6954955366048295,0.32222199,-0.44128999,-0.466607,1.0,0.0,0.0,0.0,91.86656353001547
2.4363,6247.0747,-0.610153742010138,2.634448135212213,-5.092125958392931,3.526300019182508,1.943736896191471,-0.9470799607189413,-2.1030350009519276,16.946269589868177,-29.47581774027154,-55.257462,-67.5222043990773,0.0,55.257462000000004,0.6872559444570558,0.33465099,-0.41109601,-0.49667701,1.0,0.0,0.0,0.0,93.17343261216261
2.4514,6247.0947,-0.5835489236967142,3.2511314595101317,-4.9894453424651335,3.4374074037035953,1.965376826483186,-0.9558653427852383,-2.3931841909100164,16.97018523992308,-28.825877283233265,-65.346901,-70.70001616020969,0.0,65.346901,0.6769230215202017,0.34683499,-0.38036901,-0.52611798,1.0,0.0,0.0,0.0,94.79267501259767
2.4675,6247.1147,-0.4902976682885529,4.021128001498521,-4.678808342125587,3.1561288465140325,2.002983008445059,-0.971235779097114,-2.7519503669444845,16.81469042076524,-28.30869733215182,-74.603775,-73.43677072646081,0.0,74.603775,0.6666527776758152,0.3576,-0.35002801,-0.55242801,1.0,0.0,0.0,0.0,96.38150549395496
2.4888,6247.1347,-0.255126922328909,4.890234406510592,-4.191662467536929,2.7514180180088164,2.064406175232587,-0.9259442204064502,-2.849305561051491,16.547526719297373,-27.924245094040927,-83.093361,-77.31048413873954,0.0,83.093361,0.6528437235570085,0.36389199,-0.32454801,-0.57969499,1.0,0.0,0.0,0.0,98.48729767296503
2.5083,6247.1547,0.019638072653633376,5.720169042905516,-3.519620587018295,2.2498353839815866,2.213465182192062,-0.7561101091541034,-2.758169945743443,16.4653922116853,-27.49438347104772,-90.670853,-80.80465807985763,0.0,90.670853,0.6378078176908457,0.37096599,-0.299981,-0.60464603,1.0,0.0,0.0,0.0,100.7429049259142
2.5299,6247.1747,0.21080569145313044,6.412549299296696,-2.666659698032819,1.6582601704769784,2.4232928897016976,-0.4809567797118708,-2.8181245012303897,16.63502149038814,-26.982721169317298,-96.401901,-82.88630932435909,0.0,96.401901,0.6277784663085855,0.37697399,-0.27080399,-0.62485999,1.0,0.0,0.0,0.0,102.2271773493501
2.5457,6247.1947,0.32423132420636147,6.935290730866614,-1.689862007342171,1.0442822784298147,2.5714905228185176,-0.14165282430786816,-2.8256371539550518,16.913736384014875,-26.527849518912358,-100.071518,-84.85787133326127,0.0,100.071518,0.621924518459917,0.375579,-0.24133401,-0.64335698,1.0,0.0,0.0,0.0,103.0863807772235
2.5688,6247.2147,0.2580198279334196,7.180372160384959,-0.5606838799418714,0.4565700508241046,2.580372584654024,0.26052652160780476,-2.5192441931790963,17.325602390760224,-26.09785572954018,-102.342995,-86.49456879010448,0.0,102.342995,0.6182772472944152,0.371216,-0.214587,-0.65869898,1.0,0.0,0.0,0.0,103.61912240579069
2.5869,6247.2347,-0.0030576195362641556,7.041592673681009,0.7331573006693368,-0.07926314665293828,2.3927589190685223,0.701185567090487,-2.159418337229001,17.756656108412034,-25.652716100526362,-103.335045,-87.30678422840224,0.0,103.335045,0.6184914324825525,0.36564001,-0.18898199,-0.66937399,1.0,0.0,0.0,0.0,103.58789124413961
2.6197,6247.2547,-0.317901125956209,6.500048048325839,2.1088597411181755,-0.5052729365189,1.9823698978979778,1.134734777466233,-1.9627108036601566,17.984004705102034,-25.295976100958214,-103.136757,-87.58080882810376,0.0,103.136757,0.6229253207929181,0.35673901,-0.16568699,-0.676202,1.0,0.0,0.0,0.0,102.93985397997481
2.6557,6247.2746,-0.6297395316330308,5.62129834959627,3.4302154366684334,-0.7865605901030008,1.3807107597711439,1.5139692938286597,-2.0155723202076636,17.89940070427521,-25.139642504780284,-101.581306,-86.837043321628,0.0,101.581306,0.6332649428335027,0.34616801,-0.14706799,-0.67639798,1.0,0.0,0.0,0.0,101.41716602646127
2.6613,6247.2946,-0.8892723422545705,4.418412425563677,4.590164151532688,-0.9102977792263157,0.668185396847226,1.8019425246833576,-1.9717981948120222,17.81861189128025,-25.067007619699805,-99.737122,-85.42439269863684,0.0,99.737122,0.6444705399398172,0.34000599,-0.135287,-0.67137998,1.0,0.0,0.0,0.0,99.74802005370951
2.674,6247.3146,-1.046403618588669,2.9619557304623463,5.472662374142864,-0.9109761883157661,-0.058991522103991986,1.9541370206697266,-1.833556672252092,17.993601972947534,-24.989306047979937,-97.792122,-83.23260837422815,0.0,97.792122,0.6558521245428727,0.34077099,-0.12846801,-0.66123301,1.0,0.0,0.0,0.0,98.03141165772804
2.6941,6247.3347,-0.9827602769211907,1.408166400282569,6.00585418705224,-0.8069805602712266,-0.7174287406645125,1.941712964716608,-1.8741865809261196,18.443597994659264,-24.88647698075515,-95.447739,-80.13510391586334,0.0,95.447739,0.6691126696303541,0.34644499,-0.123047,-0.64585102,1.0,0.0,0.0,0.0,96.00276578034186
2.7099,6247.3547,-0.6898534654247284,0.16966726325714448,6.175370152541884,-0.6043611992605072,-1.2199444317517902,1.7943111898681015,-2.132831106442799,18.72841592541584,-24.974814408836767,-92.225647,-76.35537412231456,0.0,92.225647,0.6855686144956608,0.351639,-0.122481,-0.62557501,1.0,0.0,0.0,0.0,93.43931624380464
2.7296,6247.3747,-0.3739098017443716,-0.5340795690813533,6.04414789762002,-0.3554490521764564,-1.5228502768502605,1.6029824302990061,-2.060147653151457,18.727365736932267,-25.261714051371115,-89.281685,-73.14917372214373,0.0,89.281685,0.6981014361404644,0.356076,-0.13182899,-0.60702997,1.0,0.0,0.0,0.0,91.45024053892661
2.7492,6247.3948,-0.20732177075533542,-0.9632889977150656,5.6560266548158165,-0.11571554998013134,-1.6628406850933901,1.4426803851537544,-1.5790993351460028,18.935101112900206,-25.336428993449438,-87.760597,-70.66141530659617,0.0,87.760597,0.7024891169904341,0.36631,-0.143997,-0.592951,1.0,0.0,0.0,0.0,90.74590216887773
2.767,6247.4148,-0.18889091825256443,-1.1262536567689272,5.060219789910381,0.07402140582982775,-1.670269745183257,1.3684953321512248,-1.0708376696671564,19.281300079703595,-25.237012351289692,-86.970367,-68.42751593901444,0.0,86.970367,0.7033701016656875,0.379143,-0.15429799,-0.58113098,1.0,0.0,0.0,0.0,90.60396600640183
2.7865,6247.4348,-0.330693127601843,-1.1404353048101363,4.31750619655015,0.18713085120444006,-1.6058188439388967,1.3550045995169504,-0.8770676766227776,19.68168672833064,-25.0315343905854,-85.976616,-65.60302314781539,0.0,85.976616,0.7060269690193427,0.39335701,-0.15901101,-0.56702,1.0,0.0,0.0,0.0,90.17485771057684
2.8091,6247.4548,-0.6143741970217391,-1.1531774211765526,3.472119832825218,0.22429231329204952,-1.536242027031853,1.3419043344194663,-1.0603288495194096,20.038646792369622,-24.809486691533827,-84.456665,-62.12976984118246,0.0,84.456665,0.712018343912978,0.40752101,-0.157444,-0.549698,1.0,0.0,0.0,0.0,89.2012569741247
2.8285,6247.4749,-1.0046611742144185,-1.1208451280142477,2.548839340385676,0.20937595097000472,-1.4877627639790645,1.32430371245482,-1.2598806535851264,20.07642763373645,-24.830887720107377,-82.370796,-58.89758816644441,0.0,82.370796,0.7198736074205248,0.41686001,-0.156233,-0.53254199,1.0,0.0,0.0,0.0,87.91190756257208
2.8475,6247.4949,-1.540478356644253,-0.995048274340732,1.5402696462131082,0.1522083311776221,-1.4506500408097838,1.3457533370307928,-0.7998488484379909,19.807982907165215,-25.142929524221785,-80.353271,-56.43773745190556,0.0,80.353271,0.7246658249297947,0.42235899,-0.164327,-0.519104,1.0,0.0,0.0,0.0,87.11788899244823
2.8709,6247.5149,-2.0450015534873343,-0.8809772327079449,0.4528804493744083,0.07811117339649531,-1.416730330369581,1.425480392601247,-0.117489218210455,19.662620930679935,-25.384430582014286,-78.521965,-53.86319916076081,0.0,78.521965,0.727696095284453,0.429811,-0.173335,-0.50564402,1.0,0.0,0.0,0.0,86.61280855174422
2.894,6247.535,-2.3324894632975854,-0.7804186410136498,-0.6342656571667398,-0.024126210615890264,-1.3968730948882548,1.5566882234424941,0.062307357667901186,19.815773501071327,-25.429464466907795,-76.652763,-50.99063992318736,0.0,76.652763,0.732798004908665,0.43859401,-0.173737,-0.490365,1.0,0.0,0.0,0.0,85.75704714337462
2.9064,6247.555,-2.5165048203874703,-0.6463334805964978,-1.6653261607586476,-0.21421252515452005,-1.41960478526117,1.7223829730551372,-0.00850717292531833,20.13573496632154,-25.39684070410629,-74.709724,-48.06400844942223,0.0,74.709724,0.738570950484691,0.44757101,-0.171214,-0.47421399,1.0,0.0,0.0,0.0,84.78035131087306
2.9304,6247.575,-2.6401132758119927,-0.5010253771564566,-2.5942033663520174,-0.4865951332113627,-1.4970272885466325,1.9138354226877339,-0.1906744503516702,20.294159304119873,-25.538408182786725,-71.955963,-45.259284460091855,0.0,71.955963,0.746167900819755,0.45254701,-0.17093299,-0.45740199,1.0,0.0,0.0,0.0,83.48097785607663
2.9465,6247.595,-2.6749262701694634,-0.5080476110922048,-3.39866295309883,-0.770862760346171,-1.6361356418092656,2.1139627095864375,-0.5524169309751237,20.217434747546292,-25.888060087723563,-68.007545,-42.30143379209987,0.0,68.007545,0.7566985798455286,0.45362499,-0.17237,-0.43808699,1.0,0.0,0.0,0.0,81.65197984480288
2.9668,6247.6151,-2.559693816244785,-0.7704111927196252,-4.07076342693257,-0.9907032055846702,-1.8285512816806946,2.300386442873334,-1.0943719027617842,19.94046181893473,-26.376079880582555,-63.006443,-39.029232673659266,0.0,63.00644299999999,0.7695710628953116,0.45253199,-0.17437901,-0.41541201,1.0,0.0,0.0,0.0,79.36922742430046
2.993,6247.6351,-2.2393177696746074,-1.2333399906479476,-4.61453950600729,-1.1156787574354183,-2.0337522701247384,2.4535010158632216,-1.636620406187614,19.447245300423358,-26.983441041424314,-57.151802,-35.48778186140945,0.0,57.151802,0.783347112867597,0.44985899,-0.17841899,-0.39007801,1.0,0.0,0.0,0.0,76.86387240562169
3.0095,6247.6551,-1.6766672439950219,-1.7777152165096635,-5.042212745805225,-1.1625659786066136,-2.2136025729311255,2.547175980187096,-2.0718830929252556,18.82071906714761,-27.63894305117284,-50.709805,-31.64198477879147,0.0,50.70980500000002,0.7966686091713417,0.447162,-0.184494,-0.362391,1.0,0.0,0.0,0.0,74.37370946007898
3.0347,6247.6752,-0.8398742191112937,-2.2823186015292705,-5.368381362058528,-1.1676558953928784,-2.352694316118691,2.5532574630556346,-2.5168815204612702,18.21059292333294,-28.233072307592717,-44.159538,-27.61487995463079,0.0,44.159538,0.8089450704590516,0.44595,-0.189496,-0.332908,1.0,0.0,0.0,0.0,72.01402073242052
3.0556,6247.6952,0.24317451170493298,-2.6302693959675745,-5.597936829350859,-1.188204068202601,-2.4278506978928123,2.4627219663248794,-2.9409792957113368,17.58263354339816,-28.7946726030902,-37.52002,-23.53352831179706,0.0,37.52001999999999,0.8202975673592601,0.445196,-0.19384401,-0.30221999,1.0,0.0,0.0,0.0,69.77081502546463
3.0773,6247.7152,1.4651433631206063,-2.7598101515761395,-5.690921211261463,-1.2798252688774099,-2.403923370866363,2.295121798133034,-3.0717475447687637,16.778840959988184,-29.436250638456922,-30.261824,-19.249351906468796,0.0,30.26182399999999,0.8308890491750507,0.44262299,-0.20204,-0.26997799,1.0,0.0,0.0,0.0,67.6196531074865
3.0868,6247.7352,2.685179844016319,-2.7364586468472973,-5.594638022581274,-1.460911870141093,-2.2645574016624055,2.0736545336944974,-2.7041235705624254,15.967165041908222,-30.05249865163499,-22.792398,-14.848636467680247,0.0,22.79239799999999,0.838668868742199,0.43933401,-0.216152,-0.238534,1.0,0.0,0.0,0.0,66.00035750995875
3.1323,6247.7553,3.8004266802393256,-2.6766536949798447,-5.2696634862954514,-1.6942378791275927,-1.9919852618168261,1.8448205673001565,-2.022106703659827,15.259043898397168,-30.529953665856745,-16.042988,-10.822832791027578,0.0,16.04298800000001,0.843735622561072,0.434663,-0.23363,-0.21117599,1.0,0.0,0.0,0.0,64.92655940867824
3.1386,6247.7753,4.732155218004374,-2.621617294918763,-4.672411381112444,-1.9183101947681536,-1.582192131976012,1.6431361083372586,-1.2410332717767967,14.412053161805943,-30.938955400863485,-10.078343,-7.188800432168127,0.0,10.07834299999999,0.8491263416505342,0.42480901,-0.252767,-0.186093,1.0,0.0,0.0,0.0,63.7664554731157
3.155,6247.7953,5.433469181515148,-2.496236576280002,-3.804456258540121,-2.062387784233489,-1.1072038846817012,1.4353915969462587,-0.6010096406882998,13.312355219797652,-31.296760210506818,-4.46484,-3.4174095325054425,0.0,4.4648400000000095,0.8570322988136211,0.40951201,-0.27034,-0.15719999,1.0,0.0,0.0,0.0,62.03003021510877
3.1731,6247.8153,5.863536508116108,-2.311737870190576,-2.775417049795175,-2.0954781922258396,-0.6640533191601129,1.1647423404579875,-0.17258880795370796,12.249154662408761,-31.482674607867217,0.047678,0.03908896943196783,0.0,0.04767799999999056,0.8656434302928429,0.391583,-0.28435799,-0.128315,1.0,0.0,0.0,0.0,60.087484043331
3.1878,6247.8354,6.060946710982235,-2.1342584459091616,-1.7441022220082978,-2.002988867388781,-0.3389437949746508,0.8211815910857108,-0.05609822846006973,11.506433359725683,-31.420521811785143,2.956032,2.557547574127353,0.0,2.9560319999999933,0.8735519271291546,0.37439701,-0.292806,-0.104874,1.0,0.0,0.0,0.0,58.25188556994793
3.2074,6247.8554,6.0232953509233145,-1.9422562966778791,-0.7471659862000379,-1.8041123872144686,-0.16038673783392665,0.41712105621779416,0.06564314709478691,10.90788404201762,-31.213524634509394,4.852877,4.407974380694444,0.0,4.8528770000000065,0.8802776936411599,0.35681999,-0.30048999,-0.086582,1.0,0.0,0.0,0.0,56.648240802514714
3.2312,6247.8754,5.761763289242185,-1.714915919768429,0.17452452622470638,-1.5357134928053149,-0.10984417219109656,-0.011280179272169639,0.43026888664544494,10.41724211464269,-30.9106433422593,6.256645,5.96532911090446,0.0,6.256644999999992,0.8846471405171893,0.33972201,-0.31103399,-0.072431,1.0,0.0,0.0,0.0,55.58374094617504
3.2541,6247.8955,5.387853806910049,-1.511172756106256,0.9123740832262612,-1.2576257264330228,-0.12234940146672524,-0.41291230020997705,0.9391719127473053,10.195391253344052,-30.517544779809356,6.874182,6.854879388884406,0.0,6.8741819999999905,0.8862429789329899,0.32510099,-0.323392,-0.065577,1.0,0.0,0.0,0.0,55.19025409199899
3.2739,6247.9155,4.982083867498558,-1.3160235874449366,1.4309148743570343,-1.0367801193291997,-0.1355450424096588,-0.7768397131892273,1.537317610903795,10.269610342687216,-30.10679838559226,7.121794,7.404966382761782,0.0,7.121793999999994,0.8853573170512908,0.313656,-0.33726299,-0.063372,1.0,0.0,0.0,0.0,55.408950054065485
3.291,6247.9355,4.612178887106867,-1.1193743726098733,1.7417452320533187,-0.9091153001209288,-0.1108002827511172,-1.125824757584374,2.1037446483724924,10.596249105212756,-29.76372388073827,7.279706,7.876062875039396,0.0,7.2797060000000045,0.8830903747687096,0.30439901,-0.35149401,-0.062806,1.0,0.0,0.0,0.0,55.9651389238047
3.3078,6247.9555,4.314173441316743,-0.9549173474315076,1.8936242331635338,-0.8652723866038781,-0.05325374626513246,-1.4948789469098211,2.485511582529376,11.085957752373037,-29.549447557549804,7.186359,8.079352759745191,0.0,7.18635900000001,0.8810004199981291,0.295044,-0.36435601,-0.063498,1.0,0.0,0.0,0.0,56.47344010823641
3.3275,6247.9755,4.0900425581914055,-0.8786575562117767,1.9488177112626701,-0.864970410744488,-0.008757942963123377,-1.8968707391035138,2.5290402993177254,11.627973173447653,-29.49856440284965,6.371123,7.429291224317147,0.0,6.371123000000011,0.8806629390537789,0.28300801,-0.373878,-0.067487,1.0,0.0,0.0,0.0,56.55512591705275
3.3509,6247.9955,3.8137278661283274,-0.908897395439439,1.9916064126696718,-0.8517922764043699,-0.030208620017295296,-2.314742629460291,2.419472902149188,12.08981309073515,-29.630941933552304,4.560597,5.550854477570244,0.0,4.560597000000001,0.8814867550879137,0.26565301,-0.38272399,-0.077019,1.0,0.0,0.0,0.0,56.35553370218221
3.3675,6248.0155,3.346279443041665,-1.040824205298315,2.064488416007663,-0.7887549676131194,-0.12983553506429102,-2.710256404864125,2.337671854927961,12.622608909684704,-29.872105464516522,2.294781,2.931367826070707,0.0,2.2947810000000004,0.8810880807490248,0.246775,-0.393181,-0.090524,1.0,0.0,0.0,0.0,56.45220445639466
3.388,6248.0356,2.589686328868754,-1.2025337467811985,2.1566617653681845,-0.6760562505371253,-0.2743977382301943,-3.0429065055030002,2.4876582440250514,13.266880586731808,-30.145885156816085,-0.229061,-0.31003475776038847,0.0,0.2290610000000015,0.877490011612098,0.228521,-0.407552,-0.108124,1.0,0.0,0.0,0.0,57.317896832139056
3.4095,6248.0556,1.587595674135238,-1.2641429720398314,2.2149987777876827,-0.5583596599594932,-0.42327419807862965,-3.2749544088777,2.7176290538289307,13.958096647939165,-30.389542016516394,-2.82761,-4.07215835593183,0.0,2.827609999999993,0.8713492835017999,0.21220499,-0.423482,-0.127994,1.0,0.0,0.0,0.0,58.76836896261184
3.4361,6248.0756,0.39464226588148393,-1.0787455477864807,2.20740853871526,-0.4828038330815799,-0.563485186217058,-3.3730016280920445,2.925436002350821,14.494719792394662,-30.628998953411248,-5.562407,-8.550382376121563,0.0,5.562407000000007,0.8639777942030686,0.195584,-0.439412,-0.149018,1.0,0.0,0.0,0.0,60.46762621830883
3.4548,6248.0956,-0.9945064005848997,-0.560064823530749,2.0896294608595145,-0.47629250921418365,-0.7093905152625553,-3.301757505032313,3.174821078634349,14.80158992693294,-30.877995479323157,-8.311521,-13.71052522085299,0.0,8.311520999999999,0.8554090404373804,0.177591,-0.455984,-0.169751,1.0,0.0,0.0,0.0,62.39009355124971
3.472,6248.1157,-2.509501985554931,0.2577917608765654,1.7792908741092894,-0.5942488467715261,-0.8876137895959686,-3.0238124861210887,3.394353536161502,15.074457577536977,-31.05103545709526,-11.114543,-19.63036611505974,0.0,11.114542999999998,0.8460081090942331,0.159826,-0.47150999,-0.190799,1.0,0.0,0.0,0.0,64.43978433892256
3.4896,6248.1357,-3.973053369613007,1.299517274952025,1.23761987190316,-0.9175749359657159,-1.1496524020915535,-2.511165970416525,3.3772519904150133,15.514550315497317,-31.080335785311775,-14.034762,-26.096467992157798,0.0,14.034762,0.8374152505587773,0.143085,-0.48293599,-0.21221501,1.0,0.0,0.0,0.0,66.26365082796913
3.5096,6248.1557,-5.244913881519812,2.4477110025377273,0.4560139777758536,-1.4753536318267442,-1.5503330585668333,-1.7639459892505505,3.077330147036712,16.121467283700813,-30.97838364883831,-16.453077,-31.719324861679524,0.0,16.453077000000008,0.8306529393128035,0.127249,-0.491447,-0.228699,1.0,0.0,0.0,0.0,67.66826162410105
3.5344,6248.1758,-6.208231405290498,3.4860264304250723,-0.5927202948439572,-2.2335718398874995,-2.0801076320981036,-0.8239318327145366,2.58569085058546,16.769727562388265,-30.805849548265847,-17.689518,-35.40409849886563,0.0,17.689517999999993,0.8256846516962145,0.111211,-0.50085503,-0.234566,1.0,0.0,0.0,0.0,68.68406799089514
3.5538,6248.1958,-6.786565245521826,4.081775971211973,-1.9073298117429571,-3.1052568986263234,-2.64196049871596,0.20162771702307758,2.0940594958973104,17.50254606664899,-30.533719349467617,-17.273586,-36.75096607766739,0.0,17.273585999999995,0.8206576399285878,0.096717,-0.51535398,-0.227106,1.0,0.0,0.0,0.0,69.6986393713218
3.5707,6248.2158,-6.909414343527289,3.976095473091624,-3.341306466345464,-3.9719170358191267,-3.1223290365723306,1.184657743582794,1.5789401984116824,18.291720887166857,-30.194950097012367,-14.972629,-35.19666286174606,0.0,14.972629000000012,0.8147715614173704,0.084951,-0.53602499,-0.20398,1.0,0.0,0.0,0.0,70.87043867958197
3.6037,6248.2358,-6.519175130404328,3.1944670774191954,-4.6043677163428,-4.730229166555092,-3.38762263071331,2.055057246290284,1.0437664414841488,18.85911821702079,-29.97992879365217,-11.375389,-30.860023280486523,0.0,11.375389000000013,0.8075896640937155,0.071587,-0.561306,-0.166162,1.0,0.0,0.0,0.0,72.27780169367452
3.62,6248.2559,-5.645610645015099,1.957067251490209,-5.3260006392118395,-5.314610765850989,-3.319958600642683,2.800558439628766,0.501889000716762,19.145026549447945,-29.91572147115971,-7.657092,-24.41218040862467,0.0,7.657092000000006,0.8000865559394184,0.05336,-0.585302,-0.120149,1.0,0.0,0.0,0.0,73.72326273475288
3.6484,6248.2759,-4.48058109180625,0.5213406290190801,-5.347156614646086,-5.67284975985851,-2.9540668532544005,3.400613927720664,-0.10341124563590576,19.260131547881432,-29.84344922226154,-3.9336,-14.568505058362796,0.0,3.9336000000000126,0.793493985330059,0.033526,-0.60379899,-0.068338,1.0,0.0,0.0,0.0,74.97352138182421
3.6613,6248.2959,-3.166637783558431,-0.8048118151268722,-4.763780057667609,-5.80942074744431,-2.401363692136164,3.851510107699771,-0.8844679488910148,19.155882173098238,-29.686527978533245,0.093739,0.3833189561746152,0.0,0.09373899999999935,0.7886740932235822,0.013909,-0.61457598,-0.009802,1.0,0.0,0.0,0.0,75.87644895042064
3.6689,6248.316,-1.7680824571983562,-1.7831323038051463,-3.8166274480004105,-5.792535778941903,-1.798122325474104,4.134681126041502,-1.8525583168117317,18.93172004850915,-29.313576788260708,4.537184,18.688846115913968,0.0,4.537183999999996,0.785242421655249,-0.00411,-0.616862,0.053467,1.0,0.0,0.0,0.0,76.51379027642042
3.7015,6248.336,-0.37113469429791146,-2.3170150626572537,-2.7749663084858245,-5.717704936481138,-1.2825354814332024,4.227169228294476,-2.825841484316749,18.72960405082477,-28.621203605698263,9.325183,35.934015098126075,0.0,9.32518300000001,0.7807669934974198,-0.020511,-0.61319,0.118238,1.0,0.0,0.0,0.0,77.33829131565436
3.7129,6248.356,0.9282873434843559,-2.396863381815187,-1.7980091262149287,-5.626899048087659,-0.9345191412813266,4.176047419832821,-3.6702423702023834,18.53286709746175,-27.670382150747756,14.159673,49.39834967507756,0.0,14.159672999999998,0.77402888031941,-0.038865,-0.60516298,0.182062,1.0,0.0,0.0,0.0,78.56585941534671
3.7307,6248.376,2.0667474884056416,-2.0881044398557105,-0.9515975837368611,-5.49807540490328,-0.8351760127243735,4.0628140081735875,-4.41199253475828,18.37307734042866,-26.581467374711426,19.197666,60.184014645989855,0.0,19.197665999999998,0.7639431312412718,-0.05911,-0.59406197,0.244923,1.0,0.0,0.0,0.0,80.37388056391521
3.7485,6248.3961,2.9465467649645727,-1.512958602563217,-0.22898258582468856,-5.313881614417618,-1.0079172383660249,3.9424517986802705,-4.9119530100146065,18.369111411957626,-25.55347538677119,24.414455,70.14639638393378,0.0,24.414455000000004,0.7478480078020129,-0.079718,-0.58408302,0.30531201,1.0,0.0,0.0,0.0,83.19138406686976
3.7696,6248.4161,3.54096852156049,-0.7790199367887229,0.41453713998811637,-5.0522495960770675,-1.3557342194422664,3.888343524756951,-5.118722246275381,18.464973835157252,-24.86127778940896,29.565866,79.65023810239903,0.0,29.565866,0.7258665570875544,-0.101602,-0.57639301,0.361339,1.0,0.0,0.0,0.0,86.91803404731104
3.7905,6248.4361,3.857122009509924,-0.0021577544499606915,1.0256561134117774,-4.742004589223418,-1.772596153235515,3.9116515036312016,-5.011607166388317,18.62740349501921,-24.532186189190753,34.433815,89.50372102558826,0.0,34.43381500000001,0.697487588312982,-0.124026,-0.57327199,0.41168901,1.0,0.0,0.0,0.0,91.54844238823314
3.8076,6248.4562,3.977664813114583,0.7128167058867234,1.6251498584785171,-4.415071077582373,-2.2180751630792352,3.9713891840902833,-4.8333421618748975,18.98511740751519,-24.24225243019402,39.067657,100.48610166443433,0.0,39.067657,0.6625713279315666,-0.142141,-0.57665002,0.456366,1.0,0.0,0.0,0.0,97.00745407575168
3.8378,6248.4762,4.01300220275744,1.4330996076189377,2.193880265142621,-4.054881236037808,-2.657965738951645,4.031162128303119,-4.97619184208566,19.475090094281754,-23.8293932758433,44.074753,112.2777477484767,0.0,44.07475299999999,0.6214249934986193,-0.153547,-0.58426797,0.49888399,1.0,0.0,0.0,0.0,103.1594602331871
3.8509,6248.4962,3.995898058338323,2.291989311968953,2.673365281410266,-3.6578160366050003,-2.971172584416803,4.1009529180344115,-5.33253139334318,19.84751290874651,-23.50898500135849,49.683147,123.07687239225942,0.0,49.68314699999999,0.5773430966499554,-0.164875,-0.59026301,0.53951901,1.0,0.0,0.0,0.0,109.47222726448712
3.8685,6248.5162,3.78613620879593,3.180583997992016,3.0464693576375605,-3.24265378729174,-3.1445281799319584,4.1680821165105915,-5.564247812320328,20.157543148803434,-23.357044169815357,55.39661,133.15460717846926,0.0,55.39661000000001,0.530680985107455,-0.17795201,-0.59646797,0.57527101,1.0,0.0,0.0,0.0,115.89704439671922
3.8912,6248.5363,3.338155792109013,3.8611677641272806,3.303658826504458,-2.818524110768263,-3.1979360386722377,4.2618089130101104,-5.5126870907161,20.478618792143443,-23.340137457787538,60.712219,142.54013678232252,0.0,60.712219000000005,0.4829544922457385,-0.19007701,-0.60487098,0.60395098,1.0,0.0,0.0,0.0,122.24291397107405
3.9125,6248.5563,2.7162545535303506,4.164229412214393,3.437045776225851,-2.3856276868008295,-3.155803651206588,4.431741014025713,-5.303897924210962,20.751806700535237,-23.37596376709521,65.912994,150.80168686421734,0.0,65.912994,0.4347793044959234,-0.19547699,-0.61571801,0.62741297,1.0,0.0,0.0,0.0,128.45749697215905
3.9458,6248.5763,1.9879197456381341,4.055129440305645,3.4461488061650307,-2.042664212222385,-2.9775020966575725,4.698038541415708,-4.647953786730733,20.90618069323565,-23.481113432555993,71.157509,157.73148775186598,0.0,71.157509,0.387941286964741,-0.19706701,-0.62682801,0.64633799,1.0,0.0,0.0,0.0,134.3470784545036
3.9499,6248.5963,1.1711998361343388,3.5558243903892235,3.3466290701849424,-1.8365795119057267,-2.69718452036376,5.019018230767689,-3.657325754862418,21.0325103148935,-23.528032307777014,77.13884,163.6106018484465,0.0,77.13884000000002,0.3394717788473138,-0.19223399,-0.63883799,0.66309202,1.0,0.0,0.0,0.0,140.3106094810292
3.9672,6248.6163,0.3406592140362734,2.7708315977706213,3.1255731639549307,-1.804840829500276,-2.3347480071697952,5.327223775957142,-2.463611077137216,21.213982911425227,-23.50098707410244,85.934464,168.5515597449474,0.0,85.93446399999999,0.287531190323483,-0.180683,-0.65027899,0.67957097,1.0,0.0,0.0,0.0,146.57958085275845
3.9902,6248.6363,-0.3212926653704802,1.8264722741219606,2.7754433334765896,-1.94903109389009,-1.9181114215480946,5.542594839556623,-1.1566140951311943,21.528032039620108,-23.397165352763384,101.40773,172.41484634931487,0.0,101.40773000000002,0.2355336603498957,-0.164518,-0.658261,0.69580901,1.0,0.0,0.0,0.0,152.75383539332168
4.0116,6248.6563,-0.6500569122626129,0.884037557831824,2.317440684922028,-2.1830444146564254,-1.5052654481335006,5.583686490905581,-0.01402338088298749,21.96179366932924,-23.19370433055508,126.259529,175.11099980308285,0.0,126.25952899999999,0.1868492953359986,-0.14376201,-0.66121602,0.71218902,1.0,0.0,0.0,0.0,158.46206104082793
4.0314,6248.6763,-0.6375408476581016,0.1741936369874575,1.7792337484382141,-2.3766900765207772,-1.146144723105094,5.369173237381566,0.5142417430015223,22.346270923421095,-22.99897563289996,152.807739,176.97517316972937,0.0,152.80773899999997,0.1381309863945777,-0.115968,-0.65790999,0.73118103,1.0,0.0,0.0,0.0,164.12058222312314
4.0506,6248.6963,-0.47027283943907927,-0.1175290186837461,1.181461769917604,-2.461787947028552,-0.8402062260758099,4.81895176999162,0.4526281605286188,22.495126402938617,-23.002651389534886,172.236542,178.79300693335153,0.0,172.236542,0.0866508565715283,-0.085213,-0.64618301,0.75344402,1.0,0.0,0.0,0.0,170.0580754083727
4.0738,6248.7163,-0.2650786689958704,-0.1271871172984893,0.5480671756654054,-2.359732505261395,-0.6047727385029839,3.9492594633723135,-0.04651064861796042,22.55575452808486,-23.087042265415622,-178.305969,-179.64957947513182,0.0,178.305969,0.0409356069401624,-0.055225,-0.62890399,0.77443802,1.0,0.0,0.0,0.0,175.30781389023286
4.0902,6248.7363,-0.12171467885334064,-0.12056568616845365,-0.06352101925578779,-2.0848617070049986,-0.41598271740557535,2.894654797614759,-0.8151271641416145,22.678897209279043,-23.09152113780575,-175.117355,-178.77002402240396,0.0,175.117355,0.0084626543305996,-0.028468,-0.61148298,0.79070002,1.0,0.0,0.0,0.0,179.03023967137912
4.109,6248.7563,-0.2774489132417318,-0.30463724017549154,-0.5450165272913576,-1.7966133429009379,-0.18306096593987353,1.8170825174059322,-1.0887135099930936,22.95257508231465,-22.919765007593014,-172.71814,-177.91394363305147,0.0,172.71814,0.0112674710312142,0.015334,0.59816098,-0.80115002,1.0,0.0,0.0,0.0,178.70881560668803
4.1335,6248.7763,-0.7144520938584864,-0.7522565160052248,-0.8158236654002042,-1.5757497567056262,0.18461783790641556,0.9082647407951442,-0.7454464696308808,23.534615176532185,-22.42002997173853,-171.122375,-177.33411022469244,0.0,171.122375,0.018044689690854,0.014727,0.59241802,-0.80529398,1.0,0.0,0.0,0.0,177.9321186450675
4.1498,6248.7963,-1.295947651994731,-1.1829218016360894,-0.8562958414486737,-1.444152464057439,0.7394100941108294,0.26061583795449456,-0.2670439454863853,24.06023414790577,-21.99096532861639,-171.635376,-177.38313192762644,0.0,171.635376,0.0163530712283263,0.016343,0.58717197,-0.80913198,1.0,0.0,0.0,0.0,178.12599254132036
4.1715,6248.8163,-1.8403979230207312,-1.3440264576969567,-0.6587894790017721,-1.377747960629781,1.4345570111838368,-0.1973575842015302,-0.1269443088953901,24.309257087664538,-21.95771554562657,-175.04303,-178.3325491770987,0.0,175.04303,0.0101958993609588,0.010786,0.57682198,-0.81673503,1.0,0.0,0.0,0.0,178.83161575246126
4.194,6248.8363,-2.1911303464540977,-1.1821587740057908,-0.2294671671353079,-1.3451433390720962,2.1768548182666594,-0.6215044453282986,-0.5338579791432888,24.29003938768906,-22.30658042100532,179.265121,179.7757833786725,0.0,179.26512100000002,0.0015988742348805,-0.005845,0.56114697,-0.827694,1.0,0.0,0.0,0.0,179.81678243067535
4.2104,6248.8563,-2.255000352856933,-0.8590662840643812,0.39270971971145663,-1.3239004276981166,2.902611978376818,-1.0904985717762872,-1.181504188289579,24.25732720330045,-22.624156129602248,172.29129,176.86426381193158,0.0,172.29129,0.0134679240782771,0.029407,-0.54616803,0.83705097,1.0,0.0,0.0,0.0,178.45664292366104
4.2358,6248.8763,-1.9781298814262234,-0.5097610642651951,1.1549964592707358,-1.3013985062171818,3.58902501068623,-1.565784503080021,-1.6490837794876443,24.29369844689221,-22.74472867678294,163.979095,172.9663236870121,0.0,163.97909500000003,0.0385164868348537,0.053697,-0.53441501,0.84263498,1.0,0.0,0.0,0.0,175.58524370318358
4.2491,6248.8962,-1.3312534306318926,-0.20889166725202202,1.9693022401463853,-1.2362954809195386,4.24414576220122,-1.9377883284255977,-1.6191099166046736,24.3667087586701,-22.733818425051407,154.707214,168.08015620078956,0.0,154.70721400000002,0.0760593590572436,0.074152,-0.52528203,0.84427202,1.0,0.0,0.0,0.0,171.27581403130893
4.2694,6248.9162,-0.3105600459974571,0.03391148385794196,2.710998017557767,-1.0938539419284976,4.847895952208324,-2.138391714375491,-1.2737689185789898,24.282028887908556,-22.801417362148367,145.389359,162.3358655095654,0.0,145.389359,0.1233566822210249,0.092509,-0.51482201,0.84331697,1.0,0.0,0.0,0.0,165.82826771354917
4.2905,6248.9362,1.0798461175439318,0.17866221136004423,3.236996191824824,-0.9273932891544814,5.3488343834223295,-2.168657070448547,-1.3534538702102803,24.01440911698954,-22.936297075135954,137.218887,155.96952485933403,0.0,137.218887,0.1720652513451774,0.117817,-0.50044203,0.84028,1.0,0.0,0.0,0.0,160.18416221357654
4.3106,6248.9562,2.626426697376067,0.1499124684130626,3.440030281014682,-0.7443238838581911,5.72138106673886,-2.0812321370342346,-1.9092752500424286,23.818400213164878,-22.89609616207915,130.692108,149.45171450080517,0.0,130.69210799999996,0.216902869501166,0.150732,-0.48437101,0.83403701,1.0,0.0,0.0,0.0,154.9456230782048
4.334,6248.9762,4.0676229959189225,-0.11257240659336976,3.3203298461288426,-0.5059730108620857,5.96381228743311,-1.9458658206254706,-2.4820065335326484,23.88497596360057,-22.521485992307838,125.229866,142.93249214722752,0.0,125.22986600000002,0.2588915967813163,0.18663301,-0.46966001,0.82314199,1.0,0.0,0.0,0.0,149.9913928239333
4.3497,6248.9962,5.225548558113966,-0.5916634282519597,2.9528025117766674,-0.22705592905628502,6.096515429198332,-1.8068261777543304,-2.788215588977991,24.183248072727274,-21.846314835842097,120.584747,136.55004648718477,0.0,120.584747,0.2978108194221961,0.22301,-0.457019,0.80790401,1.0,0.0,0.0,0.0,145.3476735836138
4.3737,6249.0162,6.000204346154057,-1.1985393416655032,2.4406269070911932,0.11610531053821815,6.169288654579132,-1.6764815816682226,-2.5306837838551104,24.52859410426587,-21.131793589447618,116.578461,130.4127767555197,0.0,116.578461,0.3344587101159721,0.25662199,-0.44584,0.789626,1.0,0.0,0.0,0.0,140.92074848864772
4.393,6249.0362,6.3732040495058335,-1.7953785594353118,1.8748016565073726,0.6054670446089669,6.2255151039120955,-1.5688559605140187,-1.485050325588733,24.66137854005241,-20.764877078220014,112.917374,124.5268441102907,0.0,112.917374,0.3711818248177565,0.28405201,-0.434986,0.76962698,1.0,0.0,0.0,0.0,136.4229560919887
4.4096,6249.0562,6.476664352450559,-2.2368953590240586,1.2610346519666997,1.251323619531787,6.275007147055265,-1.504068617075744,0.03794730228990706,24.412577351911953,-20.82962817193558,109.568123,118.77117749242295,0.0,109.56812300000001,0.4073388267289273,0.30830401,-0.423491,0.74811703,1.0,0.0,0.0,0.0,131.92445335158146
4.4408,6249.0762,6.544678299116654,-2.5003761943284424,0.5047758396942079,1.916404970623864,6.322855872349064,-1.4726566419462659,1.2952315338011091,24.015276864221644,-20.879013709155846,106.899071,113.00623169006623,0.0,106.89907099999999,0.4367365363846033,0.33989,-0.41308901,0.723252,1.0,0.0,0.0,0.0,128.2083120784167
4.4565,6249.0962,6.640328051706139,-2.6623599057223633,-0.41931930907031223,2.4892848155889586,6.351493575149592,-1.4902692742450179,2.167626984446323,23.73473426170569,-20.631388412559833,104.903801,107.14928524053303,0.0,104.90380099999999,0.4571473912808864,0.38131899,-0.40672699,0.692954,1.0,0.0,0.0,0.0,125.59362698560989
4.4697,6249.1162,6.646504901015461,-2.8119471693286027,-1.4199308273045368,2.9744302648633507,6.299930462751834,-1.5864516184469628,3.138768691181496,23.47931778002131,-20.31308643031119,102.9673,101.22374779326135,0.0,102.96730000000002,0.4732414536266238,0.42449,-0.405976,0.65653199,1.0,0.0,0.0,0.0,123.51017424682972
4.499,6249.1362,6.454438693561274,-2.95583152758131,-2.386503603477732,3.418241701330453,6.114881125317871,-1.7879539798666986,4.410697643093409,22.936462344321814,-20.422477777408723,100.694313,95.41452790801176,0.0,100.69431299999997,0.4904208629052189,0.461496,-0.40843901,0.61618698,1.0,0.0,0.0,0.0,121.26350514999743
4.5146,6249.1562,6.038122609031761,-3.052520603509755,-3.2436784006323833,3.8460582036177184,5.806167738053748,-2.0887343262756137,5.632417529985151,22.015447443314862,-21.170931433063227,98.259369,89.77881828347631,0.0,98.25936899999999,0.5093338774455316,0.49243101,-0.41083401,0.573852,1.0,0.0,0.0,0.0,118.76106033043003
4.5383,6249.1762,5.390293477955396,-3.025261827386952,-3.832738140666115,4.2715298298198485,5.426374392470691,-2.4788177499400623,6.531378183979155,20.806846649411654,-22.46933665523152,96.030327,84.65083077814896,0.0,96.030327,0.5269263892397682,0.51830399,-0.41245899,0.532529,1.0,0.0,0.0,0.0,116.40396482133406
4.5496,6249.1962,4.595683438129817,-2.887839608139589,-4.021737416076899,4.658538217626518,5.063370116972536,-2.9308399667443483,7.101823847192434,19.6143509384137,-23.973339390901778,94.14209,80.2550227525783,0.0,94.14209,0.5396438977198574,0.541403,-0.416201,0.49238601,1.0,0.0,0.0,0.0,114.68119857646927
4.5677,6249.2162,3.7966149549887414,-2.785228075726681,-3.807999548393992,4.907526956204217,4.818545681218379,-3.3731576249206663,7.59375672996171,18.85435434190142,-25.289127558025257,92.316734,76.60014405958526,0.0,92.316734,0.5456893915077693,0.56391698,-0.42727199,0.449065,1.0,0.0,0.0,0.0,113.85642633644684
4.5877,6249.2362,3.1594177142047184,-2.864126479813785,-3.3289316881456994,4.859134148096235,4.785682285842232,-3.720494831149958,8.145064818989646,18.75564557204487,-26.27453382145,90.229965,73.42045630248226,0.0,90.22996499999999,0.5467930278478866,0.58622301,-0.44620001,0.39782599,1.0,0.0,0.0,0.0,113.70544351239543
4.6109,6249.2562,2.7955265787497168,-3.1690288033800367,-2.8049406184919476,4.401556660208785,5.041612593420715,-3.849778047924886,8.733461190670884,19.234877184880528,-26.950541566818966,87.925919,70.4770654647049,0.0,87.92591900000002,0.5461777054906387,0.60659403,-0.46762401,0.33920699,1.0,0.0,0.0,0.0,113.78963860628637
4.6316,6249.2762,2.6447225954149673,-3.61034037874288,-2.4537004934150666,3.6687295181827233,5.5227471616340775,-3.6656555521333942,9.568891318402954,19.71213562769791,-27.439751854300194,84.889153,67.70331501077854,0.0,84.88915299999996,0.5504512992455187,0.61893302,-0.48743001,0.276292,1.0,0.0,0.0,0.0,113.2040410146817
4.6523,6249.2962,2.665650963052174,-3.9013697840555346,-2.4123148619793486,2.844702761879003,6.121077990621421,-3.279916501519949,10.21482358947047,19.562900902263447,-28.106932947961944,81.294334,64.11575688874021,0.0,81.29433399999999,0.566678639169891,0.62259698,-0.49472201,0.215635,1.0,0.0,0.0,0.0,110.96211921753391
4.6866,6249.3161,2.813216701017198,-3.7752212280562882,-2.701045490190374,2.053045347794026,6.694290397032703,-2.934214563749643,10.021234933542218,18.683523290653618,-29.180713755171173,77.623344,58.514869627434194,0.0,77.62334399999997,0.5971594199145812,0.62136197,-0.479954,0.164177,1.0,0.0,0.0,0.0,106.66654834803664
4.6951,6249.3361,2.84794860997785,-3.3462675586570474,-3.3222722270214096,1.4208240180635965,7.114996360605459,-2.6819948624399688,9.229153658738042,17.89383845072952,-30.10026065373571,74.079788,51.22172830849625,0.0,74.07978800000001,0.6312235170151533,0.62083602,-0.44982901,0.11736,1.0,0.0,0.0,0.0,101.7191016035604
4.7136,6249.3561,2.534385303771637,-2.7527404895773304,-4.127633364243932,1.00770377751439,7.274969958338676,-2.542048715503575,8.425919820006943,17.602542597672173,-30.57697577447692,70.007401,43.26039433497018,0.0,70.00740100000002,0.6612533742414928,0.62049001,-0.41602799,0.068241,1.0,0.0,0.0,0.0,97.20893514867488
4.7342,6249.3761,1.820492856911965,-2.0127025723400345,-4.876530882967439,0.7869701796880417,7.1455737959922265,-2.53666109163118,8.055181586016735,17.591698571296142,-30.69701756957043,64.023026,35.402307313979634,0.0,64.02302600000002,0.685793152432743,0.61554098,-0.388089,0.013564,1.0,0.0,0.0,0.0,93.40396788259122
4.7486,6249.3961,0.8809404937428353,-1.0488228456076136,-5.4017500839494845,0.5542748693106876,6.772210340077549,-2.7049048050554427,7.911773262427348,17.467035318408605,-30.74374840237636,54.890247,27.642735807473663,0.0,54.89024699999999,0.7081143876090922,0.60320002,-0.364797,-0.040582,1.0,0.0,0.0,0.0,89.83659382658281
4.7683,6249.4161,-0.11089835899531919,0.06879089563297458,-5.692932496901173,0.1682342921173845,6.2430964628455445,-2.999922715876947,7.7789762560799085,17.302059338117402,-30.74456944542524,42.293373,19.991731540393392,0.0,42.293373,0.728830119558241,0.58525199,-0.34388801,-0.089598,1.0,0.0,0.0,0.0,86.42318339001896
4.7911,6249.4361,-0.9853411364523691,1.1141536798888088,-5.7752238408709875,-0.5062537533924802,5.669195307803994,-3.2909993291732036,6.909518556429703,17.77816511234574,-30.557550023697004,25.87516,11.311578108582879,0.0,25.875159999999994,0.7472335088064371,0.568847,-0.31489101,-0.137473,1.0,0.0,0.0,0.0,83.29739840009809
4.8076,6249.4561,-1.7113913852705491,1.94227920189814,-5.669461407274418,-1.3671133848241368,5.063342042994987,-3.5675036008753205,5.820200620590859,18.564467312793138,-30.249342739627078,5.583599,2.3988987065386427,0.0,5.583598999999992,0.7640907750605813,0.54888099,-0.28494701,-0.183576,1.0,0.0,0.0,0.0,80.34765794130114
4.8275,6249.4761,-2.2263429722077435,2.4709991153721513,-5.481232896762554,-2.2326836114406046,4.469448256967019,-3.771207546547532,5.2765257012700975,19.132876613572215,-29.95339323645237,-13.271523,-6.348339739740758,0.0,13.271523000000002,0.7790835579917856,0.51896,-0.26555699,-0.230627,1.0,0.0,0.0,0.0,77.6465134924363
4.8547,6249.4961,-2.5287501160811776,2.6267061778642056,-5.293012761228615,-2.981819442323594,3.9761834648488845,-3.7976310708949694,5.492853940564864,19.23577282667511,-29.760412072121756,-26.417213,-15.215882312977445,0.0,26.417213000000004,0.7919157818631598,0.47751901,-0.25946,-0.27843401,1.0,0.0,0.0,0.0,75.2701871396728
4.8702,6249.5161,-2.770004814328571,2.3302353414759853,-5.080709030357365,-3.551999339905208,3.617489008037505,-3.593917832203668,6.062410209892503,19.028866173206485,-29.61406032273618,-34.271576,-23.79539542945521,0.0,34.27157600000001,0.8036965060809707,0.42906499,-0.26006299,-0.31990999,1.0,0.0,0.0,0.0,73.03088639322837
4.8913,6249.5361,-3.044260269930457,1.6927184528383912,-4.763374441582455,-3.862884164856804,3.370019373418563,-3.249745866519559,6.625862617423302,18.477075311509314,-29.6201840117112,-39.157349,-32.079558400333745,0.0,39.15734900000001,0.8162161374607952,0.37312299,-0.26245201,-0.354527,1.0,0.0,0.0,0.0,70.58442223377139
4.9108,6249.5561,-3.3733548809331007,0.774150247228536,-4.260909395763498,-3.9625336733867744,3.1473079640354147,-2.900080258079295,6.678515868354101,18.183848941366662,-29.56869845770593,-42.130249,-38.49187310009842,0.0,42.13024899999999,0.8300215989230159,0.31900701,-0.25812799,-0.37771499,1.0,0.0,0.0,0.0,67.79808640313396
4.9301,6249.5761,-3.623820345507834,-0.2904653379847144,-3.6083931300096195,-3.9246914825422685,2.8973310470850837,-2.6990229668894,6.185142374586084,18.327074612702635,-29.383060913708853,-44.181133,-42.87744421978178,0.0,44.18113299999999,0.8438570695107671,0.27052701,-0.24591801,-0.39274001,1.0,0.0,0.0,0.0,64.90062733911927
4.9703,6249.5961,-3.6815530544801653,-1.3203967380116302,-2.9192576420888603,-3.8517659562100306,2.635612742167573,-2.7053901239950267,5.304367746594121,18.705160378026555,-29.048449296312427,-46.013329,-46.099563436731245,0.0,46.013329,0.8556511623414532,0.226858,-0.228735,-0.40506399,1.0,0.0,0.0,0.0,62.3365059818464
4.9755,6249.6161,-3.706876321691379,-1.9637736895574363,-2.337849911201178,-3.748998483549352,2.45715337937066,-2.92701105210595,4.959099265405647,18.619501351562818,-28.725554971331917,-48.210426,-49.83698066326722,0.0,48.210425999999984,0.8601738982142738,0.181206,-0.22121,-0.42229301,1.0,0.0,0.0,0.0,61.32777243754222
5.0006,6249.6361,-3.793399766762663,-2.196796719220921,-1.915861101583534,-3.6605174230997086,2.4607609675634423,-3.1369611101991266,5.006150707503743,18.49251237674353,-28.19259552779836,-51.344086,-54.354217130535375,0.0,51.344086000000004,0.8567597944536379,0.13693801,-0.218908,-0.446419,1.0,0.0,0.0,0.0,62.090607041732696
5.0155,6249.6561,-3.9581408621041287,-2.024713762284022,-1.586359358018239,-3.5603037626105323,2.6337211790688615,-3.1729342327215133,5.091255755193336,18.390833768827996,-27.578262153568165,-54.942291,-59.04249322662595,0.0,54.942291,0.849134601517333,0.090297,-0.216956,-0.473019,1.0,0.0,0.0,0.0,63.764663460231475
5.0331,6249.6761,-4.185348239395908,-1.5429051368621371,-1.1715232135709162,-3.3569237580053026,2.869810533396733,-2.9880315942089535,4.994899366521117,18.230888343083343,-27.06246962115317,-58.424728,-63.02240364187309,0.0,58.424728,0.8408893397175515,0.038011,-0.21141601,-0.49675301,1.0,0.0,0.0,0.0,65.5316976210705
5.0541,6249.6961,-4.4961403914787486,-0.8660253074978332,-0.4665201548524962,-2.941265126703737,3.0079949951571954,-2.6634844438673566,4.831523949106098,17.867313147538958,-26.715657021125814,-61.487652,-65.81168855495973,0.0,61.487652,0.8329833403730231,-0.018163,-0.202474,-0.51459998,1.0,0.0,0.0,0.0,67.18713985013338
5.0693,6249.716,-4.751981945639841,-0.2369713333573349,0.6954174370273538,-2.3559736291179116,2.892803312790721,-2.2319481072180847,4.26033913290838,17.6863999213955,-26.287477730444945,-63.584259,-66.64895581740085,0.0,63.584259,0.8294591690661087,-0.068786,-0.183736,-0.52297902,1.0,0.0,0.0,0.0,67.91355677758159
5.1254,6249.736,-4.75372790446063,0.3064285596311642,2.290128833153762,-1.6474420908975544,2.479088305702169,-1.7338758036359052,3.37579371916277,17.80870860951807,-25.676537217304496,-65.299011,-66.4641214543793,0.0,65.299011,0.8280151546822194,-0.110437,-0.152587,-0.52812099,1.0,0.0,0.0,0.0,68.2092339843871
5.1258,6249.756,-4.795459948675114,0.9673764799491469,3.894538787527379,-0.8432289400622398,1.7863540892109595,-1.284603983353145,3.1833017199156304,17.808496885028756,-25.18141539830353,-67.268494,-66.92391665543131,0.0,67.268494,0.8220920860554491,-0.140651,-0.128562,-0.53652,1.0,0.0,0.0,0.0,69.41045744503772
5.1292,6249.776,-5.153035395516089,1.480709911178535,5.199452120515058,-0.09217326831607686,0.9501146613021837,-0.8251340272579658,3.510333568486077,17.974713168794786,-24.831687538785665,-68.642342,-67.62127077584289,0.0,68.642342,0.8167491197662351,-0.15239599,-0.116877,-0.544092,1.0,0.0,0.0,0.0,70.47864034613026
5.1495,6249.796,-5.723765657120655,1.6411535962388686,6.214084106550782,0.520988352846241,0.1195252596142944,-0.33523673542196114,3.704885182300048,18.418400761177292,-24.748638349623338,-69.053764,-67.96062004507945,0.0,69.053764,0.8155718601122645,-0.149799,-0.110576,-0.54788297,1.0,0.0,0.0,0.0,70.71210915874386
5.1676,6249.816,-6.39902485974346,1.53072474105252,7.024258016385513,0.9947866972846263,-0.6623579152292457,0.1469959462616478,3.611663848669412,18.886795418496412,-25.148896509966242,-68.85321,-67.99719126456365,0.0,68.85321,0.8170905793775618,-0.140149,-0.107862,-0.54871398,1.0,0.0,0.0,0.0,70.41079758746439
5.1875,6249.836,-6.99953269725915,1.2249402835707754,7.707795064262903,1.3653920702176034,-1.4221640244693334,0.5913541492837584,3.1016877538177514,19.23516544860445,-26.039869001320586,-68.217499,-67.6560815638893,0.0,68.217499,0.8206423198922657,-0.128537,-0.106059,-0.54660398,1.0,0.0,0.0,0.0,69.70171156419931
5.2225,6249.856,-7.641261395069718,0.6630550061671792,8.111702861368538,1.6768933620144506,-2.1778761452051802,0.9902952315351469,2.5213441000583767,19.589494186036376,-27.046814649182114,-67.179756,-67.11380160052968,0.0,67.179756,0.8257199730363071,-0.110943,-0.108096,-0.54239601,1.0,0.0,0.0,0.0,68.67689287359454
5.231,6249.876,-8.561676478606891,-0.09488491985565295,7.926085960498753,1.934049969537839,-2.893548984143214,1.3739539727845091,2.4364333217074137,19.924741455373695,-27.86155077934986,-65.776329,-66.59073633297653,0.0,65.776329,0.8308749354551862,-0.083932,-0.121607,-0.53648299,1.0,0.0,0.0,0.0,67.62255959872287
5.2519,6249.896,-9.552898456861966,-1.0019692492414904,7.063904755588013,2.111413762217759,-3.5277804599844766,1.7306841869302727,2.781629756069682,20.264941587299884,-28.270345250637565,-64.100143,-66.01104242578539,0.0,64.100143,0.8350176622689606,-0.049054,-0.143563,-0.52889401,1.0,0.0,0.0,0.0,66.76464529113287
5.2698,6249.916,-10.272110272783905,-2.193471222056835,5.630600908767724,2.213676832570755,-4.081476092849693,1.9728792110903681,2.964654062837143,20.878948970461337,-28.09835009354925,-61.780701,-64.6601513464142,0.0,61.78070099999999,0.8401473718509149,-0.005442,-0.165692,-0.51639998,1.0,0.0,0.0,0.0,65.68863000620291
5.287,6249.936,-10.565372195374028,-3.3300409861993634,3.799095247618826,2.2251105609037256,-4.594825089393485,2.0750642493380127,2.746927241489167,21.462615234023552,-27.712635421809967,-59.076004,-62.57543778518157,0.0,59.076004,0.844685500831333,0.040842,-0.18683501,-0.49993101,1.0,0.0,0.0,0.0,64.72348892541527
5.3072,6249.956,-10.567825642876066,-4.102851024385444,1.652279839193147,2.1207993992234426,-5.125096128118299,2.0547244535977987,2.3892153824188256,21.795296808098044,-27.452232778637416,-56.293476,-60.2229825723605,0.0,56.293476,0.8456511142900481,0.087512,-0.211216,-0.48229,1.0,0.0,0.0,0.0,64.51647073088766
5.3329,6249.976,-10.364770198779187,-4.4377873245048995,-0.7398958294276561,1.936326749330047,-5.694350940954765,1.933017191586087,2.065609612962385,21.857712673610887,-27.49578018653596,-53.200161,-57.59767981691477,0.0,53.20016100000001,0.8418207643351998,0.134634,-0.242183,-0.46320501,1.0,0.0,0.0,0.0,65.3342195426894
5.3471,6249.996,-9.894027178115966,-4.3300707663215094,-3.2075315794922092,1.7149974532127437,-6.294214856234702,1.730658555054943,1.8199756653025603,21.6310219894951,-27.927620913560336,-49.65131,-54.802322918800286,0.0,49.651309999999995,0.8323680524668039,0.179452,-0.279636,-0.44358101,1.0,0.0,0.0,0.0,67.31446343487582
5.3669,6250.016,-9.058739872714842,-3.9693233531163994,-5.633623940643393,1.5245685445737065,-6.89526536748861,1.405107233505142,1.6257523632492203,21.389050720715836,-28.49832833252953,-45.192951,-51.347082358900764,0.0,45.192950999999994,0.8169404993998521,0.225164,-0.32164899,-0.42243499,1.0,0.0,0.0,0.0,70.44062317223732
5.3891,6250.036,-7.747621664060004,-3.42915806647073,-7.6253844364736585,1.464878532498177,-7.4314497895921345,1.0013051037012937,0.8412644308002433,20.843443070884902,-29.36558346789796,-39.458202,-46.73846787023012,0.0,39.458202,0.8006660681663109,0.26356599,-0.36155599,-0.39842701,1.0,0.0,0.0,0.0,73.61249133176517
5.4075,6250.056,-6.137144109305457,-2.7309336690375847,-9.084535876090838,1.5099049055543254,-7.891781899915316,0.5603520189384055,-0.417777911067434,19.912962654224938,-30.421972790836406,-32.838142,-41.52118877640141,0.0,32.838142000000005,0.7833063849921688,0.29297501,-0.399975,-0.374989,1.0,0.0,0.0,0.0,76.87138044034405
5.4335,6250.076,-4.403937927371651,-1.9384213508050405,-10.087918293964815,1.6897020380089594,-8.279856884365774,0.09671175705114621,-1.970372490792545,18.82287468781174,-31.369556020353937,-25.179329,-35.050844512547826,0.0,25.179328999999996,0.7629173845935743,0.31893301,-0.43837199,-0.35223401,1.0,0.0,0.0,0.0,80.55586499230787
5.466,6250.096,-2.6858026429545148,-1.0350875580620067,-10.715073391905115,1.9367880475977257,-8.615319642551768,-0.27257694855030845,-3.6114945584028555,17.583738574398083,-32.15347007859501,-16.719879,-27.185219076295738,0.0,16.71987899999999,0.7374965403220816,0.34058401,-0.479049,-0.33258599,1.0,0.0,0.0,0.0,84.96281278049456
5.469,6250.116,-1.0071798577327338,-0.05213243491085362,-11.073075573502162,2.1052762441404926,-8.92210171642551,-0.46396762949239445,-5.044963824569967,16.45797628024987,-32.69632167900091,-7.664152,-16.347216570099782,0.0,7.664152000000001,0.70354808488087,0.35877901,-0.52406901,-0.31882501,1.0,0.0,0.0,0.0,90.57526986389975
5.488,6250.136,0.7231547607375182,0.9522495290999393,-11.143120815774898,2.1670824716473116,-9.16347268379721,-0.6103815563368222,-5.661196951941335,16.318693670213133,-32.77091168861088,4.784976,15.88392946104834,0.0,4.784976,0.6515237274950925,0.38768101,-0.57421798,-0.309021,1.0,0.0,0.0,0.0,98.6868337000611
5.5124,6250.1559,2.4958446244407875,1.902152057173788,-10.71178903804229,2.171814659888345,-9.286539482291019,-0.6574504249843112,-5.656483619924097,16.643778614818867,-32.67710111741136,22.253708,76.34745223732396,0.0,22.25370799999999,0.5844023723465535,0.42612299,-0.62527001,-0.29313901,1.0,0.0,0.0,0.0,108.47843685764244
5.5386,6250.1759,4.183286921070733,2.6476512440368047,-9.697257286577441,1.9440516421603737,-9.309573719177957,-0.5748263501633799,-5.273589815792651,16.755345147137124,-32.70468902971541,38.86301,99.74345642095118,0.0,38.86301,0.5084300640444459,0.46019101,-0.67550302,-0.27095899,1.0,0.0,0.0,0.0,118.88137286387239
5.5623,6250.1959,5.54795894416629,3.087880436036091,-8.153066313895778,1.5973408540825407,-9.219168700694665,-0.540359838091307,-4.755021856851865,16.68925579078211,-32.81300018935161,51.36195,107.13023221202327,0.0,51.36195000000001,0.4262195526722808,0.491099,-0.72003597,-0.242295,1.0,0.0,0.0,0.0,129.5442368733069
5.5842,6250.2159,6.4031563578487205,3.2527199153799136,-6.442432212676181,1.361651759309027,-9.076529360455993,-0.5356006736583931,-4.7313661031816086,16.08964935842722,-33.127181264461434,59.255665,109.09049162399687,0.0,59.25566499999999,0.3487571611072373,0.51787299,-0.75347102,-0.20605201,1.0,0.0,0.0,0.0,139.17736726329096
5.5937,6250.2359,6.903412826349181,3.0659803329392146,-4.934410885605673,1.1560717221952097,-9.034082691387972,-0.4780282786134822,-4.868428506118148,15.189100943708617,-33.546505212341415,62.957764,110.7384155192906,0.0,62.957764,0.2775199947681582,0.53208798,-0.78201097,-0.16829699,1.0,0.0,0.0,0.0,147.77550828971158
5.6158,6250.2559,7.059903354568131,2.46964482158967,-3.454523844492652,1.0156569792302697,-9.16968923609698,-0.4624870751641508,-3.7953437205396927,15.217010015238099,-33.581284120493955,65.154907,112.6097389099885,0.0,65.15490699999998,0.1901102679826619,0.54040098,-0.809255,-0.13011999,1.0,0.0,0.0,0.0,158.0815612394557
5.6383,6250.2759,7.126406837770426,1.811081352704577,-2.141902231571125,1.0117997377122752,-9.489733591939803,-0.3152060707704625,-2.6159134637480337,15.64996890717286,-33.17270193660696,66.362404,113.42509888377589,0.0,66.362404,0.0997453658573658,0.54612601,-0.82692301,-0.089418,1.0,0.0,0.0,0.0,168.550984590067
5.6584,6250.2959,7.178534251350847,1.282823282302119,-0.7141639440097354,1.0565587048828546,-9.917119220847539,-0.06310025112512496,-1.5416507324659894,16.265449006499246,-32.38506097443322,67.129433,113.08600053142254,0.0,67.129433,0.0057917353270917,0.55159903,-0.83284801,-0.045488,1.0,0.0,0.0,0.0,179.3363123088878
5.6672,6250.3159,6.960912870762755,0.9632132597056104,1.1313647977897467,1.0951430456022977,-10.311250403603843,0.19901862460674735,-0.6624570081744459,16.823135630083385,-31.466205985462906,67.603096,111.47606946202178,0.0,67.603096,0.0926866583995729,-0.55729902,0.82511902,-0.002364,1.0,0.0,0.0,0.0,169.36362488825654
5.6963,6250.3359,6.067102355852532,0.8107120365176943,3.3347806127663304,1.0794026300568036,-10.529142371608922,0.43305878416769295,-0.08237962915222319,17.05326558973453,-30.73065589485934,67.488434,108.70301531232397,0.0,67.48843399999998,0.190682952888818,-0.56081003,0.803873,-0.05404,1.0,0.0,0.0,0.0,158.0147135544077
5.7096,6250.3559,4.222059246701395,0.5444089117927597,5.431299834739569,0.8478892103542872,-10.481792943644656,0.557165253019694,0.42565110375166526,17.09501670321118,-30.177096940179094,65.713188,105.53842301101655,0.0,65.713188,0.2840907688076456,-0.55520397,0.77427399,-0.107428,1.0,0.0,0.0,0.0,146.99098572335717
5.7306,6250.3759,1.5974054554831154,-0.01882993514981024,6.774769975605597,0.43502846066217904,-10.112630115973882,0.45435501357252095,0.6539811575855872,17.28473551649595,-29.59735673413229,62.00769,101.6254976237306,0.0,62.00769,0.3691005254160978,-0.541686,0.73857898,-0.15761399,1.0,0.0,0.0,0.0,136.67968989455585
5.7499,6250.3959,-1.2999343416595952,-0.844506893033071,6.956906074108826,-0.028283642752844118,-9.394983296110583,0.08401321177290644,0.37263855817999314,17.65987281315791,-28.95957608935906,56.62191,95.56175682029455,0.0,56.621910000000014,0.4432583747808263,-0.52591902,0.69694501,-0.202975,1.0,0.0,0.0,0.0,127.37607235569797
5.7697,6250.4159,-4.047062895599547,-1.859198255341873,5.954704883231127,-0.4639850465686899,-8.341594050595155,-0.5905359486918886,-0.03752978543320751,18.093278742121576,-28.332273177888396,48.557209,84.99435790113776,0.0,48.557209,0.5091534960245284,-0.50857401,0.64888698,-0.247105,1.0,0.0,0.0,0.0,118.78507805178788
5.7877,6250.4359,-6.063652789277401,-2.8250783735730334,4.155048627390025,-0.8493949978335149,-7.01403495043826,-1.5079989069424644,-0.4533631786468293,18.30362099698658,-27.915950949627558,36.406315,67.61811340837865,0.0,36.406315000000006,0.5606612962835047,-0.48872599,0.60068899,-0.293221,1.0,0.0,0.0,0.0,111.79691373673158
5.8092,6250.4559,-7.126575282925845,-3.5062441317565867,2.212000704829535,-1.2338752347121822,-5.5175752007857515,-2.5678881274339753,-0.6636572591248933,18.428605003201746,-27.690136018210296,18.754301,42.41784192133044,0.0,18.754300999999998,0.5912539687711191,-0.461573,0.56476498,-0.344107,1.0,0.0,0.0,0.0,107.50791157852974
5.8295,6250.4759,-7.366112582359371,-3.9287706098563935,0.6346592772939434,-1.5429646195510807,-3.982800786147869,-3.638073529858505,-0.8361028405474459,18.955130360065013,-27.383639829569287,-1.03931,-3.7160405386221016,0.0,1.0393100000000004,0.6019915171428574,-0.427654,0.54741597,-0.393769,1.0,0.0,0.0,0.0,105.97467379576757
5.847,6250.4959,-6.913955556512498,-3.998977115683523,-0.20947378579766607,-1.7961114875385995,-2.6663669973568753,-4.472548954925527,-1.5824560199677546,19.44990251460421,-27.222840274173553,-15.076459,-74.24274749204253,0.0,15.076459,0.5909821595971227,-0.40233001,0.54512203,-0.43785,1.0,0.0,0.0,0.0,107.54652751568192
5.8723,6250.5159,-6.107906184342056,-3.690447045463455,-0.40510874325877744,-2.0963289544911983,-1.7467005311073254,-5.024837637214953,-2.7623144356666742,19.60735284195291,-27.25396705866046,-24.538984,-119.82953391652175,0.0,24.538984,0.5628919158328708,-0.38964099,0.550309,-0.47800899,1.0,0.0,0.0,0.0,111.48794025269814
5.8903,6250.5358,-5.4295264428957815,-3.087785256041761,-0.351544343425477,-2.453356533098402,-1.1054457194756493,-5.348268648483208,-3.5378894747884733,19.852690028557227,-27.096312155496737,-34.460247,-142.21375212163548,0.0,34.46024700000001,0.5273769707062289,-0.37558201,0.55961502,-0.51734197,1.0,0.0,0.0,0.0,116.34320395592185
5.917,6250.5558,-5.065769759404387,-2.1676483872793137,-0.20947208878616053,-2.8840451473781643,-0.5647014603702314,-5.410898362171947,-3.7699723721081386,20.281282161605677,-26.696040366360776,-46.588844,-154.41700900310738,0.0,46.588843999999995,0.4846770533706532,-0.356251,0.57242203,-0.55723101,1.0,0.0,0.0,0.0,122.01736801354208
5.9401,6250.5758,-5.013515354886886,-0.8466852346311746,-0.03467750692730931,-3.3254218380716036,-0.06067872204096966,-5.221245299325961,-3.7929775476657213,20.40918909334345,-26.444273913439865,-67.699219,-161.87129594804546,0.0,67.699219,0.4358057370231133,-0.340094,0.57980901,-0.59852397,1.0,0.0,0.0,0.0,128.32684947523103
5.9555,6250.5958,-5.272759414467578,0.7529236571960576,0.07859121021790116,-3.634797367418749,0.5466498486354353,-4.921279455168782,-3.6584516570724928,20.264090169222303,-26.4020515350141,-105.860497,-166.8336250582247,0.0,105.860497,0.3857778958148065,-0.32765299,0.578767,-0.63941199,1.0,0.0,0.0,0.0,134.61591704659222
5.9766,6250.6158,-5.716852288867623,2.3677480055687528,0.1864328013688592,-3.7339204156045662,1.3177667345569877,-4.671540733135983,-3.6671200768606886,20.06910097640889,-26.42851227198662,-142.479553,-171.04691871764453,0.0,142.479553,0.3381735377674603,-0.32075301,0.57238901,-0.674631,1.0,0.0,0.0,0.0,140.46872973939065
6.0137,6250.6358,-5.996058392738837,3.8395283565579454,0.5495976126897482,-3.675140812430311,2.231035392377577,-4.523976694667377,-4.150482508077715,20.0482484211167,-26.354093259047474,-169.708282,-176.86835292083194,0.0,169.708282,0.286412236588521,-0.32254601,0.56867403,-0.700387,1.0,0.0,0.0,0.0,146.7134334829127
6.0257,6250.6558,-5.845712185327855,5.107636913226884,1.3262207577364542,-3.4839601430839924,3.2050298559287578,-4.489856091144389,-4.82219122100243,20.31777720506726,-26.112080320300024,168.140823,175.68249258707178,0.0,168.140823,0.2272300567394192,-0.32988,0.57120502,-0.716429,1.0,0.0,0.0,0.0,153.73190347923668
6.046,6250.6758,-5.111898040886022,6.136393987473948,2.4609862533301428,-3.1814783164247418,4.145309068538708,-4.517549068122712,-5.2549763985682105,20.836760436153874,-25.744220220382623,150.119736,167.58517315987504,0.0,150.119736,0.1613675203770554,-0.33798701,0.57976699,-0.72359902,1.0,0.0,0.0,0.0,161.4274381934207
6.0536,6250.6958,-3.722572432423735,6.918615200348651,3.7123129026228145,-2.785069443371558,4.9705971038502135,-4.5319021599366005,-5.270946342990559,21.409071537687826,-25.39694275176828,135.547775,159.49667604001493,0.0,135.547775,0.0890557977309696,-0.34484699,0.591461,-0.72341102,1.0,0.0,0.0,0.0,169.78141967185945
6.0714,6250.7158,-1.8244361884038582,7.440969456725284,4.73685416325392,-2.3403403470423085,5.584359741442111,-4.523841479767777,-5.077010077171851,21.741452614764608,-25.266803656784802,124.699677,151.76984344798018,0.0,124.69967700000001,0.0139349109175133,-0.35257,0.60016203,-0.717848,1.0,0.0,0.0,0.0,178.403125149571
6.0933,6250.7358,0.4067324584604961,7.791496065334284,5.231703518220291,-1.9623570046656442,5.9102921346326,-4.54399001117185,-5.217362685134308,21.519232027831983,-25.527787514534243,117.436562,143.84834383324514,0.0,117.43656199999998,0.062962327082151,0.36656001,-0.59904999,0.70908999,1.0,0.0,0.0,0.0,172.7802732717628
6.1122,6250.7558,2.731946378604718,7.65772838167419,5.250702693616304,-1.6235298162959142,6.0961762820755805,-4.490770011993364,-5.562870628880223,21.311510000837202,-25.697775613176,111.121567,135.7627999981204,0.0,111.12156700000003,0.1393384639902374,0.383376,-0.59590203,0.69174302,1.0,0.0,0.0,0.0,163.98086434322147
6.1391,6250.7758,4.788540370689482,7.0229588027392555,4.921231504532447,-1.1544306261973574,6.233586013933087,-4.383713389292649,-5.402897594973518,21.157199885552163,-25.82518709586568,104.854256,128.3936821843728,0.0,104.85425600000002,0.2155517455154558,0.392937,-0.59448701,0.66762501,1.0,0.0,0.0,0.0,155.10420198970095
6.1492,6250.7958,6.344471798159322,6.125502903892469,4.417623531391126,-0.5600081614223695,6.339068691405371,-4.286914707495838,-4.819498956855142,20.766790353020006,-26.02274822755187,98.900238,121.81026104176844,0.0,98.900238,0.2887880514295902,0.395749,-0.59242201,0.63954699,1.0,0.0,0.0,0.0,146.42917532281407
6.1709,6250.8158,7.564901201508507,5.095734950850595,3.8473198238140967,-0.06149953923030127,6.4828597645927895,-4.172212627978631,-4.7488546495989015,20.362207201569177,-25.850760324994397,93.774315,114.88122292031322,0.0,93.774315,0.3534525616362103,0.40657601,-0.58756602,0.60376602,1.0,0.0,0.0,0.0,138.60272954226585
6.1865,6250.8358,8.66187247483675,4.016377514415428,3.167834447175041,0.29815069334162847,6.669338317440801,-4.098650289161247,-5.130838420604124,19.98429723678253,-25.299544620507913,89.530617,107.4551234241062,0.0,89.530617,0.4105973680744915,0.42594701,-0.57906598,0.560947,1.0,0.0,0.0,0.0,131.5152678926542
6.2071,6250.8558,9.72004124007025,2.742580274934639,2.308663958039439,0.667213552654217,6.819254958416319,-4.106241846311143,-5.198386285190404,19.49473591147783,-24.79209902649602,85.016106,100.00209862859073,0.0,85.01610599999998,0.4670201396084106,0.44195899,-0.56981999,0.51173198,1.0,0.0,0.0,0.0,124.31791889328778
6.2288,6250.8758,10.67943735910427,1.0695806424711372,1.1490901312560524,1.0984346179995077,6.857869590196559,-4.121737884020331,-4.902287558225254,18.895815384535684,-24.59018297280488,79.589592,92.26981242286989,0.0,79.58959199999998,0.5258475113563997,0.45166701,-0.56016397,0.45353901,1.0,0.0,0.0,0.0,116.5493703195129
6.2467,6250.8958,11.255967764125394,-0.96780561112212,-0.31476993112020857,1.5431493857581817,6.7693936782142075,-4.030341233243324,-4.613468168681672,18.311979548231225,-24.6291317091736,73.78801,83.98658455320309,0.0,73.78800999999999,0.5816627653378365,0.46035501,-0.54807597,0.386464,1.0,0.0,0.0,0.0,108.86484425175622
6.2758,6250.9158,11.200427856479658,-3.0181287790295466,-1.871337559281689,1.9793679721250512,6.556485731910124,-3.841391317355355,-4.474205815619371,17.68611342624887,-24.873826981232877,68.291588,75.36030774005239,0.0,68.29158799999999,0.6292652141290186,0.470458,-0.53179598,0.31604999,1.0,0.0,0.0,0.0,102.00813570158734
6.2987,6250.9358,10.530644524867657,-4.652578764877741,-3.1581512016816244,2.3938512494030775,6.251708997430248,-3.671366913888963,-4.439616206996769,16.760169693564517,-25.43458419875233,63.366116,66.89278390331654,0.0,63.366116000000005,0.6674599947733345,0.48010501,-0.51123601,0.25026801,1.0,0.0,0.0,0.0,96.25734524831473
6.312,6250.9558,9.300349216161901,-5.750738860204535,-3.732748204787713,2.873624578112505,5.9463510127988535,-3.483292980247871,-3.708866554418792,15.600693906981437,-26.373388992372274,58.967857,60.53063126765617,0.0,58.96785700000001,0.6910462295381111,0.48514199,-0.499136,0.194822,1.0,0.0,0.0,0.0,92.57403167487193
6.3335,6250.9758,7.7759910955824845,-6.3030547645347355,-3.768025686302689,3.343789726445757,5.712077735430669,-3.2255424146320064,-2.2957577189719967,14.400428686636202,-27.580346613815685,54.828094,56.03830772101419,0.0,54.82809399999999,0.7036366635867121,0.48637801,-0.497271,0.145098,1.0,0.0,0.0,0.0,90.56098571298347
6.3513,6250.9959,6.33515170380808,-6.367121046552309,-3.738297507796906,3.610229475373038,5.616958504973335,-2.854530986920211,-1.0105119904438382,13.588744752980505,-28.770912341057862,50.771744,51.42170357209782,0.0,50.77174400000001,0.711099117160245,0.48998901,-0.49584299,0.091589,1.0,0.0,0.0,0.0,89.3511739480839
6.3685,6251.0159,5.264016008685092,-5.973636345719208,-3.781870494202818,3.5550149026593,5.670287484849454,-2.3761650305908675,-0.29302864107571214,13.154376043788137,-29.922698308583946,46.81752,45.771243007890845,0.0,46.81752,0.7176302554166176,0.49648401,-0.486938,0.037441,1.0,0.0,0.0,0.0,88.28165014528723
6.3889,6251.0359,4.625616806298366,-5.23704235925257,-3.8974586117752956,3.2165410340778653,5.820620683567839,-1.816901538972768,-0.05647042249920453,12.841061623630242,-31.035424806429624,42.442585,39.023844774660596,0.0,42.44258500000001,0.7266907190180976,0.50180602,-0.46901399,-0.011713,1.0,0.0,0.0,0.0,86.78064392924504
6.4106,6251.056,4.27764850377361,-4.355137874737242,-4.1272640565268555,2.759707784786232,6.009518123747653,-1.1770991004260323,0.11755720684204274,12.636022060434703,-31.980485564814998,37.111607,31.65110695819074,0.0,37.11160699999999,0.7376086108459415,0.50402302,-0.44588,-0.055546,1.0,0.0,0.0,0.0,84.9437952597988
6.4363,6251.076,4.091190929269319,-3.377233812256169,-4.484963049654223,2.277206467273132,6.2211070849203285,-0.5550229020524806,0.33012971414180026,12.34187347987037,-32.754528741512516,30.894293,24.20996300770565,0.0,30.894293000000005,0.7514445590956925,0.50317299,-0.41734701,-0.089272,1.0,0.0,0.0,0.0,82.56866906715513
6.4518,6251.096,3.8730749973310776,-2.3896457781959377,-5.000761376721494,1.902291727877154,6.408897575279299,-0.05462824014995071,0.6916826992272602,11.989326829675168,-33.31166134219843,23.46032,16.9591490450614,0.0,23.460319999999996,0.7675238507517795,0.498963,-0.38529199,-0.11616,1.0,0.0,0.0,0.0,79.73589890034724
6.4749,6251.116,3.487283351986712,-1.3824670698492085,-5.67981288423659,1.6370805255901097,6.530017661017656,0.21699858736053956,1.0522333129811186,11.650801927018954,-33.6534721291187,14.873375,9.948325508370042,0.0,14.87337500000001,0.7856371356061269,0.49304599,-0.34747601,-0.137624,1.0,0.0,0.0,0.0,76.44071205987142
6.5045,6251.1361,2.7733642292403027,-0.36529160508350644,-6.445726045898354,1.4672489714499306,6.509076347464989,0.24079310553472855,1.5296973472024358,11.588353423779802,-33.767620746667156,5.218021,3.2532104117852794,0.0,5.218020999999993,0.8020513202545084,0.48745,-0.306243,-0.159127,1.0,0.0,0.0,0.0,73.34712416943853
6.5103,6251.1561,1.6475589245088338,0.7103435018196385,-7.117932554157701,1.2708860388623755,6.304659078842251,0.04932239969511665,2.1986352685187436,11.975203281727703,-33.663346782711244,-4.767398,-2.789559371951256,0.0,4.767398000000014,0.8137113576593729,0.484833,-0.26443499,-0.18134201,1.0,0.0,0.0,0.0,71.0797151707988
6.5433,6251.1761,0.1928736082083824,1.852913536499138,-7.479409076236296,0.9273943180711725,5.91898578261924,-0.2967926532476284,2.22522579052766,12.944596306467394,-33.34458557055869,-17.114569,-9.430218752511925,0.0,17.11456899999999,0.8214256256602784,0.484754,-0.215094,-0.20978101,1.0,0.0,0.0,0.0,69.54447994917405
6.5507,6251.1962,-1.4608528475701328,3.0133422183779253,-7.28179776423758,0.3848085741122276,5.374191670464359,-0.7475529801853726,1.8364500624386872,14.01599114392532,-32.91579047400609,-29.631571,-16.10295805366288,0.0,29.631571000000008,0.8262792489375005,0.481161,-0.16586401,-0.241321,1.0,0.0,0.0,0.0,68.56319471869665
6.5716,6251.2162,-3.057206046699485,4.086079957225638,-6.504649504944452,-0.28370818301528977,4.677661786365369,-1.222089533952678,1.5667487135118403,14.763744708038812,-32.49970791058188,-39.463024,-22.38594486959083,0.0,39.46302399999999,0.8293718346406272,0.469291,-0.127731,-0.27494201,1.0,0.0,0.0,0.0,67.93147158486259
6.5992,6251.2362,-4.364507481722222,4.879339521653605,-5.234085229997731,-1.0430566941111084,3.8396302107908054,-1.5931067490112516,1.1520894008096096,15.324237973182719,-32.11750224584648,-46.358715,-28.195044786257096,0.0,46.35871499999999,0.8324284070655085,0.450519,-0.097294,-0.30761901,1.0,0.0,0.0,0.0,67.30198345848022
6.6102,6251.2562,-5.2641468236995745,5.237971493028556,-3.6454889044518346,-1.7637376995311684,2.8707859954219175,-1.7913265612376483,0.7247891599325182,15.75904101882994,-31.839004669051256,-50.734261,-33.305027037517306,0.0,50.734261000000004,0.8357088914255728,0.42634901,-0.076057,-0.33768699,1.0,0.0,0.0,0.0,66.62054975473573
6.6424,6251.2763,-5.821450648210908,5.002609504335531,-1.8554467861397033,-2.320320546818759,1.8159995305036771,-1.7702598289673241,0.3166173917178945,16.45600437161657,-31.534854339936373,-53.687294,-37.439091012651424,0.0,53.68729400000001,0.8373383420387961,0.40395501,-0.062105,-0.36308101,1.0,0.0,0.0,0.0,66.27977348868762
6.655,6251.2963,-6.179398124857681,4.272378605483064,-0.01650490934422244,-2.620158435340949,0.6977954156790034,-1.5504114236053759,-0.18076611078363491,17.185107731474115,-31.295740845288766,-55.627308,-40.78036785718416,0.0,55.627308,0.838508978895074,0.38237399,-0.054767,-0.38430899,1.0,0.0,0.0,0.0,66.03399042743641
6.6812,6251.3163,-6.592830222044004,3.3759552028659843,1.6590618765860832,-2.6380913678884936,-0.46138789609223485,-1.1460645619540695,-0.5400778152103056,17.601873900442122,-31.25309004948619,-56.633846,-43.35057143460993,0.0,56.633846000000005,0.8395865806169603,0.36081401,-0.058393,-0.40186799,1.0,0.0,0.0,0.0,65.80702145577523
6.6867,6251.3364,-7.204043169556641,2.5060857107587253,3.013557721683309,-2.4676533435262713,-1.6281476695314745,-0.5594787664361436,-0.8050748165874326,17.821188161089626,-31.29072832324448,-57.281361,-45.320361203238726,0.0,57.281361000000004,0.8389702760533296,0.343003,-0.070803,-0.416491,1.0,0.0,0.0,0.0,65.93691494323713
6.7153,6251.3564,-8.066641102908498,1.603877478964875,3.7876019099130946,-2.239486159148613,-2.800658680419679,0.08036976891192671,-1.0317538335019796,18.03787264215985,-31.23396885333332,-57.295193,-46.12694360352553,0.0,57.295193,0.8369294744078738,0.334319,-0.089852,-0.42391801,1.0,0.0,0.0,0.0,66.36542789220414
6.7317,6251.3765,-8.965699471874133,0.389077900547385,3.782491896577369,-1.9515407218493208,-4.021384546214552,0.5603425914148321,-1.856827083982064,18.182518912584573,-31.0555027317049,-55.004147,-44.291033395185536,0.0,55.004147,0.8396441875829664,0.33564299,-0.109331,-0.412781,1.0,0.0,0.0,0.0,65.79486847637021
6.7502,6251.3965,-9.604540171851758,-0.9313798228424288,2.888383419650008,-1.5230656530782447,-5.2338894399288405,0.7568980349609455,-3.117427455335193,17.612832226933016,-31.116519129744546,-49.402851,-39.623972899819826,0.0,49.402851,0.8486183389889472,0.34026799,-0.134993,-0.381892,1.0,0.0,0.0,0.0,63.876582349358785
6.7756,6251.4166,-9.868832646481634,-1.950415520037565,1.1084392004821364,-1.0056826732175945,-6.338977043485816,0.6774707155432345,-3.765813983316055,16.374897262201664,-31.478207577012327,-41.552074,-33.40950904934154,0.0,41.552074000000005,0.8543231479322093,0.348001,-0.17698801,-0.34307799,1.0,0.0,0.0,0.0,62.62992131924585
6.792,6251.4367,-9.552710768636134,-2.3386231730491396,-1.2726831289160252,-0.6210943540142493,-7.294868563797045,0.4124257811825971,-3.508808676311589,15.268544891896394,-31.764734220749933,-34.21714,-28.017081223488407,0.0,34.21714,0.8461344811198749,0.359916,-0.23319,-0.316448,1.0,0.0,0.0,0.0,64.41261872393038
6.8092,6251.4567,-8.31793050725388,-2.318550096199947,-3.7295601852364797,-0.31086342055686167,-8.10028517130025,0.07300203472305533,-3.696949443879885,14.683987487442264,-31.707735841013985,-27.692818,-23.223982940269078,0.0,27.69281799999999,0.8289417733322648,0.37616199,-0.28555,-0.299698,1.0,0.0,0.0,0.0,68.0196289840581
6.8377,6251.4768,-6.240674113706204,-2.011060875142463,-5.96696587777083,0.00478842863859974,-8.69921928151493,-0.12983778145535396,-4.340736468722888,14.147675315924811,-31.656600665971617,-19.454254,-17.016424101257506,0.0,19.45425399999999,0.8084826958750322,0.393033,-0.33663201,-0.280285,1.0,0.0,0.0,0.0,72.10409899371074
6.8557,6251.4969,-3.5072817447900437,-1.521333077541811,-7.634202053336534,0.3380141095848488,-9.026867780469749,-0.03735259760791898,-5.017154292981587,13.285956098948562,-31.897743042862825,-7.890707,-7.535888100249235,0.0,7.890706999999992,0.7859706803808141,0.40760201,-0.39143401,-0.250779,1.0,0.0,0.0,0.0,76.37891267614583
6.8747,6251.5169,-0.48271599928648123,-0.903689688300049,-8.410424699184817,0.43800577641045424,-9.057720290545696,0.222499686262978,-5.333594400845325,12.625321081353158,-32.208748729404704,4.696046,5.182218407492666,0.0,4.6960459999999955,0.7552706899849879,0.42112401,-0.45070601,-0.221551,1.0,0.0,0.0,0.0,81.90194462759347
6.8928,6251.5369,2.4125064872486814,-0.28088437082758205,-8.261867247878623,0.2935083779702162,-8.848635831774661,0.4405773638127011,-6.068916038737798,12.528388658011083,-32.21320617175001,15.77882,20.046229396846318,0.0,15.778819999999996,0.7199147629273064,0.43674001,-0.50162601,-0.198374,1.0,0.0,0.0,0.0,87.90511288808439
6.9162,6251.557,4.709561150373263,0.317200177249619,-7.269546136377404,-0.04621393295768761,-8.517015546966508,0.5833319791174438,-5.6373810506065976,12.591956300348501,-32.26748985845774,28.941929,42.58181882956664,0.0,28.941928999999988,0.6704764836631034,0.45731801,-0.56049699,-0.16481701,1.0,0.0,0.0,0.0,95.79229860677609
6.9406,6251.577,6.292403408102743,0.9555712340171645,-5.896279824811244,-0.3899768854502521,-8.177242438194497,0.6951020065879336,-5.688209056787145,12.009821480999953,-32.3357516576511,38.861664,61.4425430635658,0.0,38.86166399999999,0.625924904582746,0.47236401,-0.60847002,-0.121879,1.0,0.0,0.0,0.0,102.49978953175346
6.9525,6251.597,7.186942909182718,1.5130985522989913,-4.484566322602677,-0.7082451576391426,-7.9066739383462155,0.7120268973083519,-5.7215750199436926,11.056788946898884,-32.403136868723564,45.606468,75.35461607933927,0.0,45.60646800000001,0.5834010556473475,0.47983399,-0.65125602,-0.072582,1.0,0.0,0.0,0.0,108.6197758788954
6.9695,6251.6171,7.4867513326369,1.7362278431917948,-3.1646281535955643,-0.9927030255976379,-7.729419158820743,0.5742998219906612,-5.272623511706238,10.559035816165387,-32.333895745101884,50.116234,86.80777808035499,0.0,50.11623399999999,0.5354973162217901,0.48078001,-0.69393301,-0.023456,1.0,0.0,0.0,0.0,115.24471107782999
6.9898,6251.6371,7.262027760383852,1.5307028245615757,-1.976513744751963,-1.2106802737846256,-7.650639208043159,0.3131046300876863,-4.126204226015285,11.02229611920884,-32.06776678814263,53.363182,97.04713257388394,0.0,53.363181999999995,0.475828490032805,0.478082,-0.73786497,0.024086,1.0,0.0,0.0,0.0,123.17338670830965
7.0172,6251.6571,6.8911176838581785,1.0329609306538596,-1.1543941445990988,-1.3996276348048404,-7.6737776286403445,0.10411807001937345,-3.1499697008916896,12.173707204859854,-31.578300122586754,55.048088,105.28657372345367,0.0,55.04808800000001,0.4143706174576568,0.47004199,-0.77643001,0.067186,1.0,0.0,0.0,0.0,131.04062495862897
7.0329,6251.6771,6.624949970329625,0.47374514159958814,-0.5801157026384658,-1.5944543077807665,-7.805427580163963,0.024297784304036507,-2.524885907654678,13.591813846523776,-31.025023423967575,55.757507,112.00115712559824,0.0,55.757507000000004,0.3538323440767103,0.45781299,-0.80816102,0.109935,1.0,0.0,0.0,0.0,138.55620317783513
7.0561,6251.6972,6.44696646708964,0.08698156421393399,0.09096428062077067,-1.7496291119445164,-8.02879505576967,0.07653737901255958,-1.998921387592099,14.829701273583737,-30.64032708640375,56.281891,117.73339121687027,0.0,56.281891,0.2905591942586567,0.443764,-0.83253801,0.159779,1.0,0.0,0.0,0.0,146.2171257448467
7.0824,6251.7172,6.237890415479601,-0.12081424560770682,1.0756348268469864,-1.909957520033124,-8.2745884900518,0.21406746443314673,-1.36804447655466,15.789272357492466,-30.40554758576921,56.281353,123.30626778637365,0.0,56.281352999999996,0.2240449418231085,0.425118,-0.850366,0.21437401,1.0,0.0,0.0,0.0,154.10655265520143
7.0916,6251.7372,5.833440050356209,-0.2229262987621503,2.361039013548792,-2.081373499514483,-8.48537358263998,0.3652485335339146,-0.7245191516748175,16.64059712962132,-30.062989105077673,55.551331,128.94729620021218,0.0,55.551331000000005,0.1552982712617232,0.402502,-0.86154699,0.26760301,1.0,0.0,0.0,0.0,162.1318091760158
7.1459,6251.7573,5.09711018428312,-0.14251569513100293,3.7814709219834732,-2.1978695677827966,-8.640011864661872,0.5638605957438996,-0.3512372029168276,17.28789458021815,-29.575547671138864,54.526424,134.38164660434416,0.0,54.52642399999999,0.0857664345013814,0.38012701,-0.86379701,0.31937799,1.0,0.0,0.0,0.0,170.15980143095754
7.1476,6251.7773,3.8865228812124064,0.09990090319094769,5.132329677053836,-2.3381332962897963,-8.695125146877164,0.821508892823948,-0.03249003742591228,17.7549458083468,-28.980080058377297,52.651814,140.26285513675717,0.0,52.651814,0.0150593404736018,0.35529199,-0.85833299,0.369872,1.0,0.0,0.0,0.0,178.27426146479382
7.1604,6251.7973,2.2557979187502806,0.48377735353402684,6.168195686026175,-2.5452600443830438,-8.62578167645759,1.1144880455247759,0.2373046363198199,18.19864414467279,-28.270839470805242,49.407188,146.8246476271904,0.0,49.40718799999999,0.0555338015167285,-0.32829699,0.84552902,-0.41739401,1.0,0.0,0.0,0.0,173.63301961015696
7.1689,6251.8173,0.4015877435476449,1.088503979497669,6.713359670126788,-2.7803521116909087,-8.437209684151652,1.4290102565338465,0.31052595107751735,18.674354480269088,-27.50271200630121,44.531273,153.9129905060005,0.0,44.531273,0.1244972357704355,-0.30285701,0.82461202,-0.46129501,1.0,0.0,0.0,0.0,165.69655456511734
7.1918,6251.8374,-1.5745690398994219,2.095356326997474,6.688607015000709,-3.005131553605983,-8.130018397555691,1.774596261994257,0.31931905240765346,19.063594548478616,-26.840743109969814,36.873264,161.9326126010137,0.0,36.873264000000006,0.1920340163645484,-0.280018,0.79400301,-0.50425398,1.0,0.0,0.0,0.0,157.8569781543152
7.212,6251.8574,-3.4675208627759635,3.497923791383269,6.080842387545989,-3.1604716180693595,-7.695625984303663,2.133337889605488,0.2043667023923823,19.475270559371605,-26.29801996631548,23.236801,170.95415818078158,0.0,23.236801000000014,0.2550048721799632,-0.26086599,0.75566602,-0.54395801,1.0,0.0,0.0,0.0,150.45225229890406
7.2349,6251.8774,-5.24119900028711,5.1962840502967325,4.900882858061825,-3.193689400375463,-7.083140110800935,2.5080795048538134,0.15070622914763282,19.939890979942962,-25.930787467233316,-4.20016,-178.7217759511204,0.0,4.200160000000011,0.3124192180607317,-0.24382401,0.71174598,-0.57996702,1.0,0.0,0.0,0.0,143.58983111386402
7.2524,6251.8975,-6.988674443318801,6.885308211711128,3.1365793570394107,-2.9936850661627092,-6.241973134503325,2.911253718401709,0.26623624213431896,20.371059165549276,-25.847421348783595,-44.731709,-166.81714217846795,0.0,44.731708999999995,0.3685517033530021,-0.230242,0.66161698,-0.61108202,1.0,0.0,0.0,0.0,136.74735044823913
7.274,6251.9175,-8.495256487591522,8.21306663023074,0.9417682410231638,-2.55986605938783,-5.0783791353173955,3.3897187150565635,0.6028062682895179,20.59117340075274,-26.139437942955457,-70.94249,-154.2344213546472,0.0,70.94249,0.4197094018721984,-0.22117899,0.60801703,-0.63658398,1.0,0.0,0.0,0.0,130.36751564498894
7.2904,6251.9375,-9.534888738967494,8.814352882770145,-1.2559980852026165,-1.9209678845341929,-3.592067461578877,3.911896525800246,1.0771144475492882,20.555318714688152,-26.689125054184778,-82.25235,-142.55346879259906,0.0,82.25235,0.4639388621518129,-0.21933401,0.55625403,-0.65363199,1.0,0.0,0.0,0.0,124.71686274774177
7.3116,6251.9575,-10.123082068693268,8.359274874366607,-2.8422482062727434,-1.132106535627126,-1.9631876589889934,4.375837406811132,1.1999497968767585,20.508950737275313,-27.14128571797619,-84.649887,-131.76198156713423,0.0,84.649887,0.5066726172493828,-0.22941101,0.513107,-0.65373898,1.0,0.0,0.0,0.0,119.11510500228216
7.3356,6251.9775,-10.089341153248778,7.084113197730783,-3.321274825224206,-0.34072992509288436,-0.42145609288763636,4.740261204029844,0.643303648531024,20.624319988987494,-27.253289768242162,-81.357452,-122.49207197760684,0.0,81.357452,0.5433725227327749,-0.251856,0.488336,-0.63469899,1.0,0.0,0.0,0.0,114.17296490670496
7.3491,6251.9975,-9.40874284602366,5.474192209175262,-2.8548444432452627,0.3290387862808979,0.8211891185125291,5.011970124253976,-0.2697211187593762,20.688079370557976,-27.093137605416434,-74.637199,-114.67683452182973,0.0,74.637199,0.570056699287939,-0.28216699,0.48176,-0.60276401,1.0,0.0,0.0,0.0,110.49164067628166
7.3707,6252.0175,-8.268274285537759,3.6970969639315863,-1.8634493741653655,0.8543616074056957,1.6181666593386472,5.235323451045714,-1.309515052456966,20.623529388391727,-26.69653179079222,-63.855083,-107.02334391573802,0.0,63.85508300000001,0.5886416778417749,-0.31596899,0.489425,-0.560471,1.0,0.0,0.0,0.0,107.87864664490945
