AppTimestamp(s),SensorTimestamp(s),acc_x,acc_y,acc_z,gyro_x,gyro_y,gyro_z,mag_x,mag_y,mag_z,PitchX,RollY,YawZ,Quat_w,Quat_x,Quat_y,Quat_z
0.0652,6244.6343,-2.04711,9.26105,5.80372,-0.07196,0.33372,-0.20093,-16.2,-14.7,-24.7,52.597363,9.468514,-64.286354,0.7759475835669827,0.41322699,-0.17226499,-0.44437999
0.0684,6244.6543,-2.59539,9.19162,6.00245,-0.15259,0.06005,-0.06838,-16.2,-14.7,-24.7,52.498764,10.092402,-64.708786,0.7755226338371691,0.41438699,-0.16913,-0.445245
0.072,6244.6743,-2.96411,8.97374,6.27061,-0.10373,-0.28081,0.14298,-16.1,-14.8,-24.6,52.401585,10.198832,-64.87841,0.7752987044786543,0.41392899,-0.168589,-0.44626501
0.0735,6244.6943,-3.10298,8.80375,6.57228,0.05815,-0.05662,0.27127,-16.1,-14.8,-24.6,52.428761,9.918107,-64.791161,0.7751458598201503,0.413138,-0.170294,-0.44661599
0.0763,6244.7143,-2.87074,8.45897,6.72552,0.17849,-0.08595,0.31097,-16.1,-14.8,-24.8,52.612244,9.764126,-64.623962,0.7750367226080451,0.413964,-0.17154901,-0.445559
0.0872,6244.7343,-2.55948,8.12856,6.74707,0.27745,-0.00714,0.28104,-16.0,-14.9,-24.7,52.8993,9.691807,-64.495781,0.7745897398218878,0.41571599,-0.172848,-0.44420099
0.1347,6244.7543,-2.29372,7.96575,6.65369,0.33365,0.01973,0.2731,-15.9,-14.9,-24.6,53.235542,9.760861,-64.450653,0.7738824582709184,0.41820499,-0.17370699,-0.44275999
0.1369,6244.7743,-2.03274,7.8604,6.40229,0.30433,0.00019,0.14848,-15.9,-14.9,-24.5,53.57967,9.8311,-64.41626,0.7731067279328256,0.420728,-0.174629,-0.44136
0.1457,6244.7943,-1.93936,7.68323,6.30652,0.25607,0.1303,0.04097,-15.9,-14.9,-24.5,53.818104,10.114438,-64.635681,0.7719879538238273,0.42300501,-0.174583,-0.44115999
0.1692,6244.8142,-1.87232,7.3193,6.35919,0.27073,0.08937,0.17047,-15.8,-14.9,-24.4,54.016365,10.516912,-64.865639,0.7711287022801057,0.425464,-0.17360701,-0.44068301
0.1877,6244.8342,-1.5898,7.11578,6.29694,0.28356,0.01363,0.2114,-15.7,-15.0,-24.4,54.235573,10.626722,-64.848671,0.7707132246783492,0.42730001,-0.17378201,-0.43956301
0.2056,6244.8542,-1.29291,6.95058,5.90668,0.16994,0.14313,0.11427,-15.7,-15.1,-24.4,54.417114,10.654901,-64.80117,0.7704001333374885,0.42862901,-0.174224,-0.438642
0.2274,6244.8742,-1.23305,6.66327,5.54993,-0.07074,0.38931,0.08862,-15.7,-15.2,-24.5,54.412807,10.923493,-64.826149,0.7707238426020827,0.429591,-0.172492,-0.43781599
0.2455,6244.8942,-1.28573,6.26342,5.35839,-0.29676,0.61472,0.18819,-15.6,-15.2,-24.5,54.172581,11.326314,-64.729584,0.7723981521990971,0.42975301,-0.168345,-0.43631801
0.2657,6244.9142,-1.21629,5.93062,5.47571,-0.44886,0.94764,0.38,-15.6,-15.3,-24.5,53.716537,11.747311,-64.303841,0.7759485383101637,0.42907599,-0.16186801,-0.43312401
0.2878,6244.9342,-0.96968,5.73668,5.78696,-0.41099,1.17427,0.5767,-15.5,-15.3,-24.5,53.197113,12.140182,-63.461163,0.781151043434418,0.42840701,-0.153736,-0.42735901
0.3054,6244.9542,-0.56744,5.64331,5.95217,-0.29187,1.30133,0.67444,-15.4,-15.2,-24.6,52.774963,12.500648,-62.342442,0.7869643076959334,0.42849401,-0.145226,-0.41951099
0.3316,6244.9742,0.00479,5.59542,5.70795,-0.24056,1.37769,0.6555,-15.3,-15.2,-24.7,52.481052,12.870986,-61.101147,0.792754748521256,0.429465,-0.136746,-0.410366
0.3477,6244.9942,0.3328,5.66007,5.38472,-0.3609,1.26162,0.52905,-15.1,-15.1,-24.8,52.149914,13.226995,-59.904877,0.7983497898803507,0.429957,-0.128365,-0.401618
0.3658,6245.0142,0.39506,5.71992,5.32726,-0.39694,0.9397,0.5541,-14.9,-15.0,-24.9,51.678802,13.382549,-58.773071,0.8037910250276498,0.428642,-0.121039,-0.39438
0.3849,6245.0342,0.51956,5.7726,5.60021,-0.2595,0.48766,0.67199,-14.7,-14.9,-25.0,51.255772,12.935882,-57.475864,0.8089615328284032,0.42566901,-0.117581,-0.38802299
0.4071,6245.0542,0.86194,5.78696,5.84921,-0.10861,0.44856,0.77889,-14.5,-14.8,-25.3,51.023872,11.856483,-55.985447,0.8135268184550156,0.42202699,-0.118765,-0.38205001
0.4335,6245.0742,1.26418,5.82048,5.98329,-0.00171,0.75094,0.8296,-14.3,-14.7,-25.6,50.937607,10.717015,-54.312576,0.8181154546650978,0.41942599,-0.120394,-0.37453201
0.445,6245.0942,1.61374,5.85161,5.91625,0.10275,0.81752,0.8467,-14.0,-14.5,-25.9,50.952652,9.759976,-52.525215,0.8228318942843306,0.41832101,-0.120771,-0.36519799
0.4675,6245.1142,1.86275,5.94259,5.60021,0.12596,0.62022,0.8015,-13.8,-14.3,-26.3,51.053905,8.709368,-50.658092,0.8272765680498511,0.41769701,-0.121898,-0.35536399
0.4872,6245.1342,2.13569,6.14371,5.13811,-0.16542,0.30623,0.50523,-13.6,-14.0,-26.5,51.085182,7.417178,-48.878078,0.8312422869844988,0.41587201,-0.124886,-0.34711701
0.5295,6245.1542,2.23625,6.23469,4.88671,-0.52706,0.31845,0.22667,-13.3,-13.8,-26.7,50.736698,6.184716,-47.522629,0.8350860230823048,0.41118801,-0.127766,-0.34239101
0.562,6245.1742,2.01598,6.27061,4.98967,-0.76896,0.39786,0.16742,-13.0,-13.5,-27.0,50.039478,5.243197,-46.491661,0.8393629595497647,0.404549,-0.128664,-0.33949301
0.568,6245.1942,1.78373,6.50524,5.32487,-0.81905,0.36487,0.28776,-12.8,-13.2,-27.3,49.181881,4.389677,-45.462391,0.8442170463233374,0.39699,-0.128562,-0.33640501
0.569,6245.2142,1.88908,6.84044,5.71753,-0.75063,0.25858,0.29753,-12.5,-12.9,-27.6,48.357826,3.40118,-44.307362,0.8491344829712311,0.38939199,-0.12931,-0.33260101
0.5917,6245.2341,2.01598,7.17804,6.1078,-0.70604,0.10709,0.10939,-12.3,-12.5,-27.9,47.630199,2.444417,-43.307339,0.853277643245714,0.38240701,-0.130825,-0.32949501
0.611,6245.2541,1.98007,7.52042,6.45975,-0.6645,-0.11954,0.00065,-12.1,-12.2,-28.2,46.957005,1.585873,-42.65686,0.8563139211694972,0.3757,-0.133068,-0.32843399
0.6371,6245.2741,1.89627,7.92026,6.90269,-0.6474,-0.23988,-0.03966,-11.9,-11.9,-28.5,46.330704,0.664144,-42.193573,0.8585570962319861,0.368931,-0.13662399,-0.32879099
0.6545,6245.2941,1.89627,8.19321,7.48929,-0.535,-0.30036,-0.05799,-11.8,-11.6,-28.7,45.751591,-0.239779,-41.821827,0.8603736472690571,0.362443,-0.14054701,-0.329604
0.6672,6245.3142,1.92739,8.25067,8.02082,-0.2314,-0.40604,-0.08181,-11.7,-11.2,-28.8,45.328739,-1.123934,-41.523056,0.8614748160139329,0.35708499,-0.14504901,-0.33062401
0.6886,6245.3342,1.85796,8.36081,8.37278,0.04044,-0.53432,-0.04577,-11.7,-10.8,-28.9,45.239315,-2.042136,-41.255894,0.8613454886405104,0.35410199,-0.15087201,-0.33156201
0.7127,6245.3542,2.01359,8.60502,8.3632,0.18094,-0.70842,-0.16062,-11.7,-10.6,-29.1,45.391769,-3.051945,-40.987419,0.8602730349708282,0.35269099,-0.15805,-0.33250499
0.732,6245.3742,2.20273,8.71037,8.09025,0.11985,-0.6791,-0.47704,-11.8,-10.3,-29.2,45.62936,-3.919735,-41.012661,0.858204021819404,0.351926,-0.165281,-0.335136
0.7472,6245.3943,2.10457,8.59545,7.97294,0.01295,-0.72796,-0.66275,-11.8,-10.0,-29.2,45.789425,-4.378635,-41.50972,0.8555430361399827,0.35105601,-0.170672,-0.34011301
0.7681,6245.4143,1.81247,8.37039,8.21476,0.13329,-0.95887,-0.70917,-11.8,-9.8,-29.2,45.892582,-4.770704,-42.223755,0.8524713671908164,0.34957999,-0.17606001,-0.34653899
0.7862,6245.4343,1.47248,8.13575,8.35123,0.40818,-1.1348,-0.70917,-11.9,-9.7,-29.3,46.193256,-5.339988,-42.964104,0.8483236247064677,0.34894401,-0.183375,-0.353495
0.8128,6245.4544,1.20193,7.88674,8.27461,0.53829,-1.20505,-0.69512,-12.1,-9.5,-29.3,46.755569,-6.033559,-43.673111,0.8430985354913979,0.349843,-0.192229,-0.36033699
0.8423,6245.4744,1.06066,7.63055,8.08547,0.53707,-1.18367,-0.74766,-12.3,-9.4,-29.2,47.41518,-6.732023,-44.358112,0.8374874768018683,0.351383,-0.20130201,-0.366909
0.8509,6245.4944,0.8787,7.43901,7.91068,0.5444,-1.05172,-0.80386,-12.6,-9.4,-29.2,48.055744,-7.247721,-45.1492,0.8318007693621111,0.35306999,-0.209305,-0.373685
0.8692,6245.5144,0.62491,7.25705,7.779,0.59755,-0.97231,-0.80813,-12.9,-9.5,-29.0,48.703194,-7.515581,-46.0205,0.8261794038213249,0.35537201,-0.215791,-0.380227
0.8887,6245.5345,0.36872,7.09663,7.71675,0.7356,-0.96131,-0.71345,-13.2,-9.6,-28.7,49.393047,-7.703679,-46.872421,0.8205360598201763,0.35820401,-0.221798,-0.38628501
0.9103,6245.5545,0.22506,6.96495,7.55633,0.91092,-1.01079,-0.6542,-13.6,-9.8,-28.6,50.196205,-7.977527,-47.557617,0.814802126370863,0.36182201,-0.22826,-0.39125401
0.9399,6245.5745,0.05746,6.88833,7.13973,0.95002,-1.12319,-0.8118,-14.1,-10.1,-28.2,51.109962,-8.298059,-48.242355,0.8084838936925335,0.36600399,-0.235402,-0.39620799
0.9484,6245.5946,-0.25619,6.87636,6.73749,0.85778,-1.16107,-0.74644,-14.7,-10.8,-27.8,51.992973,-8.431112,-49.260361,0.8014041319643541,0.36982301,-0.242239,-0.402868
0.9673,6245.6146,-0.42618,6.7327,6.43581,0.7692,-1.16657,-0.6487,-15.6,-11.8,-26.9,52.728973,-8.587342,-50.239933,0.7948540241402692,0.37247401,-0.24872699,-0.40939599
0.9908,6245.6346,-0.43097,6.4837,6.04315,0.74171,-1.16595,-0.64442,-16.1,-12.5,-26.5,53.368896,-8.749319,-51.228256,0.788529437980092,0.37430099,-0.25503099,-0.41602799
1.0157,6245.6546,-0.59378,6.28497,5.49486,0.58105,-1.35105,-0.68596,-16.4,-13.3,-25.4,53.975918,-8.837249,-52.353851,0.7819064019768989,0.375763,-0.26120999,-0.42331299
1.0365,6245.6747,-0.77814,6.16047,5.03277,0.36359,-1.43474,-0.62487,-17.3,-14.1,-24.7,54.389385,-8.952342,-53.688171,0.7750820369294207,0.375177,-0.26767999,-0.43224701
1.0587,6245.6947,-0.78293,6.05033,4.75742,0.16139,-1.49032,-0.62304,-17.5,-14.6,-23.8,54.593861,-9.112556,-55.09074,0.7685715238532974,0.37268701,-0.27400199,-0.44195601
1.0701,6245.7147,-0.68237,5.92583,4.56109,-0.01576,-1.44512,-0.76232,-18.4,-15.1,-23.5,54.633301,-9.143273,-56.693104,0.7620919758237847,0.368972,-0.279524,-0.452705
1.1022,6245.7348,-0.53153,5.79175,4.32885,-0.24789,-1.35777,-0.93031,-19.3,-16.1,-23.2,54.537495,-8.809783,-58.671165,0.7553540975544382,0.364786,-0.28331801,-0.46486801
1.1142,6245.7548,-0.34478,5.76541,3.95534,-0.5802,-1.07249,-1.15694,-19.0,-15.9,-22.6,54.21867,-8.0339,-61.058193,0.7486400884094303,0.35987899,-0.284623,-0.47855499
1.1317,6245.7748,-0.28252,5.88273,3.5124,-1.10066,-1.20322,-1.46176,-19.1,-16.1,-21.8,53.573692,-6.724231,-63.86478,0.7423170993241769,0.35412499,-0.28239,-0.49377799
1.1741,6245.7948,-0.43576,5.94259,3.43818,-1.70603,-1.50987,-1.84355,-19.5,-16.2,-21.7,52.371342,-5.341255,-67.230026,0.7351118494799004,0.34394199,-0.27885401,-0.513376
1.1744,6245.8149,-0.9601,5.84203,3.98886,-2.0365,-1.39381,-2.17708,-19.3,-16.4,-21.7,50.637856,-3.779789,-71.20591,0.726357555876979,0.33017099,-0.27307001,-0.53742403
1.1892,6245.8349,-1.57543,5.57866,4.54673,-2.31078,-0.98331,-2.28521,-19.4,-16.3,-22.0,48.61953,-1.847344,-75.491547,0.7164662039936844,0.316486,-0.263592,-0.56305599
1.2056,6245.8549,-2.11414,5.38712,5.0591,-2.56001,0.19383,-2.36401,-19.5,-16.6,-22.1,46.187325,0.767653,-79.72773,0.707727986286313,0.305011,-0.246675,-0.58757198
1.2285,6245.875,-2.66962,5.34881,5.83724,-2.43967,0.23476,-2.31941,-19.7,-16.8,-21.9,43.44833,4.039488,-83.635544,0.7006050507948818,0.29751199,-0.222242,-0.60930097
1.2487,6245.895,-3.36396,5.35599,7.41028,-1.7775,-0.5728,-2.63829,-19.7,-16.9,-21.7,40.813698,6.858071,-87.327591,0.6911881669134243,0.290492,-0.19975699,-0.630849
1.2685,6245.915,-4.19716,4.79094,7.64492,-0.84471,-1.08349,-2.73236,-19.7,-17.0,-21.6,38.848301,8.78291,-91.369919,0.6751259612548606,0.28331301,-0.186803,-0.65501398
1.2865,6245.935,-4.69517,4.00323,6.88115,-1.22711,-1.36388,-2.26688,-19.7,-17.1,-21.5,37.433136,10.292605,-95.324036,0.6565909286987748,0.278045,-0.179021,-0.67788702
1.3085,6245.955,-5.0591,3.56029,6.83565,-2.07682,-1.09815,-1.91991,-19.6,-17.1,-21.6,35.320381,10.967917,-98.381798,0.6418348095544365,0.26628301,-0.169055,-0.69897199
1.3265,6245.975,-5.58584,3.69915,7.91787,-2.0756,-0.72613,-1.49902,-19.5,-17.1,-21.8,32.492191,11.757205,-100.755348,0.6311103659529765,0.25321499,-0.151651,-0.717345
1.3473,6245.995,-6.13653,3.36874,8.52601,-1.90639,-0.75668,-0.95474,-19.3,-17.0,-22.0,29.867657,12.318707,-102.440765,0.6232334345511157,0.241292,-0.13480499,-0.73156399
1.3716,6246.015,-6.50046,3.13411,9.12937,-1.90456,0.29585,-0.10686,-19.1,-16.8,-22.3,27.448183,12.789944,-103.32988,0.6195289790889527,0.231112,-0.117825,-0.74087
1.3864,6246.035,-6.71115,3.28016,10.40552,-1.90578,1.92991,0.57364,-18.8,-16.5,-22.6,25.240761,14.190149,-103.040306,0.6236822081181727,0.229268,-0.094731,-0.74127102
1.4066,6246.0549,-6.76383,3.71352,11.73913,-1.59118,2.10767,1.00064,-17.9,-15.2,-24.1,23.260218,16.713379,-102.000458,0.6326218235842639,0.236147,-0.06542,-0.73467302
1.4336,6246.0749,-5.83245,3.99844,12.09348,-1.12448,1.41312,1.02568,-17.2,-14.1,-24.9,21.879267,18.870529,-100.533585,0.6430320921999151,0.243444,-0.041084,-0.724953
1.4585,6246.0949,-5.07586,4.36955,12.04081,-1.01208,0.63793,0.796,-16.6,-12.9,-26.5,20.9508,20.096972,-99.20977,0.6516387966996438,0.246687,-0.025155,-0.71685398
1.4691,6246.1149,-4.75742,4.83404,12.56994,-1.15747,-0.44636,0.63717,-16.3,-11.9,-27.2,20.055794,20.378258,-98.035698,0.658873667021228,0.243899,-0.015137,-0.711456
1.4916,6246.1349,-4.86996,4.94657,12.68487,-1.59851,-2.04255,0.89679,-16.9,-11.0,-28.0,18.977314,19.12932,-96.88958,0.6656685435094857,0.230473,-0.012934,-0.70964801
1.5086,6246.1549,-4.69278,4.33603,12.06236,-2.61927,-2.17938,1.71596,-17.3,-8.8,-27.7,17.376951,16.193945,-95.062256,0.6764825440477819,0.203683,-0.016311,-0.70754403
1.5294,6246.1749,-3.8069,3.35438,12.01208,-3.25823,-0.89473,2.4545,-17.8,-5.9,-27.2,14.94134,13.549688,-92.085815,0.6944631424016682,0.17381801,-0.011753,-0.69811898
1.5546,6246.1949,-2.69835,2.41582,13.20203,-3.01755,-0.12015,2.66158,-18.5,-3.0,-29.2,12.138429,12.280785,-88.427788,0.7165215363288113,0.149519,0.00293,-0.681346
1.5696,6246.2149,-1.71191,1.49403,14.4686,-1.76833,0.0851,2.61027,-18.0,-0.3,-29.0,9.855551,11.751003,-84.739082,0.7381418718289187,0.131862,0.017766,-0.66139501
1.5997,6246.2349,-0.95532,0.36393,14.85408,0.06243,0.32822,2.4154,-17.3,1.1,-29.2,9.02592,11.448078,-81.494537,0.7566037826840413,0.124213,0.024223,-0.64151001
1.6154,6246.2549,-0.14845,-0.38069,14.82774,1.99948,0.92259,1.99757,-17.1,1.5,-28.2,10.16708,11.565663,-78.928482,0.7707458525727524,0.13184901,0.021449,-0.62298203
1.6366,6246.2749,0.04789,-0.59857,14.2603,3.83697,1.33676,1.73368,-17.2,0.9,-29.0,13.250564,12.389657,-77.285042,0.7790854607808696,0.156524,0.012094,-0.60694301
1.6512,6246.2949,-0.34238,-0.68955,12.84528,5.32564,1.2549,1.93465,-16.6,-1.6,-29.0,18.079556,13.405089,-76.242554,0.7829452434259497,0.193919,-0.005652,-0.59106702
1.6751,6246.3149,-1.3384,-0.5866,11.7942,6.37328,0.81386,2.27246,-15.2,-3.5,-28.6,24.04693,14.226009,-75.32235,0.7840723938489353,0.237636,-0.030422,-0.572568
1.6921,6246.3349,-2.13569,-0.52435,9.76385,6.57548,-1.13297,2.51314,-15.5,-6.1,-28.6,30.884251,13.946692,-74.122116,0.7829781552985113,0.28143299,-0.065897,-0.550816
1.7098,6246.3549,-1.47248,0.06943,6.1054,3.66531,-0.3138,1.25354,-16.9,-8.3,-28.7,36.652374,11.489914,-72.720856,0.7792800483693009,0.30827299,-0.108953,-0.534621
1.7311,6246.3749,-1.85796,0.99602,4.61137,1.70627,1.48276,1.2908,-16.6,-9.2,-29.1,38.928188,11.046281,-71.740906,0.7792781574711045,0.32194,-0.120807,-0.52391398
1.747,6246.3949,-1.87951,1.69036,4.13731,0.65986,2.50718,2.20343,-15.7,-8.3,-27.3,39.355816,11.744327,-69.838669,0.7877423131743653,0.32980201,-0.112752,-0.50791699
1.7677,6246.4149,-1.62571,1.75979,4.23547,0.09542,2.82666,2.58156,-14.9,-8.5,-30.0,39.065548,12.731621,-66.564003,0.8033546151236575,0.33512601,-0.094989,-0.48300001
1.7943,6246.4349,-1.55388,1.79331,4.66884,-0.15137,2.59575,2.97984,-15.0,-8.6,-29.9,38.56118,13.639901,-62.828506,0.8202923556211529,0.33822501,-0.075228,-0.455044
1.8125,6246.4548,-0.72307,1.95852,5.74147,0.11863,0.63304,3.27611,-13.7,-7.6,-29.7,38.173092,13.481307,-58.572456,0.837316342912271,0.33749101,-0.062107,-0.42561001
1.8413,6246.4748,0.76377,2.2602,6.05512,0.7637,-1.29118,3.34331,-14.9,-8.1,-29.3,38.283592,10.689695,-54.139488,0.8514624534903109,0.33076301,-0.070214,-0.400846
1.8583,6246.4948,1.69994,2.06386,5.06629,1.2304,-1.14641,3.24496,-15.7,-7.6,-29.5,38.945942,6.207724,-49.66814,0.8619418430698441,0.32353199,-0.093476,-0.379006
1.8692,6246.5148,1.70951,1.85796,3.51958,0.55173,-0.7579,2.97129,-16.3,-7.7,-27.2,39.660221,1.980995,-45.20052,0.8705881593052939,0.31938499,-0.115335,-0.35604399
1.8892,6246.5348,1.20911,1.79571,3.29213,-0.54721,-0.87518,3.37568,-16.4,-7.9,-29.0,39.544086,-1.813935,-40.872883,0.8798361714467414,0.31174701,-0.13206001,-0.33355999
1.9123,6246.5548,2.57385,1.61853,3.65845,-0.50262,-0.75668,4.25166,-17.0,-7.2,-28.6,38.524555,-6.240903,-35.766857,0.8915597128196069,0.297708,-0.150059,-0.30655101
1.9331,6246.5748,5.12135,1.84599,4.56349,-0.31386,-0.2014,3.84238,-16.4,-7.0,-28.3,37.300667,-10.717327,-29.99897,0.9034757269619809,0.28464499,-0.16787501,-0.27299601
1.9498,6246.5948,7.07029,2.41343,5.36318,-0.15198,-0.40298,3.13012,-16.1,-7.6,-28.1,35.839748,-14.281355,-25.004471,0.9134409392780355,0.272457,-0.18156201,-0.24171899
1.9708,6246.6148,9.09106,3.36396,6.40947,0.34526,-1.13908,2.41357,-16.9,-7.2,-27.5,34.282669,-18.225235,-20.618504,0.9199345091320359,0.25922799,-0.200977,-0.21477801
1.9892,6246.6348,10.15412,4.1828,6.8596,0.91886,-1.60517,1.5663,-17.8,-6.1,-27.7,33.417576,-22.539326,-17.074472,0.9205616842563783,0.25105301,-0.22696,-0.195007
2.0092,6246.6548,10.10623,4.65447,6.57707,1.22368,-2.11096,1.15458,-19.3,-4.9,-26.0,33.294849,-26.949306,-14.154113,0.9163896838937787,0.24896801,-0.25587201,-0.18103699
2.0326,6246.6748,10.36482,5.07586,5.93062,1.1064,-2.52269,1.14236,-21.6,-5.0,-26.8,33.399498,-31.693892,-11.416057,0.9090479753148235,0.249051,-0.28774899,-0.169723
2.0467,6246.6948,11.31774,5.56908,5.37515,0.69223,-2.53063,0.92795,-21.9,-4.0,-25.6,33.200165,-36.696289,-8.922816,0.8998502844094011,0.246878,-0.32185,-0.16041601
2.0859,6246.7148,11.65294,6.28258,4.9753,0.35137,-1.91121,0.41238,-23.8,-3.4,-23.8,32.785912,-40.997658,-7.086882,0.8907757158875516,0.243084,-0.35164899,-0.154181
2.0952,6246.7348,11.43506,6.60102,4.767,-0.07929,-1.60272,0.28287,-24.9,-3.5,-22.9,32.406704,-44.159805,-6.044823,0.883082360264885,0.23919,-0.3741,-0.151667
2.1114,6246.7548,11.49012,6.86199,5.24107,-0.3047,-1.9949,0.1326,-25.7,-2.9,-21.3,31.809572,-46.854912,-5.556461,0.8761199344627424,0.23262,-0.394106,-0.151599
2.1258,6246.7748,11.78462,7.27381,5.62176,0.03677,-2.20198,-0.27485,-26.0,-2.1,-19.9,31.407133,-49.754532,-5.397151,0.8670198327995271,0.226207,-0.41608599,-0.154853
2.1476,6246.7948,11.56674,7.5276,5.54753,0.1394,-2.33026,-0.9297,-27.5,-2.8,-18.6,31.76296,-52.637199,-5.399341,0.8554573440327811,0.224925,-0.43751901,-0.161798
2.1678,6246.8148,11.13577,7.54436,5.69119,0.05754,-2.45732,-1.37074,-28.9,-3.9,-19.4,32.700706,-55.210991,-5.910291,0.8424652170720284,0.226208,-0.456911,-0.17411099
2.1881,6246.8348,10.59706,7.40549,5.93541,0.23286,-2.44083,-1.87409,-29.4,-4.1,-17.8,34.117538,-57.556877,-6.763306,0.8281363594016505,0.229524,-0.47460899,-0.19040801
2.2099,6246.8547,9.90751,7.22832,6.08625,0.41612,-2.63264,-2.40555,-29.7,-5.1,-16.8,36.164886,-59.8009,-7.772682,0.8116954574250369,0.236334,-0.49102199,-0.210224
2.234,6246.8747,9.01444,6.82368,5.86358,0.54318,-2.51536,-2.94066,-30.8,-6.5,-13.5,38.786976,-62.089493,-8.816731,0.7925984553151106,0.24626,-0.50687498,-0.23285501
2.2461,6246.8947,7.56351,6.19878,5.27219,0.59083,-1.97535,-3.20822,-31.7,-8.4,-12.9,41.793537,-63.831268,-10.177053,0.7731445511019914,0.257765,-0.51880401,-0.25816101
2.2708,6246.9147,6.33046,5.61697,4.17083,0.36298,-1.39197,-3.31696,-31.4,-10.2,-11.2,44.899044,-64.723404,-11.711558,0.7557446745043589,0.27040499,-0.52502602,-0.28298199
2.2885,6246.9347,4.56828,5.21712,3.35438,-0.02248,-0.5667,-3.50694,-31.4,-11.7,-11.6,47.979153,-64.281891,-13.973932,0.7415432574098958,0.282579,-0.52431703,-0.30879501
2.3077,6246.9547,2.86595,5.51641,2.90186,-0.40122,-0.31197,-3.11171,-30.0,-14.1,-8.6,50.820553,-62.312122,-17.114689,0.7313343531681524,0.29358,-0.51675701,-0.33454901
2.3335,6246.9747,1.85077,5.61457,2.62413,-0.86181,-0.50805,-2.78489,-29.9,-15.4,-10.3,53.002098,-59.674591,-20.9175,0.7230977298773794,0.29980701,-0.50812602,-0.35924
2.3609,6246.9947,1.15165,5.42303,2.61694,-1.12143,-0.15497,-2.81421,-29.3,-16.9,-9.8,54.715469,-56.361103,-25.567396,0.7154492100627408,0.302223,-0.498667,-0.38486999
2.3745,6247.0147,0.64167,5.16684,2.56906,-1.23932,0.31539,-3.00725,-28.9,-18.1,-9.9,56.347,-51.840778,-31.119694,0.7084223846143061,0.30572,-0.48512101,-0.41149801
2.3905,6247.0347,0.3783,4.91545,2.36315,-1.38715,0.94886,-3.35178,-28.0,-19.8,-10.5,57.925625,-45.847523,-37.652641,0.7018565440551507,0.31216401,-0.46648499,-0.43856901
2.4172,6247.0547,-0.10056,4.71433,2.34878,-1.54781,1.42534,-3.85879,-25.7,-20.3,-10.6,59.319382,-37.855652,-45.615868,0.6954955366048295,0.32222199,-0.44128999,-0.466607
2.4363,6247.0747,-1.28812,4.42701,2.53314,-1.55575,1.39785,-4.05366,-23.0,-21.5,-12.4,60.266811,-27.972439,-55.257462,0.6872559444570558,0.33465099,-0.41109601,-0.49667701
2.4514,6247.0947,-2.66483,4.22829,2.42061,-1.48917,1.46199,-3.70241,-21.7,-22.1,-13.2,60.435223,-17.699558,-65.346901,0.6769230215202017,0.34683499,-0.38036901,-0.52611798
2.4675,6247.1147,-3.61536,4.49405,3.09101,-1.52582,0.70818,-3.38904,-18.6,-23.5,-13.4,59.714062,-8.161763,-74.603775,0.6666527776758152,0.3576,-0.35002801,-0.55242801
2.4888,6247.1347,-4.62574,5.03516,3.3448,-1.26681,0.31967,-3.06345,-17.2,-24.5,-14.7,58.364971,-0.203735,-83.093361,0.6528437235570085,0.36389199,-0.32454801,-0.57969499
2.5083,6247.1547,-5.99287,5.435,2.70553,-1.51055,0.62938,-2.67127,-15.9,-24.7,-14.7,56.7174,6.901997,-90.670853,0.6378078176908457,0.37096599,-0.299981,-0.60464603
2.5299,6247.1747,-7.38634,5.79893,2.46371,-2.41829,0.71795,-1.77391,-10.8,-25.1,-13.3,54.266319,12.972578,-96.401901,0.6277784663085855,0.37697399,-0.27080399,-0.62485999
2.5457,6247.1947,-8.29137,5.86358,3.36635,-2.61377,0.22254,-1.273,-10.2,-24.9,-14.8,51.049583,16.931581,-100.071518,0.621924518459917,0.375579,-0.24133401,-0.64335698
2.5688,6247.2147,-8.91867,5.96414,4.04632,-2.55574,0.13091,-0.75743,-13.3,-23.3,-20.0,47.878452,19.482422,-102.342995,0.6182772472944152,0.371216,-0.214587,-0.65869898
2.5869,6247.2347,-9.68724,6.14131,4.77658,-2.74083,0.02462,-0.13191,-9.2,-23.3,-17.7,44.852867,21.145418,-103.335045,0.6184914324825525,0.36564001,-0.18898199,-0.66937399
2.6197,6247.2547,-10.2451,6.54595,6.27061,-2.6718,-0.21178,0.73674,-13.1,-20.5,-21.3,41.952808,21.787558,-103.136757,0.6229253207929181,0.35673901,-0.16568699,-0.676202
2.6557,6247.2746,-9.54358,6.96495,9.01684,-1.97297,-0.10549,1.39709,-9.3,-19.9,-21.9,39.597061,21.469879,-101.581306,0.6332649428335027,0.34616801,-0.14706799,-0.67639798
2.6613,6247.2946,-8.22912,7.46774,10.86043,-0.93328,0.19689,1.74895,-9.7,-19.2,-21.1,38.309174,21.075649,-99.737122,0.6444705399398172,0.34000599,-0.135287,-0.67137998
2.674,6247.3146,-7.4845,8.09983,11.47815,-0.32608,0.89327,2.02323,-9.6,-18.7,-21.7,38.088985,21.007149,-97.792122,0.6558521245428727,0.34077099,-0.12846801,-0.66123301
2.6941,6247.3347,-6.55313,8.85882,11.65533,-0.0964,1.29889,2.49359,-9.7,-18.1,-21.4,38.503353,21.187641,-95.447739,0.6691126696303541,0.34644499,-0.123047,-0.64585102
2.7099,6247.3547,-4.43899,9.55076,12.36164,0.42101,0.57623,2.52414,-12.8,-18.2,-25.5,39.448643,20.625793,-92.225647,0.6855686144956608,0.351639,-0.122481,-0.62557501
2.7296,6247.3747,-2.344,10.30256,12.36643,1.33425,0.36793,1.7801,-12.3,-17.8,-22.1,41.0868,19.229509,-89.281685,0.6981014361404644,0.356076,-0.13182899,-0.60702997
2.7492,6247.3948,-1.77176,10.77663,11.31534,1.66473,0.46322,1.18756,-12.0,-18.2,-22.9,43.268826,18.58732,-87.760597,0.7024891169904341,0.36631,-0.143997,-0.592951
2.767,6247.4148,-2.03513,10.69762,9.97455,1.47719,0.87617,1.06111,-11.8,-18.1,-23.2,45.45417,18.588232,-86.970367,0.7033701016656875,0.379143,-0.15429799,-0.58113098
2.7865,6247.4348,-2.44934,10.3289,8.7415,1.08502,1.59699,1.26881,-13.9,-18.1,-22.5,47.371933,19.095264,-85.976616,0.7060269690193427,0.39335701,-0.15901101,-0.56702
2.8091,6247.4548,-2.99763,9.73752,8.19081,0.63542,1.89815,1.42641,-13.3,-18.2,-22.6,48.887253,19.9007,-84.456665,0.712018343912978,0.40752101,-0.157444,-0.549698
2.8285,6247.4749,-2.72229,8.78938,8.81572,0.82907,0.52309,1.56325,-13.3,-18.1,-22.6,50.047207,19.945406,-82.370796,0.7198736074205248,0.41686001,-0.156233,-0.53254199
2.8475,6247.4949,-1.97288,7.43662,8.88755,1.4778,0.15901,1.48872,-12.8,-18.1,-23.0,51.512424,18.777853,-80.353271,0.7246658249297947,0.42235899,-0.164327,-0.519104
2.8709,6247.5149,-1.23545,6.70636,8.14772,1.15649,1.03927,1.3525,-12.7,-18.3,-23.3,53.209843,17.731327,-78.521965,0.727696095284453,0.429811,-0.173335,-0.50564402
2.894,6247.535,-1.28573,6.00724,7.2786,1.0728,1.55606,1.22238,-12.4,-17.9,-23.6,54.408772,17.552073,-76.652763,0.732798004908665,0.43859401,-0.173737,-0.490365
2.9064,6247.555,-2.00401,5.20994,6.25145,0.92497,1.26773,1.47711,-12.7,-17.8,-23.8,55.437634,17.604965,-74.709724,0.738570950484691,0.44757101,-0.171214,-0.47421399
2.9304,6247.575,-2.48526,4.48208,5.37515,0.61282,0.97818,2.0275,-12.9,-17.8,-24.0,56.275986,16.631321,-71.955963,0.746167900819755,0.45254701,-0.17093299,-0.45740199
2.9465,6247.595,-2.58103,3.90267,4.93221,0.42528,1.00323,2.58339,-13.4,-17.8,-24.3,56.881199,14.477185,-68.007545,0.7566985798455286,0.45362499,-0.17237,-0.43808699
2.9668,6247.6151,-2.02316,3.40466,4.88911,0.37947,0.90671,3.05131,-13.8,-17.8,-24.3,57.287018,11.482304,-63.006443,0.7695710628953116,0.45253199,-0.17437901,-0.41541201
2.993,6247.6351,-0.88828,2.96651,4.95615,0.56395,0.74972,3.40256,-14.2,-17.9,-24.4,57.563366,7.653336,-57.151802,0.783347112867597,0.44985899,-0.17841899,-0.39007801
3.0095,6247.6551,0.45731,2.72708,4.95615,0.8254,0.96596,3.4331,-14.6,-17.8,-24.2,57.800335,3.241875,-50.709805,0.7966686091713417,0.447162,-0.184494,-0.362391
3.0347,6247.6752,1.27375,2.55948,4.63053,1.0111,1.19199,3.29749,-14.9,-17.9,-24.3,57.958778,-1.043599,-44.159538,0.8089450704590516,0.44595,-0.189496,-0.332908
3.0556,6247.6952,1.86514,2.4254,4.08942,1.03126,1.07287,3.4331,-15.4,-17.9,-24.2,57.946411,-5.289447,-37.52002,0.8202975673592601,0.445196,-0.19384401,-0.30221999
3.0773,6247.7152,3.36874,2.55709,3.33522,0.92192,0.57807,3.54001,-15.8,-17.8,-24.2,57.632629,-10.411795,-30.261824,0.8308890491750507,0.44262299,-0.20204,-0.26997799
3.0868,6247.7352,4.66884,2.8037,2.33202,0.77836,0.0179,3.22785,-16.1,-17.8,-24.2,57.143284,-16.376461,-22.792398,0.838668868742199,0.43933401,-0.216152,-0.238534
3.1323,6247.7553,5.30092,3.04073,1.4198,0.26035,-0.42375,3.02627,-16.5,-17.6,-24.3,56.320736,-22.326614,-16.042988,0.843735622561072,0.434663,-0.23363,-0.21117599
3.1386,6247.7753,6.1054,3.11495,1.0032,-0.32913,-0.14092,3.14417,-17.0,-17.4,-24.3,54.637646,-27.938341,-10.078343,0.8491263416505342,0.42480901,-0.252767,-0.186093
3.155,6247.7953,7.79097,3.33522,1.11813,-0.82882,0.44856,2.94319,-17.2,-16.9,-23.9,51.898968,-32.840748,-4.46484,0.8570322988136211,0.40951201,-0.27034,-0.15719999
3.1731,6247.8153,8.96656,3.8045,1.4653,-1.11104,0.87861,2.20099,-17.7,-16.0,-23.6,48.669872,-36.391544,0.047678,0.8656434302928429,0.391583,-0.28435799,-0.128315
3.1878,6247.8354,9.26584,4.12773,1.91063,-1.28208,0.9904,1.68969,-19.5,-14.2,-24.3,45.686264,-38.306694,2.956032,0.8735519271291546,0.37439701,-0.292806,-0.104874
3.2074,6247.8554,9.67048,4.37434,2.71032,-1.43663,0.39481,1.42702,-17.6,-13.4,-24.0,42.862,-39.601303,4.852877,0.8802776936411599,0.35681999,-0.30048999,-0.086582
3.2312,6247.8754,10.36721,4.53715,3.47888,-1.20328,0.03684,0.97315,-20.1,-11.1,-24.5,40.250031,-41.037067,6.256645,0.8846471405171893,0.33972201,-0.31103399,-0.072431
3.2541,6247.8955,10.5827,4.83404,4.18998,-1.08966,-0.53799,0.38244,-18.2,-11.0,-23.4,38.217651,-42.47834,6.874182,0.8862429789329899,0.32510099,-0.323392,-0.065577
3.2739,6247.9155,10.34566,5.23149,4.5994,-0.87158,-0.83853,0.11916,-18.7,-9.8,-23.4,36.736835,-44.07452,7.121794,0.8853573170512908,0.313656,-0.33726299,-0.063372
3.291,6247.9355,10.372,5.43261,4.46532,-0.87219,-0.86541,0.0874,-18.9,-9.3,-23.0,35.575504,-45.746155,7.279706,0.8830903747687096,0.30439901,-0.35149401,-0.062806
3.3078,6247.9555,10.43904,5.54753,3.78774,-1.22466,-0.66016,-0.13618,-19.5,-8.3,-23.3,34.481441,-47.169891,7.186359,0.8810004199981291,0.295044,-0.36435601,-0.063498
3.3275,6247.9755,10.2451,5.58105,3.34001,-2.0249,-0.61557,-0.3848,-20.9,-7.0,-24.0,33.293816,-47.913235,6.371123,0.8806629390537789,0.28300801,-0.373878,-0.067487
3.3509,6247.9955,10.26426,5.32726,3.94576,-2.43112,-0.89473,-0.62182,-20.8,-5.7,-23.9,31.822727,-48.239754,4.560597,0.8814867550879137,0.26565301,-0.38272399,-0.077019
3.3675,6248.0155,10.4127,4.96094,4.83404,-2.39569,-1.42557,-0.81791,-21.4,-4.4,-21.5,30.400753,-48.720669,2.294781,0.8810880807490248,0.246775,-0.393181,-0.090524
3.388,6248.0356,10.35763,4.66405,5.44698,-2.22893,-1.92343,-1.1435,-24.0,-2.8,-24.7,29.286806,-49.765324,-0.229061,0.877490011612098,0.228521,-0.407552,-0.108124
3.4095,6248.0556,9.56992,4.39349,5.83245,-2.20449,-2.09814,-1.28339,-24.8,-1.8,-23.1,28.568893,-51.120049,-2.82761,0.8713492835017999,0.21220499,-0.423482,-0.127994
3.4361,6248.0756,8.73671,4.39828,6.21793,-2.21488,-2.30705,-1.12945,-26.1,-0.9,-21.0,27.964264,-52.52895,-5.562407,0.8639777942030686,0.195584,-0.439412,-0.149018
3.4548,6248.0956,8.65291,4.76461,6.68482,-2.24298,-2.58683,-1.05981,-27.5,-0.6,-21.4,27.298931,-54.098801,-8.311521,0.8554090404373804,0.177591,-0.455984,-0.169751
3.472,6248.1157,8.14532,5.01122,7.43662,-2.24481,-2.22947,-1.15755,-28.6,0.0,-19.5,26.76647,-55.612598,-11.114543,0.8460081090942331,0.159826,-0.47150999,-0.190799
3.4896,6248.1357,6.5651,5.09981,8.33686,-2.0927,-1.92709,-1.00666,-29.2,0.5,-18.3,26.398729,-56.636608,-14.034762,0.8374152505587773,0.143085,-0.48293599,-0.21221501
3.5096,6248.1557,4.40068,5.36318,9.64653,-1.5808,-1.91915,0.0428,-30.3,0.9,-18.2,25.860794,-57.418198,-16.453077,0.8306529393128035,0.127249,-0.491447,-0.228699
3.5344,6248.1758,2.70792,5.27698,10.92986,-0.64678,-2.37241,1.30241,-30.8,2.0,-15.2,24.747316,-58.571026,-17.689518,0.8256846516962145,0.111211,-0.50085503,-0.234566
3.5538,6248.1958,1.31206,4.96573,11.2076,0.59816,-3.00222,2.60783,-31.2,3.5,-16.0,23.130264,-60.695034,-17.273586,0.8206576399285878,0.096717,-0.51535398,-0.227106
3.5707,6248.2158,0.31604,4.5156,10.01765,1.51995,-3.72304,4.07635,-33.1,5.1,-13.7,20.922691,-63.900658,-14.972629,0.8147715614173704,0.084951,-0.53602499,-0.20398
3.6037,6248.2358,0.64406,3.60099,7.86759,1.80584,-4.02541,5.35122,-32.2,8.6,-9.2,17.587456,-67.836174,-11.375389,0.8075896640937155,0.071587,-0.561306,-0.166162
3.62,6248.2559,1.80528,2.46371,6.11258,1.77163,-3.70349,6.02562,-33.3,11.6,-8.2,13.063575,-71.496521,-7.657092,0.8000865559394184,0.05336,-0.585302,-0.120149
3.6484,6248.2759,3.0934,0.73025,4.99446,1.99154,-3.11584,6.51064,-31.9,15.5,-6.7,7.800841,-74.269379,-3.9336,0.793493985330059,0.033526,-0.60379899,-0.068338
3.6613,6248.2959,4.57306,-0.9625,4.17801,2.3544,-2.20504,6.71956,-29.5,18.4,-5.5,1.947714,-75.85675,0.093739,0.7886740932235822,0.013909,-0.61457598,-0.009802
3.6689,6248.316,5.83485,-2.19794,3.25621,2.6134,-1.48971,6.58028,-27.2,20.9,-5.8,-4.152893,-76.139534,4.537184,0.785242421655249,-0.00411,-0.616862,0.053467
3.7015,6248.336,6.58426,-3.43818,2.2578,2.55232,-0.87396,6.4801,-24.6,24.0,-7.3,-10.197005,-75.456116,9.325183,0.7807669934974198,-0.020511,-0.61319,0.118238
3.7129,6248.356,6.95537,-4.92023,1.65684,2.41732,-0.33273,6.47644,-21.1,26.3,-7.4,-16.291216,-74.00219,14.159673,0.77402888031941,-0.038865,-0.60516298,0.182062
3.7307,6248.376,7.21156,-5.96174,1.09418,2.36356,-0.23439,6.43612,-17.2,28.6,-8.4,-22.414982,-71.900681,19.197666,0.7639431312412718,-0.05911,-0.59406197,0.244923
3.7485,6248.3961,7.19719,-6.99607,0.34238,2.16014,-0.57525,6.35609,-9.9,28.1,-6.4,-28.41724,-69.710228,24.414455,0.7478480078020129,-0.079718,-0.58408302,0.30531201
3.7696,6248.4161,7.34324,-7.74308,-0.21788,1.59081,-0.91733,6.27057,-5.2,28.9,-7.1,-34.336018,-67.582703,29.565866,0.7258665570875544,-0.101602,-0.57639301,0.361339
3.7905,6248.4361,7.73111,-8.25067,-0.06225,1.12411,-1.58073,5.91444,-2.7,29.7,-9.5,-40.168118,-65.906075,34.433815,0.697487588312982,-0.124026,-0.57327199,0.41168901
3.8076,6248.4562,7.60661,-9.17247,0.2514,1.13755,-2.71511,5.59496,-3.2,30.1,-10.7,-45.617279,-65.095528,39.067657,0.6625713279315666,-0.142141,-0.57665002,0.456366
3.8378,6248.4762,7.06551,-10.40791,-0.30168,1.24568,-2.9845,5.65971,3.9,29.3,-8.4,-50.696289,-64.759216,44.074753,0.6214249934986193,-0.153547,-0.58426797,0.49888399
3.8509,6248.4962,6.71115,-11.38717,-1.22587,0.87122,-2.92219,5.72507,2.6,29.9,-11.8,-55.821835,-63.710339,49.683147,0.5773430966499554,-0.164875,-0.59026301,0.53951901
3.8685,6248.5162,6.67284,-12.07912,-1.93697,0.36725,-2.94785,5.53143,10.2,27.8,-9.5,-61.060677,-62.274643,55.39661,0.530680985107455,-0.17795201,-0.59646797,0.57527101
3.8912,6248.5363,6.65608,-12.45981,-2.43977,0.14673,-3.50374,4.88024,11.9,26.6,-11.3,-66.095337,-61.072178,60.712219,0.48295449224573855,-0.19007701,-0.60487098,0.60395098
3.9125,6248.5563,6.05033,-12.80698,-2.82764,0.07037,-3.64424,4.35734,13.4,26.2,-12.2,-70.492256,-60.317173,65.912994,0.4347793044959234,-0.19547699,-0.61571801,0.62741297
3.9458,6248.5763,5.01361,-12.82613,-2.70314,0.00012,-3.93623,3.94134,13.1,26.1,-13.2,-74.404793,-59.485054,71.157509,0.38794128696474106,-0.19706701,-0.62682801,0.64633799
3.9499,6248.5963,3.70394,-12.86923,-2.19076,0.13268,-4.75296,3.66829,13.1,24.7,-14.7,-77.885811,-58.430141,77.13884,0.33947177884731383,-0.19223399,-0.63883799,0.66309202
3.9672,6248.6163,2.84679,-12.83092,-1.53473,0.38558,-5.10481,3.48442,12.5,23.6,-15.6,-81.013184,-55.272232,85.934464,0.28753119032348307,-0.180683,-0.65027899,0.67957097
3.9902,6248.6363,2.37512,-12.56994,-0.57223,0.79608,-4.94049,3.01588,11.0,22.1,-20.1,-83.486786,-45.672176,101.40773,0.2355336603498957,-0.164518,-0.658261,0.69580901
4.0116,6248.6563,1.88908,-12.17249,0.8763,1.41611,-5.22943,2.56751,9.1,22.7,-22.4,-84.589081,-26.669697,126.259529,0.18684929533599867,-0.14376201,-0.66121602,0.71218902
4.0314,6248.6763,0.57941,-11.49252,2.174,2.2365,-5.70407,2.62188,7.2,21.6,-23.5,-83.79364,-6.459839,152.807739,0.13813098639457777,-0.115968,-0.65790999,0.73118103
4.0506,6248.6963,0.15563,-10.98493,2.5499,2.76734,-5.40475,2.45083,5.1,19.6,-25.6,-81.299088,6.23675,172.236542,0.0866508565715283,-0.085213,-0.64618301,0.75344402
4.0738,6248.7163,0.04549,-10.4965,2.60497,2.63417,-4.47196,1.48994,2.2,17.3,-26.0,-78.129227,9.532637,-178.305969,0.04093560694016249,-0.055225,-0.62890399,0.77443802
4.0902,6248.7363,-0.66082,-9.21556,1.97288,2.18213,-2.7762,1.03301,2.3,16.4,-28.2,-75.34745,7.894974,-175.117355,0.008462654330599676,-0.028468,-0.61148298,0.79070002
4.109,6248.7563,-0.41182,-8.37996,1.64966,1.13633,-0.78966,0.81738,2.0,14.9,-29.2,-73.353325,7.619349,-172.71814,0.011267471031214235,0.015334,0.59816098,-0.80115002
4.1335,6248.7763,0.22027,-8.0711,2.83722,0.78264,0.2256,0.25538,1.3,14.1,-28.9,-72.479797,8.608313,-171.122375,0.018044689690854016,0.014727,0.59241802,-0.80529398
4.1498,6248.7963,1.03672,-8.25307,4.62813,1.15893,0.08388,-0.4691,1.8,13.9,-29.3,-71.744019,8.368066,-171.635376,0.016353071228326375,0.016343,0.58717197,-0.80913198
4.1715,6248.8163,1.4629,-8.17645,5.49007,1.84127,-0.69864,-1.36891,1.2,12.7,-28.5,-70.390671,5.010471,-175.04303,0.010195899360958847,0.010786,0.57682198,-0.81673503
4.194,6248.8363,2.23865,-8.28898,4.90108,1.85165,-1.18367,-2.18563,0.5,12.0,-31.5,-68.268448,-1.307403,179.265121,0.0015988742348805125,-0.005845,0.56114697,-0.827694
4.2104,6248.8563,3.1772,-8.77023,4.40307,1.36785,-0.86358,-3.15569,-0.6,10.5,-32.8,-66.001045,-9.034661,172.29129,0.01346792407827719,0.029407,-0.54616803,0.83705097
4.2358,6248.8763,3.79732,-9.25148,4.34082,0.84739,0.07899,-4.04877,-1.7,10.3,-30.9,-63.70163,-17.285465,163.979095,0.03851648683485373,0.053697,-0.53441501,0.84263498
4.2491,6248.8962,4.03196,-9.90512,4.97051,0.59999,0.92626,-4.78731,-1.8,9.3,-31.8,-61.126034,-25.134178,154.707214,0.07605935905724363,0.074152,-0.52528203,0.84427202
4.2694,6248.9162,4.00083,-10.51565,5.79893,0.8926,0.69535,-5.52707,-2.6,8.6,-32.6,-57.724922,-32.008656,145.389359,0.12335668222102497,0.092509,-0.51482201,0.84331697
4.2905,6248.9362,3.81647,-11.12859,6.32567,1.23101,-0.26982,-5.91802,-3.0,8.6,-32.1,-53.175838,-38.147095,137.218887,0.1720652513451774,0.117817,-0.50044203,0.84028
4.3106,6248.9562,3.57226,-11.39196,6.41666,1.19742,-0.99003,-6.15626,-3.5,7.9,-30.7,-47.951614,-43.561501,130.692108,0.21690286950116608,0.150732,-0.48437101,0.83403701
4.334,6248.9762,3.6369,-11.46379,6.70636,0.89443,-1.45856,-6.20757,-5.2,6.8,-32.2,-42.575386,-48.372021,125.229866,0.25889159678131635,0.18663301,-0.46966001,0.82314199
4.3497,6248.9962,3.89549,-11.30577,6.88354,0.68246,-1.61922,-6.16176,-6.4,5.8,-33.1,-37.273979,-52.646866,120.584747,0.2978108194221961,0.22301,-0.457019,0.80790401
4.3737,6249.0162,4.45814,-10.81733,7.04875,0.39108,-1.39442,-6.03409,-4.4,3.5,-30.4,-32.170238,-56.211639,116.578461,0.33445871011597217,0.25662199,-0.44584,0.789626
4.393,6249.0362,4.84601,-10.10145,7.56112,0.17483,-0.95337,-6.02614,-5.0,2.3,-30.2,-27.30229,-58.808632,112.917374,0.3711818248177565,0.28405201,-0.434986,0.76962698
4.4096,6249.0562,4.98488,-9.02881,8.47813,0.37153,-1.77865,-6.0463,-10.0,0.6,-32.8,-22.487038,-60.768547,109.568123,0.4073388267289273,0.30830401,-0.423491,0.74811703
4.4408,6249.0762,5.18121,-7.92266,8.47094,0.65925,-3.3895,-5.9901,-8.5,-1.9,-30.5,-17.496717,-63.358219,106.899071,0.4367365363846033,0.33989,-0.41308901,0.723252
4.4565,6249.0962,5.66007,-7.11339,7.09663,0.40268,-4.56847,-5.91924,-14.1,-3.1,-30.3,-12.418419,-67.207039,104.903801,0.45714739128088644,0.38131899,-0.40672699,0.692954
4.4697,6249.1162,6.39511,-6.71355,5.62415,-0.42015,-4.63323,-5.86426,-11.8,-5.6,-26.2,-7.54479,-71.778534,102.9673,0.47324145362662384,0.42449,-0.405976,0.65653199
4.499,6249.1362,6.58186,-6.43102,5.09262,-1.02919,-4.34001,-5.93329,-15.3,-7.9,-25.8,-2.906011,-76.071663,100.694313,0.4904208629052189,0.461496,-0.40843901,0.61618698
4.5146,6249.1562,6.06949,-5.87316,5.08783,-1.27414,-4.04008,-5.82212,-16.7,-9.7,-25.1,1.725146,-79.773781,98.259369,0.5093338774455316,0.49243101,-0.41083401,0.573852
4.5383,6249.1762,5.39191,-4.81967,4.74545,-1.28392,-4.05901,-5.37618,-17.8,-11.2,-21.8,6.137849,-82.924133,96.030327,0.5269263892397682,0.51830399,-0.41245899,0.532529
4.5496,6249.1962,5.33205,-3.37832,3.75422,-1.37005,-4.8452,-4.78792,-21.1,-12.9,-22.0,10.047497,-86.079765,94.14209,0.5396438977198574,0.541403,-0.416201,0.49238601
4.5677,6249.2162,6.19399,-2.27217,3.02876,-1.8172,-6.02172,-4.34626,-22.7,-13.5,-18.9,13.397157,-90.066406,92.316734,0.5456893915077693,0.56391698,-0.42727199,0.449065
4.5877,6249.2362,7.0272,-0.67758,2.42779,-2.26863,-6.81218,-4.40674,-23.5,-15.4,-16.1,16.622469,-95.119469,90.229965,0.5467930278478866,0.58622301,-0.44620001,0.39782599
4.6109,6249.2562,8.02561,0.46928,1.40544,-3.11407,-6.89404,-4.1459,-25.1,-17.3,-14.2,20.20455,-100.63884,87.925919,0.5461777054906387,0.60659403,-0.46762401,0.33920699
4.6316,6249.2762,8.94501,0.62251,0.59139,-3.92713,-5.35649,-4.59,-28.5,-17.3,-14.1,24.332882,-105.358696,84.889153,0.5504512992455187,0.61893302,-0.48743001,0.276292
4.6523,6249.2962,9.39992,0.42858,0.49083,-4.34313,-2.48726,-5.48431,-27.9,-19.3,-13.4,29.489496,-107.707611,81.294334,0.566678639169891,0.62259698,-0.49472201,0.215635
4.6866,6249.3161,8.95459,0.91222,0.80926,-4.08351,-0.69253,-6.43542,-26.0,-21.6,-12.4,35.768223,-106.680305,77.623344,0.5971594199145812,0.62136197,-0.479954,0.164177
4.6951,6249.3361,7.91787,1.70951,0.93856,-3.71821,-0.25393,-7.03713,-23.5,-23.5,-13.8,42.702126,-103.821838,74.079788,0.6312235170151533,0.62083602,-0.44982901,0.11736
4.7136,6249.3561,6.48848,2.11654,0.85954,-3.79946,-1.09082,-7.04629,-20.7,-25.4,-16.9,49.802147,-100.369545,70.007401,0.6612533742414928,0.62049001,-0.41602799,0.068241
4.7342,6249.3761,4.74785,2.43977,0.73265,-4.12078,-1.45001,-6.58448,-18.7,-25.5,-17.7,56.484665,-96.13475,64.023026,0.685793152432743,0.61554098,-0.388089,0.013564
4.7486,6249.3961,3.08143,3.1796,0.5435,-4.31014,-1.35899,-5.78058,-17.3,-26.3,-19.8,62.11351,-89.247116,54.890247,0.7081143876090922,0.60320002,-0.364797,-0.040582
4.7683,6249.4161,1.70951,3.84042,0.31365,-4.26922,-0.67238,-5.06342,-15.5,-24.9,-20.6,66.166077,-78.806435,42.293373,0.728830119558241,0.58525199,-0.34388801,-0.089598
4.7911,6249.4361,0.22985,4.17562,0.36393,-4.31503,-0.26493,-4.51059,-13.9,-23.8,-21.3,69.504623,-63.81292,25.87516,0.7472335088064371,0.568847,-0.31489101,-0.137473
4.8076,6249.4561,-1.56586,4.8077,0.5004,-4.70537,-1.08471,-3.82092,-13.0,-22.3,-24.9,70.631775,-44.860397,5.583599,0.7640907750605813,0.54888099,-0.28494701,-0.183576
4.8275,6249.4761,-3.42621,5.03755,0.82124,-5.28386,-2.65647,-2.99564,-13.1,-20.9,-26.4,68.609299,-28.56764,-13.271523,0.7790835579917856,0.51896,-0.26555699,-0.230627
4.8547,6249.4961,-3.95055,4.54912,1.52515,-5.46468,-3.32903,-2.04758,-13.7,-18.6,-28.3,64.262497,-19.509935,-26.417213,0.7919157818631598,0.47751901,-0.25946,-0.27843401
4.8702,6249.5161,-3.14129,4.30491,2.40625,-5.80249,-3.58437,-1.14594,-14.2,-16.0,-28.0,58.87796,-16.119078,-34.271576,0.8036965060809707,0.42906499,-0.26006299,-0.31990999
4.8913,6249.5361,-2.02316,3.95534,4.30969,-5.8367,-2.60393,-0.48499,-15.4,-12.8,-31.4,52.67318,-15.679299,-39.157349,0.8162161374607952,0.37312299,-0.26245201,-0.354527
4.9108,6249.5561,-1.14207,3.06707,5.84442,-5.53859,-1.57096,0.17414,-16.4,-9.1,-28.1,46.43248,-15.787731,-42.130249,0.8300215989230159,0.31900701,-0.25812799,-0.37771499
4.9301,6249.5761,-0.838,2.05668,7.44141,-5.14153,-0.97292,0.29448,-17.2,-5.4,-31.2,40.521652,-15.453178,-44.181133,0.8438570695107671,0.27052701,-0.24591801,-0.39274001
4.9703,6249.5961,-0.03352,0.68716,8.40151,-4.63574,-2.04438,-0.02867,-18.5,-1.3,-29.7,34.996525,-14.683743,-46.013329,0.8556511623414532,0.226858,-0.228735,-0.40506399
4.9755,6249.6161,1.77895,-0.73983,9.10782,-4.04686,-2.78292,-1.14594,-19.7,0.9,-30.4,29.9053,-15.216089,-48.210426,0.8601738982142738,0.181206,-0.22121,-0.42229301
5.0006,6249.6361,2.95932,-0.93856,9.35204,-3.97844,-2.99122,-1.87287,-17.2,1.3,-26.6,25.473598,-16.26417,-51.344086,0.8567597944536379,0.13693801,-0.218908,-0.446419
5.0155,6249.6561,3.10777,-0.84518,9.14374,-4.46347,-2.76337,-1.7788,-19.1,1.9,-27.6,21.014065,-17.649271,-54.942291,0.849134601517333,0.090297,-0.216956,-0.473019
5.0331,6249.6761,1.88908,-1.20911,8.81333,-5.12687,-2.75054,-1.1887,-25.1,6.1,-23.8,15.900587,-19.295067,-58.424728,0.8408893397175515,0.038011,-0.21141601,-0.49675301
5.0541,6249.6961,0.84518,-2.01119,8.37996,-5.14459,-2.20626,-0.30845,-22.3,6.8,-19.9,10.260698,-21.210424,-61.487652,0.8329833403730231,-0.018163,-0.202474,-0.51459998
5.0693,6249.716,2.09499,-3.32086,9.01444,-5.00348,0.02829,0.30425,-26.6,10.6,-21.5,4.477634,-22.203871,-63.584259,0.8294591690661087,-0.068786,-0.183736,-0.52297902
5.1254,6249.736,2.98566,-5.10938,12.05039,-4.23379,-0.05723,-0.41107,-21.5,11.8,-17.4,-1.244446,-21.680082,-65.299011,0.8280151546822194,-0.110437,-0.152587,-0.52812099
5.1258,6249.756,2.85398,-5.8109,14.97619,-2.05361,0.10281,-0.99872,-22.4,12.1,-16.8,-5.353693,-21.339344,-67.268494,0.8220920860554491,-0.140651,-0.128562,-0.53652
5.1292,6249.776,2.25301,-5.9402,15.83334,-0.15443,0.20361,-0.73422,-22.1,12.7,-16.5,-6.993375,-21.065016,-68.642342,0.8167491197662351,-0.15239599,-0.116877,-0.544092
5.1495,6249.796,1.5491,-6.40947,15.388,0.68796,0.62816,-0.39824,-21.8,12.9,-15.0,-7.075552,-20.313314,-69.053764,0.8155718601122645,-0.149799,-0.110576,-0.54788297
5.1676,6249.816,1.43896,-6.92185,15.04323,0.84189,0.79126,0.07579,-24.3,13.0,-16.0,-6.353227,-19.396822,-68.85321,0.8170905793775618,-0.140149,-0.107862,-0.54871398
5.1875,6249.836,1.70472,-7.62816,16.54683,1.28294,0.83096,0.245,-23.5,12.8,-17.2,-5.452524,-18.422421,-68.217499,0.8206423198922657,-0.128537,-0.106059,-0.54660398
5.2225,6249.856,1.97767,-8.37039,18.37366,2.71175,0.54019,0.24072,-23.9,11.1,-21.4,-3.781619,-17.428541,-67.179756,0.8257199730363071,-0.110943,-0.108096,-0.54239601
5.231,6249.876,1.91303,-8.41827,18.76393,3.91516,-0.05113,0.0874,-25.7,10.7,-23.3,-0.515306,-16.98661,-65.776329,0.8308749354551862,-0.083932,-0.121607,-0.53648299
5.2519,6249.896,1.56825,-7.79336,18.04804,4.851,0.37709,0.32747,-24.8,9.1,-23.3,4.01039,-16.999285,-64.100143,0.8350176622689606,-0.049054,-0.143563,-0.52889401
5.2698,6249.916,1.93218,-7.45338,16.79344,5.20286,0.6587,0.69521,-25.1,7.5,-23.5,9.321988,-16.728268,-61.780701,0.8401473718509149,-0.005442,-0.165692,-0.51639998
5.287,6249.936,2.43737,-6.99368,15.86207,5.34214,0.47239,0.68238,-25.1,5.8,-23.4,14.821377,-16.514313,-59.076004,0.844685500831333,0.040842,-0.18683501,-0.49993101
5.3072,6249.956,2.45413,-6.21554,14.66254,5.79723,-0.1342,0.55715,-24.4,4.7,-23.5,20.594009,-16.944279,-56.293476,0.8456511142900481,0.087512,-0.211216,-0.48229
5.3329,6249.976,1.97528,-5.46852,13.01049,6.02447,-0.9491,0.55226,-25.1,1.2,-24.1,26.810171,-18.488256,-53.200161,0.8418207643351998,0.134634,-0.242183,-0.46320501
5.3471,6249.996,1.11813,-4.86277,11.58111,6.32074,-1.51354,0.43437,-25.4,-2.2,-24.0,33.149281,-21.460585,-49.65131,0.8323680524668039,0.179452,-0.279636,-0.44358101
5.3669,6250.016,0.32083,-4.39349,10.12299,7.08371,-1.99429,0.50217,-26.7,-5.6,-24.3,39.765171,-25.862234,-45.192951,0.8169404993998521,0.225164,-0.32164899,-0.42243499
5.3891,6250.036,-0.15084,-3.93858,7.88435,7.52476,-2.5514,0.53882,-27.0,-9.2,-20.2,45.248219,-31.604013,-39.458202,0.8006660681663109,0.26356599,-0.36155599,-0.39842701
5.4075,6250.056,-0.21788,-3.49325,5.61936,7.46367,-3.17081,0.47224,-29.4,-12.9,-19.4,49.371719,-38.672382,-32.838142,0.7833063849921688,0.29297501,-0.399975,-0.374989
5.4335,6250.076,-0.05986,-2.64807,3.82366,7.37082,-3.68455,0.31525,-29.1,-15.2,-14.6,52.698524,-47.138577,-25.179329,0.7629173845935743,0.31893301,-0.43837199,-0.35223401
5.466,6250.096,-0.05986,-1.41023,2.34878,7.36593,-4.93866,-0.05249,-31.4,-17.3,-11.3,55.185822,-57.228603,-16.719879,0.7374965403220816,0.34058401,-0.479049,-0.33258599
5.469,6250.116,-0.30168,-0.92898,0.6273,7.28469,-5.62405,-0.8851,-32.1,-18.8,-5.2,57.035553,-69.195595,-7.664152,0.70354808488087,0.35877901,-0.52406901,-0.31882501
5.488,6250.136,-1.12291,-0.93856,-0.71828,7.6396,-5.13108,-1.34753,-31.7,-20.2,3.2,59.322899,-85.508461,4.784976,0.6515237274950925,0.38768101,-0.57421798,-0.309021
5.5124,6250.1559,-2.02795,-0.39027,-1.91781,8.06782,-5.46889,-1.02804,-31.1,-20.1,7.8,59.841103,-106.785507,22.253708,0.5844023723465535,0.42612299,-0.62527001,-0.29313901
5.5386,6250.1759,-2.74384,-0.23464,-3.59141,8.50276,-5.7731,-0.85334,-29.3,-18.6,14.8,56.513435,-127.537224,38.86301,0.5084300640444459,0.46019101,-0.67550302,-0.27095899
5.5623,6250.1959,-3.48367,-0.56026,-5.99766,8.56384,-4.78533,-0.81241,-27.7,-16.1,19.4,50.134632,-144.105698,51.36195,0.4262195526722808,0.491099,-0.72003597,-0.242295
5.5842,6250.2159,-4.17322,-0.52913,-7.89871,7.84363,-4.02297,-0.0812,-25.4,-12.6,24.6,42.200729,-155.079895,59.255665,0.34875716110723737,0.51787299,-0.75347102,-0.20605201
5.5937,6250.2359,-3.98647,-0.88588,-8.88994,7.3244,-4.17263,0.73491,-18.9,-10.3,30.2,33.955383,-162.099838,62.957764,0.27751999476815825,0.53208798,-0.78201097,-0.16829699
5.6158,6250.2559,-3.33522,-1.78613,-9.27542,7.48811,-4.2832,0.52539,-17.3,-5.3,33.2,24.586489,-169.414063,65.154907,0.19011026798266195,0.54040098,-0.809255,-0.13011999
5.6383,6250.2759,-3.02397,-3.00481,-9.16289,8.03483,-4.52571,-0.16428,-14.9,-0.1,34.0,14.881418,-176.008148,66.362404,0.09974536585736583,0.54612601,-0.82692301,-0.089418
5.6584,6250.2959,-3.14129,-4.94178,-8.77741,8.74405,-4.92644,-0.95108,-16.2,5.7,32.4,4.708992,177.663467,67.129433,0.005791735327091793,0.55159903,-0.83284801,-0.045488
5.6672,6250.3159,-4.3073,-7.27381,-8.92346,9.27,-5.11886,-1.66212,-8.8,8.8,32.6,-6.154119,171.30455,67.603096,0.09268665839957296,-0.55729902,0.82511902,-0.002364
5.6963,6250.3359,-6.10061,-9.28739,-9.30415,9.70249,-4.85619,-1.68961,-11.1,16.4,29.8,-17.50264,165.055191,67.488434,0.190682952888818,-0.56081003,0.803873,-0.05404
5.7096,6250.3559,-7.12057,-11.02803,-10.06314,9.61636,-4.64117,-1.33409,-4.8,20.6,29.0,-28.803675,158.536621,65.713188,0.2840907688076456,-0.55520397,0.77427399,-0.107428
5.7306,6250.3759,-7.34803,-12.45741,-10.50847,9.00611,-4.26793,-1.42633,-3.1,24.2,24.7,-39.248955,151.082458,62.00769,0.3691005254160978,-0.541686,0.73857898,-0.15761399
5.7499,6250.3959,-6.73988,-12.79261,-10.21398,8.45938,-3.99854,-1.79468,-2.5,29.1,18.5,-48.517612,142.377884,56.62191,0.44325837478082636,-0.52591902,0.69694501,-0.202975
5.7697,6250.4159,-5.435,-12.47417,-9.87638,8.00673,-3.59598,-2.15448,-4.9,31.7,12.8,-56.989361,131.277695,48.557209,0.5091534960245284,-0.50857401,0.64888698,-0.247105
5.7877,6250.4359,-3.71352,-11.67688,-9.12698,7.35188,-1.13847,-2.27054,-6.9,32.3,8.4,-64.195877,117.257698,36.406315,0.5606612962835047,-0.48872599,0.60068899,-0.293221
5.8092,6250.4559,-1.59938,-11.05676,-8.39193,6.33052,1.3392,-1.55461,-8.1,31.8,3.0,-69.146225,100.360229,18.754301,0.5912539687711191,-0.461573,0.56476498,-0.344107
5.8295,6250.4759,0.5028,-10.77424,-8.03998,4.53274,2.96288,-1.56316,-8.1,31.1,0.2,-71.084351,83.820297,-1.03931,0.6019915171428574,-0.427654,0.54741597,-0.393769
5.847,6250.4959,1.70233,-10.79339,-6.83805,3.04406,3.54626,-2.43792,-11.9,31.0,-5.4,-72.345413,74.323738,-15.076459,0.5909821595971227,-0.40233001,0.54512203,-0.43785
5.8723,6250.5159,2.00161,-10.59706,-4.81489,2.51383,4.06977,-2.56926,-12.5,30.8,-7.6,-74.742851,69.842209,-24.538984,0.5628919158328708,-0.38964099,0.550309,-0.47800899
5.8903,6250.5358,2.3847,-10.46777,-3.18917,2.23039,5.0386,-2.33346,-14.0,29.5,-8.3,-77.205482,65.584099,-34.460247,0.5273769707062289,-0.37558201,0.55961502,-0.51734197
5.917,6250.5558,2.64089,-10.61143,-2.28893,2.05568,5.46621,-2.91134,-13.4,28.9,-10.5,-79.505943,60.080929,-46.588844,0.48467705337065325,-0.356251,0.57242203,-0.55723101
5.9401,6250.5758,1.22347,-10.621,-2.24344,2.18702,4.95247,-3.73479,-14.2,26.9,-15.5,-82.090431,45.571236,-67.699219,0.43580573702311337,-0.340094,0.57980901,-0.59852397
5.9555,6250.5958,0.76138,-10.40312,-3.15805,2.2982,4.14552,-3.99196,-15.5,24.8,-15.9,-83.188507,13.42738,-105.860497,0.38577789581480654,-0.32765299,0.578767,-0.63941199
5.9766,6250.6158,1.18995,-10.43904,-5.02319,1.42466,3.52305,-4.45133,-15.5,23.9,-17.1,-81.587914,-18.183598,-142.479553,0.33817353776746034,-0.32075301,0.57238901,-0.674631
6.0137,6250.6358,1.77895,-10.62819,-6.33286,0.06732,3.36544,-4.995,-15.9,22.0,-19.0,-78.915268,-40.975758,-169.708282,0.28641223658852105,-0.32254601,0.56867403,-0.700387
6.0257,6250.6558,2.66483,-11.25309,-7.00804,-1.11654,3.54198,-5.2589,-17.0,19.5,-21.5,-75.551041,-58.650986,168.140823,0.22723005673941926,-0.32988,0.57120502,-0.716429
6.046,6250.6758,3.73028,-12.22277,-7.09663,-2.12813,3.97448,-5.50752,-17.1,18.4,-22.4,-71.46209,-71.805573,150.119736,0.1613675203770554,-0.33798701,0.57976699,-0.72359902
6.0536,6250.6958,4.67362,-13.40315,-6.79495,-2.63821,4.02579,-5.83555,-17.2,19.6,-20.3,-66.5131,-80.976067,135.547775,0.08905579773096967,-0.34484699,0.591461,-0.72341102
6.0714,6250.7158,5.73668,-14.48057,-6.51243,-2.81658,3.4021,-6.36823,-17.9,18.1,-23.4,-60.627113,-86.376381,124.699677,0.013934910917513305,-0.35257,0.60016203,-0.717848
6.0933,6250.7358,6.26582,-15.0121,-6.70158,-3.18554,2.5927,-6.69565,-18.8,17.3,-20.1,-53.457123,-88.696419,117.436562,0.06296232708215106,0.36656001,-0.59904999,0.70908999
6.1122,6250.7558,6.23948,-14.87084,-6.72073,-3.83367,2.66845,-6.40122,-19.9,16.7,-21.9,-45.855534,-90.341637,111.121567,0.13933846399023744,0.383376,-0.59590203,0.69174302
6.1391,6250.7758,6.66806,-14.43269,-5.86837,-4.14093,3.0765,-5.80501,-20.5,15.9,-22.5,-38.637814,-91.146461,104.854256,0.2155517455154558,0.392937,-0.59448701,0.66762501
6.1492,6250.7958,8.03519,-13.84849,-4.37673,-3.99188,2.25856,-5.84838,-21.8,15.1,-19.8,-31.950787,-91.023895,98.900238,0.28878805142959024,0.395749,-0.59242201,0.63954699
6.1709,6250.8158,9.03599,-12.69684,-3.69915,-3.41339,0.73078,-6.42198,-23.2,14.2,-21.0,-24.967052,-91.332161,93.774315,0.35345256163621036,0.40657601,-0.58756602,0.60376602
6.1865,6250.8358,9.73752,-11.48534,-4.32406,-3.57894,0.55546,-6.50262,-24.9,13.2,-19.9,-17.449575,-92.012207,89.530617,0.41059736807449154,0.42594701,-0.57906598,0.560947
6.2071,6250.8558,10.49889,-10.81973,-4.9753,-4.54166,0.70513,-6.66022,-21.7,10.0,-17.2,-9.81018,-92.329109,85.016106,0.46702013960841066,0.44195899,-0.56981999,0.51173198
6.2288,6250.8758,11.16211,-10.50368,-4.15407,-5.00653,0.51515,-7.02613,-23.0,8.9,-16.5,-1.896713,-92.039764,79.589592,0.5258475113563997,0.45166701,-0.56016397,0.45353901
6.2467,6250.8958,10.88677,-10.01525,-3.00003,-4.70965,-0.00775,-7.29491,-27.9,7.6,-16.2,6.425883,-91.420158,73.78801,0.5816627653378365,0.46035501,-0.54807597,0.386464
6.2758,6250.9158,9.97694,-9.28979,-1.5467,-3.96928,0.04845,-6.99437,-25.6,4.5,-12.8,14.829075,-90.490486,68.291588,0.6292652141290186,0.470458,-0.53179598,0.31604999
6.2987,6250.9358,9.73033,-8.46137,-0.06225,-3.21792,-0.26982,-6.34746,-30.3,1.4,-15.5,22.644285,-88.989647,63.366116,0.6674599947733345,0.48010501,-0.51123601,0.25026801
6.312,6250.9558,10.25947,-7.51323,1.06066,-2.97113,-1.19161,-6.09884,-27.4,-3.1,-13.3,28.426077,-87.979843,58.967857,0.6910462295381111,0.48514199,-0.499136,0.194822
6.3335,6250.9758,10.88677,-5.81809,1.87951,-2.63332,-1.84463,-6.47208,-27.4,-6.2,-9.9,32.694469,-87.799294,54.828094,0.7036366635867121,0.48637801,-0.497271,0.145098
6.3513,6250.9959,10.74551,-3.16284,1.58501,-2.33522,-1.91549,-7.01513,-28.1,-9.9,-12.0,37.303204,-87.975449,50.771744,0.711099117160245,0.48998901,-0.49584299,0.091589
6.3685,6251.0159,9.85005,-1.01996,1.16601,-2.25336,-0.95032,-7.19045,-27.6,-14.0,-10.9,42.541161,-87.449272,46.81752,0.7176302554166176,0.49648401,-0.486938,0.037441
6.3889,6251.0359,9.20838,0.1652,0.77814,-2.188,-0.00837,-6.90701,-28.1,-16.4,-8.7,47.757141,-85.1847,42.442585,0.7266907190180976,0.50180602,-0.46901399,-0.011713
6.4106,6251.056,7.92744,0.94574,0.27534,-2.20816,1.0356,-6.29065,-26.1,-19.4,-11.9,52.473961,-81.093681,37.111607,0.7376086108459415,0.50402302,-0.44588,-0.055546
6.4363,6251.076,6.92664,1.74782,-0.1652,-2.32239,1.97206,-5.61198,-23.5,-22.0,-13.6,56.173439,-74.872292,30.894293,0.7514445590956925,0.50317299,-0.41734701,-0.089272
6.4518,6251.096,5.95935,2.27456,-0.46928,-2.52764,2.83155,-5.23752,-22.2,-23.6,-15.1,58.80862,-66.6614,23.46032,0.7675238507517795,0.498963,-0.38529199,-0.11616
6.4749,6251.116,5.20755,2.57385,-0.34238,-2.67241,3.50411,-5.20636,-21.1,-23.3,-17.4,60.499508,-56.424244,14.873375,0.7856371356061269,0.49304599,-0.34747601,-0.137624
6.5045,6251.1361,4.07266,2.68159,-0.11971,-2.40486,3.56581,-5.4953,-17.0,-24.0,-20.3,61.567856,-44.906063,5.218021,0.8020513202545084,0.48745,-0.306243,-0.159127
6.5103,6251.1561,2.14048,2.61215,-0.03352,-2.14402,3.29825,-5.32609,-14.5,-24.5,-23.6,62.243309,-33.12611,-4.767398,0.8137113576593729,0.484833,-0.26443499,-0.18134201
6.5433,6251.1761,-0.05986,2.57385,0.00479,-2.18189,2.68983,-4.93758,-8.9,-23.5,-25.4,62.451965,-18.922779,-17.114569,0.8214256256602784,0.484754,-0.215094,-0.20978101
6.5507,6251.1962,-2.36554,2.81567,-0.03831,-2.50565,1.57194,-4.50631,-7.1,-23.2,-28.1,61.068462,-4.965335,-29.631571,0.8262792489375005,0.481161,-0.16586401,-0.241321
6.5716,6251.2162,-5.04234,3.30649,-0.19872,-2.86972,0.61533,-3.94065,-4.7,-21.0,-27.5,58.067287,5.009169,-39.463024,0.8293718346406272,0.469291,-0.127731,-0.27494201
6.5992,6251.2362,-7.67126,3.73267,0.62251,-3.10368,-0.00409,-3.43424,-4.2,-19.7,-29.7,54.086964,11.326149,-46.358715,0.8324284070655085,0.450519,-0.097294,-0.30761901
6.6102,6251.2562,-9.63696,4.21871,1.93218,-3.05482,-1.17023,-2.13127,-4.2,-17.2,-29.2,49.815758,14.432619,-50.734261,0.8357088914255728,0.42634901,-0.076057,-0.33768699
6.6424,6251.2763,-10.07511,4.62095,3.75901,-2.8288,-1.97352,-1.01461,-4.3,-15.7,-31.7,46.186081,15.871094,-53.687294,0.8373383420387961,0.40395501,-0.062105,-0.36308101
6.655,6251.2963,-9.13416,4.91545,6.11737,-2.25825,-2.80552,-0.30722,-5.5,-14.3,-33.0,43.105373,16.06632,-55.627308,0.838508978895074,0.38237399,-0.054767,-0.38430899
6.6812,6251.3163,-7.74308,5.03755,8.9905,-1.41281,-3.24351,0.10511,-7.3,-13.1,-31.9,40.753094,14.677984,-56.633846,0.8395865806169603,0.36081401,-0.058393,-0.40186799
6.6867,6251.3364,-7.32888,4.5994,12.02884,-0.09762,-3.3498,0.5095,-9.1,-11.8,-32.8,39.384098,12.471446,-57.281361,0.8389702760533296,0.343003,-0.070803,-0.416491
6.7153,6251.3564,-8.37278,4.27618,13.76708,1.17604,-2.2313,1.93282,-11.3,-13.1,-32.3,39.478031,9.925741,-57.295193,0.8369294744078738,0.334319,-0.089852,-0.42391801
6.7317,6251.3765,-9.01205,3.74225,14.37283,1.86937,-1.5172,4.0794,-12.0,-13.6,-30.9,40.8363,7.0986,-55.004147,0.8396441875829664,0.33564299,-0.109331,-0.412781
6.7502,6251.3965,-7.05832,2.52117,14.67212,2.48757,-1.49032,5.27059,-13.2,-14.5,-29.0,42.892101,2.407587,-49.402851,0.8486183389889472,0.34026799,-0.134993,-0.381892
6.7756,6251.4166,-3.88591,1.79571,14.43029,3.69647,-3.52084,4.3494,-16.6,-15.3,-27.8,45.729477,-5.229762,-41.552074,0.8543231479322093,0.348001,-0.17698801,-0.34307799
6.792,6251.4367,-2.05668,1.70712,12.97218,4.93713,-4.40659,3.15883,-18.7,-16.7,-25.8,49.170509,-14.783453,-34.21714,0.8461344811198749,0.359916,-0.23319,-0.316448
6.8092,6251.4567,-1.93697,1.47008,10.57551,5.71477,-4.65461,3.01833,-21.3,-18.4,-23.0,52.635403,-24.11334,-27.692818,0.8289417733322648,0.37616199,-0.28555,-0.299698
6.8377,6251.4768,-2.42301,0.91461,7.68083,6.23034,-4.50006,4.03603,-20.9,-19.9,-16.3,55.510017,-34.901928,-19.454254,0.8084826958750322,0.393033,-0.33663201,-0.280285
6.8557,6251.4969,-0.9601,0.23943,4.32406,6.88885,-5.41391,4.59497,-24.5,-20.7,-12.9,56.830196,-48.674999,-7.890707,0.7859706803808141,0.40760201,-0.39143401,-0.250779
6.8747,6251.5169,1.56586,0.22746,0.55308,7.0886,-5.54952,3.43982,-30.4,-19.4,-11.4,56.702629,-64.187973,4.696046,0.7552706899849879,0.42112401,-0.45070601,-0.221551
6.8928,6251.5369,2.90426,0.53153,-2.42301,6.82104,-4.8061,2.89432,-27.9,-19.6,-2.2,55.878471,-78.142891,15.77882,0.7199147629273064,0.43674001,-0.50162601,-0.198374
6.9162,6251.557,3.42381,0.93856,-4.82207,6.50706,-3.61552,3.34025,-33.2,-17.0,1.0,52.939491,-94.434151,28.941929,0.6704764836631034,0.45731801,-0.56049699,-0.16481701
6.9406,6251.577,3.1772,1.30727,-6.65848,6.26027,-2.58927,3.89492,-30.5,-15.8,5.3,47.701382,-106.108536,38.861664,0.625924904582746,0.47236401,-0.60847002,-0.121879
6.9525,6251.597,2.7175,0.83081,-8.42545,6.11366,-2.93624,4.37628,-30.6,-12.7,11.4,40.874802,-114.099686,45.606468,0.5834010556473475,0.47983399,-0.65125602,-0.072582
6.9695,6251.6171,3.3041,-0.20351,-10.01765,5.90841,-3.43837,4.4954,-30.1,-8.4,13.1,33.193295,-120.552742,50.116234,0.5354973162217901,0.48078001,-0.69393301,-0.023456
6.9898,6251.6371,4.53476,-1.27615,-10.89874,5.21874,-3.46403,4.39766,-29.3,-4.6,15.0,24.798243,-126.975815,53.363182,0.47582849003280503,0.478082,-0.73786497,0.024086
7.0172,6251.6571,4.61377,-2.24104,-10.08708,4.88032,-3.2826,4.33413,-30.4,0.0,17.3,16.571419,-132.503174,55.048088,0.4143706174576568,0.47004199,-0.77643001,0.067186
7.0329,6251.6771,3.79971,-3.54113,-9.05275,5.54678,-3.03276,4.50029,-29.4,3.8,14.3,8.411784,-137.165802,55.757507,0.3538323440767103,0.45781299,-0.80816102,0.109935
7.0561,6251.6972,3.01918,-5.40388,-9.1605,6.39466,-2.86233,4.69149,-26.9,10.7,17.5,-0.467972,-141.271622,56.281891,0.2905591942586567,0.443764,-0.83253801,0.159779
7.0824,6251.7172,2.59779,-7.13015,-9.71836,6.53088,-2.92097,4.95782,-27.7,15.5,16.9,-10.026481,-145.107178,56.281353,0.2240449418231085,0.425118,-0.850366,0.21437401
7.0916,6251.7372,2.43258,-8.70079,-10.02962,6.70987,-3.01321,4.69698,-25.2,20.0,14.5,-19.639055,-149.14679,55.551331,0.15529827126172324,0.402502,-0.86154699,0.26760301
7.1459,6251.7573,1.68318,-10.25707,-10.25468,7.00797,-3.12072,4.61574,-22.1,23.4,12.1,-29.114475,-153.415878,54.526424,0.08576643450138147,0.38012701,-0.86379701,0.31937799
7.1476,6251.7773,1.06306,-11.80617,-10.49171,7.14236,-3.20075,4.72386,-18.7,26.9,10.7,-38.628746,-158.31842,52.651814,0.015059340473601877,0.35529199,-0.85833299,0.369872
7.1604,6251.7973,0.53871,-12.90275,-10.34566,7.25537,-3.28688,4.34452,-16.6,29.0,5.8,-47.926655,-164.401398,49.407188,0.055533801516728556,-0.32829699,0.84552902,-0.41739401
7.1689,6251.8173,0.44294,-13.79581,-9.76625,7.33845,-3.4848,3.7868,-13.0,30.8,2.8,-56.739471,-172.235275,44.531273,0.12449723577043555,-0.30285701,0.82461202,-0.46129501
7.1918,6251.8374,0.18675,-14.19805,-8.99529,7.26575,-3.65157,3.04643,-11.0,31.1,-1.8,-65.271675,176.910828,36.873264,0.1920340163645484,-0.280018,0.79400301,-0.50425398
7.212,6251.8574,-0.69195,-14.11186,-8.27461,7.10693,-3.43471,2.46122,-9.9,31.1,-5.2,-72.773766,159.937134,23.236801,0.25500487217996326,-0.26086599,0.75566602,-0.54395801
7.2349,6251.8774,-2.19794,-13.66173,-8.17645,6.97315,-3.90019,2.13196,-9.4,30.0,-10.5,-77.939743,129.203949,-4.20016,0.3124192180607317,-0.24382401,0.71174598,-0.57996702
7.2524,6251.8975,-3.84999,-12.81895,-8.97853,6.67749,-4.21295,1.7068,-10.1,27.8,-13.6,-78.046333,84.874397,-44.731709,0.3685517033530021,-0.230242,0.66161698,-0.61108202
7.274,6251.9175,-5.23867,-11.66491,-10.08947,5.77097,-4.21662,1.12587,-10.8,26.7,-16.4,-73.692497,54.565933,-70.94249,0.4197094018721984,-0.22117899,0.60801703,-0.63658398
7.2904,6251.9375,-5.76063,-10.47974,-10.93226,3.96891,-4.924,1.17718,-11.4,25.8,-17.7,-68.541794,38.836735,-82.25235,0.46393886215181296,-0.21933401,0.55625403,-0.65363199
7.3116,6251.9575,-5.07586,-9.9961,-10.89395,1.09052,-5.19278,1.61822,-13.5,24.2,-20.2,-64.601738,30.859964,-84.649887,0.5066726172493828,-0.22941101,0.513107,-0.65373898
7.3356,6251.9775,-4.33843,-9.77582,-9.41908,-1.67304,-4.46646,1.74956,-13.6,25.7,-16.2,-63.328556,28.037214,-81.357452,0.5433725227327749,-0.251856,0.488336,-0.63469899
7.3491,6251.9975,-4.39828,-9.52443,-7.12297,-3.22586,-4.02358,2.02384,-15.2,26.3,-16.9,-64.485542,29.04171,-74.637199,0.570056699287939,-0.28216699,0.48176,-0.60276401
7.3707,6252.0175,-4.92023,-9.17726,-4.82686,-3.74021,-3.47075,2.28162,-14.5,28.3,-13.8,-67.014206,34.647148,-63.855083,0.5886416778417749,-0.31596899,0.489425,-0.560471
7.3916,6252.0375,-5.28416,-9.02881,-3.14847,-3.02794,-3.60758,2.48932,-14.1,29.2,-9.6,-69.701508,46.85384,-47.239212,0.5988837994374189,-0.34968501,0.50902098,-0.50985903
7.4201,6252.0575,-3.76619,-10.21877,-3.17481,-2.39386,-4.58924,2.82468,-13.1,30.7,-6.8,-70.023811,58.78862,-30.631069,0.6138675604181731,-0.37595001,0.51975602,-0.460089
7.4403,6252.0775,-1.30967,-11.54998,-3.72789,-3.35475,-5.02051,2.74649,-7.4,30.0,-3.5,-68.89698,68.068466,-15.588248,0.6341276374257154,-0.401847,0.52084702,-0.406349
7.4522,6252.0975,0.43336,-11.91152,-3.60578,-4.39689,-5.08343,2.39524,-6.1,30.3,-0.9,-67.699493,77.641502,0.281539,0.6479072910685294,-0.435256,0.51956201,-0.347597
7.4776,6252.1175,0.35196,-11.26267,-2.97369,-4.85748,-4.71875,2.19366,-5.6,31.4,3.5,-66.292267,87.290428,16.320629,0.6533091319325327,-0.473683,0.51586902,-0.28755999
7.4922,6252.1375,-0.50998,-10.52044,-2.38949,-4.42926,-3.87453,2.32622,-7.3,31.8,2.0,-64.282478,95.795944,30.634583,0.6518044996669164,-0.50997502,0.51169902,-0.230739
7.5119,6252.1575,-2.28653,-10.26665,-2.22668,-4.05358,-2.8721,2.91509,-0.3,31.9,10.6,-61.488258,101.785889,41.300323,0.647184529805433,-0.53693098,0.51034701,-0.18000899
7.5409,6252.1775,-4.36237,-10.35763,-2.47568,-3.99494,-2.01384,3.96883,-2.3,31.9,10.5,-57.546242,106.046425,49.126888,0.6393650113601139,-0.55441397,0.51651698,-0.130567
7.5575,6252.1974,-4.25223,-11.55238,-3.40945,-3.92835,-1.8715,4.60169,4.3,29.8,16.1,-52.426472,108.746132,54.467289,0.6289696907958442,-0.56248999,0.53064901,-0.080086
7.6027,6252.2174,-2.78694,-12.90275,-4.18998,-4.46042,-2.13173,4.39766,7.2,28.4,18.9,-46.838112,110.161301,58.764328,0.6175960805439419,-0.56740397,0.544002,-0.026261
7.6092,6252.2374,-2.48526,-12.69205,-3.94576,-4.94911,-2.4335,3.89492,11.6,24.2,20.8,-41.516354,111.35762,63.60957,0.6023352585877568,-0.576841,0.55099899,0.0291
7.6214,6252.2574,-3.80211,-12.18925,-3.78295,-5.07556,-3.01627,3.64385,13.0,22.7,24.1,-36.696854,111.978828,68.643578,0.5856007940984028,-0.589046,0.55051601,0.083837
7.6375,6252.2774,-5.25783,-11.75589,-2.96172,-4.66383,-3.51229,3.64324,15.4,19.3,21.8,-32.183556,111.405045,73.474411,0.5708457269679081,-0.59994698,0.54268199,0.140339
7.6562,6252.2974,-5.61936,-10.2882,-1.96331,-3.57955,-3.29787,3.69822,18.7,16.8,23.8,-28.03138,109.721733,77.358292,0.5597158004321999,-0.60466897,0.53226697,0.19438501
7.6728,6252.3174,-7.05593,-8.76544,-2.0495,-2.66814,-2.5569,3.5174,20.2,13.2,19.9,-24.521732,107.515533,80.03051,0.5525864476191031,-0.60291499,0.522879,0.24029
7.7127,6252.3374,-9.46217,-8.31771,-2.56187,-2.27108,-1.50437,4.56137,19.9,11.9,21.2,-21.175262,105.860916,81.793968,0.5438637541605428,-0.59721398,0.52034599,0.27710599
7.7154,6252.3574,-9.75188,-8.96895,-3.29692,-2.21182,-1.95519,4.8833,21.1,8.6,19.1,-16.777611,104.637703,82.958588,0.5295344225806468,-0.58540303,0.52752,0.314037
7.7329,6252.3774,-9.0336,-8.33447,-4.53236,-2.57223,-2.86599,4.76051,22.3,5.0,18.9,-12.293539,102.608902,84.232742,0.517130214832241,-0.57006699,0.53072399,0.35486901
7.7522,6252.3975,-9.24908,-7.66647,-5.08305,-3.60459,-2.69556,5.17285,23.0,1.0,16.9,-7.804676,100.033775,86.448112,0.5028509025425916,-0.55540699,0.52709597,0.401041
7.7708,6252.4175,-9.90512,-7.58267,-4.41025,-4.47324,-2.26246,6.05494,25.0,-2.9,15.4,-2.653555,97.868622,90.109245,0.4763049322303508,-0.54423898,0.52170998,0.45249999
7.7919,6252.4375,-8.85642,-6.71355,-3.49804,-4.6449,-2.16961,6.3677,24.7,-8.7,14.2,3.292253,95.903122,94.674042,0.43801241499334226,-0.532794,0.51717401,0.50676101
7.8101,6252.4575,-7.5276,-5.47571,-2.72708,-4.63635,-2.72672,5.51799,23.9,-13.6,11.2,8.914686,93.375572,99.710495,0.3976979177106154,-0.52015799,0.50844902,0.55924201
7.83,6252.4776,-8.02082,-4.64489,-1.4653,-4.75302,-2.72488,4.67683,22.9,-19.5,6.2,13.010209,89.883804,105.477081,0.36210270647494347,-0.51003098,0.488754,0.60816902
7.8555,6252.4976,-9.30415,-2.96172,0.35914,-4.59725,-1.73162,5.11726,20.5,-23.1,4.6,16.192806,86.336159,111.940819,0.3242390941791866,-0.50384498,0.46417299,0.65234399
7.8736,6252.5176,-10.4534,-1.23545,1.6305,-4.25333,-0.65894,6.01645,18.4,-25.2,3.8,19.847214,83.522957,118.585625,0.27652302912184246,-0.49843499,0.44554499,0.69035298
7.8907,6252.5377,-10.52523,0.0,1.60416,-4.05786,0.20116,6.30661,15.2,-29.1,1.0,24.309464,81.283913,125.287598,0.21906477570157032,-0.49210599,0.43448901,0.72184598
7.9139,6252.5577,-9.61062,-0.45491,0.52435,-4.797,0.67458,6.0134,11.1,-30.5,-3.1,28.744513,79.22142,132.50087,0.15570982293227148,-0.48829699,0.42377099,0.74681902
7.9474,6252.5777,-9.5771,-2.13569,0.27055,-6.63754,0.95314,5.91933,8.1,-32.4,-7.3,32.368286,76.280716,141.556931,0.08613512879806591,-0.48787999,0.40226299,0.76989502
7.96,6252.5977,-10.39115,-3.63211,1.78134,-7.82567,1.79674,6.6994,6.0,-32.7,-10.8,34.974861,71.838104,153.525543,0.0054083483800423425,-0.488938,0.365013,0.79225999
7.9724,6252.6178,-10.54439,-4.6401,4.29054,-8.16898,3.11316,7.33287,0.9,-31.9,-14.4,37.124817,66.867935,167.785583,0.0902420277544772,0.49108499,-0.31972,-0.80527699
7.9931,6252.6378,-10.40552,-4.79094,7.21156,-7.15128,3.76189,7.57782,-0.9,-29.7,-18.6,38.643604,62.198254,-176.87439,0.19287981589684297,0.494973,-0.26991999,-0.803083
8.0128,6252.6578,-10.09905,-5.04474,8.90191,-5.28508,3.50778,7.27056,-3.1,-27.2,-21.8,40.070286,57.98246,-162.439636,0.28954234695998954,0.49575099,-0.22665,-0.78678203
8.0383,6252.6779,-9.7854,-5.11896,8.96656,-4.29915,3.82543,6.65725,-5.1,-25.7,-26.9,41.257862,54.495209,-149.911789,0.3717417374236569,0.495096,-0.191268,-0.76164597
8.0511,6252.6979,-9.28021,-5.15727,8.96656,-4.08473,3.61529,6.25713,-1.3,-24.7,-24.4,41.943993,51.590069,-138.27951,0.44490773747528745,0.49444199,-0.15643699,-0.73014498
8.0747,6252.7179,-8.74389,-4.30012,8.70319,-3.50991,3.12782,5.94071,-1.4,-21.9,-25.7,42.013966,48.595348,-127.302155,0.5098188271101599,0.48923501,-0.122293,-0.69697797
8.0974,6252.7379,-7.70238,-3.05749,7.6545,-3.26495,2.58903,5.53692,-7.4,-17.4,-32.7,41.844761,45.499882,-117.090752,0.5672996326098579,0.47998101,-0.09244,-0.66275501
8.1169,6252.758,-6.65369,-1.87711,6.60341,-3.3407,2.6434,5.08427,-1.9,-16.4,-29.8,41.102444,42.475903,-107.497398,0.6186390628440779,0.46701699,-0.063296,-0.62862903
8.1343,6252.778,-4.41983,-2.34878,6.10301,-4.20507,1.39968,3.62308,-6.8,-12.0,-31.5,39.465492,39.759525,-98.433853,0.6651342548960318,0.44975901,-0.031343,-0.59525698
8.1546,6252.798,-3.66085,-2.11414,6.43342,-4.04075,0.43207,1.59379,-3.0,-10.7,-30.9,35.746658,37.029583,-91.176697,0.7011801012019092,0.419552,0.003608,-0.57646298
8.1723,6252.8181,-3.07425,-1.52994,6.49088,-3.94851,-0.44208,0.44048,-3.2,-8.3,-30.6,30.907654,34.965195,-86.487305,0.7245205510463313,0.38351199,0.036804,-0.57151902
8.1972,6252.8381,-2.95214,-0.85476,6.04076,-3.54962,-0.39504,-0.04577,-3.4,-6.2,-33.1,25.724791,33.146912,-83.410065,0.7398528854543037,0.344302,0.065665,-0.57424903
8.2147,6252.8581,-1.93218,-1.05588,5.02558,-4.16354,-0.62473,-0.45078,-3.7,-2.8,-31.1,20.690331,31.848131,-80.997269,0.751350984814168,0.30659801,0.093092,-0.57689101
8.2407,6252.8781,-1.15883,-1.7143,5.30571,-4.58564,-1.04195,-1.68106,-6.0,0.7,-31.8,14.790785,30.485777,-79.076263,0.7594233957428226,0.261749,0.122014,-0.58298898
8.2532,6252.8982,-1.78613,-2.32245,6.07188,-4.48729,-1.17023,-1.62975,-7.9,2.4,-31.6,8.236508,28.95787,-78.137909,0.7611051367006787,0.21115801,0.14979,-0.59472197
8.2752,6252.9182,-3.10537,-2.85876,7.06072,-4.14216,-1.46161,-0.70978,-7.6,6.3,-31.7,2.199319,27.329973,-77.152954,0.7623344867644385,0.161864,0.17302801,-0.60225201
8.3055,6252.9382,-3.65606,-2.78694,7.35521,-3.60459,-1.43901,0.13626,-9.1,8.7,-30.3,-2.813518,25.589399,-75.552887,0.767218042558385,0.116698,0.18965501,-0.60148901
8.3248,6252.9583,-2.03513,-2.54751,6.95297,-3.1721,-1.618,-0.03111,-11.8,10.7,-30.7,-6.817684,24.047049,-73.687775,0.7739036196613891,0.078151,0.201285,-0.595357
8.3347,6252.9783,-0.5028,-3.11735,6.89072,-3.25274,-1.68458,-0.93031,-13.1,13.4,-30.1,-10.641225,22.296846,-72.466263,0.7773900076456861,0.040407,0.20906401,-0.59188199
8.3592,6252.9983,-0.03831,-3.81647,7.29296,-2.98457,-1.86723,-1.1942,-14.1,14.7,-27.8,-14.717671,20.254713,-72.263489,0.7752507634335615,0.000991,0.215194,-0.59386599
8.371,6253.0182,0.18196,-4.42701,7.44141,-2.62049,-1.81408,-0.97795,-15.9,17.0,-26.0,-18.451406,17.876596,-72.471748,0.7717638269843825,-0.037092,0.217318,-0.59647101
8.4015,6253.0382,0.47646,-4.83883,7.25465,-2.38225,-1.71207,-0.64503,-17.6,17.2,-24.0,-21.719038,15.472509,-72.679398,0.7688638540551371,-0.07204,0.217117,-0.59709197
8.4121,6253.0582,1.19953,-5.56429,7.43422,-2.41341,-1.93564,-0.9975,-17.6,18.2,-22.1,-24.744297,13.096485,-72.815933,0.7664895241246287,-0.1052,0.21599001,-0.59562999
8.4399,6253.0782,1.49163,-6.37595,7.95618,-2.07193,-1.81958,-1.49902,-20.0,19.3,-21.0,-27.806948,10.077268,-73.793915,0.7606161173791809,-0.14023399,0.21188501,-0.597413
8.4545,6253.0982,1.12531,-7.38873,9.37359,-1.70786,-1.5453,-1.10746,-20.3,19.8,-18.8,-30.489588,6.912778,-75.379906,0.7524037654545328,-0.172134,0.206498,-0.60134602
8.4711,6253.1182,0.73265,-8.45179,10.76945,-0.84959,-1.14091,-0.54363,-21.4,19.8,-20.0,-32.450661,4.369866,-76.545685,0.7466544196058972,-0.196527,0.201685,-0.60266697
8.4931,6253.1382,0.47885,-9.37837,11.30816,-0.38472,-0.70536,0.05013,-22.3,19.9,-18.3,-33.35593,2.712968,-77.104233,0.7446988990146951,-0.210244,0.196546,-0.60215503
8.5153,6253.1582,1.18277,-10.26904,12.20362,-0.44214,-0.50561,0.51561,-22.0,19.8,-19.2,-33.902134,1.995551,-76.805023,0.7463515880352098,-0.2181,0.194135,-0.59808302
8.5401,6253.1782,1.85317,-11.1669,14.2172,-0.02248,-0.53004,0.18269,-22.0,20.3,-17.2,-34.46814,1.616331,-76.193199,0.7489851457981386,-0.22482599,0.19338299,-0.59251797
8.5558,6253.1982,1.51797,-11.80617,16.42472,1.36357,-0.22522,-0.04394,-22.0,20.5,-17.5,-34.148052,1.066116,-76.043427,0.7513415756711189,-0.22580899,0.187849,-0.59093899
8.571,6253.2182,0.5842,-12.58431,18.36409,3.04651,0.192,0.42032,-21.8,19.9,-18.7,-32.144997,0.964411,-75.946808,0.7560229759244484,-0.213259,0.176716,-0.59306097
8.5924,6253.2382,-0.05746,-12.97936,18.31381,5.2218,0.46444,1.06356,-21.6,18.8,-20.0,-27.804152,1.615273,-75.178764,0.7670490483446933,-0.18201999,0.157388,-0.59475499
8.6136,6253.2582,-0.23703,-12.51248,16.23079,5.58221,0.9678,1.77399,-20.6,17.6,-23.6,-21.565351,2.823322,-73.811729,0.7824987430167282,-0.135019,0.131662,-0.59340602
8.6434,6253.2782,0.08141,-11.49491,13.84849,5.05198,1.03194,2.52414,-20.4,16.0,-24.8,-15.147449,4.599192,-71.717445,0.7996483420303071,-0.083435,0.109382,-0.58449697
8.6644,6253.2982,1.16122,-10.21398,12.36164,4.29939,0.78576,2.18266,-19.9,14.2,-26.1,-9.346327,6.270261,-69.21405,0.8165720587511427,-0.035998,0.091067,-0.56887698
8.6767,6253.3182,1.58022,-8.9091,12.5053,4.78503,-0.09755,1.23765,-19.3,12.3,-28.6,-4.173573,7.143167,-67.48262,0.8281283766808138,0.004358,0.071954,-0.555884
8.6977,6253.3383,1.13489,-7.51563,12.1294,6.10938,-0.71941,0.35557,-18.5,9.1,-29.1,1.778239,6.777007,-66.957474,0.8330378984960047,0.045521,0.040749,-0.54983199
8.7131,6253.3583,0.73744,-6.24427,11.13817,7.21566,-0.97109,-0.14412,-18.6,4.3,-30.6,9.100033,6.066043,-67.526825,0.8298913094923938,0.095171,-0.000178,-0.549748
8.7353,6253.3784,0.23703,-4.8508,9.50527,7.55836,-1.55813,-0.10747,-19.8,-0.4,-30.8,17.506172,5.001037,-68.436195,0.8202275905460384,0.149964,-0.049838,-0.54977602
8.7549,6253.3985,-0.62012,-3.67282,7.6521,7.31218,-1.69985,-0.57051,-20.9,-5.3,-29.0,24.542551,3.212814,-69.268936,0.8070658119982161,0.190377,-0.098209,-0.55023301
8.7715,6253.4185,-2.45892,-2.35357,6.08146,7.16191,-1.50865,-0.32799,-21.5,-10.5,-28.0,30.497641,1.744976,-70.369591,0.7907390589973907,0.223399,-0.13952699,-0.55259103
8.7934,6253.4386,-3.99365,-1.32882,4.98249,6.59624,-1.55202,1.07272,-21.4,-14.0,-26.2,36.077843,0.324313,-70.697037,0.776059471440765,0.254132,-0.17696001,-0.54939401
8.8177,6253.4586,-3.66085,-1.14686,4.10618,6.40504,-2.73221,2.38914,-23.2,-16.2,-23.3,40.951046,-2.771026,-68.74691,0.7682275159890457,0.27584901,-0.216135,-0.53574198
8.8331,6253.4787,-1.48684,-0.21548,2.99763,6.3916,-2.94174,2.32133,-25.3,-18.2,-20.0,45.450798,-7.836032,-65.157227,0.7612052755401917,0.290833,-0.260636,-0.51773697
8.8523,6253.4988,-0.02394,1.48206,2.25541,6.44353,-3.08774,1.67076,-27.7,-21.3,-16.3,49.734493,-13.433853,-61.352283,0.7498728332447704,0.305049,-0.30434,-0.50200897
8.8754,6253.5188,0.70631,2.32724,1.16841,6.34151,-2.27651,1.69947,-28.9,-22.3,-9.8,55.621147,-21.462591,-55.589993,0.7282480945117947,0.32870299,-0.359447,-0.482086
8.8989,6253.5389,1.65684,2.84919,0.36154,6.23034,-1.51048,1.69703,-30.1,-22.7,-8.6,61.206985,-31.845043,-46.42934,0.7056201072846209,0.35684901,-0.40998301,-0.454613
8.9212,6253.5589,2.29372,3.52437,-0.53871,6.08251,-1.61616,1.42153,-30.3,-22.7,-4.5,65.600174,-45.461277,-33.503174,0.6820479284799711,0.38482001,-0.455019,-0.42388901
8.9365,6253.579,2.4685,4.18759,-1.82923,5.86626,-2.06209,0.92672,-31.5,-22.5,-2.0,68.472038,-62.7934,-17.150324,0.6540843052542997,0.41064,-0.497484,-0.395042
8.9544,6253.5991,2.3009,3.91943,-3.83084,5.26334,-1.71146,0.83693,-31.8,-22.4,0.8,69.505203,-82.464485,1.004605,0.6211641889695831,0.433422,-0.53776199,-0.370287
8.9816,6253.6191,2.52357,4.32645,-5.18361,4.0917,-0.21362,1.21139,-32.0,-21.6,3.3,68.392258,-98.780548,16.686399,0.5945862576791023,0.45306599,-0.56818801,-0.34403601
9.0061,6253.6392,3.21312,5.0615,-5.5619,2.95304,-0.91917,1.60478,-32.8,-20.6,5.4,65.861481,-108.291107,26.456835,0.5794001218668836,0.465639,-0.58936602,-0.316423
9.0252,6253.6593,3.67042,5.28656,-5.5619,2.62012,-1.01935,1.05928,-32.9,-19.0,7.3,62.850052,-115.183899,32.426056,0.5620487548003996,0.469468,-0.61374801,-0.29498199
9.0547,6253.6793,3.46452,5.29853,-4.93939,2.88341,-1.25148,0.62557,-32.9,-18.8,8.6,59.883884,-121.867119,38.200981,0.5405611490261576,0.47697601,-0.636352,-0.274488
9.0585,6253.6994,2.44934,4.49405,-4.2642,3.42708,-2.2252,0.96032,-33.1,-17.7,8.9,56.750439,-128.517044,43.523884,0.5136095841344861,0.48552901,-0.65953201,-0.25589901
9.1216,6253.7194,1.6736,3.27776,-4.03914,4.50525,-1.76094,1.40564,-33.3,-15.7,11.6,52.591671,-135.025162,48.087296,0.4799221596236413,0.492237,-0.68744099,-0.234099
9.1264,6253.7395,1.41262,2.87074,-4.26181,5.71171,-1.08715,1.81065,-28.4,-11.0,17.1,47.077976,-140.12204,52.157631,0.4458566470267084,0.50119603,-0.71421701,-0.199771
9.1293,6253.7596,1.02954,1.85317,-5.75584,6.57731,-1.66992,2.45572,-28.4,-7.1,17.7,40.178368,-144.217438,55.599163,0.40766954386370285,0.510167,-0.74137598,-0.154586
9.1342,6253.7796,1.1708,0.30647,-7.48929,6.76668,-1.63815,2.42701,-27.9,-3.1,16.4,32.239365,-148.029373,58.026062,0.36081850433582124,0.51478899,-0.77055597,-0.105099
9.154,6253.7997,1.3384,-1.34079,-8.67446,6.94016,-2.24596,2.36959,-27.3,1.2,20.1,24.003952,-151.360519,59.963039,0.3102416850009676,0.51815999,-0.79522598,-0.053628
9.1737,6253.8197,1.10615,-3.20115,-10.43904,6.85464,-2.91608,2.40135,-26.2,5.2,21.6,15.398226,-155.135574,61.286919,0.250237179233141,0.51806998,-0.81790602,-0.00382
9.1927,6253.8398,0.08859,-4.90347,-12.18686,5.7618,-3.26244,2.99817,-22.5,8.8,23.3,6.972754,-159.21196,61.572426,0.1853262597105414,0.511931,-0.83780497,0.040788
9.2134,6253.8599,-0.68955,-5.63612,-12.58431,5.03793,-3.4176,3.42822,-21.3,13.0,23.8,-0.604145,-163.3228,60.057964,0.12295305168501901,0.494479,-0.85698903,0.07709
9.235,6253.8799,-0.77814,-6.03357,-12.0001,5.20958,-4.36689,2.53574,-19.7,16.1,24.0,-7.4799,-168.099869,57.727783,0.05928367089595395,0.47318599,-0.87245899,0.106751
9.2516,6253.9,-1.26657,-6.13892,-11.84927,6.21384,-3.72609,1.18695,-17.0,20.6,23.8,-14.307904,-173.511917,56.148563,0.009060453315346136,-0.459986,0.87738198,-0.136131
9.2762,6253.92,-1.80289,-6.45018,-13.12781,6.31891,-3.00099,0.89313,-14.9,22.9,19.8,-21.684549,-177.900238,55.406723,0.07151032954992885,-0.45346701,0.87101698,-0.174881
9.2946,6253.94,-1.31925,-6.49567,-15.14379,4.90476,-2.51963,1.44474,-13.7,26.3,19.9,-28.532518,178.254395,54.050976,0.12511856090053106,-0.44366699,0.86152601,-0.212786
9.3139,6253.96,-0.45731,-6.6489,-16.1829,2.658,-2.89409,1.43313,-12.7,28.0,18.1,-33.095829,174.037216,51.652191,0.16879543874281344,-0.43036699,0.85521603,-0.234303
9.333,6253.98,-0.1652,-6.81411,-15.99376,1.20108,-2.72061,0.65245,-10.4,28.9,17.2,-35.444485,169.521973,49.452557,0.20580142482786407,-0.42201599,0.84996903,-0.238958
9.3553,6254.0,-1.0056,-6.53876,-15.88362,0.03861,-2.21786,0.55043,-10.0,29.7,16.9,-36.410061,166.083893,48.36694,0.23202567177913702,-0.42081401,0.844688,-0.23575801
9.3836,6254.02,-1.17798,-6.04315,-15.36406,-1.95281,-2.45427,1.25965,-8.6,29.8,18.2,-35.66106,162.930969,47.43103,0.2511402317872623,-0.42024201,0.843647,-0.22042
9.396,6254.04,-0.91701,-4.86038,-12.95782,-2.9919,-2.88859,0.96093,-7.0,27.9,20.4,-32.714775,159.716568,46.740993,0.265066727333401,-0.420194,0.84736902,-0.187463
9.427,6254.06,-1.63768,-4.13252,-11.09507,-2.88683,-3.38706,0.04219,-4.6,27.4,24.7,-29.153484,156.289551,47.248569,0.2808727449971959,-0.42693701,0.847067,-0.145989
9.4374,6254.08,-2.95932,-3.78295,-8.71277,-1.99191,-2.07798,-0.59189,-5.5,26.4,25.8,-26.451178,153.915161,48.99028,0.2923284845426459,-0.440191,0.8416,-0.111738
9.4542,6254.1,-2.85158,-3.53156,-7.81012,-0.90824,-2.01811,-1.04393,-4.0,25.8,24.9,-24.984819,153.233917,50.947819,0.2945206615285922,-0.45371401,0.83593798,-0.092784
9.4745,6254.12,-2.86116,-3.71113,-8.58587,-1.30835,-3.8336,-2.05796,-4.1,25.3,26.6,-24.699303,152.078522,53.107883,0.3036038334905526,-0.469953,0.82493597,-0.080309
9.4954,6254.14,-4.44138,-4.11336,-9.71118,-2.28146,-4.30336,-2.36217,-2.2,24.4,26.3,-24.128237,148.968979,56.820091,0.3259054322005999,-0.497491,0.80219299,-0.052676
9.5151,6254.16,-5.08305,-4.2235,-9.21796,-2.30467,-3.27772,-1.84783,-2.0,23.7,28.9,-23.310631,146.773529,60.818195,0.33948594918181746,-0.52485502,0.78015399,-0.025224
9.5374,6254.1801,-5.75344,-4.40786,-8.34165,-2.41829,-3.43349,-0.77576,-0.7,22.5,27.8,-22.141729,144.843918,64.11853,0.3483529007030362,-0.54574299,0.76210898,0.002179
9.5607,6254.2001,-6.25624,-4.39589,-7.09184,-2.63332,-4.47196,0.43864,1.5,21.5,29.0,-20.290642,142.083481,66.325264,0.35884123955417757,-0.55716097,0.74802798,0.035479
9.5803,6254.2201,-6.29694,-3.99365,-7.32169,-2.87522,-5.69124,1.23277,3.7,19.3,27.9,-17.619093,137.393219,67.721466,0.37763080692570544,-0.55918401,0.73352402,0.081552
9.6042,6254.2401,-5.23149,-4.05351,-9.25148,-2.80803,-3.46403,0.54005,7.9,18.2,31.8,-14.754339,132.442017,69.028778,0.3960676478333958,-0.55688,0.71845597,0.12975401
9.6225,6254.2602,-4.44617,-4.5563,-9.45739,-3.67484,-2.98817,-0.722,9.5,15.4,33.8,-12.759212,130.075211,71.512138,0.3992202751360945,-0.56452399,0.70374697,0.16332801
9.6465,6254.2803,-5.3536,-5.08305,-7.47732,-3.84772,-3.92829,-0.41413,11.2,12.8,31.8,-11.197434,128.034805,75.472656,0.3984865076273207,-0.58134598,0.68135297,0.197493
9.6553,6254.3003,-5.70316,-4.61377,-5.43979,-3.37247,-5.13352,0.10755,15.0,10.5,28.8,-9.518926,124.745827,79.0886,0.4031579067476155,-0.59180897,0.656358,0.23752899
9.6726,6254.3204,-5.53556,-4.07027,-5.59542,-2.96624,-5.43957,-0.50453,17.6,10.1,28.6,-8.206064,119.783203,82.153252,0.41785250156125675,-0.594015,0.626867,0.282105
9.6952,6254.3405,-6.82608,-3.66085,-5.42303,-2.56429,-4.30458,-1.47153,20.6,8.9,27.6,-8.363723,115.515091,85.369354,0.43294784699494643,-0.600492,0.59371102,0.315393
9.7156,6254.3606,-8.80135,-3.7207,-4.54673,-2.21182,-3.95883,-0.92786,22.1,7.8,25.8,-9.481103,112.107201,88.690987,0.4459010679426769,-0.61086899,0.55896199,0.33996001
9.7367,6254.3807,-9.56273,-3.88351,-3.80211,-1.86974,-3.91546,0.46491,23.8,6.0,24.3,-9.90552,108.860443,91.21936,0.4555837234147624,-0.61421502,0.53100097,0.364995
9.7545,6254.4008,-8.93064,-3.44297,-3.85239,-2.36148,-4.5868,1.47406,24.7,5.3,22.5,-9.023227,105.284637,93.132271,0.461289494955976,-0.60823202,0.51012701,0.39627799
9.7787,6254.4209,-8.29137,-2.73905,-3.3879,-3.17393,-6.13351,1.71413,29.2,3.4,22.0,-7.237201,100.715187,95.626167,0.4636032743179231,-0.59647202,0.48625499,0.43914601
9.7953,6254.441,-8.56911,-2.70074,-3.19396,-2.97113,-5.41269,1.51193,31.0,0.3,15.5,-5.460483,94.816925,98.974792,0.46580067564143757,-0.58001,0.45319301,0.49115601
9.8144,6254.4611,-8.95219,-3.56268,-2.54751,-2.48243,-4.78228,0.33235,30.8,-0.5,14.5,-4.56435,90.255119,102.134384,0.46496263556339557,-0.568488,0.423132,0.53065097
9.8381,6254.4812,-9.56273,-3.06946,-2.15724,-2.56368,-4.778,0.42337,32.5,-2.0,9.3,-5.086649,85.99263,105.010689,0.4687646301189967,-0.56028998,0.388935,0.561306
9.8546,6254.5013,-10.04638,-2.17879,-0.94813,-3.23808,-4.9802,1.89495,32.3,-3.4,4.9,-5.161969,81.784348,108.424103,0.465531162925813,-0.55040199,0.354821,0.59534901
9.8747,6254.5213,-10.1637,-2.20752,1.77895,-2.74633,-4.40171,2.73733,31.9,-5.8,0.9,-3.966619,77.53775,112.742279,0.4495806420301474,-0.53601599,0.32411,0.63680202
9.8966,6254.5414,-9.88836,-2.18358,3.37832,-1.38227,-3.71143,2.76421,32.5,-6.2,0.8,-2.11945,73.815323,116.461342,0.43036343100370245,-0.51825202,0.30355099,0.67383897
9.9173,6254.5615,-9.72076,-2.50441,3.69437,-0.71459,-3.75175,2.3757,31.6,-8.2,-2.3,-0.213261,70.410324,118.822998,0.4167166407251094,-0.49705499,0.29205599,0.702842
9.9376,6254.5816,-10.52523,-2.22907,2.99284,-0.52767,-3.50251,2.45755,31.6,-8.9,-4.9,1.373322,66.717796,120.731255,0.4072404562916593,-0.47297299,0.280577,0.72919703
9.9594,6254.6017,-12.32573,-1.49403,1.93697,-0.9174,-3.12072,3.3598,29.8,-11.3,-7.8,3.140132,63.385548,122.840485,0.3942510904762593,-0.45002401,0.271703,0.75380498
9.9775,6254.6218,-13.26189,-1.13728,1.03193,-1.47817,-2.83911,4.67255,28.2,-14.1,-10.1,5.623477,60.469917,126.261742,0.367970553700917,-0.42949,0.26511201,0.78092998
9.9962,6254.6419,-12.70881,-2.24583,0.79011,-2.55574,-3.4567,5.58396,23.9,-15.9,-12.1,8.737165,57.377403,131.253555,0.32766114474279623,-0.40842101,0.25839701,0.81182599
10.0158,6254.662,-11.73674,-3.36635,2.1309,-2.91493,-3.38156,6.15879,22.9,-17.8,-16.9,11.545675,53.44125,137.981659,0.2763882025344047,-0.38541099,0.244257,0.84581703
10.0358,6254.6821,-11.88757,-4.26899,4.07506,-2.74205,-2.78414,7.23635,19.9,-19.7,-18.6,14.155915,49.348835,145.612503,0.21742961796567567,-0.36266801,0.22942799,0.87667501
10.0545,6254.7022,-12.1701,-4.62095,4.99925,-2.20693,-1.80981,9.08666,15.0,-21.2,-19.7,17.440538,45.467922,154.360794,0.14515129976338476,-0.341438,0.221102,0.901923
10.0764,6254.7223,-11.81575,-4.80531,4.09182,-2.19288,-0.61434,10.36337,11.2,-22.4,-20.5,21.687241,41.673458,164.679367,0.056058646928724525,-0.32280001,0.220825,0.91863698
10.1013,6254.7424,-10.65452,-6.19638,3.53395,-3.26862,0.48033,10.98157,5.5,-22.3,-21.3,25.711992,37.922195,176.774338,0.04632601312933788,0.31073299,-0.21926101,-0.92370099
10.1167,6254.7624,-10.21158,-8.20518,5.11417,-3.91247,0.96841,11.07564,0.0,-20.4,-23.4,27.996572,33.876827,-169.186432,0.1576297918201983,0.303238,-0.203733,-0.91743797
10.1395,6254.7825,-9.76146,-9.52203,8.00646,-3.15011,1.34165,11.26867,-5.1,-17.9,-25.2,28.932446,29.620872,-154.241058,0.270915328661704,0.29512301,-0.180262,-0.89833897
10.1685,6254.8025,-9.00247,-9.68484,9.97455,-2.18861,2.21396,11.09519,-7.3,-14.4,-28.5,29.880795,25.619417,-139.390823,0.38054494654221793,0.28814501,-0.16144,-0.86376798
10.181,6254.8226,-8.20279,-9.56752,11.39675,-1.5191,1.1871,10.72195,-8.9,-11.7,-27.3,31.844202,21.17079,-124.380775,0.4855768109621371,0.28205699,-0.156102,-0.81258303
10.1984,6254.8427,-7.36479,-9.12219,13.03443,-0.39328,-0.42559,10.24853,-10.8,-8.4,-29.0,34.170185,14.151083,-109.301865,0.5783300168659239,0.264716,-0.16968399,-0.75277299
10.2152,6254.8627,-5.2674,-7.55154,13.54681,1.66045,-1.74444,9.26748,-13.3,-6.1,-28.2,36.248257,5.280237,-94.577591,0.6544935566185044,0.242947,-0.19863699,-0.68786502
10.2404,6254.8827,-2.0902,-6.3161,12.04799,2.59874,-2.78719,6.86556,-15.5,-4.6,-27.0,38.622128,-4.674533,-81.191605,0.7072252166926882,0.225851,-0.24423601,-0.62383699
10.261,6254.9028,-0.39984,-4.91066,10.15412,2.47901,-3.42371,3.80695,-17.0,-4.1,-26.8,40.137627,-13.934879,-71.041504,0.7346553049659682,0.21102899,-0.29063299,-0.57556999
10.2782,6254.9228,-0.40224,-3.40226,8.77981,2.33179,-3.28138,2.16617,-20.5,-5.5,-25.7,39.394691,-19.510963,-65.869942,0.7477010396674862,0.192059,-0.31449199,-0.552405
10.2984,6254.9428,-0.68955,-1.69994,8.11659,2.36234,-3.47564,2.13379,-21.7,-4.9,-24.5,38.632473,-23.689714,-62.522461,0.7542785431453687,0.176212,-0.33358499,-0.53733999
10.3191,6254.9628,-1.75021,-0.64406,7.96815,2.58897,-3.89713,3.07636,-24.2,-4.7,-20.9,37.727013,-28.408241,-58.743893,0.7605261535623742,0.159252,-0.35608101,-0.519081
10.3413,6254.9828,-3.431,-0.63209,7.39113,3.06422,-4.25571,4.68355,-26.5,-4.4,-19.7,36.381405,-34.293701,-53.584629,0.7688536601274782,0.140029,-0.38448301,-0.49135399
10.3578,6255.0028,-3.22509,-1.59219,5.84203,3.37393,-4.09628,6.36953,-26.0,-2.0,-14.6,33.989422,-41.2169,-46.494949,0.7818497512912822,0.118506,-0.417263,-0.44783801
10.3804,6255.0228,-0.1652,-3.07664,4.49405,3.41791,-3.83727,6.71895,-28.1,1.4,-13.8,30.054403,-47.819878,-38.36676,0.7993633755522201,0.095241,-0.44758999,-0.38937199
10.3966,6255.0428,2.90665,-4.14928,3.86436,3.44113,-4.11399,5.73912,-29.3,4.1,-10.6,25.273693,-53.359207,-30.808489,0.8144722528402916,0.072078,-0.47431001,-0.32629699
10.4359,6255.0627,4.4318,-4.56349,3.15805,3.65554,-4.6821,4.61818,-30.2,5.7,-9.3,20.577877,-58.613762,-24.417007,0.820095728887329,0.050382,-0.50366098,-0.26688999
10.4678,6255.0827,4.91066,-4.66884,2.20513,3.89378,-5.42979,4.21807,-30.4,8.4,-7.2,16.12816,-64.269623,-18.539099,0.8154574515990147,0.032405,-0.53891098,-0.20869599
10.4774,6255.1027,5.25304,-4.99685,0.79011,4.27312,-5.6943,4.36834,-30.3,10.9,-3.7,11.317511,-70.654694,-12.725003,0.8005665272382052,0.016183,-0.5808,-0.14663801
10.4784,6255.1227,6.57707,-5.48289,-1.15643,4.70012,-4.17691,4.41538,-29.4,12.7,-2.1,5.786937,-76.94223,-6.789123,0.7786922167785292,0.002662,-0.62257701,-0.077648
10.5038,6255.1427,8.18842,-5.16206,-1.91542,4.67019,-3.406,3.95539,-27.6,15.6,-1.0,0.07484,-81.266205,-0.808857,0.7588730528059354,-0.004101,-0.6512,-0.005782
10.5179,6255.1627,9.14134,-4.54433,-2.73666,4.68424,-3.40233,3.51374,-25.3,17.9,0.3,-5.146336,-84.861275,4.81509,0.735427089397909,-0.004794,-0.67481399,0.061238
10.5397,6255.1827,10.25229,-3.76859,-4.16125,4.37819,-2.8605,2.95663,-24.7,19.7,0.1,-9.803296,-88.115723,10.078181,0.7080233617536924,-0.000311,-0.695557,0.122079
10.556,6255.2027,11.23394,-2.94017,-5.36318,3.79909,-1.82019,2.40013,-25.2,20.2,0.4,-13.663378,-90.492096,14.737026,0.6824580259909022,0.00737,-0.71001297,0.17343099
10.5739,6255.2227,12.31854,-1.925,-5.56429,3.20167,-1.08471,1.86562,-24.3,21.7,-2.1,-16.683853,-91.764374,18.562199,0.6629561879039065,0.014885,-0.71730399,0.213875
10.5943,6255.2427,13.1302,-1.56346,-5.63373,2.77101,-1.28141,1.01774,-24.0,22.2,-1.8,-18.759447,-92.613373,21.749622,0.6470901599137477,0.024027,-0.72180998,0.24431001
10.6232,6255.2627,14.20284,-1.29051,-6.46215,2.27071,-1.49338,-0.35121,-23.3,22.2,-3.5,-19.53124,-93.803749,24.618185,0.6314668094421748,0.040182,-0.727768,0.26455399
10.6408,6255.2827,15.37364,-0.19872,-6.7351,1.2921,-1.74139,-1.63219,-23.9,21.5,-2.8,-18.593969,-95.503532,26.792013,0.6177535088736603,0.063583,-0.73580402,0.27005601
10.6576,6255.3027,15.96263,0.79729,-6.90748,0.75026,-1.37915,-2.42021,-25.1,20.5,-2.5,-16.353296,-97.440536,28.166443,0.6073936565532765,0.089993,-0.74433202,0.26257199
10.6787,6255.3227,16.32417,0.84278,-7.50605,0.07098,-0.98147,-2.97487,-26.8,18.3,-3.8,-13.547364,-98.606339,29.113653,0.6042434245959483,0.114789,-0.74804002,0.24929801
10.7016,6255.3427,16.32895,0.23464,-8.25307,-0.44092,0.11259,-3.86918,-27.7,17.6,-0.6,-9.918254,-99.347488,29.563715,0.6065648807896479,0.13969301,-0.74865401,0.22821499
10.7184,6255.3628,15.22759,-0.11253,-8.42785,-1.17885,1.04843,-4.07321,-27.6,16.2,-1.0,-5.298877,-98.925537,29.429808,0.6190298330350159,0.16377901,-0.74190301,0.198893
10.7396,6255.3828,14.55001,-0.03113,-7.93702,-1.61562,1.56278,-3.91622,-28.0,15.2,-1.9,-0.534395,-97.573471,28.432823,0.6378175099439807,0.18176401,-0.72997099,0.165206
10.7558,6255.4029,15.0145,-0.24182,-7.21156,-2.30284,0.98551,-4.85634,-28.6,13.5,-1.4,4.36389,-95.842216,26.717684,0.6580766960777291,0.19619,-0.71572101,0.127232
10.7759,6255.4229,15.84531,-1.01996,-5.83724,-3.01572,-0.23072,-6.27538,-29.8,9.8,-2.7,10.562147,-94.743973,24.142519,0.673612142212193,0.21417201,-0.70340699,0.074804
10.7999,6255.443,15.86925,-1.7981,-4.8915,-3.21914,-1.31501,-7.43236,-30.4,5.0,-1.4,18.386221,-94.632362,20.925264,0.6794438966432763,0.238287,-0.69392997,0.006041
10.8246,6255.463,14.66014,-1.86035,-5.09023,-3.21914,-1.19528,-8.1208,-31.2,-1.0,-0.3,27.398161,-94.917343,17.62801,0.6758673483117966,0.26791501,-0.68284202,-0.071775
10.8484,6255.4831,12.36643,-1.43656,-5.19558,-3.35719,-1.1629,-8.31322,-31.2,-6.6,1.7,37.065498,-94.37793,14.062108,0.6680373456300178,0.29951999,-0.663885,-0.152547
10.8594,6255.5032,10.64255,-0.33759,-4.77897,-3.43905,-1.337,-8.3566,-29.7,-15.3,-1.1,46.803902,-92.825752,9.55808,0.6545110981402377,0.32826799,-0.63961899,-0.233972
10.8762,6255.5232,9.28979,0.8763,-4.20435,-3.39323,-1.35105,-8.63698,-26.2,-20.4,-0.4,55.812378,-90.286972,4.146885,0.6349088871174973,0.35256299,-0.61409003,-0.30900401
10.896,6255.5433,7.12057,2.22189,-3.77817,-3.60215,-1.27896,-7.94609,-22.7,-24.1,-1.2,63.23222,-86.95076,-2.269795,0.6106995830273502,0.36873499,-0.59334302,-0.37286001
10.9184,6255.5634,5.1022,3.90267,-2.71271,-3.72677,-1.4384,-6.20268,-19.5,-27.6,-2.6,69.115547,-80.18576,-11.767717,0.5892492687859866,0.37727901,-0.572083,-0.42798001
10.9387,6255.5834,4.40307,4.8508,-1.41502,-3.34375,-2.36142,-4.89116,-17.0,-29.0,-1.4,72.544647,-70.902985,-24.178574,0.5703123216007348,0.373317,-0.55818099,-0.473088
10.9565,6255.6035,5.66725,4.91784,-0.78532,-2.65775,-2.58622,-5.22958,-14.8,-30.7,-2.5,74.595512,-61.631802,-37.50248,0.5471345977095575,0.36178401,-0.55317998,-0.51356399
10.9982,6255.6235,5.73908,5.34642,-1.14446,-1.97175,-0.87946,-6.77995,-11.1,-31.8,-5.3,77.135056,-48.696537,-53.998734,0.5180013904607008,0.35973901,-0.54507798,-0.55240601
11.0048,6255.6436,2.92341,6.68721,-1.22347,-2.05116,0.05211,-6.46291,-8.4,-33.4,-7.7,79.540611,-22.993147,-80.834763,0.4907663161889567,0.37794399,-0.52307302,-0.58540702
11.0208,6255.6637,0.17718,6.87396,-0.55547,-2.71395,-1.51476,-4.85328,-5.2,-33.0,-8.3,78.759689,3.730823,-108.424706,0.46852295861957466,0.39123401,-0.49968401,-0.614604
11.0438,6255.6837,-1.02954,5.9402,0.77335,-2.54169,-2.72672,-3.88934,-2.2,-32.2,-9.1,75.969894,15.728501,-122.686035,0.4483189085567094,0.387007,-0.48327401,-0.64473403
11.0639,6255.7038,-0.13647,5.21712,1.79571,-1.69931,-2.90814,-4.06099,-1.4,-32.3,-9.1,73.224403,21.042212,-131.332336,0.42441597433996264,0.37516299,-0.47388399,-0.674209
11.0766,6255.7238,1.07982,4.56828,3.03115,-0.24789,-1.05233,-5.52157,0.8,-32.2,-11.5,70.521011,28.067923,-141.437592,0.39371815860158027,0.37183699,-0.463269,-0.70150203
11.1409,6255.7439,0.01676,3.82845,4.11815,0.82235,-1.43168,-6.20757,4.1,-29.7,-11.2,67.3517,39.857327,-154.747452,0.35544779799250326,0.39074099,-0.44668099,-0.72211802
11.1421,6255.764,-1.79331,2.7199,4.69517,1.64396,-2.0963,-6.51117,7.2,-29.4,-13.5,63.290428,50.188763,-167.349609,0.30610163640003507,0.41119999,-0.43246701,-0.74174702
11.144,6255.784,-3.14368,1.52515,4.77897,2.49978,-2.5068,-6.85203,12.4,-27.9,-11.3,58.395119,58.468498,-178.622925,0.2473837171990095,0.43141401,-0.420535,-0.75883698
11.159,6255.8041,-4.25463,1.86035,3.99126,3.51993,-0.20751,-6.97848,15.7,-25.9,-9.5,52.863941,65.684853,171.130905,0.1825234749943132,0.45526701,-0.41041699,-0.768749
11.1761,6255.8242,-5.67443,2.05189,3.69915,3.90599,-0.10733,-6.50628,19.1,-24.3,-7.0,46.920536,73.531807,161.999817,0.12040312154067892,0.49241799,-0.40089101,-0.76309502
11.1956,6255.8442,-7.50605,1.32403,3.56029,3.96769,-0.078,-5.86304,22.2,-21.3,-5.5,40.800098,78.507126,155.194824,0.059552825010225525,0.52125502,-0.39099801,-0.75621903
11.2323,6255.8643,-9.07191,0.72068,3.55789,4.12041,0.06372,-4.93453,24.6,-19.0,-3.6,34.802418,81.505386,149.956268,0.0014878053632458113,0.54291397,-0.38025999,-0.74876201
11.2428,6255.8843,-9.82131,0.74941,2.69116,4.17722,0.83219,-4.028,26.6,-17.0,-2.4,29.50275,83.912811,145.104782,0.053232062255369604,-0.560009,0.37449199,0.73709702
11.2666,6255.9044,-10.66171,0.68237,2.04232,3.56208,1.01483,-2.90829,28.3,-15.0,-0.5,25.020077,86.650688,140.723679,0.09871040894474634,-0.57792902,0.37353399,0.71883702
11.2779,6255.9244,-11.39914,0.34478,2.02556,2.84798,0.93542,-1.71099,28.8,-13.4,0.1,21.66836,88.6604,137.164124,0.13428510863293602,-0.58983999,0.37580001,0.70201898
11.2992,6255.9445,-11.64575,0.22985,2.51878,2.54071,1.01667,-1.01583,28.4,-12.7,1.3,19.431749,90.238152,134.885742,0.15637318021418792,-0.59930003,0.37788799,0.68817699
11.3206,6255.9645,-11.98574,0.7949,2.81567,2.50833,1.40579,-0.576,29.1,-12.2,3.5,17.797493,91.75708,132.378235,0.17609130239855614,-0.60538101,0.38485199,0.674088
11.3404,6255.9845,-12.83571,1.68796,2.92341,2.2084,1.81079,0.2169,28.1,-11.1,4.1,16.694098,93.6054,129.847183,0.19119204076320506,-0.61117798,0.39570001,0.65827698
11.3594,6256.0045,-14.24833,2.53793,2.85637,1.5169,2.22557,1.93038,28.4,-11.3,5.6,16.713476,95.71032,127.72847,0.1957005000152521,-0.615614,0.41069099,0.64346999
11.3759,6256.0245,-15.76151,3.19396,2.52596,0.63359,2.7503,4.80083,26.7,-13.2,9.8,19.062784,98.081474,126.124008,0.181391925150595,-0.61476898,0.43415999,0.63297802
11.3974,6256.0445,-15.83095,3.6393,2.45892,-0.04997,3.06978,7.75131,22.7,-17.5,10.5,24.767521,101.124451,124.317535,0.14331898589648964,-0.60340297,0.47275901,0.62598997
11.4198,6256.0645,-13.93947,4.18759,2.32245,-0.74513,2.46503,8.82521,18.5,-21.2,11.9,33.683441,105.102539,122.287872,0.07942502937297519,-0.58047903,0.52100497,0.62071699
11.4433,6256.0845,-12.68008,4.23308,2.2147,-1.13548,2.44487,8.35301,14.3,-24.6,10.7,43.238674,109.022804,120.106964,0.009556996756293368,-0.549119,0.5632,0.61739999
11.4598,6256.1045,-12.23953,4.2666,2.15485,-0.97421,3.75823,8.56071,8.5,-26.2,12.8,51.936069,113.428459,117.652328,0.05777923506761125,0.51863003,-0.59463602,-0.61163098
11.4767,6256.1245,-10.47735,5.29135,2.95214,-0.6138,4.0655,8.28643,2.8,-27.8,11.5,59.999264,120.821053,113.297081,0.12809126566264745,0.49333099,-0.62025499,-0.59623897
11.4975,6256.1445,-10.1637,6.67524,2.35118,-0.41893,3.81626,7.33837,-2.2,-27.9,14.6,66.61396,130.808533,106.337914,0.19113189227394442,0.47123101,-0.63846803,-0.57772702
11.5242,6256.1645,-10.36003,7.1924,0.54829,-1.33951,4.47355,7.43733,-7.9,-27.2,11.6,71.920837,144.368546,95.896957,0.24926521574667984,0.45186999,-0.64955801,-0.55835003
11.5373,6256.1845,-9.92906,6.87396,-0.15802,-2.54658,4.67392,8.4422,-13.5,-26.4,10.6,77.078888,166.583755,77.708603,0.3170401381114376,0.43065801,-0.65060502,-0.53919601
11.5609,6256.2045,-8.67446,6.20835,0.84997,-2.8569,4.1217,8.99259,-18.8,-24.4,5.6,79.691406,-149.32312,37.717808,0.3919220177674113,0.39972001,-0.645886,-0.51908797
11.5784,6256.2245,-7.10621,5.36796,1.75021,-2.38592,4.17362,8.85575,-23.7,-21.7,2.3,75.913857,-108.907471,1.09517,0.46314692663186174,0.363691,-0.63809103,-0.496048
11.5965,6256.2445,-5.63133,4.38392,2.56187,-1.52032,4.81625,8.59247,-27.5,-16.4,1.6,69.30143,-90.68502,-12.559734,0.5304915513499531,0.33322501,-0.625359,-0.46525899
11.6184,6256.2645,-3.19875,4.35519,4.15407,-0.50445,4.11375,8.18014,-29.2,-11.3,-0.4,62.406158,-81.549744,-16.193197,0.5936183268086821,0.30974001,-0.60829902,-0.42620501
11.644,6256.2844,-1.41741,5.3129,4.54912,0.86816,2.49007,6.75377,-31.0,-6.9,-2.0,56.315983,-77.240105,-15.536738,0.6426998586458997,0.29093501,-0.59507102,-0.384947
11.6559,6256.3044,-0.76138,5.40148,2.41582,1.12167,2.82727,5.6255,-32.5,-1.7,-3.7,51.913319,-75.612839,-12.870819,0.6758378004544578,0.28185901,-0.586447,-0.34623501
11.6775,6256.3244,0.22267,4.74066,0.97208,0.19377,3.67698,4.88147,-31.7,2.6,-7.8,48.487343,-72.851257,-10.554708,0.7081300823086529,0.27919701,-0.56950599,-0.31026399
11.7196,6256.3445,1.45811,4.08463,2.15245,-0.34624,3.71364,4.44164,-31.6,4.6,-10.0,45.473934,-68.416138,-9.430646,0.7422896126355534,0.275931,-0.54303199,-0.279257
11.7217,6256.3645,3.04312,3.61536,3.62972,-0.11778,2.53283,3.87415,-30.4,6.9,-11.2,41.889473,-64.899055,-7.928696,0.7729604264703595,0.26628801,-0.52076,-0.245829
11.741,6256.3845,3.84999,2.08302,4.23547,0.33854,1.68312,3.39279,-28.3,9.6,-14.3,38.45731,-63.417442,-5.796611,0.7934899955461944,0.25472701,-0.50981098,-0.213496
11.76,6256.4046,4.75742,1.77416,4.36476,0.91764,1.40823,2.93403,-28.2,10.9,-13.7,35.382744,-63.064457,-3.120468,0.8074078190924335,0.24535701,-0.50511301,-0.180979
11.7783,6256.4246,4.90587,1.93218,4.04872,0.98239,1.65685,3.11423,-26.8,11.8,-15.3,32.974678,-62.800716,-0.248247,0.8181292486987126,0.241157,-0.50011599,-0.149639
11.7983,6256.4446,4.9777,1.99443,4.12773,0.77164,1.84622,3.49297,-26.5,12.9,-16.2,30.246052,-61.910313,2.526185,0.8306275054469362,0.234625,-0.491501,-0.115913
11.822,6256.4646,4.51081,1.73345,4.5994,1.00744,1.76925,4.02564,-24.1,15.6,-16.8,27.036589,-60.665897,5.371218,0.8438027789366185,0.22454201,-0.48104,-0.078602
11.839,6256.4847,4.91066,1.43896,4.77418,1.35624,1.6312,4.03358,-22.9,16.5,-18.6,23.56612,-59.615189,8.870338,0.854721226114515,0.21428999,-0.47145501,-0.035519
11.8593,6256.5047,6.13892,1.07982,4.61856,1.18459,1.54568,3.11301,-19.3,16.2,-15.8,20.503841,-58.640785,12.469546,0.8623653636851609,0.20659199,-0.462172,0.00654
11.8818,6256.5247,6.90748,0.6273,4.42941,0.43811,1.53957,2.19122,-19.2,19.0,-18.8,18.243574,-57.412174,15.152765,0.8684824899238786,0.200363,-0.45176899,0.038699
11.911,6256.5448,7.04156,0.37351,5.19797,-0.19047,1.45405,1.80942,-18.2,18.0,-18.5,16.250799,-55.962196,16.620562,0.8746419231599867,0.190639,-0.441553,0.060739
11.9199,6256.5648,6.18202,0.45012,6.64651,-0.02126,0.91954,2.26574,-16.2,20.2,-21.5,14.207861,-54.547005,17.614012,0.8802834794250542,0.17824601,-0.43252999,0.079039
11.9415,6256.5848,7.1517,-0.18915,7.53478,0.41307,0.47239,2.74038,-15.7,21.1,-20.3,11.764419,-53.951782,19.309919,0.8817448776047978,0.16571701,-0.42951801,0.10285
11.9585,6256.6048,9.02881,-1.18756,8.20997,0.56823,0.48644,1.65365,-14.7,20.7,-21.7,9.530805,-53.524899,21.415857,0.8812511659133393,0.156262,-0.42714,0.12856901
11.9793,6256.6249,10.28341,-1.70951,9.0743,0.40146,0.27019,0.53211,-13.6,21.2,-21.5,8.334835,-53.026134,22.706108,0.8813893936974848,0.1514,-0.42370901,0.14387999
12.0013,6256.6449,11.53322,-1.53234,9.8716,0.5163,0.04173,-0.19299,-14.2,20.4,-21.5,7.875792,-52.661533,23.266079,0.8819082343185712,0.149514,-0.42100501,0.15046
12.0258,6256.6649,12.07433,-1.03912,9.78061,0.50225,-0.33701,-0.99567,-14.9,20.3,-21.2,8.144646,-52.561493,23.379879,0.8821916261264102,0.15184,-0.41959,0.15042201
12.0424,6256.685,12.02884,-0.78532,9.37119,0.34648,-0.60579,-1.51429,-14.9,20.2,-21.0,9.001974,-52.85244,22.924932,0.8818811486904229,0.15704399,-0.420858,0.14318299
12.0599,6256.705,12.45502,-1.23066,9.29218,0.17055,-0.80616,-2.00054,-14.7,19.5,-21.0,10.199681,-53.344536,22.013824,0.881296335172591,0.16333701,-0.42371899,0.130767
12.08,6256.725,13.68328,-2.26259,9.34725,0.18827,-0.20445,-2.90401,-15.2,19.3,-20.1,12.069547,-53.883465,20.596481,0.8807615008443318,0.17276201,-0.42656001,0.11162
12.1076,6256.745,14.66254,-2.9689,9.68245,0.42895,0.66542,-4.24608,-16.4,18.6,-21.3,15.228853,-53.332436,18.522257,0.8837808334081476,0.188458,-0.41997999,0.083856
12.126,6256.7651,14.28424,-2.65764,9.8716,0.6794,0.37892,-5.12023,-16.7,17.4,-22.4,19.676397,-51.709236,15.68083,0.8885455404234045,0.21094,-0.40468401,0.047138
12.141,6256.7851,13.26907,-2.12133,9.22514,0.76798,-0.56731,-5.67795,-17.3,16.4,-22.6,24.861816,-50.258175,12.278968,0.8888339700545879,0.238123,-0.391482,0.003668
12.1567,6256.8051,13.00091,-1.55628,8.22433,0.68368,-0.30891,-5.99255,-17.5,14.2,-21.3,30.443556,-49.016483,8.258718,0.8835427368226507,0.26710299,-0.382029,-0.04541
12.1824,6256.8252,12.89078,-0.97208,7.42704,0.38436,0.06005,-6.35662,-19.6,9.7,-21.9,36.093033,-46.511192,3.344623,0.8767523077739117,0.295454,-0.36694399,-0.09677
12.1976,6256.8452,12.83092,-0.71349,6.8165,0.1394,0.42474,-6.79522,-20.2,4.2,-23.4,41.510979,-42.277634,-3.079016,0.8684293451496788,0.32135499,-0.345983,-0.151186
12.2173,6256.8652,12.77585,-0.70152,5.86837,-0.00232,0.83341,-7.67487,-20.9,0.8,-23.0,46.661991,-35.745274,-11.553933,0.8572461396740145,0.34665,-0.318317,-0.208895
12.2483,6256.8852,11.29619,-0.27534,5.0591,-0.2204,1.41923,-8.39875,-18.8,-3.6,-24.1,51.242287,-25.561691,-23.452662,0.8415381161758033,0.37236401,-0.281014,-0.272378
12.2761,6256.9053,9.00487,0.49083,4.84122,-0.2766,1.64219,-8.13119,-17.3,-7.2,-25.9,53.175285,-13.80477,-36.919319,0.8250595347308942,0.38743201,-0.24262901,-0.33212101
12.2857,6256.9253,6.3999,1.40783,5.17163,-0.14954,1.04965,-7.19839,-15.8,-9.8,-25.6,52.78278,-3.884451,-48.756893,0.8092224198558884,0.39210501,-0.21102101,-0.38325301
12.2998,6256.9453,4.19477,2.24104,5.30332,0.05143,0.608,-6.17214,-14.0,-12.0,-26.2,51.493782,3.382269,-58.424702,0.7920786844063283,0.39195701,-0.188714,-0.428215
12.317,6256.9653,1.89387,2.94256,4.84601,0.23836,0.7039,-5.46781,-11.8,-13.2,-25.3,49.938507,8.490299,-66.098473,0.774815333758167,0.389458,-0.173335,-0.46683899
12.3431,6256.9853,0.15323,3.88112,4.6018,0.09725,0.70513,-4.75799,-10.9,-15.3,-27.4,48.319702,12.691586,-72.43985,0.7583088325244272,0.38775799,-0.15899999,-0.49933001
12.3653,6257.0053,-0.77096,3.98886,4.52279,-0.02859,-0.05907,-4.3035,-8.6,-15.6,-26.4,46.513096,15.809479,-77.686523,0.742836884766945,0.38385901,-0.146883,-0.52846098
12.3779,6257.0253,-1.25939,3.73746,4.75024,0.1003,-0.35228,-3.93027,-7.0,-15.6,-25.2,44.707623,17.864134,-82.393562,0.7263613628547981,0.377285,-0.139414,-0.55733198
12.4056,6257.0453,-1.41262,3.67761,5.24107,0.67757,-0.30525,-3.634,-6.5,-17.2,-27.6,43.230835,19.738127,-86.907654,0.7083173323447478,0.37304899,-0.133936,-0.584108
12.4257,6257.0653,-1.59698,4.01999,5.3105,1.17482,-0.21728,-3.42203,-5.8,-18.4,-26.7,42.399292,21.87888,-91.425995,0.688294680068733,0.37456799,-0.130621,-0.60736102
12.453,6257.0853,-2.01119,4.11815,4.93699,1.16748,-0.21911,-3.46173,-3.9,-18.7,-24.9,41.889717,24.315685,-96.143913,0.6660598247498342,0.37983701,-0.12856001,-0.62893599
12.4702,6257.1053,-2.94496,3.77338,4.81967,1.03676,-0.82326,-3.29191,-2.9,-20.7,-24.0,41.172989,26.625214,-100.918465,0.6423972194883159,0.38407001,-0.126643,-0.65098202
12.4819,6257.1252,-2.98566,3.53395,4.83644,1.34464,-0.72552,-3.14103,-1.1,-20.6,-24.8,40.393337,28.429426,-105.607979,0.6175314907410954,0.385901,-0.12727,-0.67345202
12.5065,6257.1452,-3.16763,4.0583,4.76221,1.61097,-0.63695,-3.07017,-0.3,-21.6,-22.2,39.854542,30.497631,-110.367981,0.5914555525513815,0.39074299,-0.128791,-0.693479
12.5173,6257.1652,-3.9745,4.69038,4.80052,1.69405,-0.5447,-2.42754,0.0,-22.9,-22.0,39.504517,32.712421,-115.166428,0.5644550776460067,0.39757499,-0.13166501,-0.71132898
12.5428,6257.1852,-4.36716,4.7239,4.62334,1.87609,-0.71941,-1.66457,1.8,-22.4,-20.3,39.653229,34.612335,-119.231293,0.5413150724391844,0.40519601,-0.13779999,-0.72374398
12.5578,6257.2052,-4.29533,4.27857,3.87873,1.91213,-1.03828,-1.53018,1.4,-22.8,-18.2,40.315479,35.890419,-122.737518,0.5211303100321836,0.41095999,-0.149161,-0.73299801
12.578,6257.2252,-4.58982,4.17083,3.36874,1.90419,-0.91733,-1.75009,1.8,-23.8,-20.6,40.901867,37.145897,-126.401192,0.49978624761597784,0.41571301,-0.16107801,-0.74259698
12.6029,6257.2452,-5.61697,4.5563,3.36635,1.77591,-0.97353,-1.34081,1.7,-24.1,-19.6,41.286072,38.720673,-130.149078,0.47806556497808844,0.42150301,-0.17088901,-0.75138903
12.6397,6257.2652,-6.21554,5.07107,3.71591,1.75269,-1.37365,-0.37808,2.2,-25.1,-18.8,41.870461,39.801319,-133.264297,0.4599786543514819,0.425102,-0.182321,-0.757936
12.6537,6257.2852,-5.87316,5.29853,4.05111,1.84616,-1.65587,0.40932,2.6,-25.5,-16.7,43.076771,39.948627,-135.458374,0.44737041661412846,0.424808,-0.198881,-0.76147503
12.6703,6257.3052,-5.13093,5.14051,4.10858,2.00681,-1.59784,0.47224,2.0,-26.8,-16.2,44.781235,39.609131,-137.180756,0.43770539816070314,0.42247599,-0.21930499,-0.76278001
12.6784,6257.3252,-5.09262,5.09023,4.31448,2.0398,-1.49643,0.49179,1.3,-26.6,-15.8,46.544312,39.522274,-139.124161,0.4270662710032016,0.420881,-0.23997,-0.76347101
12.7,6257.3452,-5.5619,5.54753,5.24346,2.36112,-1.79881,0.99086,0.7,-27.5,-14.6,48.418827,39.432705,-140.916748,0.41756608700432074,0.41909501,-0.260876,-0.762851
12.7187,6257.3652,-6.81889,6.82368,5.30092,2.91822,-2.2478,1.67137,-0.4,-28.2,-11.6,50.958923,38.705055,-142.472549,0.408954417042461,0.413809,-0.288084,-0.76060897
12.7407,6257.3852,-8.35602,8.49968,4.02478,2.63967,-2.1018,2.97984,-1.5,-28.4,-9.4,54.353653,37.294064,-143.610886,0.40192773781778157,0.40534499,-0.32231101,-0.75515902
12.76,6257.4052,-9.29457,9.46457,3.07664,1.79179,-2.05171,4.9621,-4.4,-28.9,-8.5,58.267933,33.632919,-141.758926,0.40696075911738666,0.39141601,-0.35754901,-0.74386501
12.7793,6257.4252,-8.50686,8.97374,2.40146,1.05081,-1.65892,6.91687,-8.8,-28.5,-8.0,62.357197,25.345345,-134.300751,0.42879536383442807,0.3691,-0.39257699,-0.72510898
12.7986,6257.4452,-6.2323,8.39193,2.40864,0.21392,-1.73223,8.05247,-13.5,-26.8,-4.8,65.477226,10.902625,-119.7276,0.46482600074221336,0.339396,-0.425477,-0.698367
12.8187,6257.4652,-3.70394,8.08547,3.27058,-0.35907,-1.73406,8.0372,-17.9,-24.1,-3.9,65.776199,-7.683763,-100.900131,0.5054435213426914,0.30159399,-0.45357901,-0.669204
12.8418,6257.4852,-1.15165,7.73111,4.67841,-0.3047,-1.18184,7.39457,-22.3,-20.4,-3.0,63.421585,-23.594322,-84.509293,0.5441032185942843,0.26388299,-0.474718,-0.63950002
12.8582,6257.5052,1.506,7.22592,5.45416,-0.63884,-1.07433,6.14473,-25.0,-17.0,-2.8,59.807991,-34.481197,-72.858948,0.57838157669497,0.23053201,-0.489472,-0.61053002
12.8777,6257.5252,3.06946,7.32888,6.09343,-0.41649,-0.54165,4.58275,-27.2,-15.4,-3.3,55.981915,-40.732426,-66.045929,0.6050729620093096,0.201437,-0.49744999,-0.58809298
12.9004,6257.5453,2.80848,7.59703,5.99048,-0.20269,0.24637,3.64324,-28.9,-12.4,-1.2,53.014999,-43.936649,-61.863659,0.626047525008541,0.182965,-0.49991399,-0.56980199
12.9182,6257.5653,1.65444,7.42465,5.90668,-0.41954,0.65137,3.86621,-29.5,-9.9,-3.2,50.386105,-45.428749,-58.732327,0.646836365045024,0.170854,-0.49706501,-0.55257398
12.9508,6257.5853,0.68955,7.02959,6.46933,-0.3328,0.59639,4.69698,-30.4,-7.3,-4.4,47.215645,-46.549732,-55.45195,0.6714699231803459,0.15719201,-0.49165601,-0.53168899
12.9703,6257.6054,0.9194,6.79256,7.33366,0.15589,0.0063,5.40559,-31.2,-2.1,-2.9,43.477543,-48.221573,-51.337132,0.6986358825978519,0.14033601,-0.488442,-0.50362498
12.9867,6257.6254,1.94894,6.88593,7.46295,0.82784,-0.55081,5.24921,-31.5,0.3,-2.6,39.645344,-50.76593,-46.550335,0.7233191397441519,0.12209,-0.49151099,-0.469383
13.0032,6257.6454,3.012,6.51003,6.34004,1.01355,-0.58075,4.664,-31.8,4.3,-3.5,36.336617,-53.426102,-41.854378,0.7426831428004677,0.1076,-0.49842301,-0.43407199
13.0194,6257.6654,4.22111,5.69598,4.93221,0.7692,-0.21239,3.85399,-31.7,6.5,-2.9,33.520512,-55.346275,-37.889,0.7585778198281432,0.097176,-0.50352103,-0.40197399
13.0396,6257.6855,5.29135,4.87953,4.10139,0.52119,0.12236,2.89371,-30.5,8.7,-1.3,31.258352,-56.246387,-34.974342,0.771914520514804,0.090216,-0.50435901,-0.37633899
13.0636,6257.7055,5.75105,4.35519,3.8907,0.3813,0.48582,2.22359,-30.8,10.0,-2.6,29.636778,-56.400841,-32.930355,0.7827950781412334,0.086671,-0.50199199,-0.35738501
13.082,6257.7255,6.02639,4.18519,4.16364,0.39169,0.73872,1.86135,-30.5,11.3,-3.2,28.393888,-56.061028,-31.312195,0.7928859896516269,0.085508,-0.49710801,-0.341912
13.1002,6257.7456,6.09822,4.099,4.47011,0.63176,0.87311,1.7068,-30.5,12.2,-4.4,27.411833,-55.580536,-29.72843,0.8023693204799645,0.086398,-0.49157399,-0.327252
13.1174,6257.7656,6.40469,3.98407,4.5563,0.67879,1.10524,1.60723,-29.3,13.6,-4.6,26.602497,-55.099068,-27.956463,0.8115724162244425,0.089218,-0.48605201,-0.31167901
13.1414,6257.7856,6.76143,3.8069,4.75264,0.59938,1.38746,1.33967,-29.3,14.4,-5.5,25.825876,-54.381924,-26.234524,0.8211970023332158,0.092506,-0.47889099,-0.29621199
13.1652,6257.8056,7.04635,3.64169,5.37036,0.60427,1.35448,0.96765,-29.3,14.4,-6.1,25.185419,-53.361481,-24.766287,0.8307474549197006,0.096298,-0.469798,-0.28262201
13.1805,6257.8257,7.09902,3.34959,5.83245,0.73133,0.95986,0.65428,-28.8,14.8,-8.4,24.869799,-52.473202,-23.507879,0.8381752362471466,0.101153,-0.46200201,-0.271633
13.2036,6257.8457,7.30733,2.98566,6.20835,0.87732,1.03316,0.42093,-28.3,15.2,-9.7,24.853523,-51.897896,-22.351505,0.843216239138609,0.107005,-0.45671901,-0.26257199
13.2251,6257.8657,7.79097,2.72708,6.89072,1.02454,0.8835,0.12466,-27.5,14.0,-8.7,25.153259,-51.21122,-21.166981,0.8478955064115389,0.115548,-0.45069399,-0.254159
13.3059,6257.8858,8.76783,2.47568,7.46535,1.24384,0.63182,-0.44589,-27.1,14.3,-8.5,25.786943,-50.73555,-20.166927,0.8504514355682632,0.12538999,-0.446475,-0.24833401
13.3065,6257.9058,9.72315,2.37991,7.76703,1.45032,0.68069,-1.15083,-28.1,13.9,-10.5,26.94841,-50.338013,-19.460705,0.8507353511307262,0.137951,-0.44327599,-0.246425
13.3087,6257.9258,10.25229,2.65286,7.87956,1.53339,0.72651,-1.65601,-28.5,12.7,-11.0,28.647041,-49.76022,-19.114933,0.8495066062999627,0.15363701,-0.43924901,-0.248585
13.3101,6257.9458,10.37439,2.97848,7.59464,1.52118,0.96474,-1.96694,-28.5,12.3,-10.2,30.655365,-48.977501,-19.114704,0.8472970035084981,0.170845,-0.434163,-0.25377601
13.3223,6257.9659,10.66171,3.39748,7.16367,1.28294,1.50536,-2.14532,-27.8,11.5,-11.4,32.756012,-47.766617,-19.417257,0.8454519975831034,0.188629,-0.42636299,-0.26047
13.337,6257.9859,11.49252,3.51719,7.41986,0.87488,1.73443,-2.66822,-27.8,10.3,-13.1,34.735821,-45.732159,-20.212219,0.8454076495563899,0.205705,-0.41337201,-0.26850501
13.3575,6258.0059,11.61463,3.17002,7.35521,0.70873,1.69473,-3.60773,-27.9,8.1,-14.8,36.849594,-43.052868,-22.083937,0.8440121953130416,0.22189599,-0.397989,-0.28286099
13.3817,6258.026,10.69283,3.15087,6.99607,0.79425,1.99772,-4.09459,-27.1,5.6,-15.6,39.355938,-39.649765,-25.048651,0.8399509731880426,0.239988,-0.380436,-0.30357301
13.4001,6258.046,9.76146,3.42381,6.63454,0.53707,2.0026,-4.21432,-26.6,3.4,-17.0,41.889545,-35.597332,-28.627394,0.8346053439797397,0.25921401,-0.36076099,-0.32572001
13.4177,6258.066,9.34485,3.51001,6.71594,0.00379,1.60493,-4.19538,-26.1,0.3,-19.1,43.858845,-31.177864,-32.901417,0.8285211244470957,0.27440399,-0.340956,-0.349291
13.4441,6258.086,9.31373,3.50282,6.90509,-0.26683,1.47604,-4.42995,-24.2,-2.0,-18.9,45.068844,-26.698198,-37.848587,0.8214204346764208,0.283566,-0.322662,-0.375164
13.4631,6258.106,9.1581,3.72789,7.04396,-0.31692,1.58538,-4.70545,-24.5,-5.4,-20.9,45.875576,-21.80513,-43.463924,0.8127393462858433,0.29100299,-0.30350399,-0.403308
13.4848,6258.126,9.1605,3.90746,7.05593,-0.38595,1.39113,-5.24363,-22.5,-7.7,-21.4,46.370464,-16.489643,-49.678455,0.8018591036891828,0.29821599,-0.28330299,-0.43339199
13.5014,6258.146,8.47813,3.99604,6.54116,-0.35479,1.51635,-6.22895,-19.7,-11.7,-22.1,46.546501,-10.633839,-57.001945,0.7863562074348748,0.30511901,-0.262537,-0.46863699
13.5227,6258.166,6.49327,4.46293,6.39511,-0.21979,1.68923,-6.22284,-17.8,-13.7,-23.1,46.376717,-3.781127,-65.591766,0.765240266205418,0.31438699,-0.238653,-0.50853997
13.5419,6258.186,4.51321,5.10459,6.20596,0.02395,1.33065,-5.2198,-14.5,-15.2,-24.0,45.772503,2.494843,-73.50486,0.7430455230242754,0.32352701,-0.21657901,-0.54434103
13.5604,6258.206,2.98087,5.9402,5.71513,-0.27599,0.98124,-3.87407,-13.0,-15.9,-25.0,44.979069,6.932973,-79.46151,0.7240522715811888,0.329346,-0.201085,-0.57170302
13.5788,6258.226,2.2985,6.54116,5.66246,-0.52278,0.92687,-2.54849,-11.6,-16.6,-27.4,43.889614,9.437257,-83.235016,0.7114948271783568,0.32911599,-0.19032,-0.59096199
13.6011,6258.246,3.04312,6.34004,5.82766,-0.40183,0.96474,-2.6615,-10.5,-17.4,-24.7,42.88813,10.87472,-85.245491,0.7052674462811961,0.327528,-0.181556,-0.601964
13.6328,6258.266,3.53395,5.76063,5.81809,-0.14282,1.25918,-3.80809,-8.8,-17.0,-26.2,42.006634,12.991673,-88.162361,0.6945303448899406,0.32929501,-0.171877,-0.61615801
13.65,6258.286,2.45892,5.33923,6.04554,0.18827,1.14434,-4.49104,-6.1,-18.1,-25.3,41.036404,16.390448,-92.648041,0.6763009781295158,0.336137,-0.158722,-0.63595301
13.6652,6258.306,0.71349,4.98967,6.17244,0.67024,0.84501,-4.40918,-4.2,-19.5,-26.8,40.077793,19.932741,-97.827629,0.6527888168996462,0.34434399,-0.147517,-0.65843201
13.6802,6258.326,-1.19235,4.87235,6.1461,1.24018,0.49682,-3.74823,-2.5,-19.8,-26.8,39.476177,23.068943,-102.851738,0.627834750620671,0.353468,-0.14134599,-0.6789
13.7096,6258.346,-2.68159,4.9346,5.75823,1.50407,0.10892,-2.66822,-1.8,-21.1,-26.2,39.489498,25.514994,-107.156349,0.6050528206534199,0.36287099,-0.14173,-0.69436902
13.7215,6258.366,-3.75901,5.01601,5.40867,1.34708,-0.28448,-1.42389,0.1,-20.5,-25.6,39.986801,26.979992,-110.336342,0.5874075025378884,0.36984199,-0.1477,-0.70452398
13.743,6258.3861,-4.36955,4.9346,5.40148,1.2585,-0.45735,-0.32799,0.3,-21.9,-23.0,40.801594,27.389685,-111.962776,0.5778674295585795,0.3734,-0.15656801,-0.70861
13.7602,6258.4061,-4.94897,4.79334,5.47331,1.33059,-0.45674,0.74224,-0.2,-22.6,-22.8,42.022568,27.234592,-112.61261,0.5735455715060661,0.376178,-0.16801099,-0.708031
13.7782,6258.4261,-6.024,4.80052,5.70556,1.33669,-0.62045,2.21687,-2.2,-22.5,-21.6,43.832237,26.318811,-111.857269,0.5764782512070165,0.37856501,-0.182735,-0.700692
13.8031,6258.4462,-7.67604,5.03995,5.9402,1.44176,-1.13297,4.01709,-3.7,-23.7,-21.5,46.135948,23.724989,-108.953461,0.5887118218373226,0.37672701,-0.202198,-0.68601102
13.8201,6258.4662,-8.45897,4.89629,5.72232,1.77469,-1.29363,5.57174,-5.6,-23.4,-20.7,49.088493,18.857887,-103.484375,0.6090773458399347,0.37075499,-0.22950201,-0.66249102
13.8437,6258.4862,-7.14691,4.99685,5.15727,1.78385,-1.34127,5.95598,-8.4,-23.9,-20.1,52.198891,11.944139,-95.495316,0.6344365252007319,0.36336201,-0.26104099,-0.63033003
13.8672,6258.5062,-5.61936,5.43022,4.62334,1.33486,-1.06699,5.42086,-10.9,-23.0,-19.1,54.489658,4.287556,-86.66217,0.6579996722682158,0.35558799,-0.28973401,-0.59719998
13.8863,6258.5263,-4.41744,6.1054,4.57306,0.67207,-0.82692,5.10932,-12.8,-22.0,-18.5,55.509907,-2.804613,-78.295273,0.6788946485232742,0.34737301,-0.310709,-0.567357
13.8994,6258.5463,-3.31128,6.90509,5.08065,0.45766,-0.75484,5.19117,-15.3,-19.9,-15.8,55.384075,-9.34654,-70.255661,0.6999955048687668,0.33730599,-0.325515,-0.53876799
13.9209,6258.5663,-2.20752,7.6114,5.76541,0.50164,-0.6571,5.30418,-18.4,-18.6,-16.3,54.618179,-15.876848,-62.223869,0.7207043777838731,0.325625,-0.339856,-0.50897098
13.9458,6258.5864,-1.55149,7.7766,5.92104,0.60732,-0.58808,5.21989,-21.2,-17.2,-16.9,53.420189,-22.135189,-54.330784,0.7405790422562333,0.31416601,-0.353964,-0.47702399
13.9605,6258.6064,-0.86912,7.67365,5.47092,0.48393,-0.26432,5.10504,-23.1,-15.2,-12.4,51.854488,-27.830296,-46.924892,0.7589169998099923,0.30319801,-0.36737201,-0.44402
13.9829,6258.6264,-0.3352,7.80055,5.21234,0.30861,0.0344,5.01097,-25.2,-12.4,-15.8,49.841328,-32.336823,-40.51812,0.7765087639916498,0.29221699,-0.37704501,-0.41168001
13.9991,6258.6464,-0.06704,8.03758,4.76221,0.11619,0.13458,4.99142,-26.4,-10.0,-16.0,47.480263,-35.942017,-34.695496,0.7940779279401361,0.281317,-0.38376501,-0.378187
14.0228,6258.6665,0.02634,7.85083,4.37195,-0.02065,0.43207,5.15391,-26.9,-5.6,-13.6,44.806004,-38.817314,-29.370329,0.8113961461929184,0.269835,-0.38831401,-0.343566
14.051,6258.6865,0.01915,7.47014,4.518,0.13329,0.52309,5.64505,-27.7,-2.5,-15.4,41.83886,-41.135437,-24.237684,0.8287179500985361,0.257952,-0.39102599,-0.306245
14.0684,6258.7065,0.38069,6.9841,4.71672,0.46499,0.21032,6.14412,-28.7,0.9,-14.8,38.588829,-43.498524,-18.679197,0.845154781677522,0.246076,-0.394903,-0.26308101
14.0819,6258.7266,1.54191,6.03597,4.21871,0.67757,0.36976,5.97614,-28.6,4.0,-17.5,35.193142,-46.044891,-12.904288,0.8584443996369595,0.23458,-0.40169701,-0.216067
14.101,6258.7466,2.84919,4.99925,4.12294,0.55479,0.63243,5.43308,-28.3,6.0,-16.2,32.011024,-47.69302,-7.641891,0.869793186848299,0.225734,-0.404558,-0.16981401
14.1188,6258.7666,3.91703,4.31927,4.44856,0.41979,0.23659,4.91323,-26.5,9.6,-15.0,29.014141,-48.674717,-3.17428,0.8788869259323294,0.21710099,-0.40513799,-0.127625
14.1417,6258.7866,4.67602,3.8069,4.33843,0.08076,-0.22828,4.48379,-26.1,11.9,-15.0,26.149323,-49.815834,0.609498,0.8839674042135717,0.207358,-0.40914601,-0.090575
14.1605,6258.8067,5.13093,3.19636,4.37434,-0.17703,-0.58685,4.0342,-25.2,13.8,-16.5,23.186888,-51.031185,3.606838,0.8863425041940389,0.194555,-0.41605201,-0.058703
14.1785,6258.8267,5.49247,2.46371,4.42462,-0.10983,-0.75118,3.78069,-25.5,14.6,-16.8,20.286016,-52.322071,6.037293,0.8863935033485861,0.180701,-0.42507899,-0.031009
14.1988,6258.8467,6.67524,1.48206,4.91066,0.36298,-0.47018,3.27917,-23.7,17.1,-15.9,17.521515,-53.574974,8.334339,0.8849247391880284,0.167972,-0.434367,-0.00435
14.2224,6258.8668,8.4063,1.06066,4.9346,0.86388,-0.36022,2.05072,-22.6,17.9,-15.2,15.504096,-54.505871,10.617352,0.8828056071081446,0.16137899,-0.440694,0.019997
14.2509,6258.8868,9.84765,1.23784,4.56828,0.95307,-0.06884,0.54127,-22.0,18.7,-16.1,14.647939,-55.301476,12.372298,0.8798250810417261,0.161864,-0.44544601,0.035857
14.2762,6258.9068,10.48932,1.7981,4.42941,0.81563,0.29768,-0.92542,-22.1,18.1,-16.7,15.070622,-55.520866,13.192945,0.8784699731032359,0.16832,-0.445366,0.0401
14.2834,6258.9268,11.30577,2.29372,4.70236,0.87427,0.07105,-1.71832,-22.0,16.6,-15.5,16.564659,-55.354778,13.055974,0.8782657455379094,0.17899799,-0.44216499,0.033153
14.3072,6258.9468,12.2132,2.30808,4.6832,0.9488,-0.2857,-2.69998,-24.2,15.3,-15.9,18.76568,-55.551216,12.459185,0.8760313070386467,0.193286,-0.44140801,0.0192
14.3213,6258.9668,13.07035,2.16203,4.59701,0.83456,-0.42559,-3.53809,-24.3,13.7,-17.5,21.75621,-55.962288,11.276662,0.8717370549049522,0.21112099,-0.44214699,-0.002911
14.3486,6258.9868,13.77666,1.93218,4.61616,0.6904,0.01302,-4.01456,-24.5,11.3,-16.4,25.206816,-56.118126,9.591002,0.8667646747451928,0.230257,-0.44134301,-0.030283
14.3588,6259.0068,14.15256,2.13569,4.5994,0.66108,0.34533,-4.34504,-24.3,10.3,-15.9,28.809597,-55.550831,7.419878,0.8626708003862191,0.248852,-0.436169,-0.060236
14.3797,6259.0268,14.25551,2.6361,4.42223,0.63359,0.54813,-4.70179,-25.5,9.3,-17.1,32.514198,-54.408321,4.968374,0.8585659299660102,0.26776999,-0.427679,-0.090854
14.4002,6259.0468,14.8445,2.85637,3.68,0.09114,0.50904,-5.56494,-25.8,6.6,-17.4,36.566784,-52.608315,1.81551,0.8532935711061814,0.287864,-0.41625699,-0.125517
