AppTimestamp(s),SensorTimestamp(s),gyro_x,gyro_y,gyro_z
0.0709,9609.0652,-0.2127,-0.60626,0.04498
0.0734,9609.0852,-0.49553,-0.87076,0.29605
0.0748,9609.1052,-0.28478,-0.75287,0.35958
0.0767,9609.1252,-0.06426,-0.67284,0.12928
0.0889,9609.1452,-0.22125,-0.32954,0.07492
0.124,9609.1652,-0.28723,-0.20675,0.08591
0.1265,9609.1851,-0.21026,-0.47004,-0.01855
0.1684,9609.2051,-0.02944,-0.94957,0.10729
0.1714,9609.2251,0.19291,-1.24278,0.29239
0.1857,9609.2451,0.47941,-0.96606,0.39073
0.207,9609.2651,0.58509,-0.86893,0.33392
0.2287,9609.2851,0.69016,-1.25133,0.39501
0.243,9609.3051,1.04385,-0.03816,0.33881
0.2669,9609.3251,0.96627,0.5776,0.30766
0.2828,9609.3451,0.26377,1.23306,0.47931
0.3018,9609.3651,-0.58961,1.47923,0.79268
0.3208,9609.3851,-0.98361,1.00398,0.86599
0.3435,9609.4051,-0.859,0.0999,0.74259
0.3615,9609.4251,-0.27501,-0.20065,0.51657
0.3812,9609.4451,0.93267,1.22695,0.30827
0.4025,9609.4651,1.45007,1.85064,0.26184
0.4217,9609.4851,1.14525,1.93311,0.47503
0.4415,9609.5051,0.78606,1.95082,0.64913
0.4631,9609.5251,0.63396,1.85736,0.75176
0.4809,9609.5451,0.46169,1.76573,0.86904
0.5053,9609.5651,0.1923,1.83903,0.97106
0.5395,9609.585,-0.02211,1.68448,1.05474
0.5534,9609.605,-0.02822,1.40837,1.14699
0.5673,9609.625,0.108,1.21351,1.1592
0.5849,9609.645,0.10495,0.86959,1.11278
0.6017,9609.665,-0.11191,0.79568,1.16714
0.6231,9609.685,-0.24386,0.92335,1.23434
0.6473,9609.705,-0.10091,0.97405,1.10667
0.6731,9609.725,0.07013,0.80606,0.91547
0.6873,9609.745,0.04875,0.35891,0.90997
0.7169,9609.765,-0.173,-0.12551,0.92402
0.7279,9609.785,-0.43445,-0.11696,0.82506
0.7428,9609.805,-0.567,-0.10718,0.77253
0.7651,9609.825,-0.54257,-0.21714,0.85133
0.7863,9609.845,-0.38863,-0.44499,0.91669
0.8022,9609.865,-0.16322,-0.4902,0.72182
0.8241,9609.885,-0.02822,-0.57266,0.32782
0.8417,9609.905,-0.0948,-0.96789,0.05048
0.8625,9609.925,-0.22492,-1.47125,-0.09368
0.8874,9609.9451,-0.16383,-1.53172,-0.26595
0.905,9609.9651,0.07379,-1.43093,-0.48219
0.9266,9609.9851,0.12572,-1.41443,-0.70271
0.9476,9610.0051,-0.08686,-1.52317,-0.87376
0.9682,9610.0252,-0.27257,-1.50484,-0.98432
0.9875,9610.0453,-0.19621,-1.52256,-1.08695
1.007,9610.0653,0.14465,-1.28493,-1.20668
1.0249,9610.0854,0.24667,-1.16765,-1.28548
1.0509,9610.1055,0.15809,-1.22262,-1.38688
1.0674,9610.1255,0.06646,-1.40649,-1.47485
1.0916,9610.1456,0.06646,-1.43826,-1.5567
1.1042,9610.1656,0.24361,-1.34235,-1.58786
1.125,9610.1857,0.44276,-1.05769,-1.60924
1.1433,9610.2058,0.46292,-0.93063,-1.74424
1.1622,9610.2258,0.18314,-0.93674,-1.92933
1.1845,9610.2459,-0.30067,-1.11022,-2.0118
1.2042,9610.2659,-0.50531,-1.17986,-1.94094
1.2241,9610.286,-0.27623,-1.26233,-1.7699
1.2521,9610.3061,-0.08992,-1.15726,-1.54815
1.2797,9610.3261,-0.18582,-0.8671,-1.39788
1.2891,9610.3462,-0.53768,-0.57877,-1.28304
1.3122,9610.3663,-0.79547,-0.36497,-1.0674
1.324,9610.3863,-0.84311,-0.25318,-0.88109
1.344,9610.4064,-0.85411,-0.13467,-0.77968
1.3648,9610.4264,-0.99155,-0.03082,-0.55733
1.3853,9610.4465,-0.97506,0.1054,-0.30504
1.4037,9610.4666,-0.84739,0.25873,0.06514
1.4262,9610.4866,-0.80585,0.28988,0.30827
1.4439,9610.5067,-0.73316,0.39984,0.47687
1.4637,9610.5267,-0.53829,0.46581,0.72182
1.4861,9610.5467,-0.26585,0.85493,0.99366
1.5049,9610.5667,-0.1791,1.13226,1.15309
1.5238,9610.5868,-0.14306,1.16586,1.28565
1.5562,9610.6068,0.10861,1.23061,1.35834
1.5865,9610.6268,0.41649,1.33263,1.36995
1.5953,9610.6469,0.61808,1.40654,1.5581
1.6095,9610.6669,0.69138,1.44808,1.92889
1.6259,9610.6869,0.53378,1.48718,2.18973
1.644,9610.7069,0.21429,1.63867,2.20195
1.6655,9610.727,-0.09847,1.97587,2.1036
1.6943,9610.747,-0.13207,2.07238,2.26243
1.7083,9610.767,-0.16811,1.94166,2.41881
1.7263,9610.7871,-0.23347,1.67777,2.34367
1.748,9610.8071,-0.15039,0.96855,2.38887
1.7646,9610.8271,0.15687,0.77552,2.6039
1.7894,9610.8471,0.52583,1.02597,2.58191
1.8043,9610.8672,0.63518,1.26849,2.31313
1.8238,9610.8872,0.45986,1.33324,2.12193
1.8486,9610.9072,0.07868,0.99665,2.07184
1.8713,9610.9273,-0.21942,0.44993,2.1372
1.8849,9610.9473,-0.12352,0.6509,2.06084
1.9054,9610.9673,-0.02639,0.79812,1.72425
1.9243,9610.9873,-0.09114,0.6961,1.53366
1.9436,9611.0074,-0.1449,0.90136,1.48968
1.9733,9611.0274,-0.13695,0.87448,1.32597
1.9845,9611.0474,-0.29272,0.4145,1.11827
2.0093,9611.0675,-0.57922,-0.18782,0.93074
2.0261,9611.0875,-0.63481,-0.43216,0.65096
2.0493,9611.1075,-0.49003,-0.33992,0.18793
2.0712,9611.1275,-0.37092,-0.46943,-0.0949
2.1009,9611.1476,-0.14123,-0.67468,-0.39484
2.1116,9611.1676,0.08907,-0.85916,-0.75158
2.1259,9611.1876,0.22346,-1.12733,-1.00387
2.1453,9611.2077,0.28088,-1.40588,-1.08389
2.1624,9611.2276,0.39572,-1.67527,-1.13154
2.1841,9611.2476,0.57593,-1.87625,-1.26105
2.206,9611.2676,0.70176,-1.94405,-1.48707
2.2302,9611.2876,0.75185,-2.12365,-1.63062
2.2434,9611.3076,0.88441,-2.19023,-1.7082
2.2685,9611.3276,1.05484,-2.01553,-1.81327
2.2837,9611.3476,1.07256,-1.6484,-2.04479
2.307,9611.3676,0.94183,-1.30937,-2.30929
2.3275,9611.3876,0.88991,-1.21529,-2.40947
2.3445,9611.4076,0.99926,-1.1371,-2.39664
2.3717,9611.4276,1.11349,-1.32158,-2.30807
2.3947,9611.4476,1.14159,-1.43398,-2.19567
2.4075,9611.4676,1.31141,-1.82982,-2.10343
2.4228,9611.4876,1.56736,-1.84571,-2.05822
2.4474,9611.5076,1.37738,-1.60502,-2.18773
2.4646,9611.5276,1.00109,-1.33563,-2.28302
2.5397,9611.5476,0.62296,-1.56898,-2.18651
2.541,9611.5676,0.03714,-1.54516,-1.71431
2.5425,9611.5876,-0.73438,-1.2886,-1.19568
2.5436,9611.6076,-1.49735,-0.95201,-1.08328
2.5635,9611.6276,-1.99582,-0.76631,-1.43209
2.5841,9611.6475,-2.30308,-0.5183,-1.87741
2.603,9611.6675,-2.68915,-0.37902,-2.10465
2.6279,9611.6875,-3.1528,-0.24585,-1.65566
2.6459,9611.7075,-3.34033,1.14814,-0.8872
2.6627,9611.7275,-3.44296,1.07484,-0.12606
2.6845,9611.7475,-3.12347,0.7523,0.46221
2.7042,9611.7675,-2.44053,0.08157,0.85072
2.7332,9611.7875,-1.59387,-0.27823,1.17936
2.7526,9611.8075,-1.20169,-0.23546,1.59047
2.7748,9611.8275,-1.3819,0.31431,1.87086
2.7993,9611.8475,-1.60059,1.36989,1.85192
2.8093,9611.8675,-1.37518,1.57453,1.70959
2.8352,9611.8875,-0.91825,1.57025,1.60941
2.8432,9611.9075,-0.48454,1.73702,1.23251
2.8685,9611.9275,-0.05082,1.67349,0.94907
2.892,9611.9475,0.42871,1.36683,1.10545
2.9109,9611.9675,0.96749,0.89341,1.47502
2.9262,9611.9875,1.27903,0.68633,1.79634
2.9442,9612.0075,1.24849,0.55499,1.75357
2.9658,9612.0275,1.24238,0.46764,1.65584
2.988,9612.0475,1.32362,0.34791,1.74075
3.0057,9612.0674,1.26254,0.36135,1.93928
3.0402,9612.0874,1.04568,0.38517,2.20134
3.0604,9612.1074,0.78484,0.36502,2.49944
3.0704,9612.1274,0.6083,0.59043,2.69431
3.0849,9612.1474,0.51484,1.10844,2.72852
3.1174,9612.1674,0.44703,1.6405,2.70836
3.1274,9612.1874,0.14404,1.96365,2.75112
3.1478,9612.2075,-0.63114,1.41631,2.78105
3.1661,9612.2275,-1.23101,1.06812,2.7951
3.185,9612.2475,-1.74781,1.37355,2.57763
3.2041,9612.2675,-1.98543,1.63134,2.24715
3.228,9612.2876,-1.85287,1.61729,2.07
3.2481,9612.3076,-1.47964,1.27398,2.00892
3.2646,9612.3276,-1.01416,0.80667,1.8617
3.2866,9612.3477,-0.66352,0.46886,1.52878
3.3072,9612.3677,-0.53829,0.10234,1.13049
3.3302,9612.3877,-0.42895,-0.17865,0.89959
3.3532,9612.4077,-0.24935,-0.49875,0.69983
3.3684,9612.4278,-0.13207,-0.97217,0.41456
3.3857,9612.4478,-0.20598,-1.18169,-0.02649
3.4137,9612.4678,-0.47598,-1.36618,-0.45776
3.4294,9612.4879,-0.89382,-1.5079,-0.88781
3.4442,9612.5079,-1.28538,-1.80966,-1.26227
3.4662,9612.5279,-1.2078,-2.00331,-1.57014
3.4846,9612.5479,-0.70017,-2.19084,-1.75524
3.5071,9612.568,-0.22064,-2.32829,-1.88779
3.5276,9612.588,-0.1113,-2.28614,-2.01363
3.554,9612.608,-0.27867,-2.22383,-2.20117
3.5768,9612.6281,-0.38008,-2.33806,-2.39848
3.5874,9612.6481,-0.18399,-2.47917,-2.62877
3.6049,9612.6681,0.15443,-2.50239,-2.96719
3.6249,9612.6881,0.40427,-2.39487,-3.38747
3.6462,9612.7082,0.49712,-2.16336,-3.78881
3.6703,9612.7282,0.45803,-1.87625,-4.07774
3.6858,9612.7482,0.42077,-1.77423,-4.28605
3.7129,9612.7682,0.62479,-1.63557,-4.43877
3.7248,9612.7883,0.93145,-1.36373,-4.58171
3.7464,9612.8083,0.84776,-1.01676,-4.59332
3.7693,9612.8283,0.13794,-0.74798,-4.62569
3.7876,9612.8483,-0.94452,-0.53051,-4.60675
3.8071,9612.8683,-1.75575,-0.3216,-4.37463
3.8283,9612.8882,-2.11005,0.22513,-4.19809
3.8445,9612.9082,-2.30736,0.58981,-4.19625
3.8709,9612.9282,-2.47168,0.04309,-3.92259
3.886,9612.9482,-2.73619,-0.45049,-3.10952
3.9093,9612.9682,-2.9787,-0.86893,-2.38198
3.9344,9612.9882,-2.6415,-1.59769,-1.83037
3.9478,9613.0082,-1.46498,-2.44496,-1.24272
3.9637,9613.0282,-0.07953,-1.89702,-0.37529
3.9848,9613.0482,0.31264,-0.77425,0.59293
4.0078,9613.0682,-0.46621,0.20069,1.43776
4.0273,9613.0882,-1.32814,0.71626,2.081
4.0513,9613.1082,-1.4833,0.86593,2.62894
4.0675,9613.1282,-1.118,0.95756,3.03334
4.0868,9613.1482,-0.70506,1.4719,2.8739
4.113,9613.1682,-0.55234,1.72541,2.56908
4.1298,9613.1882,-0.48148,1.34301,2.6601
4.1452,9613.2083,-0.24324,1.26787,2.74684
4.1664,9613.2283,-0.04716,1.39555,2.8568
4.1892,9613.2483,0.12877,1.49939,2.93071
4.2081,9613.2684,0.43359,1.30392,3.00951
4.225,9613.2884,0.78118,1.09072,3.15734
4.2465,9613.3084,0.92839,1.43036,3.10114
4.2658,9613.3284,0.7433,1.77245,2.80793
4.2845,9613.3485,0.56371,1.72786,2.77372
4.3075,9613.3685,0.68283,1.30514,3.22148
4.3338,9613.3885,1.00109,0.86348,3.78531
4.3486,9613.4086,0.89907,0.9997,4.00584
4.3672,9613.4286,0.21429,1.57147,4.00522
4.3856,9613.4486,-0.55234,2.03329,3.89405
4.4078,9613.4686,-1.06791,2.05345,3.75049
4.4296,9613.4887,-1.29027,1.46885,3.55074
4.4588,9613.5087,-1.04226,0.87081,3.51836
4.4804,9613.5287,-0.61587,0.54217,3.57884
4.4926,9613.5488,-0.49859,0.26972,3.17078
4.5069,9613.5688,-0.67513,-0.00089,2.09505
4.5266,9613.5888,-0.98484,-0.53601,1.56665
4.5529,9613.6088,-1.12778,-0.71988,1.36629
4.5725,9613.6289,-1.05264,-1.0076,0.91608
4.5892,9613.6489,-0.88893,-1.6319,0.28689
4.6077,9613.6689,-1.01599,-2.21406,-0.54755
4.6277,9613.689,-1.06913,-2.12609,-1.4046
4.6463,9613.709,-0.72705,-1.66733,-2.10465
4.6677,9613.729,-0.19376,-1.2324,-2.42169
4.6868,9613.749,0.03959,-0.96484,-2.65687
4.7108,9613.769,-0.1229,-1.02043,-3.09975
4.7318,9613.789,-0.26463,-1.29287,-3.47238
4.7524,9613.809,-0.14856,-1.14688,-3.76193
4.7665,9613.829,-0.04044,-0.88726,-4.05331
4.7926,9613.849,-0.06304,-0.74432,-4.22985
4.8062,9613.869,-0.1394,-0.72965,-4.54445
4.828,9613.889,-0.25058,-0.64352,-4.8737
4.8503,9613.909,-0.40329,-0.62947,-5.21579
4.867,9613.929,-0.51019,-0.4902,-5.60246
4.8859,9613.949,-0.37764,-0.17255,-5.76312
4.9079,9613.969,-0.31838,-0.21225,-5.60491
4.9266,9613.989,-0.6342,-0.09863,-5.48457
4.9467,9614.009,-1.21696,-0.02838,-5.3569
4.9749,9614.029,-1.66351,0.02537,-4.86332
5.0021,9614.049,-1.64579,-0.48042,-3.7827
5.0197,9614.069,-1.13572,-1.06197,-2.47728
5.0334,9614.089,-0.55906,-1.10534,-1.2922
5.0433,9614.1089,-0.55662,-1.08518,-0.39362
5.0651,9614.1289,-0.79241,-0.9233,0.00467
5.0865,9614.1489,-0.78875,-0.69789,0.26978
5.1076,9614.1689,-0.78386,-0.48409,0.69617
5.1269,9614.1889,-0.9659,-0.26479,1.28932
5.1478,9614.2089,-1.06791,0.02721,1.8672
5.1644,9614.2289,-0.9659,0.19092,2.45118
5.1868,9614.2489,-0.79608,0.41266,2.79266
5.2087,9614.2689,-0.58166,0.80911,2.58618
5.2418,9614.2889,-0.19804,1.22634,2.11093
5.2507,9614.3089,0.34624,1.23183,2.04618
5.2763,9614.3289,0.98154,1.02231,2.27525
5.2872,9614.3489,1.3615,0.90136,2.21783
5.3051,9614.3689,1.70664,0.73581,2.05351
5.3301,9614.3889,2.05544,0.60753,1.89285
5.3569,9614.4089,2.2894,0.24468,1.87392
5.3693,9614.4289,2.2613,0.13472,1.83604
5.3877,9614.4489,1.77689,0.05042,1.63385
5.4058,9614.4689,1.18618,0.02354,1.42004
5.4277,9614.4889,1.02613,-0.27761,1.35163
5.4508,9614.5088,1.44213,-0.60015,1.39561
5.4698,9614.5288,1.97481,-0.76875,1.50373
5.4947,9614.5488,2.59484,-1.06074,1.76946
5.5184,9614.5688,3.25762,-1.37839,2.14147
5.5369,9614.5888,3.87032,-1.81272,2.69309
5.5533,9614.6088,4.19652,-1.43765,3.11458
5.5716,9614.6288,3.62292,-0.71866,3.24042
5.5865,9614.6488,2.43601,-0.22875,3.52936
5.6066,9614.6688,1.23994,0.15427,3.90321
5.6269,9614.6888,0.1587,0.78896,4.0431
5.6468,9614.7088,-0.32388,2.13958,3.88
5.6669,9614.7288,-0.97812,3.58183,3.50248
5.6888,9614.7488,-1.8205,3.7541,3.12802
5.7084,9614.7688,-2.07706,2.8152,3.07793
5.7315,9614.7888,-1.71299,2.56841,2.76028
5.7538,9614.8088,-1.06364,2.38454,2.03396
5.7707,9614.8288,-0.29944,1.76512,1.40233
5.7904,9614.8488,0.27355,1.01192,1.04558
5.8108,9614.8688,0.42321,0.58004,0.72182
5.8265,9614.8888,0.32425,0.71321,0.4115
5.8463,9614.9088,0.21246,0.54583,0.08713
5.8682,9614.9287,0.22529,0.30943,-0.29038
5.8852,9614.9487,0.23262,0.21169,-0.84138
5.9049,9614.9687,0.35601,0.19275,-1.44186
5.9271,9614.9887,0.48796,-0.24218,-1.97026
5.9466,9615.0087,0.58142,-1.13222,-2.10343
5.9649,9615.0287,0.88869,-1.3448,-2.02463
5.9867,9615.0487,1.09272,-0.83167,-2.19567
6.0101,9615.0687,0.70115,-0.03449,-2.20666
6.0366,9615.0887,0.49529,-0.24707,-1.89696
6.0545,9615.1087,0.63823,-0.85244,-1.55548
6.0735,9615.1287,0.57409,-1.20185,-1.5396
6.0948,9615.1487,0.19475,-1.11633,-1.67766
6.1147,9615.1687,-0.0441,-1.10106,-1.75462
6.1279,9615.1888,0.07441,-1.47919,-1.96782
6.1483,9615.2088,0.38106,-2.51766,-2.00141
6.1676,9615.2288,0.72925,-3.2342,-2.10037
6.1898,9615.2488,0.69321,-2.8182,-2.60678
6.2045,9615.2689,0.38106,-1.95139,-3.16389
6.227,9615.2889,-0.00684,-1.16642,-3.46871
6.248,9615.3089,-0.25607,-0.81762,-3.51147
6.2681,9615.329,-0.38435,-0.6478,-3.50964
6.2891,9615.349,-0.53035,-0.68323,-3.61532
6.3064,9615.369,-0.92192,-1.19452,-4.18159
6.3255,9615.389,-1.21024,-0.45721,-4.4351
6.3508,9615.4091,-1.56332,0.24834,-4.11379
6.3725,9615.4291,-1.85837,-0.02227,-3.30744
6.3962,9615.4491,-1.90969,-0.01189,-2.61228
6.4166,9615.4692,-2.00742,-0.16155,-2.12542
6.4306,9615.4892,-2.13632,-0.39673,-2.26164
6.4468,9615.5092,-2.16503,0.2013,-2.31479
6.5074,9615.5292,-2.26704,-0.22813,-1.42476
6.5089,9615.5493,-2.3324,-0.46576,-0.3307
6.5103,9615.5693,-2.32752,-0.65269,0.14639
6.5281,9615.5893,-2.17847,-0.68323,0.05048
6.5474,9615.6093,-1.81439,-0.50363,0.03704
6.5665,9615.6294,-1.63113,-0.13895,0.37363
6.5887,9615.6494,-2.0062,-0.20981,0.63264
6.6085,9615.6694,-2.10944,-0.31671,1.35834
6.6269,9615.6895,-1.58593,-1.06441,2.30458
6.6523,9615.7095,-0.91153,-2.14625,2.79143
6.6704,9615.7295,-0.48759,-1.74919,2.79754
6.6894,9615.7495,-0.58533,-1.18047,2.87573
6.7109,9615.7695,-0.74232,-0.49386,3.30334
6.729,9615.7895,-0.96162,0.5495,4.06203
6.7486,9615.8095,-1.42405,0.69,4.3748
6.7884,9615.8295,-1.55294,0.41877,4.48475
6.7951,9615.8495,-0.72705,0.43221,4.63197
6.8129,9615.8695,0.62052,2.83963,3.88
6.8277,9615.8895,1.4574,1.70709,1.98754
6.8467,9615.9095,1.3224,-0.01372,0.83239
6.8724,9615.9295,0.36762,-0.75898,0.46954
6.8894,9615.9495,-0.60121,-1.45292,0.46587
6.9075,9615.9695,-0.82479,-1.46758,0.85682
6.9271,9615.9895,-0.77225,-1.37351,0.9906
6.9551,9616.0095,-0.75515,-0.33015,0.69128
6.9701,9616.0296,0.02615,-1.13771,0.63508
6.9896,9616.0496,1.73352,-3.41807,1.238
7.0111,9616.0696,2.46716,-5.46997,1.84704
7.0401,9616.0897,2.74511,-6.98308,2.21295
7.0626,9616.1097,3.19348,-8.45893,1.36201
7.0758,9616.1297,3.8184,-8.34409,0.92097
7.096,9616.1497,4.08351,-4.97395,1.21846
7.1099,9616.1698,3.5826,-4.41989,1.9741
7.132,9616.1898,3.45921,-5.37406,2.3846
7.1476,9616.2098,4.08962,-6.75156,2.62406
7.1663,9616.2299,5.05418,-7.60128,2.62345
7.1877,9616.2499,5.80188,-7.60739,2.2667
7.2083,9616.2699,6.07188,-6.64711,2.40781
7.2312,9616.2899,5.95154,-5.63918,2.60084
7.248,9616.31,5.34739,-4.95806,2.69858
7.2688,9616.33,4.99615,-3.98618,2.77311
7.2954,9616.35,4.75974,-2.92327,2.82259
7.3124,9616.3701,4.74814,-2.78338,3.60694
7.3297,9616.3901,5.35656,-3.46633,4.38763
7.3543,9616.4101,6.4329,-5.29404,4.59165
7.3707,9616.4301,6.8153,-5.70821,4.82928
7.388,9616.4502,7.25696,-4.82428,4.62953
7.4084,9616.4702,7.2142,-3.51276,3.96979
7.4363,9616.4902,7.03705,-2.19817,3.54402
7.4572,9616.5103,6.97779,-1.03509,3.46216
7.4702,9616.5303,6.75177,-1.23973,2.81465
7.4965,9616.5503,6.72123,-2.11937,1.68638
7.5176,9616.5703,6.61127,-2.71924,0.7768
7.5281,9616.5903,5.94482,-1.7162,-0.25006
7.5514,9616.6103,4.60336,-0.1194,-1.2305
7.5704,9616.6303,2.8569,0.96855,-2.06922
7.5935,9616.6503,1.59974,1.78589,-2.754
7.6161,9616.6703,0.69321,1.98381,-3.20726
7.6302,9616.6903,0.08112,1.6405,-3.70267
7.6483,9616.7103,-0.06426,0.9038,-4.47297
7.6707,9616.7303,-0.18277,0.61791,-5.05635
7.6879,9616.7503,-0.52302,0.69672,-5.5707
7.7068,9616.7703,-0.96773,0.71015,-6.06183
7.7324,9616.7903,-1.77468,0.57699,-6.46317
7.7516,9616.8103,-2.23039,0.78773,-6.44973
7.7674,9616.8303,-2.62257,0.80728,-6.37277
7.792,9616.8503,-2.75024,1.04857,-5.98792
7.8159,9616.8703,-2.72641,1.14692,-5.60308
7.8312,9616.8903,-2.45336,0.4206,-5.31841
7.8499,9616.9103,-2.02514,-0.6087,-5.22556
7.8678,9616.9303,-1.8712,-0.86343,-5.38072
7.8935,9616.9503,-1.97077,-0.71194,-5.66599
7.915,9616.9702,-1.93656,-0.70644,-5.88896
7.9307,9616.9902,-1.73803,-1.04059,-6.00747
7.9468,9617.0102,-1.5731,-1.14504,-6.32329
7.9697,9617.0302,-1.80523,-0.34298,-6.26709
7.9953,9617.0502,-2.08317,0.50735,-6.13819
8.0219,9617.0702,-2.06607,0.65518,-6.29274
8.0448,9617.0902,-2.06362,0.52995,-6.3691
8.0577,9617.1102,-2.13021,0.76391,-5.89446
8.0698,9617.1302,-2.45152,1.31491,-5.33674
8.097,9617.1502,-2.68671,0.40106,-5.62201
8.1194,9617.1702,-2.9506,-0.40956,-6.4082
8.1344,9617.1902,-4.14118,-0.34542,-6.41797
8.1479,9617.2102,-5.27433,0.33386,-5.36545
8.1674,9617.2302,-5.10695,1.69182,-4.17609
8.1874,9617.2502,-4.12896,2.3204,-3.14068
8.2155,9617.2702,-3.23282,2.07177,-2.07289
8.2319,9617.2902,-2.42342,0.38029,-1.05518
8.2457,9617.3102,-1.61342,-1.65328,-0.91957
8.2678,9617.3302,-0.88954,-3.14257,-1.31541
8.2888,9617.3502,-0.06426,-3.30323,-1.55304
8.3108,9617.3702,1.5417,-3.04239,-1.37406
8.3297,9617.3902,2.95097,-2.73329,-0.87131
8.3483,9617.4101,3.22403,-3.07354,0.14578
8.3667,9617.4301,3.32238,-3.63554,1.05963
8.3875,9617.4501,3.92652,-4.09491,1.23556
8.406,9617.4701,4.86542,-4.83039,1.24167
8.4285,9617.4901,5.79455,-5.1065,0.78291
8.4503,9617.5101,6.17939,-6.06556,0.45854
8.4655,9617.5301,5.99247,-7.37281,-0.07169
8.4852,9617.5501,5.88679,-6.94887,-0.03626
8.5074,9617.5701,5.79333,-5.8035,0.39196
8.532,9617.5901,6.04134,-5.02343,0.37363
8.5505,9617.6101,6.37915,-4.53412,0.20259
8.5733,9617.6301,6.58379,-4.68928,0.55078
8.5982,9617.6501,6.75605,-4.53229,0.82811
8.6122,9617.6701,6.92709,-4.50358,0.99427
8.6282,9617.6901,7.20259,-5.04481,0.90142
8.6473,9617.7101,7.57217,-5.39789,0.39562
8.6668,9617.7301,7.87332,-5.56771,0.24596
8.6949,9617.7501,8.00832,-5.36918,0.51535
8.7103,9617.7701,8.06635,-5.21646,0.49275
8.7281,9617.79,7.76337,-5.47974,-0.14744
8.7486,9617.81,7.06148,-6.07289,-1.21951
8.766,9617.83,6.02301,-5.80778,-2.03135
8.7876,9617.85,4.76524,-4.80657,-1.90245
8.8082,9617.87,3.23013,-3.5378,-1.17125
8.8263,9617.89,1.36089,-3.09798,-0.5836
8.8491,9617.91,0.08723,-3.49749,-0.10223
8.8682,9617.93,-0.60488,-4.23663,0.01505
8.8864,9617.95,-1.52423,-4.92874,0.3718
8.9062,9617.97,-2.22062,-4.85727,0.82872
8.9304,9617.99,-2.48573,-3.94708,1.63507
8.9486,9618.01,-2.44541,-3.09859,2.35528
8.9702,9618.03,-2.63661,-2.9587,2.29969
8.9938,9618.05,-2.79361,-3.43457,2.36322
9.0122,9618.07,-2.39899,-3.59583,2.82015
9.0389,9618.09,-1.76919,-2.88234,2.45912
9.0594,9618.11,-1.59753,-2.55614,0.93379
9.0675,9618.13,-1.79423,-2.61112,0.57949
9.1029,9618.15,-2.096,-2.45229,1.88797
9.1085,9618.17,-2.05568,-1.72231,2.94965
9.1308,9618.19,-1.66717,-1.18964,2.28136
9.1517,9618.2099,-1.08013,-1.73147,2.20012
9.1669,9618.2299,-0.49859,-1.69849,2.85069
9.1856,9618.2499,-0.30677,-1.81883,3.21415
9.2056,9618.2699,-0.52669,-1.74064,3.20194
9.2273,9618.2899,-1.27622,-1.65206,3.39375
9.2456,9618.3099,-1.26889,-1.96727,3.31617
9.2649,9618.3299,-1.38923,-2.18412,3.83663
9.2872,9618.3499,-1.92312,-1.92329,4.67351
9.3124,9618.3699,-2.88035,-1.34907,5.1622
9.3263,9618.3899,-3.29879,-1.01493,5.73947
9.3545,9618.4099,-3.28169,-0.68017,6.00397
9.369,9618.4299,-3.35805,-0.30694,5.6228
9.3863,9618.4499,-3.34155,-0.63008,4.63869
9.4075,9618.4699,-2.72886,-0.51096,4.37113
9.4279,9618.4899,-2.18335,0.24406,4.71871
9.447,9618.5099,-2.14426,0.67961,4.68634
9.4714,9618.5299,-2.11127,0.86165,4.5776
9.4864,9618.5499,-2.00559,1.29353,4.21292
9.5078,9618.5699,-2.13937,2.7987,3.97651
9.5342,9618.5899,-2.61523,3.55312,4.46154
9.547,9618.6098,-3.20289,1.83781,5.02659
9.5672,9618.6298,-3.0575,0.90074,4.36563
9.5875,9618.6498,-2.26643,0.71015,4.0266
9.6082,9618.6698,-2.39288,1.03758,5.63257
9.6277,9618.6898,-1.74231,1.41815,5.68816
9.6503,9618.7098,-1.89808,2.04001,5.50307
9.6679,9618.7298,-2.52971,2.23426,5.2746
9.6894,9618.7498,-2.64822,2.332,4.60387
9.7096,9618.7698,-2.41059,1.73641,3.98507
9.7298,9618.7898,-2.08256,1.83354,3.4475
9.7503,9618.8098,-1.72154,1.93066,3.10847
9.7702,9618.8298,-1.76308,1.19396,2.60023
9.7862,9618.8498,-1.46436,0.06569,2.43469
9.8082,9618.8698,-1.17481,-0.45477,2.76517
9.8303,9618.8898,-1.15099,-0.4621,3.05044
9.8525,9618.9098,-1.42649,-0.41506,3.42429
9.8702,9618.9298,-1.8376,-0.35031,3.47438
9.8868,9618.9498,-2.20168,-0.98927,2.8458
9.9059,9618.9698,-1.63968,-1.80417,2.88856
9.933,9618.9898,-0.35015,-1.77362,2.92216
9.952,9619.0098,-0.21881,-0.3668,2.25326
9.97,9619.0297,-0.47843,-1.21407,2.09994
9.9879,9619.0497,0.20147,-2.44985,2.21111
10.0076,9619.0697,1.44641,-3.71679,2.13231
10.0386,9619.0897,2.55635,-4.32643,1.56176
10.061,9619.1097,2.68647,-5.5787,0.84033
10.0694,9619.1297,2.27047,-5.48219,-0.73142
10.0856,9619.1497,2.46106,-3.8133,-1.4663
10.1145,9619.1697,2.35538,-3.37531,-0.77357
10.132,9619.1898,2.6376,-3.62088,-0.56099
10.1473,9619.2098,3.45982,-4.86033,-1.21401
10.1668,9619.2298,4.50745,-7.13763,-2.63366
10.1879,9619.2499,5.20873,-7.92198,-4.24634
10.2063,9619.2699,5.54593,-7.38931,-5.01848
10.2291,9619.2899,5.37244,-6.57869,-4.72038
10.2497,9619.3099,4.96377,-5.57076,-3.44611
10.2732,9619.33,5.1623,-5.07963,-2.28058
10.2919,9619.35,5.1849,-4.63003,-2.5066
10.3076,9619.37,5.18918,-4.54023,-3.05271
10.3273,9619.3901,5.81837,-4.08269,-3.24514
10.3477,9619.4101,6.75666,-3.78337,-3.63548
10.3729,9619.4301,7.42922,-4.49075,-4.47603
10.3886,9619.4501,7.60332,-4.40034,-5.86391
10.4082,9619.4702,7.61004,-3.52986,-7.40146
10.4282,9619.4902,7.75237,-2.40281,-7.69956
10.4462,9619.5102,7.80735,-0.06564,-5.93355
10.4696,9619.5303,7.30277,2.63988,-4.06003
10.4901,9619.5503,6.10181,2.95203,-2.57074
10.5066,9619.5703,4.58931,2.75777,-1.87374
10.5258,9619.5903,2.83857,3.06932,-1.63367
10.5538,9619.6104,1.43725,3.23181,-2.17612
10.5666,9619.6304,0.22223,3.50364,-3.01179
10.5922,9619.6504,-1.40206,5.1432,-3.0069
10.6093,9619.6705,-2.63967,6.26109,-2.83586
10.6852,9619.6905,-3.07033,6.17373,-3.46871
10.6881,9619.7105,-3.34888,5.48773,-4.06492
10.6895,9619.7305,-3.63049,4.59342,-4.22313
10.6909,9619.7506,-4.01412,3.27273,-4.49313
10.7058,9619.7706,-4.62498,3.04244,-4.54994
10.7284,9619.7906,-5.12406,3.36986,-4.23229
10.7541,9619.8106,-5.58343,2.42424,-4.45159
10.7692,9619.8306,-5.67139,0.8647,-5.11622
10.7879,9619.8505,-5.22974,-0.14017,-5.21395
10.8058,9619.8705,-4.76304,0.58981,-4.81506
10.826,9619.8905,-4.60238,1.87385,-4.37401
10.8481,9619.9105,-4.57978,2.28802,-3.94763
10.8666,9619.9305,-4.28351,2.60628,-3.6819
10.8866,9619.9505,-3.47106,3.11452,-3.74299
10.9087,9619.9705,-2.59141,4.03326,-3.27812
10.9291,9619.9905,-1.97444,4.0015,-3.0405
10.9554,9620.0105,-1.57554,2.74189,-3.62632
10.975,9620.0305,-1.06669,1.88546,-4.45098
10.9908,9620.0505,-0.61526,2.12431,-4.91219
11.0085,9620.0705,-0.74477,1.80238,-4.81506
11.0299,9620.0905,-1.34952,1.61057,-4.73931
11.0501,9620.1105,-1.74109,2.50182,-4.59393
11.0671,9620.1305,-1.78324,3.12429,-4.01299
11.0951,9620.1505,-1.35258,4.05098,-2.95803
11.1081,9620.1706,-0.75759,5.1542,-1.84625
11.126,9620.1906,-0.33243,5.50178,-1.0338
11.1491,9620.2106,-0.03005,5.37533,-0.49197
11.1672,9620.2307,0.12999,5.35456,-0.07597
11.1868,9620.2507,0.07318,5.31852,0.79146
11.2122,9620.2707,-0.00867,4.44682,1.96738
11.2273,9620.2907,-0.34098,3.19577,2.97164
11.2497,9620.3108,-0.79241,3.2312,3.57762
11.2702,9620.3308,-0.72461,3.71744,4.26729
11.2871,9620.3508,-0.3532,2.47311,5.38517
11.3092,9620.3708,-0.0386,0.25201,6.52321
11.33,9620.3909,0.41771,-2.2672,7.19333
11.3495,9620.4109,0.63029,-3.30506,7.26052
11.3669,9620.4309,0.76957,-3.7119,7.1579
11.3909,9620.451,1.05668,-3.34294,6.84941
11.4167,9620.471,1.32607,-1.61724,6.23549
11.4276,9620.491,1.01147,-0.18965,5.66189
11.4489,9620.511,0.46841,0.88425,5.3925
11.4687,9620.5311,-0.04349,1.93311,5.65456
11.4917,9620.5511,-0.54196,1.87019,6.41509
11.5096,9620.5711,-0.90603,0.57149,7.0119
11.5299,9620.5912,-1.21086,-0.63558,6.98319
11.5473,9620.6112,-1.46253,0.09074,7.06016
11.5686,9620.6312,-1.96833,1.36073,7.48899
11.5882,9620.6512,-2.55659,1.29964,7.80542
11.6097,9620.6713,-2.92861,0.19336,7.89705
11.6295,9620.6913,-3.17845,-0.93185,7.91843
11.649,9620.7113,-3.16257,-1.51584,7.87994
11.6675,9620.7313,-2.87852,-1.93306,7.77671
11.6923,9620.7513,-2.16442,-3.15051,7.36559
11.7121,9620.7713,-1.53217,-3.74733,6.70586
11.7354,9620.7913,-1.48147,-4.7748,6.3821
11.7586,9620.8113,-1.40022,-5.25922,6.21961
11.7743,9620.8313,-0.96345,-4.75892,5.33996
11.7885,9620.8513,-0.54257,-3.87072,4.74315
11.809,9620.8713,-0.64153,-3.46816,4.34975
11.8273,9620.8913,-1.32203,-3.85606,3.81952
11.8498,9620.9113,-2.05202,-3.81819,3.31739
11.8756,9620.9313,-2.58713,-3.75771,2.71019
11.8956,9620.9513,-3.00741,-3.74855,1.80611
11.907,9620.9713,-3.44357,-3.65509,1.54222
11.9293,9620.9913,-3.83941,-3.20122,1.80305
11.9478,9621.0113,-3.98357,-3.01796,1.70715
11.9689,9621.0313,-3.92249,-3.33866,1.2264
11.9914,9621.0513,-3.8333,-4.14439,0.7994
12.0098,9621.0712,-4.15095,-4.74854,0.47748
12.0388,9621.0912,-5.03609,-4.9318,0.26551
12.0576,9621.1112,-5.6604,-4.51702,0.26795
12.0716,9621.1312,-5.95545,-3.56224,0.43227
12.0874,9621.1512,-5.61031,-3.36859,0.31499
12.112,9621.1712,-4.95607,-3.82796,-0.09002
12.1277,9621.1912,-4.23647,-4.08941,-0.16576
12.1496,9621.2112,-3.68364,-3.55185,0.07614
12.1687,9621.2312,-3.69585,-2.77605,0.35836
12.1871,9621.2512,-3.80825,-3.22565,0.08652
12.2067,9621.2712,-3.59445,-2.83836,-0.16821
12.2285,9621.2912,-3.61644,-1.92329,0.43838
12.2488,9621.3112,-3.3275,-1.16154,1.47563
12.2702,9621.3312,-2.63173,-1.23606,2.03763
12.2934,9621.3512,-2.12715,-1.08518,2.1769
12.308,9621.3712,-1.9445,-0.53173,2.57397
12.3276,9621.3912,-1.77407,-0.30877,3.14879
12.3498,9621.4112,-1.3147,-0.23546,3.0816
12.368,9621.4312,-1.13266,0.08341,3.03639
12.3871,9621.4512,-1.6409,0.06875,3.64298
12.4158,9621.4711,-2.46557,-0.75042,3.84762
12.4277,9621.4911,-2.94755,-1.09373,3.92887
12.4482,9621.5111,-2.99153,-1.55066,3.47438
12.4702,9621.5311,-2.47596,-2.01125,2.95698
12.4886,9621.5511,-1.90358,-2.49872,2.2551
12.5117,9621.5711,-1.70321,-2.21711,2.33023
12.5323,9621.5911,-2.10822,-1.98559,3.32105
12.5527,9621.6111,-2.84064,-2.3008,4.33937
12.5775,9621.6311,-3.23221,-1.47552,4.62892
12.5955,9621.6511,-3.00008,-0.41384,4.03638
12.6092,9621.6711,-2.58775,0.21658,4.10174
12.6287,9621.6911,-2.51994,1.71014,4.47376
12.651,9621.7111,-3.20472,2.62094,4.37419
12.6681,9621.7311,-3.95792,2.19944,4.35281
12.6883,9621.7511,-4.16439,2.34666,4.57089
12.7103,9621.7711,-4.26029,2.93615,4.11029
12.7429,9621.7911,-4.92797,2.67897,3.87022
12.7492,9621.8111,-5.31831,2.02962,4.10357
12.7744,9621.8311,-4.86627,2.09682,5.59836
12.7902,9621.8511,-3.95242,2.42974,6.88301
12.811,9621.8711,-3.44174,2.90927,7.37659
12.8312,9621.891,-3.2597,2.75655,6.84147
12.8554,9621.911,-3.20716,2.60078,5.77246
12.8695,9621.931,-3.38187,1.95876,4.94474
12.8953,9621.951,-3.43868,1.10722,4.24041
12.9141,9621.971,-3.41058,0.71993,3.75172
12.9309,9621.991,-3.4961,0.3644,3.52753
12.951,9622.011,-3.49122,0.35585,3.45483
12.9678,9622.031,-3.67142,0.08952,3.56846
12.9935,9622.051,-4.25358,-0.55678,3.47988
13.0129,9622.071,-5.0251,-0.96789,2.86413
13.0427,9622.091,-5.17476,-1.09373,2.19951
13.0583,9622.111,-4.32688,-1.52256,2.0529
13.0791,9622.131,-3.78321,-1.86709,1.82993
13.0919,9622.151,-4.28351,-1.91168,1.17142
13.122,9622.171,-4.63781,-1.90679,0.94357
13.1289,9622.191,-4.25174,-1.70276,0.90997
13.1477,9622.211,-3.4906,-1.54638,0.61553
13.1677,9622.231,-3.42035,-1.68627,0.21664
13.1882,9622.251,-3.83574,-1.33197,0.07919
13.2109,9622.2709,-3.60789,-1.02776,0.79635
13.2269,9622.2909,-3.35072,-1.30814,1.19341
13.2496,9622.3109,-3.063,-1.35029,0.62836
13.2687,9622.3309,-2.48634,-1.63374,0.00345
13.2871,9622.3509,-1.27255,-1.63557,-0.20914
13.3117,9622.3709,-0.01845,-1.14749,0.14089
13.3336,9622.3909,0.78057,-0.14811,0.84216
13.3583,9622.4109,1.60646,0.15793,1.20196
13.3732,9622.4309,2.53314,0.05103,0.67295
13.388,9622.4509,2.97052,0.11273,0.12501
13.409,9622.4709,3.07742,0.38273,-0.0161
13.4307,9622.4909,3.77014,0.63746,0.28567
13.4503,9622.511,4.65528,1.23611,0.39012
13.4733,9622.531,5.27959,1.50733,0.34125
13.4909,9622.551,5.505,0.76391,0.12012
13.5118,9622.571,6.05905,0.77979,-0.51823
13.5287,9622.5911,6.70413,0.50857,-0.90063
13.5502,9622.6111,7.304,-0.35581,-0.58726
13.5729,9622.6311,7.95335,-0.84022,-0.03443
13.5883,9622.6512,8.5807,-0.98744,0.49397
13.6099,9622.6712,8.6027,-1.15482,0.87393
13.6305,9622.6912,7.56056,-2.53049,1.12805
13.6529,9622.7112,6.596,-4.08208,0.66196
13.6715,9622.7313,5.93932,-3.96113,-0.55794
13.6895,9622.7513,5.35411,-3.40708,-0.60253
13.7135,9622.7713,5.25821,-3.07965,0.55689
13.745,9622.7914,5.63817,-2.73207,1.65706
13.7501,9622.8114,5.70109,-2.59524,2.19523
13.7721,9622.8314,5.25332,-2.68076,2.48722
13.7926,9622.8514,4.92956,-2.39365,2.60818
13.8096,9622.8715,5.01569,-2.66915,2.85619
13.8332,9622.8915,5.45918,-3.1499,3.22698
13.8609,9622.9115,5.88129,-3.21649,3.60572
13.8681,9622.9316,6.34249,-3.70457,3.89954
13.8898,9622.9516,6.63571,-4.79741,3.96369
13.9097,9622.9716,7.43044,-5.32214,4.2514
13.9337,9622.9916,8.04681,-6.2647,4.96062
13.9496,9623.0117,8.18975,-7.11259,4.67901
13.9709,9623.0317,8.19586,-7.15596,3.71262
13.992,9623.0517,7.66746,-6.46201,2.45485
14.0082,9623.0718,5.75667,-5.47241,1.41638
14.0312,9623.0918,3.05848,-4.5494,0.8892
14.0548,9623.1117,1.37738,-3.52497,0.90997
14.0737,9623.1317,0.74758,-2.92327,0.86477
14.1049,9623.1517,0.26194,-3.28246,0.63325
14.1133,9623.1717,0.06158,-2.5818,-0.40339
14.1341,9623.1918,0.1587,-3.58789,-1.35573
14.1498,9623.2118,0.34807,-4.05643,-2.21949
14.1678,9623.2318,0.00232,-4.70578,-1.84137
14.1876,9623.2518,-0.37153,-5.47425,0.13112
14.2098,9623.2719,-0.83823,-3.23909,1.56909
14.229,9623.2919,-1.54011,-2.52071,1.99303
14.2499,9623.3119,-1.40755,-2.71497,1.42737
14.285,9623.332,-1.15099,-3.32461,0.37668
14.301,9623.352,-1.0392,-4.27206,0.19587
14.3197,9623.372,-1.45031,-3.81086,0.42739
14.3313,9623.392,-2.21817,-2.81881,0.97961
14.4343,9623.4121,-2.8553,-2.89395,1.25511
14.4408,9623.4321,-3.19739,-2.95626,1.50679
14.4423,9623.4521,-3.25359,-3.30567,1.8171
14.4432,9623.4722,-3.13752,-4.71433,1.58864
14.444,9623.4922,-2.9958,-5.07596,1.67905
14.4551,9623.5122,-3.21633,-3.52742,1.63873
14.4676,9623.5322,-3.37515,-3.30018,2.34917
14.487,9623.5523,-3.15768,-3.12791,3.23553
14.5086,9623.5723,-2.96893,-3.36065,3.6161
14.529,9623.5923,-3.09843,-3.20183,3.60205
14.5481,9623.6124,-3.00436,-2.29225,4.26118
14.57,9623.6324,-3.06422,-0.79746,4.28928
14.5893,9623.6524,-2.57125,-0.95262,4.58677
14.6099,9623.6724,-2.39166,-0.58183,5.0156
14.6332,9623.6925,-2.63234,0.32653,5.08707
14.6542,9623.7125,-2.90478,0.2178,5.27277
14.6743,9623.7325,-2.93044,-0.19454,5.83293
14.7076,9623.7526,-2.92983,0.13594,5.94961
14.7259,9623.7726,-2.91822,0.30332,5.55132
14.7388,9623.7926,-2.9787,0.52751,5.25994
14.7523,9623.8126,-2.68487,0.90746,4.67534
14.769,9623.8326,-2.25421,1.42303,4.51957
14.7898,9623.8526,-1.75819,2.07849,5.43465
14.815,9623.8726,-1.34647,2.39309,6.34301
14.8347,9623.8926,-1.1235,2.75472,6.34789
14.8504,9623.9126,-1.37457,3.32099,6.24832
14.872,9623.9325,-2.02147,4.20858,6.22205
14.8901,9623.9525,-2.87607,4.66001,6.23
14.91,9623.9725,-3.40814,5.04424,6.17929
14.932,9623.9925,-3.36477,6.00452,6.20067
14.959,9624.0125,-3.44357,6.27269,6.00459
14.9769,9624.0325,-3.39409,6.14747,4.9429
14.9927,9624.0525,-3.02024,5.30753,3.8183
15.0109,9624.0725,-2.57492,4.38145,2.98508
15.0342,9624.0925,-2.39471,2.9111,2.00403
15.0547,9624.1125,-2.35134,1.72114,0.84155
15.0801,9624.1325,-2.62867,0.88792,-0.0442
15.0905,9624.1525,-3.10698,0.59898,-0.35941
15.1135,9624.1725,-3.46434,0.7462,-0.2238
15.129,9624.1925,-3.88889,0.91296,-0.03748
15.1493,9624.2125,-4.15645,0.5776,-0.17065
15.1727,9624.2325,-4.019,-0.1023,-0.57382
15.1896,9624.2525,-3.78748,-0.43583,-1.31541
15.2173,9624.2725,-3.94142,-0.41567,-1.63612
15.2374,9624.2925,-4.35742,-0.72904,-1.51578
15.2509,9624.3125,-4.05627,-1.15482,-1.71675
15.2699,9624.3324,-2.45336,-1.39611,-1.73691
15.2915,9624.3524,0.57837,-1.37045,-1.12299
15.3085,9624.3724,2.88805,-1.51828,-0.12056
15.329,9624.3924,4.46592,-1.67527,1.40233
15.3565,9624.4124,5.26309,-0.99416,2.74195
15.3684,9624.4324,5.07922,-0.07175,3.86045
15.3883,9624.4524,4.07741,1.43525,4.8079
15.411,9624.4724,3.29244,1.91173,5.24711
15.4301,9624.4924,2.79459,1.77611,4.97161
15.4522,9624.5124,1.16297,0.34486,4.04982
15.4772,9624.5324,0.37617,-1.04792,3.41635
15.5018,9624.5524,1.19962,-2.07539,3.54158
15.5091,9624.5724,1.95404,-3.21221,3.82807
15.5358,9624.5924,2.18556,-3.32033,4.32959
15.5491,9624.6124,2.06094,-2.48101,5.15854
15.569,9624.6324,1.24177,-1.28066,5.88302
15.5935,9624.6524,0.31448,-0.50547,6.32285
15.6122,9624.6724,-0.19987,-0.00761,6.59896
15.636,9624.6924,-0.40818,0.04004,6.5617
15.6542,9624.7124,-0.63298,-0.29655,6.3931
15.6716,9624.7324,-0.80035,-0.58793,5.51895
15.6897,9624.7524,-0.95124,-1.88419,4.73032
15.7129,9624.7723,-0.79302,-3.36371,4.03516
15.7303,9624.7923,-0.79669,-4.39301,3.69674
15.7537,9624.8123,-1.11373,-5.16698,3.92948
15.7745,9624.8323,-1.34586,-5.43026,3.77859
15.7895,9624.8523,-1.15588,-4.65385,3.33327
15.8104,9624.8723,-1.22246,-3.82857,3.09687
15.8308,9624.8923,-2.02147,-3.94586,2.18179
15.8507,9624.9123,-2.29942,-4.54145,1.04375
15.8692,9624.9323,-2.49184,-5.29648,0.47442
15.891,9624.9523,-2.00803,-5.27938,-0.73204
15.91,9624.9723,-1.35563,-5.13949,-0.87681
15.9298,9624.9923,-0.85778,-5.44737,0.03765
15.954,9625.0123,-0.51508,-6.31418,0.38768
15.976,9625.0323,-0.2799,-7.83219,0.27834
15.9903,9625.0523,-0.0722,-8.7436,0.59415
16.0101,9625.0723,0.78484,-8.98855,0.83789
16.0294,9625.0923,2.54474,-9.18708,0.66257
16.0523,9625.1123,4.87275,-9.79184,0.50497
16.0728,9625.1323,6.02484,-8.72955,0.53795
16.0985,9625.1522,6.01507,-6.99408,0.41211
16.1086,9625.1722,5.14825,-5.68805,0.04315
16.1297,9625.1922,4.46653,-4.16516,-0.37101
16.1508,9625.2122,4.82144,-2.40648,-0.68439
16.1685,9625.2322,5.72247,-0.80785,-1.38139
16.1897,9625.2522,5.67848,-0.06809,-1.81754
16.2077,9625.2722,4.84526,-0.07481,-2.74789
16.2434,9625.2922,4.01998,0.16587,-3.72466
16.256,9625.3122,3.63636,0.68083,-3.72344
16.2715,9625.3322,3.41706,1.27887,-3.44183
16.2904,9625.3522,2.70907,1.0217,-3.81202
16.3132,9625.3722,1.5808,0.57943,-4.58171
16.3312,9625.3922,0.32791,0.40594,-5.31719
16.3491,9625.4122,-1.14061,0.28194,-5.8352
16.3704,9625.4322,-2.35745,0.99787,-5.30986
16.3897,9625.4522,-2.75268,1.7022,-5.11622
16.4086,9625.4722,-2.22062,1.42914,-5.62812
16.431,9625.4922,-1.67328,1.04674,-5.96287
16.4486,9625.5122,-1.91824,0.85859,-5.94455
16.4723,9625.5322,-2.85775,1.13104,-5.48335
16.4905,9625.5521,-3.50649,1.79749,-4.64829
16.5094,9625.5721,-3.24748,1.61607,-4.45465
16.5379,9625.5921,-2.37822,0.68939,-4.73748
16.5582,9625.6121,-1.68366,0.12311,-4.87615
16.5676,9625.6321,-1.59692,0.30943,-4.73442
16.6257,9625.6521,-1.78385,0.96794,-4.57988
16.6266,9625.6721,-2.30736,0.54094,-4.93723
16.6303,9625.6921,-2.88096,-0.11024,-5.79122
16.6464,9625.7121,-3.14119,-1.24217,-6.32084
16.6686,9625.7321,-2.56148,-1.82616,-6.11376
16.6885,9625.7521,-1.74353,-2.24155,-5.4638
16.7107,9625.7721,-1.41855,-2.83958,-5.35751
16.7291,9625.7921,-1.78934,-3.81269,-5.74052
16.7485,9625.8121,-2.50955,-4.40523,-5.44486
16.7742,9625.8321,-2.79727,-4.38813,-4.42044
16.7992,9625.8521,-2.15342,-3.57812,-3.5805
16.8134,9625.8721,-1.815,-3.20855,-3.88838
16.8275,9625.8921,-2.01964,-2.28675,-4.75519
16.8503,9625.9121,-2.57919,-2.10288,-5.75885
16.8689,9625.9321,-2.94083,-2.02896,-6.24509
16.888,9625.9521,-3.12103,-1.87319,-5.95371
16.9093,9625.972,-3.13997,-1.6264,-5.0875
16.9341,9625.992,-3.28596,-0.82128,-3.99222
16.9516,9626.012,-3.70257,0.05836,-3.02461
16.975,9626.032,-4.19921,0.66678,-2.44612
16.9935,9626.052,-4.49181,1.00459,-1.82976
17.0127,9626.072,-4.50647,1.44503,-1.07901
17.0514,9626.092,-4.35498,2.02535,-0.37712
17.0656,9626.112,-4.2267,2.70891,-0.07841
17.0888,9626.132,-4.1595,3.03755,0.04437
17.1216,9626.152,-4.02022,2.5458,0.33148
17.123,9626.172,-3.74411,1.69609,0.43716
17.128,9626.192,-3.2316,0.92884,-0.0106
17.1564,9626.212,-2.12104,0.56355,-0.28794
17.1699,9626.2321,-1.79484,-0.21714,-0.49807
17.1883,9626.2521,-1.57004,-0.60443,-0.8707
17.21,9626.2721,-1.01782,-0.53601,-0.9098
17.2294,9626.2921,-0.72766,-0.17865,-0.48952
17.2523,9626.3122,-0.80035,0.44076,0.14822
17.2713,9626.3322,-0.73438,0.76147,0.7878
17.2901,9626.3522,-0.32388,0.67167,1.2771
17.3184,9626.3723,0.29309,-0.04365,1.33452
17.331,9626.3923,0.95588,-0.76264,0.99427
17.3529,9626.4123,1.4574,-1.20613,0.71083
17.3713,9626.4323,1.86058,-1.38756,0.62775
17.3983,9626.4524,1.86607,-2.3741,0.44144
17.4118,9626.4724,1.31446,-3.23237,0.16594
17.4295,9626.4924,0.66022,-2.92022,0.30277
17.4534,9626.5124,0.10556,-2.79255,0.5966
17.4733,9626.5325,-0.14001,-3.00391,0.80918
17.4935,9626.5525,-0.24752,-2.87379,1.42371
17.5139,9626.5725,-0.70567,-2.47551,1.97776
17.5343,9626.5926,-1.30493,-1.90496,0.90447
17.5499,9626.6126,-1.31898,-1.90862,-1.12788
17.578,9626.6326,-0.79974,-1.97949,-1.66849
17.5932,9626.6526,-0.18888,-2.53049,-0.96722
17.6101,9626.6727,0.23873,-3.15051,-0.36185
17.6307,9626.6927,0.38289,-3.10775,-0.68561
17.6486,9626.7127,0.48979,-3.45228,-1.49012
17.6698,9626.7328,0.62418,-3.83957,-1.89757
17.692,9626.7528,0.6926,-4.27573,-1.44614
17.7109,9626.7728,1.10738,-4.70639,-0.30443
17.7372,9626.7928,2.06216,-5.43576,0.75786
17.7528,9626.8128,2.9357,-6.90917,0.73221
17.7686,9626.8328,2.93631,-8.93846,-0.53717
17.7903,9626.8528,2.25581,-11.08199,-2.32395
17.8112,9626.8728,1.43358,-10.82542,-3.69595
17.8381,9626.8928,0.93328,-8.21703,-3.80102
17.8525,9626.9128,0.74697,-6.20545,-2.87739
17.8704,9626.9328,0.67855,-5.10895,-2.50538
17.8891,9626.9528,0.71948,-5.17187,-2.81631
17.9097,9626.9728,0.51606,-6.14375,-3.5634
17.9328,9626.9928,0.02065,-6.98003,-4.28788
17.9503,9627.0128,-0.443,-7.41374,-5.03925
17.9726,9627.0328,-0.85716,-7.47727,-5.51572
17.9926,9627.0528,-0.63481,-7.26225,-5.31963
18.0169,9627.0728,0.02676,-6.58235,-5.37156
18.0337,9627.0928,0.99987,-5.34169,-5.81505
18.0536,9627.1128,1.33767,-4.15783,-6.23227
18.0721,9627.1328,1.70908,-2.99535,-6.40025
18.1077,9627.1528,2.2723,-2.25499,-6.10337
18.1218,9627.1729,2.41341,-1.43948,-5.75946
18.1372,9627.1929,2.17761,-0.99538,-6.00136
18.1518,9627.213,1.75306,-0.94773,-6.51449
18.1725,9627.2331,1.54781,-0.70522,-6.8022
18.1895,9627.2531,1.28025,-0.22875,-7.01784
18.2141,9627.2732,0.55332,-0.12429,-7.24081
18.2379,9627.2933,-0.06793,-0.15361,-7.45033
18.2551,9627.3133,-0.13207,-0.31488,-7.01967
18.2708,9627.3334,-0.31777,-0.17255,-6.28541
18.2952,9627.3534,-1.05203,0.12067,-5.28237
18.3131,9627.3735,-1.44115,0.96977,-4.12051
18.3339,9627.3936,-1.44359,1.51466,-3.35204
18.3545,9627.4136,-1.43565,1.24466,-2.63977
18.3736,9627.4337,-1.49491,1.67349,-2.08571
18.392,9627.4538,-1.81317,1.9667,-1.76929
18.4125,9627.4738,-2.82843,2.51526,-0.86337
18.4298,9627.4939,-4.56512,2.94959,0.34858
18.4551,9627.5139,-5.12161,3.46455,0.66318
18.4773,9627.534,-5.13628,3.59038,0.65707
18.4965,9627.5541,-5.51929,3.02106,0.53184
18.5165,9627.5741,-5.79173,2.50304,0.23557
18.5376,9627.5942,-5.82716,2.47189,-0.14744
18.5566,9627.6142,-5.99149,2.48716,-0.56099
18.5756,9627.6343,-6.27981,2.2025,-0.50968
18.5965,9627.6544,-6.39099,2.26114,-0.33497
18.6153,9627.6744,-6.23156,2.14263,-0.21891
18.6455,9627.6945,-5.82594,1.8989,-0.30321
18.67,9627.7146,-5.4863,1.81643,-0.22685
18.6791,9627.7346,-5.2053,2.2477,-0.33497
18.6951,9627.7546,-4.78747,2.39065,-0.42721
18.7132,9627.7746,-4.49914,2.18234,-0.43882
18.733,9627.7946,-4.45821,1.64478,-0.63735
18.7517,9627.8146,-4.50831,1.49695,-1.17552
18.7736,9627.8346,-4.20104,1.37722,-1.62756
18.7996,9627.8546,-3.74472,1.17075,-1.70331
18.8153,9627.8746,-3.35377,0.56416,-1.63367
18.8439,9627.8946,-2.90112,-0.30877,-1.54449
18.852,9627.9146,-2.31774,-0.3839,-1.55426
18.8752,9627.9346,-1.90174,0.18176,-1.16942
18.9005,9627.9546,-1.95978,0.32653,-0.46875
18.9169,9627.9746,-2.01536,0.31126,-0.17371
18.9319,9627.9946,-1.96527,0.32775,-0.31176
18.9569,9628.0146,-1.97749,0.23063,-0.55855
18.9719,9628.0345,-2.2982,0.40167,-0.54145
18.9917,9628.0545,-3.09232,0.41022,-0.46814
19.0128,9628.0745,-4.05932,0.62158,-0.70394
19.044,9628.0945,-5.01288,0.86776,-0.85299
19.0649,9628.1145,-5.61092,0.84149,-0.68256
19.0732,9628.1345,-5.60298,1.08767,-0.03626
19.0941,9628.1545,-5.26944,1.61607,0.74015
19.1188,9628.1745,-5.26211,2.17318,1.37789
19.1325,9628.1945,-5.75081,2.29902,1.51534
19.1526,9628.2145,-6.15031,2.4273,1.56482
19.1732,9628.2345,-6.18208,2.7199,1.62224
19.191,9628.2545,-6.44902,2.56291,1.34491
19.21,9628.2745,-6.61946,2.17562,0.67051
19.2342,9628.2945,-6.26943,1.31002,-0.16515
19.2534,9628.3145,-5.53945,0.42122,-0.73204
19.2696,9628.3345,-4.66041,-0.22203,-0.70882
19.2916,9628.3545,-4.28595,-0.60198,-0.43149
19.3125,9628.3745,-3.97563,-0.82373,-0.38323
19.3315,9628.3945,-2.67143,-1.09129,-0.22502
19.3504,9628.4145,-0.74599,-0.93735,0.12256
19.3719,9628.4344,0.89296,-0.95262,0.26734
19.3908,9628.4544,2.05117,-0.81212,-0.02343
19.4172,9628.4744,2.76649,-0.81151,-0.30199
19.4373,9628.4944,2.66875,-0.84266,-0.46203
19.4545,9628.5144,2.73106,-0.83839,-0.36552
19.4718,9628.5344,3.38224,-0.67284,0.07858
19.4929,9628.5544,4.03403,-0.79563,0.72488
19.5153,9628.5744,4.23684,-0.82373,1.08162
19.5317,9628.5944,4.10306,-0.93979,1.08712
19.5606,9628.6144,4.01937,-1.18903,0.58071
19.5693,9628.6344,4.08046,-1.42482,0.17449
19.5898,9628.6544,4.14338,-1.71315,0.03949
19.6168,9628.6744,4.05114,-1.85609,-0.04176
19.633,9628.6944,4.02121,-1.91351,-0.08635
19.6521,9628.7144,4.30709,-2.1939,0.2087
19.6765,9628.7345,4.8697,-2.45229,0.34309
19.6965,9628.7545,5.30708,-3.24947,0.293
19.7177,9628.7745,5.55936,-3.80292,-0.00144
19.7389,9628.7946,5.77744,-3.46083,-0.67095
19.7608,9628.8146,6.02973,-2.73329,-1.23905
19.7733,9628.8346,5.29791,-2.87196,-1.0619
19.7929,9628.8546,4.73042,-2.78644,-0.76502
19.8134,9628.8747,4.72126,-2.26476,-0.92996
19.8311,9628.8947,4.9882,-2.02102,-1.1126
19.8577,9628.9147,5.22644,-2.05645,-0.6795
19.8741,9628.9348,4.92895,-1.45292,0.34187
19.8922,9628.9548,4.38834,-1.3564,1.93622
19.914,9628.9748,4.51601,-1.93184,2.98447
19.9345,9628.9948,5.10488,-2.39243,2.89345
19.9557,9629.0149,5.57952,-2.8292,2.38338
19.9734,9629.0349,5.72247,-3.44434,1.89102
19.9918,9629.0549,5.91305,-3.7174,1.70043
20.0101,9629.075,6.09937,-3.60316,1.51717
20.0387,9629.095,6.05111,-3.58362,1.29604
20.0585,9629.115,5.86846,-3.42052,1.04619
20.0726,9629.135,5.59235,-3.13463,0.67479
20.0936,9629.1551,5.29486,-3.16884,0.19892
20.1157,9629.1751,5.03097,-3.4254,-0.56649
20.1317,9629.1951,4.48791,-3.88966,-1.34962
20.155,9629.2152,3.67484,-4.07659,-1.36489
20.1726,9629.2352,3.38591,-3.63493,-0.69477
20.1917,9629.2552,3.52091,-2.78583,-0.59215
20.2155,9629.2752,3.27412,-2.61845,-0.87315
20.2317,9629.2952,2.77076,-3.08576,-1.58786
20.2554,9629.3152,2.3401,-3.36615,-1.787
20.2729,9629.3352,1.77628,-3.38325,-1.34473
20.2918,9629.3552,1.11654,-3.09187,-0.74792
20.3123,9629.3752,0.57226,-3.15601,0.42983
20.3373,9629.3952,0.52034,-2.52438,1.16287
20.3517,9629.4152,0.54966,-2.80171,1.33025
20.3746,9629.4352,0.22285,-3.44984,1.43654
20.3947,9629.4552,-0.35809,-4.0607,1.79328
20.4126,9629.4752,-0.77836,-3.32278,2.03824
20.4404,9629.4952,-0.79913,-2.71375,2.3455
20.4574,9629.5152,-0.57067,-2.60379,2.83664
20.474,9629.5352,-0.43445,-2.0308,3.05105
20.527,9629.5552,-0.41856,-1.60197,3.01257
20.5283,9629.5752,-0.50775,-1.80905,3.11092
20.5298,9629.5952,-0.89076,-2.3179,3.49821
20.5497,9629.6152,-1.17359,-2.50972,4.00278
20.5712,9629.6352,-1.27927,-2.17007,3.89038
20.5899,9629.6551,-1.36601,-2.35578,3.75599
20.611,9629.6751,-1.58409,-2.41137,3.71018
20.6323,9629.6951,-2.21573,-2.47551,3.75172
20.652,9629.7151,-2.81804,-2.51766,4.10418
20.6734,9629.7351,-3.09354,-2.3961,4.31921
20.6937,9629.7551,-3.15646,-1.53783,4.04004
20.7148,9629.7751,-2.8889,-0.75653,3.99728
20.7406,9629.7951,-2.47535,-0.24035,4.18787
20.7567,9629.8151,-2.31041,0.25323,4.06753
20.773,9629.8351,-2.08439,-0.02349,3.52631
20.7927,9629.8551,-1.84677,-0.60443,2.75112
20.8145,9629.8751,-1.63663,-0.17255,2.41392
20.8381,9629.8951,-1.34586,1.30514,3.36259
20.8513,9629.9151,-1.45154,2.57146,4.99177
20.8762,9629.9351,-2.58836,2.43096,5.4432
20.8938,9629.9551,-3.51076,2.16524,4.77675
20.9141,9629.9751,-3.38859,2.63805,4.55561
20.9354,9629.9951,-3.30063,3.60871,5.38761
20.9539,9630.0151,-2.8553,4.03448,6.14997
20.9796,9630.0351,-3.13997,4.14016,5.57637
20.9985,9630.0551,-3.58468,4.08946,5.07851
21.0138,9630.075,-3.85529,4.27761,4.72849
21.0333,9630.095,-3.68669,4.12489,4.77247
21.0576,9630.115,-2.63539,3.87566,4.49575
21.0916,9630.135,-1.84005,4.30265,4.36563
21.0943,9630.155,-1.4216,4.61847,4.22391
21.116,9630.1751,-1.29454,5.37961,3.92031
21.1362,9630.1951,-1.25911,5.71803,3.78348
21.1515,9630.2151,-1.0056,4.89031,3.26486
21.1743,9630.2351,-0.52974,4.37474,2.51838
21.1977,9630.2552,-0.10336,5.32158,2.11948
21.2154,9630.2752,0.01149,6.5262,2.12804
21.2432,9630.2952,-0.21637,6.07233,2.06939
21.2548,9630.3153,-0.52485,5.49384,1.57093
21.2712,9630.3353,-0.62565,4.51829,0.82689
21.2938,9630.3553,-0.46743,4.79073,0.42006
21.3137,9630.3753,-0.40573,5.28187,0.21358
21.3359,9630.3954,-0.49065,5.03752,0.13967
21.3621,9630.4154,-0.81807,4.75836,-0.00633
21.3921,9630.4355,-1.08929,4.09557,0.06331
21.4005,9630.4555,-1.00927,3.75776,0.70594
21.4206,9630.4756,-0.7637,3.52563,1.68394
21.4408,9630.4957,-0.51325,2.78771,2.3339
21.4542,9630.5158,-0.3477,2.41386,2.6937
21.477,9630.5359,-0.40696,2.30757,3.2673
21.5032,9630.556,-0.53218,1.84942,4.14022
21.514,9630.5761,-0.22797,1.18602,4.58066
21.5366,9630.5962,-0.00684,1.10661,4.37602
21.5553,9630.6163,-0.19621,0.35219,4.34609
21.5785,9630.6363,-0.22186,-0.07236,4.75415
21.5958,9630.6564,-0.14795,-0.76631,4.89464
21.6146,9630.6765,-0.09664,-1.61113,4.77614
21.6395,9630.6966,-0.10947,-1.22201,4.62464
21.6597,9630.7167,-0.52791,-0.83472,4.33815
21.6809,9630.7368,-0.89321,-0.91475,3.97896
21.698,9630.7569,-1.16443,-0.37108,3.36565
21.7184,9630.777,-1.44237,-0.36863,2.77616
21.7384,9630.797,-1.40267,-1.04853,2.5196
21.7641,9630.8171,-0.96162,-2.32401,2.61612
21.7797,9630.8372,-0.25791,-2.89029,3.048
21.7983,9630.8572,-0.03677,-2.82309,3.68147
21.8168,9630.8773,-0.16444,-2.89578,4.23735
21.835,9630.8973,-0.24324,-2.88967,4.54401
21.8543,9630.9174,-0.38741,-2.54576,4.46582
21.873,9630.9375,-0.58777,-0.81334,4.54095
21.8967,9630.9575,-0.74232,-0.30877,4.4481
21.9166,9630.9776,-1.14916,0.25201,4.30638
21.9362,9630.9977,-1.33058,0.2856,3.97285
21.9623,9631.0177,-1.64823,-0.64963,3.62954
21.9815,9631.0377,-1.63663,-1.37228,3.40169
21.9959,9631.0578,-1.19803,-1.35396,3.46094
22.0248,9631.0778,-0.88954,-1.41505,3.77493
22.0359,9631.0978,-0.83212,-1.84754,4.17138
22.0588,9631.1178,-0.72949,-2.40465,4.41145
22.0887,9631.1378,-0.78569,-2.01064,4.35647
22.1029,9631.1578,-1.19497,-1.4969,4.23796
22.1136,9631.1778,-1.26767,-1.8848,4.20314
22.1361,9631.1978,-0.83212,-2.76078,4.15672
22.1544,9631.2178,-0.52485,-3.37592,4.18543
22.1747,9631.2378,-0.29028,-3.89027,3.84151
22.1958,9631.2578,0.24361,-4.74121,3.19216
22.2147,9631.2778,0.68832,-3.83041,2.81343
22.2332,9631.2978,-0.43994,-2.42725,2.69858
22.2585,9631.3177,-1.49063,-1.94222,2.36749
22.2777,9631.3377,-1.05753,-2.50788,2.0981
22.2952,9631.3577,-0.56517,-3.19205,1.78839
22.3149,9631.3777,-0.61954,-3.32461,1.53855
22.3331,9631.3977,-0.76981,-3.05339,1.26
22.3544,9631.4177,-1.08013,-2.56469,1.16165
22.3751,9631.4377,-1.55355,-2.43214,1.67722
22.3937,9631.4577,-1.94389,-3.28918,1.95638
22.4178,9631.4777,-1.84066,-4.21098,1.54222
22.4383,9631.4977,-1.89686,-3.91226,1.114
22.4619,9631.5177,-1.9891,-3.06255,1.15187
22.477,9631.5377,-2.01964,-2.77605,1.14637
22.4986,9631.5577,-2.05018,-3.11936,0.9906
22.5168,9631.5777,-2.30369,-3.41807,0.99977
22.5369,9631.5977,-2.90784,-3.1328,1.25083
22.5625,9631.6177,-2.95671,-3.35699,0.92524
22.58,9631.6377,-2.66594,-3.76443,0.60759
22.5952,9631.6577,-2.62745,-3.91043,0.50069
22.6187,9631.6777,-2.68182,-3.79131,0.34981
22.6382,9631.6977,-2.7258,-3.38753,0.36202
22.6575,9631.7176,-2.96709,-2.23483,0.67479
22.6805,9631.7376,-3.00008,-1.43765,0.94235
22.6968,9631.7576,-2.91822,-1.21346,0.84827
22.716,9631.7776,-2.84492,-1.48957,0.66379
22.7399,9631.7976,-2.74901,-1.08029,0.63203
22.7584,9631.8176,-2.78872,-0.42056,0.75053
22.7834,9631.8376,-3.21327,0.19642,0.71755
22.8006,9631.8576,-4.35192,-0.53112,0.417
22.8221,9631.8776,-4.54374,-0.53662,0.7316
22.8364,9631.8976,-3.98907,0.21535,1.0633
22.8586,9631.9176,-3.63782,1.0779,1.20929
22.8754,9631.9376,-3.54008,2.17318,1.39255
22.8931,9631.9576,-3.86262,3.09375,1.52572
22.9205,9631.9776,-4.70439,2.22449,1.10361
22.9388,9631.9976,-4.79847,1.10111,1.39378
22.9586,9632.0176,-4.28351,0.66556,1.71143
22.9805,9632.0376,-4.00434,0.89341,1.8672
23.0042,9632.0576,-4.21876,1.35401,1.87514
23.0221,9632.0776,-4.64453,0.9826,1.48052
23.0596,9632.0976,-4.61093,1.43953,1.18975
23.0686,9632.1175,-4.03794,2.10293,1.25877
23.0805,9632.1376,-3.65798,1.68571,1.51534
23.114,9632.1576,-3.91882,2.16524,1.70654
23.1175,9632.1776,-4.37147,2.15668,1.98326
23.1363,9632.1977,-4.59505,1.99175,2.1262
23.1582,9632.2177,-4.79602,2.28802,2.27892
23.1796,9632.2377,-4.97134,2.99662,2.44202
23.1944,9632.2577,-4.78197,3.17255,2.75967
23.2181,9632.2778,-4.08864,3.08459,3.26119
23.2359,9632.2978,-3.35316,3.24036,3.70834
23.2571,9632.3178,-3.22732,4.26906,3.68574
23.2835,9632.3379,-3.51321,4.70216,3.42368
23.2951,9632.3579,-3.29391,4.77668,2.92094
23.3234,9632.3779,-2.69281,4.42422,2.56419
23.3378,9632.3979,-2.47779,4.3558,2.56114
23.3575,9632.418,-2.5627,4.94651,2.56236
23.3761,9632.438,-2.66533,5.71314,2.12376
23.3968,9632.458,-2.65616,6.21772,1.37301
23.4204,9632.4781,-2.71908,6.4303,1.26488
23.4381,9632.4981,-3.00191,6.96725,1.70471
23.4588,9632.5181,-3.5804,8.3307,1.88002
23.4775,9632.5381,-3.33117,7.74182,1.06269
23.501,9632.5582,-1.69161,6.00208,0.11585
23.5174,9632.5782,-0.17361,4.18537,-0.38445
23.5408,9632.5982,-0.05265,3.49387,-0.64957
23.5623,9632.6183,-0.88893,2.75411,-0.52556
23.5856,9632.6383,-1.30982,2.27214,-0.50479
23.6017,9632.6583,-1.15343,2.69791,-0.52679
23.6227,9632.6783,-0.73743,2.61728,-0.49807
23.6385,9632.6984,-0.26585,2.98563,-0.22563
23.6542,9632.7184,-0.20476,2.90866,0.00894
23.6745,9632.7384,-0.45033,2.90377,0.06942
23.6965,9632.7584,-0.35625,3.01984,-0.09185
23.7191,9632.7784,-0.39291,2.95753,0.15433
23.7384,9632.7984,-0.68979,2.52931,0.67967
23.7573,9632.8184,-0.42467,1.11821,1.14882
23.7788,9632.8384,0.46964,0.30821,1.39316
23.7937,9632.8584,0.75124,-1.31792,1.00893
23.8225,9632.8784,0.58875,-2.87685,0.3834
23.8382,9632.8984,0.42565,-3.68685,0.16288
23.8545,9632.9184,0.56676,-4.8365,0.14761
23.8786,9632.9383,1.09944,-6.7088,0.37363
23.8991,9632.9583,1.64616,-7.70024,0.29239
23.9178,9632.9783,1.6315,-6.55426,0.07614
23.9373,9632.9983,1.06645,-5.58115,0.29727
23.9598,9633.0183,0.38045,-4.75403,0.31377
23.98,9633.0383,0.13671,-3.81941,0.09813
23.9964,9633.0583,0.06707,-3.21038,-0.04726
24.0199,9633.0783,0.07013,-3.84812,-0.27328
24.04,9633.0984,0.38167,-4.60865,-0.10895
24.0628,9633.1184,0.74452,-4.59521,0.40051
24.0932,9633.1384,0.7598,-4.05826,0.50619
24.1041,9633.1585,0.29004,-2.44558,0.6363
24.1184,9633.1785,-0.6006,-0.45538,1.46769
24.137,9633.1985,-1.60547,2.25992,2.91239
24.1549,9633.2185,-2.55537,4.20369,4.54401
24.1779,9633.2386,-3.06972,4.35885,5.90013
24.1949,9633.2586,-2.94449,3.17561,6.59285
24.2209,9633.2786,-2.64944,1.22817,7.37842
24.2393,9633.2987,-2.32874,-1.33197,7.95141
24.266,9633.3187,-1.63724,-3.29346,8.17682
24.2758,9633.3387,-0.8199,-3.79986,8.07725
24.3006,9633.3587,-0.21331,-2.91167,7.67836
24.3153,9633.3788,0.11228,-1.54455,7.51098
24.3352,9633.3988,-0.0722,-0.27028,7.74433
24.3587,9633.4188,-0.22553,0.41938,7.55985
24.3764,9633.4389,-0.30739,0.85249,6.91966
24.397,9633.4589,-0.73743,0.71015,6.08889
24.4173,9633.4789,-1.44421,0.73764,5.12189
24.4364,9633.4989,-1.84921,0.82011,4.85921
24.4564,9633.519,-1.63235,0.12311,4.69184
24.4786,9633.539,-1.15588,-1.10717,4.47559
24.5002,9633.559,-1.38617,-2.76323,4.23552
24.5161,9633.5791,-2.31408,-4.66607,4.17382
24.5376,9633.5991,-3.10332,-5.20974,4.08219
24.5564,9633.6191,-3.60056,-3.63798,3.64054
24.5782,9633.6391,-4.06176,-1.89763,3.07671
24.5983,9633.6592,-4.25052,-1.65573,2.57885
24.628,9633.6792,-4.00801,-2.51582,2.02419
24.6361,9633.6992,-3.39531,-3.20916,1.654
24.6572,9633.7192,-2.94999,-3.25558,1.55382
24.6747,9633.7392,-2.82171,-3.57018,1.67966
24.6969,9633.7591,-2.636,-4.02161,1.84276
24.7269,9633.7791,-2.83454,-3.9764,1.83177
24.7366,9633.7991,-3.09782,-3.60805,2.05962
24.7586,9633.8191,-3.13936,-3.31911,1.98937
24.8422,9633.8391,-3.01413,-2.93366,1.5471
24.8434,9633.8591,-3.03368,-2.50972,1.06879
24.8445,9633.8791,-3.18028,-2.40465,0.58499
24.8453,9633.8991,-2.98725,-1.93428,-0.19814
24.8581,9633.9191,-2.75634,-1.02226,-0.86093
24.8737,9633.9391,-2.91883,-0.82678,-0.81328
24.8978,9633.9591,-2.69709,-1.39489,-0.96966
24.9165,9633.9791,-2.3715,-1.98437,-1.34901
24.9352,9633.9991,-2.66777,-2.39915,-0.92507
24.9608,9634.0191,-3.50465,-2.24949,-0.03565
24.9788,9634.0391,-3.68669,-1.99353,-0.03443
24.9975,9634.0591,-3.34461,-1.83349,-0.46631
25.0184,9634.0791,-3.60178,-2.51949,-0.63246
25.0454,9634.0991,-3.81131,-2.29714,-0.43027
25.0708,9634.1191,-3.42891,-1.90557,-0.36246
25.077,9634.1391,-2.68304,-1.58181,0.04865
25.112,9634.1591,-2.18152,-1.13588,0.00467
25.1207,9634.1791,-2.22978,-1.47674,-0.6178
25.1384,9634.1991,-2.5798,-2.34539,-1.28181
25.1582,9634.2191,-2.75573,-3.02773,-1.86519
25.1761,9634.2391,-2.78872,-3.69174,-2.09182
25.1985,9634.2592,-2.91639,-3.96907,-2.15596
25.2194,9634.2792,-3.12286,-3.69357,-2.09488
25.2397,9634.2992,-3.57918,-3.42724,-2.16696
25.267,9634.3193,-4.25296,-2.88357,-2.41069
25.2802,9634.3393,-4.60116,-1.84082,-2.71307
25.3107,9634.3593,-4.4967,-0.41689,-2.90855
25.3265,9634.3793,-4.42889,0.6961,-2.72895
25.3378,9634.3994,-4.42828,0.60753,-2.27569
25.3579,9634.4194,-4.08314,-0.48287,-2.02035
25.379,9634.4394,-3.63477,-1.04853,-1.50356
25.4003,9634.4595,-3.81375,0.07791,-0.88109
25.4228,9634.4795,-4.03611,0.38334,-0.56649
25.4391,9634.4995,-3.81681,-0.0406,0.09996
25.4566,9634.5195,-3.36171,-0.40956,0.50924
25.4769,9634.5396,-3.29574,-0.31915,0.70289
25.5028,9634.5596,-3.08743,-0.19881,0.709
25.5245,9634.5796,-2.88951,0.02293,0.41822
25.5403,9634.5996,-3.06666,0.33203,0.84339
25.5657,9634.6197,-3.32323,0.1842,2.02358
25.5776,9634.6397,-3.17112,-0.29777,3.28562
25.5988,9634.6597,-3.32445,-0.70155,4.16833
25.6189,9634.6798,-3.96097,-0.73149,4.69795
25.6442,9634.6998,-4.83756,0.06447,4.76453
25.6572,9634.7198,-5.52906,1.24344,4.79446
25.6874,9634.7398,-5.70377,2.22632,5.20252
25.7025,9634.7599,-5.73676,2.51404,5.9325
25.7185,9634.7799,-5.84549,2.50793,6.05956
25.7425,9634.7999,-5.60175,2.83169,4.70894
25.7592,9634.8199,-5.61519,4.21163,3.41146
25.7763,9634.8399,-5.71599,5.44803,3.9985
25.7983,9634.8599,-5.9475,6.54209,4.20314
25.8219,9634.8799,-5.81861,7.13157,4.12434
25.842,9634.8999,-5.71232,6.23787,4.29477
25.8711,9634.9199,-5.13933,4.50913,4.18421
25.8818,9634.9399,-4.12835,3.68873,3.10725
25.9073,9634.9599,-2.377,2.7706,1.77862
25.9207,9634.9799,-0.97201,1.86164,1.75235
25.9439,9634.9998,-0.724,1.46702,2.56358
25.9581,9635.0198,-0.9378,1.20801,2.8794
25.9773,9635.0398,-0.80707,0.3528,1.78595
25.9993,9635.0598,-0.19254,-0.54884,0.76519
26.0149,9635.0798,-0.31411,-0.42972,0.80857
26.039,9635.0998,-0.4766,0.19397,1.49701
26.057,9635.1198,-0.11008,-0.0461,1.67599
26.081,9635.1398,0.3945,-0.78647,1.35773
26.098,9635.1598,0.52522,-1.13955,1.11094
26.117,9635.1798,0.3383,-0.64474,1.35285
26.1376,9635.1998,0.05302,-0.14994,1.86231
26.1579,9635.2198,0.1471,-0.64413,1.93622
26.1795,9635.2398,0.54721,-1.32464,1.92278
26.1972,9635.2598,0.659,-1.34357,2.15614
26.2242,9635.2798,0.30898,-0.56533,2.53487
26.2384,9635.2998,-0.33915,-0.10169,2.57702
26.2627,9635.3198,-0.55845,-0.59038,2.33939
26.2775,9635.3398,-0.06182,-1.26172,2.00586
26.2968,9635.3598,0.35662,-1.42543,2.06267
26.3201,9635.3797,0.25828,-0.95079,2.47256
26.3373,9635.3997,-0.14367,-0.62581,2.57519
26.3562,9635.4197,-0.26585,-0.67468,2.29847
26.3801,9635.4397,-0.4039,-0.66796,2.39743
26.4023,9635.4597,-0.69345,-0.34909,2.63322
26.4305,9635.4797,-0.8816,-0.43522,2.62039
26.4432,9635.4997,-0.65985,-0.56533,2.32046
26.4621,9635.5197,-0.3025,-0.71927,2.00953
26.477,9635.5397,-0.15895,-0.55678,1.94111
26.4973,9635.5597,-0.26524,-0.2147,2.07367
26.5185,9635.5797,-0.43506,0.33325,2.52876
26.5359,9635.5997,-0.70506,0.89708,2.96431
26.5565,9635.6197,-0.89015,0.81339,3.33266
26.5781,9635.6397,-0.54135,0.27766,3.77615
26.5982,9635.6597,-0.36359,-0.36191,4.41267
26.6159,9635.6797,-0.702,-0.97217,4.73032
26.6381,9635.6997,-1.29454,-1.30814,4.69428
26.6623,9635.7197,-1.76552,-1.62213,4.2569
26.6799,9635.7397,-1.37579,-2.18535,3.41146
26.7023,9635.7597,-0.40024,-2.69786,2.60512
26.731,9635.7797,0.64495,-2.73574,1.86414
26.7618,9635.7997,1.36944,-2.3118,0.96006
26.7713,9635.8196,1.44763,-1.65267,-0.41561
26.7794,9635.8396,0.71093,-1.00454,-1.81388
26.796,9635.8596,0.22956,-1.02654,-3.07776
26.8177,9635.8796,0.30287,-1.31242,-4.14372
26.8368,9635.8996,0.48002,-1.16459,-5.11622
26.8603,9635.9196,0.31142,-0.76508,-6.10337
26.8834,9635.9396,-0.19865,-1.10412,-7.21759
26.9004,9635.9596,-1.03493,-1.59525,-8.64702
26.9202,9635.9796,-1.89441,-2.01858,-9.16747
26.9479,9635.9996,-3.71968,-3.60683,-9.18763
26.9699,9636.0196,-4.42584,-3.9367,-8.55661
26.991,9636.0396,-3.79482,-2.77789,-8.27011
27.0021,9636.0596,-3.33117,-1.4853,-8.67389
27.0261,9636.0796,-3.3385,-0.9569,-8.86082
27.0419,9636.0996,-3.69158,-1.88175,-7.92681
27.0633,9636.1196,-3.79787,-2.90556,-6.82481
27.0783,9636.1396,-3.55963,-3.73572,-6.62933
27.0959,9636.1596,-3.21327,-3.89394,-6.32451
27.118,9636.1796,-2.70748,-3.44617,-6.07589
27.1394,9636.1996,-1.91274,-3.1102,-5.52122
27.155,9636.2196,-1.38312,-3.40341,-4.53162
27.1769,9636.2395,-0.72949,-3.56407,-3.68679
27.1952,9636.2595,0.50568,-3.97274,-3.61899
27.2151,9636.2795,2.13302,-4.59216,-4.54811
27.2382,9636.2995,3.22769,-4.76992,-5.94821
27.2583,9636.3195,3.8019,-3.69602,-7.70201
27.2784,9636.3395,4.05603,-2.52315,-7.92558
27.2977,9636.3595,4.17514,-1.39183,-7.00257
27.3165,9636.3795,4.83915,-0.38818,-6.05145
27.3365,9636.3995,5.81287,0.61852,-5.04169
27.3634,9636.4195,6.26308,0.94412,-4.6037
27.3912,9636.4395,6.30095,1.23183,-4.57804
27.3978,9636.4595,6.54591,0.45848,-4.20419
27.4221,9636.4795,6.75727,-0.20614,-4.19198
27.438,9636.4995,6.76094,-0.11879,-5.06612
27.458,9636.5195,6.4891,-0.98011,-5.83643
27.4799,9636.5395,5.65832,-0.91414,-6.35933
27.5,9636.5595,4.65773,1.02047,-6.8584
27.5199,9636.5795,4.60153,1.43159,-6.56091
27.5428,9636.5995,4.78357,1.376,-6.0484
27.5591,9636.6195,4.91307,1.50367,-6.04229
27.5782,9636.6395,5.17269,0.92946,-5.31658
27.5975,9636.6594,4.84038,1.15853,-4.2665
27.6169,9636.6794,4.16965,0.59165,-3.56523
27.6379,9636.6994,3.21242,-2.01492,-3.74971
27.6584,9636.7194,2.47083,-1.83349,-3.46993
27.6772,9636.7394,1.35722,0.70588,-2.71063
27.7043,9636.7594,0.48552,2.58551,-2.1578
27.7168,9636.7794,0.44092,1.98625,-2.41986
27.7431,9636.7994,0.97604,0.99421,-2.99529
27.7545,9636.8194,0.89113,1.69976,-2.42902
27.7768,9636.8394,0.16054,3.29228,-1.63551
27.7979,9636.8594,-0.724,3.82618,-1.43697
27.8247,9636.8794,-1.24506,3.27823,-2.48461
27.8459,9636.8994,-1.79423,3.75043,-2.78882
27.8609,9636.9194,-2.92433,5.0418,-2.63488
27.877,9636.9394,-3.94448,6.34172,-2.71918
27.8977,9636.9594,-4.29756,6.11814,-3.38075
27.9166,9636.9794,-4.12102,6.08271,-4.06553
27.9347,9636.9994,-4.6824,6.21588,-4.27505
27.9642,9637.0194,-4.9915,6.26231,-4.25184
27.9783,9637.0393,-5.27494,5.56104,-4.37218
27.9966,9637.0593,-5.59259,4.76752,-4.18404
28.0202,9637.0793,-5.86687,4.87809,-4.06919
28.0489,9637.0993,-6.60968,4.98377,-4.15471
28.0629,9637.1193,-7.00308,4.42299,-4.29338
28.0855,9637.1393,-6.80516,3.89398,-4.34469
28.0987,9637.1593,-6.21751,3.59344,-4.38684
28.1185,9637.1793,-5.58282,3.28129,-4.39173
28.136,9637.1993,-5.26578,3.48898,-3.97268
28.155,9637.2193,-5.16193,4.12672,-3.6367
28.1761,9637.2393,-5.10756,4.52073,-3.49437
28.1963,9637.2593,-5.11734,4.45415,-3.40701
28.2244,9637.2793,-5.00127,3.98928,-3.55545
28.2386,9637.2993,-4.26762,3.20676,-3.60249
28.2599,9637.3193,-3.70135,2.48777,-3.28362
28.28,9637.3393,-3.41974,2.13897,-2.3942
28.2969,9637.3593,-3.06972,1.82193,-1.7589
28.3196,9637.3793,-2.31774,0.82133,-1.641
28.3373,9637.3993,-1.24506,0.16893,-2.02524
28.3569,9637.4193,-0.36359,0.72298,-2.55669
28.3805,9637.4392,-0.16322,1.59102,-2.55669
28.4016,9637.4592,-0.713,1.66555,-1.93178
28.419,9637.4792,-1.52117,1.06446,-1.14009
28.4363,9637.4992,-1.67633,0.62341,-1.03686
28.4923,9637.5193,-1.5114,0.49269,-1.11444
28.4953,9637.5393,-1.23407,0.22024,-0.96905
28.4967,9637.5593,-0.7863,0.03515,-0.41622
28.515,9637.5793,-0.3587,-0.08336,-0.01855
28.5355,9637.5994,-0.25791,-0.04549,-0.05031
28.5568,9637.6194,-0.37764,0.59776,-0.07536
28.5799,9637.6394,-0.48454,0.75658,-0.10773
28.5974,9637.6595,-0.33976,0.64968,-0.1902
28.6191,9637.6795,-0.10947,0.50979,-0.70821
28.6368,9637.6995,0.02676,0.36868,-1.00998
28.6563,9637.7195,0.16665,0.17626,-1.06801
28.6806,9637.7396,0.43543,-0.07359,-0.61719
28.6994,9637.7596,0.66206,-0.04854,-0.36796
28.7186,9637.7796,0.81783,-0.37474,-0.27694
28.7428,9637.7997,0.80011,-0.57266,-0.4266
28.7671,9637.8197,0.55027,-0.16522,-0.46631
28.784,9637.8397,0.00232,0.10479,-0.25067
28.8017,9637.8597,-0.51264,0.25873,-0.06741
28.8191,9637.8798,-0.70262,0.17198,0.12806
28.8395,9637.8998,-0.67207,-0.24951,0.24596
28.8656,9637.9198,-0.65375,-0.83595,0.0401
28.8822,9637.9399,-0.77286,-0.60931,0.00589
28.8975,9637.9599,-0.9775,-0.08336,-0.07169
28.9185,9637.9799,-0.95674,0.34669,0.15494
28.9368,9637.9999,-0.45277,0.67717,0.26795
28.9564,9638.02,0.58142,0.45298,0.23008
28.9803,9638.04,1.78361,0.13289,-0.17859
28.9992,9638.06,3.0536,0.82439,-0.54755
29.0269,9638.0801,3.55573,2.23487,-0.49197
29.0529,9638.1001,3.31566,2.85979,-0.45226
29.067,9638.1201,2.40058,2.50732,-0.2745
29.0767,9638.1401,1.36761,1.8372,0.00039
29.1019,9638.1601,0.70848,1.29842,0.3272
29.118,9638.1801,0.49651,0.78529,0.7768
29.1379,9638.2001,0.47574,0.14083,1.01076
29.1591,9638.2201,0.58448,-0.68079,0.91791
29.176,9638.2401,0.79034,-1.34296,0.60148
29.1956,9638.26,0.7433,-1.49385,0.27956
29.2177,9638.28,0.40855,-1.09617,0.13539
29.2363,9638.3,-0.1113,-0.6704,0.10729
29.2571,9638.32,-0.73377,-0.64108,0.29849
29.286,9638.34,-1.24812,-0.87504,0.07797
29.2971,9638.36,-1.65434,-0.21592,-0.67645
29.3217,9638.38,-2.24383,0.80056,-0.85299
29.339,9638.4,-2.73985,1.31247,-0.06558
29.3565,9638.42,-3.19128,-0.39612,1.06391
29.3761,9638.44,-2.54804,-0.37963,1.36995
29.4002,9638.46,-1.5114,-0.10169,0.84094
29.4167,9638.48,-0.66352,0.05347,-0.35025
29.4359,9638.5,-0.28784,-0.277,-0.71676
29.4639,9638.52,0.01637,-0.3723,-1.24455
29.4814,9638.54,0.45742,-0.46943,-0.73509
29.5012,9638.56,0.2711,0.00522,-0.17859
29.5181,9638.58,0.27049,-0.13284,0.66013
29.5386,9638.6,0.77018,-0.31793,1.03336
29.5559,9638.62,1.17885,-0.42361,1.00221
29.5879,9638.64,0.98276,-0.44438,0.51535
29.6014,9638.66,0.41282,-0.32343,0.06514
29.6206,9638.6799,-0.14428,-0.35153,-0.30382
29.6429,9638.6999,-0.31288,-0.32465,-0.258
29.6568,9638.7199,-0.31594,-0.12612,-0.10895
29.6768,9638.7399,-0.21087,-0.22569,0.04498
29.6984,9638.7599,0.0292,-0.45721,-0.00816
29.7164,9638.7799,0.20452,-0.60748,-0.20791
29.7357,9638.7999,-0.05388,-0.35581,-0.33375
29.7596,9638.8199,-0.44422,-0.13101,-0.34719
29.7785,9638.8399,-0.52119,0.03271,-0.13156
29.7949,9638.8599,-0.26401,-0.15911,0.09996
29.8202,9638.8799,0.28699,-0.24341,-0.06008
29.8416,9638.8999,0.31325,0.17198,-0.21524
29.8555,9638.9199,-0.01845,0.43404,-0.17248
29.8784,9638.9399,-0.23653,0.48108,-0.10956
29.905,9638.9599,-0.09542,0.398,-0.03504
29.9209,9638.9799,0.1807,0.16038,0.13967
29.9387,9638.9999,0.37312,-0.19454,0.26184
29.9678,9639.0199,0.50384,-0.28067,0.23374
29.9758,9639.0399,0.55882,-0.36741,0.17876
30.0029,9639.0599,0.48246,-0.28922,0.17143
30.0263,9639.0798,0.39633,-0.07359,0.30155
30.0628,9639.0998,0.30348,0.04492,0.36569
30.0679,9639.1198,0.30714,0.19764,0.4054
30.0772,9639.1398,0.25461,0.25567,0.48175
30.097,9639.1598,-0.0667,0.16893,0.42555
30.1222,9639.1798,-0.48209,0.13472,0.25573
30.1405,9639.1998,-0.6287,-0.08886,0.11096
30.1579,9639.2198,-0.45766,-0.28372,-0.09918
30.1763,9639.2398,-0.01906,-0.09313,-0.08391
30.2022,9639.2598,-0.01845,-0.01922,0.012
30.219,9639.2798,-0.20659,0.06508,0.14456
30.2387,9639.2998,-0.20781,-0.10596,0.17082
30.262,9639.3198,-0.06487,-0.19454,0.06209
30.2772,9639.3398,0.12755,-0.06503,-0.08391
30.2987,9639.3598,0.12633,0.17137,-0.11689
30.3189,9639.3798,0.0402,0.1616,-0.07413
30.3493,9639.3998,-0.01173,0.01255,-0.03015
30.3671,9639.4198,-0.04655,-0.10963,-0.0387
30.3781,9639.4398,0.03653,-0.06015,-0.10162
30.3965,9639.4598,0.15565,0.10418,-0.12667
30.4192,9639.4798,0.25461,0.22696,-0.16393
30.4362,9639.4997,0.20147,0.27155,-0.10712
30.4566,9639.5197,0.08601,0.21963,-0.03626
30.4818,9639.5397,0.04508,0.00644,-0.05031
30.5,9639.5597,0.13855,-0.22813,-0.06925
30.5176,9639.5797,0.23628,-0.26479,-0.07719
30.5381,9639.5997,0.26438,-0.14811,-0.06008
30.5603,9639.6197,0.35418,-0.07603,0.00528
30.5763,9639.6398,0.42321,-0.12612,0.06698
30.6027,9639.6598,0.47391,-0.25868,0.08103
30.6214,9639.6798,0.46902,-0.29289,0.08286
30.6391,9639.6999,0.42871,-0.32404,0.10118
30.6617,9639.7199,0.4171,-0.28372,0.03827
30.678,9639.7399,0.25705,-0.15239,-0.07536
30.6981,9639.7599,0.1245,-0.00211,-0.13583
30.7196,9639.78,0.10617,0.01866,-0.14561
30.7384,9639.8,0.19597,0.00094,-0.1004
30.7573,9639.82,0.31692,-0.01494,-0.00388
30.7791,9639.8401,0.39572,-0.09497,0.03277
30.7973,9639.8601,0.40183,-0.06748,0.00894
30.8256,9639.8801,0.33036,-0.05892,-0.0161
30.844,9639.9001,0.17886,-0.10352,0.00161
30.8629,9639.9202,0.15626,-0.12001,0.01383
30.8794,9639.9402,0.30165,-0.08947,0.03521
30.8997,9639.9602,0.37006,-0.11024,0.02238
30.9226,9639.9803,0.29065,-0.10718,-0.00755
30.9417,9640.0003,0.19841,-0.10535,-0.04359
30.9607,9640.0203,0.10434,-0.09069,-0.05459
30.9776,9640.0403,0.04692,-0.01922,-0.00816
30.9993,9640.0604,0.11045,0.0382,0.00467
31.0184,9640.0804,0.18314,0.05042,0.06453
31.0361,9640.1004,0.23201,-0.05404,0.13661
31.0569,9640.1205,0.30226,-0.21042,0.19098
31.0777,9640.1405,0.24178,-0.18293,0.0963
31.1114,9640.1605,0.15565,0.05958,0.09874
31.1159,9640.1805,0.10067,0.16038,0.15494
31.1381,9640.2006,0.11045,0.21169,0.2203
31.1562,9640.2206,0.07257,0.1842,0.16655
31.1792,9640.2406,-0.02517,0.1506,0.06881
31.1986,9640.2606,-0.12779,0.03026,-0.05214
31.2169,9640.2806,-0.1229,-0.05709,-0.12422
31.241,9640.3006,-0.04227,-0.08275,-0.14499
31.2689,9640.3205,-0.00623,-0.06015,-0.17065
31.2873,9640.3405,0.04997,-0.00273,-0.19203
31.3065,9640.3605,0.13366,0.00033,-0.16515
31.3208,9640.3805,0.20941,-0.00395,-0.14072
31.3373,9640.4005,0.32853,0.03209,-0.09613
31.3597,9640.4205,0.40855,0.07363,-0.05336
31.3831,9640.4405,0.36518,0.1671,-0.00999
31.4,9640.4605,0.25217,0.23307,-0.02649
31.4185,9640.4805,0.21613,0.25811,-0.04237
31.4446,9640.5005,0.16542,0.19825,-0.00755
31.461,9640.5205,0.12999,0.12556,0.05415
31.4776,9640.5405,0.16481,0.08463,0.11829
31.5016,9640.5605,0.12022,0.03759,0.17876
31.5176,9640.5805,0.07257,0.00766,0.24657
31.538,9640.6005,0.03042,-0.02166,0.31865
31.5632,9640.6205,0.05058,-0.06442,0.34858
31.5867,9640.6405,0.15137,-0.08825,0.35408
31.6076,9640.6605,0.23812,-0.15055,0.33392
31.6224,9640.6805,0.1978,-0.09619,0.25634
31.6396,9640.7005,0.19047,-0.09069,0.22091
31.6593,9640.7204,0.15932,-0.12062,0.18121
31.6809,9640.7404,0.06952,-0.0968,0.1018
31.6997,9640.7604,0.01026,-0.09558,0.07247
31.7157,9640.7804,0.01393,-0.06137,0.04743
31.7398,9640.8004,0.0402,0.06814,-0.0045
31.7566,9640.8204,0.08235,0.15243,-0.00999
31.776,9640.8404,0.0402,0.11456,0.00894
31.7983,9640.8604,-0.01661,0.12922,0.03521
31.8192,9640.8804,-0.01417,0.08829,0.04437
31.8424,9640.9004,-0.02761,0.01621,0.07492
31.8619,9640.9204,-0.07404,-0.06015,0.05903
31.8816,9640.9404,-0.05327,-0.12062,0.07247
31.8994,9640.9604,-0.07526,-0.23119,0.06087
31.9182,9640.9804,-0.00501,-0.20859,0.0517
31.9394,9641.0004,0.1306,-0.04793,0.00833
31.9581,9641.0204,0.13794,0.12739,-0.04848
31.9806,9641.0404,0.02676,0.19214,-0.09307
31.9986,9641.0604,-0.07953,0.21535,-0.12667
32.0223,9641.0804,-0.14184,0.20802,-0.09857
32.0545,9641.1004,-0.23958,0.15366,-0.17248
32.0673,9641.1204,-0.27501,0.14266,-0.30199
32.0796,9641.1403,-0.2518,0.09562,-0.38262
32.0975,9641.1603,-0.25546,0.04065,-0.34597
32.1218,9641.1803,-0.25302,-0.00028,-0.32092
32.1362,9641.2003,-0.17544,0.06814,-0.30626
32.1608,9641.2203,-0.12901,0.18909,-0.31543
32.1802,9641.2403,-0.10397,0.34669,-0.31604
32.196,9641.2603,-0.12107,0.3809,-0.25984
32.2204,9641.2803,-0.02944,0.22513,-0.13033
32.2404,9641.3003,0.11228,0.06814,0.01383
32.2607,9641.3203,0.12999,0.01071,0.15189
32.2779,9641.3403,0.03226,0.00094,0.21603
32.2968,9641.3603,0.0237,-0.06931,0.27406
32.3157,9641.3803,0.07624,-0.30877,0.3327
32.3415,9641.4003,0.22773,-0.56106,0.37424
32.3655,9641.4203,0.44276,-0.70644,0.44938
32.3787,9641.4403,0.52339,-0.64413,0.49031
32.3982,9641.4603,0.56493,-0.46454,0.39012
32.4199,9641.4803,0.45497,-0.18476,0.23802
32.4453,9641.5003,0.17947,0.0266,0.09935
32.4651,9641.5203,-0.11008,0.12311,-0.09124
32.4801,9641.5402,-0.2799,0.17198,-0.25434
32.5004,9641.5602,-0.32999,-0.018,-0.34902
32.5227,9641.5802,-0.2689,-0.21714,-0.38079
32.5359,9641.6002,-0.19926,-0.31732,-0.37773
32.5574,9641.6202,-0.10885,-0.27578,-0.31481
32.5783,9641.6402,-0.07953,-0.16155,-0.23601
32.5975,9641.6602,-0.11435,0.01132,-0.18714
32.6233,9641.6802,-0.09847,0.09746,-0.16515
32.6383,9641.7002,-0.00806,0.01377,-0.13522
32.6559,9641.7202,0.04142,-0.12184,-0.12972
32.6777,9641.7402,0.05241,-0.13284,-0.08513
32.6994,9641.7602,0.04753,-0.16399,-0.06131
32.7232,9641.7802,0.0292,-0.12123,-0.01793
32.7384,9641.8002,0.04508,-0.277,0.12379
32.8004,9641.8202,0.17642,-0.3613,0.15372
32.802,9641.8402,0.25889,-0.41811,0.16655
32.8032,9641.8602,0.16298,-0.43033,0.09874
32.8168,9641.8802,-0.01295,-0.29655,-0.05581
32.835,9641.9002,-0.14001,-0.2208,-0.17248
32.8548,9641.9202,-0.28356,-0.08641,-0.31909
32.8772,9641.9402,-0.26829,-0.0125,-0.39423
32.8965,9641.9601,-0.14612,-0.08458,-0.41378
32.9171,9641.9801,-0.027,-0.17804,-0.39056
32.9407,9642.0001,0.00538,-0.23363,-0.35086
32.9584,9642.0201,0.01088,-0.20981,-0.31726
32.9782,9642.0401,0.08112,-0.04182,-0.30504
33,9642.0601,0.05364,0.04431,-0.25495
33.0173,9642.0801,-0.00806,0.0773,-0.20791
33.0389,9642.1001,-0.00684,-0.08153,-0.13033
33.0582,9642.1201,0.07318,-0.2263,-0.07963
33.0855,9642.1401,0.14282,-0.2825,0.00467
33.1006,9642.1601,0.12389,-0.27334,0.07186
33.1188,9642.1802,0.05608,-0.25562,0.09141
33.1366,9642.2002,0.04936,-0.29166,0.09874
33.1645,9642.2202,0.07318,-0.2489,0.001
33.1788,9642.2402,0.0573,-0.14506,-0.07474
33.2,9642.2603,0.01088,-0.08886,-0.13461
33.2191,9642.2803,-0.00195,-0.05037,-0.16393
33.2455,9642.3003,-0.03127,-0.09069,-0.17615
33.2647,9642.3204,-0.06793,-0.12062,-0.16515
33.2789,9642.3404,-0.05265,-0.07603,-0.16637
33.3,9642.3604,-0.01295,-0.05159,-0.14988
33.3183,9642.3804,-0.0496,-0.07786,-0.14988
33.3379,9642.4005,-0.16261,-0.05954,-0.13705
33.3661,9642.4205,-0.20109,-0.04793,-0.11018
33.3842,9642.4405,-0.13451,-0.03816,-0.07963
33.4099,9642.4606,-0.01051,-0.03266,0.01872
33.4267,9642.4806,0.05547,0.00338,0.09141
33.4413,9642.5006,0.07013,-0.0015,0.11462
33.4635,9642.5206,0.00782,-0.02899,0.11096
33.479,9642.5407,-0.00928,-0.06687,0.08713
33.4975,9642.5607,0.0292,-0.02472,0.0853
33.5186,9642.5807,0.06402,0.10601,0.0737
33.5406,9642.6008,0.05486,0.14633,0.06881
33.5564,9642.6208,0.02248,0.0492,0.0798
33.5774,9642.6408,0.01698,-0.11085,0.12012
33.6006,9642.6608,0.02309,-0.18354,0.13539
33.6171,9642.6809,-0.00012,-0.08092,0.12684
33.6439,9642.7009,0.02676,0.01682,0.08958
33.662,9642.7209,0.05302,0.07669,0.04376
33.6831,9642.741,0.07257,0.0382,0.07492
33.7001,9642.761,0.09395,-0.01372,0.08103
33.7244,9642.7809,0.11228,-0.02777,0.05109
33.7385,9642.8009,0.14221,-0.04365,0.03704
33.7576,9642.8209,0.10434,-0.05954,0.01017
33.7881,9642.8409,0.09029,-0.05526,-0.00572
33.8078,9642.8609,0.07196,-0.01494,-0.08085
33.823,9642.8809,-0.02272,0.09257,-0.12422
33.8442,9642.9009,-0.07037,0.0718,-0.15355
33.8592,9642.9209,-0.09542,0.00583,-0.14499
33.8781,9642.9409,-0.09786,-0.05648,-0.123
33.8985,9642.9609,-0.09603,-0.01494,-0.11812
33.9169,9642.9809,-0.04105,0.0492,-0.1114
33.9379,9643.0009,0.02248,0.08341,-0.07291
33.9605,9643.0209,0.00354,0.10601,-0.05275
33.9768,9643.0409,-0.01967,0.09135,-0.03076
33.9999,9643.0609,-0.05265,0.03698,-0.03137
34.0206,9643.0809,-0.0722,-0.04854,-0.03443
34.046,9643.1009,-0.07709,-0.02044,-0.03198
34.0625,9643.1209,-0.05021,0.0547,0.001
34.08,9643.1409,0.01088,0.06875,0.02666
34.0975,9643.1609,0.05974,0.02721,0.05903
34.1171,9643.1808,0.0518,-0.01006,0.10729
34.14,9643.2008,0.02554,-0.02349,0.09813
34.1573,9643.2208,0.01149,0.05286,-0.00633
34.1766,9643.2408,-0.05021,0.15915,-0.06008
34.1989,9643.2608,-0.0948,0.15182,-0.07108
34.2193,9643.2808,-0.08381,0.05042,-0.01427
34.2392,9643.3008,-0.02272,-0.04304,0.05781
34.2656,9643.3208,0.0237,-0.0351,0.10851
34.2768,9643.3408,0.01698,0.09074,0.13784
34.2993,9643.3608,0.05241,0.14755,0.16777
34.3193,9643.3808,0.06524,0.08341,0.20747
34.3386,9643.4008,0.04447,-0.00944,0.25329
34.3582,9643.4208,0.04631,-0.09863,0.23313
34.3823,9643.4408,0.08296,-0.0406,0.16838
34.4,9643.4608,0.08479,0.04981,0.12012
34.4203,9643.4808,0.07624,0.03576,0.11523
34.4434,9643.5008,0.06524,-0.0577,0.12806
34.463,9643.5208,0.07074,-0.08641,0.12379
34.4802,9643.5409,0.0573,-0.09069,0.08286
34.5037,9643.5609,0.0402,-0.06259,-0.01916
34.5243,9643.5809,0.01698,0.04187,-0.11384
34.5418,9643.6009,-0.03433,0.13105,-0.14255
34.5653,9643.621,-0.0948,0.08096,-0.16515
34.5798,9643.641,-0.13879,0.0492,-0.18531
34.6023,9643.661,-0.12474,-0.007,-0.14377
34.6203,9643.6811,-0.10213,-0.018,-0.11506
34.6392,9643.7011,-0.07953,0.05347,-0.05275
34.6589,9643.7211,-0.03005,0.00888,0.04682
34.6846,9643.7411,0.05669,-0.05282,0.0853
34.701,9643.7612,0.12022,-0.10352,0.11707
34.7251,9643.7812,0.10067,-0.08886,0.09324
34.7403,9643.8012,0.00538,0.00155,0.03949
34.761,9643.8213,-0.00562,0.03148,-0.02893
34.7855,9643.8413,0.00354,0.04126,-0.06986
34.8022,9643.8613,-0.02028,-0.03205,-0.07047
34.8191,9643.8813,-0.03189,-0.07969,-0.04542
34.8476,9643.9014,0.0237,-0.0296,-0.08941
34.8699,9643.9214,0.05547,0.09562,-0.13217
34.8854,9643.9414,0.07196,0.17076,-0.0949
34.8994,9643.9615,0.03287,0.11945,-0.01732
34.92,9643.9815,-0.04777,0.06325,0.02849
34.938,9644.0015,-0.04716,-0.00517,0.04376
34.9613,9644.0215,0.03775,-0.03082,0.0682
34.9913,9644.0416,0.07746,-0.02838,0.11096
35.0057,9644.0616,0.04814,-0.018,0.12562
35.0363,9644.0816,-0.00867,0.00338,0.11401
35.0556,9644.1016,-0.04471,-0.0125,0.07553
35.0727,9644.1216,-0.0667,-0.02716,0.0456
35.0793,9644.1416,-0.04838,-0.02227,0.01627
35.1227,9644.1616,-0.01478,-0.00639,0.00894
35.1253,9644.1816,-0.01234,0.0211,-0.01427
35.1392,9644.2016,-0.09053,0.07913,-0.03626
35.1606,9644.2216,-0.12779,0.06019,-0.05092
35.1777,9644.2416,-0.06182,-0.00456,-0.04542
35.1979,9644.2616,0.04936,-0.03388,0.01811
35.2247,9644.2816,0.03164,-0.02472,0.05537
35.2393,9644.3016,-0.01539,0.02721,0.07858
35.2605,9644.3216,-0.04044,0.01927,0.0682
35.2859,9644.3416,-0.01051,0.00461,0.04621
35.2986,9644.3616,0.06097,0.03393,0.03582
35.3184,9644.3816,0.05669,0.05836,0.04498
35.3399,9644.4016,0.00965,0.06386,0.05598
35.3596,9644.4215,-0.02028,0.05225,0.07125
35.3823,9644.4415,-0.00684,-0.01494,0.07492
35.4004,9644.4615,0.00599,-0.03144,0.0627
35.42,9644.4815,0.03531,0.01988,0.03949
35.4384,9644.5015,0.0011,0.0889,0.01383
35.4664,9644.5215,-0.04655,0.09013,0.00039
35.4803,9644.5415,-0.08198,0.06264,-0.0387
35.4991,9644.5615,-0.02639,-0.14261,-0.11384
35.5224,9644.5815,0.13488,-0.56167,-0.1621
35.5423,9644.6015,-0.03433,-0.37535,-0.17248
35.5687,9644.6215,-0.48331,0.52934,-0.28672
35.5837,9644.6415,-0.78203,0.70649,-0.66056
35.6057,9644.6615,-0.90787,0.30515,-0.93301
35.618,9644.6815,-0.91703,-0.69484,-1.02281
35.6396,9644.7015,-0.62442,-1.3619,-0.86643
35.6587,9644.7215,-0.40085,-1.2495,-0.63796
35.6783,9644.7415,-0.39718,-0.64536,-0.46142
35.7053,9644.7615,-0.50714,-0.10291,-0.44187
35.7222,9644.7815,-0.45399,-0.06626,-0.37285
35.7445,9644.8015,-0.21209,-0.20248,-0.32459
35.7634,9644.8215,0.0011,-0.2208,-0.19814
35.7845,9644.8415,0.03775,-0.1927,0.00833
35.8027,9644.8616,-0.01051,-0.01128,0.12012
35.8225,9644.8816,-0.12168,0.12372,0.12134
35.8395,9644.9016,-0.12352,0.12617,0.04437
35.869,9644.9217,0.00232,0.20436,-0.09185
35.8823,9644.9417,0.08479,0.27033,-0.08879
35.9054,9644.9617,0.04508,0.1616,0.0236
35.9253,9644.9817,0.02737,0.11639,0.05232
35.945,9645.0018,0.02126,0.25506,0.01444
35.9625,9645.0218,-0.00195,0.3699,0.00528
35.9781,9645.0418,-0.04166,0.40778,0.00833
36.004,9645.0619,-0.08198,0.24406,0.03704
36.0245,9645.0819,0.0066,0.0492,0.03032
36.0497,9645.1019,0.08235,-0.05159,0.0456
36.0669,9645.1219,0.02981,-0.0406,0.11218
36.0873,9645.142,-0.16628,0.0437,0.16777
36.1084,9645.162,-0.30861,0.0663,0.17449
36.1227,9645.182,-0.27318,0.09257,0.13539
36.1384,9645.2021,-0.15772,0.11395,0.10607
36.16,9645.2221,-0.08564,0.12861,0.13723
36.18,9645.2421,-0.05082,0.08646,0.20931
36.197,9645.2621,-0.01173,-0.00578,0.2649
36.2229,9645.2822,-0.04349,-0.04732,0.23496
36.2464,9645.3022,-0.07281,-0.0351,0.12134
36.2659,9645.3222,0.01943,-0.03266,0.10913
36.2828,9645.3423,0.09884,0.04981,0.14333
36.2996,9645.3623,0.15076,0.12311,0.15066
36.32,9645.3823,0.12266,0.1952,0.1189
36.347,9645.4023,0.0402,0.18237,0.11768
36.3607,9645.4223,0.0237,0.13594,0.13845
36.3801,9645.4423,0.01759,0.11273,0.13356
36.3975,9645.4623,0.01088,0.2178,0.10302
36.4196,9645.4823,-0.01967,0.17381,0.09202
36.4415,9645.5023,-0.01173,0.12372,0.11951
36.4587,9645.5223,0.03592,0.02721,0.19831
36.4835,9645.5423,0.10373,-0.00456,0.23741
36.5029,9645.5623,0.11411,0.02843,0.21603
36.53,9645.5823,0.06219,0.11151,0.17876
36.5429,9645.6023,0.03287,0.14327,0.13112
36.5594,9645.6223,0.08296,0.2178,0.0853
36.5926,9645.6422,0.08662,0.17992,0.07431
36.6027,9645.6622,0.05486,0.0999,0.07614
36.6189,9645.6822,0.05913,0.14144,0.03277
36.6983,9645.7022,0.04875,0.17687,-0.00205
36.7013,9645.7222,0.05669,0.20253,-0.02343
36.7034,9645.7422,0.02798,0.1897,0.00039
36.7052,9645.7622,0.0628,0.16465,0.00833
36.7197,9645.7822,0.14343,0.08219,0.02605
36.7371,9645.8022,0.16115,0.01194,0.0401
36.7571,9645.8222,0.03836,0.09135,0.04804
36.7797,9645.8422,-0.05327,0.13044,0.09324
36.8005,9645.8622,-0.05327,0.07363,0.14944
36.822,9645.8823,0.01088,0.07241,0.14211
36.8485,9645.9023,0.05302,0.07119,0.09813
36.8676,9645.9223,0.02493,0.07547,0.09019
36.8836,9645.9423,-0.03494,0.07547,0.12134
36.903,9645.9624,-0.02089,0.08096,0.10424
36.9209,9645.9824,0.06585,0.16404,0.05048
36.9404,9646.0024,0.10128,0.12739,0.03643
36.9691,9646.0225,0.14221,0.09501,0.03827
36.984,9646.0425,0.12144,0.08219,0.06698
37.0008,9646.0625,0.0121,0.10051,0.09141
37.0305,9646.0825,-0.00379,0.17076,0.09202
37.0583,9646.1026,0.10006,0.21413,0.08041
37.067,9646.1226,0.15626,0.21658,0.10485
37.0854,9646.1427,0.17703,0.15182,0.15128
37.1039,9646.1627,0.1471,0.14266,0.17266
37.1205,9646.1828,0.10251,0.15182,0.18243
37.144,9646.2029,0.10067,0.23734,0.14761
37.1613,9646.223,0.13549,0.19703,0.14333
37.1804,9646.2431,0.20696,0.20863,0.17143
37.2031,9646.2632,0.22101,0.17198,0.22336
37.2216,9646.2833,0.20452,0.05225,0.28383
37.2444,9646.3034,0.17947,-0.00334,0.32659
37.2622,9646.3235,0.16481,-0.01677,0.32048
37.2806,9646.3436,0.2033,-0.01433,0.29788
37.3002,9646.3637,0.26377,-0.02044,0.30094
37.3237,9646.3838,0.33219,-0.04487,0.31743
37.3422,9646.4039,0.31997,0.01988,0.30338
37.3619,9646.424,0.23079,0.09074,0.28322
37.3916,9646.4441,0.15748,0.12433,0.25207
37.4133,9646.4641,0.1245,0.15121,0.20809
37.4258,9646.4842,0.10189,0.1952,0.17632
37.4451,9646.5043,0.06646,0.23307,0.15128
37.4615,9646.5243,0.03592,0.20741,0.12989
37.4816,9646.5444,0.0909,0.10357,0.13112
37.5027,9646.5645,0.13671,0.06508,0.16594
37.522,9646.5845,0.12389,0.05836,0.18609
37.5406,9646.6046,0.08968,0.04981,0.18304
37.5651,9646.6246,0.08479,0.06814,0.1806
37.5833,9646.6447,0.06463,0.12311,0.15799
37.6021,9646.6648,0.02126,0.16099,0.12989
37.6288,9646.6849,0.04692,0.18237,0.136
37.6474,9646.705,0.13671,0.1335,0.13661
37.6647,9646.7251,0.15748,0.17626,0.12867
37.6848,9646.7452,0.08479,0.19947,0.13051
37.7027,9646.7652,0.05058,0.2178,0.13661
37.7223,9646.7852,-0.00134,0.25262,0.10424
37.7488,9646.8053,-0.03677,0.29782,0.09385
37.7723,9646.8253,0.03287,0.19764,0.04926
37.7856,9646.8454,0.08968,0.1506,0.05965
37.8049,9646.8654,0.06891,0.09074,0.1244
37.8237,9646.8855,0.07135,0.13167,0.19098
37.8461,9646.9056,0.09273,0.20497,0.18609
37.8698,9646.9256,0.11839,0.25445,0.16044
37.8884,9646.9457,0.08968,0.22818,0.17754
37.9044,9646.9658,0.08479,0.16771,0.20198
37.9263,9646.9858,0.05058,0.18664,0.18548
37.9433,9647.0059,0.02126,0.19275,0.147
37.9789,9647.0259,0.01271,0.2123,0.12867
37.988,9647.046,0.01698,0.1787,0.13112
38.0093,9647.0661,0.05425,0.11029,0.13295
38.0461,9647.0861,0.08479,0.0718,0.136
38.065,9647.1062,0.12816,0.00888,0.11401
38.0731,9647.1262,0.14893,-0.01555,0.09019
38.0866,9647.1463,0.05974,0.00644,0.06575
38.1091,9647.1664,-0.01722,0.08035,0.04193
38.129,9647.1864,-0.06121,0.11273,-0.01305
38.1442,9647.2065,-0.03922,0.05958,-0.01671
38.1649,9647.2266,-0.01234,-0.05037,-0.0326
38.184,9647.2466,0.04692,0.06386,-0.06619
38.2027,9647.2666,-0.0044,0.08646,-0.05398
38.2242,9647.2866,-0.05754,0.10845,-0.0668
38.245,9647.3067,-0.03372,0.18848,-0.05886
38.2638,9647.3267,-0.01478,0.08035,-0.0161
38.2899,9647.3467,0.03348,-0.04854,0.0175
38.313,9647.3668,-0.01112,-0.09313,0.05659
38.3226,9647.3868,-0.04716,0.01438,0.07003
38.3495,9647.4068,-0.09236,0.04859,0.0236
38.3643,9647.4268,-0.04105,0.12739,-0.01793
38.3835,9647.4468,-0.03433,0.05653,0.01017
38.4074,9647.4668,-0.03922,-0.13101,0.08103
38.4237,9647.4868,-0.00745,-0.24951,0.1189
38.4431,9647.5068,0.01637,-0.23913,0.11646
38.4704,9647.5268,-0.00989,-0.10535,0.07675
38.4882,9647.5468,-0.05449,0.00155,0.01627
38.5075,9647.5668,-0.07159,-0.05098,0.00039
38.5257,9647.5868,-0.04594,-0.13589,0.02971
38.5457,9647.6068,0.0121,-0.13956,0.06575
38.5647,9647.6268,-0.00562,-0.05037,0.06881
38.5893,9647.6468,-0.08442,0.0547,0.05903
38.6061,9647.6668,-0.13146,0.03393,0.02055
38.6328,9647.6867,-0.12413,-0.03632,-0.01977
38.6506,9647.7067,-0.0606,-0.16033,-0.06375
38.6672,9647.7267,-0.04777,-0.20798,-0.06741
38.6847,9647.7467,-0.12535,-0.19698,-0.05764
38.7093,9647.7667,-0.17483,-0.0803,-0.07047
38.7248,9647.7867,-0.07892,0.0437,-0.07413
38.7466,9647.8067,0.07013,0.08768,-0.00205
38.7705,9647.8267,0.12266,0.02171,0.11646
38.7846,9647.8467,0.14404,-0.06442,0.2368
38.8085,9647.8667,0.15443,-0.14811,0.34248
38.8252,9647.8867,0.11778,-0.12551,0.36752
38.8449,9647.9067,0.04753,-0.10779,0.33881
38.871,9647.9267,-0.02578,-0.18415,0.31071
38.8919,9647.9467,-0.151,-0.22875,0.2594
38.9117,9647.9667,-0.20965,-0.27884,0.16044
38.9244,9647.9867,-0.1339,-0.30571,0.03949
38.9484,9648.0067,-0.07037,-0.22569,-0.01549
38.968,9648.0267,-0.11374,-0.18049,-0.03443
38.9862,9648.0467,-0.18338,-0.25013,-0.05336
39.0064,9648.0667,-0.16872,-0.3442,-0.07047
39.0249,9648.0866,-0.11802,-0.26784,-0.08146
39.0468,9648.1066,-0.06609,-0.17499,-0.06986
39.0694,9648.1266,-0.02455,-0.09924,-0.06069
39.0857,9648.1466,-0.04899,-0.06992,-0.04787
39.1035,9648.1666,-0.04471,-0.11818,-0.03687
39.1266,9648.1866,0.0011,-0.23058,-0.00511
39.1416,9648.2066,0.05425,-0.26418,0.02483
39.1619,9648.2266,0.03836,-0.16766,0.01994
39.1889,9648.2466,0.03042,-0.07542,0.00772
39.2141,9648.2666,0.04936,-0.09497,-0.00388
39.2274,9648.2866,0.06585,-0.1475,-0.01732
39.2455,9648.3066,0.03653,-0.08519,-0.05642
39.2637,9648.3266,-0.00989,-0.01372,-0.09613
39.2836,9648.3466,-0.07709,0.02354,-0.11934
39.3132,9648.3666,-0.09175,-0.02166,-0.123
39.3308,9648.3866,-0.07892,-0.0632,-0.11689
39.3542,9648.4066,-0.06243,-0.01128,-0.09124
39.3665,9648.4266,-0.04349,0.0828,-0.07108
39.3833,9648.4466,-0.02761,0.06569,-0.04665
39.4093,9648.4666,0.00721,0.02293,-0.02282
39.427,9648.4865,0.03836,0.00766,-0.0326
39.443,9648.5065,-0.00501,0.06142,-0.04726
39.4651,9648.5265,-0.05693,0.08768,-0.06008
39.4868,9648.5465,-0.04899,0.07485,-0.06741
39.5042,9648.5665,-0.016,0.0437,-0.07169
39.5246,9648.5865,-0.03799,0.10601,-0.09246
39.5498,9648.6065,-0.07709,0.21108,-0.12361
39.567,9648.6265,-0.0777,0.28194,-0.13705
39.5887,9648.6465,-0.10458,0.35463,-0.134
39.6091,9648.6665,-0.14795,0.34302,-0.12972
39.6227,9648.6865,-0.15039,0.31248,-0.12667
39.6425,9648.7065,-0.14673,0.24406,-0.10346
39.6652,9648.7265,-0.10275,0.25628,-0.06558
39.6851,9648.7465,-0.05815,0.25811,0.00039
39.704,9648.7665,0.06952,0.20314,0.07797
39.728,9648.7865,0.21796,0.17137,0.15005
39.751,9648.8065,0.24117,0.16771,0.18548
39.7636,9648.8265,0.15443,0.139,0.15128
39.788,9648.8465,0.10373,0.1335,0.06331
39.8022,9648.8665,0.1471,0.16404,-0.01855
39.823,9648.8865,0.14465,0.16648,-0.03137
39.8448,9648.9064,0.10617,0.15793,-0.02282
39.8623,9648.9264,0.03103,0.08829,-0.04298
39.8834,9648.9464,-0.01845,0.10479,-0.09979
39.9048,9648.9664,0.0066,0.10357,-0.15049
39.9256,9648.9864,0.04325,0.09685,-0.13644
39.9425,9649.0064,0.02493,0.08463,-0.1004
39.9668,9649.0264,0.00477,0.09685,-0.08818
39.9833,9649.0464,0.00538,0.05775,-0.07413
40.0113,9649.0664,0.04325,0.06264,-0.04481
40.0274,9649.0864,0.02187,0.03271,-0.00511
40.0445,9649.1064,0.01026,0.01377,0.01322
40.062,9649.1264,0.03653,0.01438,0.01872
40.0881,9649.1464,0.0964,0.02965,0.01322
40.1061,9649.1664,0.12816,0.0608,-0.00572
40.1252,9649.1864,0.15015,0.07424,-0.02221
40.144,9649.2064,0.15748,0.07119,-0.0442
40.1619,9649.2264,0.14588,0.02293,-0.06864
40.1876,9649.2464,0.1471,0.0437,-0.10284
40.2098,9649.2664,0.12755,0.06386,-0.12545
40.2229,9649.2864,0.09884,0.06691,-0.12972
40.2453,9649.3063,0.0964,0.05225,-0.14133
40.2656,9649.3263,0.08968,0.05164,-0.13217
40.2856,9649.3463,0.06341,0.01927,-0.08635
40.3057,9649.3663,0.01576,-0.02838,-0.04848
40.3287,9649.3863,0.02004,-0.02838,-0.0326
40.3448,9649.4063,0.06402,0.03454,-0.04787
40.3618,9649.4263,0.06646,0.12922,-0.0271
40.3889,9649.4463,0.08479,0.09013,0.01444
40.4045,9649.4663,0.12205,-0.02777,0.05354
40.4233,9649.4863,0.11533,-0.07664,0.05598
40.4445,9649.5063,0.06952,-0.0577,0.04254
40.462,9649.5263,0.02248,0.0156,-0.02771
40.4829,9649.5463,-0.02883,0.12556,-0.08635
40.5094,9649.5663,-0.07892,0.09196,-0.10895
40.531,9649.5863,-0.05632,0.03576,-0.09185
40.543,9649.6063,0.01821,0.00766,-0.0552
40.5678,9649.6263,0.06707,0.02965,-0.00877
40.5869,9649.6463,0.07074,0.03759,0.02116
40.6139,9649.6678,0.06891,0.0773,0.03093
40.6286,9649.6878,0.07807,0.03454,0.05293
40.6513,9649.7078,0.08968,0.01132,0.0627
40.6683,9649.7278,0.06952,0.00583,0.04254
40.6835,9649.7478,0.04936,0.08524,0.02238
40.7537,9649.7678,-0.01173,0.07852,0.03155
40.7571,9649.7878,-0.05754,0.04614,0.04804
40.7587,9649.8078,-0.02883,0.00827,0.06209
40.7704,9649.8278,0.00599,0.01866,0.06575
40.7808,9649.8478,-0.00379,0.07913,0.07919
40.8027,9649.8678,-0.02333,0.06019,0.08713
40.822,9649.8878,0.00416,0.05225,0.08164
40.8416,9649.9078,0.00538,0.02232,0.05781
40.8632,9649.9278,-0.00867,0.10906,0.02483
40.8817,9649.9478,-0.04532,0.11945,-0.01366
40.904,9649.9677,-0.04349,0.07974,-0.02526
40.9247,9649.9877,-0.02883,-0.01555,-0.02221
40.9436,9650.0077,-0.00989,0.05836,-0.02526
40.9646,9650.0277,-0.00928,0.15243,-0.04054
40.9863,9650.0477,-0.03066,0.19153,-0.0442
41.013,9650.0677,-0.07159,0.13105,-0.01671
41.0474,9650.0877,-0.10275,0.02782,0.02666
41.0656,9650.1077,-0.06548,0.02171,0.05659
41.0826,9650.1277,-0.00012,0.117,0.06881
41.0936,9650.1477,0.02431,0.20375,0.08652
41.1085,9650.1677,0.06769,0.12006,0.1244
41.1265,9650.1878,0.06402,0.04553,0.14333
41.1483,9650.2078,0.03287,0.01499,0.13356
41.1728,9650.2278,0.00538,0.02354,0.10302
41.1826,9650.2478,-0.01784,0.07974,0.06026
41.2023,9650.2679,-0.00012,0.0718,0.03949
41.2242,9650.2879,0.01149,0.04492,0.04804
41.2423,9650.3079,-0.04716,0.01499,0.06026
41.2652,9650.328,-0.07587,0.00766,0.06759
41.2898,9650.348,-0.07342,0.01866,0.05293
41.3033,9650.368,-0.03433,0.06386,0.02849
41.3262,9650.388,0.0518,0.05347,0.03643
41.3467,9650.4081,0.04997,0.03515,0.07003
41.3759,9650.4281,-0.00256,-0.00334,0.07003
41.3909,9650.4481,0.03775,0.00094,0.02971
41.4157,9650.4682,0.10434,0.03026,0.01872
41.4289,9650.4882,0.05302,0.02537,0.05354
41.4433,9650.5082,0.01393,0.02843,0.06698
41.4656,9650.5282,0.00843,0.01743,0.05354
41.483,9650.5483,0.04203,-0.03205,0.03338
41.5072,9650.5683,0.09151,-0.02777,-0.00205
41.5334,9650.5883,0.05058,0.00888,-0.00327
41.5491,9650.6084,-0.02028,-0.0125,0.00406
41.5635,9650.6284,-0.06426,-0.00089,-0.00511
41.5905,9650.6484,-0.02394,-0.01067,-0.03015
41.6172,9650.6684,0.02431,0.00461,-0.02282
41.6352,9650.6885,0.03836,-0.02349,0.01566
41.6458,9650.7085,0.01454,-0.04426,0.03765
41.6689,9650.7285,-0.00867,-0.02838,0.02055
41.6853,9650.7486,0.03226,0.02904,-0.00633
41.711,9650.7685,0.06158,0.08341,-0.02282
41.7269,9650.7885,0.03775,0.01071,-0.01121
41.744,9650.8085,0.01637,-0.06503,0.00039
41.7656,9650.8285,0.03103,-0.12123,0.01994
41.7928,9650.8485,0.00232,-0.09069,-0.01855
41.8043,9650.8685,-0.00501,-0.00761,-0.06131
41.826,9650.8885,-0.01051,-0.00028,-0.07597
41.8428,9650.9085,-0.03799,-0.03693,-0.06192
41.8671,9650.9285,-0.0215,-0.07664,-0.04848
41.8857,9650.9485,0.00477,-0.06931,-0.04603
41.9103,9650.9685,-0.01539,-0.04793,-0.0326
41.9245,9650.9885,-0.03494,-0.03388,-0.02954
41.9459,9651.0085,-0.02578,-0.02594,-0.0326
41.9624,9651.0285,0.0121,-0.04121,-0.03076
41.9836,9651.0485,0.01882,-0.06748,-0.02465
42.0047,9651.0685,-0.01784,-0.06687,-0.0161
42.0323,9651.0885,-0.05327,-0.04426,-0.02526
42.0564,9651.1085,-0.01295,0.00338,-0.03504
42.0698,9651.1285,0.00782,0.01682,-0.00511
42.0966,9651.1485,-0.01967,0.00949,0.02727
42.1115,9651.1685,-0.04288,-0.05098,0.02116
42.1278,9651.1884,-0.01356,-0.06748,0.0065
42.148,9651.2084,0.02615,-0.03388,0.00284
42.1623,9651.2284,0.00232,0.04676,0.0175
42.1881,9651.2484,-0.01722,0.04492,0.02238
42.2091,9651.2684,0.00782,0.01438,0.03582
42.2237,9651.2884,0.03409,-0.03327,0.02483
42.2454,9651.3084,0.05913,0.01132,0.01566
42.2668,9651.3284,0.06952,-0.00334,0.01261
42.2846,9651.3484,0.04692,0.07119,-0.00266
42.3135,9651.3684,0.00599,0.07119,-0.01488
42.3224,9651.3884,-0.0325,-0.01311,-0.02649
42.3434,9651.4084,-0.03433,-0.05343,-0.01671
42.3668,9651.4284,0.00599,-0.02227,-0.01244
42.3838,9651.4484,0.04203,0.01927,-0.00694
42.4031,9651.4684,0.02554,0.01316,0.01566
42.4259,9651.4884,-0.01417,-0.01372,0.04804
42.4499,9651.5084,-0.03494,0.00277,0.05232
42.4689,9651.5284,-0.01478,-0.01861,0.03765
42.4872,9651.5484,0.02431,0.00277,0.02605
42.504,9651.5684,0.0066,0.03637,0.03093
42.5239,9651.5883,-0.03433,0.01438,0.0291
42.5479,9651.6083,-0.01784,0.00155,-0.00144
42.5691,9651.6283,0.03042,-0.01433,-0.0161
42.5891,9651.6483,0.01882,0.01316,-0.03076
42.6056,9651.6683,-0.06365,0.06019,-0.03321
42.6236,9651.6883,-0.06121,0.07669,-0.05581
42.6437,9651.7083,0.00171,0.0828,-0.08085
42.6721,9651.7283,0.01515,0.02965,-0.05153
42.6893,9651.7483,-0.01722,-0.05282,-0.00877
42.7082,9651.7683,-0.03799,-0.1249,-0.02343
42.7315,9651.7883,-0.04471,-0.06748,-0.10407
42.7463,9651.8083,-0.01784,0.11945,-0.1676
42.7647,9651.8283,-0.0722,0.08096,-0.12178
42.787,9651.8483,-0.15161,-0.14322,-0.06864
42.8072,9651.8683,-0.08442,-0.23669,-0.08879
42.8315,9651.8883,0.01637,-0.11757,-0.134
42.8554,9651.9083,0.03531,0.08707,-0.09063
42.8684,9651.9283,-0.10763,-0.17927,0.04376
42.8838,9651.9483,-0.20659,-0.47431,0.04315
42.9114,9651.9683,-0.14673,-0.5806,-0.05275
42.9234,9651.9883,-0.00623,-0.2373,-0.10284
42.9426,9652.0082,0.0011,-0.06748,-0.00022
42.9672,9652.0282,-0.08992,-0.23546,0.07308
42.9853,9652.0482,-0.10213,-0.54823,0.06637
43.0073,9652.0682,-0.03494,-0.58488,0.02849
43.0275,9652.0882,-0.01906,-0.52501,0.00345
43.0457,9652.1082,-0.08747,-0.43888,-0.02038
43.064,9652.1282,-0.15772,-0.40101,-0.08269
43.0965,9652.1482,-0.15528,-0.39185,-0.12667
43.1064,9652.1682,-0.08442,-0.40529,-0.14133
43.1259,9652.1882,-0.05937,-0.44743,-0.16332
43.1448,9652.2082,-0.15589,-0.45232,-0.20486
43.1619,9652.2282,-0.19315,-0.52563,-0.19814
43.1878,9652.2482,-0.10213,-0.60443,-0.14194
43.2075,9652.2682,0.01698,-0.64719,-0.06069
43.2255,9652.2882,0.08235,-0.62703,-0.0271
43.2461,9652.3082,-0.05449,-0.5128,-0.08513
43.2698,9652.3282,-0.24569,-0.34053,-0.18409
43.29,9652.3482,-0.24263,-0.04487,-0.26289
43.3045,9652.3682,-0.16689,0.0492,-0.22502
43.3258,9652.3882,-0.07831,-0.05343,-0.15416
43.3436,9652.4081,-0.0386,-0.23608,-0.11201
43.3694,9652.4281,-0.08075,-0.29655,-0.08513
43.3866,9652.4481,-0.15467,-0.24524,-0.04359
43.4034,9652.4681,-0.13329,-0.06259,-0.04726
43.4231,9652.4881,-0.08992,0.04187,-0.11262
43.4476,9652.5081,-0.10458,0.02904,-0.14499
43.463,9652.5281,-0.14734,-0.07053,-0.07597
43.4856,9652.5481,-0.1565,-0.14628,0.00955
43.5202,9652.5681,-0.15467,-0.11329,-0.02038
43.5322,9652.5881,-0.12413,0.00827,-0.11079
43.548,9652.6081,-0.11313,0.07791,-0.13889
43.5763,9652.6281,-0.11618,0.13105,-0.1004
43.5874,9652.6481,-0.11313,0.12922,-0.03687
43.6034,9652.6681,-0.08931,0.09868,-0.02099
43.6273,9652.6881,-0.12046,-0.01006,-0.0271
43.6429,9652.7081,-0.16872,-0.19026,0.00894
43.664,9652.7281,-0.16933,-0.29289,0.08836
43.6853,9652.7481,-0.04899,-0.12979,0.09446
43.7044,9652.7681,0.11594,-0.05709,0.09446
43.723,9652.7881,0.14404,-0.0296,0.09508
43.7449,9652.8081,0.09456,-0.12368,0.09446
43.7654,9652.828,0.13183,-0.21164,0.07919
43.7838,9652.848,0.17398,-0.25013,0.06637
43.8077,9652.868,0.1416,-0.08947,-0.00633
43.8262,9652.888,0.09395,0.0437,-0.08024
43.8456,9652.908,0.07441,0.01927,-0.06131
43.8635,9652.928,0.07868,-0.09008,0.01627
43.8878,9652.948,0.08662,-0.1866,0.04804
43.9017,9652.968,0.01515,-0.16644,0.00467
43.9242,9652.988,-0.05571,-0.10779,-0.08574
43.9541,9653.008,-0.10519,-0.04243,-0.14438
43.963,9653.028,-0.16139,-0.00089,-0.10284
43.9867,9653.048,-0.17788,-0.0687,-0.0442
44.004,9653.068,-0.16566,-0.11451,-0.09063
44.034,9653.088,-0.1394,-0.08275,-0.16882
44.0539,9653.108,-0.12779,0.02232,-0.23601
44.0628,9653.128,-0.1339,0.08341,-0.17981
44.088,9653.148,-0.11496,0.11639,-0.11995
44.1048,9653.168,-0.09236,0.10051,-0.09002
44.1249,9653.188,-0.09175,0.04614,-0.05336
44.1471,9653.208,-0.05449,0.03759,-0.00327
44.164,9653.2279,0.04753,0.05836,0.06453
44.1832,9653.2479,0.15321,0.08646,0.13723
44.2035,9653.2679,0.10861,0.05775,0.21847
44.2235,9653.2879,0.02126,-0.03144,0.22458
44.243,9653.3079,0.03531,-0.06015,0.13417
44.2704,9653.3279,0.11655,-0.06687,0.05842
44.2888,9653.3479,0.17581,0.00583,0.0175
44.3038,9653.3679,0.15443,0.07791,-0.02343
44.3232,9653.3879,0.09273,0.13228,-0.04237
44.3479,9653.4079,0.03714,0.04737,-0.03321
44.3606,9653.4279,-0.05143,-0.11268,-0.02893
44.3814,9653.4479,-0.0551,-0.15788,-0.04603
44.4097,9653.4679,0.00843,-0.10046,-0.08391
44.425,9653.4879,-0.00684,0.11334,-0.13461
44.4433,9653.5079,-0.08442,0.10418,-0.10223
44.4643,9653.5279,-0.10336,-0.05892,-0.06314
44.4901,9653.5479,-0.0667,-0.1756,-0.00327
44.5049,9653.5679,0.02187,-0.11268,0.03643
44.527,9653.5879,0.04631,0.03454,0.02727
44.5519,9653.6079,-0.02944,0.13167,0.01261
44.5633,9653.6278,-0.07648,0.04492,0.01505
44.5854,9653.6478,-0.05204,-0.03205,0.02177
44.6039,9653.6678,-0.00623,-0.04732,0.04743
44.6303,9653.6878,0.03164,-0.04304,0.05476
44.6484,9653.7078,0.03409,-0.00395,-0.01366
44.6697,9653.7278,-0.01417,0.06691,-0.09002
44.6832,9653.7478,-0.07037,0.08341,-0.12056
44.7766,9653.7678,-0.07465,0.05958,-0.10284
44.7779,9653.7878,-0.05204,-0.00273,-0.07719
44.7806,9653.8078,-0.08931,-0.05954,-0.04787
44.7824,9653.8278,-0.0948,0.01255,-0.0271
44.7839,9653.8478,-0.03066,0.14938,-0.00755
44.8027,9653.8678,0.00965,0.14938,0.04926
44.8234,9653.8878,0.07441,0.07608,0.13539
44.8409,9653.9078,0.13488,-0.0461,0.18365
44.8617,9653.9278,0.12572,-0.07908,0.16777
44.8859,9653.9478,0.06036,-0.03571,0.12867
44.9097,9653.9678,0.03226,-0.03388,0.09752
44.9312,9653.9878,0.03959,-0.03938,0.07736
44.9465,9654.0078,0.04203,-0.03327,0.07125
44.9674,9654.0278,0.03226,-0.02716,0.03582
44.9828,9654.0477,0.02309,-0.04732,-0.00938
45.005,9654.0677,-0.01722,-0.04365,-0.0271
45.0228,9654.0877,-0.04227,-0.05098,-0.02649
45.0448,9654.1077,-0.0215,-0.05037,-0.01855
45.075,9654.1277,-0.04532,-0.07603,0.0291
45.0822,9654.1477,-0.07709,-0.07664,0.06209
45.1024,9654.1677,-0.07465,-0.06748,0.09569
45.1281,9654.1877,-0.01845,-0.03144,0.11707
45.1419,9654.2077,-0.00195,0.00644,0.1244
45.1615,9654.2277,-0.05937,0.01682,0.10118
45.1867,9654.2477,-0.05571,-0.01555,0.0908
45.2023,9654.2677,0.00782,0.00216,0.10485
45.2235,9654.2877,0.08112,0.01988,0.12195
45.2462,9654.3077,0.09579,0.05653,0.09813
45.2638,9654.3277,0.07624,0.07852,0.04804
45.2843,9654.3477,0.05974,0.04798,0.03093
45.3087,9654.3677,0.0683,0.01927,0.0401
45.3294,9654.3877,0.09823,0.00216,0.05659
45.3442,9654.4077,0.12144,0.02415,0.07125
45.3747,9654.4277,0.08174,0.06691,0.05232
45.3827,9654.4477,0.05486,0.06019,0.03949
45.4026,9654.4676,0.03164,0.04798,0.03521
45.424,9654.4876,0.05058,0.02537,0.05598
45.446,9654.5076,0.05058,0.01071,0.07125
45.4671,9654.5276,-0.01234,0.03515,0.07125
45.4838,9654.5476,-0.06426,0.06875,0.05415
45.5012,9654.5676,-0.07465,0.05347,0.04437
45.5243,9654.5876,0.01149,0.0437,0.03704
45.5471,9654.6076,0.05425,0.07669,0.04865
45.5632,9654.6276,-0.01173,0.12983,0.07125
45.5927,9654.6476,-0.04838,0.117,0.06331
45.6037,9654.6676,0.02248,0.10845,0.06698
45.626,9654.6876,0.10189,0.06508,0.1134
45.6434,9654.7076,0.08418,0.03332,0.14211
45.6666,9654.7276,0.03226,0.05347,0.12379
45.6836,9654.7476,0.07502,0.10662,0.08225
45.7055,9654.7676,0.119,0.15366,0.07553
45.7324,9654.7876,0.0628,0.10723,0.0682
45.7461,9654.8076,0.05669,0.11273,0.04254
45.7631,9654.8276,0.11411,0.07241,0.04682
45.7836,9654.8476,0.14038,0.07424,0.05903
45.8024,9654.8675,0.10922,0.06752,0.07003
45.8233,9654.8875,0.05119,0.0944,0.03399
45.8455,9654.9075,0.00904,0.03881,-0.01732
45.8659,9654.9275,0.01515,-0.00395,-0.03748
45.8828,9654.9475,0.04631,0.02782,-0.03382
45.9055,9654.9675,0.12755,0.12983,-0.01671
45.9224,9654.9875,0.1526,0.10418,0.03582
45.9431,9655.0075,0.13305,-0.01067,0.03949
45.9707,9655.0275,0.10739,-0.04182,-0.00755
45.9882,9655.0475,0.07868,-0.00456,-0.04787
46.0179,9655.0675,-0.00195,0.04248,-0.03809
46.0326,9655.0875,-0.08137,0.01194,-0.00999
46.051,9655.1075,-0.05388,0.01438,-0.01121
46.0641,9655.1275,0.02309,-0.02716,-0.00144
46.0919,9655.1475,0.01698,-0.04671,0.01017
46.1029,9655.1675,-0.03494,-0.01922,0.0175
46.1266,9655.1875,-0.02944,0.01804,0.00345
46.1428,9655.2075,0.00904,0.01988,-0.01427
46.1616,9655.2275,0.01637,-0.0461,0.00833
46.1817,9655.2475,0.00782,-0.07542,0.01872
46.2069,9655.2674,0.0347,-0.03877,-0.00388
46.2242,9655.2874,0.01759,-0.00761,-0.0216
46.2426,9655.3074,-0.00073,-0.0015,-0.01305
46.2648,9655.3274,0.03775,-0.01677,-0.0161
46.2851,9655.3474,0.04142,-0.01739,-0.00266
46.3007,9655.3674,0.02309,-0.02472,0.01688
46.3231,9655.3874,0.01515,-0.0406,0.0291
46.353,9655.4074,0.00721,-0.04976,0.02666
46.3655,9655.4274,-0.01661,-0.04915,-0.00511
46.3829,9655.4474,-0.03983,-0.01739,-0.02343
46.4031,9655.4674,-0.05693,-0.00089,-0.00938
46.4248,9655.4874,-0.02455,0.02293,0.00772
46.4446,9655.5074,0.01637,0.01438,0.04071
46.4642,9655.5274,0.03103,0.00155,0.06759
46.4899,9655.5474,0.00904,-0.04854,0.07186
46.5083,9655.5674,-0.01051,-0.06442,0.04621
46.5243,9655.5874,-0.03738,-0.00639,0.03338
46.5437,9655.6074,-0.03738,0.07424,0.03155
46.568,9655.6274,0.0121,0.08219,0.07064
46.5867,9655.6474,0.04081,0.04737,0.11035
46.6083,9655.6674,0.04569,-0.04732,0.08347
46.6293,9655.6874,0.01393,-0.018,0.0401
46.6458,9655.7074,-0.01173,0.07852,0.0175
46.6639,9655.7275,0.01149,0.12311,0.0401
46.6854,9655.7475,0.04631,0.05225,0.06759
46.7074,9655.7675,0.08846,-0.02594,0.09752
46.7345,9655.7876,0.06707,-0.02349,0.09813
46.7549,9655.8076,0.01821,0.02537,0.08225
46.7722,9655.8276,0.0121,0.04126,0.08225
46.7862,9655.8476,0.03164,-0.0015,0.08408
46.8076,9655.8677,0.04997,-0.03754,0.08164
46.8244,9655.8877,0.04997,0.01804,0.05476
46.8431,9655.9077,0.04692,0.06752,0.05354
46.8674,9655.9278,0.02676,0.07241,0.04437
46.8878,9655.9478,-0.00134,0.03026,0.04254
46.9049,9655.9678,-0.03494,-0.07297,0.01139
46.9275,9655.9878,-0.02578,-0.0858,-0.00877
46.9462,9656.0079,-0.01417,-0.00395,0.01078
46.9654,9656.0279,0.0066,0.04676,0.0065
46.99,9656.0479,0.04692,0.00705,0.02299
47.0077,9656.068,0.0573,-0.01677,0.0627
47.0365,9656.088,0.03348,-0.00028,0.08897
47.0535,9656.108,0.03836,0.01988,0.08041
47.0699,9656.128,0.07135,0.02721,0.04865
47.0838,9656.1481,0.0628,0.03515,0.0627
47.1222,9656.1681,0.03409,0.0266,0.07308
47.1301,9656.1881,0.02004,0.02843,0.07186
47.1445,9656.2082,0.02981,0.00827,0.07431
47.1653,9656.2282,0.06097,-0.00395,0.07736
47.1826,9656.2482,0.04753,0.02171,0.06575
47.2028,9656.2682,0.03592,0.06142,0.0517
47.227,9656.2882,0.02248,0.00644,0.03216
47.245,9656.3082,0.01821,-0.04915,0.02238
47.2666,9656.3282,0.01271,-0.03327,0.02055
47.2863,9656.3482,0.01821,-0.00395,0.02544
47.3035,9656.3682,0.01393,0.04492,0.01994
47.3248,9656.3882,0.0121,0.04492,0.02605
47.3478,9656.4082,0.03836,-0.03693,0.03704
47.3664,9656.4282,0.03592,-0.07908,0.03155
47.3844,9656.4482,-0.01173,0.00949,0.02849
47.4103,9656.4682,0.00049,0.09562,0.0236
47.4291,9656.4882,0.02248,0.0773,0.01017
47.4471,9656.5081,0.02798,-0.01128,0.01261
47.4693,9656.5281,0.04386,-0.08397,0.02055
47.4939,9656.5481,0.03531,-0.02838,0.01994
47.5046,9656.5681,-0.00745,0.06325,0.001
47.5291,9656.5881,-0.027,0.04492,-0.00572
47.5517,9656.6081,-0.01051,0.00399,0.01444
47.5654,9656.6281,0.02493,-0.00456,0.03399
47.5872,9656.6481,0.02493,-0.04549,0.0346
47.6052,9656.6681,-0.00928,-0.02472,0.01444
47.6226,9656.6881,-0.01967,-0.02777,-0.01121
47.6453,9656.7081,-0.01967,0.00583,-0.03382
47.6627,9656.7281,-0.01539,0.01377,-0.02954
47.6905,9656.7481,-0.01417,0.02415,-0.01244
47.71,9656.7681,-0.01845,0.02599,-0.01183
47.726,9656.7881,-0.01295,-0.02533,-0.02221
47.7424,9656.8081,0.00782,-0.07053,-0.02954
47.7698,9656.8281,-0.01295,-0.02166,-0.0161
47.7857,9656.8481,-0.016,0.04126,0.00894
47.8055,9656.8681,0.01882,0.0547,0.03216
47.8253,9656.8881,0.05608,0.00094,0.0346
47.8417,9656.9081,0.05852,-0.05587,0.00955
47.8675,9656.928,0.01271,-0.02533,-0.00999
47.8854,9656.948,-0.0044,0.05347,-0.01366
47.9034,9656.968,0.00293,0.08585,-0.01977
47.9235,9656.988,0.0347,0.04492,-0.00755
47.9478,9657.008,0.06158,-0.01311,0.02788
47.9675,9657.028,0.05119,-0.05098,0.05354
47.9841,9657.048,0.0121,-0.04304,0.0236
48.012,9657.068,-0.01112,0.00522,-0.02526
48.0378,9657.088,-0.01906,0.05409,-0.03443
48.0522,9657.108,-0.03189,0.03393,0.00589
48.0681,9657.128,-0.02455,-0.01067,0.04682
48.0957,9657.148,0.0121,-0.04487,0.04498
48.1037,9657.168,0.02187,-0.01128,0.01627
48.1265,9657.188,-0.03738,0.04798,0.0175
48.1422,9657.208,-0.06854,0.00705,0.02971
48.1616,9657.228,-0.05327,-0.05465,0.02299
48.1882,9657.248,-0.0215,-0.01983,0.01688
48.2044,9657.268,0.0121,0.04798,-0.00205
48.2303,9657.288,-0.01784,0.05347,0.0065
48.2522,9657.308,-0.00806,-0.00822,0.03338
48.2637,9657.3279,0.04692,-0.06809,0.05781
48.2854,9657.3479,0.0683,-0.03693,0.05109
48.3099,9657.3679,0.03592,0.08035,0.02483
48.3266,9657.3879,-0.03127,0.07974,-0.01488
48.3461,9657.4079,-0.05571,0.03332,-0.02343
48.3651,9657.4279,0.00049,-0.0687,0.02055
48.3844,9657.4479,0.06158,-0.08275,0.05048
48.4021,9657.4679,0.03042,0.00033,0.03582
48.424,9657.4879,-0.05082,0.11212,0.02177
48.4432,9657.5079,-0.0777,0.0608,0.02788
48.4694,9657.5279,0.03898,-0.04854,0.04315
48.4857,9657.5479,0.08418,-0.04793,0.0346
48.5028,9657.5679,0.01943,0.01621,0.01139
48.5234,9657.5879,-0.03616,0.05347,-0.01488
48.5562,9657.6079,-0.02089,-0.01128,-0.01671
48.5679,9657.6279,0.0292,-0.03693,-0.00083
48.584,9657.6479,0.02615,-0.0296,0.00894
48.6036,9657.6679,0.00354,0.0266,-0.00511
48.6236,9657.6879,-0.00195,0.05286,-0.02649
48.6416,9657.7079,-0.00989,0.0101,-0.0045
48.6654,9657.7278,0.00049,-0.03266,0.0236
48.6835,9657.7478,0.01332,-0.03327,0.03399
48.7112,9657.7678,0.00965,0.01255,0.02544
48.7289,9657.7878,0.03042,0.00949,0.01566
48.7422,9657.8078,0.02981,-0.01433,0.0236
48.7621,9657.8278,0.00232,-0.0125,0.03582
48.7856,9657.8478,0.01332,-0.00395,0.04193
48.8117,9657.8678,0.02431,0.00766,0.01383
48.8324,9657.8878,0.0066,-0.01739,0.012
48.846,9657.9078,-0.0044,-0.01616,0.01261
48.9248,9657.9278,-0.00256,0.01255,0.00894
48.9257,9657.9478,0.01515,0.02171,0.00955
48.9265,9657.9678,0.02126,-0.01861,0.01383
48.9276,9657.9878,0.01759,0.00766,0.01933
48.9408,9658.0078,-0.00745,-0.03449,0.01017
48.9623,9658.0278,-0.04532,0.00827,-0.00144
48.9807,9658.0478,-0.04288,0.02415,-0.00633
49.0007,9658.0678,-0.00379,0.04859,-0.0045
49.0212,9658.0878,0.01454,-0.02227,0.0175
49.0429,9658.1078,0.01759,-0.0461,0.02116
49.0663,9658.1277,0.00049,-0.03632,0.02299
49.0884,9658.1477,-0.00867,0.03148,0.02483
49.118,9658.1677,-0.02455,0.01316,0.01933
49.1243,9658.1877,-0.01051,0.03393,0.00284
49.1443,9658.2077,0.02126,0.01194,-0.01121
49.1625,9658.2277,0.02065,0.00522,-0.01121
49.1818,9658.2477,0.03287,-0.04182,0.01444
49.2036,9658.2677,0.04814,-0.03754,-0.00816
49.2253,9658.2877,0.0066,0.01438,-0.02099
49.2425,9658.3077,-0.02089,0.01255,-0.02404
49.2705,9658.3277,-0.00134,-0.007,-0.0045
49.2868,9658.3477,0.03836,-0.03938,0.01078
49.3062,9658.3677,0.02431,-0.05526,0.02055
49.328,9658.3877,-0.00012,-0.00517,0.01444
49.3484,9658.4077,0.00416,0.00583,0.00711
49.363,9658.4277,-0.01661,-0.02655,0.00894
49.3901,9658.4477,-0.00501,-0.05404,0.00589
49.4056,9658.4677,0.02431,-0.00761,0.00222
49.4274,9658.4877,-0.00256,0.07485,0.00894
49.4444,9658.5077,-0.01356,0.05531,0.02177
49.4679,9658.5277,0.00782,-0.03999,0.03704
49.4852,9658.5476,0.02859,-0.13223,0.04498
49.5081,9658.5676,0.02431,-0.05892,0.03643
49.5236,9658.5876,0.00965,0.02721,0.0065
49.5431,9658.6076,-0.00501,0.0718,-0.00999
49.5679,9658.6276,-0.01173,0.00277,0.001
49.582,9658.6476,0.01026,-0.05282,0.00406
49.6049,9658.6676,0.01515,-0.02655,-0.01366
49.6244,9658.6876,-0.00256,0.05286,-0.04298
49.6456,9658.7076,-0.00928,0.05836,-0.04542
49.6638,9658.7276,0.0347,0.00705,-0.01183
49.6856,9658.7476,0.04692,-0.04915,0.0291
49.7026,9658.7676,0.01759,-0.05892,0.02299
49.7237,9658.7876,-0.02211,0.0211,-0.01549
49.7503,9658.8076,-0.05265,0.05042,-0.02282
49.768,9658.8276,-0.01356,0.02232,-0.00205
49.7859,9658.8476,0.04325,-0.05404,0.03582
49.8046,9658.8676,0.07746,-0.06015,0.05354
49.8276,9658.8876,0.04814,0.01988,0.0236
49.8422,9658.9076,-0.016,0.05409,0.00222
49.8675,9658.9276,-0.01967,0.02537,0.01872
49.8836,9658.9476,0.03959,-0.03144,0.03827
49.9041,9658.9675,0.06646,-0.02411,0.03277
49.9256,9658.9875,0.03531,-0.00334,-0.00205
49.9513,9659.0075,-0.01845,0.03393,-0.0271
49.9672,9659.0275,-0.05327,0.02904,-0.0161
49.9834,9659.0475,-0.01784,0.00155,0.012
50.0051,9659.0675,0.03531,-0.02472,0.02605
50.0249,9659.0875,0.05669,-0.03693,0.01811
50.0441,9659.1075,0.03898,0.00949,0.00284
50.0634,9659.1275,0.03348,0.00155,0.01261
50.0907,9659.1475,0.01026,-0.01067,0.00467
50.1065,9659.1675,-0.03066,-0.01555,-0.00083
50.1281,9659.1875,-0.01845,-0.007,-0.0161
50.1457,9659.2075,0.00904,-0.00211,-0.01855
50.1644,9659.2275,0.02737,-0.02655,0.01261
50.1822,9659.2475,0.02554,-0.02838,0.02666
50.2016,9659.2675,0.02187,-0.01861,0.0291
50.2345,9659.2875,0.00416,0.00888,0.0175
50.2464,9659.3075,-0.00989,0.02782,0.001
50.2645,9659.3275,-0.00256,-0.01067,-0.02038
50.2833,9659.3475,0.02126,-0.02594,-0.01977
50.301,9659.3674,0.0121,-0.04182,0.001
50.3255,9659.3874,0.00049,0.00094,0.02177
50.3546,9659.4074,0.01271,-0.00944,0.0065
50.3694,9659.4274,0.02981,0.04187,-0.01366
50.3854,9659.4474,0.01271,-0.01861,0.00345
50.4063,9659.4674,0.0573,-0.0461,0.0346
50.4233,9659.4874,0.07624,-0.02655,0.03643
50.4414,9659.5074,0.01393,0.05042,0.01811
50.4657,9659.5274,-0.0386,0.01743,0.01078
50.4836,9659.5474,-0.03616,-0.02349,-0.01855
50.5024,9659.5674,-0.01661,-0.02044,-0.01732
50.5269,9659.5874,-0.01112,0.01682,-0.00083
50.544,9659.6074,0.0237,0.04126,0.01383
50.5629,9659.6274,0.03042,-0.00944,0.02422
50.5855,9659.6474,0.00721,-0.05526,0.03155
50.6036,9659.6674,-0.01295,-0.0296,0.02666
50.6238,9659.6874,-0.03983,0.03637,0.01688
50.6532,9659.7074,-0.00867,0.07302,0.01444
50.6687,9659.7274,0.05608,0.04187,0.02116
50.6889,9659.7474,0.05852,-0.02655,0.04132
50.7047,9659.7674,0.03959,-0.02472,0.04437
50.7233,9659.7873,0.02798,0.03576,0.01139
50.7449,9659.8073,-0.03494,0.07119,-0.01549
50.7643,9659.8273,-0.05388,0.04431,-0.01916
50.787,9659.8473,0.00171,-0.02594,0.00894
50.8021,9659.8673,0.05913,-0.06137,0.03888
50.8248,9659.8874,0.06341,-0.03082,0.01505
50.8434,9659.9074,0.0237,0.04859,-0.01427
50.8631,9659.9274,0.0011,0.03393,0.00589
50.8891,9659.9474,0.01821,-0.04121,0.02544
50.9172,9659.9675,0.05913,-0.04365,0.03093
50.9357,9659.9875,0.03409,-0.01616,0.01688
50.9549,9660.0075,-0.02455,0.01255,0.01566
50.9656,9660.0276,-0.03677,-0.00395,0.02055
50.9836,9660.0476,-0.03127,-0.02838,0.00772
51.0063,9660.0676,-0.01661,-0.02288,0.01078
51.0267,9660.0876,0.02615,-0.00944,0.02238
51.0537,9660.1077,0.03409,-0.00761,0.02299
51.0701,9660.1277,0.00171,-0.00639,0.00222
51.1029,9660.1477,-0.01356,0.02843,-0.00572
51.1071,9660.1678,0.00538,-0.01677,0.02849
51.1259,9660.1878,0.05364,-0.03938,0.05109
51.1433,9660.2078,0.07746,-0.03327,0.03155
51.165,9660.2278,0.02859,0.01499,0.0065
51.1873,9660.2479,-0.02394,0.0266,0.00894
51.2053,9660.2679,-0.03922,-0.01006,0.02788
51.234,9660.2879,-0.02333,-0.04365,0.03032
51.2491,9660.308,-0.0325,-0.00273,-0.00144
51.2661,9660.328,-0.04105,0.06019,-0.02465
51.2853,9660.348,-0.02944,0.04553,-0.01488
51.3142,9660.368,-0.02639,-0.01128,0.00772
51.3234,9660.3881,0.00416,-0.03877,0.01505
51.3433,9660.4081,0.01271,-0.00028,0.012
51.3659,9660.4281,-0.00501,0.04248,0.00039
51.3842,9660.4482,-0.00012,0.04553,0.00772
51.4082,9660.4682,-0.02028,0.00644,0.04376
51.4323,9660.4882,0.01149,-0.03632,0.08041
51.4453,9660.5082,0.03287,-0.01006,0.05965
51.4648,9660.5282,0.0066,0.01499,0.01933
51.4869,9660.5482,-0.00806,0.01438,-0.00022
51.5061,9660.5682,-0.00928,-0.02716,0.0065
51.5276,9660.5881,0.00843,-0.01494,0.001
51.5567,9660.6081,-0.00256,0.03515,-0.01488
51.5637,9660.6281,-0.0044,0.03393,-0.01916
51.5878,9660.6481,0.00049,-0.01677,-0.02893
51.6065,9660.6681,0.0011,-0.04671,-0.01427
51.6235,9660.6881,-0.03127,0.00949,-0.00205
51.6417,9660.7081,-0.05327,0.05653,0.00161
51.6651,9660.7281,-0.03616,0.06447,-0.01121
51.6926,9660.7481,-0.01051,-0.01067,-0.01549
51.7034,9660.7681,-0.00867,-0.07236,0.02055
51.7248,9660.7881,-0.02822,-0.03327,0.03093
51.7444,9660.8081,-0.02761,0.0382,-0.00999
51.7674,9660.8281,0.00171,0.05592,-0.02771
51.79,9660.8481,0.00965,-0.03693,-0.00633
51.812,9660.8681,-0.00501,-0.06259,0.001
51.8238,9660.8881,-0.00989,-0.02655,-0.02343
51.8509,9660.9082,-0.00012,0.01499,-0.03687
51.8668,9660.9282,-0.03127,0.0382,-0.03076
51.8854,9660.9482,-0.06121,-0.00273,-0.00144
51.9061,9660.9683,-0.04227,-0.02594,0.00222
51.9235,9660.9883,-0.02272,-0.03938,-0.00205
51.9452,9661.0083,0.00843,-0.01189,-0.01427
51.9727,9661.0283,-0.01539,0.02171,-0.00694
51.9883,9661.0484,-0.00317,0.00705,0.04132
52.0049,9661.0685,0.01882,-0.01433,0.05842
52.0368,9661.0885,0.02798,0.00705,0.03765
52.0745,9661.1086,0.0066,0.04798,0.0065
52.0861,9661.1287,-0.01173,0.02782,-0.00205
52.0888,9661.1487,-0.01661,-0.01922,0.01872
52.1057,9661.1688,0.01759,-0.03449,0.03643
52.1296,9661.1888,0.03898,0.01499,0.02299
52.1495,9661.2089,0.01149,0.04004,0.01994
52.1671,9661.229,-0.02455,0.00338,0.03582
52.1839,9661.249,-0.03311,-0.03571,0.02116
52.2063,9661.2691,0.00171,0.00827,-0.00938
52.2239,9661.2891,0.04386,0.03759,-0.00572
52.2442,9661.3092,0.04753,-0.00761,0.01994
52.266,9661.3293,0.04264,-0.02288,0.02055
52.2875,9661.3493,0.02798,0.00277,-0.00816
52.3086,9661.3694,-0.00745,0.02171,-0.00755
52.3283,9661.3895,-0.03005,0.00522,0.00039
52.3447,9661.4095,-0.00012,-0.03693,0.00284
52.3637,9661.4296,0.02554,-0.0296,0.00772
52.3902,9661.4496,0.00538,0.00338,0.01261
52.4064,9661.4697,0.02065,0.04004,0.02849
52.4276,9661.4897,0.04386,0.02293,0.02544
52.4497,9661.5097,0.02737,-0.01189,0.01811
52.4704,9661.5298,0.01759,-0.02349,-0.00266
52.4856,9661.5498,0.00293,-0.00211,-0.00938
52.506,9661.5698,-0.01173,0.0101,-0.00266
52.5253,9661.5898,-0.00867,0.00522,0.012
52.5536,9661.6099,0.00232,-0.00578,0.01627
52.5718,9661.6299,-0.01173,0.01316,-0.00083
52.5883,9661.6499,-0.02333,-0.00273,0.00345
52.6064,9661.6699,-0.01784,-0.02227,0.02422
52.6726,9661.6899,0.00965,-0.01677,0.03827
52.6741,9661.7099,0.00843,-0.01006,0.0236
52.6757,9661.7299,-0.02517,0.02232,0.02116
52.6898,9661.7499,-0.02883,-0.00334,0.00772
52.7033,9661.7699,0.00293,-0.00578,-0.00083
52.7236,9661.7899,0.00354,0.00216,0.01688
52.7447,9661.8099,0.01943,0.01071,0.0175
52.767,9661.8298,0.04264,-0.00273,0.00772
52.7849,9661.8498,0.02493,-0.01677,-0.0045
52.807,9661.8698,-0.01845,-0.00456,-0.00938
52.8269,9661.8898,-0.02883,0.00338,-0.00633
52.847,9661.9098,0.01698,-0.00028,0.001
52.8761,9661.9298,0.06524,-0.00883,0.00161
52.893,9661.9498,0.06707,-0.02472,-0.00816
52.9121,9661.9698,0.03775,-0.01433,-0.0161
52.9339,9661.9898,-0.01417,0.00522,-0.0271
52.9454,9662.0098,-0.03494,0.0211,-0.01366
52.9656,9662.0298,-0.03433,-0.00211,-0.00388
52.9901,9662.0498,-0.01967,-0.0296,0.00528
53.0069,9662.0699,-0.00867,-0.0406,0.00589
53.0322,9662.0899,-0.00195,-0.02105,0.01505
53.0482,9662.1099,-0.01906,0.00766,0.01444
53.0681,9662.1299,-0.02761,0.08524,-0.01488
53.0925,9662.15,-0.05082,0.07974,-0.01671
53.1088,9662.17,-0.00684,0.00949,0.00833
53.1258,9662.1901,0.05364,-0.06076,0.03643
53.1455,9662.2101,0.02126,-0.05159,0.03032
53.1686,9662.2302,-0.03922,0.01499,-0.0045
53.1898,9662.2502,-0.05388,0.05286,-0.02099
53.2077,9662.2703,-0.04044,0.0266,-0.00266
53.2292,9662.2904,-0.00379,-0.03082,0.02971
53.2502,9662.3104,0.02615,-0.05037,0.03399
53.2707,9662.3305,0.00965,0.00461,0.03032
53.2931,9662.3506,-0.016,0.0211,0.02666
53.3157,9662.3706,0.00293,0.0156,0.0236
53.3301,9662.3907,0.0347,-0.00273,0.03399
53.3502,9662.4107,0.05241,-0.01616,0.02544
53.3669,9662.4308,0.02798,0.01743,0.00161
53.3882,9662.4509,-0.01784,0.03271,-0.00694
53.4113,9662.4709,-0.08503,0.02721,-0.01305
53.4305,9662.491,-0.06365,0.0437,-0.00266
53.4488,9662.511,0.00843,0.01071,0.00955
53.4709,9662.5311,0.05302,-0.00028,0.03277
53.4909,9662.5512,0.0121,-0.05526,0.04682
53.5116,9662.5712,-0.04044,-0.03205,0.03399
53.5293,9662.5913,-0.01784,0.02537,-0.00266
53.5467,9662.6114,0.01088,0.06386,-0.01671
53.571,9662.6314,0.01271,0.04126,0.01383
53.5882,9662.6514,0.02248,-0.01372,0.05109
53.6099,9662.6715,0.04569,-0.08092,0.06637
53.6266,9662.6915,0.04508,-0.0742,0.04254
53.6576,9662.7115,-0.01784,0.00827,0.001
53.6727,9662.7316,-0.0325,0.07485,-0.01793
53.6891,9662.7516,-0.01051,0.03515,0.00345
53.7098,9662.7716,0.03898,-0.05465,0.03521
53.7288,9662.7916,0.04753,-0.0632,0.03949
53.7543,9662.8116,0.01882,0.02171,0.00894
53.7761,9662.8316,0.01882,0.06203,-0.01549
53.7903,9662.8516,0.00416,0.03209,-0.00938
53.8079,9662.8716,-0.01539,-0.018,0.01505
53.8284,9662.8916,0.02309,-0.01922,0.01078
53.8467,9662.9116,0.05302,-0.01616,0.00833
53.8728,9662.9316,0.0066,-0.02777,0.00833
53.8958,9662.9516,-0.03127,-0.0351,0.02177
53.9091,9662.9716,-0.01295,-0.01494,0.02238
53.9298,9662.9916,0.02859,0.01071,0.0236
53.9477,9663.0116,0.04203,0.00277,0.01872
53.9658,9663.0316,0.0292,-0.02227,0.02422
53.9878,9663.0516,0.00232,-0.02655,0.01933
54.008,9663.0715,0.00599,-0.018,0.01505
54.0299,9663.0915,0.02493,-0.00334,0.0065
54.05,9663.1115,-0.00867,-0.00517,-0.00877
54.0694,9663.1315,-0.01356,0.03332,-0.00877
54.0962,9663.1515,0.00049,0.03271,0.01811
54.1127,9663.1715,0.04203,-0.01494,0.05048
54.1278,9663.1915,0.08723,-0.07908,0.04376
54.1458,9663.2115,0.06646,-0.05526,0.00284
54.1657,9663.2315,0.00904,0.04126,-0.01916
54.1901,9663.2515,-0.03372,0.07669,-0.01488
54.206,9663.2715,-0.01906,0.04309,0.00222
54.2274,9663.2915,0.03287,-0.05831,-0.00266
54.2491,9663.3115,0.05913,-0.09252,0.00955
54.2666,9663.3315,0.01454,-0.05159,0.01383
54.2877,9663.3515,-0.03189,-0.00334,0.00161
54.3175,9663.3715,-0.02455,0.01682,-0.00999
54.3345,9663.3915,0.01637,-0.00028,-0.00327
54.3497,9663.4115,0.03775,-0.01372,0.02483
54.3722,9663.4315,0.03287,-0.03082,0.02971
54.3895,9663.4515,0.01882,-0.03144,-0.00388
54.4069,9663.4716,0.01454,-0.01555,-0.00816
54.4313,9663.4916,-0.00745,-0.00517,0.0175
54.4494,9663.5116,-0.01356,0.02782,0.01078
54.4743,9663.5317,-0.03372,0.03576,0.00955
54.5032,9663.5517,-0.02517,0.01071,0.01261
54.5159,9663.5717,0.01149,-0.03754,0.0346
54.5281,9663.5917,0.04631,-0.0406,0.05109
54.5521,9663.6118,0.04692,0.00461,0.03521
54.5684,9663.6318,0.01454,0.01988,0.01688
54.5876,9663.6518,-0.02089,0.02171,0.01627
54.6105,9663.6719,-0.05265,0.01377,0.00955
54.6326,9663.6919,-0.02517,0.00399,0.0065
54.6532,9663.7119,0.01759,-0.00883,0.02055
54.6781,9663.7319,0.01088,-0.01555,0.01322
54.6883,9663.752,-0.00012,-0.01067,-0.00083
54.7082,9663.772,-0.01784,0.03087,-0.00694
54.7294,9663.792,-0.01722,0.02537,0.00406
54.7505,9663.8121,0.01332,-0.02655,0.01322
54.7727,9663.8321,0.05058,-0.03449,0.01627
54.7981,9663.8521,0.03103,0.00155,0.00161
54.8118,9663.8721,-0.04288,0.06447,0.00406
54.8291,9663.8922,-0.07159,0.01194,0.00345
54.8495,9663.9122,-0.02761,-0.02899,0.00284
54.8691,9663.9322,0.03714,-0.03632,0.01078
54.889,9663.9523,0.05241,-0.00761,0.01811
54.9119,9663.9723,0.01393,0.00216,0.00589
54.9289,9663.9923,-0.01356,0.00461,-0.01305
54.9475,9664.0123,-0.00134,0.00949,-0.0216
54.9758,9664.0323,0.01026,0.03698,-0.00511
54.9885,9664.0523,0.03409,0.01255,0.01627
55.012,9664.0723,0.06769,-0.04732,0.01994
55.0384,9664.0923,0.05669,-0.04915,0.00833
55.0576,9664.1123,-0.00928,-0.01922,0.00406
55.0738,9664.1323,-0.05388,0.01255,0.0065
55.0892,9664.1523,-0.05143,0.00827,-0.01183
55.1132,9664.1723,-0.05754,-0.00578,-0.00938
55.132,9664.1923,-0.02578,0.01132,-0.00511
55.1481,9664.2123,0.02554,-0.01433,0.02544
55.1663,9664.2323,0.05913,-0.03388,0.0346
55.186,9664.2523,0.04875,-0.03877,0.02177
55.2086,9664.2723,-0.04288,-0.00089,-0.01732
55.2272,9664.2922,-0.08259,0.06569,-0.03809
55.2464,9664.3122,-0.01784,0.04309,-0.01549
55.2738,9664.3322,0.07441,-0.0015,0.0175
55.2904,9664.3522,0.07502,-0.06137,0.03155
55.3264,9664.3722,0.00843,-0.03571,0.0175
55.3335,9664.3922,-0.016,0.0101,0.02299
55.3491,9664.4122,0.01943,0.01316,0.03765
55.367,9664.4322,0.0292,0.00033,0.02544
55.3889,9664.4522,-0.00623,0.00461,0.00222
55.4086,9664.4722,-0.00501,0.01255,-0.01305
55.4272,9664.4922,0.02248,-0.00334,-0.00511
55.4489,9664.5122,0.02431,-0.03816,0.00894
55.4688,9664.5322,-0.00745,-0.02349,0.01139
55.4887,9664.5522,-0.04105,0.00461,-0.00083
55.5158,9664.5722,0.0121,0.03209,-0.01121
55.5331,9664.5922,0.0237,0.01866,0.00711
55.5529,9664.6122,0.02065,-0.01372,0.03765
55.5718,9664.6322,0.04325,-0.03571,0.04926
55.587,9664.6522,0.03531,-0.02594,0.02605
55.6083,9664.6722,0.00416,0.00399,-0.00327
55.6333,9664.6922,-0.02578,0.02843,-0.0271
55.6546,9664.7121,-0.03005,0.00827,-0.01305
55.6698,9664.7321,0.01454,-0.018,0.00406
55.6893,9664.7521,0.02431,-0.03632,-0.00144
55.7068,9664.7721,-0.01051,0.02721,-0.00144
55.7307,9664.7921,-0.0215,0.03209,0.02055
55.7595,9664.8121,-0.01967,-0.00211,0.02544
55.7728,9664.8321,-0.00501,-0.01922,0.04193
55.7875,9664.8521,0.02798,-0.00883,0.04376
55.8118,9664.8721,0.04692,-0.02166,0.06026
55.8292,9664.8921,0.03042,-0.02288,0.0517
55.8565,9664.9121,0.02737,-0.00944,0.02116
55.87,9664.9321,0.00721,0.02599,-0.01244
55.8919,9664.9521,-0.05082,0.01927,-0.00938
55.9074,9664.9721,-0.03189,-0.01067,0.00406
55.9329,9664.9921,0.03653,-0.05831,0.01261
55.947,9665.0121,0.07929,-0.05159,0.00528
55.9715,9665.0321,0.04875,0.03209,-0.01732
55.9886,9665.0521,-0.00501,0.06264,-0.00022
56.008,9665.0721,-0.02578,-0.00395,0.02116
56.0385,9665.092,-0.01173,-0.08458,0.02605
56.0546,9665.112,0.0066,-0.0687,0.01078
56.0662,9665.132,-0.01906,0.01194,-0.00755
56.0878,9665.152,-0.00806,0.05592,0.00039
