AppTimestamp(s),SensorTimestamp(s),acc_x,acc_y,acc_z,gyro_x,gyro_y,gyro_z,mag_x,mag_y,mag_z,yaw_deg_ori,yaw_deg_ori_cal,yaw_deg,yaw_error,Quat_w,Quat_x,Quat_y,Quat_z,q_w,q_x,q_y,q_z,quat_angle_error_deg
0.0688,9609.0652,1.3339115113056434,0.2345672253480009,-0.09821250557780559,-0.10194045785736736,0.4890098871646409,-0.39827141713975306,-0.25559993595285313,19.121769649334034,-21.773775746815296,-142.990005,-150.8109444874481,0.0,142.990005,0.3185041436000478,0.194673,-0.36234,-0.85403001,1.0,0.0,0.0,0.0,142.85502814203903
0.0727,9609.0852,1.1094673080312036,0.3154940721443076,0.15222453561084137,-0.1126818254227864,0.5436454287553921,-0.35374636976257023,-0.34702707836181546,19.14158699637343,-21.774844286167006,-142.792603,-150.77357539461863,0.0,142.792603,0.3173715535327949,0.18800899,-0.36207899,-0.85605299,1.0,0.0,0.0,0.0,142.99191632878345
0.0757,9609.1052,0.9684125726282939,0.3955622096461857,0.3658729545433417,-0.11355588131808966,0.5649526618435258,-0.3162210198226397,-0.5243967915612142,19.129789536158086,-21.811267621770142,-142.329239,-150.547939524031,0.0,142.329239,0.3172204579978723,0.179353,-0.36168101,-0.858132,1.0,0.0,0.0,0.0,143.0101740406866
0.076,9609.1252,0.8560531631030863,0.47751906714712167,0.5326012912701827,-0.10483175055707983,0.5492037812679936,-0.2962702288496206,-0.5789870550867793,19.074135639491796,-21.90333819741573,-142.041809,-150.51525919428147,0.0,142.041809,0.3164367791574478,0.172745,-0.36287299,-0.85927302,1.0,0.0,0.0,0.0,143.10485470678012
0.0894,9609.1452,0.8104205958110842,0.5432844485667134,0.6643375424490969,-0.1096665227797151,0.5208109731336766,-0.30463529431786224,-0.5104902155210365,19.052604814351618,-21.982665286874997,-142.064636,-150.6884912831291,0.0,142.064636,0.3145036174645037,0.168327,-0.36414701,-0.86031997,1.0,0.0,0.0,0.0,143.33829951608615
0.1227,9609.1652,0.868977752344219,0.5802539345164712,0.791997028576306,-0.16645023773712814,0.50399630583846,-0.3496759491917823,-0.49260653485962713,19.15032216749281,-21.963941208755745,-142.083084,-150.6629515369858,0.0,142.083084,0.3138768892066755,0.16605499,-0.36291301,-0.86151099,1.0,0.0,0.0,0.0,143.4139481287204
0.1251,9609.1851,1.0167249404529288,0.6409658653657297,0.9322604628179434,-0.2955839122179234,0.5017272597064727,-0.4269697190848653,-0.4643047423086255,19.26961918213259,-21.921767433430958,-142.128693,-150.6410556818135,0.0,142.128693,0.313177208335791,0.16388001,-0.361417,-0.86281002,1.0,0.0,0.0,0.0,143.49838291659947
0.1663,9609.2051,1.2260391471903302,0.7473148244041212,1.0734767339450109,-0.48400386616494473,0.4954013923629962,-0.5060154036209747,-0.3523395146472872,19.319464667163462,-21.92773086847377,-142.2948,-150.86120122246746,0.0,142.2948,0.3105787928905945,0.15945999,-0.36175099,-0.86443597,1.0,0.0,0.0,0.0,143.8117706189446
0.1697,9609.2251,1.4686134601579361,0.9093260426432614,1.1861801882912673,-0.689422777983649,0.4552390489457468,-0.5429827365786918,-0.20965748295790831,19.218428366392686,-22.04988102432237,-142.313934,-151.20039795078335,0.0,142.313934,0.3070996782265646,0.151879,-0.36524299,-0.86557502,1.0,0.0,0.0,0.0,144.23093946616956
0.1863,9609.2451,1.686049487003188,1.0895781452171134,1.2515616682666675,-0.8552788621678584,0.3618769759951196,-0.5014122155508646,-0.05257015337979709,19.01658366510236,-22.249931673080948,-142.145386,-151.54136839611516,0.0,142.145386,0.3039195507306165,0.143636,-0.37113801,-0.86559701,1.0,0.0,0.0,0.0,144.61365339439593
0.2078,9609.2651,1.7978687967367657,1.246396814742286,1.26592820473277,-0.9286441809958526,0.21747535532075143,-0.3638619046512653,0.17673562819823552,18.82573065670203,-22.445305863841472,-141.97963,-151.90314711801935,0.0,141.97963,0.3016652335957522,0.13927899,-0.37811199,-0.86407799,1.0,0.0,0.0,0.0,144.88470320393768
0.2292,9609.2851,1.8990448523200945,1.3712054496477206,1.1948592021040483,-0.8756900107824794,0.05650367192519337,-0.1182163001169497,0.45406257166365727,18.664085240345017,-22.634768939346717,-141.872681,-152.3339066572597,0.0,141.872681,0.2987986738552892,0.13477001,-0.38537499,-0.86257899,1.0,0.0,0.0,0.0,145.22907404091802
0.2439,9609.3051,2.0068588055641188,1.515286573524362,1.0193146793465715,-0.6875430780875135,-0.06678530712429386,0.21201255004775155,0.8081015099914843,18.417600658673415,-22.914990245234147,-141.717407,-152.90068702875087,0.0,141.717407,0.2949896594636156,0.129134,-0.39502299,-0.860385,1.0,0.0,0.0,0.0,145.6861653817871
0.2686,9609.3251,1.890671878022175,1.5975559269374946,0.829508688209323,-0.40209455291411506,-0.10861553611767868,0.5527300181214961,1.18699064780761,18.397292703211104,-23.029277300693924,-141.58551,-153.22725302452687,0.0,141.58551,0.2962639008207039,0.136351,-0.40222499,-0.855483,1.0,0.0,0.0,0.0,145.53331624511085
0.2834,9609.3451,1.6716499491452086,1.6347583719488497,0.6796706413120557,-0.09951505607176442,-0.03804654891463577,0.8342284946250769,1.4633657698527855,18.591753264042378,-22.985416552731326,-141.466003,-153.24979889284407,0.0,141.466003,0.3000683523469268,0.147121,-0.40521199,-0.85095102,1.0,0.0,0.0,0.0,145.07658286213072
0.3026,9609.3651,1.3144630856791697,1.6273957246604995,0.6450137762110018,0.12859912876880436,0.08581475995976862,0.9962342625238669,1.374546453748147,19.09370973584474,-22.710089816618016,-140.925293,-152.3828800695059,0.0,140.925293,0.3092718256384498,0.15980799,-0.40033901,-0.84766799,1.0,0.0,0.0,0.0,143.96929437642666
0.3191,9609.3851,0.8352714542247766,1.6203460110055876,0.7381345636058008,0.22276384132033855,0.1544359487389398,1.035357366642765,0.9450029886435889,19.724133266048216,-22.320991967467066,-139.872467,-150.7265321565049,0.0,139.872467,0.321747761677746,0.16952901,-0.389768,-0.84606099,1.0,0.0,0.0,0.0,142.46268983936773
0.3461,9609.4051,0.2947302160541003,1.6585928230847617,0.9068380516347307,0.18748112983742135,0.06291466412334618,1.0162982339966649,0.4949545710803278,20.2360108427578,-21.998915161069597,-138.7771,-149.07680265141641,0.0,138.7771,0.3322624725188792,0.17332999,-0.379163,-0.84604597,1.0,0.0,0.0,0.0,141.18768795363397
0.3595,9609.4251,-0.1693212450220849,1.7638316387024342,1.036778976295082,0.08230093911679648,-0.21678441188301478,1.0344636851918065,0.25749168260813704,20.494424213660356,-21.872817479976476,-137.962891,-148.0439870310651,0.0,137.962891,0.3376202013662095,0.16995899,-0.37271899,-0.847471,1.0,0.0,0.0,0.0,140.53609992417898
0.3795,9609.4451,-0.6540469176122152,1.8615387610425165,0.9943672925322602,-0.037301437079821254,-0.6026172279767626,1.1481429840765582,0.3171825711234586,20.567654140298558,-21.89443993087294,-137.482376,-147.5748368071539,0.0,137.482376,0.3411802111283697,0.171314,-0.37171599,-0.84621203,1.0,0.0,0.0,0.0,140.10240955325395
0.4008,9609.4651,-1.2708382424336846,1.8083617649781791,0.6831640701254429,-0.12582054790145725,-0.9558253243453237,1.3340621322010073,0.6421438199163063,20.620159518920044,-21.915080987181085,-137.346176,-147.362683254494,0.0,137.346176,0.3467135536496948,0.187704,-0.374522,-0.83921999,1.0,0.0,0.0,0.0,139.4271348045747
0.4227,9609.4851,-1.7193315643408669,1.56750117383787,0.13938698725600496,-0.15167140087702313,-1.161442941723738,1.5366813160193984,0.9084938405860807,20.70447783790089,-21.89855470920064,-137.130997,-146.93983238256197,0.0,137.130997,0.3539474346147735,0.20687699,-0.37679601,-0.83063102,1.0,0.0,0.0,0.0,138.5421022624079
0.4394,9609.5051,-1.9277011264131874,1.1601736663562345,-0.5141722929118924,-0.12334554767057448,-1.1890829251048427,1.7114571732309782,0.9065176013970806,20.84055006905158,-21.843256067030243,-136.42952,-145.87430965992422,0.0,136.42952,0.3639495585205179,0.223676,-0.37596399,-0.82229,1.0,0.0,0.0,0.0,137.3140979321767
0.4608,9609.5251,-1.9867347476937187,0.6526231106363642,-1.1690893261005346,-0.07607299383800503,-1.0737097314752733,1.8362186139474428,0.7046793855685145,20.984947064892125,-21.78617089654758,-135.320602,-144.26423433411313,0.0,135.320602,0.3758619351702683,0.23804601,-0.37275299,-0.81432003,1.0,0.0,0.0,0.0,135.8448085796137
0.4822,9609.5451,-1.9844923753030406,0.1256917330563514,-1.7487796767643395,-0.04338299027751924,-0.870074075932426,1.9065844218107333,0.4230764369680653,21.0506670145345,-21.796475152615532,-133.907089,-142.36194985303467,0.0,133.907089,0.3884983143705256,0.24988499,-0.36920199,-0.806422,1.0,0.0,0.0,0.0,134.27781528269114
0.5009,9609.5651,-1.9624214399767013,-0.3980825334725786,-2.2034844172485695,-0.040175848971020556,-0.6375720975828515,1.919449516456614,0.03459037596643988,21.056158544529488,-21.844052100658867,-132.144363,-140.05406808921924,0.0,132.144363,0.4024062820491496,0.25968099,-0.364627,-0.79855001,1.0,0.0,0.0,0.0,132.54261354988117
0.524,9609.585,-1.9313289047462008,-0.9029659785717596,-2.5190687379200902,-0.07194225579069302,-0.4219572143274991,1.8767922471219998,-0.48244722158877984,21.01640788663841,-21.898799341281524,-130.015991,-137.2656831875128,0.0,130.015991,0.4178589075719925,0.26760599,-0.358531,-0.79071897,1.0,0.0,0.0,0.0,130.60103001713236
0.5544,9609.605,-1.8902533151500651,-1.3516127118057182,-2.7058167546404324,-0.1325737274984582,-0.24348448671591294,1.7912637520359,-1.040376446147702,20.866873070495473,-22.012257383404304,-127.597046,-134.31891369688165,0.0,127.597046,0.4336200659867339,0.27231401,-0.35276499,-0.78318298,1.0,0.0,0.0,0.0,128.60496201279653
0.5685,9609.625,-1.8526196398990837,-1.7335728709877642,-2.7900231555372033,-0.20592665377573882,-0.10462611281049322,1.6831388721488914,-1.5407254186251311,20.567860390098478,-22.22358831715464,-124.985786,-131.5034733960878,0.0,124.985786,0.4488935807789625,0.274351,-0.34920001,-0.77542597,1.0,0.0,0.0,0.0,126.65456124889167
0.5827,9609.645,-1.8225574684526316,-2.068596203081537,-2.7978871955235975,-0.2710772245785641,-0.0008716585432871349,1.573097247223976,-1.9257081922375612,20.157496854445238,-22.502561793613317,-122.366859,-128.99815293230913,0.0,122.366859,0.4628876535666942,0.27463901,-0.348021,-0.76758701,1.0,0.0,0.0,0.0,124.85279988253845
0.5994,9609.665,-1.7672672389278583,-2.3731807583742968,-2.7396923755667526,-0.31006134762404025,0.07467315812516284,1.471312627972992,-2.25870202004538,19.675010098347563,-22.808932586209842,-119.720284,-126.77303960139578,0.0,119.720284,0.4757475131480352,0.27212301,-0.348129,-0.760539,1.0,0.0,0.0,0.0,123.18393660550063
0.62,9609.685,-1.6407720193586943,-2.675195685498558,-2.6298769519521965,-0.3263541957964383,0.12502716658102805,1.3678727474717562,-2.6879980822743637,19.174264556797947,-23.08061733846816,-116.858856,-124.35937800951602,0.0,116.858856,0.4895274700184648,0.26793301,-0.347388,-0.75358897,1.0,0.0,0.0,0.0,121.38094343459055
0.6514,9609.705,-1.4341690052058302,-2.969966827165164,-2.486006443535339,-0.34267375354342006,0.16475803424443672,1.2408828810876473,-3.1467118897022335,18.675511397815328,-23.310916480566526,-113.928741,-121.80237842546214,0.0,113.928741,0.5038767517398671,0.26393601,-0.34618199,-0.746059,1.0,0.0,0.0,0.0,119.48636601411938
0.6752,9609.725,-1.1788736945699738,-3.231721107753158,-2.3109880030654963,-0.3790443140862694,0.21937250874673997,1.0788820417268843,-3.443860119957236,18.19204661150832,-23.525781421575402,-111.298164,-119.59119663024977,0.0,111.298164,0.5163971556180368,0.26087001,-0.346221,-0.73852003,1.0,0.0,0.0,0.0,117.81822276808647
0.6839,9609.745,-0.9043334470268563,-3.4251036518548146,-2.073502467669674,-0.434476188951503,0.3088217594371007,0.8932407164275571,-3.544351681045434,17.676445852600303,-23.779039686907716,-108.911842,-117.93816402965359,0.0,108.911842,0.5264973738423201,0.256964,-0.34860101,-0.73160601,1.0,0.0,0.0,0.0,116.46179894691053
0.7179,9609.765,-0.6320773526912933,-3.516622140083765,-1.7287800381116298,-0.4922114677155768,0.4286950764695124,0.7088293420846628,-3.542746033912051,17.05135522666752,-24.110689010683195,-106.493858,-116.81583734319881,0.0,106.493858,0.5349534113613066,0.24911401,-0.35344699,-0.72583902,1.0,0.0,0.0,0.0,115.31849611598366
0.7253,9609.785,-0.3895685594970164,-3.5288793932555373,-1.272362883560092,-0.5417441079676323,0.5461769841182877,0.5449639710084959,-3.5179618850950405,16.383535570015052,-24.448749019920484,-104.15992,-116.03629607928504,0.0,104.15992,0.5422314990425767,0.23779801,-0.358899,-0.72154599,1.0,0.0,0.0,0.0,114.32864751920265
0.7404,9609.805,-0.1879575786540375,-3.519346734113026,-0.7363937870159916,-0.5871558773466337,0.6221727424404903,0.4028919169821702,-3.5179145710400785,15.805733690235021,-24.696242024874834,-102.117851,-115.26357803066976,0.0,102.117851,0.5490414889148724,0.22615699,-0.36261401,-0.718274,1.0,0.0,0.0,0.0,113.39744014559501
0.7661,9609.825,-0.02468109350877956,-3.4862520504165078,-0.14977732958952394,-0.632433605569043,0.6360053347457884,0.2618257256247095,-3.501450432832044,15.277109715977698,-24.896434781899984,-100.275063,-114.54325777859864,0.0,100.275063,0.555340195522744,0.214496,-0.365787,-0.71539402,1.0,0.0,0.0,0.0,112.53170040046884
0.7793,9609.845,0.12427733500362237,-3.3943531465882173,0.44638395038842127,-0.6734061415569891,0.586120506950536,0.09255793698281495,-3.4325679847170125,14.692572710435805,-25.127036656746046,-98.388519,-113.95482471365874,0.0,98.388519,0.5611598601184156,0.20201001,-0.37041599,-0.712098,1.0,0.0,0.0,0.0,111.72790438992232
0.7997,9609.865,0.2659621943264021,-3.2362149552213704,0.9855310230142678,-0.7036471061372062,0.48755774586379225,-0.12481859726571859,-3.24850089780052,14.074339487677364,-25.38818381181204,-96.572281,-113.62795527569025,0.0,96.572281,0.5656695316561777,0.18961699,-0.37693101,-0.70850998,1.0,0.0,0.0,0.0,111.10240458404243
0.8219,9609.885,0.37742061488305456,-3.0382956633398295,1.4051385849975908,-0.7218892269604106,0.36602055000792016,-0.39142785316484063,-2.888944816847969,13.550881122306462,-25.62276248890955,-95.186325,-113.70199711440041,0.0,95.186325,0.5676572267742215,0.179373,-0.384271,-0.705639,1.0,0.0,0.0,0.0,110.82596380272867
0.846,9609.905,0.43712844014047647,-2.7868135382514136,1.6904604530560263,-0.7278333329336846,0.24488949375790783,-0.686396710304382,-2.356928115194018,13.14000817312801,-25.824632703726436,-94.408577,-114.36040800272082,0.0,94.408577,0.5661979861384174,0.170248,-0.39218,-0.70472002,1.0,0.0,0.0,0.0,111.02895395268794
0.8601,9609.925,0.4559030813361433,-2.4258931654084788,1.8631111002546703,-0.7180963472561556,0.1289013730520321,-0.9715965306055181,-1.743803924057989,12.718528027941211,-26.041076130268547,-94.07103,-115.61294277842447,0.0,94.07103,0.561502267937343,0.15879001,-0.401292,-0.70602101,1.0,0.0,0.0,0.0,111.68049325321493
0.8837,9609.9451,0.4369300274329353,-1.9641013240999392,1.9350609905726337,-0.6849407109707394,0.013126253021713247,-1.2136856066840884,-1.107935696584546,12.265877011080626,-26.26540391982969,-94.051277,-117.26652752295756,0.0,94.051277,0.554255825221729,0.145116,-0.41133901,-0.708902,1.0,0.0,0.0,0.0,112.68105368501405
0.902,9609.9651,0.35791367417884157,-1.4749858346620457,1.9065174132313203,-0.619391277578172,-0.09806878772843217,-1.4033385787623553,-0.4465212669720078,11.899908176974776,-26.431696294002805,-94.275192,-119.0258334062482,0.0,94.275192,0.5456819595181976,0.133486,-0.42117399,-0.71205699,1.0,0.0,0.0,0.0,113.85744262939811
0.9279,9609.9851,0.2094602449221128,-0.9904284126415321,1.7892391379098704,-0.5222156717403458,-0.19449835052257386,-1.5470082285879734,0.26108631389282166,11.668568996731873,-26.513380136767555,-94.749451,-120.8973013639912,0.0,94.749451,0.5359056089159544,0.12535,-0.43062899,-0.715298,1.0,0.0,0.0,0.0,115.18930311414621
0.9528,9610.0051,0.043604668551507686,-0.5070517653425987,1.603845580384359,-0.4119938564492326,-0.2765942105168493,-1.6484514075163856,0.9417472163339315,11.554466362068405,-26.52096253371897,-95.602829,-122.90379544006252,0.0,95.602829,0.5246730596302613,0.118192,-0.43904999,-0.71971101,1.0,0.0,0.0,0.0,116.70752720687949
0.9694,9610.0252,-0.08477399522370899,-0.03375492810124703,1.372161803318157,-0.31073708420645374,-0.3585467751112408,-1.7082236430054092,1.5118296918751781,11.558245865851516,-26.470431092489036,-96.879646,-124.90089761239038,0.0,96.879646,0.5124885092949496,0.110478,-0.44543999,-0.72576398,1.0,0.0,0.0,0.0,118.34053856152927
0.9852,9610.0453,-0.16828432689320572,0.41087706391758505,1.1074764833863995,-0.22874502382233164,-0.45430686287148303,-1.732116725727948,1.9874999331630576,11.668868764518368,-26.381058150486723,-98.440483,-126.82150492061223,0.0,98.440483,0.4998961839403257,0.103086,-0.45015499,-0.732692,1.0,0.0,0.0,0.0,120.01373635513967
1.0085,9610.0653,-0.2430826312235288,0.8233668049574283,0.8100736890991378,-0.16247591187334276,-0.5651649985480421,-1.7354317445694927,2.4813888209628328,11.810544249540785,-26.284873600024298,-100.04052,-128.83517327580296,0.0,100.04052,0.4865759503467468,0.097643,-0.45546001,-0.73909801,1.0,0.0,0.0,0.0,121.7684478463002
1.0279,9610.0854,-0.3253151871034001,1.1654033216792388,0.48254297682216674,-0.10545136137879851,-0.6739580363964003,-1.7391766205162686,2.9762447660337124,12.021305385839677,-26.16605496204143,-101.577347,-130.86927611447177,0.0,101.577347,0.4734633967048974,0.09592,-0.461202,-0.74426103,1.0,0.0,0.0,0.0,123.48130198084404
1.0445,9610.1055,-0.3774728164818715,1.4316661574916294,0.13840220148012783,-0.06088355644541976,-0.7690687353924414,-1.7541805792751788,3.3631223063004896,12.312531610422791,-26.029704656698243,-103.244987,-132.88762935765956,0.0,103.244987,0.460286178209513,0.095543,-0.466299,-0.74938202,1.0,0.0,0.0,0.0,125.18884879986213
1.0649,9610.1255,-0.3811207766220859,1.6425826503982937,-0.20851783312702565,-0.027224157564493368,-0.8543172846464803,-1.7736627577303343,3.595641320109518,12.67131900196603,-25.887944255879436,-105.223083,-134.96016838074502,0.0,105.223083,0.4460624987433258,0.094484,-0.47056299,-0.75542802,1.0,0.0,0.0,0.0,127.01732562802518
1.0959,9610.1456,-0.33023186921135084,1.8106637367326075,-0.5541899415773699,0.005638349348439986,-0.9383280219366055,-1.783639221910928,3.6630355428368233,13.094007205601173,-25.747534152934836,-107.496727,-137.09391062463953,0.0,107.496727,0.4306609774945948,0.092595,-0.474222,-0.76227999,1.0,0.0,0.0,0.0,128.98097050537112
1.1046,9610.1656,-0.2216926317558925,1.9234625065914137,-0.9022473122437837,0.05388546964873364,-1.0186360695464578,-1.7823224840939549,3.5959042830021293,13.594492612997364,-25.60254595267116,-110.007523,-139.272049019993,0.0,110.007523,0.4145219307144797,0.091202,-0.477386,-0.76938701,1.0,0.0,0.0,0.0,131.0215724132143
1.124,9610.1857,-0.05723433656035626,1.9781716086286039,-1.2537900712695418,0.13373794368449266,-1.0793560048319857,-1.7848570739710392,3.443524116450673,14.146544900527086,-25.46072208471731,-112.598175,-141.446286513568,0.0,112.598175,0.3986179069929491,0.091883,-0.48036999,-0.77582598,1.0,0.0,0.0,0.0,133.01638887512038
1.1437,9610.2058,0.16153394831619305,1.9928751791723889,-1.5887976823276055,0.2475960639733985,-1.0962032272339037,-1.8105512317818078,3.280724663041994,14.719464591307691,-25.316342570592347,-115.400223,-143.65939165485239,0.0,115.400223,0.3828145209421126,0.095122,-0.482851,-0.78183103,1.0,0.0,0.0,0.0,134.98374021137093
1.1626,9610.2258,0.4364556663757746,2.014307986977296,-1.8656021921421457,0.37580455800542845,-1.0553439213307034,-1.8600952266377082,3.1640241089258243,15.276375732523595,-25.157282670608502,-118.693939,-145.97673467801977,0.0,118.693939,0.3660734106050309,0.099658,-0.48417199,-0.78843898,1.0,0.0,0.0,0.0,137.0526856763791
1.1835,9610.2459,0.7782667020770324,2.0673349873102684,-2.0352935828877925,0.4824966715319172,-0.9616086204977421,-1.9106949737511187,3.085059364102433,15.840443962995195,-24.951846792280158,-122.726898,-148.3342674457307,0.0,122.726898,0.3476474777185354,0.103236,-0.48278701,-0.79711998,1.0,0.0,0.0,0.0,139.31301664186708
1.2014,9610.2659,1.1809521003434154,2.147677838925043,-2.0752880705002585,0.5444445562079923,-0.8377141710388414,-1.9248737534114881,3.021168516135887,16.3980334999875,-24.717070753954275,-127.220886,-150.58130394537028,0.0,127.220886,0.3281621093667258,0.104507,-0.47848099,-0.80773997,1.0,0.0,0.0,0.0,141.685478164604
1.221,9610.286,1.5922331414251307,2.234189824462211,-2.0008405594182346,0.5774342973985243,-0.7103692771105206,-1.8682321815965486,3.0506007254479623,16.8501776876015,-24.52862969211048,-131.695251,-152.77924913049446,0.0,131.695251,0.3082958559725703,0.104716,-0.47372901,-0.81827199,1.0,0.0,0.0,0.0,144.08687833292126
1.2476,9610.3061,1.964671365298985,2.302195436327536,-1.849797873037355,0.6179036413117309,-0.5936112543258537,-1.7297353328533367,3.197857122936812,17.114345095421466,-24.449838380510755,-135.781128,-154.94640514316706,0.0,135.781128,0.2890757910695388,0.10519,-0.47086,-0.82683802,1.0,0.0,0.0,0.0,146.39473384761453
1.2762,9610.3261,2.2786298565456176,2.3069580462233623,-1.646215186874585,0.6914542031280064,-0.47857785780248535,-1.5261538097242862,3.3890821270392095,17.302438688075704,-24.399340778890373,-139.530319,-156.95438810872213,0.0,139.530319,0.2716643944358918,0.106946,-0.468391,-0.83388901,1.0,0.0,0.0,0.0,148.47333590298004
1.287,9610.3462,2.5262187151483992,2.2285567070503807,-1.3952596056892617,0.7962243389056413,-0.3546820672763311,-1.2848943570426998,3.5498530446728687,17.57233877558305,-24.25382829087212,-143.074646,-158.67993409599475,0.0,143.074646,0.256890250914626,0.110781,-0.46366701,-0.84068298,1.0,0.0,0.0,0.0,150.22875936846606
1.3129,9610.3663,2.7252637687601946,2.086247440072894,-1.1044759738460588,0.9044773174086207,-0.22591737397084347,-1.030795031562934,3.6604365346403203,17.972623962334087,-23.966367242532833,-146.420151,-160.1095221361102,0.0,146.420151,0.2442164103697771,0.115511,-0.45568299,-0.84815598,1.0,0.0,0.0,0.0,151.72893848635132
1.3274,9610.3863,2.878472630906425,1.9558074702893617,-0.7870182087997755,0.9884001224708221,-0.09970691635609588,-0.7776104865214495,3.673142248938138,18.43036739836343,-23.598343403938838,-149.176743,-161.16451745997495,0.0,149.176743,0.2346513871563509,0.120817,-0.445999,-0.85523498,1.0,0.0,0.0,0.0,152.85785172424258
1.3409,9610.4064,2.980952576742765,1.8804745717888776,-0.4425573228701474,1.029522296144525,0.018895741285417558,-0.5270580803743181,3.6768224256469804,18.880362983180422,-23.203005201075374,-151.50943,-162.05131741575116,0.0,151.50943,0.2266726409796284,0.12636399,-0.436349,-0.86154002,1.0,0.0,0.0,0.0,153.79749003031017
1.3632,9610.4264,3.02703097514676,1.8575335415156378,-0.06268021544488,1.0176652648118054,0.13063361974890558,-0.2752002559820696,3.6749019955625624,19.34832023457443,-22.775876672598137,-153.506943,-162.7917928836483,0.0,153.506943,0.2200628679145108,0.132314,-0.42645401,-0.86729598,1.0,0.0,0.0,0.0,154.57454889009946
1.3876,9610.4465,3.024047583756455,1.8739347994867774,0.3513053606711978,0.9493827679515767,0.23280256044989622,-0.020874402387512772,3.5586841760642125,19.839751687618296,-22.336371453131097,-154.90007,-163.1677481737907,0.0,154.90007,0.2163184914306675,0.13808,-0.41572601,-0.87253201,1.0,0.0,0.0,0.0,155.0142164118527
1.4046,9610.4666,2.9387746981701013,1.931364780977776,0.7995262112747206,0.8309867727145944,0.3148209877968497,0.23637979053655783,3.3540448703894636,20.270176264285166,-21.96046687306194,-155.726685,-163.23728794653238,0.0,155.726685,0.2154174980830938,0.144114,-0.40559101,-0.87654001,1.0,0.0,0.0,0.0,155.11995571076946
1.424,9610.4866,2.7725424663162688,2.021720829629163,1.2689548641087995,0.6745351391127634,0.36468158955522795,0.4928871660711551,3.0232903691019377,20.59542279875844,-21.698357732469734,-155.919113,-162.94161543570854,0.0,155.919113,0.2177520532855194,0.14989699,-0.396595,-0.87910599,1.0,0.0,0.0,0.0,154.84593101627954
1.4418,9610.5067,2.537937162682723,2.0991979576819553,1.7455753256267599,0.49446011356715414,0.368767156143555,0.7491766470339578,2.601131438501702,20.841588435776277,-21.51221142817693,-155.712234,-162.38966722920543,0.0,155.712234,0.2220814697921454,0.155173,-0.388091,-0.88090098,1.0,0.0,0.0,0.0,154.3373655867797
1.4617,9610.5267,2.2350549296713993,2.1502285015922356,2.198138947156142,0.3023494885308491,0.3230606794087934,1.0040063039649003,2.1164234521716505,20.98818322757967,-21.405311594787673,-155.199631,-161.63947479768737,0.0,155.199631,0.2281810017965997,0.160565,-0.38042599,-0.88171899,1.0,0.0,0.0,0.0,153.61999332226367
1.4842,9610.5467,1.8765850117783782,2.190413411646614,2.571208159618056,0.10843074736911407,0.2376398714075324,1.2467355967413645,1.5807403916738014,20.97315148323854,-21.4282654195594,-154.297638,-160.66268493612233,0.0,154.297638,0.2365514200049525,0.166099,-0.37472001,-0.88093102,1.0,0.0,0.0,0.0,152.63381733799687
1.5022,9610.5667,1.4343827859257328,2.19388744785942,2.819069585767398,-0.08727245295547759,0.12585062543663694,1.4628231956704858,1.021731307913436,20.84911284000326,-21.523282574692743,-153.052048,-159.4180573800367,0.0,153.052048,0.2480118022654962,0.174308,-0.37019899,-0.87809998,1.0,0.0,0.0,0.0,151.28021596178436
1.5221,9610.5868,0.9970354011345814,2.130252131557012,2.8912080717093573,-0.27953462840494153,-0.0011508905377211054,1.6436603219350139,0.46052512231864284,20.676016870134657,-21.632962902962138,-151.532181,-157.91435618094158,0.0,151.532181,0.2614421681793121,0.183301,-0.36576101,-0.87422401,1.0,0.0,0.0,0.0,149.6886949629289
1.5599,9610.6068,0.6371005121391233,2.0275600062533714,2.7530807201209004,-0.46255273312999723,-0.12564565998991262,1.7983392590335412,-0.06517946288037102,20.447174035869413,-21.767649706736336,-149.797592,-156.24178592815304,0.0,149.797592,0.2757759724652596,0.191522,-0.36206201,-0.86958498,1.0,0.0,0.0,0.0,147.98347523221747
1.5893,9610.6268,0.32810010633587483,1.9183997149216587,2.4017142225333004,-0.631428859989617,-0.2238765631712285,1.9463295162912708,-0.46391126181104525,20.144832916365317,-21.950322613032,-148.020493,-154.58667735407616,0.0,148.020493,0.2903041446509155,0.20040099,-0.36047101,-0.86349499,1.0,0.0,0.0,0.0,146.24766881370775
1.5939,9610.6469,0.05666237930008178,1.7897150419867334,1.8722975856525483,-0.7666550702913804,-0.2738950839899269,2.105679713843874,-0.7306982223714265,19.794265264489198,-22.166158625019076,-146.210983,-152.9585624519458,0.0,146.210983,0.3049571357030677,0.21008401,-0.36084899,-0.85595202,1.0,0.0,0.0,0.0,144.48882978555022
1.6082,9610.6669,-0.1842799599329905,1.6305002322256401,1.235319752102109,-0.8402995828665775,-0.26196918128105606,2.283970843467313,-0.9775658578247484,19.389448675297132,-22.421934001461473,-144.012878,-151.07873223558093,0.0,144.012878,0.3214104942692429,0.219459,-0.36266199,-0.84676403,1.0,0.0,0.0,0.0,142.50350587503934
1.6245,9610.6869,-0.41810116419019305,1.4259885268239287,0.5832753885057542,-0.8387418200855344,-0.1907730846203327,2.4720279940005607,-1.27679474039323,18.94153545966836,-22.700415423932018,-141.173737,-148.71322920992935,0.0,141.173737,0.3407446995059782,0.22766,-0.36489901,-0.83600998,1.0,0.0,0.0,0.0,140.1554966524773
1.6447,9610.7069,-0.663562751500824,1.150007306279862,0.003441835989235642,-0.779789400701971,-0.08152393075151065,2.646012966677344,-1.598236394835551,18.552156353496486,-22.90803099482828,-137.879623,-145.85904663511894,0.0,137.879623,0.3619816166908473,0.23452599,-0.36540401,-0.82489198,1.0,0.0,0.0,0.0,137.55611227804772
1.6635,9610.727,-0.9459314428639267,0.797467447195968,-0.45460388516262995,-0.7147626736192848,0.035140899415098126,2.7748486691352783,-1.8714936017276056,18.33293435242389,-22.951882479376316,-134.467178,-142.55539809027948,0.0,134.467178,0.3841491436914832,0.24144299,-0.36240199,-0.814125,1.0,0.0,0.0,0.0,134.8181435643266
1.6922,9610.747,-1.282560374817428,0.401451388058661,-0.7873580904050428,-0.7008222469562028,0.13734534133673504,2.831065898139265,-2.057778263581552,18.27880779299526,-22.833115392700925,-130.981445,-138.76495628314024,0.0,130.981445,0.4073924326286135,0.24928901,-0.35637999,-0.80304402,1.0,0.0,0.0,0.0,131.91772717399297
1.709,9610.767,-1.6680703014048452,0.03259410523980666,-1.015320406630421,-0.7648278693279793,0.2210354546103539,2.8022454309432474,-2.155008313906409,18.227572359076927,-22.676009543589707,-127.098747,-134.55357218934472,0.0,127.098747,0.4320164413749079,0.25596201,-0.35069001,-0.79048198,1.0,0.0,0.0,0.0,128.80880640216822
1.7285,9610.7871,-2.084656254706187,-0.3264125307358705,-1.1636209151558674,-0.8937985973835317,0.25700271943073993,2.7046037334914024,-2.1893688989756015,18.193333391076095,-22.46991295683917,-122.947502,-130.1167131898383,0.0,122.947502,0.4569216687177561,0.26035601,-0.34548101,-0.77722597,1.0,0.0,0.0,0.0,125.62270780073686
1.7472,9610.8071,-2.495168217722737,-0.6875335279861496,-1.2696411852538887,-1.0412556771157968,0.22981346712435552,2.5808472376217306,-2.148445834105779,18.166481482625855,-22.23624962267962,-118.816803,-125.90585806780553,0.0,118.816803,0.4801310234861308,0.26120001,-0.34141201,-0.76464802,1.0,0.0,0.0,0.0,122.61208057398845
1.7636,9610.8271,-2.8412212892817,-1.0090561336227066,-1.3771080594190437,-1.1485117875227426,0.1690814323395704,2.4726693867729974,-2.0445763360062887,17.97458506939105,-22.126091370449778,-114.490044,-122.2099960561566,0.0,114.490044,0.501555180427617,0.25665501,-0.341221,-0.75242198,1.0,0.0,0.0,0.0,119.79411328572293
1.7883,9610.8471,-3.093619120943062,-1.356050967660107,-1.5497694502213868,-1.1913161691983656,0.09978818003823381,2.387759376063519,-1.9589787357816206,17.637952938665684,-22.117439068915022,-109.801239,-118.47886743193074,0.0,109.801239,0.5234495177640914,0.25178999,-0.343629,-0.73791701,1.0,0.0,0.0,0.0,116.87215183651126
1.8049,9610.8672,-3.2169144875253326,-1.785451118269168,-1.8208963263329547,-1.175219455530725,0.05881321432036479,2.305315763684853,-1.88525750782253,17.296896575184064,-22.108190588751878,-105.13401,-114.55180675039175,0.0,105.13401,0.5452520803436144,0.25005999,-0.34599599,-0.72142702,1.0,0.0,0.0,0.0,113.91621679525542
1.8223,9610.8872,-3.185819453644234,-2.2635987219777802,-2.14686215728591,-1.1234403507217567,0.08019681735262325,2.2063026848326515,-1.826161751540191,17.006033031995187,-22.07769252156939,-100.839996,-110.67127563338288,0.0,100.839996,0.565579967451164,0.24948201,-0.34683499,-0.705396,1.0,0.0,0.0,0.0,111.11485003760767
1.8519,9610.9072,-3.0215872068593264,-2.73814099389019,-2.436562378861355,-1.0574797670613498,0.15754784478191747,2.090257894072295,-1.889620578177892,16.706847698671577,-22.06494626264562,-96.745934,-106.80473086756385,0.0,96.745934,0.5853886148838897,0.24715599,-0.34587401,-0.69036603,1.0,0.0,0.0,0.0,108.33910276709382
1.8693,9610.9273,-2.7762068851655726,-3.1412486698760924,-2.592468432871197,-0.9737152340074327,0.266918645892947,1.9722395298220667,-2.0937491452130104,16.253120537852354,-22.159939758577963,-92.714043,-103.34589158789792,0.0,92.714043,0.6044772191869923,0.238902,-0.34513,-0.67706603,1.0,0.0,0.0,0.0,105.61753531668887
1.8836,9610.9473,-2.4994376022388565,-3.4817163079866265,-2.584809352994565,-0.867737404874543,0.3706024715782566,1.8590249724846584,-2.378573460570168,15.632147236877787,-22.368005305313538,-88.764259,-100.29018513258632,0.0,88.764259,0.6227334031879611,0.22648001,-0.34560099,-0.66443199,1.0,0.0,0.0,0.0,102.96796405985951
1.9039,9610.9673,-2.194110680271604,-3.8302938450002597,-2.4524119213151288,-0.7527550640269252,0.4393959938840818,1.7449422910145596,-2.690019062473395,15.046398458353488,-22.56417969760563,-85.145943,-97.2167528110329,0.0,85.145943,0.640164289178114,0.216489,-0.34531701,-0.65121299,1.0,0.0,0.0,0.0,100.39185755904771
1.9261,9610.9873,-1.8440947389614952,-4.139613610493995,-2.1935807192847996,-0.6429433892623823,0.4939302405167297,1.6132364568024666,-2.9570871643350056,14.511421907347192,-22.76075448371099,-82.084602,-94.55341589743617,0.0,82.084602,0.6551956091338369,0.207517,-0.34496301,-0.63926202,1.0,0.0,0.0,0.0,98.13103252189545
1.9445,9611.0074,-1.4157234376006094,-4.368778157540147,-1.7947322337266662,-0.5594386183248555,0.5476938905357458,1.4374149131919889,-3.2590226972397485,13.98577738123136,-22.969079335756753,-79.366394,-92.18577061302429,0.0,79.366394,0.6688718293513186,0.197924,-0.34453899,-0.62827498,1.0,0.0,0.0,0.0,96.03989668366688
1.974,9611.0274,-0.9020015418937799,-4.529429328221787,-1.2662886124121577,-0.5216264958142642,0.5906516273369908,1.1946381789648701,-3.6564002008028798,13.522631412198308,-23.128436907130933,-76.825424,-89.74426605789135,0.0,76.825424,0.6824207971347152,0.18945,-0.343014,-0.61705101,1.0,0.0,0.0,0.0,93.93379295239384
1.9828,9611.0474,-0.3840460413587934,-4.58043043490274,-0.597850475749997,-0.5208846617913684,0.6140391737479878,0.8802290110094466,-3.999814174671859,13.089277248262409,-23.26156819513006,-74.677689,-87.8143119244715,0.0,74.677689,0.6936111015680904,0.180612,-0.34260201,-0.60737699,1.0,0.0,0.0,0.0,92.16671394304859
2.0101,9611.0675,0.08714420493583663,-4.459295586710431,0.21592719057555243,-0.5214316470183722,0.6000914296141268,0.5179785649524631,-4.2382864525462125,12.590469084979917,-23.423677685028153,-73.004646,-86.76270931890151,0.0,73.004646,0.7015979729484684,0.16825899,-0.34468901,-0.600532,1.0,0.0,0.0,0.0,90.88929878869276
2.0246,9611.0875,0.4898361852722024,-4.148748658820271,1.1107420012059706,-0.49189594488413757,0.5231414092736482,0.1473760234051507,-4.33711551500677,12.034674449684623,-23.62208246784877,-71.882545,-86.59543545416902,0.0,71.882545,0.7061985266995388,0.152309,-0.34900999,-0.59688997,1.0,0.0,0.0,0.0,90.1470945720991
2.0506,9611.1075,0.8082162283221672,-3.724266848059501,1.95636044440956,-0.42993932901932475,0.3677827440411313,-0.19919525529345836,-4.2389259422160555,11.575963919434713,-23.799657641801552,-71.315598,-86.98094374117666,0.0,71.315598,0.7076987261325959,0.137254,-0.35401401,-0.59581703,1.0,0.0,0.0,0.0,89.90403101760397
2.072,9611.1275,1.0297567791930673,-3.275462373037673,2.6355902244109295,-0.3566708412232758,0.14448232089747698,-0.5105811872726673,-3.8964530024139785,11.324039990474848,-23.91926913799846,-71.340836,-87.81249659400113,0.0,71.340836,0.7060864325240215,0.125825,-0.35868701,-0.59745598,1.0,0.0,0.0,0.0,90.16523550529088
2.1049,9611.1476,1.156054346063466,-2.7809277309128575,3.0963825498096895,-0.30214430117720537,-0.12515686510150603,-0.79087379564788,-3.316551126181799,11.141700599943567,-24.04072563330702,-71.653938,-89.04416679012662,0.0,71.653938,0.7019814622586407,0.116396,-0.36463299,-0.60059702,1.0,0.0,0.0,0.0,90.82761207184988
2.1132,9611.1676,1.16901636625676,-2.2713474609948894,3.3155771543034867,-0.28746551962332473,-0.4127923637824098,-1.0445519500117009,-2.487070401227972,11.01111118639403,-24.157716308309034,-72.199409,-90.73468025666672,0.0,72.199409,0.6950874384903812,0.109469,-0.37254599,-0.60504502,1.0,0.0,0.0,0.0,91.93162932707841
2.1251,9611.1876,1.0858301669177415,-1.7713736218436524,3.317546971862658,-0.3200160352434933,-0.6916548968945281,-1.2742115774474718,-1.472153032000806,10.920738550639062,-24.246458985770204,-72.977745,-92.89167505505307,0.0,72.977745,0.685484556921642,0.104807,-0.38214701,-0.610811,1.0,0.0,0.0,0.0,93.45254654432786
2.1456,9611.2077,0.9442806085887021,-1.2615600326644252,3.1629676637586464,-0.39098220077832646,-0.9498328654569758,-1.4783472865950682,-0.39205230087701004,10.794451164483592,-24.31726661151935,-73.852531,-95.4220312532454,0.0,73.852531,0.6738949337121328,0.100756,-0.39345601,-0.617176,1.0,0.0,0.0,0.0,95.26321170417972
2.1616,9611.2276,0.7722444328176854,-0.7505601850170056,2.9110926901722536,-0.47620542139043875,-1.1856478402930164,-1.654648649527624,0.6220297085239554,10.62774678810917,-24.369362936902874,-74.735138,-98.17390889735191,0.0,74.735138,0.6611165026420229,0.096667,-0.405866,-0.62358099,1.0,0.0,0.0,0.0,97.2298413739612
2.1832,9611.2476,0.5495065921799522,-0.2521420487780943,2.6037996997948554,-0.5418120663144165,-1.40135318480155,-1.8008331159765187,1.5181447270911637,10.452358007810693,-24.40576530321956,-75.561569,-101.15774867169743,0.0,75.561569,0.6470541781486767,0.093086,-0.41971901,-0.62967598,1.0,0.0,0.0,0.0,99.36026803957068
2.2067,9611.2676,0.2649218485870266,0.20120270942499552,2.256153276428286,-0.5587259699799332,-1.5943806936560798,-1.9137158371742866,2.2320470791846567,10.360260086973467,-24.41936100923334,-76.375847,-104.40748375654434,0.0,76.375847,0.6314722861628841,0.091158,-0.43465099,-0.63561898,1.0,0.0,0.0,0.0,101.68234228071988
2.2276,9611.2876,-0.05337219861695974,0.5901110634489535,1.8639119895684217,-0.5120477177579911,-1.761471313478336,-1.9837911458307007,2.659795182252992,10.416775925796403,-24.436090445467112,-77.273933,-107.93654639426846,0.0,77.273933,0.6142945067712063,0.090755,-0.44995701,-0.64182901,1.0,0.0,0.0,0.0,104.19864846978862
2.244,9611.3076,-0.3610916066681096,0.928514746618371,1.4091887620511052,-0.39732598906798866,-1.9066480179557517,-1.9965243279844778,2.731213586444481,10.590775413378257,-24.52996625256122,-78.18084,-111.71310665751443,0.0,78.18084,0.595725360863326,0.090664,-0.46588299,-0.64795399,1.0,0.0,0.0,0.0,106.87128255965449
2.2692,9611.3276,-0.6246224463348033,1.190914354115029,0.8732725800113244,-0.2188767906105249,-2.029888310512682,-1.9536853281345867,2.473773989265535,10.900646388528793,-24.725820365724143,-79.051941,-115.61952546621846,0.0,79.051941,0.5763111515604049,0.091723,-0.481857,-0.65365601,1.0,0.0,0.0,0.0,109.61699051844658
2.2859,9611.3476,-0.8037174718731297,1.3336242022311966,0.25435819226276557,-0.010749979581821778,-2.1262440035346435,-1.8785887225039994,1.9968525270703772,11.40313618651724,-24.971303789784745,-80.223351,-119.61493651894085,0.0,80.223351,0.5559761652469464,0.094906,-0.49601001,-0.66019499,1.0,0.0,0.0,0.0,112.44404606310465
2.3058,9611.3676,-0.8702068576601567,1.3468354554476978,-0.4298871441592329,0.17480290613776506,-2.1973607447588774,-1.8035613211233095,1.3890689656465227,12.132243914976847,-25.174687047134285,-81.965866,-123.52645427245606,0.0,81.965866,0.5353869040776951,0.100834,-0.50660503,-0.66824001,1.0,0.0,0.0,0.0,115.25969180271835
2.3259,9611.3876,-0.8219848734224229,1.2732741952517275,-1.1531900260093622,0.2828919949103764,-2.2536535689772075,-1.75341088831744,0.7586128020351133,13.01911888503654,-25.282365505257356,-84.408493,-127.35208859687313,0.0,84.408493,0.5144085132510923,0.108438,-0.51387602,-0.67790598,1.0,0.0,0.0,0.0,118.08414523833981
2.3455,9611.4076,-0.6888679531959658,1.181071497077267,-1.887761157439651,0.28988512041669257,-2.307210525733197,-1.736854855679255,0.21830303459236688,13.873581331014421,-25.335574017353252,-87.192062,-131.14732202579503,0.0,87.192062,0.4930719793084371,0.116465,-0.52013201,-0.68758899,1.0,0.0,0.0,0.0,120.91461072640314
2.3639,9611.4276,-0.5020727585464742,1.09926888671738,-2.6004665607760877,0.20711237113173675,-2.3571416453890053,-1.757893779595709,-0.14844508067111306,14.576122210842287,-25.37701664077964,-90.133865,-134.99729179342305,0.0,90.133865,0.4710858152810588,0.124303,-0.52674901,-0.696536,1.0,0.0,0.0,0.0,123.7903954756289
2.3966,9611.4476,-0.27252406507967564,1.0513292616707208,-3.267508460549875,0.07036443760600064,-2.395923737065336,-1.8065030657726735,-0.3424134339677227,15.067688353505243,-25.4368794941123,-93.120155,-138.9141877767108,0.0,93.120155,0.4481466252250923,0.130448,-0.53456002,-0.70455199,1.0,0.0,0.0,0.0,126.75032922394688
2.4061,9611.4676,-0.0007632312874661373,1.04269540477498,-3.8794122642971196,-0.06200364724009633,-2.402454337889693,-1.8656361947259046,-0.4310733543919625,15.430096664444097,-25.491203336926787,-96.185616,-142.82305957726481,0.0,96.185616,0.4244319614378249,0.13497999,-0.54319799,-0.71174002,1.0,0.0,0.0,0.0,129.77057255675038
2.422,9611.4876,0.32176847235817707,1.1141503223832219,-4.436516730655353,-0.12997305768692224,-2.3551843706665383,-1.9045029181114421,-0.36521188959568107,15.632310347977372,-25.61909777970606,-98.98188,-146.8914792318495,0.0,98.98188,0.3992167354860255,0.138032,-0.55451,-0.71700197,1.0,0.0,0.0,0.0,132.94155608014373
2.4477,9611.5076,0.7294246055425644,1.255838713150296,-4.910731123140401,-0.08879290515136051,-2.2126093423658637,-1.9235357366430963,-0.16574436532772197,15.824278422819626,-25.78270709376906,-102.034103,-150.9825644700156,0.0,102.034103,0.3733115007772722,0.14197101,-0.56601799,-0.72118402,1.0,0.0,0.0,0.0,136.1600166777676
2.465,9611.5276,1.24833908333784,1.4453865519560538,-5.243094686286358,0.07070031306559654,-1.9402105593942294,-1.9309153895727547,0.12027248857017092,16.15312923946045,-25.893652613179302,-106.42765,-154.84461134362306,0.0,106.42765,0.3477199004469524,0.147705,-0.57412797,-0.72639602,1.0,0.0,0.0,0.0,139.30416539598573
2.5401,9611.5476,1.844122158743176,1.6667620456958954,-5.36891613369599,0.3424611401753535,-1.5468607891374713,-1.9086576519305458,0.5262108391766942,16.540685353921774,-25.945632860386496,-112.516296,-158.4315415032197,0.0,112.516296,0.3224467373478597,0.154085,-0.578812,-0.73298198,1.0,0.0,0.0,0.0,142.37808420198107
2.5404,9611.5676,2.4459127754154038,1.8925658840488482,-5.263783390688129,0.7147999541490679,-1.0976756626538657,-1.8269638955560308,1.0767489989480197,16.741513926986293,-26.011118865692147,-119.510239,-161.64715509076066,0.0,119.510239,0.2970367163361453,0.157087,-0.58231199,-0.74027401,1.0,0.0,0.0,0.0,145.4405838682563
2.5419,9611.5876,2.975943339479527,2.0993643883424427,-4.9636283010968185,1.179949802836302,-0.6662379949589455,-1.6914338915507088,1.4399557905605622,16.782388167348994,-26.02917718079673,-126.331108,-163.81032798058953,0.0,126.331108,0.2762639476571271,0.156379,-0.581756,-0.74885499,1.0,0.0,0.0,0.0,147.92529729120076
2.5446,9611.6076,3.373869240480748,2.2968659721495857,-4.517477169643704,1.7141531151395468,-0.3067462028111364,-1.5160538412952635,1.595551477722637,16.86358949901002,-25.87900714034272,-133.249741,-165.08947043500314,0.0,133.249741,0.2603618790590488,0.15544599,-0.57446003,-0.76029199,1.0,0.0,0.0,0.0,149.81692831070822
2.563,9611.6276,3.636213097872985,2.5107838502107382,-3.94270600376791,2.2700799367384037,-0.03917191049686042,-1.2851812346833693,1.8630019160012008,17.176260080745173,-25.457745411296777,-141.423889,-166.34191211829898,0.0,141.423889,0.2444337355848388,0.15830199,-0.56014401,-0.77552003,1.0,0.0,0.0,0.0,151.70325651750838
2.5836,9611.6475,3.839564190590834,2.8117101628014387,-3.259690670824174,2.7695221300656354,0.15414243943297576,-0.9734888146259001,2.308584220085451,17.656634011678413,-24.82560169259867,-149.614685,-167.79042026589863,0.0,149.614685,0.227215383315742,0.164369,-0.54118502,-0.79276401,1.0,0.0,0.0,0.0,153.73363009308358
2.6025,9611.6675,4.01627731593703,3.21003608392255,-2.4237854067395537,3.130522974433968,0.33023053758828214,-0.5573441120135172,2.8775597491259006,18.296926830458847,-23.98123454724651,-157.002838,-169.4029885462815,0.0,157.002838,0.2094541329833781,0.174018,-0.51809198,-0.81081897,1.0,0.0,0.0,0.0,155.8192700597423
2.6342,9611.6875,4.179457525182969,3.6088837031804584,-1.3944537630014722,3.2828512419249383,0.5161605852748015,-0.06661970396198036,3.412438020153491,19.030616679185616,-22.969349732577058,-162.563019,-170.77239775150935,0.0,162.563019,0.1925855771912827,0.183466,-0.49081099,-0.82967198,1.0,0.0,0.0,0.0,157.7925717454732
2.6474,9611.7075,4.202315645273979,3.918999614468996,-0.16482635665449585,3.186381782433715,0.7583881848620607,0.4278587013356923,3.5930560904942013,19.80420073454499,-21.87794083296834,-165.453003,-171.19917406263687,0.0,165.453003,0.1835479203401112,0.194298,-0.45894,-0.84730899,1.0,0.0,0.0,0.0,158.84703048873297
2.6612,9611.7275,3.8910925674871892,4.063360879016758,1.206036221715884,2.8278725990844658,1.0681952765770908,0.8582498787817272,3.307051225157166,20.53220232883834,-20.81543664325435,-165.870193,-170.32197917183916,0.0,165.870193,0.1869342149032641,0.21012799,-0.424182,-0.86079699,1.0,0.0,0.0,0.0,158.4521554436773
2.6834,9611.7475,3.4553907636579595,3.8747645573451583,2.518766818197708,2.285034817950745,1.3286464664900404,1.1503222116550207,2.8335089524049657,21.05312092165387,-19.905126844576905,-164.745804,-168.46741609096043,0.0,164.745804,0.1952509253157059,0.22007801,-0.390569,-0.87229502,1.0,0.0,0.0,0.0,157.48123536041413
2.7015,9611.7675,2.9518879036343115,3.396077964231962,3.610705556789352,1.6643169476610795,1.4957169590493413,1.3457610582207873,2.3561682092456833,21.300387880991885,-19.215363476681325,-162.881363,-166.12093612058595,0.0,162.881363,0.2065652310670871,0.224943,-0.362003,-0.88072997,1.0,0.0,0.0,0.0,156.1577168974144
2.7295,9611.7875,2.4906002731769257,2.7458796954016016,4.3554346329472615,1.1085904768025978,1.5316556194568052,1.5122746463768266,2.0912826806714344,21.210226809860348,-18.846002699166046,-160.908676,-163.91216249055407,0.0,160.908676,0.2171861735518629,0.223116,-0.34204301,-0.88659799,1.0,0.0,0.0,0.0,154.91236603401933
2.7541,9611.8075,1.9953421924685704,2.060688287121547,4.756776399428242,0.7071666561203073,1.4392452095745911,1.7098380879138708,2.0255706181002715,20.83858966662993,-18.813800693919138,-158.858582,-161.86145001755972,0.0,158.858582,0.2286314924988233,0.219028,-0.33028001,-0.88919598,1.0,0.0,0.0,0.0,153.56696924678945
2.7715,9611.8275,1.4757434458727512,1.3493626979299158,4.905723053237015,0.488195251943975,1.2224320510334703,1.939270551645064,1.9331795665589961,20.384947732223317,-18.97691412611145,-156.301193,-159.41499962085976,0.0,156.301193,0.2440702291653767,0.21494401,-0.321123,-0.88944298,1.0,0.0,0.0,0.0,151.74621233978914
2.7961,9611.8475,0.9120074638401934,0.5747736673471868,4.924929540115251,0.4017425780238154,0.8971419666360775,2.147792568725687,1.7364834906085758,20.05725288218952,-19.146296708351066,-153.265808,-156.32060304228503,0.0,153.265808,0.2644632767153494,0.214605,-0.30941099,-0.88784498,1.0,0.0,0.0,0.0,149.3298738795488
2.8065,9611.8675,0.28173156669175725,-0.23171769876878745,4.885268455145242,0.35810571759519255,0.5031033675522091,2.2621400333380857,1.576850069954137,19.922038229038815,-19.243170111337175,-150.268021,-152.8911433443263,0.0,150.268021,0.2871035092459159,0.220599,-0.29481199,-0.88430399,1.0,0.0,0.0,0.0,146.63074688779665
2.8359,9611.8875,-0.2857134734383502,-0.8645898258655809,4.798557269272511,0.29410991603785563,0.10935463479220342,2.240390003494369,1.5028088700148867,19.79012837545675,-19.427418134969315,-147.475449,-149.59084537223518,0.0,147.475449,0.308741517273106,0.22760899,-0.28266501,-0.87918901,1.0,0.0,0.0,0.0,144.0331903153473
2.8454,9611.9075,-0.7640460742457984,-1.2703732741734877,4.65035947761049,0.15101457469108925,-0.24133976269313218,2.106088001113656,1.4327529594318449,19.65728375213926,-19.64110642713647,-144.905228,-146.49769640189828,0.0,144.905228,0.3290623669507338,0.235678,-0.27392101,-0.87243402,1.0,0.0,0.0,0.0,141.57625025943543
2.8642,9611.9275,-1.19058309917546,-1.5211060231929592,4.3900258036870685,-0.10436669969105361,-0.5337475246408332,1.906117917240794,1.4667742546781604,19.629188749124417,-19.716136286255328,-143.083328,-144.01769813022213,0.0,143.083328,0.3449470825758047,0.246628,-0.267526,-0.86522597,1.0,0.0,0.0,0.0,139.64286894990815
2.896,9611.9475,-1.5196125546815544,-1.5839084633024378,3.9882190984497576,-0.4520986716982792,-0.7445241397265383,1.68695150202781,1.5241780623566559,19.620554488438007,-19.73596504243505,-141.678482,-141.99808762119548,0.0,141.678482,0.3579305540676568,0.25822401,-0.26488799,-0.85734499,1.0,0.0,0.0,0.0,138.05368292202593
2.9119,9611.9675,-1.7192965128046165,-1.4125240132077268,3.4475909573768853,-0.8338206892353673,-0.864571062755507,1.4908737142518433,1.51979418322383,19.468232464658534,-19.878399516427585,-140.180527,-140.24589237245615,0.0,140.180527,0.3703888609748407,0.26721701,-0.26847899,-0.848131,1.0,0.0,0.0,0.0,136.52079731917905
2.9244,9611.9875,-1.8222455664914916,-1.0509691863136341,2.7779232470793556,-1.1826846090245953,-0.9092857243983798,1.3410414343184642,1.4041293332822598,19.103845194119327,-20.202975956171652,-138.249359,-138.5318943263428,0.0,138.249359,0.3841959838456926,0.27341101,-0.27838701,-0.83674401,1.0,0.0,0.0,0.0,134.81232994877126
2.9448,9612.0075,-1.8461303601382668,-0.6193870113642079,1.9977473745967735,-1.4549135780207352,-0.9026982207374662,1.2442926357811097,1.1819128311449525,18.6168041713473,-20.605849352113115,-135.974045,-136.8266462933805,0.0,135.974045,0.3985785623128257,0.27725899,-0.290916,-0.82439703,1.0,0.0,0.0,0.0,133.02130485175192
2.9665,9612.0275,-1.8216851395425793,-0.199135602459366,1.1304262455300194,-1.6478124922425843,-0.857536239414631,1.2073879655922146,0.9384588563528808,18.11784997792588,-20.98553644632851,-133.680908,-135.2618457887024,0.0,133.680908,0.4117588375449141,0.27956501,-0.30283299,-0.81276703,1.0,0.0,0.0,0.0,131.36925957950592
2.9888,9612.0475,-1.8028687667190528,0.2086046874185663,0.1934900578716281,-1.7800144759974816,-0.7763096577803582,1.2424948610540798,0.7564363301769372,17.583298777981405,-21.37618844930229,-131.346558,-133.80589425858216,0.0,131.346558,0.4240546959342152,0.28106099,-0.314502,-0.80141801,1.0,0.0,0.0,0.0,129.8183131864373
3.0068,9612.0674,-1.8150949654456752,0.580118919485678,-0.7884400499221123,-1.864545134424297,-0.6614404689474598,1.360767129116777,0.6400260293812572,16.973051886161535,-21.819862501592404,-128.694031,-132.28480015191354,0.0,128.694031,0.4367431037969569,0.281306,-0.32646599,-0.78964698,1.0,0.0,0.0,0.0,128.20747550641704
3.0412,9612.0874,-1.874139512829141,0.8310130653890972,-1.768533579740188,-1.8998172566238927,-0.5279788477574979,1.5601724342300853,0.526867316427408,16.36125430637503,-22.259602950634193,-125.5271,-130.36430060199595,0.0,125.5271,0.4511969768319594,0.28078401,-0.33712101,-0.77713001,1.0,0.0,0.0,0.0,126.35898658163312
3.0619,9612.1074,-1.9659830776150153,0.9234067058495596,-2.685063302316342,-1.8718604918750623,-0.38364787902396913,1.8318446041355347,0.3461037615955185,15.790044391166019,-22.66197614460617,-121.697372,-127.88839796810721,0.0,121.697372,0.4680495712114046,0.27847001,-0.34572101,-0.764108,1.0,0.0,0.0,0.0,124.18447141684297
3.0685,9612.1274,-2.0675409402623597,0.859588713658181,-3.4947567258321417,-1.7681773802923906,-0.22186066691254402,2.1482602121533425,0.07059216280173786,15.288204439281376,-22.99971348720028,-117.211525,-124.82393302921143,0.0,117.211525,0.4873851069885695,0.27426299,-0.352222,-0.75045002,1.0,0.0,0.0,0.0,121.66228667631701
3.0828,9612.1474,-2.154767233463138,0.6428110784853069,-4.187132611337706,-1.5995043543786247,-0.02707116631499787,2.4573995936845234,-0.28504058488611506,14.9559889733526,-23.195615794088045,-112.354027,-121.04405837808146,0.0,112.354027,0.5091112663597219,0.270955,-0.355589,-0.73549002,1.0,0.0,0.0,0.0,118.79070048624794
3.1181,9612.1674,-2.1963830995781874,0.29535308932656584,-4.76461354732724,-1.402111162729998,0.2305869104050624,2.7021191433355414,-0.6997984838762434,14.849003590573275,-23.197854836794686,-107.411217,-116.49776748098924,0.0,107.411217,0.5327644270059705,0.270266,-0.355156,-0.719015,1.0,0.0,0.0,0.0,115.61514598069864
3.1281,9612.1874,-2.187443992847129,-0.16415534264397552,-5.204037092297961,-1.218471621707897,0.5690788385940413,2.842715217744887,-1.18795999951449,14.932535915149018,-23.003637080971142,-102.465981,-111.17105034790089,0.0,102.465981,0.5581330799982562,0.271752,-0.350786,-0.70113301,1.0,0.0,0.0,0.0,112.14642827507862
3.1499,9612.2075,-2.1379455812510426,-0.7174263036464638,-5.427801482216629,-1.0527152432322082,0.9759066240569655,2.878473320449089,-1.8286930214869823,15.061245689600774,-22.67702739633854,-97.531303,-105.43184456367169,0.0,97.531303,0.5848728359271779,0.270345,-0.34247899,-0.68377298,1.0,0.0,0.0,0.0,108.41198607712336
3.1652,9612.2275,-2.091464329885363,-1.3269414214313082,-5.340795795037101,-0.8799523642605377,1.4070295115684883,2.823851703492924,-2.5083631468232,15.025400023963119,-22.34755438259122,-92.851677,-100.38461992351456,0.0,92.851677,0.6108572587435455,0.26035601,-0.332863,-0.66952997,1.0,0.0,0.0,0.0,104.69697160713048
3.1853,9612.2475,-2.0849080198454653,-2.0101346063221803,-4.905406257239289,-0.7201215169735287,1.7523693502233206,2.6974672026104862,-3.0817745210500327,14.87340053430766,-21.998135350159373,-88.585556,-95.80270247586947,0.0,88.585556,0.6361868218379563,0.246795,-0.32189199,-0.65631098,1.0,0.0,0.0,0.0,100.98387098543161
3.2032,9612.2675,-2.05000650681197,-2.772726516991498,-4.150980900644106,-0.5876315488689103,1.9169850066276966,2.529827904438644,-3.5609749010310985,14.772724979820355,-21.53379445161888,-85.11544,-91.48751762025067,0.0,85.11544,0.6606735872966312,0.23303699,-0.30626899,-0.64451802,1.0,0.0,0.0,0.0,97.29747072401365
3.227,9612.2876,-1.8978152130457515,-3.5483261924420884,-3.1616032351500074,-0.5004307890279003,1.8863631530464342,2.3169803653319785,-3.89241386805699,14.643353641091561,-21.062931997725336,-82.224159,-87.66552467375374,0.0,82.224159,0.6837537569263952,0.218144,-0.28823599,-0.63388801,1.0,0.0,0.0,0.0,93.72464831195612
3.2486,9612.3076,-1.5853384119061844,-4.245512622371862,-2.0566809469460896,-0.4786406491955474,1.6948794978784607,2.044186083230312,-4.0074241224250375,14.354251293352087,-20.748320742740898,-79.453217,-84.36437149198571,0.0,79.453217,0.7050380967604657,0.202002,-0.27276099,-0.62266999,1.0,0.0,0.0,0.0,90.33475617660443
3.2632,9612.3276,-1.1407167647347358,-4.800550280926825,-0.9727676486778556,-0.5164009798494408,1.3963421228441715,1.7175648961887822,-3.8873983803648704,13.912701222555247,-20.626315231609837,-76.766281,-81.61182113939682,0.0,76.766281,0.7233580787132884,0.18620799,-0.26291901,-0.610699,1.0,0.0,0.0,0.0,87.33513965351258
3.2851,9612.3477,-0.6220526983180124,-5.181667585040077,-0.01692652833024333,-0.5877788378676265,1.0538019563817442,1.3541064461221164,-3.6232908707275993,13.382432452782652,-20.646459352533576,-74.310844,-79.45355906902044,0.0,74.310844,0.7379968256848262,0.171477,-0.258977,-0.59907198,1.0,0.0,0.0,0.0,84.87789145951629
3.3041,9612.3677,-0.08423987587785575,-5.407230369058917,0.7426616777044259,-0.6703914509050108,0.7207071410798882,0.9714938451759401,-3.348721510542229,12.877346729782053,-20.707867383922014,-72.354576,-77.98080464755199,0.0,72.354576,0.7485162217279326,0.158031,-0.25901899,-0.58962601,1.0,0.0,0.0,0.0,83.07597720917911
3.3272,9612.3877,0.44034352485290773,-5.476458448626318,1.3042702053865334,-0.755242270739173,0.4369899421116848,0.5747152439115224,-3.168915864308616,12.392634656863962,-20.785462570089322,-70.853119,-77.1471870558272,0.0,70.853119,0.7556095774158236,0.144425,-0.26220801,-0.58261698,1.0,0.0,0.0,0.0,81.84267632249481
3.3577,9612.4077,0.9194521778369991,-5.4268894582364196,1.683896075529054,-0.8370142188976448,0.22143082851638665,0.15905539827805082,-3.0735877303946806,11.950299778692262,-20.875661651875145,-69.673714,-76.75840821729734,0.0,69.673714,0.7600840473953387,0.131318,-0.267914,-0.57727802,1.0,0.0,0.0,0.0,81.05678423727262
3.3736,9612.4278,1.289627026134382,-5.258994829940403,1.942348203584972,-0.9032799957154855,0.08441148662357334,-0.2872673103933078,-2.926333475502304,11.503292618140945,-21.07309700925146,-68.734146,-76.86348324479125,0.0,68.734146,0.7617812758837139,0.118225,-0.27736101,-0.57339603,1.0,0.0,0.0,0.0,80.7570322451188
3.384,9612.4478,1.4913128607302015,-5.000628994361282,2.1396489367057274,-0.9414095566987747,0.022204140191897537,-0.7650901161534592,-2.6100875708133078,11.059243830588176,-21.42309966950648,-68.341522,-77.78701575557155,0.0,68.341522,0.7594204551737989,0.104451,-0.28991899,-0.57299,1.0,0.0,0.0,0.0,81.17373379471789
3.4056,9612.4678,1.5353922538247438,-4.675646983913532,2.326237281153686,-0.9511818482058855,0.0031804370656048353,-1.2558043830427712,-2.2000796219381744,10.634836074923207,-21.86457330555285,-68.463814,-79.2572986822814,0.0,68.463814,0.7542942224012189,0.090596,-0.30257899,-0.57556802,1.0,0.0,0.0,0.0,82.07252271746889
3.4276,9612.4879,1.4049766743431213,-4.24608383260598,2.5635104222057663,-0.9445373179041147,-0.02155905772364064,-1.722774034696093,-1.724589859629261,10.196694494315988,-22.307176272744258,-69.274849,-81.37286812572118,0.0,69.274849,0.7460964055715587,0.075208,-0.31424201,-0.58218199,1.0,0.0,0.0,0.0,83.4932830199766
3.4447,9612.5079,1.1270588577861642,-3.6683675685667936,2.8776859033512956,-0.9396091217626994,-0.10483066669488855,-2.1196880366324504,-1.2351241736462653,9.756333387503213,-22.652095176579472,-70.820465,-84.08731607159412,0.0,70.820465,0.7347777905844726,0.057417,-0.324314,-0.59298003,1.0,0.0,0.0,0.0,85.4231139303447
3.4646,9612.5279,0.7498545225943412,-2.9100312943100644,3.246173093246126,-0.9474170507517097,-0.27575445959511835,-2.4123185149129815,-0.7296645009404834,9.342759780422256,-22.870336823834652,-72.974159,-87.3402138392738,0.0,72.974159,0.7199527442311753,0.037331,-0.334207,-0.607108,1.0,0.0,0.0,0.0,87.89884189599748
3.4834,9612.5479,0.3206881691972523,-2.048993463903788,3.582784928537496,-0.9581438600440799,-0.5153209714464428,-2.601216165062758,-0.20998562456297165,9.118884782526715,-22.941483960906588,-75.257874,-90.76318460579353,0.0,75.257874,0.7027748317761529,0.019427,-0.345393,-0.621638,1.0,0.0,0.0,0.0,90.69988945723513
3.5082,9612.568,-0.1318368141712618,-1.1637004749092545,3.8047697056272014,-0.9522290203030149,-0.782808106662432,-2.718950923535324,0.28318530566566213,9.167328366318136,-22.90519542103081,-77.313255,-94.25200007372517,0.0,77.313255,0.6839928801542008,0.005532,-0.35974801,-0.63459003,1.0,0.0,0.0,0.0,93.68709146575931
3.5256,9612.588,-0.5472114920157294,-0.37942998974079123,3.8668874541006044,-0.9238727260587496,-1.035897353417668,-2.8089175141910054,0.5859921983929999,9.605628573192462,-22.79136556899296,-79.162399,-97.7051611605939,0.0,79.162399,0.6645809205198415,-0.004284,-0.375292,-0.646119,1.0,0.0,0.0,0.0,96.69963442372334
3.5569,9612.608,-0.8822405392678796,0.23700015489790238,3.78588650842363,-0.8851887498774698,-1.2630342031768427,-2.9025064091195842,0.6103530937997999,10.436789070759978,-22.65225329371932,-81.254555,-101.26909247487401,0.0,81.254555,0.6437310789251981,-0.01245,-0.38933799,-0.65868902,1.0,0.0,0.0,0.0,99.85879466674
3.5774,9612.6281,-1.1529333797979495,0.714372472299171,3.590786194468725,-0.8440028447459182,-1.4931281078401282,-3.006764023352975,0.39465817666456005,11.504828198088608,-22.55354345434199,-83.753967,-104.98371895017479,0.0,83.753967,0.6208735973087435,-0.020905,-0.40145499,-0.672988,1.0,0.0,0.0,0.0,103.24008544324684
3.5879,9612.6481,-1.4262986847558592,1.1169364594803872,3.273718622663125,-0.7919422876126474,-1.76164309873501,-3.1109333281329112,0.07896960222618787,12.604146718056894,-22.54902817752451,-86.578323,-108.91145011643702,0.0,86.578323,0.5953988938310849,-0.029667,-0.41320601,-0.68839002,1.0,0.0,0.0,0.0,106.91785287717347
3.6036,9612.6681,-1.7586220554513927,1.4839997544758012,2.791026030131192,-0.7084619663966707,-2.080875943014344,-3.199859224009317,-0.22488750240098376,13.59602902988712,-22.665715028331306,-89.50341,-113.0555395109374,0.0,89.50341,0.5674682072378321,-0.036861,-0.42611799,-0.70359403,1.0,0.0,0.0,0.0,110.85227164904695
3.6233,9612.6881,-2.1334357053363036,1.8072445193517404,2.103568145956867,-0.5891132798336169,-2.425308281861559,-3.2655253846203864,-0.44369505575099843,14.486920823639018,-22.870694220568,-92.665741,-117.49992357083356,0.0,92.665741,0.5367014084233614,-0.040927,-0.439482,-0.71911901,1.0,0.0,0.0,0.0,115.08125904963175
3.6466,9612.7082,-2.4838336096909743,2.0956014713678446,1.2042130455485793,-0.4441502189779236,-2.763240114789353,-3.302056772264222,-0.5501908725031015,15.300819141548626,-23.125738464969075,-96.179428,-122.22967419314806,0.0,96.179428,0.5032451330047216,-0.041386,-0.452398,-0.73509699,1.0,0.0,0.0,0.0,119.57014096119353
3.6633,9612.7282,-2.7069544789183753,2.3449602589422365,0.13338569007874668,-0.29810624060335056,-3.0616678264483026,-3.311663819077885,-0.556812842622552,16.092305840514555,-23.346531287705716,-100.265839,-127.13796949796281,0.0,100.265839,0.4675780164385189,-0.038759,-0.46307799,-0.75194901,1.0,0.0,0.0,0.0,124.2456102989025
3.6836,9612.7482,-2.720872625561905,2.549182416377001,-1.0491122173832093,-0.15822832127279307,-3.299647831700658,-3.298341907313484,-0.5201266133399614,16.856245138806006,-23.466961834873974,-104.946518,-132.04831667474448,0.0,104.946518,0.4308219401474337,-0.033867,-0.47082901,-0.76913297,1.0,0.0,0.0,0.0,128.9605323172906
3.7114,9612.7682,-2.4830333978681898,2.703041691084441,-2.2955048972004777,-0.0067850342430517685,-3.466241735638537,-3.260721981888234,-0.43165758294220424,17.501806266934288,-23.513006629823753,-110.224968,-136.99796221102025,0.0,110.224968,0.392447248432702,-0.028209,-0.47684801,-0.78600597,1.0,0.0,0.0,0.0,133.7862794027551
3.7255,9612.7883,-2.023600390907731,2.7535777575762714,-3.5612403589579484,0.2315822161957869,-3.546400234187504,-3.202055594668372,-0.3143599296847359,17.946821381152297,-23.546526949068095,-115.917526,-142.00131401716843,0.0,115.917526,0.3533272785524485,-0.020106,-0.482582,-0.80116802,1.0,0.0,0.0,0.0,138.6180761488241
3.7472,9612.8083,-1.3792564232089661,2.6725677363267515,-4.769154520486685,0.6180307842419847,-3.5255006204184927,-3.12712889384918,-0.21686665091078616,18.154479568892576,-23.602880388017553,-122.152359,-147.01207912497733,0.0,122.152359,0.3143604844606266,-0.00878,-0.48736599,-0.814601,1.0,0.0,0.0,0.0,143.35557769995606
3.7702,9612.8283,-0.583752112006327,2.4961706347123114,-5.815872551986404,1.145959508739853,-3.4008960278743197,-3.043443329279679,-0.21438979759742693,18.20408443897205,-23.61916141794597,-129.319016,-151.8283504119374,0.0,129.319016,0.2764015040357043,0.004183,-0.48764601,-0.82812202,1.0,0.0,0.0,0.0,147.90889585257617
3.7882,9612.8483,0.31580533278179146,2.3115339779769686,-6.620957224172948,1.7376468416532447,-3.195001435336432,-2.960191105105669,-0.23825699393064959,18.28496036122484,-23.435071163355754,-137.893646,-156.45632013222126,0.0,137.893646,0.2380485690856375,0.0167,-0.479307,-0.84458202,1.0,0.0,0.0,0.0,152.45721219509954
3.8053,9612.8683,1.2720527460595177,2.213228788631736,-7.144148210547241,2.3010051351771974,-2.942071813654159,-2.878278236800314,-0.2662691114974969,18.498542234860015,-22.954396395320078,-147.180923,-160.84992966761234,0.0,147.180923,0.1997621610212492,0.028401,-0.46129999,-0.86399698,1.0,0.0,0.0,0.0,156.95389758917048
3.8268,9612.8882,2.250100236937949,2.301221524839777,-7.35695004782407,2.7794751469244967,-2.6703787902180034,-2.7521042378635596,-0.16246362928968416,18.543993683313353,-22.445167960219425,-155.911194,-165.2055440535604,0.0,155.911194,0.1625798152897213,0.042363,-0.44145301,-0.88141501,1.0,0.0,0.0,0.0,161.28666046131906
3.8449,9612.9082,3.24396341180517,2.5904866941738685,-7.145966719784166,3.122062975501369,-2.3039969318927276,-2.6070658009272183,0.12087983869877483,18.507837435454014,-21.906125862859763,-163.813217,-169.45367729016198,0.0,163.813217,0.1281283603093381,0.060935,-0.419314,-0.89668602,1.0,0.0,0.0,0.0,165.27709844996716
3.8718,9612.9282,4.242675002737971,3.0338659293151604,-6.408699390656583,3.268188610334969,-1.8026655971147874,-2.46547619988094,0.6222150242228848,18.418794404528327,-21.37335779203766,-170.669647,-173.51352751294422,0.0,170.669647,0.0951284838485286,0.07987,-0.39456701,-0.91043299,1.0,0.0,0.0,0.0,169.08257022813112
3.8844,9612.9482,5.228649269416839,3.527313935979183,-5.144310713881221,3.1766223379037055,-1.1860652855190612,-2.3340644789549003,1.2077497749537136,18.294556906857192,-20.894856176539008,-176.06662,-177.08848381565016,0.0,176.06662,0.0635932493241223,0.092106,-0.368112,-0.92302001,1.0,0.0,0.0,0.0,172.707829726919
3.9099,9612.9682,6.130888617210519,3.934280269165096,-3.383574866252183,2.868237567044867,-0.47573578772169356,-2.1560114597963365,1.7880906142928779,18.40495075381527,-20.287433407300135,-179.985764,-179.98750817159774,0.0,179.985764,0.0360277157566218,0.09966,-0.33711299,-0.93548101,1.0,0.0,0.0,0.0,175.8706342376313
3.929,9612.9882,6.81832959383483,4.0717931034481465,-1.2168313889300784,2.390570283385693,0.22563414830519646,-1.80992090496237,2.5805222300437074,18.870685287150636,-19.386981110925465,176.875366,177.38661583744155,0.0,176.87536599999999,0.0113442915477119,0.10952,-0.30143201,-0.94710898,1.0,0.0,0.0,0.0,178.70001206126963
3.9461,9613.0082,7.520016848017829,3.8863197869544175,0.7950970730821929,1.7729414625798097,0.7308407214143203,-1.2971289681636975,3.25029603494376,19.292113669730085,-18.527758426559796,174.740311,175.39922315480894,0.0,174.74031100000002,0.010153990924736,-0.108909,0.27145299,0.95621598,1.0,0.0,0.0,0.0,178.83641835411666
3.9624,9613.0282,8.214294918800626,3.558500095149178,2.2759296650479577,1.17592710678201,0.9664944239364203,-0.6005653607145314,3.7756090975127514,19.413864313233248,-17.970464084616736,173.260559,174.0044256996583,0.0,173.260559,0.0267406541449517,-0.100866,0.254392,0.96145499,1.0,0.0,0.0,0.0,176.93538144578307
3.9835,9613.0482,8.53761358746669,3.3480940709617184,3.2184080822470342,0.7385505087120745,0.9796843933316283,0.24609278865732748,4.186930872169437,19.260383685152675,-17.736843999697648,172.63205,173.4203126839443,0.0,172.63205,0.0334644789584337,-0.097071,0.249654,0.96287602,1.0,0.0,0.0,0.0,176.16453708604058
4.0063,9613.0682,8.260121511145917,3.1904959706249336,3.8072929001711735,0.48467742033571665,0.8588918809327322,1.146512113293865,4.448758332619663,19.177151782647705,-17.53776482010729,173.198349,173.89370328158864,0.0,173.198349,0.0283245396778046,-0.101399,0.246728,0.96334898,1.0,0.0,0.0,0.0,176.75381268263206
4.028,9613.0882,7.460168489211757,2.9259314395336826,4.1652795434233045,0.36050162425108445,0.6619884785927913,1.9735226390396854,4.406526126464905,19.385319425307053,-17.24381407433946,175.223221,175.65374554490575,0.0,175.22322099999997,0.0115170757199801,-0.109116,0.238019,0.96504301,1.0,0.0,0.0,0.0,178.68021115992937
4.0531,9613.1082,6.372349243997066,2.541717110312914,4.330815782343821,0.3064832091864894,0.4328666405992643,2.6137385208958444,3.954569400774509,19.757789184067967,-17.026258917083723,178.484512,178.60855165558885,0.0,178.484512,0.0143916720112655,0.114067,-0.225712,-0.96738601,1.0,0.0,0.0,0.0,178.35077893272197
4.0681,9613.1282,5.141345510556133,2.1063554770643464,4.374350355282255,0.2648007654902547,0.21696352920808104,3.019221313262188,3.1444800273451747,20.086866324637462,-17.016574103779085,-177.48819,-177.65611109814623,0.0,177.48819,0.0462926444131246,0.116475,-0.214774,-0.96858799,1.0,0.0,0.0,0.0,174.69335718932962
4.0874,9613.1482,3.8598673102846264,1.6520037042709514,4.35804252046084,0.1871482339383166,0.044923079930117016,3.213447264268202,2.177464875873422,20.24978035745874,-17.18155712187994,-173.33931,-173.7351609844785,0.0,173.33931,0.0801526887820989,0.120035,-0.20779,-0.967466,1.0,0.0,0.0,0.0,170.80531531477598
4.1123,9613.1682,2.5704245856870847,1.1543813778631584,4.308921605652852,0.03639281301355923,-0.08222135666822505,3.2606729321954946,1.3432080331465324,20.289596214500495,-17.33386545363128,-169.658585,-170.18817866761444,0.0,169.658585,0.1117054468133908,0.12922101,-0.20329601,-0.96410298,1.0,0.0,0.0,0.0,167.17272709345852
4.1291,9613.1882,1.452609351735611,0.6342372954323281,4.187608531318649,-0.16339431364904722,-0.17915633028771039,3.2283465292150053,0.6222899339603387,20.293601260141195,-17.354817691194846,-166.362335,-166.92585257435346,0.0,166.362335,0.1405512326389169,0.14059,-0.19877,-0.95967197,1.0,0.0,0.0,0.0,163.84051009982454
4.1441,9613.2083,0.6209527832600608,0.22060094954103437,3.9843511460388505,-0.3759973017177242,-0.25242802253495955,3.173221464888462,-0.06548487336121855,20.21549238095263,-17.346769912149984,-163.088623,-163.65499738446573,0.0,163.088623,0.1686106699228729,0.149275,-0.195453,-0.95450801,1.0,0.0,0.0,0.0,160.58589941311342
4.1657,9613.2283,-0.06405807507767891,-0.04606932409900111,3.7151635615340677,-0.6087889068135521,-0.32409199162976887,3.1228359495191667,-0.5670990111851388,20.06917318037298,-17.372126718782948,-159.811127,-160.35513639853806,0.0,159.811127,0.1967368207215911,0.158199,-0.19438,-0.94788402,1.0,0.0,0.0,0.0,157.30759656754338
4.1844,9613.2483,-0.6438571271207727,-0.2060090242988295,3.36836008605194,-0.8434803258831401,-0.4158154662433744,3.0809508672248493,-0.878876589582795,19.92396137703887,-17.420436585830004,-156.450653,-156.941912612331,0.0,156.450653,0.2254899521176055,0.167735,-0.19483,-0.939713,1.0,0.0,0.0,0.0,153.9366184528153
4.2088,9613.2684,-1.110273539445536,-0.2663140656931766,2.924990180782988,-1.0504341646592785,-0.5255277488293761,3.048092488796732,-1.056952564961584,19.777674738537947,-17.526206477586225,-152.99968,-153.4434893077907,0.0,152.99968,0.2546157444313682,0.17686699,-0.197456,-0.93000001,1.0,0.0,0.0,0.0,150.49836519245548
4.2256,9613.2884,-1.4293647784057533,-0.19453406585516841,2.368817326584667,-1.1968414462724353,-0.6293007704219534,3.0353300600756707,-1.1930284737217853,19.5650821123244,-17.774681450714436,-149.402344,-149.90981153982656,0.0,149.402344,0.2839410250874977,0.183681,-0.203712,-0.91877103,1.0,0.0,0.0,0.0,147.0088820689075
4.2452,9613.3084,-1.63738584961325,-0.010542686130987633,1.6803440807035468,-1.2856562685289674,-0.7031765555961598,3.0510226834764245,-1.290172920332246,19.308037365305527,-18.151431883336897,-145.741089,-146.42763302865845,0.0,145.741089,0.3128011069797548,0.189593,-0.21285,-0.90603799,1.0,0.0,0.0,0.0,143.5437608972563
4.2662,9613.3284,-1.8091003002059378,0.1831924763216497,0.8461407595093462,-1.3572346309360743,-0.7454875025768747,3.0934414598241324,-1.3629688743569464,19.167029505084404,-18.465741138557817,-142.155563,-142.89825016784948,0.0,142.155563,0.3409744409603157,0.19856299,-0.220342,-0.89205301,1.0,0.0,0.0,0.0,140.1274932132606
4.2831,9613.3485,-1.9491096008146918,0.36455852146409606,-0.11463243201146334,-1.4357372491226668,-0.7441329105927937,3.1774010639058643,-1.4971014551572583,19.157133087996254,-18.63611664915338,-138.71019,-139.30701340960354,0.0,138.71019,0.3677841749886467,0.20850401,-0.223974,-0.87812102,1.0,0.0,0.0,0.0,136.84194727012402
4.3079,9613.3685,-2.1167948845646434,0.5549105572620379,-1.1732165572316724,-1.5073749194583237,-0.6779839945755787,3.3243790622404084,-1.7841371416973484,19.04975327577062,-18.82123110896247,-135.007751,-135.47422163408413,0.0,135.007751,0.3951892084376038,0.215874,-0.22672699,-0.863608,1.0,0.0,0.0,0.0,133.44444994409616
4.3322,9613.3885,-2.401234422200548,0.7020129997554996,-2.2867961319827472,-1.5215813954858883,-0.516088341375606,3.5364531883965764,-2.173654936360915,18.598811620232958,-19.229908431641782,-130.689255,-131.3943140640581,0.0,130.689255,0.4245080240546452,0.21849599,-0.23327699,-0.84713298,1.0,0.0,0.0,0.0,129.7609461711876
4.3493,9613.4086,-2.8375839778026286,0.6370331449512469,-3.3616648987626023,-1.43672821780414,-0.2529972372949238,3.773090533460718,-2.5865789721064836,17.83718289280413,-19.787441619970153,-125.709312,-127.00873788295708,0.0,125.709312,0.4558532079529324,0.21821301,-0.242828,-0.82801902,1.0,0.0,0.0,0.0,125.76031084738813
4.3679,9613.4286,-3.3408745399705557,0.21601047814679442,-4.242411012723833,-1.25623872959294,0.0647472965968603,3.9729347071348795,-3.0875728682328596,17.06855726187773,-20.156282423122665,-120.307007,-122.038021329754,0.0,120.307007,0.4891261499826807,0.217714,-0.24793699,-0.80739301,1.0,0.0,0.0,0.0,121.43367576261083
4.3861,9613.4486,-3.770194159806451,-0.5366981563232327,-4.794008837826535,-1.0403731461895824,0.3779708948972944,4.080867290281023,-3.7695228967393746,16.49434285931564,-20.143183240305298,-114.746536,-116.3256435558479,0.0,114.746536,0.5243847430972606,0.216897,-0.243357,-0.78660899,1.0,0.0,0.0,0.0,116.74633261780218
4.405,9613.4686,-4.0108518373424715,-1.4839413695926713,-4.970425427886256,-0.8773439887381749,0.6461994460542713,4.055836722515385,-4.544141499995398,16.068018053616335,-19.835807125238084,-109.269524,-110.30693111189233,0.0,109.269524,0.5601933313248021,0.21345399,-0.23094299,-0.76634598,1.0,0.0,0.0,0.0,111.8616621089747
4.4306,9613.4887,-3.9862372960119337,-2.4902244059591276,-4.798236250768131,-0.8148535988299153,0.8416289329765083,3.8850929440699793,-5.256649198471559,15.660410587438918,-19.440069030963826,-104.040237,-104.66929831375892,0.0,104.040237,0.5944839487190879,0.20467199,-0.2158,-0.74708003,1.0,0.0,0.0,0.0,107.04829457580368
4.4734,9613.5087,-3.663441611945272,-3.448718136149371,-4.353519881259682,-0.8424760445142605,0.9622519060529239,3.5788251386012164,-5.769259475008473,15.172935704153325,-19.1548464963,-99.190048,-99.91575388737176,0.0,99.190048,0.6253869267150215,0.189519,-0.20335899,-0.72912198,1.0,0.0,0.0,0.0,102.57881503331897
4.4784,9613.5287,-3.04925814308522,-4.30574494972996,-3.749419744387775,-0.9383060663955564,1.022928904118582,3.1483939312668694,-6.057514239926084,14.560337866998065,-19.087232343592092,-94.445511,-95.68164617452622,0.0,94.445511,0.6540047524079619,0.171602,-0.196999,-0.70994502,1.0,0.0,0.0,0.0,98.3115439496034
4.4906,9613.5488,-2.192895961428907,-4.996278748480282,-3.0653367786550794,-1.058643247823149,1.0479063965550293,2.609059512292641,-6.162297853519498,13.906345726287366,-19.19391116810321,-89.909828,-91.85028400460465,0.0,89.909828,0.6799876608602688,0.153072,-0.195724,-0.68983901,1.0,0.0,0.0,0.0,94.31464234552585
4.5089,9613.5688,-1.2279628027696687,-5.46752687148739,-2.339120387092568,-1.1757552770733144,1.0578095403619303,1.9902685857690752,-6.067450975760913,13.369670376800165,-19.389979516977043,-86.205673,-88.86789639397442,0.0,86.205673,0.7005074413816029,0.134452,-0.196932,-0.672629,1.0,0.0,0.0,0.0,91.0645394311577
4.5273,9613.5888,-0.3049664013952489,-5.7103312845920975,-1.5511217489298073,-1.2811253183541114,1.0631348429666518,1.3302676824315665,-5.773849717702908,12.998151474010363,-19.66299516300208,-83.894653,-87.2754611106553,0.0,83.894653,0.713032751104043,0.113948,-0.19921,-0.662507,1.0,0.0,0.0,0.0,89.03558580200692
4.5549,9613.6088,0.5595564970323976,-5.717502282071459,-0.6421685023540427,-1.3867591767380651,1.0342626585689543,0.6490847561409756,-5.495456207667487,12.576551501187978,-20.083257342481048,-82.244263,-86.39385686295496,0.0,82.244263,0.7214951857520601,0.090032,-0.203429,-0.65570998,1.0,0.0,0.0,0.0,87.64387178267172
4.5753,9613.6289,1.3381689321011345,-5.556758138788983,0.3520761938555097,-1.4809402490034476,0.9260250045390699,-0.040424219029137065,-5.318211618373779,12.176167484682006,-20.535997003057496,-81.043785,-85.85935406458063,0.0,81.043785,0.727236134640448,0.066173,-0.20860299,-0.65056401,1.0,0.0,0.0,0.0,86.68962572375288
4.5903,9613.6489,1.9163961472001523,-5.223147711624403,1.400394954679527,-1.5145500297896912,0.732734092382865,-0.7307686023229609,-5.119453375422585,11.80252763817936,-20.998582891497755,-80.522842,-86.05672475530068,0.0,80.522842,0.7280675173087178,0.042835,-0.217282,-0.64874601,1.0,0.0,0.0,0.0,86.55073815829323
4.6063,9613.6689,2.2075602697282717,-4.672596489400329,2.4286794092176436,-1.4334920884125881,0.45584040614887367,-1.3846505700655478,-4.798533976693932,11.379530443020478,-21.508709267736133,-80.888741,-87.31975641970804,0.0,80.888741,0.7221348089043343,0.018787,-0.23089699,-0.65180898,1.0,0.0,0.0,0.0,87.53796670823994
4.6285,9613.689,2.2417162577296836,-3.939672804928018,3.2673221209916807,-1.2295627295223772,0.10388800512299393,-1.9353294476849836,-4.366277015259393,10.91663551422421,-22.045318280689294,-82.341827,-89.68252992566494,0.0,82.341827,0.7089198900143796,-0.006073,-0.246233,-0.660882,1.0,0.0,0.0,0.0,89.70579514009489
4.6471,9613.709,2.0662365770996853,-3.209450932870996,3.7330034473954967,-0.9444698454595518,-0.285034281509687,-2.34977327907663,-3.783057983318555,10.604596266460824,-22.50275466179444,-84.745461,-92.80270020107886,0.0,84.745461,0.6900695610877208,-0.025822,-0.259363,-0.67518002,1.0,0.0,0.0,0.0,92.72876903479482
4.6657,9613.729,1.7120992776190107,-2.555195251194871,3.771468662294442,-0.6335489535018577,-0.668919731779957,-2.651057591085894,-2.976197861185222,10.443978394153756,-22.856313013821868,-87.596107,-96.33980802393177,0.0,87.596107,0.6679145911797105,-0.037558,-0.27151299,-0.69192499,1.0,0.0,0.0,0.0,96.18736944941118
4.6844,9613.749,1.273669148825534,-1.9952292732900945,3.416895237779899,-0.34632078998173954,-1.0100372577088683,-2.8860268441850487,-2.027090350172516,10.408106416451098,-23.070298901943556,-90.443695,-99.92536115027156,0.0,90.443695,0.6451197547548664,-0.042033,-0.28317699,-0.70842397,1.0,0.0,0.0,0.0,99.6506902746114
4.7057,9613.769,0.8424009968216168,-1.5249133302328914,2.7731443685847896,-0.11467942926494468,-1.2897720235990702,-3.0959097905141584,-1.0385779054458393,10.488808725045942,-23.151082337080133,-93.485367,-103.66163508341945,0.0,93.485367,0.6209461065119894,-0.04305,-0.29362899,-0.72550303,1.0,0.0,0.0,0.0,103.22948570644596
4.7266,9613.789,0.4647212953467452,-1.1007697153273446,1.9706953769370976,0.05637313637331498,-1.5266510819756196,-3.2944105743469567,-0.11768656827758583,10.623851105067637,-23.179916218289456,-97.002022,-107.75113347644692,0.0,97.002022,0.5935309146820407,-0.044563,-0.30299801,-0.74426299,1.0,0.0,0.0,0.0,107.18404990700414
4.7534,9613.809,0.11961362153589139,-0.7158755689148266,1.1089642657527712,0.19825211781642837,-1.743641831669067,-3.4811894303425475,0.6282089667520872,10.812201638526686,-23.219875137550115,-100.879288,-112.10966584164169,0.0,100.879288,0.5632693718495616,-0.046056,-0.311905,-0.76375502,1.0,0.0,0.0,0.0,111.4356009834845
4.7646,9613.829,-0.24324763605652278,-0.41198102135271,0.23989759040690473,0.35515755961161566,-1.9385830935909043,-3.666860574895422,1.1286690152668548,11.165998193836792,-23.263901049187094,-104.958336,-116.57838601502134,0.0,104.958336,0.5317899693540297,-0.043644,-0.31972799,-0.782987,1.0,0.0,0.0,0.0,115.74704838442719
4.7936,9613.849,-0.6132834421609341,-0.14645920572281956,-0.61079522485986,0.5314458628847339,-2.1199859174279023,-3.8619249052726814,1.319014664817992,11.642301941315159,-23.354795585999145,-109.344322,-121.17903721704062,0.0,109.344322,0.4988679890039443,-0.038186,-0.32600999,-0.80211598,1.0,0.0,0.0,0.0,120.14973005450612
4.8092,9613.869,-0.960379242890955,0.16018135697559388,-1.4316355524703788,0.7152742247197049,-2.3009093538699834,-4.070779242371716,1.1829593274440953,12.145899580604624,-23.52665341569125,-114.119492,-125.90564747877993,0.0,114.119492,0.464132701633939,-0.031817,-0.330495,-0.82118303,1.0,0.0,0.0,0.0,124.69178715968236
4.8288,9613.889,-1.2653448057284709,0.5874444247728285,-2.224188436026168,0.895019822908466,-2.4894418520466317,-4.284494721021302,0.8553282516686167,12.62093640590222,-23.74064266307819,-119.519844,-130.93240609638963,0.0,119.519844,0.4259352467288421,-0.02547,-0.33315799,-0.84079498,1.0,0.0,0.0,0.0,129.58024830249946
4.8477,9613.909,-1.4772020032916888,1.183453762361497,-2.998356225107683,1.064183360407267,-2.671669484223157,-4.484369022650132,0.465002534037545,13.088160828857383,-23.89402798204349,-125.634972,-136.27222067503308,0.0,125.634972,0.38408305018959,-0.018563,-0.33319601,-0.86088097,1.0,0.0,0.0,0.0,134.8263466208659
4.8644,9613.929,-1.4900950290600115,1.9737855710083634,-3.7595687990755104,1.2070711542105796,-2.825182086587604,-4.6412836688603365,0.12023505304946092,13.512006008668243,-23.943465736873108,-132.469177,-141.93134287077936,0.0,132.469177,0.3383111134805351,-0.01152,-0.33051401,-0.88100702,1.0,0.0,0.0,0.0,140.4519773203771
4.8842,9613.949,-1.203614129086535,2.9006806790364172,-4.486809785828215,1.346237074865643,-2.89367502888632,-4.730639141323087,-0.007727573505023955,13.900645003520413,-23.889343177773956,-140.007492,-147.93082639696834,0.0,140.007492,0.2891030783956473,-0.001694,-0.32465801,-0.900563,1.0,0.0,0.0,0.0,146.39146748346374
4.906,9613.969,-0.5047202049702915,3.890399896606715,-5.112696391245418,1.4906881514670718,-2.8466517452976454,-4.71931712553438,0.06263059793458225,14.108790024966101,-23.86486704305865,-147.765823,-154.0012081164212,0.0,147.765823,0.238771694559887,0.00996,-0.316926,-0.917849,1.0,0.0,0.0,0.0,152.3718877497316
4.9249,9613.989,0.6695881847147739,4.822955214418381,-5.50499312712986,1.6197682315575639,-2.647729195306349,-4.591064373309007,0.2484753141687044,14.174390843565835,-23.876696680255783,-155.39743,-159.90567576740784,0.0,155.39743,0.18894631056509,0.021429,-0.30613801,-0.93280202,1.0,0.0,0.0,0.0,158.21740304048853
4.948,9614.009,2.2704515038769695,5.538325166207903,-5.467240827171923,1.7087742147487377,-2.253900895935065,-4.332322606277691,0.6281894650150441,14.361637631317148,-23.745722839894498,-162.944992,-165.73756369205006,0.0,162.944992,0.1389840583951975,0.033501,-0.28868201,-0.94669098,1.0,0.0,0.0,0.0,164.02187528049865
4.9663,9614.029,4.097932171184962,5.877299577260893,-4.850180915096471,1.7281854930847598,-1.6716586388597963,-3.9099433561189887,1.2341031784685947,14.804897602669339,-23.348193190228574,-170.036697,-171.3817271567773,0.0,170.036697,0.0902251097384731,0.046836,-0.26344201,-0.95930398,1.0,0.0,0.0,0.0,169.64688476620944
5.0131,9614.049,5.8165114275733725,5.749823204960481,-3.7016872539413352,1.6533334702089881,-0.9816934160004605,-3.302015987100528,1.9867282429064947,15.397721674151388,-22.730896902054965,-176.039612,-176.44398571671033,0.0,176.039612,0.0462632567562982,0.060503,-0.233601,-0.96934497,1.0,0.0,0.0,0.0,174.6967283786281
5.0207,9614.069,7.154423273850229,5.2318848992044495,-2.343448149328716,1.4687720894782281,-0.3196629125589897,-2.5537530152797543,2.608978588860681,15.865745049568917,-22.12841381398586,179.582977,179.62143189203073,0.0,179.58297700000003,0.0112304923694289,0.069087,-0.206012,-0.97604299,1.0,0.0,0.0,0.0,178.7130533173205
5.0342,9614.089,7.93217433336119,4.546755241437255,-1.0558190006588184,1.2416719296660053,0.21174435265787916,-1.7510936321835286,3.0663856334336246,16.065610047094783,-21.737843736244365,176.839844,177.0174490941212,0.0,176.83984399999997,0.0123993013141733,-0.073364,0.18556499,0.97981101,1.0,0.0,0.0,0.0,178.57910832137347
5.0457,9614.1089,8.133061817066983,3.86109311344857,0.07441433596745561,1.0425299385263995,0.572341716735009,-0.9780261562420223,3.4630578087033226,16.100994514632543,-21.548792889129743,175.402985,175.61814336726962,0.0,175.402985,0.0252213397542644,-0.076276,0.171122,0.981969,1.0,0.0,0.0,0.0,177.10954085703958
5.0632,9614.1289,7.894568399098917,3.1679000323179918,1.0606375927464153,0.9011612109894975,0.7638026626618679,-0.27289811382292783,3.864766759499967,16.223318183236383,-21.36165061808832,174.941528,175.1263496621493,0.0,174.941528,0.030067658251674,-0.079077,0.15730301,0.98391998,1.0,0.0,0.0,0.0,176.5539807945833
5.0852,9614.1489,7.387450066637501,2.4580969096729337,1.9097892145743227,0.8126425346720132,0.8054175473308531,0.3677503445542968,4.292691459204586,16.48025416028331,-21.07121225240261,175.059784,175.19569218341923,0.0,175.05978400000004,0.0300022173167196,-0.082524,0.142978,0.98582298,1.0,0.0,0.0,0.0,176.56148315804035
5.1081,9614.1689,6.7132535837918415,1.7932411572344389,2.628294990902722,0.7495913283788718,0.7389655342627398,0.9593745926449146,4.68774510564902,16.781905630165383,-20.69735600238868,175.609329,175.69011421897386,0.0,175.609329,0.0259925099580514,-0.087398,0.13036799,0.98726398,1.0,0.0,0.0,0.0,177.02114227204362
5.1257,9614.1889,5.924601727249604,1.1740092139514797,3.227884282161172,0.6789850590826974,0.6035992327007016,1.5061942971036557,4.843776009040042,17.174358422675198,-20.22126942212067,176.771606,176.80491770001854,0.0,176.77160600000002,0.0166130811109785,-0.092684,0.118628,0.988464,1.0,0.0,0.0,0.0,178.0961935550759
5.1483,9614.2089,4.97962107599801,0.5568958814184248,3.7429838568921436,0.5691876469672967,0.41561852548331046,1.9845084823232708,4.6875443138709,17.684623531687457,-19.639119692372603,178.692627,178.60956188745803,0.0,178.69262700000002,0.0013332191417377,-0.099188,0.10665,0.98933601,1.0,0.0,0.0,0.0,179.84722429476562
5.1647,9614.2289,3.883629103589111,-0.04000138685147814,4.171322668178872,0.40294504657066815,0.1864928479789657,2.3440747107013404,4.098485048985347,18.22876326856674,-19.083259032936702,-178.660065,-178.6527079440141,0.0,178.660065,0.0219184407556507,0.106723,-0.095636,-0.98943597,1.0,0.0,0.0,0.0,177.48813055043541
5.1844,9614.2489,2.747268864201594,-0.6237972307702186,4.495157475437022,0.18796576930069087,-0.07484883378632923,2.5424329464360618,3.1679288845947227,18.643824132504683,-18.71738670131742,-175.435944,-175.3847659431075,0.0,175.435944,0.0496296342787202,0.113468,-0.087522,-0.98843402,1.0,0.0,0.0,0.0,174.31052557741128
5.2065,9614.2689,1.6644888610095718,-1.1881202282302659,4.70901284224535,-0.07944009247658453,-0.3530297228858923,2.5758038356292823,2.085974103900399,18.857148599782715,-18.576995922587635,-172.027847,-171.89933840533695,0.0,172.027847,0.0792071786582516,0.120507,-0.08217,-0.98613,1.0,0.0,0.0,0.0,170.91400838776545
5.2362,9614.2889,0.6585386580227537,-1.717110237068753,4.789255113223547,-0.4194454676777061,-0.6205429283557647,2.476263825996983,1.2493218685025473,18.85486753977596,-18.61354343322811,-169.08847,-168.84487056875412,0.0,169.08847,0.1052304673172161,0.130565,-0.079298,-0.98264498,1.0,0.0,0.0,0.0,167.91911014747816
5.2518,9614.3089,-0.20478763946203737,-2.1187015741301263,4.69848374827936,-0.8239579121316407,-0.8345313742739935,2.2925623507763833,0.7834835827554656,18.625270488447608,-18.833066024897356,-166.744766,-166.36066810187543,0.0,166.744766,0.1266841265470937,0.14264999,-0.080245,-0.978347,1.0,0.0,0.0,0.0,165.44395524341468
5.2713,9614.3289,-0.8303728473812679,-2.2906097564886854,4.433453356924044,-1.24381908917007,-0.9688999763873986,2.0748574183678414,0.5135096861657065,18.113741782719448,-19.288757160543017,-164.515213,-164.0017860748136,0.0,164.515213,0.1477251289697856,0.153309,-0.087402,-0.97315699,1.0,0.0,0.0,0.0,163.00976522517044
5.2857,9614.3489,-1.2470033237639997,-2.2894650164393457,3.9948008720599972,-1.6319184687618937,-1.0355316565555166,1.8468683341483023,0.44186151844939836,17.405475054990582,-19.881012827987146,-162.310944,-161.69827464315242,0.0,162.310944,0.1690361927310245,0.162727,-0.100033,-0.966923,1.0,0.0,0.0,0.0,160.53642799330586
5.3037,9614.3689,-1.4776585390496653,-2.2154801039210037,3.389518095682323,-1.9443002317512572,-1.0455339524394804,1.6194240052082525,0.5971915175972962,16.64288045220042,-20.48062801766713,-160.319595,-159.66412527844435,0.0,160.319595,0.188690344203406,0.171048,-0.11619,-0.96002001,1.0,0.0,0.0,0.0,158.24727190507937
5.328,9614.3889,-1.5468235109466966,-2.107673191470824,2.6590860653628887,-2.145939106692968,-0.9961188843745965,1.406307613937044,0.9435324595681447,15.88050895108793,-21.053853962144125,-158.588074,-157.97595052118962,0.0,158.588074,0.2061709797127128,0.17838,-0.135607,-0.95251501,1.0,0.0,0.0,0.0,156.20388864848644
5.3605,9614.4089,-1.4781827927971531,-1.9878849580512163,1.8893495143780328,-2.2153313407525204,-0.8833638683369762,1.2222598927358297,1.3823716559059092,15.146260276712242,-21.594347375784242,-157.042084,-156.60745549124712,0.0,157.042084,0.2217505883667482,0.183817,-0.15798,-0.94450003,1.0,0.0,0.0,0.0,154.37625139260206
5.3672,9614.4289,-1.3141793743253798,-1.8558623317710854,1.2101675501063553,-2.1617505031179993,-0.7152439786162379,1.0712689872940804,1.773627457783391,14.487147817411097,-22.09332324267056,-155.4552,-155.37996426369912,0.0,155.4552,0.2366764383871782,0.186202,-0.182348,-0.93598199,1.0,0.0,0.0,0.0,152.61907259115284
5.3861,9614.4489,-1.1560888338480613,-1.7246775186916343,0.7462203376359167,-2.049945338324836,-0.5206724307902459,0.9290814541521383,2.0848503394238502,14.120974806584632,-22.43624027671567,-153.790146,-154.17837464642332,0.0,153.790146,0.2511073912281348,0.187456,-0.204925,-0.92725998,1.0,0.0,0.0,0.0,150.91389687476013
5.4041,9614.4689,-1.0347116085850088,-1.5413210973863665,0.5771818789596121,-1.9843275458026572,-0.33740987845450365,0.7826197931448158,2.2273001401421144,14.239583957285488,-22.538396776276365,-152.099197,-152.95916676048992,0.0,152.099197,0.2644755513085838,0.18735801,-0.22210699,-0.91957498,1.0,0.0,0.0,0.0,149.32841538367688
5.4255,9614.4889,-0.9545153499428696,-1.186376851568851,0.6791703774663507,-2.0720512910545548,-0.20481714410336477,0.632727283058176,2.1708870075901565,14.797113343500016,-22.43023242824119,-150.40567,-151.72915262821414,0.0,150.40567,0.2767699315169534,0.185562,-0.234723,-0.91316497,1.0,0.0,0.0,0.0,147.86496333227058
5.4519,9614.5088,-0.8867058192735864,-0.5273343738185883,0.9089194992270091,-2.371424907461347,-0.14358674367344443,0.4988330141027849,1.9787111946123144,15.507116603781878,-22.25954376463161,-148.723129,-150.67068260392873,0.0,148.723129,0.2876732769387172,0.18098,-0.248252,-0.90711701,1.0,0.0,0.0,0.0,146.56258066719062
5.4666,9614.5288,-0.8123350801222693,0.43350775122945917,1.0215493503920907,-2.8675239321848203,-0.15456371696061377,0.40460636583893317,1.7896552586035241,16.191576651855303,-22.10289616853303,-147.062408,-149.9151592449315,0.0,147.062408,0.2971650101335275,0.175354,-0.26654899,-0.89994198,1.0,0.0,0.0,0.0,145.42518726533729
5.486,9614.5488,-0.6613647432199303,1.542215182053447,0.7728279413569901,-3.4741774807166164,-0.21581389864008715,0.38802302349977946,1.5980281610680223,16.835721880794708,-21.95552694876954,-145.212906,-149.32612233131087,0.0,145.212906,0.3063727424001359,0.169367,-0.28958899,-0.890836,1.0,0.0,0.0,0.0,144.31845910037262
5.5195,9614.5688,-0.36188980130479065,2.5984625119940263,0.01218893739938487,-4.055322545375082,-0.274622341569687,0.49461698008262056,1.3985951673756158,17.388630102702137,-21.872302506774286,-142.915863,-148.83108352685687,0.0,142.915863,0.3157853855477475,0.16177499,-0.317644,-0.87932402,1.0,0.0,0.0,0.0,143.18353338894744
5.5385,9614.5888,0.08720230840570808,3.3763666013068567,-1.2625089339091176,-4.454126930261648,-0.26092985615855646,0.750934725186919,1.2588776377386282,17.788688654237404,-21.93310831709066,-139.899551,-148.39392753700116,0.0,139.899551,0.3256041427078895,0.15221301,-0.35073799,-0.86475199,1.0,0.0,0.0,0.0,141.99563839686533
5.5541,9614.6088,0.6128018455940885,3.7015995642577018,-2.879742800139036,-4.537942350232402,-0.10896296090365376,1.1492270766153891,1.193688482792071,17.966426662896147,-22.194508463463247,-135.638107,-147.80673445580274,0.0,135.638107,0.3372417280373826,0.14103,-0.38782999,-0.84614801,1.0,0.0,0.0,0.0,140.58217188088116
5.5698,9614.6288,1.0339195039987983,3.473714019771383,-4.4847256303580405,-4.261151702291966,0.18571637227617116,1.6183635221838335,1.196270371588966,18.16123310581898,-22.402006611239504,-130.209991,-146.82490453629126,0.0,130.209991,0.3524910748958892,0.13449299,-0.42199999,-0.82436502,1.0,0.0,0.0,0.0,138.7204874229267
5.5872,9614.6488,1.2714786770628461,2.8221358110198778,-5.7578501997411395,-3.660417844642388,0.6164727255000553,2.1441107868470106,1.1554271439465165,18.56351746898017,-22.31906709693707,-124.225449,-145.18420355589632,0.0,124.225449,0.3712495414210763,0.131097,-0.44606599,-0.80374902,1.0,0.0,0.0,0.0,136.41459921407665
5.607,9614.6688,1.2289734302135304,1.9932671490283203,-6.565013708776391,-2.8151676301247224,1.1263128410467913,2.7116142199212807,0.9698031258814162,19.06750189821355,-21.971548727485224,-117.980782,-142.44880846746665,0.0,117.980782,0.3949171405087906,0.127296,-0.45841801,-0.785932,1.0,0.0,0.0,0.0,133.47838714341242
5.6252,9614.6888,0.8595560771769868,1.1554263673259193,-6.880035573582742,-1.8314625201419727,1.6408971711320748,3.25189047394002,0.7732527253418198,19.48839510012963,-21.516099664337325,-112.010712,-138.67237118610757,0.0,112.010712,0.4227300182672148,0.122396,-0.460879,-0.77065498,1.0,0.0,0.0,0.0,129.9858693448011
5.6474,9614.7088,0.24221082413491257,0.4105264531764105,-6.734920665097281,-0.837650210244131,2.1232244857458995,3.6512165343241536,0.5103433783034745,19.51668716354985,-21.303224646736215,-105.658272,-133.64799099608038,0.0,105.658272,0.4567334189374799,0.115328,-0.45790401,-0.75393498,1.0,0.0,0.0,0.0,125.64695793603322
5.6646,9614.7288,-0.4821360186315389,-0.2715477471088385,-6.17575749363417,-0.03597657886799044,2.4900901740665216,3.8341811968711452,0.11665502823955975,19.416011387881795,-21.140672277256332,-99.69828,-127.39519139022272,0.0,99.69828,0.4967918251877938,0.114646,-0.44668701,-0.73520398,1.0,0.0,0.0,0.0,120.42405024956625
5.687,9614.7488,-1.1336142292978317,-0.9870685240690251,-5.3152539404298995,0.48134346150340424,2.6424073201481013,3.813642339473284,-0.4667228504500365,19.511048891963675,-20.711199840709725,-95.287514,-120.14086370801512,0.0,95.287514,0.5387267211345089,0.120509,-0.42267299,-0.71874797,1.0,0.0,0.0,0.0,114.80599352960779
5.7091,9614.7688,-1.5833643865529234,-1.6969910088252025,-4.255563429702148,0.7617403377973406,2.5681405424436705,3.5719769999803086,-1.1302256955015526,19.503883658837886,-20.25248697244116,-91.99823,-112.96179426668594,0.0,91.99823,0.5770357589626659,0.121842,-0.393062,-0.70546901,1.0,0.0,0.0,0.0,109.51535469714271
5.7325,9614.7888,-1.8031775714205303,-2.3186303924164413,-3.1104969106349385,0.8349044349783499,2.28220897498723,3.143809982387978,-1.7895779520352946,19.193602959143718,-19.958543615940943,-88.913399,-106.65908204785059,0.0,88.913399,0.6104946002793141,0.116986,-0.366739,-0.69217998,1.0,0.0,0.0,0.0,104.74945123475483
5.7591,9614.8088,-1.825814837010752,-2.916962436681143,-2.0729205760639333,0.750194882796936,1.7922922558430905,2.6430649622394045,-2.3811018292324526,18.889599409206674,-19.591346896313663,-86.245766,-101.36010268569352,0.0,86.245766,0.6385690994688202,0.113892,-0.34367901,-0.679075,1.0,0.0,0.0,0.0,100.62959316785161
5.7736,9614.8288,-1.720253242478531,-3.457737624481968,-1.2633689195949742,0.5995458967429822,1.2171712743259995,2.1217328433133886,-2.742157952840466,18.568701494205868,-19.303302801382745,-83.966042,-97.37506017501201,0.0,83.966042,0.6597470724465089,0.111919,-0.32767299,-0.66696203,1.0,0.0,0.0,0.0,97.4388280959104
5.7885,9614.8488,-1.5603039236515306,-3.936770082395204,-0.7117796348702683,0.45074990775078194,0.6795338812107518,1.6212933331550299,-2.80821460499293,18.235257189944214,-19.21722716165036,-82.030617,-94.6759620867464,0.0,82.030617,0.6740436101032188,0.111367,-0.320308,-0.65625101,1.0,0.0,0.0,0.0,95.24014998743877
5.8064,9614.8688,-1.3487866302386489,-4.332561650377185,-0.3423590219280648,0.3617864452378669,0.2615072940408033,1.158591107042549,-2.6824037168328,17.852024700458664,-19.406689286161978,-80.360001,-93.02132198398361,0.0,80.360001,0.6830141054870972,0.109605,-0.32033101,-0.64719898,1.0,0.0,0.0,0.0,93.84074550974199
5.8269,9614.8888,-1.056013347297355,-4.690921216156841,-0.08287678122207254,0.35388902318991067,-0.031776943916720785,0.7281731474203488,-2.5755072606298137,17.531361370445566,-19.713670294108773,-79.026779,-91.9139386527072,0.0,79.026779,0.6891219594303458,0.10737,-0.322368,-0.64004803,1.0,0.0,0.0,0.0,92.87871104438604
5.8459,9614.9088,-0.6949229352721544,-5.01244081425404,0.11947631074864518,0.41306330274209435,-0.2398881661477838,0.304059433735708,-2.616521392539174,17.333984467594835,-20.008760056576833,-78.05397,-91.0295549047987,0.0,78.05397,0.6939184845866264,0.105716,-0.323163,-0.634718,1.0,0.0,0.0,0.0,92.11780611218487
5.8677,9614.9287,-0.3775717522992439,-5.185822794979526,0.3193720915150564,0.50550361897701,-0.41946677564555085,-0.13028980523214403,-2.6786635621087935,17.139458815301225,-20.341970802476418,-77.475609,-90.6917551402852,0.0,77.475609,0.696036111736941,0.103098,-0.325221,-0.63177198,1.0,0.0,0.0,0.0,91.78032093976189
5.8854,9614.9487,-0.19788052283442648,-5.1727835473295665,0.5052596448160109,0.5945173359813304,-0.6195721025428294,-0.5704257775389692,-2.658312979382429,16.970067566563134,-20.641303103501556,-77.478035,-91.11065962186416,0.0,77.478035,0.6942982779511987,0.100396,-0.328807,-0.632263,1.0,0.0,0.0,0.0,92.05734924543037
5.9045,9614.9687,-0.18565316592000602,-4.979924148909524,0.6368071463237612,0.6484366156562521,-0.8509008732851111,-0.9918898815067883,-2.5265965909811072,16.92099738683569,-20.8030771571461,-78.081001,-92.17109770611586,0.0,78.081001,0.6890002893293151,0.099605,-0.33284399,-0.63606,1.0,0.0,0.0,0.0,92.89794977012926
5.9253,9614.9887,-0.3538698299681675,-4.607187300281906,0.7030622611615254,0.6545915526985935,-1.0917308334377,-1.3506860259916065,-2.1253405536562457,17.015219083991116,-20.82975072766631,-79.345375,-94.01695423976517,0.0,79.345375,0.679336343405061,0.101024,-0.33809501,-0.64341903,1.0,0.0,0.0,0.0,94.41639136182927
5.9482,9615.0087,-0.6464782817019188,-4.006603502563188,0.7371505699824432,0.6281666015201091,-1.3143184285901564,-1.5899585746770573,-1.3029433080784951,17.057076963869395,-20.884740187657655,-81.136429,-96.862933707498,0.0,81.136429,0.6646129873824164,0.101058,-0.347249,-0.65383101,1.0,0.0,0.0,0.0,96.69471662160417
5.9639,9615.0287,-0.9168819488771511,-3.1712245134136463,0.7452469297574744,0.6045146906147671,-1.4881523460754171,-1.6716298158995664,-0.16837673566016598,16.811443052567885,-21.116782823849746,-82.858414,-100.322570215843,0.0,82.858414,0.647033143654094,0.097469,-0.36162499,-0.66413498,1.0,0.0,0.0,0.0,99.3634293828745
5.987,9615.0487,-1.0514454833536924,-2.3092991012843194,0.6644131447539365,0.6088166877337241,-1.5611072795058336,-1.6303391400978526,1.0040088919515213,16.46269139280526,-21.355979481806518,-84.318848,-103.67874461653939,0.0,84.318848,0.6296662289554681,0.096591,-0.376856,-0.672436,1.0,0.0,0.0,0.0,101.9489963903548
6.0143,9615.0687,-0.9810637555570603,-1.6176329956793327,0.4961168457868279,0.607244115138923,-1.511857333300259,-1.553353391686039,1.905203933093068,16.294432153072364,-21.437249419872412,-85.910271,-106.53945400713074,0.0,85.910271,0.6142143651575234,0.102124,-0.38701701,-0.68009502,1.0,0.0,0.0,0.0,104.21028635976154
6.0301,9615.0887,-0.6480549404696179,-1.0873976285935192,0.31241297027970205,0.5407867610517709,-1.380328152089787,-1.5141253400175294,2.229202304546913,16.257128159796135,-21.50382222466537,-87.704079,-108.70179280660453,0.0,87.704079,0.601967936210127,0.108725,-0.390558,-0.68795198,1.0,0.0,0.0,0.0,105.97805781250831
6.0514,9615.1087,-0.18373487249054676,-0.5817914695224365,0.15410167952522968,0.4101390152001322,-1.2342791406756308,-1.5376426135671486,2.1263227206483393,16.02605141951119,-21.84005287885968,-89.157959,-110.72672690612382,0.0,89.157959,0.5907685949905254,0.11185,-0.39543799,-0.69434202,1.0,0.0,0.0,0.0,107.57686195851444
6.0754,9615.1287,0.2921653370069599,-0.1147541495718098,0.02512955443240017,0.2500280513764551,-1.114206154466048,-1.6430437208467272,1.7938625197097373,15.587358009205456,-22.42931113154082,-90.333153,-113.06385485736409,0.0,90.333153,0.5783178709814862,0.111582,-0.40429899,-0.69974297,1.0,0.0,0.0,0.0,109.33536517358652
6.0935,9615.1487,0.7357526719790064,0.19072568870733903,-0.06724412416703807,0.07968971907836375,-1.0364686369582266,-1.8434866863432777,1.299161223000608,15.236554703385325,-23.015782280859924,-91.917107,-115.74258539278837,0.0,91.917107,0.5636351785068064,0.110126,-0.412918,-0.70688498,1.0,0.0,0.0,0.0,111.38486149759846
6.115,9615.1687,1.1261055168922685,0.2878885835896651,-0.11370186491070555,-0.10227844027425415,-1.0132633114642082,-2.130396094553415,0.6224170377492388,15.187134448974172,-23.417693047268024,-94.126404,-118.44687824315733,0.0,94.126404,0.5478872572161714,0.108978,-0.41808099,-0.71634603,1.0,0.0,0.0,0.0,113.55561923975392
6.1282,9615.1888,1.4133615608234802,0.24377379970244517,-0.11958946468422482,-0.2802141066569259,-1.0558167635527693,-2.4697341565821223,-0.07906554261061594,15.36070963474969,-23.650170646109274,-96.757599,-121.3069292554014,0.0,96.757599,0.5305317983698239,0.107945,-0.422171,-0.72708702,1.0,0.0,0.0,0.0,115.91721331002867
6.1486,9615.2088,1.5642848881995448,0.1663709720894797,-0.10855418552332807,-0.39507076614319514,-1.1688422845370647,-2.7995387037605646,-0.521718136295247,15.497069949893397,-23.88191094007765,-99.68544,-124.89298216383557,0.0,99.68544,0.5084445036568097,0.104416,-0.43018299,-0.73859602,1.0,0.0,0.0,0.0,118.87945129893355
6.1667,9615.2288,1.6107824521605663,0.17899030611569522,-0.12989914080098153,-0.3693342051173769,-1.3609846152015574,-3.034542655867985,-0.6405301409800668,15.307475669149092,-24.318386814304706,-102.452698,-129.22283346178557,0.0,102.452698,0.4810542762426289,0.095224,-0.44539401,-0.74909502,1.0,0.0,0.0,0.0,122.49143776539697
6.1889,9615.2488,1.5739538923084275,0.24581779225931055,-0.2391984357919359,-0.14924368836366453,-1.5949826660091497,-3.126153541026723,-0.4386135566685656,14.965764369896263,-24.8312933813538,-105.540848,-134.08961079873794,0.0,105.540848,0.4484171557544155,0.084802,-0.46386901,-0.75931299,1.0,0.0,0.0,0.0,126.71564885225652
6.2054,9615.2689,1.4998568090603643,0.2800971085261048,-0.47822414249473866,0.25217677871225996,-1.805488572909817,-3.093004000023885,-0.11523715345956731,14.8839790979429,-25.137014052460785,-109.623375,-138.88812750577162,0.0,109.623375,0.4145194454102721,0.080953,-0.47759601,-0.77040398,1.0,0.0,0.0,0.0,131.0218853609074
6.2276,9615.2889,1.453345934113036,0.30683588243051285,-0.845747411846725,0.7481338659499958,-1.9616426822838449,-2.9893636295263386,0.22479950130286674,15.174492170916604,-25.157390255568856,-115.101326,-143.47562039471595,0.0,115.101326,0.3811142133303084,0.084898,-0.483913,-0.78318101,1.0,0.0,0.0,0.0,135.19456663401206
6.2487,9615.3089,1.4969550862161083,0.4101959589999331,-1.2890849061914782,1.2425370758657945,-2.0661234232446746,-2.874419507393264,0.5003443876446294,15.683296709931664,-24.970797456226553,-121.713287,-147.77837208584245,0.0,121.713287,0.3489795419517591,0.093501,-0.48406699,-0.79696298,1.0,0.0,0.0,0.0,139.15017591017596
6.2647,9615.329,1.6476686709044146,0.6543213612598024,-1.7258728117386788,1.690455136186496,-2.1319045605953693,-2.781795393390934,0.7037444664532213,16.171184654328286,-24.70177648589616,-128.86937,-151.8256238634376,0.0,128.86937,0.3181062361088816,0.103878,-0.480932,-0.81038398,1.0,0.0,0.0,0.0,142.90312666865958
6.2878,9615.349,1.8985524939937335,1.0292687586443203,-2.0818520379959544,2.089398725941614,-2.15961768349027,-2.703340123718546,0.90038935541825,16.52852960350474,-24.39456824806725,-136.432861,-155.78268546678245,0.0,136.432861,0.2872728524407407,0.114992,-0.475734,-0.82336402,1.0,0.0,0.0,0.0,146.61048817209092
6.3048,9615.369,2.2759598190751618,1.4778095211496391,-2.3122585532239537,2.423235142376038,-2.1525321008466953,-2.594509954128121,1.1974166169220144,16.727387706165487,-24.056015361145224,-144.59079,-159.90092726791403,0.0,144.59079,0.2534430590509818,0.124635,-0.468465,-0.83712202,1.0,0.0,0.0,0.0,150.63730268487964
6.3241,9615.389,2.7687652679093,1.8864600454813725,-2.369253957011715,2.677179170110256,-2.0889182612468478,-2.408774346431434,1.7325849343921176,16.881546473340777,-23.62443074528332,-153.6577,-164.45193281827528,0.0,153.6577,0.2143488849283795,0.134388,-0.457241,-0.85259902,1.0,0.0,0.0,0.0,155.245338743329
6.3572,9615.4091,3.2475415800146257,2.218664002593756,-2.207097841568025,2.879378397028926,-1.8950153240457688,-2.1231503204981066,2.2817924421983564,17.06192114716763,-23.113641558956797,-162.223145,-168.82921882511772,0.0,162.223145,0.1783261378665493,0.151317,-0.44038999,-0.86681002,1.0,0.0,0.0,0.0,159.45544554077597
6.3693,9615.4291,3.6543769466873783,2.439460118870536,-1.8669409242940178,2.9921423745671336,-1.5904459338517891,-1.7826779039050342,2.69322233293437,17.20261211885501,-22.640847444534792,-168.998657,-172.54047188976455,0.0,168.998657,0.1480713599601878,0.170398,-0.41914099,-0.87940902,1.0,0.0,0.0,0.0,162.96964890002687
6.3969,9615.4491,3.9780863793927583,2.5357453041392453,-1.443353549425229,3.00628304954828,-1.2433947704475117,-1.450271322122792,2.9247147934888846,17.22222670906887,-22.30070908450193,-173.630249,-175.35752091591618,0.0,173.630249,0.1234156447064144,0.185067,-0.39633501,-0.890751,1.0,0.0,0.0,0.0,165.82145908386494
6.4174,9615.4692,4.145587782409141,2.5416442176393947,-0.954376810201941,2.967945383299029,-0.8894146105661416,-1.1325555750895708,3.1221230429382407,17.151579670578222,-22.043287832867733,-176.789597,-177.50274365946086,0.0,176.789597,0.1039610499997928,0.198075,-0.37344301,-0.90027702,1.0,0.0,0.0,0.0,168.06537696696677
6.4316,9615.4892,4.225842966982378,2.438067949109307,-0.40128826555653063,2.885838618838465,-0.552901778099945,-0.834955513682513,3.337433198686867,17.08166796335385,-21.767156159513704,-178.973312,-179.15328958851657,0.0,178.973312,0.0871633437769561,0.207726,-0.34962901,-0.90940201,1.0,0.0,0.0,0.0,169.9991256587795
6.4461,9615.5092,4.1533126432900636,2.1848129217249026,0.26768981223058397,2.7643783635901817,-0.22911000340081503,-0.5098122730197685,3.8142535338997323,17.08073418349756,-21.36169206885603,178.968155,179.1025715265268,0.0,178.96815500000002,0.0694282664409813,0.21815901,-0.32424101,-0.917853,1.0,0.0,0.0,0.0,172.03770119281492
6.5066,9615.5292,3.84053120234716,1.8279538101035184,1.0153813331047736,2.5957202539805384,0.10319823673344886,-0.1457882925099981,4.399989282147811,17.106973841162706,-20.86922732655887,177.471054,177.67390830832025,0.0,177.47105399999998,0.0550666225112805,0.23120099,-0.29810899,-0.92447001,1.0,0.0,0.0,0.0,173.68663642715745
6.5092,9615.5493,3.466016050936643,1.424893038018773,1.683529112215858,2.3819854217020686,0.4139524917726105,0.1782283485756826,4.576380735890919,17.07817217400513,-20.469985831377432,177.427628,177.53858568832777,0.0,177.42762800000003,0.0491460147010877,0.23680501,-0.27336499,-0.93101001,1.0,0.0,0.0,0.0,174.36601201071488
6.5106,9615.5693,2.9979362932212297,1.0200009248715318,2.2528762764214463,2.1464611755880334,0.6686454636586954,0.44891192600092555,4.403792783918833,17.040337230739112,-20.146362134029744,178.594635,178.61588433722682,0.0,178.59463500000004,0.0523625841367661,0.238435,-0.25037399,-0.936867,1.0,0.0,0.0,0.0,173.99694447851496
6.526,9615.5893,2.5162173085803348,0.5784970443775439,2.7209193540466163,1.9092528987671082,0.8311208590764962,0.6700278181667898,4.167451344515891,17.062622545007343,-19.815840163376173,-179.960724,-179.95904068096303,0.0,179.960724,0.057865058400384,0.236994,-0.228774,-0.94241601,1.0,0.0,0.0,0.0,173.36544674184023
6.5478,9615.6093,2.0709646701450843,0.16207442256944127,3.089029978274052,1.6697501053968022,0.9401864414745076,0.8744561316320142,4.038390964878651,17.145376999186553,-19.461035247642243,-178.701157,-178.66650258894157,0.0,178.701157,0.0628014376094988,0.23511299,-0.209335,-0.94707799,1.0,0.0,0.0,0.0,172.79874640605811
6.5667,9615.6294,1.6646162530882271,-0.11771476725317065,3.3553324839170156,1.402726921159548,1.0781891382961093,1.0922298704214968,4.024943411708832,17.21185405193252,-19.12682705996192,-177.556091,-177.45771557595793,0.0,177.556091,0.0683957005996697,0.234687,-0.19361199,-0.95013601,1.0,0.0,0.0,0.0,172.15630648291133
6.587,9615.6494,1.2779014892995395,-0.2746203969124412,3.5075752228193746,1.0670459267939647,1.302426350028652,1.3339297420926464,3.9943792213683995,17.319168769401085,-18.770161978059004,-176.097672,-175.89022093635515,0.0,176.097672,0.0773650485760822,0.235397,-0.17904501,-0.95212698,1.0,0.0,0.0,0.0,171.1257508282139
6.6099,9615.6694,0.9233912983408582,-0.3976674581254551,3.505830228175885,0.6394594816459491,1.591324495110855,1.5936351139986704,3.7941682878538447,17.558875734181168,-18.352492698345994,-174.046555,-173.66285272045724,0.0,174.046555,0.090643737023907,0.233794,-0.162361,-0.95433903,1.0,0.0,0.0,0.0,169.5987162377951
6.6249,9615.6895,0.5532703361542464,-0.3739235120739872,3.311186918356743,0.13111132005221665,1.8737876812682326,1.8548392356731214,3.352238528532307,17.73874191022562,-18.101693198681737,-171.140152,-170.52996366037453,0.0,171.140152,0.1115331495117036,0.229072,-0.148424,-0.95554,1.0,0.0,0.0,0.0,167.1925950640261
6.6536,9615.7095,0.31660382765543715,-0.1075374550926016,2.898367421637797,-0.33236127554389455,2.05431768655394,2.1190263833690377,2.6381874237163965,17.615237430062145,-18.270062218820083,-167.673538,-166.98277347637864,0.0,167.673538,0.1372131006883072,0.21372899,-0.14305399,-0.95657098,1.0,0.0,0.0,0.0,164.22677536624406
6.6675,9615.7295,0.10245360255252611,0.30328861332140633,2.288432011849997,-0.638290229097304,2.069542570247036,2.4442108377342406,1.9544390017369384,17.21801594925569,-18.726803642898595,-164.179565,-163.6324205656135,0.0,164.179565,0.163048622353946,0.192059,-0.14477199,-0.95685399,1.0,0.0,0.0,0.0,161.2322126168641
6.6867,9615.7495,-0.31115721407374064,0.6748048758232588,1.5445817357733809,-0.7763830880014582,1.9108192982096845,2.8707254434189866,1.6076060884490015,16.72662515810746,-19.199514825766386,-160.770432,-160.4109191499773,0.0,160.770432,0.1887530775466177,0.17502899,-0.14791299,-0.95491302,1.0,0.0,0.0,0.0,158.2399516530003
6.7081,9615.7695,-0.851812150740469,0.9069157910653436,0.7660986510382131,-0.7605611530683338,1.6249065331054675,3.3766834755871304,1.5105332735003465,16.19092537521526,-19.617799706413294,-157.136505,-156.93634711382205,0.0,157.136505,0.2163826579943955,0.16190401,-0.148496,-0.95126998,1.0,0.0,0.0,0.0,155.00668509154588
6.7264,9615.7895,-1.5078717972782547,0.9602275780629468,0.06356300591176378,-0.686028471146752,1.263981388579683,3.856866303508802,1.6582839332862989,15.588169011106862,-20.033512860445946,-152.788788,-152.6366780731405,0.0,152.788788,0.2504408724747618,0.155049,-0.146083,-0.94440401,1.0,0.0,0.0,0.0,150.99279545432967
6.7495,9615.8095,-2.1416929711846215,0.7959115229304652,-0.47104244929034067,-0.6178019038210958,0.8362205614026819,4.179112363882371,2.023632145016732,15.027681963791055,-20.485359061076757,-147.602524,-147.34309770961335,0.0,147.602524,0.2916256028156302,0.15311299,-0.13971099,-0.93380499,1.0,0.0,0.0,0.0,146.08939283690503
6.7842,9615.8295,-2.5006522080319367,0.4752862329676132,-0.7922712157301284,-0.521105150215918,0.3377116937349216,4.22757629409794,2.373929252596879,14.63712221771339,-21.039236574874668,-141.968353,-141.56279417528245,0.0,141.968353,0.3355721528799729,0.148479,-0.129189,-0.92122501,1.0,0.0,0.0,0.0,140.7853319733988
6.796,9615.8495,-2.54063922457806,0.1588410478410901,-0.990841759193243,-0.4045024008818978,-0.155978506524436,3.9300657022587866,2.518742307573481,14.328035105945368,-21.778696349578823,-136.081009,-135.630224524768,0.0,136.081009,0.3806959206883095,0.140651,-0.120269,-0.90599298,1.0,0.0,0.0,0.0,135.2464075089254
6.8107,9615.8695,-2.4585760740030644,-0.136691044129583,-1.2683891306572441,-0.3691098144741586,-0.5406682520875329,3.2980264073813212,2.7365011908500794,14.209840694484296,-22.436634371833875,-130.292526,-129.66056644897873,0.0,130.292526,0.4253857452631196,0.14274099,-0.116656,-0.88603801,1.0,0.0,0.0,0.0,129.64983545924616
6.8257,9615.8895,-2.344986208406276,-0.48038957540009786,-1.7287916547289601,-0.44513623013588444,-0.7150449461748548,2.432158039132131,3.4762170715447187,14.672386528626951,-22.532410855273557,-126.055756,-124.66425319780186,0.0,126.055756,0.4594646329984928,0.164129,-0.114474,-0.86536098,1.0,0.0,0.0,0.0,125.29486671311359
6.8475,9615.9095,-1.904097491795943,-0.4781210911436487,-2.165463472518735,-0.5197099007880153,-0.5071216881382528,1.5712690553253552,4.208553053031068,14.777827293787588,-22.658496804567093,-124.01535,-122.35407185545452,0.0,124.01535,0.4752014855641338,0.175044,-0.121343,-0.85370898,1.0,0.0,0.0,0.0,123.25506091553038
6.866,9615.9295,-1.2430448460515553,-0.26014156674284916,-2.391152517298483,-0.5772319170419654,-0.05496756808371836,0.8969563254128552,4.56879264841977,14.623376843837445,-22.86082543387174,-123.011589,-121.66922635407849,0.0,123.011589,0.4815297623091635,0.172336,-0.130436,-0.84936202,1.0,0.0,0.0,0.0,122.42927810590277
6.8874,9615.9495,-0.5781872139716906,-0.02539346396474751,-2.270593293184061,-0.6363578236916776,0.43345688103741253,0.4783419038299843,4.4224064304730675,14.569757566254218,-22.987248380398555,-122.094025,-121.24030240421452,0.0,122.094025,0.4866010211071487,0.161102,-0.13382401,-0.848149,1.0,0.0,0.0,0.0,121.76515939094628
6.9053,9615.9695,-0.05361275988541925,0.22639366150219642,-1.753383297669977,-0.7627804881488913,0.8039350685658304,0.2776216655197729,3.9054553504670686,14.473158299876411,-23.128030306534868,-120.950119,-120.71149798617927,0.0,120.950119,0.4928215524026513,0.142579,-0.134452,-0.84777403,1.0,0.0,0.0,0.0,120.94759331052641
6.9253,9615.9895,0.22030954917398482,0.459002341505921,-0.9159673084445679,-1.0764774477948817,0.9747663651620875,0.19031189956199607,3.3619095355897066,14.416892032827212,-23.221471030278583,-119.48774,-119.74836510900812,0.0,119.48774,0.5016138505827361,0.125433,-0.134848,-0.84526098,1.0,0.0,0.0,0.0,119.7863418866539
6.956,9616.0095,0.3234273689746132,0.6708904291906523,0.04672240163588093,-1.7106653016406221,0.9640432615494507,0.12450585749107157,2.932554323379744,14.397511626007471,-23.317349278918783,-118.108528,-118.8077034689138,0.0,118.108528,0.5099110352512485,0.109748,-0.136344,-0.842233,1.0,0.0,0.0,0.0,118.6841919452499
6.9715,9616.0296,0.2970008255396417,0.6305703459255585,0.8922555929093221,-2.748098334613924,0.8318103215808919,0.03470864372034377,2.689448716726753,14.92542391127089,-23.088806392330508,-117.111664,-117.88458790686941,0.0,117.111664,0.5168662025722128,0.102092,-0.132782,-0.83952099,1.0,0.0,0.0,0.0,117.75544732223018
6.987,9616.0496,0.1446255773800127,0.7784258192196385,1.3796826137173746,-4.0978493846658015,0.6687785421802406,-0.16185365819647224,2.7820719133068774,14.928491880118305,-23.12014111000974,-116.0009,-117.46194902170755,0.0,116.0009,0.5217456429469437,0.090006,-0.147021,-0.83550298,1.0,0.0,0.0,0.0,117.1011624395989
7.0082,9616.0696,-0.06550588267967372,1.1788844745108307,1.427212182375433,-5.509278931852801,0.4734549670859385,-0.44035567296477685,2.9502240573173584,14.280076076814936,-23.425286654745566,-114.068886,-117.22622772077965,0.0,114.068886,0.5267932055462746,0.067252,-0.182381,-0.82746798,1.0,0.0,0.0,0.0,116.42192080401793
7.0356,9616.0897,-0.21298853996647082,1.6153747989481515,1.1282186557743028,-6.6856868902314,0.1954051847076368,-0.6564693563397253,2.8956615992109604,13.486224149393381,-23.67220701890777,-111.13636,-116.94220872714246,0.0,111.13636,0.5316741388355275,0.033082,-0.22989599,-0.81447899,1.0,0.0,0.0,0.0,115.76272083878342
7.0641,9616.1097,-0.26639448351546813,2.072864988047539,0.6104341522970831,-7.420713511195456,-0.09854025669198307,-0.6767054238463448,2.7891599417814277,12.822363756806157,-23.778816080878038,-107.727692,-117.12059767623737,0.0,107.727692,0.5305628858272691,-0.011133,-0.28671199,-0.79760599,1.0,0.0,0.0,0.0,115.91301070527882
7.0742,9616.1297,-0.2879276279434255,2.5564324105356158,-0.08254801295318792,-7.695107144120863,-0.23480834575442366,-0.5129544387293214,3.0994847844515476,12.481466578494508,-23.780410048802413,-104.522346,-118.43899999494045,0.0,104.522346,0.5170958959427733,-0.058633,-0.35071301,-0.77857202,1.0,0.0,0.0,0.0,117.72469846863285
7.0945,9616.1497,-0.34949944849472203,2.8110000201479006,-0.8942795362204183,-7.6939518154346125,-0.2919611339575683,-0.2696538893230036,3.6565321414231917,12.999427586583852,-23.515525837438773,-100.75666,-119.77970195132052,0.0,100.75666,0.5017561660575381,-0.095084,-0.41088799,-0.755229,1.0,0.0,0.0,0.0,119.76748962945946
7.1106,9616.1698,-0.43954613647137863,2.5495377734321267,-1.6864411050900046,-7.694426890788694,-0.46241088248819784,-0.01902511981333399,3.7791606709211294,14.914957441157274,-22.610496489613645,-96.104225,-119.88124018511087,0.0,96.104225,0.4995593451833323,-0.110539,-0.45398501,-0.72946501,1.0,0.0,0.0,0.0,120.05829841661333
7.1289,9616.1898,-0.3864063234100432,2.147260880771593,-2.4910225845668528,-7.882645847162733,-0.5936259197709147,0.2939657343973532,3.435607986399514,16.838443461198207,-21.610077863438583,-91.165337,-119.29146875710205,0.0,91.165337,0.5005843030993078,-0.12966099,-0.49089801,-0.70115799,1.0,0.0,0.0,0.0,119.9226705661598
7.1483,9616.2098,-0.33814981949028544,1.707488218091975,-3.2785960793554993,-8.228747452303297,-0.6807226654252763,0.6190091428803441,3.1434504873593863,18.134153950479334,-20.85888437809729,-85.907532,-118.8220379779311,0.0,85.907532,0.4968666636126216,-0.157029,-0.53181797,-0.66755903,1.0,0.0,0.0,0.0,120.41416850916299
7.1655,9616.2299,-0.39550433632177295,1.1853426461655021,-3.9851214189369273,-8.551294536780176,-0.7604520976405533,0.953307684881354,3.0867898425644986,18.74125199658771,-20.520146560192206,-79.799751,-118.81346657850763,0.0,79.799751,0.4870220773377721,-0.188099,-0.58069301,-0.62467903,1.0,0.0,0.0,0.0,121.70992286776637
7.1868,9616.2499,-0.5356095813263306,0.5205430660960446,-4.543831037896893,-8.664623728049857,-0.773021054379806,1.282933281568066,3.297488619237201,18.863628019048186,-20.529887742231345,-72.957527,-119.51060251623419,0.0,72.957527,0.4712192352999179,-0.21723101,-0.63476598,-0.57256901,1.0,0.0,0.0,0.0,123.77306224329587
7.2073,9616.2699,-0.6660258024309285,-0.31113750535682383,-4.9219924361863425,-8.482320880239822,-0.6795562189032442,1.576834964979652,3.561208665765486,18.888511165900894,-20.601189784003196,-65.916489,-120.73792272328406,0.0,65.916489,0.4541813697743876,-0.238952,-0.68671501,-0.51482397,1.0,0.0,0.0,0.0,125.97545103404468
7.2286,9616.2899,-0.6754962317362623,-1.2062334108703219,-5.153295419129792,-8.043464477022429,-0.4468683228992738,1.8525949830841366,3.531149573511215,18.893919077622215,-20.719036530470884,-59.166687,-121.80334363543857,0.0,59.166686999999996,0.4415304024541671,-0.25566801,-0.73196203,-0.45157099,1.0,0.0,0.0,0.0,127.59686466783333
7.2518,9616.31,-0.6136571742588713,-2.0251949800173206,-5.307799452073409,-7.526115801935029,-0.03225332859380803,1.979314886490169,3.4398080444281938,18.668955665982203,-21.03386569401668,-53.087265,-123.07694469784232,0.0,53.087265,0.4284411446165033,-0.270915,-0.77249002,-0.38249499,1.0,0.0,0.0,0.0,129.26265624846195
7.267,9616.33,-0.5633637007097393,-2.8147754334525352,-5.488705748843207,-7.131314636576617,0.48889711550058257,1.9346559771835607,3.4366083844090456,18.47473040303004,-21.260041892069275,-48.530014,-124.25520094289924,0.0,48.530013999999994,0.4156297914763806,-0.285622,-0.80378902,-0.31558701,1.0,0.0,0.0,0.0,130.88203257375744
7.2875,9616.35,-0.568550936069842,-3.6680465108215485,-5.755168765718678,-7.017870877262326,0.9196949919461543,1.8272156989426758,3.2817948047958474,18.489039579910894,-21.218121754308495,-45.02821,-125.13298458088602,0.0,45.02821,0.4082948186433671,-0.29699901,-0.825378,-0.252662,1.0,0.0,0.0,0.0,131.80447420436508
7.3092,9616.3701,-0.6998048340151506,-4.641314524958172,-6.024303022364332,-7.24579310468892,1.2025448352373753,1.790881177823459,3.0179981676990577,18.610499194560894,-20.914145975392778,-42.368317,-125.58016804102415,0.0,42.36831699999999,0.4061063735390027,-0.307661,-0.838763,-0.192091,1.0,0.0,0.0,0.0,132.07904640637892
7.3313,9616.3901,-1.0298223847746604,-5.69720275599726,-5.9991748780572935,-7.71263328397858,1.424034754235472,1.8956103714115642,2.899033836741882,18.43217642034389,-20.63673123561784,-40.593575,-125.58547037196838,0.0,40.59357499999999,0.4031452244819968,-0.323953,-0.84658402,-0.125793,1.0,0.0,0.0,0.0,132.4501010510242
7.3551,9616.4101,-1.4757511012622282,-6.736203163689547,-5.3472940107125355,-8.217378020720517,1.6194674791298618,2.089506788722543,2.9169871362827724,17.883079326286484,-20.499582814579654,-39.051434,-126.44294624499672,0.0,39.051434,0.3938486815846408,-0.34123299,-0.85218501,-0.047159,1.0,0.0,0.0,0.0,133.61162278278945
7.3683,9616.4301,-1.912544434304373,-7.434193663239813,-3.8218763164433778,-8.573804531779773,1.8550631784493516,2.135408080427,3.118831127440325,16.861989841647716,-20.69790092442173,-37.70266,-129.59683811504436,0.0,37.70266000000001,0.3690815651825756,-0.35561901,-0.857288,0.048695,1.0,0.0,0.0,0.0,136.6820276377394
7.3887,9616.4502,-2.251260306133436,-7.389434963266274,-1.584736152779481,-8.601699916398346,2.272043867263734,2.0663029206829595,3.231366767096201,15.653933011232374,-21.133313445925523,-37.558304,-133.51998274878338,0.0,37.55830399999999,0.3400380146107483,-0.36893699,-0.85109198,0.154603,1.0,0.0,0.0,0.0,140.24161971658117
7.4065,9616.4702,-2.3499772035877124,-6.561644055095236,0.7721766096578051,-8.312735884406333,2.7499457352390855,1.9305816476101407,3.0085870266056602,14.812698427617258,-21.45589255608841,-38.019455,-138.3498932211,0.0,38.019454999999994,0.3179655796105922,-0.37421,-0.83269501,0.255898,1.0,0.0,0.0,0.0,142.92012741763176
