AppTimestamp(s),SensorTimestamp(s),acc_x,acc_y,acc_z,gyro_x,gyro_y,gyro_z,mag_x,mag_y,mag_z,yaw_deg_ori,yaw_deg_ori_cal,yaw_deg,yaw_error,Quat_w,Quat_x,Quat_y,Quat_z,q_w,q_x,q_y,q_z,quat_angle_error_deg
0.0962,48.1208,-0.6939745190327922,-0.04127896471946313,-0.0359417357304288,0.05977948832149459,0.13642972983303192,-0.07047134615962726,-11.437233523471207,26.24589988944533,63.03424947732046,-47.103889,-35.886670217025944,0.0,47.10388900000001,0.86434940977246,0.358495,-0.073545,-0.344924,1.0,0.0,0.0,0.0,60.38300163642337
0.0991,48.1408,-0.57577928155726,-0.07666834187124705,0.14103017130228324,0.011773134709619028,0.07398444684773697,-0.2151190894247775,-11.283717159095826,26.103534327156893,63.22713713428606,-47.282406,-36.08087800982718,0.0,47.28240600000001,0.8643119697677337,0.35766101,-0.072461,-0.346111,1.0,0.0,0.0,0.0,60.39153236729632
0.1016,48.1609,-0.4767670981296517,-0.09599784583631221,0.29014822081002833,-0.023680641201028085,0.005153947646997753,-0.36643399608707145,-11.178096454568891,26.100970272129928,63.35758152933063,-47.409916,-36.284657001992855,0.0,47.40991600000001,0.8643746904509871,0.35615799,-0.072449,-0.34750399,1.0,0.0,0.0,0.0,60.37724079900083
0.1053,48.181,-0.42477150971188316,-0.1222997274119586,0.39067895616609505,-0.04223782091365616,-0.07058286721960594,-0.5207038813042139,-11.160427422021673,26.100431851998668,63.478746076126484,-47.632347,-36.5301442698893,0.0,47.63234700000001,0.8637491739064761,0.35525599,-0.073911,-0.349668,1.0,0.0,0.0,0.0,60.519634569141985
0.1064,48.201,-0.4188160811033974,-0.1306148918370229,0.42909339602058694,-0.054340719670823046,-0.15044102787344765,-0.6653970670060978,-11.051939230631216,26.238487204412866,63.56506055960382,-48.174545,-37.065562341258314,0.0,48.174544999999995,0.8619717649110902,0.35402301,-0.077336,-0.35453001,1.0,0.0,0.0,0.0,60.92260268928521
0.1088,48.221,-0.4716053628494943,-0.11873403674031158,0.4002273535282068,-0.07942306889857575,-0.2290352244946174,-0.7952980140216144,-10.987069467596989,26.44566641470281,63.61480651270195,-48.993774,-37.808014622318815,0.0,48.993774,0.8587500504412794,0.35330501,-0.08337,-0.361626,1.0,0.0,0.0,0.0,61.646946024536305
0.1103,48.2411,-0.5231722963099523,-0.13320462072199657,0.3229292038677656,-0.13640922267098726,-0.29791568301384397,-0.9235245186808512,-10.999888241840772,26.312946763818566,63.78247680226363,-49.796204,-38.37014508741446,0.0,49.79620399999999,0.8552803255661151,0.35487601,-0.087649,-0.367255,1.0,0.0,0.0,0.0,62.41856449493536
0.136,48.2611,-0.5741937663514642,-0.0906694853740766,0.23320742292123953,-0.22387867183942056,-0.3589425290732161,-1.0604263398380975,-11.094541799247843,26.430336507770637,63.81489586129604,-50.312866,-38.80556696334694,0.0,50.312865999999985,0.8527654950913057,0.355084,-0.092506,-0.37168401,1.0,0.0,0.0,0.0,62.9725077586768
0.1526,48.2811,-0.6417185996274375,0.01698593073453436,0.15931908486842872,-0.3208570382976996,-0.40487348059055167,-1.1905712481569592,-11.130872334931635,26.96468781556607,63.6593098355649,-50.809612,-39.40543722688477,0.0,50.809612000000016,0.8503074423419917,0.35315001,-0.0995,-0.37730899,1.0,0.0,0.0,0.0,63.50975147376898
0.166,48.3011,-0.7346694833887284,0.15015749075960727,0.10952732982857682,-0.39761196002538324,-0.416192905521416,-1.2663516298272124,-10.966230338782655,27.665440982183693,63.4359784574291,-51.594395,-40.31528964098662,0.0,51.59439499999999,0.8468431024538252,0.350539,-0.107593,-0.38523099,1.0,0.0,0.0,0.0,64.26009979611365
0.214,48.3212,-0.8974089929330447,0.3500928720122545,0.0754000980169316,-0.42169010508297455,-0.37952783222179803,-1.2271327972941195,-10.722134215420866,28.727760528962914,63.02943375494204,-52.56002,-41.54861639195006,0.0,52.56002000000001,0.8422292304039678,0.34646201,-0.118988,-0.39554501,1.0,0.0,0.0,0.0,65.24745011070448
0.2172,48.3412,-1.1250812878153114,0.6089570842623062,0.05039542327213198,-0.37940907818979197,-0.2940534336544294,-1.0414505508682868,-10.47636218153135,30.025279955571335,62.47164589471873,-53.52602,-42.93355103473502,0.0,53.52602,0.8369423766481776,0.341474,-0.13267501,-0.406596,1.0,0.0,0.0,0.0,66.36272647534648
0.2259,48.3612,-1.3533946843982392,0.8697406040141504,0.04419443082611707,-0.2945660869719299,-0.1894928424527989,-0.7397923654425124,-10.126919653524855,31.191902825875346,61.95776786331996,-54.423447,-44.260107402407186,0.0,54.42344700000001,0.832015427203258,0.336817,-0.144366,-0.41648901,1.0,0.0,0.0,0.0,67.38733766518881
0.2587,48.3812,-1.452421517899491,1.0270432977108668,0.09354577525957986,-0.22015333971295184,-0.12269870784653583,-0.4094937747318837,-9.443305348397327,31.571509038603452,61.88089713922686,-55.079578,-45.01172075779421,0.0,55.079578,0.8304363371124723,0.33443001,-0.144665,-0.42143101,1.0,0.0,0.0,0.0,67.71282701228262
0.274,48.4013,-1.5194482715304969,1.1129075712993155,0.19832444315330555,-0.1942883550197392,-0.1431886505924814,-0.14744697962053913,-9.075361154552624,31.357334875650498,62.06308193921298,-55.238506,-44.958948436946955,0.0,55.238506,0.83114498129182,0.33556899,-0.139529,-0.42085999,1.0,0.0,0.0,0.0,67.56692893553574
0.2905,48.4213,-1.6267132684079089,1.2153148790108137,0.3591780635316688,-0.2276932450819735,-0.2592407709012972,0.005382049805783939,-9.09100908106003,31.095380446226788,62.22152150066157,-55.142208,-44.61070374421056,0.0,55.142208,0.8319200685464558,0.33809599,-0.135795,-0.41852099,1.0,0.0,0.0,0.0,67.40703273485649
0.3114,48.4413,-1.8055615172003887,1.4066888673665505,0.5776608967333949,-0.2875201675004154,-0.4441755282724534,0.07688404222738768,-9.309341244776494,31.352888468488985,62.096574772633495,-54.841206,-44.35491978011485,0.0,54.841206,0.8325833961625104,0.338292,-0.136609,-0.41677499,1.0,0.0,0.0,0.0,67.26992583369878
0.3265,48.4613,-2.039218409660581,1.6264078986091102,0.8452239714213494,-0.3201108432009119,-0.65928046483236,0.12695313476232184,-9.514044952433608,31.962136597984617,61.79513729721577,-54.550846,-44.30551090056476,0.0,54.55084600000001,0.8329650538455978,0.336537,-0.139874,-0.41635001,1.0,0.0,0.0,0.0,67.19092701237057
0.3518,48.4813,-2.313693335859946,1.7513681327774484,1.1246453500630302,-0.2773831579154583,-0.8606627401698637,0.20269513500420122,-9.95873592566139,32.37195119331839,61.55342156114803,-54.137917,-44.004627017304045,0.0,54.137917,0.8334659475510802,0.33655301,-0.142575,-0.41441399,1.0,0.0,0.0,0.0,67.08712310174786
0.3728,48.5013,-2.62474319997136,1.8636494006866209,1.3331325333636332,-0.1517209041813472,-0.9858069577747532,0.3332956360053797,-10.849986130245885,32.98704807912799,61.115936909594815,-53.475361,-43.55701474106273,0.0,53.47536099999999,0.8334218629178263,0.33682099,-0.149463,-0.41185001,1.0,0.0,0.0,0.0,67.09626477686317
0.3937,48.5213,-2.896543564453488,1.9222376682920879,1.4549928348990235,0.031629317573766254,-0.9823740648167165,0.507161565585714,-12.18890512194847,33.34366777688699,60.70852329926471,-52.612755,-42.75503214573286,0.0,52.61275499999999,0.8329435821493072,0.33982199,-0.157232,-0.40743601,1.0,0.0,0.0,0.0,67.1953735864932
0.4056,48.5413,-3.081990848030168,1.8418307488318457,1.5334710886627576,0.21860056251337068,-0.8371730424096007,0.6771766028186444,-13.87325061900657,32.78923105830994,60.68787083548516,-51.711987,-41.37356920896796,0.0,51.71198699999999,0.8323194375894749,0.34864399,-0.160583,-0.39988101,1.0,0.0,0.0,0.0,67.32451441624468
0.4257,48.5613,-3.179911470632833,1.6572355068170488,1.613051072658969,0.3543253939389028,-0.5863867939139077,0.8062716883158534,-15.470546161618508,31.519418732096835,61.012587396135885,-50.872589,-39.688874037661996,0.0,50.872589000000005,0.8326084018498732,0.360228,-0.157537,-0.390104,1.0,0.0,0.0,0.0,67.26475244602783
0.457,48.5813,-3.2609700644370294,1.4582333961786214,1.6946559171997109,0.4219691713407664,-0.30927963028384586,0.8916359040083359,-16.547974415076173,30.268572105448573,61.40036325490124,-50.197399,-38.30274575741919,0.0,50.19739899999999,0.8341914936243355,0.369082,-0.15061501,-0.38107499,1.0,0.0,0.0,0.0,66.93651078035198
0.4759,48.6013,-3.3718066691968875,1.2374882664729814,1.7464758675958283,0.45757349569765493,-0.10240041901361469,0.9628435918920821,-16.79967469947515,29.335430185589114,61.817990814771846,-49.960232,-37.63536527817962,0.0,49.96023199999999,0.8366624939893386,0.373155,-0.140733,-0.37542701,1.0,0.0,0.0,0.0,66.42130529234147
0.4899,48.6213,-3.566602766722866,0.9368327001877876,1.6815257607086949,0.506300786228304,-0.031534941831986796,1.0735173045968454,-16.621164596926274,28.588666878169775,62.24255729268749,-49.911427,-37.35092992148052,0.0,49.911427,0.8396504903649373,0.37443799,-0.129457,-0.37151599,1.0,0.0,0.0,0.0,65.79353869716226
0.5066,48.6413,-3.846730679596881,0.4757862801287458,1.393870439725827,0.5869046133989819,-0.11049672943265088,1.2717849301985629,-16.638312888940547,27.570529056461787,62.71844753798406,-49.877682,-36.96296262815579,0.0,49.87768199999999,0.8417394723765305,0.37754801,-0.118833,-0.36716601,1.0,0.0,0.0,0.0,65.35147596661602
0.5256,48.6613,-4.072486954018993,-0.14002246014040898,0.819038450929833,0.6957799645324306,-0.2955457878374149,1.5695248550777745,-17.068320608974023,26.178804485680068,63.22158938213958,-49.622997,-36.23748229642973,0.0,49.622997,0.8433985009473635,0.38310701,-0.108876,-0.36063001,1.0,0.0,0.0,0.0,64.99849531401438
0.5548,48.6813,-4.078242843375225,-0.8728762109233292,-0.045367376501362244,0.8126501454701246,-0.5065025837406228,1.9386359528258106,-18.076143055792297,24.466085308287383,63.66078006392782,-48.720345,-34.93337349525987,0.0,48.72034500000001,0.8460416871518683,0.39010701,-0.099235,-0.34954599,1.0,0.0,0.0,0.0,64.43256721484613
0.5688,48.7013,-3.7410951864798765,-1.6885454939939781,-1.137366024620814,0.9009156322778097,-0.6611878501226347,2.3228231107939665,-19.792837766482098,22.333711087122154,63.98892509628719,-46.936787,-32.90777974199679,0.0,46.93678700000001,0.8500536856144204,0.39850301,-0.089843,-0.33246401,1.0,0.0,0.0,0.0,63.56498198892291
0.586,48.7213,-2.9847474444406172,-2.5073890983656693,-2.327540069075331,0.9130309055852504,-0.7044158030710755,2.6517543156594408,-21.96547221812165,19.72224102327617,64.22611004627647,-44.473099,-30.408634572046694,0.0,44.47309899999999,0.8549781442001895,0.407554,-0.07993,-0.310682,1.0,0.0,0.0,0.0,62.485359333220494
0.6058,48.7413,-1.8277097260593034,-3.2403920990035084,-3.4661084140512477,0.8036909758839454,-0.626051233650158,2.8609710671445443,-24.2466636260597,16.558781391903842,64.42990958769596,-41.577225,-27.691955404177538,0.0,41.577225,0.8603656394576668,0.41672799,-0.068056,-0.28544199,1.0,0.0,0.0,0.0,61.28467662843382
0.6265,48.7613,-0.3732321021164309,-3.7982414961617845,-4.4190913513564745,0.5604688140636536,-0.4528715175273941,2.914078641837577,-26.207150277773756,13.01603608444513,64.64997896482222,-38.417213,-25.007157218486686,0.0,38.417213000000004,0.8663579709102582,0.42448699,-0.05276,-0.257781,1.0,0.0,0.0,0.0,59.92373726907917
0.6547,48.7813,1.1573557429409838,-4.096853894900776,-5.062747220032808,0.20318549640332628,-0.2073159064525576,2.8210191848093835,-27.78080220171239,10.28255940967508,64.68461893865938,-34.912605,-22.596683644930707,0.0,34.912604999999985,0.874063853964377,0.42570299,-0.038717,-0.230847,1.0,0.0,0.0,0.0,58.13124813165244
0.6692,48.8012,2.562244125514205,-4.164089133254995,-5.319293002596667,-0.20241994934797936,0.08142783132442144,2.609069486995357,-29.283321911497694,9.192757342611547,64.36764027957531,-30.853668,-20.32861782504412,0.0,30.853668,0.8845358694874957,0.417649,-0.03013,-0.205567,1.0,0.0,0.0,0.0,55.61108149598506
0.6898,48.8212,3.7572094624996177,-4.075730432443496,-5.239828941760882,-0.5615395351998732,0.34749653267466707,2.3124196019967656,-30.59928228802747,9.337965418080032,63.852457783424825,-26.7759,-18.220089946626494,0.0,26.775900000000007,0.8963767801545954,0.40333599,-0.024625,-0.18227001,1.0,0.0,0.0,0.0,52.62835175651348
0.7084,48.8412,4.712925682581559,-3.880118602786185,-4.933603596387382,-0.8181765315764502,0.5318054104622115,1.9779033162412563,-31.549219417486263,10.171162310845425,63.297423695181664,-23.36348,-16.476691281851362,0.0,23.36348000000001,0.9074596067974154,0.38675401,-0.020356,-0.162862,1.0,0.0,0.0,0.0,49.68676938610946
0.7257,48.8612,5.449390923941757,-3.5603467077657864,-4.454891714933468,-0.9765225941809628,0.6058903127834188,1.6378396621574765,-32.36118739355758,11.375583770250351,62.65762058566595,-20.484072,-14.950059717560874,0.0,20.484071999999998,0.9173277359408468,0.36976799,-0.018054,-0.146477,1.0,0.0,0.0,0.0,46.92302058750242
0.7537,48.8812,6.011908084019456,-3.0740089017511427,-3.805371876619172,-1.0709204961947092,0.5639756339744575,1.2965357347262776,-33.325395788865585,12.747821448286977,61.854040412049926,-17.856331,-13.447151457785399,0.0,17.85633100000001,0.9260707154159448,0.353109,-0.018878,-0.131722,1.0,0.0,0.0,0.0,44.339264944158906
0.7673,48.9013,6.467956149024082,-2.4068887785892183,-2.9847209404064543,-1.1367337635841344,0.4162203549723408,0.9420763757105799,-34.42266324643262,13.93826582684138,60.99359048746639,-15.43469,-11.9333867827888,0.0,15.43468999999999,0.933442026021038,0.33818701,-0.021401,-0.117718,1.0,0.0,0.0,0.0,42.04423262966211
0.7878,48.9213,6.821117902280712,-1.607682454795924,-1.9381172646226492,-1.1974557818770033,0.20470606005342842,0.5473616753084745,-35.72320493303109,15.034447351445369,60.02041818651861,-13.286898,-10.503054962370856,0.0,13.286898000000008,0.93941363316273,0.325008,-0.02681,-0.105608,1.0,0.0,0.0,0.0,40.09336843700462
0.8131,48.9413,6.974186006743674,-0.770640558703275,-0.5772376542856144,-1.2460543783723015,-0.013236466936752692,0.08068070087041339,-37.525741940308606,16.34082712290364,58.632054023458025,-11.348458,-9.157523449408668,0.0,11.348457999999994,0.9441517514324697,0.312695,-0.038839,-0.096389,1.0,0.0,0.0,0.0,38.47819044250181
0.8272,48.9613,6.785485961933856,0.009266798750286576,1.0891722214980852,-1.2287440335175401,-0.2087796485024629,-0.46841246858764785,-39.84110445364113,17.777748122472698,56.72777898615509,-9.462687,-7.791778074204109,0.0,9.462686999999988,0.94768221174801,0.30127999,-0.057061,-0.088729,1.0,0.0,0.0,0.0,37.23095576835621
0.8527,48.9814,6.171256588002186,0.6396838070687343,2.8869551748803115,-1.0724297437663532,-0.40296356330596755,-1.0610970468726366,-42.039104504983506,19.493102780165692,54.57985294119,-8.067223,-6.7876435315548305,0.0,8.067223000000013,0.9502780347995632,0.28972599,-0.076836,-0.08442,1.0,0.0,0.0,0.0,36.28757100646238
0.8683,49.0014,5.207709284173024,1.0524014669120758,4.550620520409659,-0.7507691034690572,-0.6607876110191423,-1.6098722245303643,-43.25351246879863,22.04040595312274,52.608204283537816,-8.134791,-7.008391473154741,0.0,8.134791000000007,0.9521707792502352,0.276537,-0.094087,-0.089698,1.0,0.0,0.0,0.0,35.584482768464106
0.8903,49.0214,3.9734364389848507,1.1864589580935858,5.891813873816181,-0.29916737362882767,-1.036425699067351,-2.0344660810018245,-43.546819548107806,25.052629636951984,50.9090290905971,-9.595463,-8.435238278971717,0.0,9.595462999999995,0.951952115190906,0.26582199,-0.11,-0.105004,1.0,0.0,0.0,0.0,35.66639355770541
0.9074,49.0415,2.4574452033634167,1.009942289106192,6.783824306196646,0.21808555862555262,-1.5029683067936397,-2.300621626335838,-43.76860289157738,27.72305368827971,49.192630787618924,-11.515373,-10.255686659861663,0.0,11.515373000000011,0.9476813069677168,0.26313901,-0.13015901,-0.125366,1.0,0.0,0.0,0.0,37.23128056400078
0.9289,49.0615,0.81143500689447,0.6170196590891805,7.086393590708777,0.7215077751376469,-1.9741143376463193,-2.425523411248534,-44.361153841955606,29.72022879155218,47.358452327683665,-13.186986,-11.834940332378782,0.0,13.18698599999999,0.9392137841413954,0.268875,-0.15579499,-0.14598501,1.0,0.0,0.0,0.0,40.16012369298498
0.9476,49.0815,-0.7290088532108354,0.18387909311471962,6.754283778192292,1.1685636218933793,-2.3673694042238456,-2.466590985124339,-45.45513270303832,31.134787083270552,45.29701144742944,-14.083838,-12.731232366240835,0.0,14.083838000000014,0.9280406347574118,0.27925301,-0.185201,-0.162662,1.0,0.0,0.0,0.0,43.73716602205992
0.9746,49.1015,-1.9144252110595348,-0.25179200086734976,5.882087741095738,1.5479947696523157,-2.631918660478291,-2.5059991009599902,-46.65755978065093,32.13557535647784,43.29720108177593,-14.434658,-13.139526508476225,0.0,14.434658000000013,0.9153938817954158,0.29190901,-0.21403299,-0.176162,1.0,0.0,0.0,0.0,47.47654891321281
0.9893,49.1216,-2.7457971703386503,-0.7258786351596473,4.623541918759303,1.873752325593236,-2.7627865535201517,-2.5971354629203773,-47.62089665849656,33.04604501433016,41.52696883248644,-14.818746,-13.572274936161559,0.0,14.818746000000004,0.9005475867265205,0.306584,-0.24199,-0.19094799,1.0,0.0,0.0,0.0,51.53972264570742
1.0101,49.1416,-3.35102553913392,-1.2176983720340688,3.109332521860596,2.1758209831845967,-2.7777580432077267,-2.7285291425861633,-48.223017370049824,34.10295826138707,39.981536017698005,-15.496938,-14.286676860970468,0.0,15.496938,0.8825926186588011,0.322842,-0.270125,-0.20937,1.0,0.0,0.0,0.0,56.08658281537362
1.0262,49.1616,-3.821684359899038,-1.6402000690176077,1.4468211803620576,2.4789760528666402,-2.696060468033961,-2.8464655016901124,-48.41824483380096,35.409393453963204,38.650988675771295,-16.484272,-15.344343926542683,0.0,16.484272000000004,0.8616942102694202,0.33911401,-0.29833701,-0.23125701,1.0,0.0,0.0,0.0,60.985311509650685
1.0495,49.1817,-4.127972996361345,-1.8733533512468417,-0.24951158496110715,2.7656556200277924,-2.5379665118871237,-2.91758289175068,-47.93427848946877,37.02138055761597,37.82282553785365,-18.143742,-17.13489039188075,0.0,18.143742000000003,0.8398123426745644,0.352364,-0.32352301,-0.256686,1.0,0.0,0.0,0.0,65.75938245131988
1.0734,49.2017,-4.2963538265376195,-1.9320630474252005,-1.9434370781883539,3.0341554556292896,-2.2685312412939656,-2.9524842357330408,-47.14031115753432,38.19146519636574,37.75490482813538,-20.2311,-19.233913285719897,0.0,20.231099999999998,0.8166678319617712,0.36667001,-0.34406501,-0.28324199,1.0,0.0,0.0,0.0,70.49478260143462
1.086,49.2217,-4.308718958536934,-1.750352578846316,-3.587347622162846,3.247566576647216,-1.870999497833551,-2.977919524528118,-46.229038906731674,38.54411245561117,38.59553626861542,-22.808237,-21.44611790961822,0.0,22.80823699999999,0.7933203732283697,0.38278499,-0.35825601,-0.30946901,1.0,0.0,0.0,0.0,75.00620540930112
1.1086,49.2417,-4.192749388429972,-1.2226709002566853,-5.109270563674745,3.3407082871038316,-1.3782269582528528,-3.0199196104448625,-44.831734256513464,38.410518386152276,40.36960256523841,-26.78121,-24.579146416072685,0.0,26.781209999999987,0.7697137682437802,0.397742,-0.367006,-0.33859801,1.0,0.0,0.0,0.0,79.34361510744988
1.1267,49.2618,-4.009201960986467,-0.3383891752993101,-6.42442548238486,3.2897021968786415,-0.8063995479280722,-3.092100304143849,-42.74495758766565,37.779829690035164,43.093597455605924,-32.943562,-29.142708044422452,0.0,32.943561999999986,0.7453544428383853,0.410712,-0.37065899,-0.37198699,1.0,0.0,0.0,0.0,83.62089615840962
1.15,49.2818,-3.8348989399033715,0.8551218893259424,-7.426250484234352,3.102730917916071,-0.18675473167579137,-3.197723504300705,-39.85469174372572,36.74690104220894,46.490725469325845,-41.429939,-35.27607835432703,0.0,41.42993899999999,0.7225989133622053,0.41892901,-0.36915901,-0.407518,1.0,0.0,0.0,0.0,87.4610589910122
1.1688,49.3018,-3.767080581823373,2.252043213528656,-8.028487949612522,2.7815478162472664,0.4371923589922325,-3.3542431000566157,-35.807956308882964,35.478222797941,50.39060649965913,-51.785835,-43.03989960426209,0.0,51.78583499999999,0.7047574597827538,0.41958401,-0.360989,-0.44379401,1.0,0.0,0.0,0.0,90.38009415194588
1.1883,49.3219,-3.899685901486897,3.7357451599361227,-8.17317054144114,2.3556826668792294,1.0593339825884611,-3.4986976209336884,-30.717754543341414,33.51211124297596,54.65592904118464,-63.324505,-51.50542416839032,0.0,63.324505,0.6882326339636329,0.4179,-0.34644699,-0.48132101,1.0,0.0,0.0,0.0,93.01926229982324
1.2068,49.3419,-4.2104733378551975,5.259170893422461,-7.84899941452223,1.8944496867098901,1.6188719786097372,-3.496678089243452,-25.087971578106544,31.27124029192901,58.49488058559871,-74.251068,-60.10954950740942,0.0,74.251068,0.6696308208464269,0.41466501,-0.33262801,-0.51865798,1.0,0.0,0.0,0.0,95.92284445661889
1.2307,49.3619,-4.475266804522574,6.786954506259091,-6.974535198394544,1.429579139599838,2.0724701704405946,-3.233320446518168,-18.07804639914707,28.98286436081883,62.039561395345636,-84.842522,-70.34120882238824,0.0,84.842522,0.6481177864490063,0.40482,-0.318041,-0.56117201,1.0,0.0,0.0,0.0,99.20031819363591
1.2539,49.3819,-4.444680546668554,8.200043447829401,-5.533686389936468,1.0342447810632038,2.398627758401994,-2.6061467447115567,-9.577756759350827,26.347543764975956,65.08399676008483,-94.140137,-81.30923668701234,0.0,94.140137,0.6252405908693708,0.386599,-0.29991701,-0.60800099,1.0,0.0,0.0,0.0,102.6003032746472
1.2705,49.402,-4.123031953800441,9.303368542169578,-3.737505142544933,0.7987153290864987,2.554045007765008,-1.6388040896612046,-1.5153044197111463,23.43057328311142,67.06220842257994,-100.877472,-90.15782941213043,0.0,100.877472,0.6039312232411236,0.36670601,-0.282655,-0.64876801,1.0,0.0,0.0,0.0,105.69605466072616
1.2878,49.422,-3.873042741708768,9.59859687898569,-1.4701740038264486,0.5823279031017468,2.5520775149776593,-0.45786899958176647,5.225698484054089,18.969414344042356,68.59226116442795,-104.865913,-93.13500260268849,0.0,104.865913,0.5957372372353265,0.35772699,-0.24916901,-0.67456901,1.0,0.0,0.0,0.0,106.86958813805354
1.3101,49.442,-3.6106282084125993,9.110509135564516,0.914952915830554,0.3783423125029183,2.3229988578307372,0.6831539066635968,10.885131499140904,14.858593572573875,69.32495572764472,-105.795143,-92.41408339738355,0.0,105.795143,0.600709219412437,0.35337099,-0.208205,-0.68624198,1.0,0.0,0.0,0.0,106.15858270215699
1.3276,49.4621,-3.0348337444872686,8.172671933458114,3.0189012805927344,0.2558667709928639,1.9274912124686057,1.623684749445087,15.717985733460008,12.215526766231417,69.30644312865104,-105.272827,-91.37028678610335,0.0,105.272827,0.6093584879094731,0.34645399,-0.17297199,-0.69190502,1.0,0.0,0.0,0.0,104.91373618866724
1.3489,49.4821,-2.36211292367614,6.882326260105367,4.678057635577021,0.18893606570002042,1.4749351424129176,2.3523387071330415,18.78969945469212,10.650622107414419,69.13372180587145,-104.114311,-89.79819160768841,0.0,104.114311,0.6194241910110226,0.342994,-0.145878,-0.69093299,1.0,0.0,0.0,0.0,103.45180393318633
1.372,49.5021,-1.744735913662769,5.389841308066674,5.846786000893138,0.15528436205353868,1.0508457029103666,2.872596329247494,20.207435762557303,10.294842946476079,69.00653035216975,-101.788475,-86.97251081270926,0.0,101.788475,0.6349391995713605,0.34273401,-0.124529,-0.681086,1.0,0.0,0.0,0.0,101.16904968220453
1.3934,49.5221,-1.1220878106264847,3.957778016109039,6.559087344031923,0.16799437444941256,0.7049810909557604,3.1883954566234034,20.613163095381758,11.342270727337258,68.79319908946145,-98.04203,-83.08437525170503,0.0,98.04203,0.6573028784030996,0.341169,-0.107341,-0.663351,1.0,0.0,0.0,0.0,97.81100417685032
1.409,49.5421,-0.4147818670936152,2.5610741849071275,6.928157337844244,0.23126508868889561,0.39231103396188605,3.3338491323945503,20.551210949170688,12.478527286843374,68.53754385741635,-93.998215,-78.94689451521144,0.0,93.998215,0.680906027042513,0.34041899,-0.088964,-0.64231402,1.0,0.0,0.0,0.0,94.17103235032495
1.4266,49.5621,0.19122083429793957,1.399323525997837,6.956695209417472,0.29072416559395875,0.10913086045311363,3.3579097806576894,19.74505386673928,13.54724342639012,68.3896431326958,-90.190231,-74.99357950207963,0.0,90.190231,0.7022057567745222,0.341782,-0.07447,-0.62011802,1.0,0.0,0.0,0.0,90.79151768574117
1.4476,49.5821,0.5409717942876036,0.5001588674258455,6.692520783870069,0.2976502616560539,-0.16674703465176685,3.325579515144245,18.177384249445716,14.277302072204586,68.46414051760894,-86.761757,-71.12007013252293,0.0,86.761757,0.7203916320274687,0.34714001,-0.064109,-0.597009,1.0,0.0,0.0,0.0,87.82635245267005
1.4691,49.6021,0.6916076988204898,-0.21532812427026726,6.192125893411012,0.25304995713617684,-0.47653875837964443,3.2746370514094463,16.472167718452837,14.490033577848575,68.67268873051796,-83.654922,-67.33727480234259,0.0,83.654922,0.7361875781473225,0.35547099,-0.053447,-0.573421,1.0,0.0,0.0,0.0,85.18467922880326
1.4878,49.622,0.7087697139739655,-0.7697667197604947,5.512841134268655,0.18996841061641967,-0.8447250162128335,3.2114210828863525,14.917767498278241,14.610471092071844,68.87745718465979,-80.466415,-63.5863833899174,0.0,80.466415,0.7516550502184226,0.36376101,-0.041575,-0.54860198,1.0,0.0,0.0,0.0,82.53210491521239
1.5228,49.642,0.5730041682950757,-1.148148402087706,4.70591841575021,0.16210593771940074,-1.254858469933668,3.13913622843406,12.984319532324065,15.279218883207912,69.02389174177172,-76.658463,-59.577231049441025,0.0,76.658463,0.7687433330702257,0.37004599,-0.032744,-0.520603,1.0,0.0,0.0,0.0,79.5176500171002
1.536,49.662,0.28100510492667663,-1.365235553892678,3.776796994275891,0.21669028300751814,-1.647646846130875,3.0807210123764674,9.982614226006156,16.557850687481032,69.09070280875763,-72.252762,-55.277386209860964,0.0,72.252762,0.7864714088573086,0.374589,-0.031727,-0.49004,1.0,0.0,0.0,0.0,76.28605775789771
1.5556,49.682,-0.06912301234546092,-1.5043120963359131,2.6729165703190745,0.35079821307909453,-1.9540714115118742,3.0621609932486304,5.743106927203293,17.594563621371172,69.07938657944982,-67.788536,-50.85836745651477,0.0,67.788536,0.8019532626467204,0.38066101,-0.037097,-0.45890301,1.0,0.0,0.0,0.0,73.3659357884154
1.5684,49.702,-0.3850012148529327,-1.6620819915855667,1.3475401544164676,0.47579812855428005,-2.1314429497042817,3.0739447607946726,0.3224613512927519,17.16263302327515,69.07721447908065,-63.887691,-46.336419191002996,0.0,63.88769099999999,0.8122929252524239,0.39394301,-0.044301,-0.427816,1.0,0.0,0.0,0.0,71.35886960676912
1.5934,49.722,-0.556794471049288,-1.7797959516039992,-0.1351006257576941,0.49686665786657036,-2.145970378622887,3.085261037457254,-5.7855165334128245,15.241709956695484,68.89399473956638,-60.213684,-41.610429326754826,0.0,60.213684,0.8192905236906013,0.41271099,-0.049068,-0.39500001,1.0,0.0,0.0,0.0,69.9723292200375
1.6077,49.742,-0.5495687060417405,-1.780658069384961,-1.5954166470318576,0.3699893803752585,-1.9917163983870654,3.063744816936402,-11.842533021696148,12.936099760150732,68.26329392719279,-55.796413,-36.78546048811746,0.0,55.796413,0.8274994967295749,0.42869201,-0.050342,-0.35907301,1.0,0.0,0.0,0.0,68.31454767114832
1.6274,49.762,-0.4154868045407536,-1.7680994355144024,-2.8611764796823937,0.11048102175023855,-1.7375846307603735,2.9694040141268507,-17.12401499091905,11.0853191105681,67.28818037587637,-50.629021,-32.41665161704257,0.0,50.629020999999995,0.8380815188533033,0.436618,-0.049106,-0.32337701,1.0,0.0,0.0,0.0,66.12383238773603
1.6507,49.782,-0.22163949911773795,-1.9309634405830935,-3.843126916705792,-0.21486567019128666,-1.4919222878276246,2.7827174209794627,-21.52178333929532,9.659031725902985,66.22512089595952,-45.434826,-28.706251678500873,0.0,45.43482599999999,0.8489564041514969,0.43880701,-0.046747,-0.29075101,1.0,0.0,0.0,0.0,63.80331413663471
1.6662,49.802,0.004563563917241664,-2.298757908347059,-4.502788050110787,-0.5266798835243371,-1.297467502655918,2.5395886015945583,-25.30115847277522,9.0138017543056,65.05631757286585,-40.514172,-25.63246139440309,0.0,40.514172,0.8593199490228421,0.436032,-0.046983,-0.26313099,1.0,0.0,0.0,0.0,61.519375311006115
1.6866,49.822,0.2887329952538663,-2.7729472691042814,-4.837537250456707,-0.7557075439130857,-1.1423983335963497,2.2865549839064796,-28.676105894172508,9.501602092394773,63.682679267470476,-35.605312,-22.970694101552823,0.0,35.605312,0.8706268936731049,0.42685601,-0.050788,-0.239214,1.0,0.0,0.0,0.0,58.93685900608436
1.7074,49.842,0.7041874938530449,-3.2874172473946532,-4.927739661110798,-0.867035478357378,-1.047241831510019,2.0330382617737075,-31.68107137067959,9.773792442758833,62.32224109546603,-30.805222,-20.27285654472365,0.0,30.805222000000015,0.8814384764066066,0.417759,-0.052377,-0.21401,1.0,0.0,0.0,0.0,56.36724843972167
1.7309,49.862,1.2375648301732232,-3.7240250710397214,-4.830163279227726,-0.8929521376164059,-0.9717278940483387,1.796674567739845,-34.43918604358507,9.823701076535718,61.00527742128034,-26.302551,-17.624610571400197,0.0,26.302550999999994,0.8908541038700332,0.409513,-0.053693,-0.18919601,1.0,0.0,0.0,0.0,54.03845968514495
1.748,49.882,1.8170100988144773,-3.9844215642540437,-4.537838099686156,-0.8720217072958548,-0.8477769037344971,1.6117998874015982,-37.11069645022378,10.480585359304321,59.55670898328928,-22.16777,-15.237097587514997,0.0,22.16776999999999,0.899723127152359,0.398404,-0.059403,-0.16805901,1.0,0.0,0.0,0.0,51.75660526135517
1.7709,49.902,2.4017761353859153,-4.03069224882276,-4.059626422760829,-0.8231326903102445,-0.6395651373360816,1.5006612174114307,-39.739659441901566,11.881956824092137,57.85931376130692,-18.430288,-13.107552297405372,0.0,18.43028799999999,0.9083687438001926,0.38370699,-0.070146,-0.150714,1.0,0.0,0.0,0.0,49.43822300878949
1.7871,49.922,3.0781944661776404,-3.8717030624198623,-3.504780366558408,-0.751484858793658,-0.3635444902307225,1.4485937266571836,-41.847989114873286,12.943841955116962,56.38303026507623,-15.268565,-11.191632372683294,0.0,15.268564999999995,0.9159123032051266,0.37017599,-0.077792,-0.134249,1.0,0.0,0.0,0.0,47.32875959665801
1.8062,49.942,3.8572944876373447,-3.4829519274267966,-2.9351365714215607,-0.6962196916762207,-0.03609817213715727,1.399799812222215,-43.43977010595244,13.539905822200867,55.208037173716434,-12.52884,-9.412692972947823,0.0,12.528840000000002,0.9226224947739892,0.35830101,-0.080959,-0.117617,1.0,0.0,0.0,0.0,45.37492999355181
1.8284,49.962,4.643949788065919,-2.8509050071377557,-2.3459715523957847,-0.7019473053172881,0.3161266482902128,1.273669352755681,-44.93172099018936,13.881505436357893,53.994619120469665,-9.779835,-7.512729506431019,0.0,9.779834999999991,0.9288128532990808,0.34702101,-0.083302,-0.099719,1.0,0.0,0.0,0.0,43.498979361154966
1.8475,49.982,5.306676000625719,-2.0569686447355866,-1.728434208021195,-0.7789913167689759,0.6359670272959612,1.0090761780680213,-46.374750091354585,13.945665125368386,52.691123409963396,-7.064052,-5.528584500859863,0.0,7.064052000000004,0.9338611868335892,0.33736199,-0.086273,-0.08153,1.0,0.0,0.0,0.0,41.9101324031773
1.8705,50.002,5.773861908048121,-1.2389535440223232,-1.0921486497032937,-0.884088172178102,0.8411173723280839,0.5983311633933819,-47.184907135892345,14.067622779895597,51.75460051663126,-5.148887,-4.092925386115354,0.0,5.148887000000002,0.9380269233975856,0.32861301,-0.086852,-0.067644,1.0,0.0,0.0,0.0,40.55439828551315
1.8941,50.0219,6.01335932053984,-0.4935913250822841,-0.40908583844838553,-0.9509213919547687,0.844745761190155,0.07661139047463345,-47.075873429207434,14.945820479179723,51.36218138032382,-4.560809,-3.6898912648965307,0.0,4.560809000000006,0.942518899124044,0.317433,-0.084117,-0.061796,1.0,0.0,0.0,0.0,39.042062431237206
1.9083,50.0419,5.965207372346376,0.1363886819972855,0.41828622768256807,-0.9242907462399068,0.5888711082391939,-0.49924136648472767,-46.62827306013479,16.637084175480396,51.020038651534534,-4.823603,-3.9844693659493577,0.0,4.823602999999991,0.9471000872828912,0.30373701,-0.082696,-0.062503,1.0,0.0,0.0,0.0,37.43936363633786
1.9265,50.0619,5.584433792051283,0.6306997410548334,1.457095219552718,-0.7692131651267518,0.0992997921993024,-1.0639600181654583,-46.57620890534799,18.612668055045148,50.22703986311552,-5.255119,-4.428124106752128,0.0,5.255119000000008,0.9503103943460474,0.29119301,-0.087635,-0.06661,1.0,0.0,0.0,0.0,36.275661287222185
1.9531,50.0819,4.908692144422883,0.9933024573016471,2.6436255205961707,-0.4901581455157882,-0.5050687322037899,-1.559055834472452,-47.094172423026656,20.63545943190519,48.88190655156377,-5.762656,-4.940257273286886,0.0,5.762655999999993,0.9512577307558135,0.28211501,-0.100373,-0.073791,1.0,0.0,0.0,0.0,35.925309510557554
1.9688,50.1019,3.977281640952336,1.213372653086127,3.8381634663954713,-0.13205004110974203,-1.0589097684193176,-1.9454901697096223,-48.122954950830575,22.765391146121132,46.92141781198185,-6.459378,-5.624035127531127,0.0,6.459377999999987,0.949062644578365,0.27769601,-0.12203,-0.085286,1.0,0.0,0.0,0.0,36.7321854406169
1.9871,50.1219,2.832680185862666,1.3008704392790182,4.863099832161772,0.2559822579937648,-1.414867145738595,-2.205362949317499,-49.54222097917583,24.852599407110162,44.3789162035129,-7.092538,-6.27075192706343,0.0,7.0925379999999905,0.9432923398294188,0.27837899,-0.15128601,-0.099082,1.0,0.0,0.0,0.0,38.77595343178117
2.0078,50.1419,1.6207008321982581,1.2681251703462957,5.541683485173719,0.6367785805146702,-1.4957315044431883,-2.3422520675256973,-50.8992678812882,26.77314697625508,41.69462344060854,-7.626709,-6.847201205451825,0.0,7.626709000000005,0.9346477974394096,0.28317201,-0.18258899,-0.113615,1.0,0.0,0.0,0.0,41.6573630148832
2.0266,50.1619,0.5752203999813303,1.1652552437396073,5.770549791259533,0.9765975923802943,-1.3326425677353528,-2.3809030804109885,-51.52643823924308,28.7266455929998,39.571832476001205,-8.573217,-7.807368270482966,0.0,8.573217,0.9251530436509192,0.28884301,-0.20897099,-0.130356,1.0,0.0,0.0,0.0,44.61711202722461
2.0552,50.1819,-0.18058143961749207,0.993549191154532,5.556819369849837,1.264670883159288,-1.0243986515475,-2.367291384409737,-51.20612565671792,30.548678931413914,38.545232226290054,-10.205761,-9.365150592091904,0.0,10.205760999999995,0.916245977695946,0.294884,-0.226202,-0.149564,1.0,0.0,0.0,0.0,47.233406640869596
2.0729,50.2019,-0.7825292680302234,0.6874250265572286,4.971710424091224,1.5158752341955284,-0.6814833984103961,-2.334929176608542,-50.29772288934813,31.94403014702988,38.4732552933097,-12.333304,-11.283457871622483,0.0,12.333303999999998,0.9066814480274424,0.30415699,-0.237166,-0.170791,1.0,0.0,0.0,0.0,49.89858679641695
2.0969,50.2219,-1.3238229577554659,0.3252879341925041,4.108445995088305,1.7330569651459933,-0.41021753909821046,-2.2979755630915273,-49.01475228593712,32.98873662147984,39.03596566970897,-14.826008,-13.41797095458802,0.0,14.826008000000002,0.8963583906485174,0.315424,-0.244357,-0.193233,1.0,0.0,0.0,0.0,52.633105257878505
2.1069,50.2419,-1.8163615266214699,-0.0025658355136073396,3.0846361706328356,1.914196383358457,-0.276260625723871,-2.27091915437351,-47.36237689449475,33.87799080332696,40.02897117569959,-17.743639,-15.83007338521699,0.0,17.743639,0.885764773248609,0.32629201,-0.248859,-0.216849,1.0,0.0,0.0,0.0,55.30843607138195
2.1304,50.2619,-2.301121170693132,-0.26791525587958276,1.9953993055935442,2.070164339318471,-0.2905526860002038,-2.255597351654274,-45.55571999387065,34.6220695264479,41.146439799348315,-20.843964,-18.32704847426692,0.0,20.843964,0.874489988949902,0.33653599,-0.25320601,-0.240619,1.0,0.0,0.0,0.0,58.03065331890852
2.1634,50.2819,-2.7546541739908195,-0.48866021052617015,0.8945318512114753,2.198363545533266,-0.4209479202702767,-2.253196416627701,-43.739096619784746,35.04461577276172,42.377400364894854,-24.027746,-20.77423452036765,0.0,24.027746000000008,0.8618867087788625,0.34756601,-0.25805101,-0.264119,1.0,0.0,0.0,0.0,60.94182589505139
2.1669,50.3019,-3.1004104247270883,-0.6495104687961142,-0.18576852270431843,2.277728246850849,-0.6224649265888227,-2.272240475693978,-41.84721450709884,35.07757555798297,43.858131843889495,-27.48634,-23.281922949069322,0.0,27.486339999999984,0.8480533877103373,0.35927799,-0.26239699,-0.28787601,1.0,0.0,0.0,0.0,63.99885572709213
2.1906,50.3219,-3.3052996481516175,-0.7329966007124131,-1.2308615631027315,2.2955693292152373,-0.8392745969907586,-2.3138072375641556,-39.94339158754934,34.6722620650358,45.5630601912623,-31.242939,-25.83063300801449,0.0,31.242939000000007,0.8328768714191912,0.371591,-0.26655099,-0.311748,1.0,0.0,0.0,0.0,67.20918705659287
2.2064,50.3419,-3.3857817244889725,-0.7057194085754017,-2.238414610190219,2.2619549429299197,-1.0160966980292687,-2.3622622622302405,-38.27875008186923,33.9501173791882,47.19914967950281,-34.928635,-28.205624548985973,0.0,34.928634999999986,0.8164056480688627,0.38372201,-0.272843,-0.33435899,1.0,0.0,0.0,0.0,70.54682556455904
2.2271,50.3619,-3.337908680817606,-0.5480853509111419,-3.1906023625834994,2.1865157504262673,-1.1047485786606603,-2.4067149051129486,-36.834341017960114,33.06213390785399,48.73523591197966,-38.484127,-30.473102249913293,0.0,38.484127,0.7995347720539737,0.39432499,-0.280898,-0.35545501,1.0,0.0,0.0,0.0,73.82860141135563
2.2501,50.3819,-3.1825438434809983,-0.25815339594424214,-4.072635901864611,2.070445191929558,-1.0761700697519445,-2.4377727869872174,-35.38985662730265,32.062907096008715,50.34334760462074,-42.340561,-32.98026899998435,0.0,42.34056100000001,0.7823093883106349,0.403191,-0.28900501,-0.37670299,1.0,0.0,0.0,0.0,77.05498028481179
2.2664,50.4019,-2.9558516647957678,0.15936366673674873,-4.870066076566367,1.9076802652715514,-0.9224639658700607,-2.4434565940476376,-33.74261808526525,30.886277728459845,52.18465940811052,-47.036274,-36.026762704565755,0.0,47.03627399999999,0.7645305372050875,0.41085801,-0.29506701,-0.39952999,1.0,0.0,0.0,0.0,80.26951081516013
2.2874,50.4219,-2.6911200169726195,0.7077859060093032,-5.559808655200369,1.6966197874882476,-0.6627240708724471,-2.4063136410659838,-31.788658702615894,29.677384615089256,54.14716759314305,-52.531864,-39.708435678193744,0.0,52.531864,0.7471181937089204,0.416242,-0.29854399,-0.42359,1.0,0.0,0.0,0.0,83.31728045255211
2.3075,50.4418,-2.4168426602830784,1.36612225859528,-6.118892208211381,1.4493484323618608,-0.3220208509638354,-2.319070335451549,-29.52449602854946,28.613248305283875,56.02260692014852,-58.34071,-43.92885299996906,0.0,58.34071,0.7309889639020276,0.418439,-0.300098,-0.44777799,1.0,0.0,0.0,0.0,86.06126684426562
2.3261,50.4618,-2.1569552162905934,2.091255073725476,-6.521115396515025,1.1791610242024047,0.08804447602927473,-2.1963732212735874,-26.88202068217797,27.586819516754396,57.8052798837446,-64.16539,-48.50187266344548,0.0,64.16539,0.7169406630008092,0.41782701,-0.29867101,-0.471394,1.0,0.0,0.0,0.0,88.39505975588466
2.3468,50.4818,-1.9681012065142598,2.859285618856778,-6.753785112169712,0.9063053702573007,0.5591690239582898,-2.0504080966605356,-24.12607539850352,26.43991396437964,59.390816104093645,-69.52948,-52.85491060748679,0.0,69.52948,0.7046642601086561,0.416392,-0.295277,-0.49282601,1.0,0.0,0.0,0.0,90.3951469737877
2.3672,50.5018,-1.893459983221305,3.6770504922804594,-6.7961128831314435,0.6417024527598547,1.0746091551055716,-1.8913064939259656,-21.266619257211342,25.327486811838682,60.72577864361362,-74.253815,-57.03154347580294,0.0,74.253815,0.6935282536646502,0.41378301,-0.29185399,-0.51246798,1.0,0.0,0.0,0.0,92.17989246632169
2.3866,50.5218,-1.9671857615505735,4.542947111083419,-6.612709941318585,0.3909466919889796,1.6118466735488644,-1.7250088879969032,-17.981967002901456,24.526319486882905,61.857171362473,-78.09964,-61.331019571754716,0.0,78.09964,0.6845867176985393,0.40735,-0.28847101,-0.53121698,1.0,0.0,0.0,0.0,93.59377299637704
2.4067,50.5418,-2.242283414976896,5.391422662124905,-6.109630941511297,0.1588141240892329,2.1446697145451736,-1.5273768571021518,-14.012283240711483,23.654952482268055,63.02321195803501,-81.405701,-65.50907590604795,0.0,81.405701,0.6784914281092275,0.39813599,-0.28121999,-0.54959297,1.0,0.0,0.0,0.0,94.54825981538855
2.4274,50.5618,-2.665419183939769,6.119711991738517,-5.125275844848561,-0.04538724597376986,2.6158945385758274,-1.2366424673036311,-8.528654213758546,22.189936936601907,64.47659989151775,-85.013718,-69.8399496019697,0.0,85.013718,0.6748033086452819,0.38582101,-0.26345199,-0.571293,1.0,0.0,0.0,0.0,95.12224429152377
2.4473,50.5818,-3.072169178442376,6.664181855729165,-3.6110485167724935,-0.16130272475659058,2.941385446255201,-0.8103337330582212,-1.6132966529461967,20.294950724443368,65.79509993158226,-88.676476,-74.3705266592516,0.0,88.676476,0.671363394595415,0.36979699,-0.237688,-0.59667897,1.0,0.0,0.0,0.0,95.65524069188315
2.4664,50.6018,-3.3973375980423097,6.970596841473579,-1.7010930827717647,-0.16808249791244603,3.060264276794316,-0.27124671365971564,5.276146233060075,18.34411271797822,66.53936108556135,-91.27845,-77.7998028769547,0.0,91.27845,0.6694896258276447,0.35384601,-0.21025001,-0.61836201,1.0,0.0,0.0,0.0,95.94462781322666
2.4884,50.6218,-3.5000029922141738,6.948955041060023,0.4617594821616269,-0.08837327273043213,2.963920398422428,0.3373683753372118,11.774531531283056,16.28916815677033,66.74057343984727,-92.786041,-79.88549166148881,0.0,92.786041,0.6706944892814459,0.33937699,-0.180097,-0.63447398,1.0,0.0,0.0,0.0,95.75862306411847
2.5079,50.6418,-3.2725826939595795,6.591323018057837,2.62449097715996,0.05442110772987341,2.6818666294722378,0.9333251413357874,17.584525982655396,14.43966683812133,66.41567707888572,-93.201584,-80.83701887176628,0.0,93.201584,0.6753688824990528,0.32595301,-0.14916,-0.64450198,1.0,0.0,0.0,0.0,95.03439479555858
2.5264,50.6618,-2.8064120040334393,5.854043330383572,4.55276293074893,0.20803562606490578,2.2589981136776585,1.456326319955556,22.10055777850925,12.674603287589346,65.90625326177951,-92.790627,-80.55927367305834,0.0,92.790627,0.6828248557747293,0.31774199,-0.118524,-0.64710301,1.0,0.0,0.0,0.0,93.87043285828521
2.5478,50.6818,-2.149076726684025,4.80563860828335,6.068876377122924,0.33693315825492487,1.7395916830880636,1.8544327000535596,25.49142533108424,11.140561001169036,65.37453187403158,-91.693825,-79.34754113995572,0.0,91.693825,0.692763148639518,0.31415701,-0.087861,-0.64316797,1.0,0.0,0.0,0.0,92.30152800626436
2.5664,50.7018,-1.3528889926058003,3.700191100192892,7.0449695453786845,0.4399820369038012,1.1782088418039605,2.099685873571735,27.979079511047246,10.333977554577123,64.84319837576373,-90.00473,-77.68360373653822,0.0,90.00473,0.7045392784260931,0.311739,-0.059908,-0.63470799,1.0,0.0,0.0,0.0,90.4153298745585
2.5861,50.7218,-0.6782345470975342,2.8923994991692497,7.437240366780113,0.5122670078075904,0.6501716047920422,2.216264703184737,29.05450105217916,10.880701008126113,64.54597411279269,-87.748222,-75.69233841718105,0.0,87.748222,0.7177870955655583,0.30883101,-0.042812,-0.62255299,1.0,0.0,0.0,0.0,88.25584024315914
2.6096,50.7418,-0.254232182043979,2.2216027887332235,7.3803473557436625,0.5608080273473309,0.1782586355911125,2.2714693143574682,28.763091521902094,11.72924415047215,64.66458206063842,-85.452072,-73.33212655169804,0.0,85.452072,0.7303848207189132,0.31048101,-0.032224,-0.60753697,1.0,0.0,0.0,0.0,86.16267072422117
2.6284,50.7618,-0.04500949052103209,1.6567171893634622,6.985656526975092,0.5963827341429733,-0.20913584769512322,2.3000032836696196,27.643071701283116,12.555613566499778,65.00376805223549,-83.17569,-70.72767099261014,0.0,83.17569,0.7422474195172651,0.31565699,-0.024564,-0.59061497,1.0,0.0,0.0,0.0,84.1535704766258
2.6487,50.7818,-0.011329746973293808,1.1348770660959517,6.373169974837456,0.6120275591162588,-0.5156230412645383,2.3186762601844073,26.11272084286565,13.073795674641175,65.45053623352689,-81.02681,-68.01613657379664,0.0,81.02681,0.7529228268224306,0.323874,-0.017345,-0.57263601,1.0,0.0,0.0,0.0,82.31159905789401
2.6666,50.8018,-0.1295076897991141,0.6413752466913154,5.654478765659139,0.5998156852058204,-0.7610033386359201,2.328468891807975,24.351356101146614,13.354174739532967,65.94627007844225,-78.924316,-65.22336752127332,0.0,78.924316,0.7628010286608425,0.333823,-0.010686,-0.55369902,1.0,0.0,0.0,0.0,80.576486917862
2.6869,50.8218,-0.3660374567391358,0.20641936270086214,4.912882130164185,0.5743669504314969,-0.9634081817011078,2.322867284985676,22.36649585308409,13.763339306115311,66.43118898868786,-76.492531,-62.19145968763675,0.0,76.492531,0.7736222146530176,0.34325999,-0.005494,-0.53258902,1.0,0.0,0.0,0.0,78.63943148105226
2.7057,50.8417,-0.7120932423555173,-0.11908511566956759,4.175824954197505,0.5561176151967575,-1.136506333213136,2.305015581274857,19.978544514518347,14.57173092707382,66.90496991904561,-73.458488,-58.80412948729615,0.0,73.458488,0.7863922150508357,0.350752,-0.003233,-0.50847799,1.0,0.0,0.0,0.0,76.30074980609338
2.7273,50.8617,-1.1687748043112753,-0.3779027467964511,3.402477233915805,0.5347577430847794,-1.3155177784931373,2.290925644126144,17.10061179205837,15.19017741315412,67.47175011812104,-70.438271,-55.41041962299282,0.0,70.438271,0.7979915926821283,0.35875699,-0.003927,-0.48423901,1.0,0.0,0.0,0.0,74.1225213651737
2.752,50.8817,-1.6673697863375638,-0.6653417572462452,2.5185071221924282,0.479577440684543,-1.5457505244868817,2.2953384259363934,13.962668846807773,14.785483373225748,68.18206255889083,-68.216377,-52.4226477364366,0.0,68.216377,0.8051967589093612,0.370556,-0.004154,-0.46295699,1.0,0.0,0.0,0.0,72.74147664051398
2.7713,50.9017,-2.1092440602634333,-0.9104663461564491,1.483998400398539,0.37626269869449275,-1.8154011082091315,2.3381620676567034,10.563547468183824,14.051374547071347,68.80440376955744,-66.093307,-49.583045652535546,0.0,66.093307,0.811476968086205,0.38210899,-0.003172,-0.44214001,1.0,0.0,0.0,0.0,71.51902558190656
2.7867,50.9217,-2.4215177448811835,-1.1507971117899045,0.2979400501873588,0.23659888430888432,-2.0851383244235286,2.4155525768513955,6.520420098099166,13.538099540019505,69.21976031081849,-63.255939,-46.408990814906346,0.0,63.255939,0.8198674474244478,0.39130101,-0.002481,-0.41796499,1.0,0.0,0.0,0.0,69.85694613458935
2.8066,50.9417,-2.5767765326151704,-1.4211266766700588,-1.01418077531185,0.07156074003127544,-2.278224962093274,2.517901560194046,1.2184487046660593,13.556288435851936,69.31344362136528,-59.195324,-42.53698678805885,0.0,59.195324,0.8311576920046158,0.397609,-0.007228,-0.38862801,1.0,0.0,0.0,0.0,67.56430947655979
2.8266,50.9617,-2.5221130425890053,-1.7625450909146665,-2.376117846694826,-0.11868733154946781,-2.3350926585691334,2.624487433804996,-5.230592169842744,13.658183455110809,68.9435036850495,-54.257362,-38.14814375025087,0.0,54.257362,0.8429000883215874,0.40301901,-0.017907,-0.35605401,1.0,0.0,0.0,0.0,65.10471824934908
2.8477,50.9817,-2.2112920254951027,-2.162932318127308,-3.656246780466388,-0.32298516628488205,-2.2537121125831554,2.727149408503838,-11.595810012413924,13.33834948456759,68.12544999733998,-49.309303,-33.970719845567814,0.0,49.309303,0.8529316053449184,0.40803999,-0.027582,-0.32442299,1.0,0.0,0.0,0.0,62.93605361908864
2.8676,51.0017,-1.7220453430973952,-2.544243303377865,-4.735251404532769,-0.5366903050618286,-2.0630765176551487,2.858738607465808,-16.968046803799435,13.13272657542614,66.99833815974844,-44.599384,-30.47963497617582,0.0,44.599383999999986,0.8627982450489684,0.40850899,-0.032647,-0.29603001,1.0,0.0,0.0,0.0,60.73552676283847
2.8859,51.0217,-1.1372534806705594,-2.9227892048534394,-5.556085713587018,-0.7574279423951885,-1.8176190480685355,3.0228916578455967,-21.47936255714793,13.37765753280237,65.69233066997572,-39.795624,-27.3962919802624,0.0,39.795624000000004,0.8742618179761713,0.402973,-0.033868,-0.268574,1.0,0.0,0.0,0.0,58.084535881849604
2.9085,51.0417,-0.42171340906504196,-3.344812607197894,-6.096108422284399,-0.9754953933692538,-1.5628689047623943,3.1710226117171576,-25.67120482412171,13.74090511122295,64.26564944658466,-34.492214,-24.133037127724073,0.0,34.49221399999999,0.8873050539363562,0.393677,-0.032977,-0.237951,1.0,0.0,0.0,0.0,54.92693886639294
2.9263,51.0617,0.4989568084842928,-3.751107147142784,-6.321015740373763,-1.183374469639626,-1.2905270060370988,3.243873993530395,-29.847640758275,14.11248913265819,62.66368540217728,-28.519276,-20.42278302536829,0.0,28.51927599999999,0.901491017906446,0.380997,-0.032305,-0.20276,1.0,0.0,0.0,0.0,51.290495394057544
2.9571,51.0817,1.576227051159048,-4.001372561180726,-6.202435406942519,-1.3894623042081102,-0.972009360934653,3.1931312209257805,-34.08232807559773,14.727238844159821,60.69792964540107,-22.18471,-16.390416622280014,0.0,22.184709999999995,0.915871526867868,0.36416399,-0.035042,-0.165336,1.0,0.0,0.0,0.0,47.340399690164055
2.9713,51.1017,2.665384729017111,-4.007703612383374,-5.806693847592364,-1.5702831452460886,-0.6466119702954531,3.0049959032375293,-37.76124981109015,15.338931873879448,58.618057273369274,-16.49752,-12.599144938209513,0.0,16.49752000000001,0.9284575630627496,0.34582901,-0.037995,-0.130097,1.0,0.0,0.0,0.0,43.60872042917317
2.9877,51.1217,3.6306399102979126,-3.7252142563036577,-5.21485576492255,-1.6968947071500664,-0.3597389731554663,2.714874274773393,-40.35299011008182,16.31763684296516,56.663227751629286,-11.929719,-9.456347130051709,0.0,11.929719000000006,0.9401368322043872,0.32378501,-0.037504,-0.099496,1.0,0.0,0.0,0.0,39.850903402709704
3.0065,51.1417,4.385605985805143,-3.196447006899847,-4.471982746438402,-1.7812001270949942,-0.1653594919395387,2.344070122202143,-42.32041926529722,17.60381732266043,54.62487900277466,-8.151511,-6.7093643410416615,0.0,8.151511,0.9507231507384156,0.29919899,-0.036597,-0.072568,1.0,0.0,0.0,0.0,36.12341612147242
3.0279,51.1617,4.914213902769398,-2.503147627760397,-3.5685187934084546,-1.8325991200916494,-0.0722647187120985,1.9045680865880963,-44.2750328625556,18.885221111562473,52.24530226622175,-4.744952,-4.039502580821307,0.0,4.744952000000012,0.9594236396785312,0.274984,-0.039887,-0.047949,1.0,0.0,0.0,0.0,32.75546172058315
3.0571,51.1817,5.219831783925144,-1.7032811961512706,-2.4861428318041536,-1.8437055697088618,-0.04183942736433821,1.4082140324121781,-46.53815763670087,20.015324105456067,49.41496293979416,-1.472516,-1.2911053035106197,0.0,1.472516000000013,0.9660492052550946,0.252381,-0.049509,-0.024528,1.0,0.0,0.0,0.0,29.945325555852758
3.0722,51.2017,5.354472583317515,-0.9033604228581522,-1.3048736097511746,-1.78444070333546,-0.035254931885062846,0.894479532083406,-48.52625811869801,21.09003168357662,46.72158657502084,1.085253,0.9746510056989786,0.0,1.0852529999999945,0.970586975656484,0.232934,-0.060569,-0.005837,1.0,0.0,0.0,0.0,27.861708688221533
3.0913,51.2217,5.357780348196895,-0.1529642777221727,-0.10034721114056033,-1.638810276635079,-0.03889992292755287,0.4021545212713461,-49.82768512549956,22.656075162205806,44.3865018764144,2.520588,2.3123557393717644,0.0,2.5205880000000036,0.9742665612649034,0.21415301,-0.070122,0.005105,1.0,0.0,0.0,0.0,26.05267294570805
3.1089,51.2416,5.240922375496,0.5536012129920125,1.0633384498219414,-1.4033551428740354,-0.08162519937798676,-0.04567872713744296,-50.551939313110054,24.609006494265845,42.279480320038274,3.113582,2.9119614277076082,0.0,3.113582000000008,0.9775633167424091,0.19532099,-0.07822,0.010065,1.0,0.0,0.0,0.0,24.31993030186182
3.136,51.2616,4.961443766766256,1.1504358586937942,2.152054137911527,-1.0928303026988864,-0.18063943271513924,-0.4494008688512523,-51.130596687931124,26.39779526316839,40.19743904402486,3.26984,3.106079797149691,0.0,3.269839999999988,0.97957365026883,0.180289,-0.088377,0.010993,1.0,0.0,0.0,0.0,23.20091141894368
3.153,51.2816,4.555499236901969,1.574889287852764,3.11565304445811,-0.743394199632532,-0.3281643953221126,-0.8177048939437869,-51.70350246318419,27.65776059138623,38.34459236350843,3.176551,3.050785863855999,0.0,3.1765509999999892,0.979914716196772,0.171924,-0.100641,0.008982,1.0,0.0,0.0,0.0,23.005740382449428
3.1673,51.3016,4.120832242680787,1.8522574040639292,3.9074909309103063,-0.39947161888572874,-0.5122858519273338,-1.1647537324793409,-52.17563152601351,28.526065072031834,36.93741422395835,2.860227,2.767846860643404,0.0,2.860227000000009,0.9792510930665332,0.168538,-0.112428,0.00471,1.0,0.0,0.0,0.0,23.384012699066904
3.1859,51.3216,3.6455788848832418,1.9828290241851905,4.551010028059737,-0.08108025452885703,-0.7176089239056245,-1.498800537562953,-52.53519971765237,29.466924422308438,35.72451231526745,2.159242,2.1032938257185196,0.0,2.159242000000006,0.9778063198809364,0.16799501,-0.125146,-0.00331,1.0,0.0,0.0,0.0,24.187377975285813
3.2068,51.3416,3.0992892826041265,1.9756085330801811,5.079322691697527,0.2174645269715993,-0.9227779008227224,-1.8035106302472466,-52.69231740875532,30.860759870306644,34.47136155032351,0.918364,0.9013995635000198,0.0,0.9183639999999968,0.9756016057008108,0.168529,-0.139752,-0.016397,1.0,0.0,0.0,0.0,25.365021369692904
3.2261,51.3616,2.424558188302628,1.8650767303419222,5.510561749188383,0.5196307294292155,-1.0971291992830676,-2.051237755534583,-52.65694176609492,32.77837686161072,32.92994148329269,-0.755755,-0.7496057155761258,0.0,0.7557549999999935,0.9723201437463896,0.169277,-0.15747,-0.033794,1.0,0.0,0.0,0.0,27.024423073867784
3.2498,51.3816,1.6802264576504924,1.6444246794308617,5.814183612032064,0.8373227636535007,-1.2012447909300588,-2.2325258254600495,-52.339486195495425,34.882114893090574,31.404106696006636,-2.658123,-2.6661727461117506,0.0,2.658122999999989,0.9677848568260716,0.17189801,-0.17595901,-0.053684,1.0,0.0,0.0,0.0,29.165572884817237
3.2673,51.4016,0.9272128088841406,1.320590145562388,5.933244447313786,1.1737401907766283,-1.214414628427631,-2.358912471283199,-51.76398366832436,36.905868032007774,30.126363576935027,-4.598087,-4.6593282685843125,0.0,4.5980869999999925,0.9620246377214048,0.177284,-0.193756,-0.074415,1.0,0.0,0.0,0.0,31.681273661875895
3.318,51.4216,0.22008974074470478,0.8810691410699416,5.802964906643021,1.520746581262414,-1.1411526084526327,-2.4524359624839374,-50.95813520413795,38.695029688568084,29.328139977331812,-6.52541,-6.660549512281397,0.0,6.525409999999994,0.9550793105402294,0.186223,-0.2098,-0.095543,1.0,0.0,0.0,0.0,34.47705196486991
3.322,51.4416,-0.43077703267253553,0.342179345049364,5.370013476668943,1.8631856849261088,-1.016566282537425,-2.5238737610492312,-49.87524319472545,40.32818695811702,29.081867725402876,-8.586221,-8.798034738305045,0.0,8.586220999999995,0.9468317628628646,0.198275,-0.224125,-0.118172,1.0,0.0,0.0,0.0,37.5350514197702
3.3438,51.4616,-1.033286407977019,-0.2534302546267595,4.61326200077179,2.1814380623144527,-0.8924442989863316,-2.571064242531585,-48.44614187999663,41.866847976317686,29.439966950659333,-10.953292,-11.223782083254079,0.0,10.953292000000005,0.9371023578942697,0.21278,-0.236645,-0.143398,1.0,0.0,0.0,0.0,40.85901225830401
3.3688,51.4816,-1.5931480469420716,-0.8340503879255285,3.560508476947348,2.4531263939017203,-0.8225945811609872,-2.5900284501040503,-46.67215535285258,43.25578359885313,30.415965433291497,-13.695674,-13.970730857004929,0.0,13.695673999999997,0.9258539526467228,0.22905,-0.24702799,-0.171195,1.0,0.0,0.0,0.0,44.40504393069003
3.3731,51.5016,-2.0911405927415316,-1.3540683207031252,2.288753794042714,2.6567345904413617,-0.8338770816888853,-2.591382687395856,-44.71405756593487,44.19656377950734,32.077922061377905,-16.705088,-16.83766420669959,0.0,16.70508799999999,0.9131825674410018,0.247757,-0.25437701,-0.20001601,1.0,0.0,0.0,0.0,48.102136303511536
3.3916,51.5216,-2.5111149527419556,-1.676041542802909,0.9111898012003792,2.780187576306998,-0.9546575819620915,-2.58739631160128,-42.649150818879036,44.86669667610403,33.969795519902156,-19.906874,-19.779183435226834,0.0,19.906873999999988,0.8998587122252804,0.265196,-0.26016301,-0.228562,1.0,0.0,0.0,0.0,51.72099639979612
3.4066,51.5416,-2.8463768718843028,-1.7789532509964654,-0.48601873957072605,2.8283693832625594,-1.1626777185400357,-2.5889969255838503,-40.648971152943844,45.31996656268313,35.7598641829754,-23.088953,-22.65659436095575,0.0,23.088953000000004,0.8858906450723248,0.280523,-0.266671,-0.25571701,1.0,0.0,0.0,0.0,55.27735114775855
3.4268,51.5616,-3.080015796527255,-1.6948994531954549,-1.8740287642960105,2.8036770875366988,-1.3987847098656108,-2.603384151027096,-38.834381490307855,45.52602874398784,37.36231003620176,-26.118452,-25.395468046639103,0.0,26.11845199999999,0.8707552837926853,0.294624,-0.275419,-0.28129399,1.0,0.0,0.0,0.0,58.9069453857009
3.4478,51.5816,-3.1653684579739734,-1.46218038106458,-3.242187315685948,2.6840930011841295,-1.58017356806261,-2.6459041736456124,-37.12297333144551,45.33753793157683,39.05307457178493,-29.194281,-28.11741842433753,0.0,29.19428099999999,0.854111593190843,0.3089,-0.284998,-0.30634999,1.0,0.0,0.0,0.0,62.676548827353145
3.4667,51.6016,-3.084136311163153,-1.0881934234802135,-4.549678164615253,2.4460502756565967,-1.6228563189234937,-2.717125978757521,-35.38984170521305,44.71705357184888,40.96972874718312,-32.587166,-31.015675846902138,0.0,32.587165999999996,0.835771126756865,0.323479,-0.29432401,-0.33199599,1.0,0.0,0.0,0.0,66.60756247629178
3.4865,51.6216,-2.846561787301257,-0.5822928972017216,-5.699749156893791,2.099082951900511,-1.456858759431701,-2.793488171704655,-33.53231867781075,43.90496393513315,42.9227129576477,-36.378769,-34.27814368079902,0.0,36.378769000000005,0.8163471228176404,0.33620799,-0.30353701,-0.35833901,1.0,0.0,0.0,0.0,70.5584381447603
3.5866,51.6415,-2.498476765114823,-0.006639363335025794,-6.575612376431919,1.709986659273841,-1.040699839140573,-2.8434941406617,-31.467270879628405,43.31346473851042,44.5958473187686,-40.339783,-38.000825532617846,0.0,40.33978300000001,0.7976990184226378,0.34384501,-0.31283,-0.38416699,1.0,0.0,0.0,0.0,74.17813364425366
3.5928,51.6615,-2.142936290617035,0.5494905994442243,-7.1049872943043715,1.3827467322830884,-0.3862501637480819,-2.856672378135986,-28.991507075780696,43.230153683210794,45.921173201034286,-44.306381,-42.31982709479743,0.0,44.30638099999999,0.7815547304113896,0.34446201,-0.321327,-0.40898299,1.0,0.0,0.0,0.0,77.1937074207495
3.5967,51.6815,-1.9313605796821647,1.0360833757724364,-7.287691003209245,1.2146330232695033,0.43595103407369074,-2.843138044601553,-26.028161742909102,43.3357220144773,47.26522034450479,-48.426548,-47.09231175150524,0.0,48.426548,0.7676633957329865,0.34091201,-0.32684001,-0.43318301,1.0,0.0,0.0,0.0,79.71094998777933
3.5979,51.7015,-1.9851390821936667,1.5084266106210125,-7.170860657052831,1.2315505345794275,1.2795232816398214,-2.8095520371917604,-22.31339367506477,43.25033622327622,49.03008288948406,-53.193039,-52.38228922811336,0.0,53.193039,0.7549614469160526,0.33526301,-0.32729301,-0.45881501,1.0,0.0,0.0,0.0,81.95599759700158
3.602,51.7215,-2.3052375346734726,2.0825324591483563,-6.7996973063111,1.3464665406848288,1.9821338161346946,-2.768710174866276,-17.117251765266374,42.63303586928807,51.51580002362478,-59.125027,-58.27045446577422,0.0,59.125027,0.7448988782526523,0.32567099,-0.31740099,-0.48818099,1.0,0.0,0.0,0.0,83.69917185528307
3.6403,51.7415,-2.8252041788724878,2.8695034819878784,-6.229406875990239,1.4750541944628197,2.441076262087595,-2.698043487449364,-10.677938979835766,41.11636125437453,54.367417596913135,-65.68924,-64.21374955460256,0.0,65.68924,0.7348582146591272,0.31479999,-0.30010501,-0.52040499,1.0,0.0,0.0,0.0,85.40952642515249
3.6484,51.7615,-3.409322567155478,3.929411281110707,-5.502272082505765,1.5217439233851828,2.6297929135624654,-2.56572167076868,-3.548017435622235,38.63249072971777,57.06795833846621,-72.134888,-69.81044268509964,0.0,72.134888,0.7233938137947956,0.30420601,-0.27971101,-0.55310202,1.0,0.0,0.0,0.0,87.32920886522673
3.6559,51.7815,-3.8685426174702817,5.192231008121327,-4.604410008597922,1.4010272599415883,2.6104404458247044,-2.328773857474291,4.002275660420814,35.023962405227635,59.47920571706932,-78.417801,-74.96868888748824,0.0,78.417801,0.7102923625079315,0.29492801,-0.25556999,-0.58582097,1.0,0.0,0.0,0.0,89.48258454918877
3.6723,51.8015,-4.004335692266377,6.450424728221461,-3.4772814374338568,1.0881154658457786,2.4863229350417675,-1.952068937413363,12.02657293444075,30.281471324271756,61.38883498553456,-84.528381,-79.66225490709074,0.0,84.528381,0.696423422390904,0.28621101,-0.223913,-0.61882198,1.0,0.0,0.0,0.0,91.71849123902751
3.7149,51.8215,-3.881222482143981,7.540538750136885,-2.3158708372641783,0.678611610089281,2.3277889701124237,-1.441943707641077,19.08220956762222,25.834274547790002,62.2939260229049,-89.093323,-83.29318949452595,0.0,89.093323,0.6842821257847671,0.27807599,-0.194655,-0.64539999,1.0,0.0,0.0,0.0,93.64164693328262
3.7159,51.8415,-3.629590290346327,8.31213714757664,-1.2398941906581413,0.2765938431870904,2.205942233665858,-0.831004761026122,24.755270731410896,22.431477814880704,62.39475722616325,-91.952156,-85.67241929616668,0.0,91.952156,0.6762207370743519,0.27056101,-0.170288,-0.66372001,1.0,0.0,0.0,0.0,94.90196132162184
3.731,51.8615,-3.3376160196126143,8.701911604341236,-0.2681133378081917,-0.02982104981494202,2.149116696050095,-0.17097638776484347,29.413509600862646,20.248260313258523,61.84263953557287,-93.340424,-86.99699003247937,0.0,93.340424,0.6733211176902887,0.26159701,-0.149634,-0.67514098,1.0,0.0,0.0,0.0,95.3521786590349
3.748,51.8815,-3.0296461987787344,8.650827891614076,0.7093739486783797,-0.19582037026652965,2.1340022484991494,0.5006534826654204,33.55112041506713,18.72368148550095,60.804364996552906,-93.767624,-87.52307044064082,0.0,93.767624,0.6748331058906343,0.251228,-0.128117,-0.681961,1.0,0.0,0.0,0.0,95.11761748011406
3.7667,51.9015,-2.722193397152695,8.121547990741917,1.7968792838632481,-0.2349853999735185,2.0883496067635137,1.1467562597587515,37.27309670006555,17.48919110851497,59.4798479144149,-93.430367,-87.23564535151716,0.0,93.430367,0.6804848610300451,0.24130499,-0.102532,-0.68425101,1.0,0.0,0.0,0.0,94.23691315536514
3.7863,51.9215,-2.39104725759617,7.134157660951521,3.005800582570254,-0.18769327659249413,1.933884411022557,1.7235508290726338,40.424818409989314,16.55965772114012,58.110854522490186,-92.463173,-86.23278072368548,0.0,92.463173,0.6892796093791109,0.23388299,-0.073622,-0.68174201,1.0,0.0,0.0,0.0,92.85377854190307
3.807,51.9415,-1.944453434710415,5.843478735304106,4.224404604666956,-0.07716191592248234,1.6388965365689692,2.177107329569582,42.99001101762739,16.51867406926425,56.66728526169463,-90.795715,-84.68172798142811,0.0,90.795715,0.7011155941343338,0.22695801,-0.044838,-0.67447501,1.0,0.0,0.0,0.0,90.96684612063095
3.8291,51.9615,-1.3657048416821693,4.491398988702091,5.3041297898065185,0.08865104102149557,1.230204191297662,2.4703656909349134,44.69864703728089,17.87843879532945,55.24894508463215,-88.355095,-82.59728868399444,0.0,88.355095,0.7162806880498032,0.21903899,-0.020797,-0.66221702,1.0,0.0,0.0,0.0,88.50349051556707
3.8473,51.9815,-0.8076379445758821,3.293155320226569,6.145764506793066,0.2800532337124515,0.7579753924256574,2.608998102681417,44.995675232943825,20.41736000754619,54.34824824763783,-85.363922,-79.97243428092101,0.0,85.363922,0.733658554420719,0.212695,-0.005986,-0.64534497,1.0,0.0,0.0,0.0,85.61202616094147
3.8744,52.0015,-0.31309229063760746,2.1601663333759937,6.748675744768697,0.4720315593940547,0.22572133910317352,2.6329365053416054,44.15213765879308,22.773655924174605,54.19726431369705,-82.424492,-77.09955816051816,0.0,82.424492,0.7500581818670067,0.212714,0.005267,-0.62620902,1.0,0.0,0.0,0.0,82.80916393117202
3.8896,52.0215,0.1554052391656846,1.0478558308593524,7.070443483160961,0.6532862098496413,-0.3524648499850042,2.5600077525377585,42.77566487010201,24.293366540850254,54.569668272309215,-79.7537,-74.21266484014461,0.0,79.7537,0.7642948497201711,0.21904799,0.018128,-0.60625303,1.0,0.0,0.0,0.0,80.31140108254192
3.9061,52.0415,0.4700333937985617,0.22506516168573865,7.0641520989935955,0.8128012132161502,-0.8974591461439418,2.4210546004825027,40.80912550727453,25.669041281605004,55.20291098439151,-77.098885,-71.27492913422942,0.0,77.098885,0.777816904343689,0.226748,0.026344,-0.58556998,1.0,0.0,0.0,0.0,77.87774894034432
3.9273,52.0614,0.4216448045703167,-0.3218127705151872,6.753066856788006,0.9457040547540679,-1.3548070751403956,2.273373661579238,37.71630567516124,26.86694044024243,56.45091299549583,-74.411232,-68.03725783122596,0.0,74.411232,0.790767252042369,0.238254,0.025566,-0.56326598,1.0,0.0,0.0,0.0,75.48545939965726
3.9468,52.0814,0.07768695835085282,-0.732079918247768,6.157421743532861,1.06389933769318,-1.6973141727274934,2.1555144909035,33.66090168586644,27.43876299884554,58.26596431719537,-71.878067,-64.60589422121818,0.0,71.878067,0.8018536458887493,0.25482601,0.0191,-0.54012001,1.0,0.0,0.0,0.0,73.38504227459624
3.9667,52.1014,-0.30740708795510585,-1.022980340459313,5.307188017944238,1.16299381750492,-1.9270914777361436,2.086792936358805,29.39939052868457,27.30427463850711,60.09245815217059,-69.668694,-61.38325131844135,0.0,69.668694,0.8104408284072929,0.27267,0.013265,-0.51832497,1.0,0.0,0.0,0.0,71.72195214526288
3.9876,52.1214,-0.6819958314960655,-1.2209404801465924,4.250520814911155,1.196674757168174,-2.082880892345901,2.0730275670749667,24.89998149176563,26.457203294017113,61.871983341353555,-67.706604,-58.2899142831675,0.0,67.706604,0.8170900329758403,0.29179001,0.010057,-0.49711299,1.0,0.0,0.0,0.0,70.4109061945275
4.0061,52.1414,-1.091484060021604,-1.320538921081247,3.040056831685577,1.113467023908353,-2.1962656793547017,2.1125780275440675,19.660547410122984,25.139925966693276,63.60805130440681,-65.64769,-54.96112106113007,0.0,65.64769,0.8231372151326046,0.31240001,0.006742,-0.47413701,1.0,0.0,0.0,0.0,69.19982915527552
4.0257,52.1614,-1.495026884738277,-1.3517417222602781,1.7454610644433401,0.8942556832939911,-2.2811807588029227,2.183283802463932,13.608771261501737,23.569575394712476,65.12007806727445,-63.292892,-51.302570459638275,0.0,63.292891999999995,0.8291459441975941,0.33323401,0.001478,-0.448854,1.0,0.0,0.0,0.0,67.97778895256202
4.0553,52.1814,-1.7683474692430514,-1.3269127818710698,0.48145396756959435,0.5738257327545925,-2.324749426913729,2.264542667129244,7.321561350888551,22.29894545395954,66.04743444410781,-60.472656,-47.589250083910564,0.0,60.472656,0.836143958433953,0.34938499,-0.005416,-0.42280501,1.0,0.0,0.0,0.0,66.52971293662534
4.0745,52.2014,-1.8932617711576802,-1.3492807033034948,-0.6455992972254254,0.2137995514056218,-2.3213975577707022,2.3385520130127824,0.9837130923669264,21.515915229510178,66.36570753916848,-57.061043,-43.84017874411068,0.0,57.061043,0.844512778945375,0.360255,-0.014033,-0.39600199,1.0,0.0,0.0,0.0,64.76045661471625
4.0872,52.2214,-1.8682562478711113,-1.4860508145852944,-1.563593408951462,-0.10666721440860327,-2.27161558990505,2.399032830127031,-5.207419802163521,21.34202703681054,66.05346441733091,-52.971455,-40.08033412833704,0.0,52.97145499999999,0.8545997256653316,0.365271,-0.023754,-0.36833701,1.0,0.0,0.0,0.0,62.568915404614046
4.1071,52.2414,-1.7180526935591052,-1.7566928930384083,-2.270369917643503,-0.3307471028832166,-2.1916460423926507,2.4452965738171053,-11.13009103362143,21.61600142416094,65.17797535114188,-48.359158,-36.365385856781394,0.0,48.35915800000001,0.8658595578375167,0.36532101,-0.033825,-0.340123,1.0,0.0,0.0,0.0,60.03799817994757
4.1291,52.2614,-1.4641063865319643,-2.150554400841511,-2.8351972891435935,-0.43809837019400966,-2.1179093139583043,2.476615992254106,-16.677847394949595,21.79393206010058,63.9697266817745,-43.59922,-32.73454647238626,0.0,43.59922,0.8769504105644628,0.36349499,-0.042127,-0.31153601,1.0,0.0,0.0,0.0,57.446693495489825
4.158,52.2814,-1.11512965747951,-2.5899624341917065,-3.354973797174379,-0.44901662860090313,-2.0732612573375113,2.510878288349433,-21.70653176305944,21.66399323457486,62.62288933502131,-39.00423,-29.307368378297575,0.0,39.00423000000001,0.887167075048415,0.36105201,-0.047425,-0.28342,1.0,0.0,0.0,0.0,54.96121304552164
4.1702,52.3014,-0.694994433551732,-2.972959521399667,-3.9047601368346614,-0.4253929506073506,-2.0427691627174287,2.5731313219513328,-26.379204199699455,21.44618949065527,61.10481540316535,-34.603722,-26.094426097843836,0.0,34.603722000000005,0.8964039464346416,0.357636,-0.052233,-0.25657001,1.0,0.0,0.0,0.0,52.621328818147866
4.1868,52.3214,-0.1994800079654584,-3.2434830661092375,-4.501559174714374,-0.43840520863309285,-1.9833649353775284,2.6652391919430567,-31.113746650802113,21.116666634808496,59.28026123222702,-30.032606,-22.762587949284505,0.0,30.032605999999987,0.9048445246358956,0.35392201,-0.059293,-0.229085,1.0,0.0,0.0,0.0,50.395297445100724
4.2062,52.3414,0.40958024675658894,-3.3738009680662153,-5.08351511737096,-0.5479089384041812,-1.8430525018145203,2.7552658517967705,-36.114149931559325,20.418099715301217,57.054368884446255,-24.853748,-18.9475655361155,0.0,24.853747999999996,0.9127980376498844,0.35044399,-0.069086,-0.19802999,1.0,0.0,0.0,0.0,48.210141005810534
4.2272,52.3614,1.141453832882407,-3.3582541470604976,-5.527442827476935,-0.7850115952069366,-1.6029596069563348,2.788534485768482,-41.050991432672895,19.228805313911728,54.52419792777681,-19.123381,-14.701281547115807,0.0,19.123380999999995,0.9203712507514128,0.34638399,-0.079586,-0.16309801,1.0,0.0,0.0,0.0,46.039166525689964
4.2483,52.3814,1.9481446159577065,-3.2271194682669555,-5.696820319186855,-1.1200554793996764,-1.2970430761552862,2.7279864778678404,-45.16829546720832,17.905618225957976,52.09225123557408,-13.585569,-10.604776254929726,0.0,13.585568999999992,0.9280739409999722,0.338808,-0.086936,-0.12778901,1.0,0.0,0.0,0.0,43.72691835748789
4.2698,52.4014,2.7471633257913997,-3.030945971512802,-5.4730520951653645,-1.4736853362410327,-0.981432804584294,2.5770286299558727,-48.220038232931564,17.167990254870187,49.93226840629817,-8.831794,-7.080360407150992,0.0,8.831794000000002,0.936805796190694,0.32412601,-0.090757,-0.095396,1.0,0.0,0.0,0.0,40.95626006707355
4.2914,52.4214,3.503941710675855,-2.8006111757191934,-4.802526921601433,-1.7383607381545971,-0.7086272406129119,2.3596681887053164,-50.564921601982526,17.124940170423457,47.94633296286398,-4.9264,-4.082978950599022,0.0,4.926400000000001,0.9458903126274314,0.30377099,-0.092684,-0.066516,1.0,0.0,0.0,0.0,37.86894050259536
4.3065,52.4414,4.166073392329036,-2.469157129333091,-3.6715402869327525,-1.8461236334026103,-0.45733459018527356,2.0932244359440904,-52.947663448139664,17.942746789853487,45.4233897649716,-1.583167,-1.3632387017572314,0.0,1.583167000000003,0.9544207370996712,0.27865601,-0.098742,-0.041011,1.0,0.0,0.0,0.0,34.73080128146092
4.327,52.4614,4.6505253253140575,-1.9345341915464105,-2.1913823050667807,-1.7784812466984583,-0.2055912107752238,1.7707671592177747,-55.785648831614985,18.928935099526967,41.98317655997757,1.62774,1.4559463424562784,0.0,1.6277399999999886,0.960878353018539,0.25286901,-0.111789,-0.016531,1.0,0.0,0.0,0.0,32.158983757646986
4.3478,52.4813,5.019494349199751,-1.1869896940581004,-0.6855726437050009,-1.5404228299692135,0.01618378604164028,1.412969748345824,-58.229059702460894,18.88671332041426,39.07375491775781,4.589689,4.215104358108167,0.0,4.589688999999993,0.9648019531561906,0.233293,-0.121124,0.007781,1.0,0.0,0.0,0.0,30.493625971473165
4.3672,52.5013,5.253364434680154,-0.3483760622468344,0.6132488917665349,-1.203798145635725,0.17272002593188074,1.0146452535520682,-59.80013596299877,18.234503930055578,37.332444085082656,6.846873,6.380618186489873,0.0,6.846872999999988,0.9668652084644476,0.220953,-0.124904,0.027394,1.0,0.0,0.0,0.0,29.581234025449657
4.3864,52.5213,5.3244116154732,0.4737887626815227,1.6098077224627119,-0.8257340180374807,0.20903294577216347,0.5783971343685186,-60.47624379404772,17.679939297118935,36.631117368659645,8.210755,7.709494700405617,0.0,8.210755000000006,0.96825426308589,0.212984,-0.124548,0.040116,1.0,0.0,0.0,0.0,28.95116168102905
4.4069,52.5413,5.161300420548371,1.2274081205604817,2.3440823528492523,-0.4345160898795461,0.0977821064589535,0.1240917020845748,-60.73384655901445,17.784326998215622,36.0796975547705,8.78302,8.307030322462673,0.0,8.783019999999993,0.969472210119506,0.205569,-0.125494,0.046003,1.0,0.0,0.0,0.0,28.387449944798416
4.4259,52.5613,4.714350099177258,1.8072241870776384,2.9107017295410564,-0.044799174474738815,-0.13552410218538574,-0.31572302010460773,-61.17130442562731,18.39820185246333,34.90683983929836,8.889912,8.482812293455119,0.0,8.88991200000001,0.9694791260859822,0.20035701,-0.13352101,0.046254,1.0,0.0,0.0,0.0,28.384217678642866
4.4522,52.5813,4.179674302645823,2.115789826602187,3.329857840938045,0.3157083289404171,-0.4086825895523486,-0.7317475925719599,-61.72641542863049,18.758547239003377,33.71739758276673,8.829981,8.464965466971881,0.0,8.829981000000004,0.9677409257306108,0.20202801,-0.14417499,0.04331,1.0,0.0,0.0,0.0,29.18556046692643
4.4665,52.6013,3.6088592164819246,2.177971619591922,3.6475824242204773,0.6227237344021754,-0.6205796081810476,-1.1431041473726622,-62.494470052125486,18.890270412834578,32.34390344605316,8.791832,8.449914543770852,0.0,8.791832,0.9643377106122004,0.208858,-0.15788899,0.038758,1.0,0.0,0.0,0.0,30.695267289033726
4.4862,52.6213,2.9919082910198016,2.0412253298037797,3.876188113018415,0.8829902438920817,-0.7015073335366339,-1.5482334136650033,-63.38305084859896,19.430345784180254,30.49114309913071,8.544392,8.25676028690011,0.0,8.544391999999988,0.959717022500393,0.21675099,-0.176071,0.031004,1.0,0.0,0.0,0.0,32.636019602940685
4.5069,52.6413,2.4240808352982786,1.719843110984974,3.9728445071524803,1.116128064281075,-0.6307453611205548,-1.9278931095517788,-63.92614660686917,20.776116280875186,28.733515345011984,7.632112,7.428429246100302,0.0,7.6321120000000064,0.954796779386179,0.224196,-0.19441099,0.017425,1.0,0.0,0.0,0.0,34.58613268161293
4.5265,52.6613,1.9037764284252767,1.2456758944534991,3.9057726406167887,1.3549923063708489,-0.43946968596966696,-2.2510038836688815,-63.93851746653725,22.92133407654147,27.383091217559713,5.955627,5.839910844471469,0.0,5.955626999999993,0.9497300060069704,0.231213,-0.211064,-0.002335,1.0,0.0,0.0,0.0,36.488698903990006
4.5471,52.6813,1.4367754661860366,0.6698831918556039,3.6474904700323023,1.6175687751700247,-0.191755181193062,-2.5024567978541254,-63.37828779484715,25.47758118079216,26.738498411191873,3.661297,3.605175960019015,0.0,3.6612969999999905,0.944324974492362,0.239195,-0.224309,-0.026862,1.0,0.0,0.0,0.0,38.41790451445654
4.5665,52.7013,1.060206358035114,0.0493859345106884,3.1911476996155983,1.892533846214906,0.042034903750448604,-2.6989890921361672,-62.271205045365946,27.98791370975165,27.062866702501292,0.906107,0.8891523597246764,0.0,0.9061069999999916,0.938405841261658,0.249706,-0.232521,-0.054547,1.0,0.0,0.0,0.0,40.42892235888129
4.5867,52.7213,0.7450254982669842,-0.5414049463525243,2.563732860099414,2.1661769094669756,0.2048804925744807,-2.8700712082608213,-60.79180779034887,30.168742340155816,28.129413946183714,-2.064984,-2.004580531703296,0.0,2.0649840000000097,0.9315957549002678,0.26266801,-0.23707201,-0.083257,1.0,0.0,0.0,0.0,42.63010775459509
4.6093,52.7413,0.4377559422635257,-1.0364643460175014,1.8106633583307712,2.4298963071174366,0.25591515614461646,-3.0398181628819954,-58.95894589874776,32.16492344536523,29.587112909640997,-5.268815,-5.044491902271404,0.0,5.268814999999989,0.9236837481056488,0.27607799,-0.24049699,-0.112918,1.0,0.0,0.0,0.0,45.05858994974977
4.6261,52.7613,0.06350245434746182,-1.4284386817878358,0.9764018389665896,2.68102284070574,0.17633256588818913,-3.208699947108574,-56.60407175993506,34.25740556750351,31.24037671613546,-8.940403,-8.453893475765971,0.0,8.940403000000003,0.9138395027376524,0.28878999,-0.245524,-0.145656,1.0,0.0,0.0,0.0,47.91709011226641
4.6471,52.7813,-0.4061683360405537,-1.7386708775421358,0.09650785415257346,2.8991002423594194,-0.013211504479389458,-3.369710127957561,-53.64095738525874,36.15874237718028,33.28528076624334,-13.109576,-12.235150654672317,0.0,13.109576000000004,0.9014619129905268,0.30187699,-0.251656,-0.1814,1.0,0.0,0.0,0.0,51.298200941683184
4.666,52.8013,-1.0040508277933762,-1.937984710067758,-0.783649891209782,3.062257728627743,-0.29758425255396825,-3.5210948346107633,-50.04943794286881,37.711765919071425,35.70050011606368,-17.803255,-16.409357329259148,0.0,17.803255000000007,0.8861330310555068,0.31487501,-0.25935599,-0.219901,1.0,0.0,0.0,0.0,55.21744683277796
4.6863,52.8213,-1.7594885330675099,-1.9967595618272638,-1.6198628299433455,3.1613930873486247,-0.6393744705878318,-3.6763097461943817,-46.30378591290261,38.49646086061114,38.23411445425599,-22.463858,-20.462569541114508,0.0,22.463857999999988,0.8680285046244737,0.328343,-0.26937899,-0.25720099,1.0,0.0,0.0,0.0,59.53931795277895
4.7075,52.8413,-2.688622662326053,-1.894187540782403,-2.3830182407213147,3.18705856481199,-1.0167350840287859,-3.8721862192665366,-42.8376756561486,38.45469885979395,40.68660790942869,-26.753874,-24.10276029395919,0.0,26.753873999999996,0.847701481559505,0.34240201,-0.28184199,-0.29108101,1.0,0.0,0.0,0.0,64.07491394643456
4.7259,52.8613,-3.737910747412446,-1.6141909211889736,-3.044744470227748,3.079225458227907,-1.4291275088512831,-4.1766001589098405,-39.345612292460004,37.87984624210794,43.40132045238873,-31.567335,-28.049240487455123,0.0,31.567335000000014,0.8255230564273052,0.35608801,-0.29300499,-0.32536301,1.0,0.0,0.0,0.0,68.71688579869651
4.7536,52.8812,-4.7758142552178535,-1.0477136049720657,-3.5636352705365226,2.7451879655732996,-1.8900785404769607,-4.619063018279869,-35.089649278642,37.55130500418472,46.37752353459246,-38.15601,-33.687199700218294,0.0,38.15601000000001,0.8016700397299001,0.36415201,-0.30146599,-0.36583701,1.0,0.0,0.0,0.0,73.42024672473329
4.7694,52.9012,-5.637684551763971,-0.14966907276307995,-4.038861154787202,2.229414828956684,-2.2826203244974956,-5.109075515122816,-30.738326378874866,37.70657700571639,48.749182300746966,-45.393089,-40.579080146829405,0.0,45.393089,0.7745703151636653,0.36722901,-0.31370801,-0.40837601,1.0,0.0,0.0,0.0,78.46781581324855
4.7857,52.9212,-6.111664183391881,0.9143159054413564,-4.648488841509117,1.744106515263274,-2.3350833656386003,-5.523655630888035,-27.717584695922103,37.71467677909048,50.15188147733201,-51.415543,-46.77647263219918,0.0,51.415543000000014,0.7441918505942534,0.37351799,-0.33212301,-0.443122,1.0,0.0,0.0,0.0,83.82053619570384
4.8057,52.9412,-5.920030337841779,2.227125565483678,-5.327371320048637,1.3369365929330344,-1.945961297783863,-5.693843104518041,-24.2877386766096,38.55731854256298,50.91960074678843,-57.741283,-55.200492874847036,0.0,57.74128300000001,0.7103987007846508,0.37358001,-0.35540599,-0.479018,1.0,0.0,0.0,0.0,89.46527203258948
4.827,52.9612,-4.950873448708691,3.8188679805632977,-6.0075109400453615,1.109686981795179,-1.1284988456832616,-5.392278442428848,-18.741011032991388,40.67490002712433,51.26057807675111,-65.353752,-69.95082286984585,0.0,65.353752,0.6709581507398056,0.35753301,-0.38457301,-0.52353501,1.0,0.0,0.0,0.0,95.71788305887458
4.8478,52.9812,-3.4400462263978646,5.357516424766844,-6.609121384719485,1.2665038482037991,0.08366398482482917,-4.5463463269103865,-11.667221787428176,42.050272744611675,51.972282887132124,-74.396637,-89.12470610554627,0.0,74.396637,0.6264149062065969,0.333143,-0.41156501,-0.57204401,1.0,0.0,0.0,0.0,102.42777335222975
4.8659,53.0012,-2.001314034855764,6.568839092748316,-6.775300567609198,1.6735053999675586,1.576229140109563,-3.296652832615443,-4.518959829060879,39.882363794202526,54.629725263331984,-85.544876,-102.26942066846415,0.0,85.544876,0.5908781291196176,0.31573299,-0.411336,-0.61804402,1.0,0.0,0.0,0.0,107.56130460596222
4.8868,53.0212,-1.307232320953973,7.506460309692562,-6.195155589899236,1.9129663381629887,3.0925277661331,-1.8464570962988462,1.7828743036416377,33.49423748591921,59.07544849002434,-96.278854,-104.31954998691968,0.0,96.278854,0.5779453061300692,0.31462699,-0.370276,-0.65565598,1.0,0.0,0.0,0.0,109.3876883869111
4.9062,53.0412,-1.3761546646903065,8.132364909515786,-4.924232004727404,1.7406251718835974,4.242471893411184,-0.42289272862794924,8.461058910935193,25.316232808268087,62.964841005058794,-102.955063,-101.41526664991854,0.0,102.955063,0.5811451814090517,0.31895801,-0.30545199,-0.68354601,1.0,0.0,0.0,0.0,108.93774205913499
4.9258,53.0612,-1.58415564149242,8.382607360338609,-3.455058878822287,1.3574405217566825,4.813418060519883,0.6538634793138607,16.987251587376644,19.07196874327237,64.30657589978753,-105.64463,-100.41727800624635,0.0,105.64463,0.5863151933634323,0.30637401,-0.247447,-0.70791203,1.0,0.0,0.0,0.0,108.20808634067232
4.9479,53.0812,-1.7644100178207984,8.210028819734426,-2.0564346653981147,0.8759904831265655,4.935865415650466,1.3042622829992159,26.18104921407182,15.714035861621415,63.28958071013028,-105.58046,-100.13992157905608,0.0,105.58046,0.5955637190338072,0.27935299,-0.201074,-0.72583401,1.0,0.0,0.0,0.0,106.89434241911694
4.9948,53.1012,-2.0977251820652434,7.338526258189321,-0.5392705196344121,0.2577492346807332,4.65137071275647,1.7509504475614497,34.27907419587767,13.776838068250036,61.16309771199965,-103.692459,-97.76763673264755,0.0,103.692459,0.6144201163521259,0.258028,-0.15043201,-0.73026001,1.0,0.0,0.0,0.0,104.1804060261724
5.0005,53.1212,-2.175189454249931,6.292004129345821,0.7909974436268143,-0.21580253453347797,4.026706620157626,1.8746482554924617,41.50533721668789,14.326051228770218,57.75053951736075,-100.830009,-95.64666156744275,0.0,100.830009,0.6356560134694543,0.22943,-0.110258,-0.72879797,1.0,0.0,0.0,0.0,101.06268648458419
5.0142,53.1412,-2.0266543841994515,5.185682980791097,2.000008982524358,-0.49374648435507745,3.127488841888111,1.8376586973791915,47.08609769148424,15.718868703222329,54.06485323321808,-98.122139,-93.74061456381591,0.0,98.122139,0.6547514747184614,0.203297,-0.076664,-0.723943,1.0,0.0,0.0,0.0,98.19838372349633
5.0262,53.1612,-1.674571680441922,4.200419878699208,3.015610542656807,-0.575978270569385,2.082457668318628,1.752246950390058,51.04449238772956,16.946238105403435,50.75485098911025,-96.292725,-92.57301699108612,0.0,96.292725,0.6674434512506209,0.182567,-0.050249,-0.72018301,1.0,0.0,0.0,0.0,96.25989106210545
5.0526,53.1812,-1.3225359822678575,3.424445876386776,3.743903492006325,-0.5752568794974837,1.0513164398146584,1.7028733157426472,53.19379843376881,17.8911369182659,48.58146818129213,-95.257294,-91.91938045515411,0.0,95.257294,0.6744325891742178,0.170634,-0.033779,-0.71755397,1.0,0.0,0.0,0.0,95.17979403256601
5.0803,53.2012,-1.1864953768605586,2.7448871484207134,4.185262923034598,-0.6135260037347836,0.1698736750549804,1.72397331226968,53.243818881440426,19.30555526164863,48.07442512948665,-93.950333,-90.55504787983689,0.0,93.950333,0.6827615008170862,0.17083301,-0.025897,-0.70991701,1.0,0.0,0.0,0.0,93.8803696595218
5.1056,53.2212,-1.2072720773173344,2.0578434463047968,4.422967594460843,-0.7145766272949581,-0.4735517572484582,1.7875421339085409,51.591096586538654,21.591238379928164,48.763763232491016,-91.82119,-88.03095222939707,0.0,91.82119,0.6958626098914062,0.179609,-0.023017,-0.69497198,1.0,0.0,0.0,0.0,91.80800803089393
5.1096,53.2412,-1.202745300456256,1.4549615797970779,4.574156731808083,-0.847905119716287,-0.8571763452514982,1.8718510431412037,49.157572664549754,24.62995022929846,49.56036307005566,-89.268311,-85.13820546935952,0.0,89.268311,0.7109326301888101,0.18741301,-0.025749,-0.67733902,1.0,0.0,0.0,0.0,89.37830513991234
5.1266,53.2612,-1.0133961172680697,0.9016055173815817,4.771785095533415,-0.9468104290564388,-1.0498216043443698,1.9815872534101093,47.08277870873856,27.644402176823533,49.634228944089976,-87.127617,-82.96640183861945,0.0,87.127617,0.7230690028169229,0.188848,-0.030954,-0.66373903,1.0,0.0,0.0,0.0,87.38310444417073
5.1511,53.2812,-0.7423741633376935,0.34922942585812755,5.051805192621982,-0.9251838672337824,-1.1606530727207391,2.1016847454327543,45.03021333100537,31.04019375016905,49.096829232167956,-84.807465,-80.8775847827673,0.0,84.807465,0.7357684989193272,0.185277,-0.038425,-0.650262,1.0,0.0,0.0,0.0,85.25561358882757
5.1663,53.3011,-0.5019990494220643,-0.31436015903843517,5.362879804417558,-0.7183617013951717,-1.2852897464886988,2.1853877691173196,42.046166646084316,34.92957254445098,48.5938474011288,-81.52301,-77.80061100558358,0.0,81.52301,0.7532090195724424,0.182906,-0.04637,-0.63013601,1.0,0.0,0.0,0.0,82.26175405385192
5.188,53.3211,-0.2580208009750793,-1.033961365982917,5.582161204364983,-0.3391366970819284,-1.4225070525491132,2.214657873903307,38.36296287113099,38.42607588383025,48.355408019064605,-77.990837,-74.39583317768516,0.0,77.990837,0.771023935694606,0.183081,-0.0549,-0.607445,1.0,0.0,0.0,0.0,79.10814674343959
5.2059,53.3411,-0.03664156081584746,-1.7241133006777123,5.551865205106306,0.10710848613836821,-1.5414586458316282,2.2031270629436985,34.50617018893706,40.684271489730094,48.63800318447264,-75.201912,-71.58960423304782,0.0,75.201912,0.7838186733578112,0.187328,-0.065202,-0.58846003,1.0,0.0,0.0,0.0,76.77689676101758
5.2268,53.3611,0.1531400980985147,-2.3230453165175637,5.142426293180538,0.48079862520826466,-1.621562194045426,2.1599263481923447,30.138039796169934,41.89317836007527,49.604115278467546,-72.758194,-68.85431762890626,0.0,72.758194,0.7937792652788556,0.197899,-0.075619,-0.57011598,1.0,0.0,0.0,0.0,74.91978847223758
5.2497,53.3811,0.4508658105729175,-3.0635989494101956,4.253807825688671,0.6745273249834488,-1.6823162129196612,2.0218542433124904,24.993253029105176,41.30146822012175,51.94796097791382,-70.417709,-65.28607180392503,0.0,70.417709,0.8030976199545731,0.223058,-0.074428,-0.54748499,1.0,0.0,0.0,0.0,73.14614047608411
5.2685,53.4011,0.7236858510683364,-3.3192919179400713,3.0684411984407465,0.5997650886858127,-1.6466781244537885,1.8350573068874863,19.748976904995253,40.380365438668875,54.00369652967821,-68.143181,-61.728688131789774,0.0,68.143181,0.8111017641023844,0.247339,-0.074185,-0.524818,1.0,0.0,0.0,0.0,71.59256632503259
5.2873,53.4211,0.7857019176412363,-2.8629325339920157,1.8333629906454387,0.2753997133944519,-1.4855914389314122,1.66525291562952,15.037161922921221,40.649981717585064,54.58303760468536,-65.80442,-58.96080106116439,0.0,65.80442,0.8181466254562808,0.25874299,-0.084125,-0.50656801,1.0,0.0,0.0,0.0,70.20061618943824
5.3069,53.4411,0.6056039148613666,-2.187186177360037,0.5946354842252948,-0.19486594114190126,-1.2500777185822878,1.5099709983181495,10.610691489583168,41.446258738024554,54.48618807481236,-63.258015,-56.33715272693285,0.0,63.258015,0.8253777437716865,0.26553199,-0.096042,-0.488897,1.0,0.0,0.0,0.0,68.74638509317347
5.3259,53.4611,0.19688730258584242,-1.6035292854674972,-0.5654851487429333,-0.7268736105978687,-0.9968221902466274,1.395108426740803,6.72185703508034,42.317043249657104,54.11441765588923,-60.786057,-53.865690590012335,0.0,60.786057,0.8322705958076375,0.270872,-0.105299,-0.472087,1.0,0.0,0.0,0.0,67.33461097657081
5.3551,53.4811,-0.4111860044541036,-1.1619386506917975,-1.5228600080638266,-1.2291150595980722,-0.7684597084628251,1.3729701821892455,3.6385225854531384,44.01915177890389,52.93302952511563,-58.299297,-51.91907498646427,0.0,58.299296999999996,0.8394251419972361,0.26855701,-0.116251,-0.45796099,1.0,0.0,0.0,0.0,65.84106853808566
5.371,53.5011,-1.0779315973646884,-1.032750434464491,-2.2095372660241965,-1.5546588307396165,-0.6501972359380472,1.4687588378841774,1.2138197485566664,46.320419616420565,51.12595109133777,-55.703228,-50.25008055902525,0.0,55.703227999999996,0.8479776205465329,0.25955299,-0.125854,-0.44466501,1.0,0.0,0.0,0.0,64.01523826618639
5.3858,53.5211,-1.694041994979282,-1.205195546882614,-2.5926772116648102,-1.567405575620688,-0.705709393987744,1.690319683909431,-1.2674742824414338,49.18594715833963,48.57581760757182,-52.479843,-48.318428067322806,0.0,52.479843,0.85962821278405,0.243682,-0.1354,-0.42816499,1.0,0.0,0.0,0.0,61.450271518650794
5.4055,53.5411,-2.1560889115616644,-1.5173074065902508,-2.7382669155956876,-1.216443627852776,-0.9318832220526181,2.029095550870369,-4.07665311186792,52.33257552082978,45.210829561492105,-48.818142,-46.20192678033561,0.0,48.818141999999995,0.8730187490764445,0.221219,-0.14723,-0.40893,1.0,0.0,0.0,0.0,58.37728908827325
5.4268,53.5611,-2.312188683200552,-2.0221838871098967,-2.870178714718371,-0.5618281257055973,-1.3578727425419956,2.4256970346801503,-7.357940385653421,53.72486605557744,43.19590872229814,-45.66626,-43.77342033945332,0.0,45.666259999999994,0.8844835870335073,0.208995,-0.15109999,-0.38881701,1.0,0.0,0.0,0.0,55.62392361531847
5.448,53.5811,-2.161289810333711,-2.6052268217378947,-3.2530497219661463,0.20606315475466033,-1.9115074982876197,2.7736307814992895,-12.251444134924498,52.906177690101984,43.01130021570673,-42.247112,-40.292597545897294,0.0,42.247112000000016,0.8938314910826313,0.21433,-0.15166,-0.363493,1.0,0.0,0.0,0.0,53.2825384997642
5.4664,53.6011,-1.7018079804579858,-3.0220527693901262,-3.9378659005101593,0.8869952563557917,-2.390488271491407,3.0301764782188965,-18.748664419488218,50.52381380139482,43.3986239471749,-38.060032,-35.831412443554996,0.0,38.06003200000001,0.901552730026436,0.229399,-0.15554,-0.33224401,1.0,0.0,0.0,0.0,51.27415349406171
5.569,53.6211,-0.956309351096017,-3.1623444441818767,-4.796806566610514,1.3261489648177802,-2.607702279922257,3.198597783419447,-26.40431741562181,47.034233984983715,43.39542767915641,-32.991795,-30.594178076732053,0.0,32.991794999999996,0.9075062897171456,0.248161,-0.164949,-0.29604101,1.0,0.0,0.0,0.0,49.674035252048846
5.5738,53.6411,0.019216070840453417,-3.0528647725406532,-5.641862869726265,1.4125309439735068,-2.487726205177548,3.2812437977751947,-34.39041541374956,42.66935278860335,42.82159038364378,-27.47303,-25.025456155149797,0.0,27.473029999999994,0.910413306539376,0.26955199,-0.177874,-0.25855401,1.0,0.0,0.0,0.0,48.87493989694677
5.5751,53.6611,1.0825222002732535,-2.755458446903543,-6.243710737917628,1.0584868019370917,-2.0648476310420887,3.303346713529188,-41.998188608576505,38.31353938252184,41.19947281673684,-21.916145,-19.656936775845033,0.0,21.916145,0.9090124702783674,0.29105201,-0.196509,-0.22443099,1.0,0.0,0.0,0.0,49.261526015342355
5.5795,53.6811,2.2569177794506383,-2.343071580667793,-6.4499473573107995,0.47114351924228126,-1.4406152568299957,3.256560533234843,-48.26514222551462,33.65868932348285,39.83961482085458,-16.520668,-14.510067570466271,0.0,16.520668,0.9105236092814948,0.307715,-0.201704,-0.18861,1.0,0.0,0.0,0.0,48.844377952015144
5.5822,53.701,3.2662267887293654,-1.9473950914287337,-6.170879228232897,-0.27770621910867904,-0.8011278442348746,3.209119777811649,-52.97791674444352,30.01793541156739,38.185146255503234,-11.736161,-10.21188212170947,0.0,11.73616100000001,0.9138862017301168,0.31485999,-0.20352501,-0.155733,1.0,0.0,0.0,0.0,47.90391029185156
5.6124,53.721,4.075350274648242,-1.699007393608449,-5.4865575359327865,-0.9321792772050859,-0.2877018460755467,3.189970253608928,-55.878955115562974,27.685390915786776,37.012303181576684,-8.221329,-7.173008711021234,0.0,8.221328999999997,0.920798579147166,0.31077,-0.198153,-0.12762199,1.0,0.0,0.0,0.0,45.913781260183896
5.6148,53.741,4.716760897526309,-1.5759920361292274,-4.481930286224701,-1.3426677167339585,0.033041273591498,3.1859148443388343,-58.033160084507905,25.93006204213933,35.911019315491615,-4.89625,-4.322706232753315,0.0,4.896250000000009,0.9300641058268724,0.29903501,-0.18966199,-0.097914,1.0,0.0,0.0,0.0,43.11037977618277
5.6567,53.761,5.173635682839188,-1.448604822379461,-3.1891742783773216,-1.5061480892117447,0.17981324162504664,3.1068958035288583,-60.599702344806495,24.132499755127785,33.68342401555865,-0.666864,-0.6019454628843259,0.0,0.6668640000000039,0.9383111509791194,0.283362,-0.18823799,-0.062005,1.0,0.0,0.0,0.0,40.46031330517587
5.6585,53.781,5.554202567970628,-1.2191986882999966,-1.8252811494874601,-1.4200235295674648,0.19338004954860089,2.904730392457174,-63.297861880742424,21.517593651128557,31.297883843121152,3.93474,3.6167550052856527,0.0,3.934740000000005,0.9438665036947758,0.270363,-0.188403,-0.022895,1.0,0.0,0.0,0.0,38.57726620317281
5.6695,53.801,5.847092142854098,-0.8392074205637536,-0.5602775550005461,-1.1867937267569384,0.16065240650207513,2.548365511796069,-65.88187175173076,18.408682596810266,28.946208789059014,8.375547,7.798840967060493,0.0,8.375547000000012,0.9460532711991116,0.26182699,-0.190319,0.01444,1.0,0.0,0.0,0.0,37.81134992866925
5.6871,53.821,5.957508606982057,-0.35870413117428956,0.4919564282882689,-0.9436214921768524,0.12824794430026987,2.042889880490775,-68.20155017928171,15.299100646066101,26.584234753331167,12.309645,11.559358286524489,0.0,12.309644999999989,0.944938032810533,0.25864199,-0.195114,0.046119,1.0,0.0,0.0,0.0,38.20380975947147
5.7069,53.841,5.898450182382125,0.09884978890536988,1.2553105525238522,-0.7726748383316757,0.09785644349834621,1.4383559061910005,-69.9419847243225,12.780549125006708,24.744421893786022,15.209137,14.316786022913215,0.0,15.209136999999998,0.9423320786002776,0.26004401,-0.19927,0.068402,1.0,0.0,0.0,0.0,39.10607865320479
5.7268,53.861,5.662257173907281,0.4853502144426103,1.816143921416593,-0.6986225290191795,0.06017339595539778,0.7873245178205712,-71.16556750042992,11.624002939832792,23.199704591080366,16.815304,15.890856833984513,0.0,16.815303999999998,0.9404409129195944,0.260093,-0.20355199,0.080555,1.0,0.0,0.0,0.0,39.74853144254666
5.7472,53.881,5.254214116256064,0.8371562209677514,2.329865804061832,-0.6632362255809351,-0.005755455079929667,0.13012933704367158,-72.15331124578478,11.561880517733357,21.50423917729209,17.646889,16.855422641902372,0.0,17.646888999999987,0.9399675008366406,0.25504601,-0.209023,0.087875,1.0,0.0,0.0,0.0,39.90780136334256
5.7658,53.901,4.712416881664788,1.1054095489885607,2.919015169255003,-0.5664696830663252,-0.09817956698341396,-0.5134073770431434,-72.99154014331985,12.348577497775366,19.438377000786865,17.952059,17.443891767325226,0.0,17.95205899999999,0.9401302577062606,0.246125,-0.21719199,0.09168,1.0,0.0,0.0,0.0,39.85311398990787
5.7864,53.921,4.128312568322759,1.2293627344154276,3.608342740447437,-0.33685671847778587,-0.1880598291447808,-1.1386100683789133,-73.51955909053551,13.998869263291922,17.281957112056222,17.567381,17.414045874828506,0.0,17.56738100000001,0.9403112536644448,0.236526,-0.227716,0.08953,1.0,0.0,0.0,0.0,39.79221349199542
5.8053,53.941,3.49235195264506,1.1267137952808008,4.3728026226183445,0.047818252145181095,-0.24519733372650498,-1.7557244020747131,-73.68165938496075,16.274733196263686,15.10629695515612,16.641144,16.825526936550578,0.0,16.641143999999997,0.9388938098922582,0.231181,-0.241973,0.080516,1.0,0.0,0.0,0.0,40.26678324795166
5.8249,53.961,2.9016791120657253,0.8639010055915595,5.086037555707325,0.5586566960326922,-0.2766089339099569,-2.3736851412358697,-73.3877296936382,18.795356721473485,13.592305062134495,15.273391,15.686352016459015,0.0,15.273391000000004,0.9368418081528704,0.229865,-0.25509301,0.066461,1.0,0.0,0.0,0.0,40.94446290303101
5.8485,53.981,2.399414336221195,0.4540521348549804,5.6354660590519945,1.1437520019979786,-0.3138133681083002,-2.995321572281611,-72.52242322406639,21.883695656408296,13.009803943959149,13.108356,13.622533305240221,0.0,13.108356000000015,0.9350982926153272,0.23035499,-0.265457,0.045391,1.0,0.0,0.0,0.0,41.51193878098895
5.8651,54.001,1.912049876107519,-0.21787455479592488,5.93909657461265,1.7562419401506155,-0.36095139404193266,-3.5987612615680575,-70.93956790539461,25.886041138161428,13.244992138239308,9.868612,10.350776220038286,0.0,9.868612000000013,0.9323818991218136,0.233779,-0.275345,0.014018,1.0,0.0,0.0,0.0,42.38158612663878
5.896,54.021,1.2966468276902243,-1.1274560602546284,5.91652818352439,2.3679670895672023,-0.38959112101672333,-4.130040825307565,-68.63970899512674,30.524688445711817,13.899897297927083,5.852755,6.198158727506525,0.0,5.852755000000002,0.9268400344369032,0.240337,-0.28731,-0.025664,1.0,0.0,0.0,0.0,44.10505485362677
5.9106,54.041,0.41611285883690463,-2.2063756220946447,5.481684716101494,2.9734644781163477,-0.34056629452938947,-4.518490557852152,-65.6294133869783,35.41305939331612,14.725475643273764,1.455376,1.5600329503128356,0.0,1.4553760000000011,0.9162512016961724,0.25141299,-0.30362099,-0.071341,1.0,0.0,0.0,0.0,47.2319123545287
5.927,54.061,-0.60565288866593,-3.2718747047558017,4.563676303026801,3.5199787156088753,-0.1800681051581985,-4.734405954609166,-61.821270481326756,39.992456893641446,16.43328131873101,-3.275053,-3.537485603892953,0.0,3.275053000000014,0.9013144289559888,0.26668701,-0.319258,-0.120767,1.0,0.0,0.0,0.0,51.33723087112127
5.9493,54.081,-1.6509045491913263,-4.114795633850602,3.1887222182016988,3.95382039401274,0.0643293596358605,-4.772909338791101,-57.03186832614626,43.90288028956604,19.572274076663405,-8.697979,-9.36742365589426,0.0,8.697979000000004,0.8831430513233967,0.28428799,-0.33025399,-0.17369799,1.0,0.0,0.0,0.0,55.952272579592055
5.9661,54.101,-2.71636056737512,-4.597832758834052,1.4615048891301772,4.263243506092482,0.34068109718553474,-4.622097572694466,-51.27050448302985,46.64245443754527,24.21658008603098,-15.08527,-15.967205966613578,0.0,15.085270000000008,0.8608233455224829,0.30457601,-0.33659801,-0.23004,1.0,0.0,0.0,0.0,61.18169171613108
5.9858,54.1209,-3.6695100785701538,-4.498448805046991,-0.35043997736877586,4.412921144920983,0.5423786214881758,-4.331595748304111,-44.92046490835275,47.763702144695216,29.797978548714237,-22.424417,-23.068270953121388,0.0,22.424417000000005,0.8377504183288839,0.32196099,-0.336808,-0.284738,1.0,0.0,0.0,0.0,66.19334756104494
6.008,54.1409,-4.414217844069969,-3.818532392187217,-1.990178472838224,4.385573745065921,0.6032548266330715,-3.982867792089953,-38.3637129808521,47.37563841075428,35.532194934299014,-30.430954,-30.3377847522983,0.0,30.430953999999986,0.8170263713626384,0.332919,-0.331359,-0.334416,1.0,0.0,0.0,0.0,70.4235590742188
6.0267,54.1609,-4.937491762567381,-2.7651181379322596,-3.3688627272400584,4.1947278577176315,0.544087779272864,-3.6271726414974226,-31.90688844719297,45.6093294408973,41.133633656735796,-38.886242,-37.42974275701847,0.0,38.88624200000001,0.7973531868337017,0.341207,-0.321812,-0.37979299,1.0,0.0,0.0,0.0,74.2438230300428
6.0469,54.1809,-5.245715358745569,-1.5045499475173392,-4.45290169624728,3.858517887081897,0.4014246839290656,-3.295090003676918,-25.81493957198912,42.65202597876245,46.3517726122554,-47.756031,-44.206391182349044,0.0,47.75603100000001,0.7761885344625749,0.35030699,-0.31055099,-0.422344,1.0,0.0,0.0,0.0,78.17417237411391
6.0692,54.2009,-5.307840731820859,-0.17779435481902706,-5.176768718758584,3.375527339755929,0.23445614456886096,-3.0355079774781295,-20.415166055456435,39.00407889010806,50.732463701543765,-56.161388,-50.137925680892785,0.0,56.161388,0.7569208282271005,0.35793501,-0.29747099,-0.45876399,1.0,0.0,0.0,0.0,81.61301654194757
6.0856,54.2209,-5.175788487246141,1.1143377992213832,-5.574807620396192,2.7908518484056604,0.08498480992230997,-2.8350601157758,-15.658902162756881,35.51000747963309,54.00216844082898,-63.330879,-55.38142319697873,0.0,63.33087900000001,0.7407797919554768,0.36098301,-0.28553101,-0.48929399,1.0,0.0,0.0,0.0,84.40423138602962
6.1056,54.2409,-4.876744848352929,2.269063576320767,-5.701975462717236,2.1739264145452752,0.03099433358269621,-2.626496665061139,-11.201633757332925,32.01170888803201,56.72571894326528,-70.394775,-60.8247348919873,0.0,70.394775,0.7233429159689196,0.362243,-0.27441901,-0.51985502,1.0,0.0,0.0,0.0,87.33765604778193
6.247,54.2609,-4.442520231378791,3.234286020605958,-5.628739259412679,1.6294852951133898,0.11606491207524461,-2.318959130728886,-7.273958171038757,28.864261434435825,58.88563137027735,-77.081192,-66.54024939973814,0.0,77.081192,0.7036729771127774,0.36173701,-0.26729301,-0.55004102,1.0,0.0,0.0,0.0,90.55512930515387
6.2602,54.2809,-3.9280942514611414,3.981927980631827,-5.410226114981445,1.2406930020894746,0.3313067112984093,-1.8886553718652526,-3.846806374234248,26.716156217908793,60.42474818783671,-82.332207,-71.95602081224233,0.0,82.332207,0.6861885936421267,0.35677701,-0.26401901,-0.57632399,1.0,0.0,0.0,0.0,93.34168971469407
6.2613,54.3009,-3.3753113593847397,4.487145711124975,-5.011797600242454,1.016007758883108,0.6403162200700961,-1.3973812006200135,-0.2820468089607999,24.88033933389988,61.79558330143937,-86.563133,-76.49016657571478,0.0,86.563133,0.6735015039577564,0.349197,-0.25549701,-0.59931499,1.0,0.0,0.0,0.0,95.32421756344345
6.2634,54.3209,-2.840440769066138,4.745952911298613,-4.410909388033877,0.8875387658255561,0.983426987656843,-0.9289069054147695,3.523437169239056,22.103716499315,63.313975651304425,-90.163887,-79.06802868465789,0.0,90.163887,0.6670011341689305,0.34524,-0.232724,-0.61786598,1.0,0.0,0.0,0.0,96.32793861226328
6.2655,54.3409,-2.3308501318896573,4.984134345760378,-3.779780994628334,0.7650469910133718,1.2860565129757613,-0.5502628593869879,7.180100572062795,19.134022918455713,64.47468390710628,-92.805908,-80.61138846428037,0.0,92.805908,0.6634221892766626,0.342765,-0.206863,-0.63213199,1.0,0.0,0.0,0.0,96.87721276448777
6.2707,54.361,-1.8756818841748708,5.2727181070988625,-3.1596906740736443,0.5551232763471292,1.561382411823177,-0.26036187502984537,10.551554616891615,16.045480054403065,65.19992885394961,-94.951492,-81.69980042270507,0.0,94.951492,0.6599566692566409,0.34252799,-0.18182801,-0.64348298,1.0,0.0,0.0,0.0,97.40686354610868
6.2733,54.381,-1.4695083875335007,5.586316189299639,-2.5258049698660727,0.22452328090023368,1.8289340609002338,-0.0063924493570795445,14.057730875594121,13.103786055721802,65.38399683185845,-96.932869,-83.03467008094515,0.0,96.932869,0.6552027007712956,0.341373,-0.158427,-0.655038,1.0,0.0,0.0,0.0,98.12995682512518
6.275,54.401,-1.1526729616983125,5.902988517052631,-1.9045130441622202,-0.2142275530366019,2.0861582516455797,0.2517044508077215,17.91215633586119,11.471976982248782,64.85379603819985,-97.865028,-84.37362427270595,0.0,97.865028,0.6535456874750376,0.33340099,-0.138579,-0.66522002,1.0,0.0,0.0,0.0,98.38106390017292
6.2864,54.421,-0.9460360986283289,6.072679287328369,-1.2337380858458538,-0.7241049992752,2.2969421885900028,0.5499804183870032,22.038638294579293,10.973885774506469,63.800155099200204,-98.021637,-85.50163502195328,0.0,98.021637,0.6548923660488181,0.320638,-0.119772,-0.67376697,1.0,0.0,0.0,0.0,98.17702183403735
6.307,54.4411,-0.8249500477288181,5.95826357784365,-0.471073779732059,-1.2808912785120148,2.4060422923874354,0.8704931688377118,26.266488387020036,11.363127553977247,62.381235309601,-97.592354,-86.21362594936274,0.0,97.592354,0.6590285472514372,0.30547199,-0.100147,-0.67995501,1.0,0.0,0.0,0.0,97.54834739177339
6.328,54.4611,-0.8223322877392802,5.506622839079608,0.3513979368048883,-1.899827066934769,2.3428696998292953,1.1374130025502487,30.041850641478867,13.15501400412031,60.75016814485184,-95.847054,-85.59631112868605,0.0,95.847054,0.6703548480986913,0.28959101,-0.080156,-0.67848098,1.0,0.0,0.0,0.0,95.8110838856632
6.3487,54.4811,-0.7562107636120992,4.805885016189147,1.1648823418555612,-2.516802618400899,2.0808462039579574,1.2936454920614708,33.436356120962685,16.623619020185483,58.743121810883245,-93.109673,-84.28065190421002,0.0,93.109673,0.6869396277547245,0.269528,-0.062917,-0.67194498,1.0,0.0,0.0,0.0,93.22332109759351
6.3673,54.5012,-0.5103384702177665,4.028167799273814,1.909775550900953,-3.0287948573862287,1.6628193700259613,1.345465372444761,36.29798415188538,21.51732497808934,56.25481401792831,-90.217804,-83.08975346063536,0.0,90.217804,0.703830215897982,0.244416,-0.053798,-0.664823,1.0,0.0,0.0,0.0,90.52976744145157
6.3877,54.5212,-0.1381122969427162,3.2876074169482155,2.5691840800059182,-3.3585773158850136,1.1580291429878697,1.3546910487469048,38.307565840656395,27.29953938516042,53.357021193396534,-87.572639,-82.14353518302067,0.0,87.572639,0.7186750935366549,0.217096,-0.055246,-0.65827298,1.0,0.0,0.0,0.0,88.10959646252927
6.4077,54.5412,0.24230339641075727,2.5301729703663507,3.179827597456386,-3.4617830875161113,0.6268728278593589,1.3895103677406762,39.178979423345126,33.15447774428797,50.4343236287166,-85.240761,-81.19930650846838,0.0,85.240761,0.731029658412434,0.193287,-0.06471,-0.65118998,1.0,0.0,0.0,0.0,86.05443292048592
6.4296,54.5612,0.5461201310634465,1.836680827477569,3.768081439514175,-3.3247120474209257,0.11420651862601716,1.4747908580746252,38.679222394143586,39.25287824193116,47.44366363557751,-82.595619,-79.80220757508837,0.0,82.595619,0.7439416106419912,0.17242999,-0.081502,-0.64045,1.0,0.0,0.0,0.0,83.86345665566529
6.4483,54.5813,0.8391087750392554,1.1507705060599402,4.386189883255184,-2.952901480354816,-0.36817119013517274,1.6294621402929592,37.1715323716049,44.99601516563592,44.42481810377993,-79.703041,-77.98873079592883,0.0,79.703041,0.7574618704067948,0.15485799,-0.098498,-0.626553,1.0,0.0,0.0,0.0,81.51809993417689
6.4666,54.6013,1.141949019667953,0.373431932077395,5.022530213713242,-2.387919792257561,-0.8300063837260281,1.807836887340478,35.08448279636824,49.619923562021064,41.85467532489264,-77.088585,-76.12944488844897,0.0,77.088585,0.7695106588475816,0.14263301,-0.11084,-0.61255503,1.0,0.0,0.0,0.0,79.38006647894166
6.4877,54.6213,1.3052329979271144,-0.44128070426714827,5.601329845801514,-1.6729081558428347,-1.3038605470692957,1.92465182437536,31.52061808816562,53.57718000464122,40.091189658954775,-73.983597,-73.47893773535185,0.0,73.983597,0.7835872107914983,0.13779999,-0.121256,-0.593548,1.0,0.0,0.0,0.0,76.81959862532452
6.5075,54.6413,1.2349046851346381,-1.1309643090176764,6.025565516439359,-0.8498984353468091,-1.7082239524082532,1.95445314912449,26.77503754668262,56.86805388930944,38.72855038525884,-70.60128,-70.56830804063306,0.0,70.60128,0.7972190378952448,0.13694499,-0.13590699,-0.57202899,1.0,0.0,0.0,0.0,74.26929071761448
6.5288,54.6614,0.8868374984626239,-1.6661214595321172,6.171824111016706,0.003716569959025147,-1.9712273464424894,1.915629288729726,21.380547904340634,59.20696597256864,37.6944135899856,-67.268005,-67.82550553019823,0.0,67.268005,0.8080308888404946,0.139771,-0.15606301,-0.55063099,1.0,0.0,0.0,0.0,72.19202465447275
6.5476,54.6814,0.35154144497517414,-2.4655826078723417,5.8371084259132395,0.7793083705786126,-2.10288514047341,1.7792078994779268,15.402072592723712,59.56095063750688,38.67214065882017,-64.390686,-64.87873588468278,0.0,64.390686,0.8154114023838758,0.15820099,-0.17103501,-0.52992803,1.0,0.0,0.0,0.0,70.74387849321907
6.5672,54.7014,-0.2629519915385936,-3.4280786383484396,4.915897607305126,1.3477579295305522,-2.0976135121444015,1.5713491082132591,9.299180872765316,57.839710174431886,41.56104319571545,-62.31039,-61.74715166359537,0.0,62.31039,0.8184047972331541,0.191688,-0.178607,-0.51143801,1.0,0.0,0.0,0.0,70.14914963903031
6.5883,54.7215,-0.797337452130428,-4.050223119370453,3.57847925740856,1.6660103282109913,-1.985188594021156,1.3887373523727393,4.103782537053796,55.14076525286359,44.52430590802268,-61.057034,-58.9377722034271,0.0,61.057034,0.818222802613689,0.225439,-0.18105,-0.49689999,1.0,0.0,0.0,0.0,70.18543369274421
6.6073,54.7415,-1.2878209985371116,-4.055581368395737,2.146658894801787,1.7839878395756978,-1.8480692539457486,1.340968741156572,0.4309599296566091,52.8939854027832,46.24069470873177,-60.379883,-57.15472457941141,0.0,60.37988300000001,0.8164016165019885,0.247455,-0.18455,-0.48805299,1.0,0.0,0.0,0.0,70.54762556140165
6.6275,54.7615,-1.7119462322218642,-3.6668590422980376,0.775403209868287,1.81300048794531,-1.7274114787803545,1.4678830376639866,-2.4528095520332514,51.468883492846466,46.88858924582472,-59.553566,-55.847729927981305,0.0,59.55356599999999,0.8158702157292419,0.259076,-0.18982901,-0.48083299,1.0,0.0,0.0,0.0,70.65300412922703
6.6518,54.7815,-2.0093444641917224,-3.3186843875824303,-0.5780812956526109,1.8065428859253427,-1.60101977128739,1.7187611494810269,-5.933074522755703,49.863126379770364,47.61698390324331,-58.147148,-53.76569938705504,0.0,58.147148,0.8171657937813843,0.27286801,-0.193909,-0.46923599,1.0,0.0,0.0,0.0,70.39584599402006
6.6674,54.8016,-2.0905784680160946,-3.160674787001068,-1.9225596710930386,1.7361785139899204,-1.4169729417043646,2.0051000641781305,-10.709009841625907,47.33047002904388,48.78680859760556,-55.842472,-50.12351252357746,0.0,55.842472,0.8204530820347863,0.29473501,-0.195016,-0.44939601,1.0,0.0,0.0,0.0,69.7396504978593
6.6933,54.8216,-1.9349633240075639,-3.070884699075826,-3.1648947920045405,1.5526202577365646,-1.1638224168713314,2.2593179698680657,-16.017715243021602,43.97511842989658,49.953229892533976,-52.896908,-45.55055894835634,0.0,52.896907999999996,0.825107798090007,0.319406,-0.19305301,-0.424155,1.0,0.0,0.0,0.0,68.80115615362725
6.7075,54.8416,-1.659196868550223,-2.865622952955796,-4.160801480671233,1.2605914303851502,-0.8837674738967786,2.4721741273816353,-20.190006168283542,41.07170167056509,50.44534546386789,-50.075932,-41.90734913974476,0.0,50.075931999999995,0.8308202508995431,0.33381101,-0.190587,-0.402473,1.0,0.0,0.0,0.0,67.63381995493654
6.7262,54.8617,-1.3441527980335137,-2.6533051570669466,-4.90424037917224,0.942319877637048,-0.6579449624638875,2.6510770921538267,-23.04438806233382,38.58924473562324,50.802674331148125,-47.685349,-39.31169453392739,0.0,47.685349,0.8389418084274856,0.338541,-0.183184,-0.38472101,1.0,0.0,0.0,0.0,65.94290934691476
6.7564,54.8817,-1.005506615613684,-2.5389044552412683,-5.471577723141221,0.6384833901228338,-0.5289468620863915,2.8194958069678826,-25.736457980332673,36.209403332979385,51.07462978509841,-44.698074,-36.52103801065222,0.0,44.69807399999999,0.8507036396130205,0.338801,-0.17209101,-0.36318299,1.0,0.0,0.0,0.0,63.42343246275813
6.7737,54.9017,-0.5976466884335492,-2.5321086907353956,-5.956148324813109,0.3192741721458163,-0.4833999273356715,2.9737400183542055,-28.98634584619465,33.933442217983085,50.958949419275605,-40.759823,-33.09407598573266,0.0,40.75982299999998,0.8632825965868649,0.33874899,-0.16417401,-0.33621299,1.0,0.0,0.0,0.0,60.62564993109544
6.7899,54.9218,-0.013538567085424058,-2.5859653185519105,-6.399443868208119,-0.04173216581313732,-0.4658345529099297,3.087722401671404,-32.523404940456345,31.62903722752547,50.53747879764049,-36.382061,-29.330722060594585,0.0,36.38206099999999,0.8745657000660041,0.34023499,-0.15938801,-0.306546,1.0,0.0,0.0,0.0,58.012764047465474
6.8163,54.9417,0.7456220001992091,-2.616637733362684,-6.736471060422691,-0.4747542602539726,-0.40553280273399617,3.1466279064220246,-36.077732073968654,29.636800496319324,49.574418934233385,-31.57427,-25.39995181638662,0.0,31.574270000000013,0.8852067438756892,0.340296,-0.158059,-0.27500001,1.0,0.0,0.0,0.0,55.44605197286407
6.829,54.9617,1.5846209294362041,-2.624479939917389,-6.86397815692585,-0.9666089448205126,-0.3268562697535191,3.142424763683385,-39.49365561960896,27.788270859136627,48.23219070357803,-26.444307,-21.285794269902503,0.0,26.44430700000001,0.8955247850481078,0.33932999,-0.157368,-0.24109299,1.0,0.0,0.0,0.0,52.84816693074913
6.8491,54.9817,2.419276440277675,-2.6762211275955607,-6.714748320382534,-1.406310329430036,-0.2960916081448135,3.103712844141233,-41.841897858797246,26.352617760101392,47.293672724979785,-22.302092,-18.00646553922023,0.0,22.302091999999988,0.9056947589641114,0.33539701,-0.150572,-0.211078,1.0,0.0,0.0,0.0,50.16596288327456
6.8676,55.0017,3.214002937214786,-2.801377641193528,-6.197136807315508,-1.7190221626739646,-0.30613771185188055,3.040119413730087,-43.52758666024954,26.236242102412913,46.22428344770218,-18.948021,-15.565627604225574,0.0,18.94802100000001,0.916772160734934,0.32322901,-0.14336,-0.18574101,1.0,0.0,0.0,0.0,47.08267136272807
6.8907,55.0217,4.043501770837486,-2.9050478050367543,-5.247636128205567,-1.872759601789045,-0.3744147881189889,2.8852938015179808,-45.97584649503701,26.55943485678484,44.254523178471885,-14.788171,-12.476720006094169,0.0,14.788171000000006,0.9285060245181718,0.30622301,-0.141398,-0.155276,1.0,0.0,0.0,0.0,43.59376726818634
6.9293,55.0417,5.0135156938056396,-2.822142858075005,-3.9598582977956083,-1.823703723216428,-0.4986846730733545,2.5880304203801026,-49.19322529569692,26.17127243138924,41.83119796072935,-9.828315,-8.503933760826241,0.0,9.828315000000003,0.939669545778589,0.28906101,-0.14029799,-0.117394,1.0,0.0,0.0,0.0,40.007730410307886
6.9314,55.0617,5.970027204818024,-2.4938618579724077,-2.4225629541539018,-1.6354735508155605,-0.583528488373054,2.1203924734889252,-52.84910253934056,25.596942644604887,38.68791283804286,-4.960087,-4.4062387287175655,0.0,4.960086999999987,0.9476242320854822,0.27249199,-0.14593799,-0.080365,1.0,0.0,0.0,0.0,37.2517636338916
6.9505,55.0817,6.651935120608953,-2.0506660588219967,-0.7528031422036214,-1.3902100533891042,-0.5516490551861577,1.5215411037305258,-56.4389140008274,25.499646825861642,34.718660367819474,-1.098984,-1.0040662826389206,0.0,1.0989840000000015,0.9507149185930448,0.25886899,-0.162275,-0.052866,1.0,0.0,0.0,0.0,36.126458608221235
6.9666,55.1017,6.940751534728709,-1.5261707203195063,0.8786523738639005,-1.120593102798021,-0.3900685380229105,0.8803680769144813,-59.64936083037066,25.696082481006346,30.303961814868813,1.944363,1.8290464903107833,0.0,1.9443630000000098,0.9506058150169292,0.247896,-0.183982,-0.032354,1.0,0.0,0.0,0.0,36.16675840822277
6.987,55.1217,6.994512926538678,-0.9698430549701769,2.190908796678924,-0.8451968071996132,-0.15160737155186027,0.28256077953460096,-61.78751728915355,26.098029720489308,26.976851766779216,3.762592,3.617509429287561,0.0,3.762592000000012,0.9504299437023224,0.238867,-0.198136,-0.019173,1.0,0.0,0.0,0.0,36.231629123549645
7.0064,55.1417,6.820440454591736,-0.508831165928946,3.1535046210464426,-0.6021678433580454,0.07423791099029352,-0.24708708375909935,-62.784546898776824,27.302721116595315,24.830688560220214,4.082337,3.9859317188064693,0.0,4.082336999999995,0.9507512437599016,0.230902,-0.206113,-0.016546,1.0,0.0,0.0,0.0,36.11303146480526
7.0311,55.1617,6.346124290868058,-0.13756861987814428,3.9109782845381975,-0.38425805769357757,0.20079272342300403,-0.7107375810860971,-63.192450699494835,28.854118130663196,23.14861046515574,3.784913,3.743245445891418,0.0,3.784912999999989,0.9505147990888936,0.224904,-0.213469,-0.019256,1.0,0.0,0.0,0.0,36.200343961061755
7.053,55.1817,5.652512372058726,0.18673034936367916,4.567255738512461,-0.15615916481686118,0.19230504511261048,-1.1259049454166674,-63.22218547605389,30.442879266509753,21.733571280615784,3.255603,3.2585467341597503,0.0,3.255603000000008,0.9497579875620948,0.220185,-0.221111,-0.024254,1.0,0.0,0.0,0.0,36.47845556110788
7.0665,55.2017,4.900793363843166,0.4817261941342208,5.168066412255445,0.11901373949543616,0.05333194270837904,-1.5209542307334132,-62.80198462586308,32.23399836260007,20.658140467276652,2.303253,2.3334467323367223,0.0,2.303253000000012,0.9490909330782904,0.214835,-0.22807901,-0.032439,1.0,0.0,0.0,0.0,36.72189603744078
7.0864,55.2217,4.198260655053465,0.6433534167557262,5.733681212975268,0.4620136060924346,-0.1696338489104695,-1.9181461031137583,-61.92379937063761,34.2366390966236,20.09494295760812,0.806364,0.8252796558830238,0.0,0.8063640000000021,0.9478651013034504,0.211055,-0.234395,-0.045459,1.0,0.0,0.0,0.0,37.16524634715843
7.1122,55.2417,3.547558707324234,0.5141294045877132,6.257013658694895,0.8796885389217789,-0.3962100634311765,-2.3299380756309747,-60.67860101255702,36.34425139012211,20.053048718850356,-1.177782,-1.213627612590602,0.0,1.1777820000000077,0.9446023628011628,0.21247301,-0.241786,-0.064196,1.0,0.0,0.0,0.0,38.32117642652392
7.1308,55.2617,2.89031041195552,0.15759309480908446,6.655049330715496,1.376420371487295,-0.5739971206004757,-2.7479010919762787,-59.14291861188914,38.71445395071397,19.984123975193086,-3.548223,-3.690033073171144,0.0,3.5482230000000072,0.93918391753245,0.21577001,-0.252453,-0.087432,1.0,0.0,0.0,0.0,40.170090854145656
7.1496,55.2817,2.2179842768129188,-0.41934322469634644,6.767690290698262,1.938120262697492,-0.6611165297663876,-3.152348156096422,-57.320041209588645,41.27172270986598,19.91469749995953,-6.239295,-6.563583455418245,0.0,6.2392949999999985,0.9316120864560956,0.220469,-0.26540399,-0.11425,1.0,0.0,0.0,0.0,42.624958960244676
7.1742,55.3017,1.551673492307153,-1.3459315423045677,6.407521081557142,2.514426465919411,-0.6062980812030032,-3.532238676151936,-54.952295823288146,43.91350020906921,20.629826169387968,-9.571437,-10.129725240228689,0.0,9.571437000000003,0.9207623197153758,0.23084,-0.27778199,-0.147468,1.0,0.0,0.0,0.0,45.92443295155796
7.1874,55.3217,0.8708959309825217,-2.469035653414875,5.438322576590943,3.0449196657000313,-0.3849666333716444,-3.8603901445201343,-51.98919181745503,46.34031871266437,22.4235499023942,-13.519549,-14.261566439789044,0.0,13.519549000000012,0.9065712580058776,0.24677099,-0.28770301,-0.185633,1.0,0.0,0.0,0.0,49.92851288504784
7.2069,55.3416,0.1167879220538639,-3.5305184688362035,3.841905449989641,3.4824076458132955,0.0067064817517001885,-4.081764568959696,-48.31184109883582,48.27437277118432,25.31141819435332,-18.104771,-18.852013277938603,0.0,18.104771,0.8888407399721504,0.266711,-0.29521301,-0.22732501,1.0,0.0,0.0,0.0,54.54413129799418
7.2269,55.3616,-0.7419371305299569,-4.278131489000112,1.7366383379043704,3.7933604057980883,0.5388782881091573,-4.1267431353764525,-43.67098789038207,49.355843909852155,29.446192486861346,-23.650311,-24.03524731455069,0.0,23.650310999999988,0.8673855243974734,0.28911901,-0.29958299,-0.272585,1.0,0.0,0.0,0.0,59.687545106452724
7.2517,55.3816,-1.687299005478498,-4.472208280259266,-0.594956670329811,3.952958831529632,1.1100804272292935,-3.9495139413948217,-37.81991330263448,49.168850512218285,34.89405696595067,-30.741356,-30.116212319263315,0.0,30.741355999999996,0.843232550663884,0.31077,-0.29830599,-0.32155001,1.0,0.0,0.0,0.0,65.03388020144811
7.2671,55.4016,-2.6517940148481705,-3.8911560208917035,-2.6790180040856164,3.9460304819206926,1.5086206390680976,-3.6059849759294025,-30.58077718272606,48.02184317736844,40.65172279908549,-39.303429,-37.36679728585473,0.0,39.303428999999994,0.821197774689508,0.32106,-0.290611,-0.371618,1.0,0.0,0.0,0.0,69.59024809674666
7.2876,55.4216,-3.477344730836246,-2.838702923461445,-4.216237729668977,3.7586540709850973,1.7254263258421931,-3.1920232691611075,-22.5911281182754,45.17221142004528,46.709646552738285,-48.493511,-44.56672114319448,0.0,48.49351100000001,0.804284986585526,0.324637,-0.27020201,-0.41800401,1.0,0.0,0.0,0.0,72.91748212966847
7.3084,55.4416,-4.145479279541766,-1.5893835124352946,-5.145074428104394,3.496261590358655,1.7300552934010962,-2.7478574646699196,-14.891036720259969,41.15486126922231,51.91523068648985,-56.689075,-50.71761396850955,0.0,56.689075,0.7900557176951761,0.32540801,-0.246278,-0.457459,1.0,0.0,0.0,0.0,75.61856259322028
7.3265,55.4616,-4.54380825401186,-0.37117630226643633,-5.62921837498388,3.2369878069930813,1.572284157252459,-2.355961168795626,-8.273330378422049,36.72433579872995,55.85481602811045,-63.347237,-55.7710044324047,0.0,63.34723700000001,0.7760679301651756,0.325793,-0.22689299,-0.489997,1.0,0.0,0.0,0.0,78.196089247144
7.3488,55.4816,-4.572577570360733,0.6164396516360344,-5.841347784029656,2.96648936145737,1.4115335472801842,-2.1344335297134207,-2.720401143246935,32.03180776708935,58.9657439066908,-68.632431,-59.59518427925801,0.0,68.632431,0.7646560306665474,0.326774,-0.20728301,-0.51531899,1.0,0.0,0.0,0.0,80.24719863568168
7.3662,55.5016,-4.3287969947654705,1.3794433526511547,-5.936043289170859,2.68441161649724,1.3464239327673884,-2.1104456452048934,2.2307572071199004,27.25447585770563,61.50479221515249,-73.127411,-62.69772741644485,0.0,73.127411,0.7548230738711554,0.32831499,-0.185918,-0.53654999,1.0,0.0,0.0,0.0,81.98017448441139
7.3867,55.5216,-3.9630712863407282,2.0964913937953957,-5.994136961631188,2.3874560507038507,1.3850109602744618,-2.212691046277527,7.277690497209036,22.405789539729355,63.56948859636313,-78.047401,-66.42542444184329,0.0,78.047401,0.741252204926798,0.329265,-0.16472,-0.56124598,1.0,0.0,0.0,0.0,84.32361252946951
7.4345,55.5416,-3.5924526425845573,2.889386502825779,-5.993722703258475,2.039703057819796,1.5209167010126425,-2.3210717040884163,12.754394005553259,17.48429079663636,65.05865295618798,-83.422348,-71.00636899786842,0.0,83.422348,0.7235864522216815,0.327748,-0.142501,-0.59050602,1.0,0.0,0.0,0.0,87.29723200343557
7.4371,55.5616,-3.2852808128730984,3.8121649731931075,-5.910721152923157,1.625450223595138,1.7151079039627914,-2.310821124889479,18.357235406351826,12.83760336172965,65.85271852343644,-88.466721,-75.88447747379556,0.0,88.466721,0.7043112569710067,0.32260799,-0.120846,-0.62069798,1.0,0.0,0.0,0.0,90.4521432562542
7.4504,55.5816,-2.9917964450566403,4.835346537478344,-5.707454499597323,1.1418261783975263,1.9359556008041394,-2.113419373515527,24.052390670850425,8.43998220545288,65.96473397608996,-93.054749,-80.86922350059949,0.0,93.054749,0.6841179793438109,0.31389001,-0.099437,-0.65082097,1.0,0.0,0.0,0.0,93.66743870862051
7.4675,55.6016,-2.691881171017579,5.799026097716582,-5.334355522865818,0.5840489257119419,2.2032812058807196,-1.7138594785344559,29.55199279988591,4.07147526829306,65.49488562281431,-96.942291,-85.23641914566966,0.0,96.942291,0.6650156762227489,0.305545,-0.075707,-0.677248,1.0,0.0,0.0,0.0,96.63294391698315
