AppTimestamp(s),SensorTimestamp(s),acc_x,acc_y,acc_z,gyro_x,gyro_y,gyro_z,mag_x,mag_y,mag_z
56.0195,104.1527,0.25377654452797366,0.43380996103336794,-0.1428400278568347,0.11423,-0.10568,-0.00367,12.3,-25.8,-14.4
56.0392,104.1727,0.2318961296421019,0.4562544746767957,-0.16763874272767687,0.07025,-0.06903,-0.0226,12.3,-25.9,-14.3
56.0619,104.1927,0.21071980923836206,0.47047659892550664,-0.18467063658532368,0.05864,-0.07025,-0.00183,12.3,-25.9,-14.1
56.0789,104.2127,0.19037916277417316,0.46838342877876415,-0.18761655361613094,0.07208,-0.09896,0.00489,12.4,-25.8,-13.9
56.0977,104.2327,0.1651378277117144,0.43992019875519534,-0.17290445380218777,0.08369,-0.12401,-0.02443,12.4,-25.9,-13.9
56.1187,104.2527,0.13269902579480353,0.38938890193229736,-0.14164520330773378,0.08613,-0.16616,-0.06475,12.4,-25.9,-13.9
56.144,104.2727,0.0923709595494428,0.3272501235699611,-0.09933102103594393,0.05376,-0.17226,-0.05376,12.3,-25.8,-14.0
56.1642,104.2927,0.050622496620475126,0.2652619966230194,-0.05486713424087952,0.00977,-0.12217,-0.03848,12.4,-25.8,-14.1
56.1794,104.3127,0.007510044840268014,0.20787110857950444,-0.01834717541130182,0.02871,-0.06353,-0.03054,12.4,-25.8,-14.0
56.1983,104.3327,-0.03792975667424472,0.1574087429997457,0.0013942256453898239,0.1124,-0.07941,-0.04032,12.4,-25.8,-13.9
56.2214,104.3527,-0.08613527051716661,0.11994172339948363,-0.0003907710025927713,0.16188,-0.11851,-0.02688,12.4,-25.7,-14.0
56.2391,104.3727,-0.12542848984916796,0.12022331459272816,-0.02272681119611697,0.15944,-0.13317,0.01344,12.3,-25.7,-14.0
56.2679,104.3927,-0.16046825796147493,0.1404912296943084,-0.059210079212672184,0.09224,-0.12828,0.03665,12.3,-25.7,-14.0
56.2821,104.4127,-0.16402330418205335,0.19246840398073584,-0.10083741963618742,0.04704,-0.07575,0.03787,12.4,-25.8,-14.1
56.2972,104.4327,-0.15585784922531892,0.24410356172538833,-0.1388744720426196,0.07941,-0.02566,0.01283,12.3,-25.8,-14.2
56.3184,104.4527,-0.15139270837462998,0.2758643713277491,-0.16653277819712642,0.11423,-0.02932,0.01161,12.3,-25.8,-14.1
56.3377,104.4726,-0.1593384904688294,0.2881925135245271,-0.18016281517555655,0.10812,-0.12095,0.01833,12.3,-25.8,-14.3
56.3611,104.4926,-0.18566056680356124,0.27652092105005016,-0.17867083247178073,0.07391,-0.17471,-0.00305,12.4,-25.8,-14.4
56.3789,104.5126,-0.21755863665576022,0.24975958229985473,-0.16321834798548984,0.04398,-0.12645,-0.0336,12.4,-25.8,-14.6
56.3981,104.5326,-0.2552342477972143,0.20568897595936864,-0.13669857166596167,0.01955,-0.04215,-0.05498,12.5,-25.8,-14.5
56.4189,104.5526,-0.2998192249697791,0.1487503189013463,-0.10405699016064673,0.02199,-0.02993,-0.0452,12.5,-25.8,-14.5
56.4394,104.5726,-0.3537445815239614,0.08713019499409858,-0.07194238852801149,0.04154,-0.05253,0.00977,12.6,-25.8,-14.3
56.467,104.5926,-0.4165684132988393,0.027605470952714786,-0.047535569607086714,0.07697,-0.0898,0.06536,12.7,-25.8,-14.4
56.4779,104.6126,-0.4489938688840979,-0.00041620253529744814,-0.03511842542377508,0.07758,-0.09957,0.07758,12.7,-25.8,-14.4
56.4984,104.6326,-0.463496903807221,-0.007606736766605673,-0.03810699634991721,0.0843,-0.0336,0.01588,12.8,-25.7,-14.6
56.5176,104.6526,-0.4541266958881034,0.017078258440046335,-0.05574778292504412,0.07147,0.03421,-0.02443,12.8,-25.7,-14.6
56.5375,104.6726,-0.43543965516649263,0.06687528031274233,-0.08509471278817493,0.04643,0.02321,0.01772,12.9,-25.7,-14.5
56.5732,104.6926,-0.4316621761330446,0.1221129254849342,-0.12154210746625793,0.0507,-0.04581,0.09346,12.8,-25.7,-14.6
56.5772,104.7126,-0.3976432159101166,0.1975442303269391,-0.15760480888381956,0.07147,-0.05559,0.12584,12.9,-25.7,-14.6
56.5974,104.7326,-0.3785178715199226,0.25522790068309403,-0.19008769148618399,0.05864,-0.05803,0.08735,12.9,-25.6,-14.4
56.6179,104.7526,-0.35250467188968876,0.29634549795377413,-0.21492746022243558,-0.0226,-0.02505,0.03787,12.9,-25.6,-14.5
56.6375,104.7726,-0.3278892869485191,0.3124654510183972,-0.23028802038352048,-0.0788,0.01222,0.011,12.9,-25.5,-14.4
56.6588,104.7926,-0.3169035911484039,0.2984528239983286,-0.2350258299860588,-0.11423,-0.03787,0.0,12.9,-25.5,-14.5
56.6921,104.8126,-0.33142127737989774,0.2672347963542048,-0.22884664215723483,-0.15699,-0.05681,0.05253,12.9,-25.5,-14.6
56.7008,104.8326,-0.33746201401341436,0.16473642030049493,-0.20902120096122978,-0.19242,-0.08613,0.10201,12.9,-25.5,-14.6
56.7175,104.8526,-0.3518603131061278,0.054095203604376606,-0.17911381114665126,-0.15638,-0.03787,0.04459,12.8,-25.4,-14.7
56.7458,104.8726,-0.36806382952675093,-0.039790632098078066,-0.14145685901594085,-0.14172,-0.00489,-0.01405,12.7,-25.3,-14.9
56.7631,104.8926,-0.38446108029627474,-0.14333299742743125,-0.10028533856234034,-0.21869,-0.0281,-0.02993,12.6,-25.3,-14.9
56.7906,104.9126,-0.40273737234056034,-0.2130386751641053,-0.060828789401353944,-0.23213,-0.01161,-0.01161,12.6,-25.3,-15.0
56.8007,104.9326,-0.43783619589426837,-0.2954691171730362,-0.03047916991683408,-0.1124,0.03176,-0.03848,12.6,-25.3,-15.0
56.8186,104.9527,-0.47822919783843476,-0.3529204436744261,-0.012581042513025054,-0.03115,0.11668,-0.01405,12.6,-25.3,-15.2
56.8379,104.9727,-0.5295207673380923,-0.39233569997040313,-0.009677193568338183,-0.01649,0.05803,0.01527,12.6,-25.3,-15.4
56.8671,104.9927,-0.5914933194314008,-0.41506604914587303,-0.02118396399275113,-0.00489,-0.05315,0.03543,12.7,-25.3,-15.5
56.8795,105.0128,-0.6395652163694331,-0.418797464815272,-0.042306758739330874,0.03543,-0.0788,0.05925,12.7,-25.2,-15.6
56.8998,105.0328,-0.6741149647418835,-0.4163512905057935,-0.06841008539040239,0.08002,0.0391,0.05009,12.8,-25.2,-15.7
56.9192,105.0528,-0.6873092172394427,-0.4086729806253308,-0.09290459163520559,0.07514,0.1069,0.07025,12.8,-25.1,-15.8
56.9386,105.0728,-0.6845023204842159,-0.3998539971994665,-0.11035091241931028,0.06475,0.04765,0.11729,12.9,-25.0,-15.9
56.9622,105.0929,-0.6738493290555919,-0.3969393159341728,-0.1169105253514573,0.07758,0.05131,0.13683,12.9,-25.0,-15.9
56.9798,105.1129,-0.6494270972856059,-0.39387503055080875,-0.1096795023991124,0.08613,0.04032,0.14539,12.9,-25.0,-15.9
57.0014,105.1329,-0.6192962559312942,-0.39824250844071785,-0.09066968230842853,0.08552,0.0226,0.15394,13.0,-25.0,-15.9
57.0322,105.153,-0.5906775726895521,-0.4094929747982945,-0.06503705776485269,0.0452,0.02932,0.14478,13.0,-25.0,-15.9
57.0391,105.173,-0.5410161023670231,-0.4058204725924604,-0.03803095147858215,0.03115,0.04704,0.13989,13.0,-25.0,-15.9
57.0722,105.193,-0.5227881308699274,-0.4099888535743672,-0.02186086074820537,0.07391,0.0562,0.16616,13.1,-25.0,-15.9
57.0786,105.213,-0.49561058283147924,-0.389315850605061,-0.019327147974877334,0.07941,0.03482,0.14966,13.1,-25.0,-15.9
57.0995,105.2331,-0.4953748043305326,-0.36849930639190087,-0.035458091363915756,0.04643,0.06781,0.10751,13.1,-25.0,-15.9
57.1167,105.2531,-0.5126122027562046,-0.34088506210882547,-0.06605029846301314,0.06475,0.13439,0.08919,13.0,-25.0,-15.8
57.1384,105.2731,-0.5504509836798452,-0.3193228981832764,-0.10339162087366738,0.06536,0.17043,0.12156,13.0,-25.0,-15.7
57.1749,105.2931,-0.6107696563660477,-0.3127551240954293,-0.13730694552987543,0.06414,0.18876,0.12217,13.0,-25.0,-15.6
57.1816,105.3132,-0.6864452525079437,-0.31418158674700286,-0.15819542895817484,0.01405,0.01588,0.09041,12.9,-25.0,-15.6
57.2081,105.3332,-0.791122099921179,-0.3401314037134353,-0.16387032720167838,-0.02138,-0.14783,0.09896,12.9,-25.1,-15.6
57.2563,105.3532,-0.9480885218257418,-0.40231937578682536,-0.16051436625346405,0.02382,-0.22297,0.19242,12.9,-25.1,-15.7
57.2578,105.3733,-0.9379800175831158,-0.4510731090544191,-0.1327480068290754,0.12523,-0.13134,0.31887,12.8,-25.1,-15.7
57.2823,105.3933,-0.9514351770036333,-0.5172371381354317,-0.10923976169451244,0.1014,-0.07697,0.33292,12.8,-25.1,-15.8
57.2896,105.4133,-0.8725353380571785,-0.5602478159098783,-0.085690967417694,0.02016,-0.08858,0.27245,12.8,-25.2,-15.8
57.2984,105.4333,-0.7759776391147526,-0.5942449789266575,-0.07644572258802995,-0.01894,-0.09041,0.22235,12.7,-25.2,-16.0
57.3262,105.4534,-0.7122785788035411,-0.6263740925265012,-0.08823924586105392,0.0391,-0.0452,0.1967,12.6,-25.2,-16.0
57.3396,105.4734,-0.6465173299228069,-0.65159483112699,-0.11635887306491632,0.05131,0.00489,0.13256,12.5,-25.3,-16.0
57.363,105.4934,-0.6218615917294404,-0.6703045678703282,-0.15858194330039765,-0.03421,-0.00122,0.04093,12.5,-25.3,-16.0
57.4174,105.5134,-0.6390517468201512,-0.6719098617995947,-0.20575161601462177,-0.07697,-0.02321,-0.01222,12.5,-25.3,-16.0
57.4193,105.5334,-0.695261541133273,-0.6945479063617748,-0.2503552838737324,-0.03115,0.00305,-0.00489,12.4,-25.4,-16.0
57.426,105.5534,-0.7779845900848574,-0.7158489478744788,-0.2800964118372402,0.05559,0.00489,0.03115,12.4,-25.3,-16.0
57.4379,105.5734,-0.869679409867741,-0.7370581815976315,-0.285820064320383,0.07758,-0.00489,0.03115,12.4,-25.3,-16.1
57.4602,105.5934,-0.9557222021823776,-0.755327413436312,-0.26212818935752047,0.0281,-0.05192,0.011,12.3,-25.4,-16.2
57.4902,105.6134,-1.021180592762811,-0.7633075649563615,-0.2085998853283435,-0.04948,-0.04704,0.06414,12.3,-25.4,-16.3
57.5432,105.6334,-1.0695923743360063,-0.7642381712534108,-0.13341207773516395,-0.01344,-0.03665,0.09835,12.3,-25.4,-16.3
57.5459,105.6534,-1.0394016491736782,-0.7677553099153371,-0.04270366141558668,0.05315,0.02138,0.12706,12.2,-25.4,-16.3
57.5516,105.6734,-0.9799766833065413,-0.7659426715877726,0.0445383501436698,0.06231,-0.00244,0.15577,12.2,-25.5,-16.3
57.5612,105.6934,-0.906327606129592,-0.7595705873676195,0.11410991366195411,0.06903,-0.05681,0.15333,12.3,-25.5,-16.2
57.5793,105.7133,-0.8389496481227438,-0.7558395263835329,0.1554613052547218,0.13439,-0.0733,0.17226,12.2,-25.5,-16.0
57.6033,105.7333,-0.7798250143851357,-0.7524679317185389,0.1661756584398919,0.16188,-0.02932,0.15149,12.2,-25.5,-16.0
57.6234,105.7533,-0.7258209471209252,-0.7403863290277314,0.14976219803057234,0.1014,0.01833,0.06231,12.1,-25.5,-16.1
57.6393,105.7733,-0.6899736751446949,-0.7290345118658259,0.11068610619386732,0.08247,-0.02566,0.02199,12.1,-25.5,-16.0
57.6602,105.7933,-0.6812205494535183,-0.736549750436283,0.05477637619002529,0.1124,-0.05742,0.02321,12.0,-25.5,-16.1
57.6846,105.8133,-0.6973264909861504,-0.7633177845211626,-0.01037144138946644,0.15516,-0.04704,0.02321,12.0,-25.6,-16.1
57.6986,105.8333,-0.7283518815637516,-0.7825088708824504,-0.07581193519661156,0.15882,-0.02443,0.0055,11.9,-25.6,-16.1
57.7181,105.8533,-0.7729951741906687,-0.8077480427773444,-0.1378243788819571,0.10934,-0.02688,-0.0171,11.8,-25.7,-16.1
57.7392,105.8733,-0.8238544366227841,-0.8304819114092238,-0.19176227177500316,0.08063,-0.02871,-0.00183,11.8,-25.7,-16.1
57.7631,105.8933,-0.8743105982886988,-0.8536767692083742,-0.2347383312120357,0.11545,-0.03176,-0.01527,11.7,-25.7,-16.1
57.7776,105.9133,-0.9279436983032272,-0.8650892087001457,-0.2639722969135274,0.13928,0.0391,-0.05437,11.7,-25.7,-16.0
57.798,105.9333,-0.9805787583455314,-0.880382692265434,-0.2793210407671207,0.08613,0.03115,-0.06353,11.5,-25.8,-16.0
57.8188,105.9533,-1.0379301034328527,-0.8956707764772759,-0.28146753215546205,0.03971,-0.01344,-0.02199,11.5,-25.8,-15.8
57.8385,105.9733,-1.09377758186856,-0.9167632547330938,-0.2729492191689644,0.05009,-0.10446,0.03115,11.5,-25.8,-15.8
57.8597,105.9933,-1.1376011143459002,-0.950743249334354,-0.2577271940487762,0.08247,-0.15027,0.04826,11.3,-25.8,-16.0
57.8785,106.0133,-1.1580997707132397,-0.991175547181719,-0.2387554630160693,0.13744,-0.08369,0.02749,11.3,-25.8,-15.9
57.8977,106.0333,-1.1604170685045014,-1.0303588797178744,-0.21959651474558228,0.18509,-0.05681,0.06231,11.3,-25.8,-15.9
57.9178,106.0533,-1.1530610880715002,-1.0586961919601903,-0.20191278538553448,0.13439,-0.15455,0.11423,11.3,-25.8,-15.8
57.9382,106.0733,-1.1397216181043777,-1.0726391235913944,-0.18574392806881335,0.08063,-0.18876,0.14294,11.3,-25.8,-15.8
57.9637,106.0933,-1.1291842578519693,-1.082028651281491,-0.172866561097214,0.09774,-0.12767,0.09102,11.3,-25.8,-15.8
57.9804,106.1132,-1.1079163052021486,-1.0809638730962985,-0.16139688946885222,0.11912,-0.06597,0.02382,11.3,-25.8,-15.7
58.0079,106.1332,-1.105340552790046,-1.0920751313768815,-0.158527612214721,0.10079,-0.09774,0.00977,11.4,-25.8,-15.8
58.0194,106.1532,-1.1092173673455956,-1.0904673741194957,-0.1616208083745736,0.08491,-0.135,0.0055,11.4,-25.8,-15.8
58.0385,106.1732,-1.1310087536197184,-1.099502159009735,-0.1757982080195628,0.08735,-0.07147,-0.00428,11.4,-25.8,-15.8
58.0627,106.1932,-1.162687823079004,-1.1161408826107142,-0.19993043257744247,0.11057,0.011,0.00428,11.4,-25.8,-15.7
58.1009,106.2132,-1.200739497415614,-1.146973667437801,-0.2331649377779179,0.10263,0.01588,0.00305,11.5,-25.8,-15.8
58.1278,106.2332,-1.242803310554688,-1.1672082807433886,-0.26975653991250503,0.07391,-0.05131,-0.01161,11.5,-25.8,-15.8
58.1296,106.2532,-1.2831110601897393,-1.1621516870853517,-0.30366886070552823,0.10201,-0.09529,-0.03604,11.6,-25.8,-15.8
58.1396,106.2732,-1.3212980911309709,-1.1617150155977767,-0.33482797692705546,0.12095,-0.0617,-0.0391,11.7,-25.8,-15.8
58.16,106.2932,-1.355351704876857,-1.1678637616271248,-0.3599469494979388,0.09468,-0.00672,-0.0055,11.7,-25.9,-15.7
58.1812,106.3132,-1.3838917646232554,-1.1708644992964008,-0.37525734226656127,0.08858,-0.01283,0.05681,11.7,-25.8,-15.8
58.1977,106.3332,-1.403336097336107,-1.1675502889414808,-0.3786350725027603,0.09896,0.00428,0.09346,11.8,-25.9,-15.8
58.2179,106.3532,-1.4165704421658438,-1.168038248503302,-0.3717976618393468,0.06964,-0.03604,0.06475,11.8,-25.9,-15.8
58.2396,106.3732,-1.4215262885983886,-1.1741538910846514,-0.35576893085536554,0.05742,-0.08002,0.01772,11.8,-25.9,-16.0
58.2592,106.3932,-1.4185625145050014,-1.1860821984309908,-0.33250275665853657,0.0733,-0.0507,0.01833,11.7,-25.9,-16.0
58.2819,106.4132,-1.4147271262060133,-1.2070543332099304,-0.3058454430384998,0.07819,0.0,0.06353,11.7,-25.9,-16.0
58.2989,106.4332,-1.408175086026482,-1.2288968305162231,-0.27723913850854665,0.06781,0.00611,0.09224,11.7,-25.9,-15.8
58.3185,106.4532,-1.404326032316538,-1.2545727696556637,-0.25095335727619705,0.06414,-0.01222,0.09896,11.8,-25.9,-15.7
58.3384,106.4732,-1.4023976159090188,-1.2797524345419944,-0.2296652888405557,0.07514,-0.02749,0.05253,11.7,-25.9,-15.7
58.3641,106.4932,-1.4073381967060534,-1.30523748577937,-0.21749502193144998,0.09102,-0.04765,0.011,11.7,-25.9,-15.8
58.3774,106.5131,-1.4080709979117698,-1.314109908977873,-0.2129831082614455,0.06903,-0.04826,0.07269,11.7,-26.0,-15.8
58.3976,106.5331,-1.4154311551704664,-1.319478308649854,-0.21997479853939694,0.0672,-0.00489,0.10996,11.7,-26.0,-15.6
58.4196,106.5531,-1.423527307863451,-1.3205815728608383,-0.23461874960420026,0.07086,0.00916,0.07086,11.6,-26.0,-15.5
58.4434,106.5731,-1.431846324275712,-1.3240872553681462,-0.2505385478287039,0.0788,-0.01894,0.03054,11.5,-26.0,-15.6
58.4593,106.5931,-1.4356189513653868,-1.3291238487969226,-0.2557727258776996,0.10018,-0.05253,0.04459,11.5,-26.0,-15.6
58.4785,106.6131,-1.4400777862279905,-1.3527826158868423,-0.2409958042649425,0.09224,-0.06109,0.0672,11.5,-26.0,-15.5
58.5,106.6331,-1.443206501203422,-1.4005759470982735,-0.1973693762975497,0.07758,-0.05986,0.07514,11.5,-26.0,-15.5
58.52,106.6531,-1.4422856362204868,-1.474641627354518,-0.12384658958655237,0.07575,-0.02199,0.06353,11.5,-26.0,-15.4
58.5388,106.6731,-1.4397060383986875,-1.5766308566832667,-0.032357346503546935,0.08858,-0.02505,0.07086,11.5,-26.0,-15.3
58.5627,106.6931,-1.4422824329658512,-1.706202628417083,0.0519739815128073,0.1069,-0.09285,0.0788,11.6,-26.0,-15.3
58.578,106.7131,-1.440150184588762,-1.8254242345894982,0.10460843369060946,0.14661,-0.11423,0.01344,11.6,-26.0,-15.3
58.5986,106.7331,-1.4427759880531326,-1.9255069752460192,0.09396111823414977,0.22358,-0.01283,-0.05498,11.6,-26.1,-15.4
58.625,106.7531,-1.449732603536475,-1.9809597703849335,0.004079697647810576,0.23213,0.01161,-0.03848,11.7,-26.1,-15.4
58.64,106.7731,-1.4672359540561506,-1.9451162502565096,-0.15754622620810643,0.17287,-0.00367,-0.011,11.7,-26.1,-15.2
58.662,106.7931,-1.4868113872379005,-1.8667143678297218,-0.37791890495303093,0.25595,0.03604,0.00122,11.7,-26.1,-15.2
58.6783,106.8131,-1.516028360556289,-1.7306081391102168,-0.6158071294654945,0.36835,0.12339,0.02749,11.8,-26.1,-15.0
58.6989,106.8331,-1.5591388142752551,-1.5867867976614336,-0.8357197233849618,0.32132,-0.02138,0.0617,11.8,-26.1,-15.0
58.7222,106.8531,-1.6289343744906142,-1.449426343234052,-1.0039984257643226,0.25779,-0.12339,0.07941,11.9,-26.2,-15.0
58.7379,106.8731,-1.696795978563535,-1.3289145715947466,-1.0970292038025278,0.14172,-0.33475,0.14172,11.9,-26.1,-14.7
58.7595,106.8931,-1.7768908234962553,-1.272241359525362,-1.1253965635497298,0.12278,-0.41539,0.17837,11.9,-26.1,-14.6
58.7792,106.9131,-1.8305408041700488,-1.2750640554627055,-1.0979568329720806,0.25107,-0.22358,0.11912,11.9,-26.2,-14.4
58.804,106.933,-1.8671233300890162,-1.3310586945601355,-1.0418064516108174,0.31398,-0.02138,0.07819,11.9,-26.2,-14.2
58.8206,106.953,-1.8832938060282545,-1.37635603739557,-0.9721169689315321,0.19242,-0.04154,0.1179,11.9,-26.3,-14.2
58.8419,106.973,-1.9054769623008827,-1.4094828565130209,-0.9120855585892347,0.01527,-0.17349,0.15577,11.9,-26.3,-14.1
58.8592,106.993,-1.916487556087961,-1.4242768326051098,-0.8652434727211187,-0.05498,-0.22663,0.14172,11.8,-26.3,-13.8
58.8789,107.013,-1.9155617537924432,-1.431005858890345,-0.8322785590595156,0.00916,-0.14172,0.15699,11.8,-26.3,-13.8
58.9045,107.033,-1.895673743302435,-1.4355127886433319,-0.8049299691591827,0.05192,-0.00611,0.17349,11.8,-26.3,-13.8
58.9231,107.053,-1.8428833917912972,-1.4275439300684887,-0.7667833873818317,0.04154,0.0391,0.16066,11.7,-26.4,-13.9
58.9383,107.073,-1.7779465390759805,-1.4093095948141026,-0.7098380978990537,-0.07086,0.05925,0.13806,11.6,-26.5,-13.8
58.9611,107.093,-1.7259478458490662,-1.3844328130387122,-0.6294429024561357,-0.17898,-0.02688,0.12889,11.6,-26.5,-13.7
58.9799,107.113,-1.6801880076226046,-1.3864349364859976,-0.5248461159051558,-0.14416,-0.10446,0.19364,11.5,-26.6,-13.8
58.9995,107.133,-1.6451916868047942,-1.4240650813755773,-0.40103069881395115,-0.11606,-0.10385,0.20281,11.4,-26.6,-13.9
59.0183,107.153,-1.6130724309454696,-1.4992738053711416,-0.26682854036174675,-0.15944,-0.12706,0.10446,11.2,-26.6,-14.0
59.0466,107.173,-1.5963235359353365,-1.5838390593634681,-0.13464944398528367,-0.16371,-0.09407,0.06475,11.1,-26.8,-14.2
59.0589,107.193,-1.5775207253833008,-1.7053037341692923,-0.022715792505797694,-0.17471,0.00489,0.08002,11.1,-26.8,-14.4
59.0974,107.213,-1.5979071905222402,-1.780633965110946,0.06125697768144356,-0.1741,0.03115,0.09591,11.0,-26.8,-14.6
59.1011,107.233,-1.6141326535551848,-1.8968531551413197,0.09778369499284167,-0.12828,-0.06048,0.0672,11.0,-26.7,-14.7
59.1213,107.253,-1.659495544003308,-1.9763807636019401,0.09182442559806958,-0.01527,-0.10446,0.02932,10.9,-26.7,-14.8
59.1397,107.273,-1.7117044288756318,-2.027158408281789,0.05178159021462925,0.01588,-0.02321,-0.00244,10.8,-26.7,-14.9
59.1661,107.293,-1.7682707575174812,-2.0476719625401887,-0.005796024283656109,0.01588,0.01894,-0.00061,10.8,-26.7,-15.0
59.1798,107.313,-1.8289521255991428,-2.041898406111159,-0.059447127799382216,0.01466,-0.00183,0.01283,10.8,-26.7,-15.1
59.2039,107.333,-1.8925732034445608,-2.0316296666286333,-0.09074234161048089,-0.00183,-0.01833,0.00855,10.7,-26.7,-15.1
59.2259,107.3529,-1.9524992206240075,-2.0353551372831,-0.08558239942060553,0.02016,-0.02993,0.01833,10.7,-26.6,-15.0
59.2388,107.3729,-1.997608789868687,-2.0649215921762134,-0.03899911140992707,0.01955,-0.02321,0.0171,10.7,-26.6,-15.2
59.2629,107.3929,-2.0278793746565573,-2.1261461975185125,0.038907651280949196,0.011,-0.02443,0.01038,10.6,-26.6,-15.4
59.2785,107.4129,-2.039811641030072,-2.204349544755456,0.13023943562655305,0.04826,0.01466,-0.00183,10.6,-26.5,-15.4
59.2999,107.4329,-2.036869013086407,-2.287280711573669,0.2074230717258967,0.05437,-0.00061,-0.01894,10.7,-26.5,-15.3
59.3248,107.453,-2.0212426149139495,-2.356396528292991,0.24455252390776572,0.05986,-0.00733,-0.04093,10.8,-26.5,-15.4
59.3395,107.473,-1.9988440754701928,-2.3838336049693916,0.22577668481680035,0.11668,0.00489,-0.05253,10.9,-26.3,-15.4
59.3605,107.493,-1.9624669776520696,-2.3786478482553877,0.1443536924013351,0.17532,0.0617,-0.05498,10.9,-26.3,-15.4
59.3844,107.513,-1.9188524335141188,-2.3362807772968823,0.011516227373460808,0.19975,0.11057,-0.06292,11.0,-26.2,-15.3
59.399,107.5331,-1.8918058358486904,-2.2333865749331276,-0.14599478672388244,0.2303,0.11606,-0.06842,11.0,-26.3,-15.2
59.4288,107.5531,-1.8626261047969468,-2.1249612892042564,-0.3051091774189114,0.14233,0.06353,-0.01649,11.1,-26.2,-15.2
59.4576,107.5731,-1.8406539035898402,-1.9964501003747812,-0.435049133737925,0.03482,0.04154,-0.01466,11.1,-26.2,-15.2
59.4614,107.5932,-1.8393768556146928,-1.8834972001548154,-0.5275690376972992,-0.03543,0.11606,-0.02443,11.2,-26.2,-15.3
59.4803,107.6132,-1.8243056454959203,-1.8033776351833308,-0.573709640213238,-0.0733,0.24984,-0.07391,11.3,-26.1,-15.2
59.5016,107.6332,-1.8166341886883566,-1.7729770564558864,-0.5865436563649187,-0.08735,0.27184,-0.10996,11.4,-26.1,-15.3
59.525,107.6532,-1.8286304443111736,-1.7970572060454582,-0.5814370607596597,-0.10263,0.09346,-0.21319,11.5,-26.0,-15.2
59.5389,107.6733,-1.8923673752347834,-1.8842896288749857,-0.580006621914718,-0.13378,0.04643,-0.26756,11.6,-25.9,-15.2
59.5629,107.6933,-1.9613453444052025,-2.0036905947831873,-0.578071762366509,-0.12217,0.03604,-0.26634,11.8,-25.8,-15.0
59.5785,107.7133,-2.0642244985940392,-2.1653036191031028,-0.592277889640231,-0.13744,-0.1179,-0.27855,11.9,-25.8,-15.2
59.5987,107.7334,-2.1733204390883705,-2.3327644527309332,-0.6158689581188455,-0.15027,-0.24374,-0.27794,11.9,-25.7,-15.2
59.6244,107.7534,-2.289693399700075,-2.4866095085919966,-0.6514588985894587,-0.10934,-0.39706,-0.20159,12.0,-25.6,-15.2
59.639,107.7734,-2.36214753263669,-2.6154413574986117,-0.6899810516408174,0.05315,-0.46976,-0.06292,12.0,-25.5,-15.2
59.6655,107.7934,-2.414993136894548,-2.6987564592666464,-0.7347006984330076,0.15516,-0.32254,0.08369,12.2,-25.4,-15.2
59.685,107.8135,-2.392111691558173,-2.714761908762975,-0.7604107209054636,0.15272,-0.04581,0.17226,12.2,-25.3,-15.3
59.7007,107.8335,-2.32411051045694,-2.6644023297383916,-0.765127308775785,0.24862,0.0281,0.12889,12.3,-25.3,-15.3
59.719,107.8535,-2.249258902259866,-2.579879987283098,-0.7552334491347228,0.34086,-0.15027,-0.03054,12.3,-25.2,-15.3
59.7395,107.8736,-2.196603336313928,-2.483862930617676,-0.7332056904369271,0.30849,-0.26573,-0.10996,12.4,-25.2,-15.3
59.7636,107.8936,-2.1809822271907238,-2.4014184411084543,-0.7050997784496076,0.1857,-0.24496,-0.05009,12.5,-25.1,-15.2
59.7789,107.9136,-2.1754495029485392,-2.3289898590524354,-0.6684397635016328,0.20892,-0.26206,0.02077,12.5,-25.1,-15.3
59.8001,107.9336,-2.184352969907753,-2.3037582173468296,-0.6464147859425111,0.21319,-0.13317,-0.0226,12.5,-25.0,-15.2
59.8191,107.9537,-2.1972591012897325,-2.3058441737595663,-0.6474411904241144,0.22235,0.00367,-0.09957,12.5,-25.0,-15.4
59.8401,107.9737,-2.2222761741509087,-2.3252489441051853,-0.6851730548315746,0.26695,-0.00122,-0.15455,12.6,-25.0,-15.4
59.8636,107.9937,-2.265688330762449,-2.340598949061517,-0.7629798306865627,0.28283,-0.15577,-0.13378,12.7,-25.0,-15.3
59.8788,108.0138,-2.313208249459849,-2.309577261259831,-0.8631953815085698,0.30055,-0.3146,-0.11301,12.7,-25.1,-15.2
59.8989,108.0338,-2.345898342658861,-2.2650905292087256,-0.9754258360764343,0.2645,-0.06048,-0.08063,12.7,-25.1,-15.2
59.9194,108.0538,-2.3523516423207758,-2.203892394551598,-1.0742343806874732,0.2529,0.05559,0.05253,12.7,-25.1,-15.1
59.9417,108.0738,-2.3418111629088845,-2.1371425784737537,-1.1420673324556496,0.2364,0.08919,0.06475,12.8,-25.1,-15.0
59.9619,108.0938,-2.3262626554310795,-2.0656574552448017,-1.1651112999355,0.12401,-0.13561,0.04398,12.7,-25.2,-15.0
59.9843,108.1138,-2.3158356515422693,-2.0046121692878893,-1.1429131210963135,-0.06292,-0.29749,0.07391,12.8,-25.2,-15.0
59.9994,108.1338,-2.299614035721059,-1.9825661396219738,-1.0835655246958211,-0.1631,-0.12462,0.06597,12.8,-25.2,-14.9
60.0196,108.1538,-2.299881851308178,-2.0017087895066576,-1.0060693343493536,-0.12401,-0.05742,-0.02199,12.8,-25.2,-14.9
60.0397,108.1737,-2.327502256863417,-2.0759077660571497,-0.9319220860361828,-0.03176,-0.13806,-0.11057,12.8,-25.3,-14.9
60.0675,108.1937,-2.3998332572963936,-2.1949633576555487,-0.8767347336312188,0.04154,-0.1741,-0.03054,12.8,-25.3,-14.9
60.0833,108.2137,-2.4932641432429588,-2.326599423162286,-0.834584770236539,0.02932,-0.24923,0.09835,12.9,-25.3,-14.8
60.1038,108.2337,-2.6062145851363114,-2.445961993799004,-0.801738987738231,-0.11423,-0.07941,0.11606,12.9,-25.3,-14.6
60.1202,108.2537,-2.707908347515064,-2.552758191359635,-0.771498523780096,-0.25779,-0.08063,0.08613,12.9,-25.3,-14.5
60.1391,108.2737,-2.7985906405491248,-2.6374783462075495,-0.7468269245741084,-0.2865,-0.24923,0.0617,13.0,-25.3,-14.7
60.1678,108.2937,-2.886896942204262,-2.7083636075287365,-0.742840472767675,-0.10018,-0.22174,0.13317,12.8,-25.2,-14.8
60.1824,108.3137,-2.9157287806281067,-2.771681140346447,-0.7532178026010836,0.23091,-0.20769,0.19731,12.8,-25.2,-14.9
60.1994,108.3337,-2.9168728382865585,-2.7998966281341344,-0.7823581499850807,0.38668,-0.09713,0.21686,12.7,-25.2,-14.9
60.2209,108.3537,-2.90108382311586,-2.776195558807708,-0.8202171046680693,0.3427,-0.11179,0.3262,12.7,-25.1,-14.9
60.2407,108.3737,-2.8514121479546928,-2.6825742223461866,-0.8392746857445079,0.08491,-0.26756,0.35552,12.6,-25.1,-15.1
60.2651,108.3937,-2.792573742750797,-2.559409562046168,-0.8422924898017214,-0.13378,-0.2474,0.22969,12.5,-25.2,-15.1
60.2792,108.4137,-2.699958649239391,-2.4840282653831927,-0.8306652651364139,-0.13561,-0.12278,0.13989,12.4,-25.2,-15.0
60.2988,108.4337,-2.6359613585687978,-2.4729094584343345,-0.8213172103887523,0.06658,-0.146,0.11484,12.3,-25.1,-15.1
60.3183,108.4537,-2.60504985171932,-2.5273148466281334,-0.8160752838539551,0.17287,-0.19487,0.13622,12.3,-25.1,-15.1
60.3392,108.4737,-2.609722918234332,-2.6157117498504863,-0.8118657850465141,0.14294,-0.1295,0.13378,12.2,-25.1,-15.2
60.3627,108.4937,-2.637385749354308,-2.7055486766846255,-0.8021115206425158,0.07819,-0.0788,0.09102,12.1,-25.2,-15.2
60.3793,108.5137,-2.6674595858531265,-2.784166558519378,-0.7836659901576706,-0.0226,-0.00428,0.0507,12.0,-25.2,-15.4
60.4006,108.5337,-2.7034403435917147,-2.859211497085168,-0.7671413511239251,0.01466,0.03726,0.06231,11.9,-25.3,-15.5
60.4214,108.5537,-2.7402870881037744,-2.9355447212901034,-0.7600520490710725,0.18937,-0.0843,0.08491,11.8,-25.3,-15.6
60.4425,108.5736,-2.772343771811743,-3.006899876235423,-0.7644778820211506,0.25717,-0.08858,0.05803,11.7,-25.3,-15.4
60.4725,108.5936,-2.7992858648576924,-3.081143587422956,-0.7854144139842631,0.25168,-0.03971,0.07391,11.7,-25.4,-15.3
60.4784,108.6136,-2.7861107532380767,-3.072594570060853,-0.7815457815756073,0.24435,-0.06842,0.07514,11.6,-25.5,-15.1
60.4983,108.6336,-2.765257490652386,-3.06983045231404,-0.7900193194873406,0.18631,0.04154,0.03299,11.6,-25.5,-15.1
60.5204,108.6536,-2.739403868963448,-3.0570301971200133,-0.8037727697619168,0.10507,0.08613,0.00122,11.6,-25.6,-15.2
60.544,108.6736,-2.7211333946851433,-3.0449055398609772,-0.8291125333882263,0.18937,-0.03787,-0.02382,11.5,-25.6,-15.1
60.5619,108.6936,-2.714817874620041,-3.0260990598413553,-0.8644515625205216,0.21991,-0.01649,0.01772,11.5,-25.6,-15.2
60.58,108.7136,-2.717821774271042,-3.0076992843857395,-0.9101747751858973,0.21258,0.00672,0.05009,11.5,-25.7,-15.3
60.6049,108.7336,-2.7270678303518907,-3.0005114760045015,-0.9655844398634716,0.28222,0.04948,0.00428,11.5,-25.7,-15.2
60.6189,108.7536,-2.7419542606627934,-2.9627967159521416,-1.0106698254919735,0.22785,0.05131,0.01588,11.5,-25.8,-15.1
60.6424,108.7736,-2.761310108805047,-2.9388315266998357,-1.0535201625485406,0.13928,0.0843,0.04948,11.5,-25.8,-15.1
60.6657,108.7936,-2.7869813931501564,-2.9185953410279177,-1.0862192542033657,0.11423,0.04765,0.01894,11.6,-25.7,-15.0
60.6827,108.8136,-2.817117061235808,-2.902846074779077,-1.1065626774321604,0.14478,0.07514,0.00244,11.6,-25.8,-14.8
60.7313,108.8336,-2.8464887367553358,-2.942116898483675,-1.1315445094428718,0.16921,0.04948,0.04826,11.7,-25.8,-14.8
60.742,108.8536,-2.862349064929863,-2.934287041985858,-1.1267473772685186,0.15272,0.00794,0.08858,11.6,-25.8,-14.7
60.7625,108.8736,-2.8674526269959086,-2.942325316478749,-1.1187354471409243,0.20892,0.06475,0.09041,11.6,-25.9,-14.7
60.7666,108.8937,-2.846209040716313,-2.9134661353706255,-1.087560455772893,0.22663,-0.02993,0.0733,11.6,-25.9,-14.8
60.7883,108.9137,-2.8270539040886016,-2.9088802294727767,-1.0638799629969373,0.19059,-0.0562,0.0843,11.6,-25.9,-14.9
60.7995,108.9337,-2.7934720904470467,-2.884112632408474,-1.0265987856434755,0.16127,-0.04398,0.1014,11.6,-26.0,-14.9
60.8203,108.9538,-2.7720670118763606,-2.875394840731224,-0.9951343369702315,0.14294,-0.09529,0.06781,11.6,-26.0,-14.8
60.8398,108.9738,-2.758017835872947,-2.877622646056662,-0.9660226588699174,0.09102,-0.03299,0.05559,11.7,-26.1,-14.6
60.8629,108.9938,-2.7570118201338167,-2.900354517920164,-0.9453769082330759,0.135,-0.08063,0.02932,11.7,-26.1,-14.5
60.8871,109.0138,-2.7646418949675065,-2.938036109630171,-0.9322993758856164,0.1576,-0.05986,0.00367,11.7,-26.2,-14.3
60.903,109.0339,-2.7793481971613225,-2.9736738089655455,-0.9232908978344287,0.12462,0.04215,0.01344,11.7,-26.2,-14.2
60.9204,109.0539,-2.8029778699888803,-3.014744976314173,-0.9238703395918257,0.09835,0.03726,-0.00733,11.8,-26.2,-13.9
60.9404,109.0739,-2.8376029578068565,-3.060752566992434,-0.9369474020381858,0.13928,0.02871,0.00122,11.7,-26.3,-13.9
60.9656,109.094,-2.884136571509407,-3.112604311947201,-0.965629169208027,0.23213,-0.01527,0.02199,11.7,-26.4,-13.9
60.9854,109.114,-2.9339404060078693,-3.147149084007106,-1.0011865514385327,0.17898,-0.00367,0.02199,11.8,-26.4,-14.0
61.0009,109.134,-2.9819834228087125,-3.1629446041015243,-1.0424340992174823,0.11668,0.05681,-0.0055,11.8,-26.4,-14.0
61.0201,109.154,-3.0234373314160803,-3.1737446500542115,-1.0917891051988136,0.1857,0.13073,-0.04032,12.0,-26.5,-14.0
61.0396,109.1741,-3.06549924577797,-3.176321273092118,-1.1469670924240933,0.2022,0.16982,-0.01649,12.0,-26.5,-13.8
61.0655,109.1941,-3.1132409108323715,-3.1823485536155856,-1.2078447531332674,0.16371,0.07697,0.01283,12.0,-26.5,-13.6
61.1124,109.2141,-3.1891253434606646,-3.211683300570937,-1.2827244442569672,0.16493,-0.08063,0.06048,12.0,-26.5,-13.5
61.1151,109.2342,-3.210939458536004,-3.1806418292766483,-1.3026465978580877,0.15944,-0.14111,0.11423,12.1,-26.5,-13.4
61.1265,109.2542,-3.222671785760099,-3.1654311882382666,-1.307867447066993,0.10751,-0.15394,0.146,12.1,-26.5,-13.4
61.1576,109.2742,-3.241149758050326,-3.174437059294075,-1.3075490444566604,0.1179,-0.09285,0.15821,12.1,-26.5,-13.4
61.1615,109.2942,-3.194673990041575,-3.170148001215801,-1.2641825516546703,0.11912,-0.03787,0.17715,12.1,-26.5,-13.3
61.1859,109.3143,-3.1735385259935227,-3.193172696295147,-1.233347287708975,0.1069,-0.00122,0.20892,12.1,-26.5,-13.3
61.1992,109.3343,-3.139785594529311,-3.2089551821515725,-1.1946919244451184,0.19059,-0.13622,0.17165,12.1,-26.5,-13.3
61.2197,109.3543,-3.129921402933956,-3.238495862480217,-1.1746271107128319,0.21197,-0.18082,0.08369,12.0,-26.5,-13.5
61.2419,109.3744,-3.132181785707904,-3.2723913716969855,-1.1679220661337055,0.11912,-0.13867,0.07941,12.1,-26.5,-13.3
61.2743,109.3944,-3.1493171224778886,-3.317931708764749,-1.1786933932882562,0.17104,-0.06658,0.10385,12.1,-26.5,-13.2
61.2809,109.4144,-3.152751509404916,-3.3296060803441594,-1.178210965425972,0.16188,0.05437,0.09041,12.1,-26.6,-13.1
61.3011,109.4344,-3.167634407677074,-3.349611915130728,-1.191209168126198,0.06109,0.06781,0.09041,12.1,-26.6,-13.1
61.3227,109.4544,-3.1851432772714325,-3.370129540453347,-1.2118198715726969,0.06781,0.00794,0.09468,11.9,-26.6,-12.9
61.3397,109.4744,-3.1989294262784065,-3.387296378333273,-1.2367186479474572,0.20464,-0.03726,0.03604,11.9,-26.6,-13.0
61.3626,109.4944,-3.21151479993011,-3.4157177789830397,-1.2719071037178207,0.26878,-0.07819,0.00672,11.8,-26.6,-12.9
61.4064,109.5144,-3.236594453448674,-3.4892728971268676,-1.3334998835653877,0.28711,-0.12034,0.03971,11.8,-26.6,-12.8
61.4089,109.5344,-3.2253457099955543,-3.4465616403962045,-1.3316095138467006,0.26695,-0.03604,0.0788,11.8,-26.7,-12.6
61.4209,109.5544,-3.2189407067807068,-3.4169704572287163,-1.3286128189763176,0.21441,-0.1069,0.09652,11.8,-26.8,-12.6
61.4415,109.5744,-3.2120235520794616,-3.400660592225581,-1.3179227231863226,0.13744,-0.12339,0.08247,11.8,-26.8,-12.6
61.4636,109.5944,-3.1905074158082396,-3.39629227075894,-1.29226746833276,0.17104,-0.0391,0.04276,11.7,-26.9,-12.7
61.4833,109.6144,-3.160651406410178,-3.4050762308032705,-1.2568173247569483,0.17226,0.0788,-0.00367,11.7,-27.0,-12.6
61.507,109.6344,-3.1388955696382275,-3.4352366818366504,-1.2263947849247376,0.13561,-0.00733,0.01344,11.6,-27.0,-12.6
61.5217,109.6544,-3.130635646061987,-3.4604552241083746,-1.199942332057061,0.15272,-0.1014,0.04215,11.6,-27.0,-12.4
61.5407,109.6744,-3.1396276393086775,-3.490580930536321,-1.1909138247852518,0.2022,-0.11606,0.04643,11.6,-27.1,-12.3
61.562,109.6944,-3.154011978868563,-3.5126302761537174,-1.1966948561053545,0.1912,-0.12828,0.00061,11.5,-27.1,-12.3
61.5835,109.7144,-3.16756267067841,-3.5231041464640054,-1.2170630910811884,0.10263,0.04459,-0.06964,11.6,-27.2,-12.2
61.6002,109.7344,-3.1926934058668865,-3.521569990367025,-1.2549174072037559,0.13806,0.07453,-0.08919,11.6,-27.2,-12.0
61.6223,109.7544,-3.2316010852730197,-3.533602969909861,-1.3152690997440466,0.281,0.04948,-0.0391,11.6,-27.2,-11.9
61.6403,109.7744,-3.2918392400090366,-3.5363141581772473,-1.3822621165482971,0.32681,-0.02443,0.04154,11.6,-27.2,-11.9
61.6635,109.7943,-3.3664917310345475,-3.545572988767803,-1.4509734200761422,0.19426,-0.05864,0.0281,11.7,-27.3,-12.1
61.6837,109.8143,-3.443474268254343,-3.549440451558749,-1.506235925018279,0.08919,-0.03848,0.02138,11.7,-27.3,-12.1
61.6998,109.8343,-3.509590859614995,-3.5611890695110535,-1.548357787132927,0.13989,-0.29199,0.02505,11.7,-27.4,-12.0
61.7311,109.8543,-3.5845562831740794,-3.6165675573507556,-1.6067819258233946,0.26634,-0.38546,0.00977,11.7,-27.4,-12.1
61.7392,109.8743,-3.5995345342540075,-3.625719070733269,-1.6197592181342273,0.33659,-0.28527,0.0336,11.7,-27.4,-11.9
61.7664,109.8943,-3.6260007546282504,-3.6729400840397806,-1.661435351291777,0.38851,-0.15821,0.10324,11.7,-27.4,-11.9
61.7841,109.9143,-3.6184152061988843,-3.657867297059292,-1.6684562721137173,0.33231,-0.135,0.14294,11.8,-27.4,-11.8
61.7992,109.9343,-3.594418430651311,-3.606599072341857,-1.6575474621427855,0.19364,-0.27733,0.12767,11.7,-27.5,-11.6
61.8197,109.9543,-3.571927332593529,-3.550062634689181,-1.6449339508008265,0.15149,-0.21869,0.06842,11.7,-27.6,-11.7
61.8434,109.9743,-3.5520338208826687,-3.5040569462547695,-1.6311040349939603,0.22663,-0.08247,0.0336,11.7,-27.6,-11.7
61.864,109.9943,-3.53994322925001,-3.4692332501413037,-1.6120651780514503,0.22541,-0.04459,0.07697,11.7,-27.6,-11.6
61.8836,110.0143,-3.5428910093842303,-3.450604917534541,-1.5881981657931004,0.12401,-0.0898,0.12706,11.6,-27.7,-11.6
61.9,110.0343,-3.548784400319217,-3.446683289155212,-1.5515996074763816,0.13867,-0.29932,0.12584,11.6,-27.7,-11.6
61.9199,110.0543,-3.554688010747352,-3.464595605546707,-1.5056797956981587,0.19426,-0.24129,0.06964,11.5,-27.8,-11.6
61.9391,110.0743,-3.54060902475122,-3.495338856891937,-1.4439844664158699,0.13195,-0.09285,0.13378,11.4,-27.8,-11.6
61.9635,110.0943,-3.511969094046775,-3.5363680553868684,-1.3774262192892248,0.11362,-0.03604,0.1967,11.4,-27.8,-11.5
61.9791,110.1143,-3.4532188418913803,-3.5716051914915803,-1.3048793790397823,0.08613,-0.06658,0.12828,11.3,-27.9,-11.4
61.9989,110.1343,-3.391678151102491,-3.6076736751351106,-1.2522765203643917,0.03604,-0.10812,0.00672,11.3,-27.9,-11.3
62.0207,110.1543,-3.3392342252694154,-3.6429278910598617,-1.2319225991693177,0.04154,-0.15455,-0.07941,11.2,-27.9,-11.3
62.039,110.1743,-3.31004107911407,-3.673761243573604,-1.2500033358047222,0.04581,-0.16738,-0.09102,11.2,-27.9,-11.3
62.0622,110.1943,-3.3107575374039295,-3.7009325597465548,-1.3047135701991532,0.03604,-0.16677,-0.10934,11.2,-27.9,-11.2
62.0913,110.2142,-3.332732725430056,-3.722885368290549,-1.3817498791053584,0.05009,-0.12828,-0.14355,11.2,-27.9,-11.1
62.1012,110.2342,-3.38524376476945,-3.720264705097074,-1.4631742795295875,0.03115,-0.12339,-0.19364,11.1,-27.9,-11.2
62.1202,110.2542,-3.436408120540925,-3.710778524517719,-1.5315167270390635,0.05009,-0.03543,-0.18876,11.2,-27.9,-11.2
62.1412,110.2742,-3.490539908601576,-3.6934054546898314,-1.5788705370835228,0.04093,-0.0055,-0.12828,11.2,-27.9,-11.2
62.1701,110.2942,-3.546828896651518,-3.6812844139179215,-1.6065512579752266,-0.00855,-0.07025,-0.06781,11.2,-27.9,-11.2
62.1798,110.3142,-3.597497915669095,-3.6801224834447015,-1.6140353061703419,0.01038,-0.11362,-0.0171,11.3,-27.9,-11.3
62.2011,110.3342,-3.641337310627238,-3.7100828216393156,-1.6133320554870938,0.12278,-0.13256,-0.01283,11.4,-27.9,-11.2
62.2217,110.3542,-3.6732065307876356,-3.7633226635347037,-1.6041125116048018,0.06292,-0.1124,-0.09468,11.5,-27.9,-11.2
62.249,110.3742,-3.699453148160805,-3.831818592947523,-1.5920887432605273,-0.10324,0.00367,-0.12462,11.5,-27.9,-11.1
62.2742,110.3942,-3.7388959914102786,-3.912357791562901,-1.5917183597302706,-0.09957,-0.04215,-0.06964,11.6,-27.8,-11.1
62.2807,110.4142,-3.796519718232739,-4.006588542094981,-1.614787481445525,-0.0171,-0.07147,-0.0226,11.6,-27.8,-11.1
62.3013,110.4342,-3.8597417265588385,-4.088472023006816,-1.651773415854235,0.0452,-0.08613,-0.00672,11.6,-27.8,-11.2
62.3212,110.4542,-3.914017064370368,-4.144032229030056,-1.6951397594570228,0.10812,-0.08308,-0.00794,11.7,-27.7,-11.3
62.34,110.4742,-3.9492824332396386,-4.161887781213955,-1.7356299257712884,0.08125,-0.03604,0.01649,11.8,-27.7,-11.3
62.362,110.4943,-3.9664716288955617,-4.14878096509597,-1.772788594016557,0.10507,-0.07453,0.05131,11.9,-27.7,-11.3
62.3808,110.5143,-3.9648673497464766,-4.108827852990541,-1.7994851113916503,0.16738,-0.11973,0.05742,12.0,-27.6,-11.3
62.4004,110.5343,-3.952901682139647,-4.057725482690757,-1.8172540331931666,0.15699,-0.09713,0.04093,12.1,-27.6,-11.3
62.4228,110.5543,-3.9385568492936582,-4.008216950127094,-1.8269854545878657,0.05986,-0.08125,0.07636,12.1,-27.6,-11.2
62.4413,110.5744,-3.921749487486127,-3.974665476051726,-1.8293524076454393,0.04765,-0.04704,0.08858,12.2,-27.6,-11.1
62.4656,110.5944,-3.9148778002134814,-3.9788257290280593,-1.8381936463688193,0.05376,0.011,0.03543,12.2,-27.6,-11.3
62.4866,110.6144,-3.91940204510054,-4.018940856708519,-1.8533746336560286,0.16616,-0.01527,0.01222,12.1,-27.6,-11.3
62.5009,110.6344,-3.9374793812692683,-4.071478453648292,-1.8669288435256846,0.25534,-0.05559,-0.0171,12.1,-27.5,-11.3
62.5199,110.6545,-3.9671449759925244,-4.131976960150692,-1.8814491449733248,0.11484,0.00733,0.04459,12.1,-27.5,-11.2
62.5402,110.6745,-3.996988822715524,-4.180184496353503,-1.8903749089723432,-0.03665,-0.0733,0.08796,12.1,-27.4,-11.3
62.5766,110.6945,-4.024354956757967,-4.213660007890943,-1.904030479772187,0.01405,-0.06597,0.04398,12.1,-27.4,-11.3
62.5827,110.7146,-4.007127201187747,-4.223926371077694,-1.9099627040373148,0.10324,-0.03848,0.0336,12.1,-27.4,-11.2
62.6005,110.7346,-3.972844841449239,-4.2136996779010705,-1.932655420698607,0.20708,-0.04215,0.04581,12.2,-27.4,-11.2
62.621,110.7546,-3.922810176278763,-4.167977196289519,-1.9645556921620182,0.24129,-0.04704,0.06475,12.2,-27.4,-11.0
62.6409,110.7746,-3.867943462211079,-4.080746563929321,-1.9968973014224467,0.18082,-0.01649,0.08063,12.2,-27.4,-11.0
62.6636,110.7947,-3.8245756477709687,-3.9737604941363958,-2.029880817064466,0.17471,0.02382,0.07208,12.1,-27.4,-11.0
62.6853,110.8147,-3.7995048614566356,-3.8648752902307275,-2.054029746014608,0.21441,-0.07941,0.05864,12.0,-27.4,-11.0
62.7008,110.8347,-3.794736086055419,-3.7715122892315693,-2.0610504097458797,0.15882,-0.08002,0.03054,12.0,-27.4,-10.9
62.7208,110.8548,-3.814984037925692,-3.7196965810984586,-2.0565103047191826,0.00244,0.03176,0.00977,12.0,-27.4,-10.9
62.7405,110.8748,-3.8564704344704395,-3.7149678717192205,-2.042076423130265,-0.00489,0.0452,-0.00122,12.1,-27.4,-10.9
62.7754,110.8948,-3.9181263177359678,-3.7626416491469055,-2.030127578441947,0.09407,-0.01894,0.02321,12.2,-27.4,-10.7
62.7841,110.9148,-3.970968391640035,-3.8298909686051297,-2.0064599316234633,0.09224,-0.07758,0.08125,12.2,-27.3,-10.6
62.8013,110.9349,-4.01807455927581,-3.9094955304796395,-1.9861035079172815,0.07514,-0.06903,0.08796,12.2,-27.4,-10.6
62.8245,110.9549,-4.046495730010043,-3.9715032697016444,-1.9614984124257449,0.05864,-0.05253,0.06842,12.2,-27.4,-10.7
62.8407,110.9749,-4.04290224158061,-4.001669950634329,-1.9269575751066643,-0.02566,-0.03543,0.06048,12.2,-27.5,-10.7
62.8622,110.995,-4.0233699686824504,-3.9986987374807974,-1.8927321625051672,-0.12828,0.00428,0.06597,12.2,-27.5,-10.6
62.8807,111.015,-3.9982657910467703,-3.983787297615284,-1.872038015356173,-0.06048,0.05864,0.05437,12.2,-27.5,-10.6
62.9132,111.035,-3.9870771914912244,-3.969899598950878,-1.8738297510600015,0.07147,-0.04276,0.05376,12.1,-27.5,-10.7
62.922,111.055,-3.972871043922777,-3.9525959854867363,-1.877470635058625,0.04154,-0.06048,0.04337,12.1,-27.5,-10.8
62.9493,111.075,-3.9744953337145,-3.931283515560645,-1.8825645945121208,-0.07025,-0.00183,0.04887,12.1,-27.6,-10.8
62.9673,111.095,-3.982532174999519,-3.918594015635536,-1.8844346114349735,-0.15149,0.11484,0.05437,12.1,-27.6,-10.8
62.9813,111.115,-4.0008670323100555,-3.9327980446055926,-1.8933759470142721,-0.20953,0.1295,0.06597,12.1,-27.6,-10.9
63.001,111.135,-4.028594383696919,-3.976130432823676,-1.9153875079247946,-0.12156,0.07941,0.07636,12.1,-27.6,-11.0
63.0327,111.155,-4.0638184015322,-4.073251653568964,-1.9718875822516342,0.15333,-0.10507,0.1124,12.1,-27.6,-11.0
63.042,111.175,-4.069111144024106,-4.139550766303784,-2.009970346074218,0.38057,-0.19303,-0.10079,12.0,-27.6,-11.1
63.0688,111.195,-4.054880329616331,-4.2040281796281915,-2.056092782927215,0.16799,-0.0171,0.00367,11.9,-27.6,-11.3
63.0882,111.215,-4.0098835656013945,-4.2000765715703405,-2.0697839622710816,-0.0617,0.09713,0.03238,12.0,-27.6,-11.4
63.1069,111.235,-3.941932823672575,-4.153167697646555,-2.0654157475483066,-0.1124,0.13989,0.02627,11.9,-27.5,-11.3
63.1214,111.255,-3.8646956565780655,-4.0964737787060805,-2.0598386520912095,-0.06658,0.1967,0.06781,11.9,-27.5,-11.4
63.1664,111.275,-3.7822370054743333,-4.066796056242059,-2.061901725870192,0.06842,0.12156,0.04032,11.9,-27.4,-11.3
63.1715,111.295,-3.726385698064018,-4.018901580719903,-2.049077668471135,0.1576,-0.04398,-0.06109,12.0,-27.4,-11.3
63.1984,111.315,-3.7068233272505307,-3.978780496570084,-2.0284179628656904,-0.05986,-0.12156,-0.01038,12.0,-27.4,-11.3
63.2219,111.335,-3.7166604044345393,-3.9372024136220705,-1.9887192871530521,-0.27733,-0.00428,0.04154,12.0,-27.4,-11.2
63.223,111.355,-3.765992421466919,-3.9763823172642017,-1.982685927374522,-0.36408,0.10446,-0.00305,12.0,-27.4,-11.3
63.245,111.375,-3.8180383016016117,-4.002496392375248,-1.9587050827655794,-0.22174,0.2584,-0.09652,12.0,-27.4,-11.3
63.2618,111.395,-3.8976533758102585,-4.063011408841187,-1.9679243856761044,0.02382,0.18631,-0.12828,12.0,-27.4,-11.3
63.2811,111.415,-3.987843516697815,-4.124155224290493,-1.995639826163134,0.15394,0.09835,-0.00977,12.0,-27.3,-11.3
63.3051,111.435,-4.0808849191695575,-4.162642122353279,-2.0284844779346853,0.09468,0.09835,0.14172,12.1,-27.2,-11.3
63.3508,111.4549,-4.189896916252824,-4.174881073532238,-2.0675564812953695,0.02749,0.07147,0.19975,12.2,-27.2,-11.4
63.362,111.4749,-4.219332499409919,-4.160845869422422,-2.05495256112843,0.08674,0.00611,0.18937,12.2,-27.2,-11.4
63.3671,111.4949,-4.20583061372482,-4.149780388301692,-2.02319140519234,0.07208,-0.06231,0.1741,12.3,-27.1,-11.2
63.3818,111.5149,-4.1778974014368035,-4.152137357777315,-1.9980305889158485,0.02871,-0.0507,0.10201,12.3,-27.2,-11.2
63.4069,111.5349,-4.137552925753594,-4.166175573039803,-1.99011101150223,0.06048,0.04093,0.0055,12.3,-27.2,-11.3
63.4446,111.5549,-4.101872124353556,-4.17261240748028,-2.0097327376166403,0.03238,0.08308,-0.00489,12.3,-27.2,-11.2
63.4463,111.5749,-4.098056750028922,-4.1592938641092845,-2.071139839445337,-0.01588,0.05803,0.06475,12.3,-27.2,-11.3
63.4668,111.5949,-4.139926980923576,-4.116661972546896,-2.1738509370669608,-0.06781,-0.09163,0.05742,12.3,-27.2,-11.4
63.4819,111.6149,-4.211528183550883,-4.056317027635862,-2.3023316036248866,-0.01772,-0.14539,0.02199,12.3,-27.2,-11.3
63.509,111.6349,-4.307846516233492,-3.982603100112569,-2.43339113223763,0.02505,-0.05681,0.00611,12.3,-27.2,-11.4
63.5222,111.6549,-4.421200126012184,-3.907664353003195,-2.541905899402165,-0.03176,0.1179,-0.04581,12.3,-27.2,-11.4
63.5408,111.6749,-4.547505388345044,-3.8407818680695494,-2.606447032222981,-0.14722,0.19975,-0.01283,12.4,-27.2,-11.4
63.5612,111.6949,-4.690988633875982,-3.795690285317127,-2.6245938974461103,-0.17349,0.09346,0.02138,12.4,-27.2,-11.5
63.5822,111.7149,-4.843151226166273,-3.7888548511285682,-2.6031757838743266,-0.17654,-0.02138,0.06475,12.4,-27.2,-11.4
63.6006,111.7349,-4.978415156105593,-3.8349688408923326,-2.551342444367865,-0.18937,-0.11973,0.1014,12.3,-27.2,-11.5
63.6221,111.7549,-5.079284487762434,-3.9178168151329356,-2.477775542425068,-0.1295,-0.07514,0.04704,12.3,-27.2,-11.5
63.6404,111.7749,-5.1361609200767315,-4.020455834828338,-2.4007651011716105,-0.1124,0.06231,-0.03421,12.3,-27.2,-11.6
63.6612,111.7949,-5.159447610613364,-4.104227033997722,-2.3381912955012885,-0.15272,0.04643,-0.02749,12.2,-27.2,-11.7
63.691,111.8149,-5.161347163463802,-4.138901177510699,-2.304166444250801,-0.20036,-0.05253,-0.02688,12.2,-27.1,-12.0
63.7029,111.8348,-5.149893904477939,-4.1501832855152765,-2.3264887821592692,-0.10385,-0.06597,-0.05681,12.2,-27.1,-12.1
63.7212,111.8549,-5.118811325164756,-4.113046832950505,-2.37817078153335,0.05131,0.0,-0.09713,12.2,-27.0,-12.2
63.7422,111.8749,-5.070380720892586,-4.0357818391919436,-2.4406401763805894,0.07025,0.14844,-0.06597,12.2,-26.9,-12.4
63.7624,111.8949,-5.023947581354254,-3.9230919574880097,-2.495656333694516,0.01894,0.2193,-0.00122,12.2,-26.9,-12.4
63.7803,111.915,-4.995808979296673,-3.7962337982444225,-2.5322294747328424,-0.02505,0.1631,0.07391,12.3,-26.8,-12.6
63.8002,111.935,-4.988916979214243,-3.6876226161399828,-2.5449944947989476,-0.00794,-0.04093,0.13256,12.3,-26.8,-12.6
63.8212,111.955,-4.992919653875523,-3.6235318016208966,-2.5296511101173973,0.06536,-0.19059,0.17165,12.4,-26.6,-12.6
63.8431,111.9751,-4.993437456357789,-3.6125011488359684,-2.483858493759427,0.06842,-0.14844,0.08674,12.4,-26.6,-12.6
63.8686,111.9951,-4.992185128099613,-3.6441783837246176,-2.41688249004385,0.00672,0.00489,0.0391,12.4,-26.5,-12.6
63.8885,112.0151,-5.00005003828615,-3.704012706754306,-2.345530864967735,-0.02382,-0.0391,0.07575,12.5,-26.5,-12.7
63.9106,112.0351,-5.0409352090096915,-3.7805298260333626,-2.293894987556331,0.00489,-0.15027,0.16005,12.7,-26.5,-12.7
63.9203,112.0552,-5.087278069342692,-3.866599979833217,-2.2470522022489074,0.10996,-0.17287,0.21502,12.7,-26.4,-12.7
63.9414,112.0752,-5.171530482861094,-3.959236853108317,-2.2248094298922068,0.14294,-0.18265,0.09896,12.8,-26.4,-12.6
63.9629,112.0952,-5.2477358110608,-4.045336753041032,-2.1830417940276936,0.10751,-0.03176,0.03665,12.8,-26.4,-12.7
63.9808,112.1152,-5.306588003942348,-4.114791417130055,-2.1031839115445887,0.01038,0.12034,-0.00428,12.8,-26.3,-12.6
64.0069,112.1353,-5.342177328762581,-4.168293187194022,-1.9818471032880405,-0.08919,0.17043,-0.01833,12.8,-26.3,-12.5
64.0226,112.1553,-5.374133587807237,-4.22346599541552,-1.8529618726948582,-0.10629,0.06658,0.04948,12.9,-26.3,-12.5
64.0406,112.1753,-5.394983062118218,-4.289642605924238,-1.7354841857443866,0.0672,-0.25229,0.20097,12.8,-26.4,-12.5
64.0645,112.1954,-5.410042683571458,-4.388680298903342,-1.6653113749864872,0.20831,-0.47464,0.26756,12.8,-26.4,-12.5
64.0865,112.2154,-5.3613033955534135,-4.532904131368179,-1.627058868823859,0.2303,-0.35675,0.21014,12.7,-26.5,-12.6
64.1009,112.2354,-5.237881506869498,-4.709260859034691,-1.615242277298254,0.1405,0.01833,-0.0171,12.7,-26.5,-12.7
64.1197,112.2554,-5.073431054468311,-4.923594189564154,-1.6538476045215393,-0.02016,0.135,-0.23579,12.5,-26.6,-12.8
64.1409,112.2755,-4.901742262283254,-5.14403166464444,-1.7357911169464355,-0.31826,0.12278,-0.40256,12.5,-26.5,-12.8
64.1763,112.2956,-4.73717841878292,-5.289742926466924,-1.807537162461749,-0.5901,0.02138,-0.45815,12.5,-26.6,-12.9
64.1856,112.3156,-4.6714963389726964,-5.553225038616959,-2.058090214509737,-0.61514,-0.31887,-0.30421,12.4,-26.5,-12.8
64.2038,112.3357,-4.6150595267058305,-5.745757045484849,-2.337308143513048,-0.31826,-0.45448,-0.07269,12.3,-26.4,-13.0
64.2242,112.3558,-4.522894875919089,-5.877436846293379,-2.6553072132811133,0.20647,-0.39034,0.06414,12.3,-26.4,-13.1
64.2464,112.3758,-4.365220498822397,-5.9036652148741195,-2.967431986107342,0.57421,-0.13256,0.0898,12.2,-26.4,-13.3
64.2622,112.3959,-4.1624174994464544,-5.752348322121147,-3.1915626766136596,0.51557,-0.02627,-0.00122,12.3,-26.3,-13.3
64.2821,112.4159,-3.9742431871205466,-5.475198082275877,-3.3452214616144733,0.28527,-0.03971,-0.05803,12.2,-26.3,-13.4
64.3031,112.436,-3.8498710735522987,-5.124680070922856,-3.4333537942804586,0.1967,-0.11606,-0.08125,12.1,-26.3,-13.4
64.3215,112.456,-3.8113251390375953,-4.780397517912567,-3.4797874031764318,0.24068,-0.18265,-0.07208,12.1,-26.2,-13.4
64.3817,112.4761,-3.9019696804667876,-4.5864535879256305,-3.59007488964491,0.32742,-0.33048,-0.0617,12.2,-26.2,-13.4
64.3859,112.4961,-3.983531101106734,-4.3731818396556905,-3.553275273939505,0.34331,-0.45143,-0.09102,12.2,-26.1,-13.4
64.3899,112.5161,-4.097453826160208,-4.246765751041847,-3.4967164298730617,0.25473,-0.416,-0.09529,12.3,-26.1,-13.4
64.407,112.5361,-4.230241888395644,-4.188959302705274,-3.4330461821353193,0.02382,-0.32987,-0.10812,12.3,-26.0,-13.4
64.4357,112.5562,-4.342510091522132,-4.1568297214325005,-3.3459545109611337,-0.10996,-0.25412,-0.09346,12.3,-26.0,-13.5
64.4421,112.5762,-4.424483860535677,-4.15310897118198,-3.2639206927645885,-0.04337,-0.08308,-0.0898,12.4,-25.9,-13.5
64.463,112.5962,-4.478432945843181,-4.144928750380682,-3.189009627623805,0.07025,-0.03787,-0.11851,12.4,-25.9,-13.5
64.4824,112.6163,-4.524920526707515,-4.119412941275476,-3.1319993624437066,0.14722,-0.18082,-0.09041,12.5,-25.9,-13.5
64.5042,112.6363,-4.574682365818536,-4.0743389549306555,-3.0862675801608637,0.13806,-0.33048,-0.0391,12.5,-25.9,-13.6
64.5249,112.6563,-4.622792105139547,-4.018870553085659,-3.0290255682313667,0.12034,-0.28711,-0.02566,12.5,-25.9,-13.6
64.5441,112.6763,-4.669771884695384,-3.976818418875155,-2.946460190053828,0.03421,-0.06414,-0.07269,12.5,-25.9,-13.4
64.5627,112.6964,-4.727757191112871,-3.9710336317409656,-2.8387747308251923,-0.07819,-0.02382,-0.09346,12.5,-26.0,-13.4
64.5815,112.7164,-4.8100907523564445,-4.015148013377588,-2.716647285575741,-0.13011,-0.05192,-0.06475,12.5,-25.9,-13.5
64.6118,112.7364,-4.927088199379067,-4.105677744086082,-2.5978177982517288,-0.04704,-0.12645,0.07636,12.6,-25.9,-13.6
64.6246,112.7565,-5.022732221630548,-4.2487560967008555,-2.4768152416338287,0.11118,-0.1179,0.21136,12.6,-25.9,-13.6
64.6439,112.7765,-5.093902157114614,-4.4190748060162965,-2.37433544926336,0.29322,0.12339,0.15333,12.6,-25.8,-13.7
64.6694,112.7965,-5.1194012877637585,-4.596429824186475,-2.2976329419816386,0.36224,0.26756,0.08613,12.5,-25.8,-13.9
64.6897,112.8165,-5.119713095917921,-4.7073783163124725,-2.233790307140504,0.36652,0.25473,0.11362,12.6,-25.8,-14.0
64.7045,112.8366,-5.121019778361021,-4.735598334592422,-2.1862864219113822,0.38118,0.07147,0.17349,12.6,-25.8,-14.0
64.7256,112.8566,-5.148984295045332,-4.729233722519132,-2.180409505277301,0.34514,-0.03543,0.2364,12.6,-25.8,-14.0
64.7458,112.8766,-5.18397350407978,-4.703048037416805,-2.180092493231278,0.29077,0.08491,0.25534,12.6,-25.8,-14.0
64.7675,112.8966,-5.211765773510661,-4.703781328257853,-2.1725964049977042,0.1912,0.50519,0.21075,12.5,-25.9,-14.0
64.7836,112.9166,-5.243125663984801,-4.7485455871427815,-2.1545324185972623,0.06414,0.6915,0.12401,12.5,-25.9,-14.0
64.801,112.9366,-5.288211193531511,-4.860137658134421,-2.144231019618192,0.00672,0.69639,0.13806,12.5,-26.0,-13.9
64.8237,112.9566,-5.368481989207995,-5.022647210318678,-2.1645723136212407,-0.08125,0.47831,0.17043,12.5,-26.0,-13.8
64.844,112.9766,-5.507024545174168,-5.215676370596847,-2.2540974419284314,-0.13011,0.17226,0.29444,12.4,-26.1,-13.7
64.8642,112.9966,-5.675956112627976,-5.424676958987763,-2.4277786064536224,-0.09591,-0.45754,0.30116,12.4,-26.1,-13.6
64.8821,113.0166,-5.813275577969842,-5.642124378792695,-2.6712940299651597,-0.0226,-0.54062,0.19242,12.4,-26.2,-13.4
64.9019,113.0366,-5.893362325887296,-5.844851812638749,-2.9596593780789595,0.19609,0.08125,0.06109,12.3,-26.2,-13.3
64.9223,113.0566,-5.918988063401469,-6.000810596396725,-3.24906843577228,0.12278,0.56688,-0.00733,12.3,-26.3,-13.2
64.9486,113.0765,-5.925311717879725,-6.083459352649579,-3.503822672581917,-0.21441,0.56139,0.07391,12.2,-26.3,-13.0
64.9644,113.0965,-5.9747592657008886,-6.120348319443546,-3.7719068916747167,-0.40928,0.27855,0.22602,12.2,-26.3,-12.8
64.9817,113.1165,-6.019918264768495,-6.1404624897569535,-4.03133743756761,-0.2138,-0.13011,0.34636,12.1,-26.4,-12.6
65.0062,113.1365,-6.029878570358731,-6.173880844108041,-4.307751765357977,0.2419,-0.2981,0.36957,12.1,-26.4,-12.4
65.0292,113.1565,-5.930726131603826,-6.216248539359024,-4.554987166689264,0.64752,-0.17593,0.38546,12.0,-26.4,-12.3
65.0429,113.1765,-5.719247991442333,-6.1659175137981395,-4.669336622867657,0.76114,0.04154,0.52168,12.0,-26.5,-12.2
65.0644,113.1965,-5.473782875594977,-6.044276623716019,-4.750553125967162,0.562,0.0788,0.56994,12.0,-26.6,-12.0
65.0865,113.2165,-5.232068559149943,-5.817938912230172,-4.757502312673698,0.30604,0.13011,0.52046,11.8,-26.7,-11.9
65.1025,113.2365,-5.014304287513889,-5.527588346294449,-4.706098173471322,0.22663,0.00183,0.36346,11.7,-26.8,-11.8
65.1247,113.2565,-4.853722249715335,-5.247804612764098,-4.660460070859536,0.25595,0.07819,0.24618,11.6,-26.8,-11.7
65.1477,113.2765,-4.76133734803216,-5.015935892952152,-4.626341891172204,0.34025,0.15455,0.17226,11.5,-26.9,-11.7
65.1699,113.2965,-4.751533148597254,-4.8465054048164715,-4.6062764072488624,0.39584,-0.02382,0.22419,11.3,-27.0,-11.6
65.1875,113.3165,-4.808138071852019,-4.730958438274537,-4.57397513425013,0.42272,-0.14416,0.44654,11.2,-27.1,-11.6
65.2134,113.3365,-4.932311602476061,-4.6949911324790685,-4.568475858352156,0.59559,-0.30665,0.44715,11.1,-27.2,-11.5
65.222,113.3565,-5.010090463950284,-4.668161906452175,-4.445671016104544,0.55467,-0.55833,0.22785,10.9,-27.3,-11.4
65.2423,113.3765,-5.094632620371269,-4.7121589608386225,-4.338075210155673,0.41722,-0.23579,0.15455,10.8,-27.5,-11.3
65.2659,113.3965,-5.147754973565316,-4.804973736163737,-4.215161764864797,0.44349,-0.05864,0.04826,10.6,-27.6,-11.1
65.2865,113.4165,-5.18245950405682,-4.9181446885879225,-4.081427059251564,0.59376,-0.13439,-0.04948,10.4,-27.8,-11.0
65.3046,113.4365,-5.2189268545389,-5.034813468067275,-3.9478472959415525,0.63958,-0.0391,0.03787,10.3,-27.8,-10.7
65.3279,113.4565,-5.269630786575037,-5.1625497065434285,-3.8328022713902605,0.47709,-0.01344,0.19059,10.2,-28.0,-10.5
65.3416,113.4765,-5.32512126132873,-5.230262682435669,-3.6688448216061635,0.3036,-0.11545,0.16371,10.0,-28.1,-10.3
65.3825,113.4964,-5.415660353085119,-5.251729526352433,-3.5046549346161884,0.06292,-0.10996,0.04643,9.8,-28.1,-10.1
65.3855,113.5164,-5.496779585427901,-5.228671211534597,-3.3222471008794194,-0.16249,-0.011,0.0,9.7,-28.2,-10.0
65.4041,113.5364,-5.598265551472822,-5.125271880421304,-3.1396513574439773,-0.22969,0.10324,-0.0452,9.6,-28.2,-9.9
65.4232,113.5564,-5.710451202795026,-5.0026665213000445,-3.0095777301348203,-0.146,0.02443,-0.01344,9.5,-28.3,-9.7
65.4435,113.5764,-5.818925272571387,-4.906540454561553,-2.950116230634573,0.09529,0.04704,-0.01344,9.5,-28.3,-9.5
65.4624,113.5964,-5.907247122688818,-4.859966739396793,-2.9484933584590944,0.08491,0.18876,-0.01833,9.4,-28.4,-9.4
65.4842,113.6164,-5.959242068717296,-4.867423159848184,-2.972237501349402,-0.33048,0.16554,-0.01649,9.4,-28.4,-9.2
65.5024,113.6364,-5.968255621240664,-4.9799827162111,-3.0251797303886,-1.00426,0.00061,-0.0171,9.4,-28.4,-9.1
65.5217,113.6564,-5.935194963156333,-5.214946675558408,-3.097059239755837,-1.48318,0.07147,-0.00061,9.4,-28.4,-9.1
65.5416,113.6764,-5.864909447559941,-5.598628440276851,-3.2152918010385356,-1.24617,0.0562,-0.03238,9.4,-28.3,-9.1
65.5648,113.6964,-5.765300672619476,-6.071260409184526,-3.3918488380245275,-0.55405,0.00977,-0.04765,9.4,-28.3,-9.2
65.5811,113.7164,-5.631632026096566,-6.550760335371218,-3.64457498075887,-0.04215,-0.20586,-0.09102,9.4,-28.2,-9.4
65.6179,113.7364,-5.482803588385518,-6.905208652338076,-3.948666998768603,0.1857,-0.33659,-0.05498,9.3,-28.1,-9.8
65.6307,113.7564,-5.309750737687737,-6.98536769382993,-4.150735599808885,0.33842,-0.21258,-0.06231,9.4,-28.0,-9.9
65.645,113.7764,-5.133939884218986,-6.841935611007233,-4.288770521384743,0.45571,-0.13989,-0.04581,9.5,-27.9,-10.1
65.6695,113.7964,-4.982987432421172,-6.555068371979361,-4.404804576560121,0.51985,-0.26695,0.06414,9.5,-27.7,-10.3
65.6821,113.8164,-4.840004419279381,-6.140080907325073,-4.4045729573181225,0.54062,-0.48136,0.18509,9.5,-27.6,-10.4
65.7016,113.8364,-4.7387068873908325,-5.72700869845205,-4.388851203705489,0.43249,-0.53939,0.14172,9.5,-27.5,-10.6
65.7209,113.8564,-4.657103437453596,-5.359130273420474,-4.329906150860756,0.3427,-0.43982,0.04154,9.5,-27.5,-10.8
65.7436,113.8764,-4.599969031214576,-5.076268906644707,-4.2508785608834065,0.22602,-0.30299,-0.03543,9.4,-27.4,-11.0
65.7634,113.8963,-4.56614685377886,-4.879801054261294,-4.154987032641604,0.07697,-0.16799,-0.04276,9.4,-27.4,-11.1
65.7824,113.9163,-4.565579114933597,-4.766400510411132,-4.063594120665527,-0.15272,-0.03543,-0.11606,9.4,-27.3,-11.3
65.8045,113.9363,-4.6000725269017275,-4.720031782999065,-3.985286207580004,-0.1912,0.14233,-0.07025,9.5,-27.2,-11.4
65.8231,113.9563,-4.674365858790249,-4.729717086652083,-3.9361063228232567,-0.04093,0.00489,0.03176,9.5,-27.1,-11.5
65.8425,113.9763,-4.782990526485994,-4.772355726749612,-3.912253172971032,0.15455,-0.15944,0.10079,9.5,-27.1,-11.5
65.8631,113.9963,-4.914757378524981,-4.82867208088616,-3.9028961437653455,0.2419,-0.26084,0.15088,9.4,-27.0,-11.6
65.8813,114.0163,-5.042070191584826,-4.878490670753193,-3.8741658127022474,0.23702,-0.32926,0.07636,9.4,-27.1,-11.5
65.9012,114.0363,-5.151016104929495,-4.92207541947645,-3.81261495764731,0.18998,-0.26206,-0.0672,9.4,-27.0,-11.5
65.9222,114.0563,-5.230314037887436,-4.962625116935206,-3.707498676690469,0.12584,0.06231,-0.15272,9.3,-27.1,-11.5
65.9416,114.0763,-5.293290577529746,-5.011470656284786,-3.579090901559238,0.01894,0.33292,-0.06781,9.3,-27.1,-11.5
65.9622,114.0963,-5.354511503063012,-5.089649537595768,-3.4613707221803507,0.10446,0.31765,0.05803,9.3,-27.1,-11.4
65.9822,114.1163,-5.427134507318503,-5.205048606459242,-3.380511960684146,0.36652,-0.00916,0.14478,9.4,-27.1,-11.4
66.0029,114.1363,-5.5077327801185785,-5.348741508201001,-3.336988065138458,0.56261,-0.29077,0.13806,9.4,-27.1,-11.3
66.0248,114.1563,-5.583128966892997,-5.491105511809831,-3.3032551247347497,0.5058,-0.32498,0.05315,9.4,-27.1,-11.2
66.0429,114.1763,-5.643137631786348,-5.592718846648287,-3.2388991423814204,0.20097,-0.05131,-0.06658,9.5,-27.1,-11.2
66.0674,114.1963,-5.684846640934459,-5.671435804767942,-3.1527963628816886,-0.04093,0.30177,-0.20403,9.5,-27.0,-11.1
66.0878,114.2163,-5.752902427473216,-5.739540911086543,-3.0891952539417646,-0.04643,0.43982,-0.28344,9.5,-27.0,-11.0
66.101,114.2363,-5.8752175177728585,-5.812191694163209,-3.08707572695276,0.10568,0.37813,-0.26939,9.5,-27.0,-11.1
66.1208,114.2563,-5.992867814034649,-5.91217871672751,-3.1317224307416813,0.18998,0.08796,-0.11057,9.6,-26.9,-11.1
66.1449,114.2763,-6.0951815371752796,-6.008414659810272,-3.21810926603355,0.18265,-0.03726,0.04887,9.6,-26.9,-11.0
66.1646,114.2962,-6.146396851999299,-6.0555265846076285,-3.311280554076804,0.04826,0.00672,0.08796,9.7,-26.9,-10.9
66.1811,114.3162,-6.121793356855239,-6.050489503791938,-3.4180150915639214,-0.21686,-0.05192,0.07636,9.9,-26.8,-10.7
66.2017,114.3362,-6.033053344898589,-5.984359627750261,-3.5552280408719197,-0.33964,-0.09713,0.01833,10.0,-26.8,-10.7
66.2224,114.3563,-5.900020375609614,-5.883206335276311,-3.7491718001234755,-0.20708,0.10263,-0.14966,10.0,-26.8,-10.6
66.2435,114.3763,-5.7684231045139915,-5.759557496120554,-3.9992682889793763,-0.06475,0.37935,-0.29322,10.1,-26.8,-10.7
66.2644,114.3964,-5.694150451145702,-5.6260037718084615,-4.28294174667333,-0.10507,0.5339,-0.3708,10.1,-26.7,-10.8
66.2836,114.4164,-5.716937445375742,-5.513083190240565,-4.5752595068269875,-0.31154,0.43371,-0.33414,10.2,-26.7,-11.0
66.3027,114.4365,-5.82205389288125,-5.466762499976749,-4.844806574858836,-0.4777,0.31276,-0.18815,10.3,-26.6,-10.9
66.3233,114.4565,-5.966520978860704,-5.513934996220073,-5.07031658347893,-0.38179,0.22602,-0.03787,10.4,-26.5,-11.1
66.3451,114.4766,-6.100141741752927,-5.645250321783594,-5.247642218059806,-0.17226,0.07575,0.12645,10.5,-26.4,-11.1
66.3682,114.4967,-6.177880775365685,-5.812073483122272,-5.374464793571612,-0.05559,-0.21625,0.20097,10.6,-26.3,-11.3
66.3824,114.5167,-6.147292675957502,-5.956253934774362,-5.423128030340919,0.07025,-0.34025,0.19853,10.8,-26.2,-11.4
66.4039,114.5368,-6.039106248317955,-6.015369846252886,-5.433327925551457,0.22297,-0.20892,0.17349,10.9,-26.1,-11.3
66.4232,114.5569,-5.860840775219631,-5.9606918833341656,-5.391793116517682,0.31582,-0.02382,0.16677,11.0,-26.0,-11.3
66.4429,114.5769,-5.663683969197888,-5.797582281464918,-5.327391855840925,0.23946,0.08919,0.15577,11.1,-26.0,-11.3
66.4668,114.597,-5.49671148033959,-5.567691426373321,-5.269492694484274,0.14722,0.06842,0.10324,11.1,-25.9,-11.4
66.4831,114.617,-5.3943649326367975,-5.314134893785054,-5.217733508182987,0.19975,0.05253,0.08369,11.1,-25.9,-11.6
66.5038,114.6371,-5.367561075890422,-5.109774892023212,-5.192403007985516,0.19364,0.01283,0.06475,11.1,-25.8,-11.6
66.5242,114.6572,-5.41189746335429,-4.992082068192797,-5.182717727292316,0.11912,-0.00061,0.05376,11.2,-25.7,-11.6
66.5427,114.6772,-5.514402602374105,-4.976912958379343,-5.179541057235157,0.13867,0.01161,0.03848,11.3,-25.7,-11.7
66.5666,114.6973,-5.660044193625295,-5.062542572315084,-5.184872327849503,0.20403,-0.05315,0.06292,11.5,-25.6,-11.6
66.584,114.7173,-5.82596459125766,-5.205523585172095,-5.16900606974593,0.26267,-0.06842,0.12767,11.5,-25.6,-11.4
66.6028,114.7374,-5.996278264549549,-5.373133047449126,-5.130365362143333,0.24923,-0.09835,0.18631,11.5,-25.6,-11.5
66.6233,114.7575,-6.156319745023164,-5.524870842673166,-5.053778363774059,0.20586,-0.12034,0.19181,11.6,-25.6,-11.4
66.6444,114.7775,-6.298100352771723,-5.629561811787334,-4.925675298515877,0.17165,-0.13867,0.17226,11.6,-25.7,-11.4
66.6682,114.7976,-6.4278730252242475,-5.676386757660829,-4.753458709844352,0.13928,-0.2303,0.15088,11.6,-25.7,-11.3
66.6846,114.8177,-6.52795890192454,-5.6851231286334,-4.530963445847173,0.11973,-0.36652,0.16982,11.6,-25.8,-11.2
66.7041,114.8377,-6.6185897210444296,-5.695506771252718,-4.31058405307524,0.14844,-0.3262,0.27306,11.6,-25.8,-11.1
66.7257,114.8578,-6.68896258643166,-5.763292283417494,-4.121472867686334,0.16616,-0.27428,0.32926,11.6,-25.8,-11.0
66.7425,114.8778,-6.712764241872932,-5.922042835969904,-3.96455598233626,0.15944,-0.2529,0.25656,11.6,-25.9,-11.1
66.7691,114.8979,-6.7272117156118645,-6.161370611571933,-3.88882570602292,0.01955,-0.27611,0.07025,11.7,-26.0,-11.0
66.7856,114.918,-6.705524843321153,-6.474238434915544,-3.8891732665728878,-0.33231,-0.36896,-0.08674,11.8,-26.1,-11.0
66.8051,114.938,-6.681135580438083,-6.790716641155177,-3.975026313305733,-0.73243,-0.51985,-0.08613,11.7,-26.1,-11.0
66.8238,114.9581,-6.629340498464535,-7.099041252652652,-4.166988098058431,-0.72876,-0.40561,-0.07575,11.7,-26.2,-11.1
66.8429,114.9781,-6.5275574018526275,-7.353918938733187,-4.458100772210227,-0.32315,-0.09774,-0.14233,11.7,-26.2,-11.1
66.8674,114.9981,-6.365085839517392,-7.5028333169189185,-4.819491474056342,0.22297,0.0788,-0.19914,11.7,-26.2,-11.3
66.8845,115.0181,-6.17679732361639,-7.466503415240222,-5.166050244464456,0.4722,-0.16616,-0.13561,11.7,-26.2,-11.5
66.9052,115.0381,-5.972605297065962,-7.261487711441957,-5.441544497117346,0.39279,-0.22602,0.011,11.7,-26.2,-11.6
66.9284,115.0581,-5.764107181168644,-6.935199793251453,-5.599467828845798,0.3598,-0.05376,0.146,11.7,-26.2,-11.6
66.9443,115.0781,-5.5449153845230885,-6.555719998195956,-5.613712215235357,0.34819,-0.06048,0.19548,11.7,-26.2,-11.6
66.9688,115.0981,-5.341147154331503,-6.214263209057358,-5.583413156203238,0.37996,-0.14966,0.19853,11.7,-26.2,-11.8
66.9868,115.1181,-5.151167852760012,-5.920330745820183,-5.4954300589465745,0.41783,-0.2755,0.14172,11.7,-26.2,-11.9
67.0042,115.138,-4.995237025689415,-5.682091478304888,-5.405993045982538,0.30543,-0.32865,0.06781,11.7,-26.2,-12.1
67.0228,115.158,-4.881727870101436,-5.4872998091244245,-5.341193715709695,0.1857,-0.21625,0.03054,11.8,-26.2,-12.1
67.0431,115.178,-4.812526418662036,-5.323150587419031,-5.309085764691606,0.09957,-0.01649,-0.0507,11.8,-26.2,-12.2
67.0707,115.198,-4.78661793754119,-5.18944410734794,-5.306929113066531,0.03848,0.08796,-0.07025,11.8,-26.2,-12.3
67.0887,115.218,-4.817446746741613,-5.083885940208416,-5.324125651270603,0.06353,-0.00428,-0.03604,11.7,-26.1,-12.4
67.1034,115.238,-4.892608117288182,-5.017821579281795,-5.330005350173022,0.15333,-0.05864,0.05009,11.8,-26.1,-12.3
67.1255,115.258,-5.006909351348025,-5.006290614826083,-5.310824400274896,0.19609,-0.09591,0.17837,11.8,-26.1,-12.3
67.1461,115.2781,-5.137107455370219,-5.0490913833156,-5.230969855994491,0.20403,-0.13011,0.23335,11.9,-26.1,-12.3
67.1755,115.2981,-5.282601741944754,-5.1521117666179554,-5.106963391949868,0.23457,-0.06658,0.26878,11.9,-26.2,-12.2
67.1894,115.3181,-5.40887482611024,-5.293335720262855,-4.906754067751812,0.18021,0.08369,0.20036,11.9,-26.2,-12.0
67.2035,115.3382,-5.542878610093428,-5.466286461066376,-4.696863455081168,0.15699,0.13928,0.09041,12.0,-26.3,-11.9
67.2246,115.3582,-5.694315340158118,-5.661607025442702,-4.520645582878115,0.23396,0.05742,0.07453,12.0,-26.4,-11.9
67.2512,115.3782,-5.868287145258585,-5.86111325906599,-4.3969712033030275,0.29138,-0.02077,0.13683,12.0,-26.4,-11.9
67.2657,115.3982,-6.048654718573294,-6.020616305755865,-4.277822177903647,0.30421,0.00733,0.12462,12.0,-26.5,-11.7
67.2856,115.4183,-6.226256235969147,-6.171890775526946,-4.189151606230067,0.28955,0.06536,0.03726,12.1,-26.6,-11.4
67.3045,115.4383,-6.388533231179585,-6.319850858731258,-4.115808082818477,0.28772,0.12217,-0.03176,12.1,-26.6,-11.3
67.3248,115.4583,-6.532287752457109,-6.488558041174465,-4.077998482274133,0.3146,0.14478,0.01466,12.1,-26.6,-11.2
67.3437,115.4784,-6.6672861871864235,-6.667078834740863,-4.088687855000245,0.29138,0.07941,0.06048,12.2,-26.7,-11.0
67.3989,115.4984,-6.820326813660593,-6.843359906918202,-4.204579064553757,0.17287,0.03543,0.05376,12.3,-26.8,-10.8
67.4006,115.5184,-6.90481004563983,-6.9984351194152215,-4.35844380984488,-0.14783,-0.22969,-0.011,12.3,-26.9,-10.6
67.4094,115.5384,-6.959418765218181,-7.087358473812183,-4.603563164443531,-0.47709,-0.57788,-0.04887,12.3,-27.0,-10.5
67.4255,115.5585,-6.951546887702683,-7.093350051352456,-4.919200278797517,-0.36285,-0.21136,-0.13806,12.3,-27.0,-10.4
67.4454,115.5785,-6.8513405189911785,-7.037889281439947,-5.289435918978167,0.12095,0.48442,-0.20342,12.4,-27.0,-10.3
67.4725,115.5985,-6.674567117087903,-6.92071576440483,-5.66269572744134,0.30727,0.6634,-0.16982,12.5,-27.1,-10.1
67.4846,115.6186,-6.556313147001933,-6.680919675188924,-6.0148640742682975,-0.03971,0.39767,-0.05437,12.6,-27.1,-10.1
67.5039,115.6386,-6.4558734191663945,-6.412242920320963,-6.280937342022256,-0.33475,0.04704,0.07147,12.6,-27.1,-9.9
67.5244,115.6586,-6.3793455136872526,-6.183448334284452,-6.466860483367894,-0.22235,0.01161,0.10996,12.7,-27.1,-9.8
67.5488,115.6786,-6.309466568045038,-6.049643697172527,-6.583773282469707,-0.03726,0.00672,0.18815,12.8,-27.2,-9.7
67.5672,115.6987,-6.224483538817156,-6.024910367944835,-6.636921858443275,-0.01283,-0.03787,0.21991,12.9,-27.2,-9.7
67.5838,115.7187,-6.136555060964496,-6.056692707737199,-6.6344805135994065,-0.01955,-0.0171,0.19731,12.9,-27.2,-9.9
67.6045,115.7387,-6.054311492382546,-6.089924725562782,-6.595687119697849,-0.00305,-0.03299,0.15882,12.9,-27.2,-9.9
67.6259,115.7588,-5.967720408273617,-6.091375874992246,-6.529191744014945,-0.00916,-0.01283,0.11912,12.9,-27.2,-9.9
67.644,115.7788,-5.868586829903436,-6.047225643164304,-6.440794604027039,0.0788,0.11973,0.09896,12.9,-27.2,-10.0
67.6662,115.7988,-5.758798066490543,-5.963718826775458,-6.3374257286955595,0.15577,0.30299,0.10568,13.0,-27.1,-10.0
67.6832,115.8188,-5.662355012740425,-5.848014148252304,-6.219402828447974,0.17104,0.28344,0.16066,13.0,-27.0,-10.1
67.7038,115.8389,-5.594970177905936,-5.741451937730456,-6.106064653101629,0.28283,0.13561,0.1631,13.1,-27.1,-10.1
67.7272,115.8589,-5.575643762596402,-5.67647022995496,-6.008361361199768,0.39156,-0.07269,0.1741,13.1,-27.1,-10.0
67.7445,115.8789,-5.599647659881781,-5.66001108935651,-5.890956889328075,0.42577,-0.28527,0.16493,13.1,-27.2,-9.9
67.7669,115.8989,-5.6696757749857545,-5.7115486474525206,-5.786528692066777,0.36163,-0.22174,0.03543,13.1,-27.2,-9.9
67.7855,115.9189,-5.784925718648754,-5.795242186312276,-5.676147808925221,0.18876,-0.06048,-0.15455,13.1,-27.3,-9.8
67.81,115.9388,-5.945756536918611,-5.891951673822572,-5.58538085998291,0.1069,-0.09957,-0.23824,13.2,-27.4,-9.8
67.8249,115.9588,-6.165411459446222,-5.9510198088512105,-5.514190952482647,0.14294,-0.38668,-0.22663,13.2,-27.4,-9.6
67.8451,115.9788,-6.414554613572215,-5.973774600620936,-5.458897537845403,0.14844,-0.46181,-0.15821,13.2,-27.4,-9.5
67.8677,115.9988,-6.655916040381727,-5.977813225389543,-5.397212662759276,0.04887,-0.31215,-0.14478,13.2,-27.4,-9.5
67.8869,116.0188,-6.849918187863567,-6.016411771209417,-5.322838623267176,-0.06048,-0.05253,-0.13683,13.3,-27.5,-9.4
67.9048,116.0388,-6.981722904588037,-6.146723789483277,-5.259019545254601,-0.15577,-0.04215,-0.12462,13.6,-27.5,-9.3
67.924,116.0588,-7.060664239098833,-6.393768254447035,-5.232404337192918,-0.26389,-0.10446,-0.10079,13.6,-27.6,-9.3
67.9437,116.0788,-7.116042730433328,-6.741882292918786,-5.270334652792983,-0.43433,-0.44349,-0.09224,13.7,-27.5,-9.3
67.9675,116.0988,-7.18534499424155,-7.125075392680444,-5.378987807272834,-0.75442,-1.05619,0.00489,13.8,-27.6,-9.3
67.9864,116.1188,-7.188785484085039,-7.570458447756717,-5.589293128864826,-0.76969,-1.10689,0.09835,13.9,-27.5,-9.3
68.0043,116.1388,-7.097747339004947,-7.976378027145594,-5.87213705335896,-0.2926,-0.60598,-0.03665,14.0,-27.5,-9.4
68.0253,116.1588,-6.8971574491533,-8.238676088136183,-6.188450268320872,0.33781,-0.09407,-0.1912,14.0,-27.4,-9.6
68.0437,116.1788,-6.621496732623477,-8.2601495075584,-6.4638513204554044,0.44593,-0.04704,-0.20892,14.1,-27.3,-9.9
68.0719,116.1988,-6.3115922672085345,-8.041724328687245,-6.6747379110528895,0.26695,-0.14661,-0.19548,14.2,-27.3,-10.1
68.1055,116.2188,-6.041994846218166,-7.609116930988065,-6.791950533960538,0.22174,-0.1741,-0.14355,14.3,-27.2,-10.2
68.109,116.2388,-5.788705435474508,-7.055890527165486,-6.736017733210387,0.30482,-0.18998,0.0507,14.3,-27.1,-10.4
68.1238,116.2588,-5.567397094836297,-6.516244656065975,-6.65167549705069,0.38118,-0.38668,0.19303,14.4,-27.0,-10.6
68.145,116.2788,-5.374820509347626,-6.056490446737266,-6.545533217660829,0.42089,-0.43494,0.11484,14.4,-26.9,-10.8
68.1727,116.2988,-5.208027394542796,-5.705893951811587,-6.417673638666711,0.41172,-0.29383,-0.07025,14.4,-26.9,-10.9
68.1864,116.3188,-5.0941251023287615,-5.420719832500365,-6.238431078814402,0.25901,-0.06536,-0.22541,14.5,-26.8,-11.0
68.2128,116.3388,-5.033504861905316,-5.234627637811804,-6.0781927088955,0.09102,0.09102,-0.32009,14.4,-26.6,-11.2
68.2233,116.3587,-5.09884933856567,-5.102842280038729,-5.976161900140516,0.02077,0.07514,-0.29871,14.4,-26.5,-11.2
68.2529,116.3787,-5.225106467933946,-5.077906218580465,-5.918275669959057,0.04154,-0.08552,-0.27794,14.5,-26.5,-11.3
68.2666,116.3987,-5.447555723386856,-5.124987292305968,-5.916712858180331,0.1179,-0.18448,-0.23274,14.5,-26.5,-11.3
68.2832,116.4187,-5.713893634237482,-5.254515096683236,-5.944984125585125,0.14783,-0.34086,-0.14111,14.6,-26.4,-11.3
68.3032,116.4387,-5.992257909466551,-5.446614913525738,-5.980000204023771,0.11851,-0.30849,-0.05253,14.6,-26.4,-11.3
68.3281,116.4587,-6.246902250416631,-5.680484959909287,-6.000193339859582,0.08552,-0.08247,-0.06231,14.7,-26.3,-11.2
68.3431,116.4787,-6.460031348192111,-5.924378644232947,-5.994461630590484,0.07269,0.12523,-0.06536,14.8,-26.3,-11.0
68.3641,116.4987,-6.615274012460465,-6.168949793713088,-5.974682900880734,0.17349,0.3146,-0.03604,14.9,-26.3,-10.9
68.3848,116.5187,-6.730097475329192,-6.380662473596206,-5.947286333491423,0.27855,0.30421,0.04276,14.9,-26.2,-10.9
68.4032,116.5387,-6.820993771395122,-6.536491005386398,-5.900316869084332,0.36163,0.17715,0.16493,15.0,-26.2,-10.8
68.4234,116.5587,-6.89531297412217,-6.645524684242858,-5.8315242031150145,0.405,0.05559,0.24984,15.1,-26.2,-10.8
68.4441,116.5787,-6.951313972502703,-6.727478525627375,-5.7291520094148645,0.33109,-0.02443,0.29322,15.2,-26.1,-10.7
68.468,116.5987,-6.985545406139187,-6.81965591418296,-5.615696294412276,0.31215,0.09224,0.27794,15.4,-26.2,-10.4
68.4857,116.6187,-6.994020836011886,-6.927426784738599,-5.4862359856383875,0.38179,0.18937,0.18021,15.6,-26.2,-10.3
68.5038,116.6387,-6.995766189883936,-7.051959744930034,-5.401095557614018,0.29138,0.17898,0.1069,15.7,-26.2,-10.0
68.5304,116.6587,-7.004501577155847,-7.163857311924811,-5.391738991636968,0.10507,0.11545,0.07147,15.8,-26.2,-9.9
68.5464,116.6787,-7.016627001132929,-7.221473173772606,-5.458091290881825,-0.12706,0.03726,0.04581,15.8,-26.2,-9.8
68.5714,116.6987,-7.01749202625854,-7.1902166799385245,-5.586750263545196,-0.38118,-0.1857,-0.04887,15.9,-26.2,-9.6
68.597,116.7187,-6.966524650307759,-7.098224442424947,-5.794251121326588,-0.36896,-0.04276,-0.14783,15.9,-26.2,-9.5
68.6057,116.7387,-6.895107461837489,-6.9408985432605945,-6.109939716994498,-0.04215,0.34575,-0.19975,15.9,-26.3,-9.3
68.6264,116.7586,-6.775515935507233,-6.73689622299348,-6.430301865524548,0.23579,0.3934,-0.17715,16.0,-26.3,-9.1
68.6479,116.7786,-6.672441920387562,-6.488814374540768,-6.731378466584671,0.11912,0.07514,-0.05131,16.1,-26.2,-8.9
68.6665,116.7986,-6.6032792452364015,-6.244148898264529,-6.975304564515207,-0.10201,-0.08796,0.12278,16.3,-26.2,-8.8
68.686,116.8186,-6.559001143455612,-6.072048479608624,-7.155894817791557,-0.13195,-0.01344,0.21075,16.4,-26.2,-8.6
68.704,116.8386,-6.521559283301409,-6.019810728600637,-7.286325849641174,-0.16249,-0.08919,0.18204,16.4,-26.2,-8.6
68.7246,116.8586,-6.488526175653095,-6.071849687343729,-7.383819523972279,-0.23518,-0.14844,0.10568,16.5,-26.2,-8.4
68.775,116.8786,-6.482869168627676,-6.14236796628691,-7.450957058052815,-0.16799,-0.07697,0.05864,16.5,-26.2,-8.4
68.7803,116.8986,-6.424080364419788,-6.25072676871046,-7.516666064682031,-0.0391,-0.13011,0.07941,16.4,-26.2,-8.6
68.791,116.9186,-6.354605388211053,-6.277143776165662,-7.549810542000394,0.07453,-0.10629,0.15088,16.3,-26.1,-8.5
68.8069,116.9387,-6.2681906365004245,-6.199281102453942,-7.54099389686473,0.13989,0.01283,0.20953,16.3,-26.1,-8.6
68.825,116.9587,-6.165865700546848,-6.032227533902009,-7.479810919611753,0.20403,0.08552,0.23702,16.3,-26.1,-8.7
68.8512,116.9787,-6.068143619208899,-5.825595192643903,-7.393218656760086,0.31337,0.04093,0.25045,16.4,-26.0,-8.6
68.8664,116.9988,-5.995027641680916,-5.62051467409085,-7.23720296866761,0.39156,-0.0452,0.23457,16.4,-26.0,-8.6
68.8871,117.0188,-5.982647209761925,-5.487001425412139,-7.090932651869117,0.38301,-0.11301,0.21747,16.4,-26.0,-8.6
68.911,117.0388,-6.0494021789832235,-5.4565469010028105,-6.962823420783697,0.30177,-0.24679,0.19426,16.3,-26.0,-8.7
68.9249,117.0588,-6.1814520853923725,-5.538956507738069,-6.830824414958201,0.0843,-0.27672,0.13134,16.3,-26.1,-8.8
68.9442,117.0789,-6.389191396167176,-5.710661718584249,-6.73179178195959,-0.01283,-0.24496,0.06658,16.2,-26.2,-8.9
68.9694,117.0989,-6.652739078162126,-5.926585737691829,-6.647005924570346,0.03299,-0.28222,-0.05559,16.1,-26.2,-8.9
68.9943,117.1189,-6.940895128541583,-6.151308659298688,-6.5697558621188685,-0.08919,-0.2865,-0.10568,16.0,-26.2,-8.9
69.0067,117.139,-7.207962974477813,-6.375801898525513,-6.495807856738677,-0.04398,-0.32009,-0.02321,16.0,-26.2,-8.9
69.0308,117.159,-7.431731484681154,-6.600712105476517,-6.4475071310772485,0.18326,-0.20769,0.03482,15.9,-26.2,-9.0
69.0452,117.179,-7.575718192473627,-6.842081549548409,-6.39733426376633,0.19303,-0.14294,0.02688,15.9,-26.2,-8.9
69.0713,117.199,-7.653827926907986,-7.105958119749636,-6.377390223411794,-0.05559,-0.24129,-0.05315,16.0,-26.3,-8.7
69.0872,117.2191,-7.666700115660495,-7.405462590452015,-6.4022311355271135,-0.35858,-0.50091,-0.14111,16.0,-26.3,-8.9
69.1178,117.2391,-7.701069587965327,-7.625230653779415,-6.423965493921054,-0.74159,-0.8998,-0.12706,16.0,-26.3,-9.1
69.1269,117.2591,-7.59362466307622,-7.9840121013604906,-6.638617102998635,-0.82772,-0.83566,-0.11606,15.9,-26.3,-9.3
69.1488,117.2792,-7.434209435265118,-8.246157018710917,-6.851718623937931,-0.50763,-0.33659,-0.24435,16.0,-26.3,-9.6
69.1693,117.2992,-7.1640012478296855,-8.422958851560198,-7.091445507773481,0.00611,0.28894,-0.31826,15.9,-26.3,-9.9
69.1946,117.3192,-6.812218393817099,-8.442446117308616,-7.2861335383804535,0.19303,0.47342,-0.33353,15.9,-26.2,-10.1
69.2086,117.3392,-6.530105302061969,-8.212862980049016,-7.417745005452682,0.12034,0.22174,-0.26817,16.0,-26.1,-10.2
69.2254,117.3593,-6.293845581743769,-7.827390912100992,-7.476055668703541,0.10996,-0.12828,-0.17165,16.2,-26.0,-10.4
69.2448,117.3793,-6.111347069719288,-7.371442001686246,-7.4897273229232635,0.29688,-0.33048,-0.01344,16.3,-25.8,-10.5
69.2671,117.3993,-5.963159459441991,-6.934403343864134,-7.480372097341803,0.45265,-0.39951,0.08002,16.4,-25.7,-10.7
69.2945,117.4194,-5.831202869119206,-6.57094352586433,-7.457848897005308,0.38485,-0.32987,0.08063,16.5,-25.6,-10.9
69.3107,117.4394,-5.700292619428784,-6.278209323408496,-7.370067821686061,0.22663,-0.18998,-0.00733,16.6,-25.6,-11.1
69.3248,117.4594,-5.5903399918749725,-6.042766915527901,-7.281241297557564,0.1576,-0.13195,-0.10263,16.7,-25.5,-11.2
69.345,117.4794,-5.508756098836118,-5.8493264551319335,-7.218972396259727,0.12401,-0.12584,-0.12278,16.7,-25.4,-11.5
69.3715,117.4995,-5.463710795940361,-5.68957381017175,-7.197244246816446,0.18876,-0.13744,-0.03482,16.7,-25.3,-11.7
69.3845,117.5195,-5.457341413249879,-5.550469641908509,-7.168425273345598,0.31337,-0.11851,0.02199,16.8,-25.2,-11.8
69.4055,117.5395,-5.493251631257251,-5.465318067063583,-7.1560080943960145,0.38423,-0.06781,0.03848,16.8,-25.1,-11.7
69.4476,117.5595,-5.576890373555799,-5.460965931807031,-7.161933951980442,0.27672,-0.01038,0.01405,16.9,-25.1,-11.6
69.449,117.5794,-5.711065339539976,-5.501735925449576,-7.075253080510453,0.12584,-0.04154,0.02627,16.9,-25.0,-11.5
69.4724,117.5994,-5.900423199153342,-5.633127103835403,-6.998382206103701,0.05009,-0.11606,0.01466,17.1,-25.0,-11.4
69.4851,117.6194,-6.122022063358419,-5.848708739655978,-6.920498882779211,0.10263,-0.05864,0.03176,17.2,-25.0,-11.4
69.505,117.6394,-6.3571423870484125,-6.134402261173366,-6.86888566309956,0.25595,-0.03054,0.08063,17.2,-25.0,-11.4
69.5261,117.6594,-6.579985631001873,-6.451220520561364,-6.826091697623293,0.45021,0.18998,0.07025,17.1,-25.1,-11.4
69.544,117.6794,-6.7852274350479425,-6.735170495933551,-6.751177360349054,0.43494,0.23702,0.06292,17.2,-25.1,-11.4
69.567,117.6994,-6.971224931118666,-6.960798522125464,-6.654316427792487,0.27917,0.09041,0.0507,17.2,-25.1,-11.3
69.5852,117.7194,-7.142495823212206,-7.107732914780881,-6.52451403088441,0.21747,0.00977,0.0452,17.2,-25.1,-11.3
69.6105,117.7394,-7.286738825585303,-7.226333815446901,-6.431800177404913,0.27855,0.08796,0.04032,17.3,-25.2,-11.1
69.6247,117.7594,-7.410643181977248,-7.320629228421296,-6.372720590541977,0.35308,0.22358,0.02871,17.3,-25.2,-10.9
69.6488,117.7794,-7.499386572635249,-7.449091555366689,-6.428575214746408,0.30971,0.31276,0.03848,17.4,-25.2,-10.8
69.6665,117.7994,-7.593810704213141,-7.544634344341944,-6.56539813175643,0.12401,0.23274,0.03543,17.5,-25.3,-10.7
69.6837,117.8194,-7.688977050560069,-7.593331532644551,-6.797611702603357,-0.20769,-0.17165,0.0281,17.5,-25.3,-10.5
69.7047,117.8394,-7.77165253626413,-7.5661312935500105,-7.111763098550728,-0.54672,-0.82222,0.03176,17.6,-25.3,-10.5
69.7242,117.8594,-7.76774571074651,-7.499391611063524,-7.505550419753964,-0.40928,-0.73548,0.05803,17.6,-25.3,-10.6
69.7435,117.8794,-7.643801877478607,-7.3883413388792345,-7.920078840619571,0.36896,0.2419,0.08735,17.6,-25.3,-10.7
69.7683,117.8994,-7.4179774427256575,-7.217682929718746,-8.28925183008802,0.57421,0.5003,0.1741,17.6,-25.4,-10.8
69.7864,117.9194,-7.177805692732944,-6.9435564760595785,-8.501862770740495,0.2474,0.17715,0.29566,17.6,-25.4,-10.8
69.8054,117.9394,-6.967268861651292,-6.620497821103918,-8.585875555661389,-0.0391,-0.13073,0.36957,17.7,-25.5,-10.8
69.825,117.9594,-6.797300888087321,-6.323840783364821,-8.58631633382786,0.0391,-0.2364,0.43738,17.6,-25.5,-10.7
69.8443,117.9794,-6.652616017053958,-6.119703018524249,-8.551163531647607,0.14844,-0.27428,0.43799,17.6,-25.6,-10.7
69.8715,117.9993,-6.541802751992932,-6.003714546046305,-8.525303506312927,0.06903,-0.2474,0.30543,17.6,-25.6,-10.7
69.886,118.0193,-6.432874716287323,-5.965983251899481,-8.476975854350354,0.01894,-0.03848,0.14294,17.5,-25.7,-10.8
69.9063,118.0393,-6.357301136208854,-5.933666401876871,-8.440374988009182,0.07636,0.09041,0.06903,17.4,-25.8,-10.9
69.9244,118.0593,-6.321332635042463,-5.869209792771301,-8.408056918171305,0.12462,0.08613,0.06292,17.3,-25.9,-11.1
69.9452,118.0793,-6.328220012652685,-5.767021176139055,-8.379871697564266,0.12401,0.05253,0.10996,17.2,-25.9,-11.1
69.9699,118.0993,-6.376684037417697,-5.648710689665246,-8.351453286828345,0.13378,0.01466,0.16432,17.1,-25.9,-11.3
69.9844,118.1193,-6.450101879031821,-5.556296030331486,-8.29124436213589,0.15333,-0.00794,0.19181,17.1,-26.0,-11.5
70.0056,118.1393,-6.5493199476218935,-5.5239232045436415,-8.232420670934344,0.16677,-0.06414,0.16066,17.0,-26.1,-11.5
70.0242,118.1593,-6.6624497096369835,-5.5732081255154275,-8.169328533292632,0.15394,-0.09591,0.06536,16.9,-26.2,-11.5
70.0445,118.1793,-6.787707839076068,-5.700063377693586,-8.121961983746615,0.16493,-0.10751,0.04032,16.8,-26.3,-11.4
70.0696,118.1993,-6.921537195269316,-5.88266600079002,-8.099810255803785,0.22724,-0.07697,0.04765,16.8,-26.4,-11.4
70.0908,118.2193,-7.058936335784171,-6.083676895151508,-8.077731614005009,0.16371,0.00305,0.04093,16.7,-26.5,-11.5
70.1065,118.2393,-7.1988708855355075,-6.2679072862793985,-8.039658201235538,0.11668,-0.01894,0.03421,16.6,-26.5,-11.6
70.1245,118.2593,-7.340845896311425,-6.415214954356852,-7.982478302188448,0.1179,-0.05437,-0.07269,16.6,-26.6,-11.6
70.1518,118.2793,-7.488593640712194,-6.5171646888445744,-7.907130407576619,0.06597,-0.20159,-0.08063,16.5,-26.7,-11.6
70.1712,118.2993,-7.6354958208358985,-6.588209458916674,-7.805511333696817,0.10324,-0.25595,-0.011,16.5,-26.7,-11.7
70.185,118.3193,-7.763524664200172,-6.668476204094574,-7.6885581894074235,0.13256,-0.17287,0.05864,16.5,-26.8,-11.7
70.2045,118.3393,-7.858900547712077,-6.7984547284773615,-7.594148690302518,0.08369,-0.05253,0.09285,16.5,-26.8,-11.7
70.2253,118.3593,-7.9027317742509835,-7.001606722916075,-7.534112302635111,0.01466,0.09591,0.09774,16.5,-27.0,-11.7
70.2531,118.3793,-7.898901301486025,-7.254277477701985,-7.518862407797894,-0.11606,-0.01038,0.01649,16.4,-27.0,-11.7
70.2739,118.3993,-7.842632759271862,-7.533459484454351,-7.58780889097444,-0.32498,-0.42944,-0.06353,16.4,-27.0,-11.6
70.2861,118.4193,-7.699596001626219,-7.823109447797299,-7.761686371971328,-0.47281,-0.82284,-0.01038,16.3,-27.1,-11.5
70.3059,118.4394,-7.500182910310433,-8.015331366971365,-7.990862189215802,-0.28344,-0.73182,-0.00428,16.3,-27.1,-11.6
70.3275,118.4594,-7.199339340585028,-8.097177850963709,-8.24113712641302,0.10446,-0.45082,-0.12217,16.2,-27.1,-11.7
70.3504,118.4794,-6.8131790151848985,-8.02981404199762,-8.443965819547449,0.36346,-0.09468,-0.28039,16.2,-27.1,-11.7
70.3691,118.4995,-6.428865753348462,-7.775643776310629,-8.533679620867215,0.32315,-0.03482,-0.32803,16.2,-27.0,-11.8
70.385,118.5195,-6.123093690405932,-7.368208334886202,-8.51804273183109,0.14966,-0.08002,-0.29749,16.2,-27.0,-11.7
70.4048,118.5395,-5.924891035235036,-6.899684467530218,-8.442265759766807,0.04765,-0.12278,-0.33475,16.3,-27.0,-11.7
70.4263,118.5595,-5.848814922763899,-6.45521404085117,-8.352119393789158,-0.05986,-0.23702,-0.2981,16.4,-26.9,-12.0
70.4458,118.5796,-5.878571377280246,-6.106401479575553,-8.291296047050032,-0.14233,-0.3543,-0.25962,16.4,-26.8,-12.1
70.4683,118.5996,-5.984328153625445,-5.885160125053048,-8.272173626652311,-0.26023,-0.31887,-0.27672,16.5,-26.8,-12.2
70.4875,118.6196,-6.13366063190892,-5.78693673313047,-8.30343818456027,-0.23702,-0.30116,-0.28711,16.5,-26.7,-12.4
70.5123,118.6397,-6.294718258832085,-5.771922952435466,-8.348336726164847,-0.19242,-0.41478,-0.22969,16.6,-26.6,-12.5
70.525,118.6597,-6.43054874307538,-5.810367446814363,-8.400372855829781,-0.146,-0.39645,-0.15027,16.7,-26.4,-12.7
70.5475,118.6797,-6.530836598386525,-5.845008763695198,-8.40111574310406,-0.1179,-0.18265,-0.03421,16.8,-26.3,-13.0
70.5697,118.6997,-6.582907886712998,-5.861178046124609,-8.34626871801009,-0.05498,-0.06903,0.03176,16.9,-26.2,-13.3
70.5876,118.7198,-6.593738994903236,-5.85386702366654,-8.235150476250638,0.05681,-0.09346,0.03848,17.1,-26.1,-13.6
70.6058,118.7398,-6.586093592975321,-5.83130648507944,-8.08588931749718,0.15272,-0.08735,0.00977,17.2,-26.0,-13.8
70.6268,118.7598,-6.583170076543838,-5.8192784393874675,-7.928685000376926,0.17349,-0.00061,-0.07208,17.4,-25.9,-13.8
70.6452,118.7799,-6.609263881410598,-5.840623132662677,-7.789974157779641,0.10568,0.0171,-0.13683,17.5,-25.8,-13.9
70.6731,118.7999,-6.6689830030857005,-5.928434049004257,-7.702345557765941,0.01466,0.01649,-0.12706,17.6,-25.7,-13.9
70.6885,118.8199,-6.776750079403975,-6.076442453313454,-7.681598481474708,0.00672,0.04887,-0.03238,17.6,-25.7,-14.0
70.7057,118.8399,-6.912138778608782,-6.284070770318815,-7.7199381509820055,-0.01649,0.07941,0.011,17.7,-25.6,-14.2
70.7266,118.86,-7.064387289451153,-6.514629095828708,-7.793857647192661,-0.00611,-0.03787,-0.03176,17.7,-25.5,-14.2
70.7454,118.88,-7.224356085269347,-6.72177477369467,-7.876342414275247,0.03054,-0.32193,-0.12401,17.7,-25.5,-14.3
70.7698,118.9,-7.3863931334083635,-6.868549757376719,-7.951656770966409,0.07819,-0.56444,-0.12339,17.7,-25.5,-14.3
70.7866,118.9201,-7.524986458022187,-6.9575608484956835,-7.981701382387458,0.2022,-0.21747,-0.03543,17.8,-25.5,-14.3
70.8049,118.9401,-7.638350458308775,-7.0080787047419095,-7.981173955624044,0.22113,0.26878,0.0055,17.8,-25.5,-14.5
70.8259,118.9601,-7.729549715631251,-7.0500396427861665,-7.9665573495969575,0.0,0.46976,-0.01405,17.9,-25.5,-14.5
70.8458,118.9801,-7.828397447421715,-7.085453307867236,-7.978367434331949,-0.2193,0.43249,0.01283,17.9,-25.5,-14.6
70.8708,119.0001,-7.956026461170297,-7.101027571410717,-8.045310144374087,-0.41356,0.09713,0.05437,17.9,-25.5,-14.6
70.8846,119.0201,-8.066664378505465,-7.147648855407958,-8.270733502934998,-0.54428,-0.49786,0.1405,18.0,-25.5,-14.6
70.9204,119.0401,-8.242372456914605,-7.060064789755095,-8.56473917526639,-0.38973,-0.91141,0.26756,18.0,-25.5,-14.6
70.9471,119.0601,-8.26192820000732,-7.040629035638629,-8.946683149529424,-0.03115,-0.47892,0.29199,18.0,-25.5,-14.8
70.9502,119.0801,-8.13496673614993,-7.026303817904181,-9.261447681190047,0.18082,0.35736,0.20769,18.0,-25.5,-15.0
70.9743,119.1001,-7.924885732553823,-6.95823120952581,-9.5144914118039,0.18082,0.58032,0.10934,17.9,-25.5,-15.4
70.9908,119.1201,-7.7255855024810165,-6.781604678075827,-9.644749273208843,0.01466,0.27794,0.06842,17.9,-25.4,-15.4
71.0053,119.1401,-7.564103745140712,-6.54119437089034,-9.69017009356924,-0.19731,0.0507,0.15272,18.0,-25.4,-15.5
71.0266,119.1601,-7.450912948469662,-6.285778524200764,-9.69169100324695,-0.11668,-0.0562,0.29444,18.0,-25.4,-15.6
71.0566,119.1801,-7.3794125021537615,-6.054420083111853,-9.707367260303663,0.12034,-0.13989,0.41356,18.0,-25.4,-15.9
71.0739,119.2001,-7.276913544780393,-5.93610002187842,-9.685914180697523,0.21258,-0.20097,0.43982,18.0,-25.4,-16.1
71.0884,119.22,-7.163057760906623,-5.888729495407442,-9.63161001785595,0.15455,-0.24496,0.35308,17.8,-25.4,-16.3
71.108,119.24,-7.052437548640381,-5.869575761728009,-9.555317687373666,0.10263,-0.14905,0.15211,17.8,-25.4,-16.3
71.1253,119.26,-6.949036267437571,-5.8553632358716206,-9.446946112114338,0.0336,-0.02199,0.01466,17.8,-25.4,-16.5
71.1472,119.28,-6.87246108362882,-5.81913412196667,-9.328920953241923,-0.06597,0.11301,0.0507,17.7,-25.4,-16.5
71.1696,119.3,-6.834142958248228,-5.757745068176376,-9.230211217854528,-0.04276,0.14539,0.20036,17.7,-25.4,-16.7
71.1931,119.32,-6.834330608065855,-5.686903878607983,-9.163822059862815,0.16677,0.12278,0.1741,17.6,-25.4,-16.8
71.219,119.34,-6.864668093347649,-5.629506724796715,-9.119524833768029,0.31704,0.03054,0.09713,17.5,-25.5,-16.9
71.233,119.36,-6.926317243476265,-5.585749144931294,-9.04578315846682,0.25107,0.09163,0.04276,17.4,-25.6,-17.0
71.2521,119.38,-7.013076720835323,-5.567631498040756,-8.975691542335708,0.05192,0.16982,0.04276,17.5,-25.6,-17.0
71.2699,119.4,-7.126769492391226,-5.568760155732724,-8.921436264823212,-0.01527,0.09957,0.0672,17.5,-25.7,-16.9
71.2871,119.42,-7.258941661349773,-5.594013660128357,-8.906398225033607,0.10018,-0.07636,0.07758,17.4,-25.8,-17.0
71.3054,119.44,-7.39702004171609,-5.650769641662056,-8.935966680214955,0.2474,-0.14722,0.07636,17.4,-25.8,-16.9
71.3268,119.46,-7.530473830683789,-5.742892811049273,-8.995099049919594,0.26878,0.06292,0.07147,17.4,-25.9,-16.9
71.3506,119.48,-7.66173074466941,-5.858082449870195,-9.049825616493365,0.25717,0.16188,0.05253,17.4,-26.0,-16.6
71.3697,119.5,-7.803731204332634,-5.973450727356102,-9.070482786613804,0.16616,-0.06292,0.07636,17.4,-26.0,-16.4
71.4208,119.52,-7.996229906822953,-6.0437061447827825,-9.145098791153417,0.09407,-0.2755,0.13561,17.5,-26.1,-16.2
71.4259,119.54,-8.116287755459007,-6.203814291382137,-9.099849916273367,0.21747,-0.34147,0.21258,17.5,-26.2,-16.2
71.4359,119.56,-8.214139692118602,-6.392204845700909,-9.068994568010186,0.43127,-0.20464,0.21136,17.5,-26.3,-16.2
71.4471,119.5801,-8.269483601116665,-6.620016187415522,-9.050566041665249,0.45326,-0.00794,0.15882,17.5,-26.4,-16.1
71.472,119.6001,-8.274186366903816,-6.881175439558149,-9.085714887670806,0.18754,0.08247,0.01772,17.4,-26.5,-16.0
71.4862,119.6201,-8.252107718393468,-7.115119552808824,-9.119295817415885,0.02321,-0.13867,-0.08308,17.4,-26.6,-16.0
71.5065,119.6401,-8.213457623277531,-7.285955878199532,-9.186784788330852,-0.14294,-0.53878,-0.08613,17.4,-26.6,-15.8
71.5273,119.6602,-8.130514476835389,-7.3950399219943375,-9.296274101042693,-0.26817,-0.63469,-0.03054,17.4,-26.7,-15.8
71.5462,119.6802,-7.96377503011291,-7.457225556608599,-9.434701757488659,-0.0281,-0.23579,-0.05925,17.3,-26.7,-15.9
71.5684,119.7002,-7.70919023937159,-7.465221798734871,-9.573122237279886,0.3598,0.24007,-0.17349,17.3,-26.8,-15.9
71.5862,119.7203,-7.433929867421906,-7.370280070721316,-9.655973313289925,0.49419,0.32193,-0.22846,17.2,-26.8,-16.0
71.606,119.7403,-7.186012244502895,-7.178072646290465,-9.681301554029249,0.29505,0.07453,-0.12095,17.2,-26.8,-16.0
71.6269,119.7603,-7.00442572939328,-6.913114870470304,-9.656614880917815,0.13989,-0.15577,0.0281,17.2,-26.9,-16.1
71.6458,119.7803,-6.876804608426997,-6.6392168453124105,-9.608787908359687,0.17226,-0.30849,0.07697,17.1,-26.9,-16.3
71.667,119.8004,-6.781367255033273,-6.407357909462085,-9.57685812432879,0.08186,-0.23824,0.04276,17.0,-26.9,-16.4
71.688,119.8204,-6.701496685926544,-6.238740586958909,-9.561296835199919,0.29077,-0.11973,0.02138,16.9,-26.9,-16.5
71.7061,119.8404,-6.6400640010559115,-6.115426167563803,-9.533075757660884,0.36224,-0.07208,-0.01649,16.9,-26.9,-16.5
71.7264,119.8605,-6.599821412448918,-6.013543061040867,-9.480210463915336,0.13622,-0.02016,0.01894,16.9,-26.9,-16.4
71.7468,119.8805,-6.580700799733874,-5.915467970131847,-9.39889077483848,0.03238,0.11668,0.02443,16.8,-27.0,-16.4
71.7673,119.9005,-6.578804835721875,-5.81822685753492,-9.317149192262395,0.05131,0.16005,0.02321,16.8,-27.0,-16.3
71.789,119.9205,-6.592386961051969,-5.727060022265443,-9.262608741792954,0.31093,-0.03482,0.01466,16.8,-27.0,-16.3
71.8071,119.9406,-6.623658168854296,-5.646086533757158,-9.219416187802642,0.40867,-0.21197,-0.01038,16.9,-27.0,-16.4
71.8262,119.9606,-6.672184208562965,-5.585913896752652,-9.182254968014844,0.15272,-0.13744,-0.03115,16.9,-27.0,-16.3
71.8474,119.9806,-6.73584664723657,-5.557952265417108,-9.144366461291156,-0.07636,0.05986,-0.0843,17.0,-27.1,-16.1
71.8677,120.0007,-6.811567325466402,-5.574801194944654,-9.132474541863232,-0.17898,0.05131,-0.09163,17.1,-27.1,-16.0
71.8872,120.0207,-6.895382545888271,-5.644624819679886,-9.180455979773196,-0.15027,0.19242,0.01161,17.1,-27.2,-15.9
71.9065,120.0407,-6.982629591366083,-5.763298101324006,-9.288352842785802,0.33903,0.09468,0.07147,17.1,-27.2,-15.9
71.9314,120.0606,-7.069958274060483,-5.915330280082297,-9.43546190804442,0.44349,-0.10751,0.08002,17.2,-27.3,-15.7
71.948,120.0806,-7.152628088385481,-6.080196645468651,-9.512296701668985,0.24068,-0.18631,0.16677,17.3,-27.3,-15.6
71.9696,120.1006,-7.233555250631888,-6.237816540668488,-9.521530823271519,0.15394,-0.00855,0.14966,17.4,-27.4,-15.5
71.9868,120.1207,-7.306756505234889,-6.3776079775923415,-9.434194731460353,0.15638,0.03421,0.18204,17.5,-27.4,-15.5
72.0054,120.1407,-7.382497742490244,-6.479310565850052,-9.279867517008377,0.15088,0.13317,0.17837,17.5,-27.4,-15.4
72.0256,120.1607,-7.473590921850656,-6.533444025859744,-9.08794338014743,0.19548,0.26939,0.16127,17.5,-27.5,-15.3
72.0509,120.1807,-7.591189701916803,-6.547134262167727,-8.897501562504265,0.35186,0.22663,0.08491,17.6,-27.5,-15.4
72.0697,120.2007,-7.740129847618623,-6.533207744101864,-8.712789660152394,0.24251,0.12706,0.11057,17.6,-27.5,-15.2
72.0925,120.2206,-7.902968783572171,-6.529218169798601,-8.599723311093973,-0.01955,0.18387,0.15577,17.6,-27.5,-15.0
72.1086,120.2406,-8.060339474609403,-6.554170329509211,-8.602633635594977,-0.04215,0.36774,0.15882,17.7,-27.6,-15.0
72.1297,120.2606,-8.195123551774847,-6.598468819762034,-8.742510241536227,-0.14966,0.28161,0.14355,17.7,-27.7,-14.8
72.1479,120.2807,-8.282056699046832,-6.6412961077411925,-9.016742220100562,-0.31948,-0.35797,0.11973,17.7,-27.7,-14.9
72.1727,120.3007,-8.317360751750599,-6.620637759655509,-9.358047163943242,-0.37018,-0.55955,0.1124,17.7,-27.8,-14.9
72.1919,120.3207,-8.24395509285283,-6.556196688437922,-9.731656481405455,-0.27428,-0.1967,0.0843,17.7,-27.8,-14.7
72.2073,120.3408,-8.076105987242913,-6.40717155188199,-10.066373844024756,-0.0171,0.31948,0.09774,17.7,-27.9,-14.8
72.2313,120.3608,-7.846841918163215,-6.162931119916405,-10.319730925777996,0.2138,0.52534,0.09652,17.6,-27.9,-14.9
72.263,120.3808,-7.6213879943424505,-5.824871106424487,-10.479817097775365,0.28039,0.39645,0.18082,17.5,-27.9,-14.9
72.269,120.4008,-7.466877995170659,-5.428687052332488,-10.478941897699945,0.14233,0.08247,0.2981,17.4,-28.0,-14.9
72.2905,120.4209,-7.378454678306607,-5.077065538113405,-10.426226612521601,-0.10446,0.12339,0.3427,17.3,-28.1,-14.9
72.3089,120.4409,-7.3415273888269335,-4.863739675520424,-10.347744657523242,-0.08552,0.27122,0.36896,17.3,-28.1,-14.9
72.3267,120.4609,-7.347587662717172,-4.820666947757579,-10.28958799185316,-0.09835,0.12156,0.34331,17.3,-28.1,-14.9
72.3483,120.4809,-7.394545387218703,-4.918633962011912,-10.266560672750154,-0.22907,-0.12523,0.32376,17.3,-28.2,-14.9
72.368,120.501,-7.460915762173903,-5.118138169723462,-10.26505290676202,-0.24557,-0.21258,0.31826,17.2,-28.2,-15.1
72.3865,120.521,-7.527259264661399,-5.35438439348404,-10.257686420709724,-0.23152,-0.1631,0.28711,17.1,-28.3,-15.3
72.4078,120.541,-7.577197137169183,-5.559227654936809,-10.216408294074899,-0.3543,0.13195,0.19181,17.1,-28.3,-15.3
72.4269,120.5611,-7.586695834057877,-5.698708885301659,-10.149021396253659,-0.25717,0.27978,0.11301,17.0,-28.3,-15.5
72.4469,120.5811,-7.559997561557116,-5.747470781787582,-10.059368626181417,0.07269,0.30604,0.0336,16.9,-28.4,-15.5
72.471,120.6011,-7.513057864448871,-5.715167746306555,-9.95587925857252,0.21991,0.39218,0.00916,16.9,-28.4,-15.6
72.4935,120.6211,-7.485752222232591,-5.61434963603445,-9.836803514707459,0.11545,0.32926,0.06903,16.8,-28.5,-15.7
72.5077,120.6412,-7.494143274199818,-5.494956060995604,-9.705875729263088,0.04643,0.12706,0.15211,16.9,-28.6,-15.5
72.5274,120.6612,-7.539510826250938,-5.4116124228391325,-9.59585584547243,-0.04215,-0.04093,0.26206,16.9,-28.6,-15.5
72.5479,120.6812,-7.61131727697939,-5.409027527584484,-9.526708388195775,0.00733,-0.01649,0.31398,17.0,-28.7,-15.5
72.5685,120.7013,-7.6976134112575325,-5.5036705259944,-9.504361992095221,0.15149,-0.04276,0.23213,16.9,-28.7,-15.5
72.588,120.7213,-7.795434568874791,-5.673508980923377,-9.50874999774194,0.27794,0.0672,0.13989,16.9,-28.7,-15.5
72.6072,120.7413,-7.911202833233428,-5.872478803911728,-9.51243203717053,0.25656,-0.08063,0.10446,16.8,-28.8,-15.7
72.6271,120.7613,-8.050759127145696,-6.058651111982973,-9.494571510408774,0.08247,-0.11179,0.11973,16.8,-28.8,-15.7
72.6478,120.7814,-8.209748386550164,-6.213340710579465,-9.451544320240432,0.01466,-0.17898,0.14661,16.7,-28.9,-15.6
72.6673,120.8014,-8.36530729349989,-6.352451307492508,-9.397384797596047,0.06353,-0.35919,0.18815,16.7,-28.9,-15.6
72.6869,120.8214,-8.493116472493623,-6.502145811078812,-9.361979964966915,0.07758,-0.40561,0.05376,16.6,-29.0,-15.6
72.713,120.8415,-8.575348941295278,-6.683281905510161,-9.384653300679634,0.07514,-0.23213,-0.06903,16.5,-29.0,-15.6
72.7288,120.8615,-8.602146453841408,-6.900344722626732,-9.467811721661185,0.00428,-0.22541,-0.1295,16.5,-29.1,-15.6
72.7547,120.8815,-8.580072274791682,-7.131750017842341,-9.613495849542169,-0.27428,-0.12217,-0.2193,16.5,-29.1,-15.6
72.7749,120.9015,-8.521749283264981,-7.34284305405198,-9.87141338580125,-0.61331,-0.1124,-0.33842,16.3,-29.1,-15.7
72.7895,120.9215,-8.4155376300619,-7.508012577172765,-10.261622747934945,-0.77702,-0.55283,-0.4722,16.3,-29.1,-15.7
72.8105,120.9415,-8.263621163148693,-7.574650012222654,-10.663883287745636,-0.63163,-0.67928,-0.52473,16.2,-29.0,-15.9
72.8276,120.9615,-8.029014512920341,-7.5273826850840955,-11.072617896454823,-0.25901,-0.41478,-0.54795,16.1,-28.9,-16.0
72.849,120.9815,-7.712916378766063,-7.350748114679012,-11.376087779233263,0.17532,0.01894,-0.4496,16.1,-28.9,-16.3
72.8679,121.0015,-7.370705899636925,-7.037949235555956,-11.495347674187173,0.45448,0.0672,-0.2529,16.2,-28.7,-16.5
72.8884,121.0215,-7.054110902809796,-6.641323853229369,-11.411160303812922,0.46181,-0.02321,-0.12828,16.3,-28.7,-16.7
72.9066,121.0414,-6.817195548733909,-6.228347863288629,-11.154698299938243,0.23396,0.03848,-0.10079,16.4,-28.5,-16.7
72.9406,121.0614,-6.664763957910098,-5.881353048980327,-10.847795088696934,0.13011,-0.05803,-0.08796,16.4,-28.5,-17.0
72.9483,121.0814,-6.596842520970857,-5.654810178218844,-10.531349553692383,0.12462,-0.30971,-0.04276,16.5,-28.4,-17.1
72.9711,121.1014,-6.613111469330886,-5.5293769994678135,-10.320512168219206,0.05437,-0.53878,0.03726,16.6,-28.2,-17.2
73.0534,121.1214,-6.780948739832567,-5.359224750299373,-10.297279580238461,-0.00244,-0.52718,0.08796,16.8,-28.1,-17.3
73.0672,121.1414,-6.839016431279187,-5.403719273210034,-10.239467023333566,0.01955,-0.45021,0.04093,16.9,-28.0,-17.5
73.0718,121.1614,-6.880561024830965,-5.463600260358964,-10.20188726309467,0.03482,-0.32009,-0.03115,16.9,-27.9,-17.7
73.0735,121.1814,-6.9127199057617785,-5.4837222575960025,-10.156424125947563,0.06353,-0.07575,-0.09529,16.9,-27.8,-17.8
73.0843,121.2014,-6.934542922906949,-5.461633777473868,-10.090766526663385,0.1069,0.09652,-0.11484,17.1,-27.8,-18.0
73.0973,121.2214,-6.966839506767797,-5.4047207845738265,-10.01186783813822,0.18448,0.07086,-0.06475,17.2,-27.7,-18.1
73.1305,121.2414,-7.0241202893446975,-5.346135312735184,-9.974384983784011,0.22907,-0.00672,-0.00244,17.2,-27.7,-18.3
73.1566,121.2614,-7.135768128064038,-5.29691855124038,-9.938447725443195,0.19548,-0.09713,0.01222,17.3,-27.7,-18.4
73.1589,121.2814,-7.293323955495895,-5.291082458296256,-9.917972283208734,0.02321,-0.08063,-0.09591,17.2,-27.8,-18.4
73.1721,121.3014,-7.480710734829654,-5.344347362672556,-9.942098676435197,-0.09652,-0.00916,-0.16982,17.2,-27.8,-18.3
73.1964,121.3214,-7.665054767034704,-5.472986568903206,-10.00507641610081,0.01344,0.18692,-0.17593,17.2,-27.7,-18.3
73.2104,121.3414,-7.8612580117238995,-5.6143744138988385,-10.103777435809228,0.26878,0.39584,-0.11179,17.3,-27.7,-18.4
73.2271,121.3614,-8.042925416580365,-5.768869191911235,-10.21011285860701,0.42272,0.36652,-0.01222,17.3,-27.6,-18.4
73.2472,121.3814,-8.213152358657204,-5.912917720867374,-10.293832756895833,0.38729,0.10812,0.07453,17.3,-27.6,-18.4
73.2675,121.4014,-8.37976881684098,-6.037657420610965,-10.313556536268372,0.33048,-0.05681,0.09591,17.3,-27.6,-18.4
73.2879,121.4214,-8.539427258953234,-6.1585572482324835,-10.27054706528684,0.27794,0.10324,0.14783,17.3,-27.6,-18.4
73.3078,121.4413,-8.686894753634073,-6.290458837475025,-10.202688599167116,0.2193,0.41417,0.20281,17.3,-27.6,-18.3
73.3278,121.4613,-8.817390266406717,-6.435720228093399,-10.169252857182313,0.16554,0.47159,0.19975,17.4,-27.6,-18.1
73.3462,121.4813,-8.928530728095039,-6.577338935985842,-10.213187014067259,0.17349,0.33109,0.13806,17.5,-27.6,-17.9
73.3693,121.5013,-9.01163773966608,-6.690014314779501,-10.354690660101245,0.12339,0.15699,0.07941,17.6,-27.6,-17.8
73.3889,121.5213,-9.060935669944685,-6.7357579972807375,-10.570632157002068,-0.08491,-0.09224,0.02321,17.6,-27.6,-17.7
73.4769,121.5413,-9.231734555509597,-6.472515045840577,-10.690040655477514,-0.36102,-0.38973,0.09896,17.7,-27.6,-17.5
73.4797,121.5613,-9.094712790020234,-6.415900654521328,-11.016791706510308,-0.32559,-0.31337,0.20281,17.8,-27.6,-17.4
73.4822,121.5813,-8.873227688152786,-6.2689141698154796,-11.307657003321891,0.03665,0.18082,0.19181,17.8,-27.6,-17.2
73.4848,121.6013,-8.595081425784377,-6.0310004264689265,-11.520701043441008,0.36896,0.59376,0.12462,17.8,-27.7,-17.3
73.4937,121.6213,-8.284180934276089,-5.743112659072786,-11.655237737459265,0.33292,0.45571,0.06353,17.8,-27.8,-17.0
73.5361,121.6413,-7.950913084076033,-5.488871991565363,-11.72213115445736,0.0733,0.28955,0.04032,17.8,-28.0,-16.8
73.5391,121.6613,-7.720276740828385,-5.180393372914434,-11.724308100177947,-0.10873,0.19731,0.12584,17.9,-28.0,-16.7
73.5502,121.6813,-7.542600015128752,-4.9266122083166435,-11.713692528895141,-0.02932,0.0617,0.18448,17.9,-28.1,-16.5
73.5879,121.7013,-7.4240821944835345,-4.697916426342849,-11.762198303268153,0.14783,-0.14661,0.27122,17.9,-28.2,-16.3
73.5897,121.7213,-7.309598895225441,-4.611647409962352,-11.725969343312421,0.29016,-0.21319,0.27489,17.9,-28.2,-16.1
73.6194,121.7413,-7.218412499738552,-4.545888847541699,-11.725524527252233,0.17715,-0.02993,0.17165,17.9,-28.3,-16.1
73.6266,121.7613,-7.148616656574275,-4.521569121943178,-11.629734006526595,0.05864,0.07269,0.09652,17.9,-28.3,-16.1
73.6467,121.7813,-7.09928676670561,-4.4968303976599895,-11.498750609342107,0.08796,0.07758,0.08796,17.9,-28.4,-16.0
73.6696,121.8013,-7.076171453753818,-4.4606723470800755,-11.348529386579038,0.08186,0.11118,0.16127,17.9,-28.5,-16.0
73.6866,121.8213,-7.08168498570232,-4.425217308515142,-11.191309588068803,0.13011,0.02443,0.2303,17.9,-28.5,-16.0
73.7079,121.8413,-7.118342155693029,-4.404601854638813,-11.054498571326729,0.27122,-0.03299,0.20403,17.8,-28.6,-15.8
73.7536,121.8612,-7.188378125396073,-4.407362215851148,-10.983960977464648,0.23335,0.02688,0.12889,17.7,-28.7,-15.8
73.7576,121.8812,-7.301871070285517,-4.461423811218996,-10.863802530871158,0.11912,0.00367,0.0843,17.7,-28.8,-15.6
73.7795,121.9012,-7.454058540132095,-4.5446789280476825,-10.813339736136983,0.13561,-0.07636,0.05131,17.7,-28.8,-15.5
73.7869,121.9212,-7.647075855297565,-4.654654841865219,-10.78867021489172,0.20708,-0.04093,0.06658,17.6,-28.9,-15.5
73.8067,121.9413,-7.870912463305927,-4.780563110512334,-10.828733030587248,0.24557,-0.06475,0.0843,17.6,-28.9,-15.4
73.8271,121.9613,-8.123430219846254,-4.912416993093539,-10.879795433032209,0.28344,-0.11851,0.05681,17.5,-29.0,-15.4
73.8476,121.9813,-8.396953938738205,-5.042312220482385,-10.910294333571454,0.12767,-0.21014,0.01344,17.4,-29.1,-15.5
73.8679,122.0013,-8.673511971627471,-5.173626015792845,-10.915909055008475,-0.00428,-0.30238,0.01405,17.3,-29.2,-15.5
73.8941,122.0214,-8.929168080253953,-5.313793134924658,-10.929226759360928,0.05009,-0.32926,0.01222,17.2,-29.2,-15.5
73.9119,122.0414,-9.12774119657934,-5.496781211331981,-10.966103756492661,0.11851,-0.22419,0.04459,17.2,-29.3,-15.4
73.9358,122.0614,-9.260073136020956,-5.706857080488648,-11.060133954569553,0.10629,-0.15577,0.05009,17.1,-29.4,-15.5
73.9474,122.0815,-9.311502422728852,-5.943900751510982,-11.19953578468566,-0.05559,-0.18937,0.01466,17.0,-29.4,-15.7
73.9702,122.1015,-9.308268425563465,-6.143069051543116,-11.36510436734702,-0.41783,-0.38973,-0.09957,16.8,-29.4,-15.7
73.9866,122.1215,-9.208947223746222,-6.319868441769127,-11.613885227573341,-0.58277,-0.71044,-0.20281,16.7,-29.5,-15.8
74.0068,122.1415,-9.024096208669889,-6.426852568673337,-11.900753984633024,-0.42394,-0.75136,-0.24496,16.7,-29.4,-15.9
74.0292,122.1616,-8.740389790347963,-6.452889454973207,-12.19680126448381,-0.0171,-0.43433,-0.25779,16.7,-29.4,-16.0
74.0467,122.1816,-8.385041254367184,-6.38065156242277,-12.412687974247689,0.26573,-0.06353,-0.18754,16.6,-29.5,-16.2
74.0673,122.2016,-8.009426773682142,-6.205172269016512,-12.486150311759548,0.15944,-0.28588,-0.14416,16.6,-29.4,-16.4
74.0939,122.2217,-7.657288209794734,-5.956093562606095,-12.40685675420989,0.03726,-0.38057,-0.16371,16.6,-29.4,-16.5
74.1154,122.2417,-7.3605913512644126,-5.679566600237188,-12.2021394148689,0.12767,0.00916,-0.02688,16.6,-29.3,-16.6
74.129,122.2617,-7.136094651030865,-5.415447999400452,-11.931373722169932,0.2138,0.06475,0.06658,16.6,-29.3,-16.9
74.1483,122.2817,-6.994135635104296,-5.177122953141735,-11.662251051761114,0.12095,-0.22602,0.08735,16.6,-29.3,-16.9
74.1694,122.3018,-6.931975161053094,-4.97442461749269,-11.41487298304483,-0.01161,-0.32254,0.09591,16.6,-29.2,-17.1
74.1879,122.3218,-6.923520433174129,-4.819011053652567,-11.202037855148362,-0.08674,-0.21075,0.07819,16.6,-29.2,-17.4
74.2079,122.3418,-6.946670134639225,-4.704654417223075,-11.03581154318485,-0.09468,-0.01955,0.08796,16.6,-29.2,-17.6
74.2276,122.3619,-6.982766071463662,-4.628295470106902,-10.921206941991441,0.02321,0.0562,0.11057,16.7,-29.2,-17.6
74.2476,122.3819,-7.028959262114789,-4.582946310819107,-10.85212444354446,0.1069,0.07391,0.10446,16.8,-29.1,-17.6
74.2693,122.4019,-7.09222727739775,-4.565408412288316,-10.815889260225175,0.09713,0.00428,0.13561,16.9,-29.1,-17.8
74.2938,122.4219,-7.182993050991577,-4.577166075764024,-10.798956677069185,0.10385,-0.19426,0.19364,16.8,-29.1,-17.8
74.3086,122.442,-7.292564942617222,-4.649196688652804,-10.780944306518805,0.07086,-0.22969,0.22785,16.8,-29.1,-17.9
74.328,122.462,-7.432869082629892,-4.758504758208589,-10.784548051235074,0.0171,-0.13622,0.13439,16.8,-29.1,-17.9
74.3489,122.482,-7.593525183014811,-4.90422379889258,-10.817536286643206,0.11301,-0.16066,-0.01772,16.8,-29.1,-17.9
74.3753,122.5021,-7.762366493811833,-5.075938221365166,-10.890464990497986,0.27489,-0.10873,-0.03054,16.8,-29.1,-17.9
74.4057,122.5221,-7.929423950932419,-5.263687027617917,-10.983704271371781,0.32987,0.11057,0.01038,16.7,-29.2,-17.9
74.408,122.5421,-8.135197521037746,-5.401305642421372,-11.02050614949922,0.21991,0.31765,-0.01161,16.7,-29.3,-18.0
74.4287,122.5621,-8.322155416763579,-5.544834723318188,-11.078712386140591,0.08308,0.22663,0.00061,16.7,-29.3,-17.8
74.4479,122.5821,-8.502275427142354,-5.672541075585331,-11.144839635271147,0.09346,-0.04948,-0.00244,16.7,-29.2,-17.6
74.469,122.6021,-8.656396523262714,-5.807320857284341,-11.233867691074337,0.18509,-0.2474,-0.05437,16.6,-29.2,-17.5
74.4864,122.6221,-8.772963972984344,-5.968409498550099,-11.3283259304601,0.23885,0.12339,-0.04459,16.6,-29.2,-17.3
74.5077,122.6421,-8.841875476893795,-6.163784523226428,-11.423137784868093,0.15394,0.70921,-0.01283,16.6,-29.3,-17.2
74.5266,122.662,-8.893461480977633,-6.331005592208157,-11.515275058206417,-0.06781,0.74342,-0.01161,16.5,-29.3,-17.4
74.5466,122.682,-8.940230803956334,-6.413944706211867,-11.62706351098461,-0.2248,0.45204,-0.0226,16.4,-29.2,-17.3
74.5685,122.702,-8.982361790716427,-6.358114616698924,-11.786503985140463,-0.27489,-0.09835,-0.08491,16.4,-29.2,-17.2
74.5871,122.722,-8.9750489736251,-6.1709198940057775,-12.005898516982375,-0.2022,-0.63652,-0.12645,16.5,-29.2,-17.2
74.6069,122.742,-8.883192038462033,-5.889033947239281,-12.233868816779447,0.03299,-0.51496,-0.07941,16.5,-29.2,-17.2
74.6275,122.762,-8.701577609712965,-5.564787348502473,-12.41077104800679,0.35858,0.29932,-0.04643,16.6,-29.1,-17.2
74.6526,122.782,-8.470846726679712,-5.234210692044229,-12.501595504313348,0.35186,0.55589,-0.04093,16.6,-29.1,-17.2
74.6684,122.802,-8.280437166017048,-4.877746300965752,-12.497539391020817,0.02993,0.20097,0.01894,16.7,-29.0,-17.1
74.687,122.822,-8.137558939128365,-4.561943771752164,-12.462527346869692,-0.14172,-0.22541,0.1124,16.7,-29.0,-17.0
74.7079,122.842,-8.043586574528812,-4.331266472174974,-12.445343093281837,0.07453,-0.32009,0.18204,16.8,-28.9,-17.0
74.7324,122.862,-7.98333472271173,-4.217696489678469,-12.46393310639933,0.14661,-0.31704,0.2138,16.8,-28.9,-17.1
74.7476,122.882,-7.928557420283739,-4.247508962582456,-12.484699701837744,-0.0226,-0.1857,0.17471,16.9,-28.9,-17.3
74.7674,122.902,-7.880941386449985,-4.335653759474188,-12.489821812243125,-0.13928,0.02321,0.04826,17.0,-28.9,-17.4
74.7871,122.922,-7.823635461228932,-4.422585371245337,-12.464413441517618,-0.05864,0.05376,-0.04154,17.1,-29.0,-17.5
74.8347,122.942,-7.734056142452318,-4.4693054618185775,-12.42467345989429,0.09957,-0.06231,-0.04948,17.1,-28.9,-17.5
74.8395,122.962,-7.647057989712946,-4.437911269505827,-12.30310617515575,0.27917,-0.02627,-0.00305,17.3,-28.9,-17.5
74.8524,122.982,-7.54558594274656,-4.362117782487165,-12.156341680742882,0.36163,0.06292,0.09224,17.4,-28.9,-17.5
74.8763,123.002,-7.448266279902808,-4.268105213577786,-12.017579576096924,0.30116,0.11423,0.16616,17.4,-28.9,-17.6
74.8985,123.022,-7.391557224587662,-4.183456644200529,-11.87925682583657,0.26878,0.06414,0.17715,17.4,-29.0,-17.7
74.9213,123.042,-7.388436694622418,-4.130826272899342,-11.790583200879986,0.26389,-0.07697,0.12278,17.5,-29.0,-17.6
74.929,123.062,-7.447506720821803,-4.135756836294627,-11.744900357753506,0.25901,-0.23763,0.0171,17.5,-29.1,-17.6
74.9466,123.0819,-7.560370873465215,-4.185151283322833,-11.802717433087906,0.29199,-0.17898,-0.04704,17.5,-29.2,-17.6
74.968,123.1019,-7.720895552615997,-4.277363845212863,-11.922802090168888,0.35064,-0.07025,-0.07514,17.5,-29.2,-17.6
74.9877,123.1219,-7.927951361174643,-4.391120271067186,-12.04769272775098,0.31582,-0.07636,-0.03238,17.5,-29.3,-17.5
75.02,123.1419,-8.16634714535949,-4.498865818392204,-12.177205444305766,0.22297,-0.22541,-0.00183,17.5,-29.3,-17.4
75.0328,123.1619,-8.415322247205461,-4.631486167992616,-12.235793087623533,0.18998,-0.48686,-0.03238,17.5,-29.4,-17.3
75.0479,123.1819,-8.640810715710177,-4.784230615100974,-12.29162867876628,0.25534,-0.63041,-0.06964,17.5,-29.4,-17.1
75.0705,123.2019,-8.807741487325089,-4.978980141557386,-12.388262767260489,0.2755,-0.36957,-0.05559,17.5,-29.5,-17.1
75.1001,123.2219,-8.888281011103384,-5.255232225584111,-12.507962283696676,0.04337,0.09346,-0.11851,17.5,-29.5,-16.9
75.1123,123.2419,-8.912539117449692,-5.514127516334603,-12.69244932932984,-0.2474,0.32987,-0.29688,17.4,-29.6,-16.8
75.1269,123.2619,-8.873180325319343,-5.73753415033122,-12.934415088365526,-0.63408,0.11179,-0.52718,17.4,-29.6,-16.7
75.147,123.2819,-8.787379648995614,-5.864686370557224,-13.202973952750533,-0.76786,-0.61025,-0.58154,17.4,-29.7,-16.8
75.1755,123.3019,-8.642303200736578,-5.855439216402705,-13.484166371254707,-0.416,-0.83627,-0.5003,17.4,-29.6,-16.7
75.2006,123.3219,-8.377777985213996,-5.750574270055952,-13.745030268410165,0.14661,-0.36896,-0.39645,17.5,-29.5,-16.7
75.209,123.3419,-8.066145016844581,-5.567067044570655,-13.786902644209274,0.45632,0.28222,-0.23335,17.5,-29.5,-16.8
75.2274,123.3619,-7.715804832822727,-5.382015315971226,-13.604325755500108,0.29077,0.3769,-0.1912,17.6,-29.4,-16.8
75.2533,123.3819,-7.411149480296003,-5.209394123645079,-13.217192518984284,0.02077,0.20953,-0.14233,17.7,-29.3,-16.8
75.2824,123.4019,-7.220372098576159,-5.033665417882892,-12.73893354534155,0.01894,0.08063,0.02443,17.8,-29.2,-16.9
75.2967,123.4219,-7.1306524896722685,-4.913253687153275,-12.287131523930404,0.14294,-0.17593,0.21441,18.0,-29.1,-17.1
75.3083,123.4419,-7.117563867190157,-4.875676611313006,-11.941056380690913,0.04459,-0.54184,0.31704,18.1,-29.1,-17.2
75.3292,123.4619,-7.1803915590150975,-4.862738852634729,-11.737072062978164,-0.1179,-0.59254,0.29749,18.1,-29.0,-17.3
75.3583,123.4819,-7.266783037720603,-4.871737374105285,-11.648597602746321,-0.08858,-0.35919,0.10812,18.2,-28.9,-17.4
75.3692,123.5018,-7.321672591575757,-4.898544210044183,-11.649846737638862,0.00061,-0.146,-0.08735,18.3,-28.8,-17.4
75.3871,123.5218,-7.358136128872313,-4.871658105067327,-11.70368638677053,0.11057,-0.02382,-0.08552,18.4,-28.7,-17.7
75.4084,123.5418,-7.380227089367065,-4.777071359293957,-11.778525604389754,0.1967,-0.11545,0.06048,18.5,-28.6,-17.9
75.4267,123.5618,-7.398364565468034,-4.641266807326547,-11.830089863766908,0.24984,-0.21075,0.15577,18.6,-28.6,-18.0
75.4543,123.5818,-7.423070607170719,-4.49657017670228,-11.87020892319553,0.18692,-0.22907,0.10507,18.7,-28.5,-18.0
75.4794,123.6018,-7.457359554002483,-4.406589037248778,-11.884843079240596,0.12095,-0.18082,-0.03176,18.7,-28.5,-18.1
75.4878,123.6218,-7.519186942689009,-4.3830775613179425,-11.890321650454354,0.16188,-0.16982,-0.1014,18.7,-28.5,-18.1
75.507,123.6418,-7.614191729205306,-4.410965815995862,-11.945321351747602,0.21869,-0.11545,-0.08796,18.7,-28.5,-18.1
75.5459,123.6618,-7.735447056595282,-4.475903612238708,-12.090510166179634,0.28772,-0.011,-0.01222,18.7,-28.6,-18.3
75.5545,123.6818,-7.9250671560192965,-4.5554564210446875,-12.172277878281674,0.33537,0.05131,0.06658,18.6,-28.7,-18.4
75.5684,123.7018,-8.145449453321836,-4.642374219441298,-12.26193353435032,0.29871,0.07453,0.08308,18.5,-28.7,-18.4
75.5877,123.7218,-8.384863590040196,-4.7270126529364,-12.344961148824629,0.22724,0.11057,0.08552,18.5,-28.7,-18.4
75.6125,123.7418,-8.623995966133867,-4.804980267588712,-12.437682716783682,0.26389,0.0336,0.05315,18.4,-28.8,-18.3
75.6278,123.7618,-8.853803535433304,-4.886525428514209,-12.517185436182306,0.41172,-0.00611,0.06903,18.4,-28.8,-18.4
75.648,123.7818,-9.042560343871859,-4.977996876293896,-12.653866021828279,0.52534,0.15211,0.18082,18.4,-28.8,-18.3
75.668,123.8018,-9.190493155015078,-5.0793073221166996,-12.815188403245346,0.36469,0.26878,0.3091,18.4,-29.0,-18.2
75.6874,123.8218,-9.299789784279655,-5.165417100733853,-12.98140225397706,0.04215,0.24679,0.33292,18.3,-29.1,-18.2
75.7091,123.8418,-9.371294577253,-5.188095120096832,-13.147280848762474,-0.23396,-0.07391,0.2981,18.2,-29.1,-18.0
75.7336,123.8618,-9.383812603317343,-5.116953818916108,-13.324250508794725,-0.35858,-0.67684,0.25168,18.1,-29.2,-17.9
75.748,123.8818,-9.254650124328336,-5.0346056843243785,-13.533289063494712,-0.18143,-0.6017,0.26756,18.1,-29.3,-17.8
75.7715,123.9017,-9.017675013431289,-4.894059661179532,-13.732908639515514,0.28588,0.17287,0.24923,18.0,-29.4,-17.7
75.7869,123.9217,-8.727572295084666,-4.729691513301524,-13.82369254817235,0.47159,0.79657,0.18631,17.9,-29.5,-17.8
75.808,123.9417,-8.441937042937589,-4.545247062905681,-13.817717523499438,0.16799,0.5846,0.19914,17.8,-29.6,-17.7
75.8271,123.9617,-8.224700963746484,-4.331349782238516,-13.734892037493399,-0.25473,0.14233,0.25779,17.8,-29.7,-17.4
75.8465,123.9817,-8.061746363503357,-4.127812066895895,-13.648101215794783,-0.18021,-0.04643,0.38423,17.8,-29.8,-17.3
75.8678,124.0017,-7.916026099054472,-3.9716674164620627,-13.60353724284736,0.09957,-0.2303,0.44715,17.7,-29.8,-17.1
75.8873,124.0217,-7.750396103637038,-3.9039970799739945,-13.581893953036943,0.25962,-0.32254,0.42944,17.6,-29.9,-17.0
75.9064,124.0417,-7.563278730807602,-3.9072414955463612,-13.528691671901438,0.29383,-0.16982,0.35491,17.5,-30.0,-17.0
75.9263,124.0617,-7.368738176185073,-3.944136032481787,-13.401219436474856,0.24801,0.06475,0.2755,17.5,-30.2,-16.8
75.9472,124.0817,-7.188491292793299,-3.9780504344669243,-13.194494728468205,0.16799,0.15944,0.19609,17.3,-30.3,-16.8
75.9736,124.1017,-7.044203840326964,-3.983181610980971,-12.949790936397179,0.12156,0.15027,0.15149,17.2,-30.4,-16.7
75.9887,124.1217,-6.961696247819784,-3.9623303826809173,-12.699418498180137,0.17532,0.07147,0.17349,17.0,-30.5,-16.6
76.0078,124.1417,-6.948775911273428,-3.9231233068675597,-12.505372538030333,0.20831,-0.05315,0.22785,16.8,-30.6,-16.6
76.026,124.1617,-7.004913351631482,-3.8920285961501024,-12.38361621850279,0.16249,-0.13683,0.24679,16.6,-30.8,-16.6
76.0472,124.1817,-7.118089018925161,-3.878894878395032,-12.345946305634719,0.17043,-0.18998,0.16432,16.5,-30.9,-16.5
76.0685,124.2017,-7.269391389820124,-3.8947094615121,-12.374399218567739,0.19609,-0.22541,-0.00428,16.4,-31.0,-16.3
76.0914,124.2217,-7.443254005637611,-3.9304230759855807,-12.451570856312069,0.19303,-0.10751,-0.13317,16.3,-31.1,-16.1
76.1083,124.2417,-7.636491511318839,-3.9627491749935566,-12.551706802804821,0.12767,-0.02505,-0.13989,16.2,-31.2,-16.1
76.1279,124.2617,-7.835982743367581,-3.98541364511425,-12.67139940222744,0.09713,-0.04337,-0.09835,16.1,-31.4,-16.1
76.1473,124.2817,-8.037998985727667,-3.9965057122982315,-12.795838792796655,0.15577,-0.15699,-0.06048,16.0,-31.5,-16.1
76.1816,124.3016,-8.235420054664983,-3.9991668506020885,-12.926280517479977,0.14661,-0.3207,-0.10446,16.0,-31.6,-16.0
76.1921,124.3216,-8.419815756836421,-4.036124323490018,-13.023043769757217,0.03238,-0.44899,-0.1576,15.8,-31.8,-16.1
76.2066,124.3416,-8.581860128886623,-4.098407151467756,-13.116255757723305,-0.01772,-0.4496,-0.13989,15.8,-31.9,-16.0
76.2306,124.3616,-8.709759593702017,-4.185785123268635,-13.22817176094727,0.07147,-0.28344,-0.11301,15.8,-31.9,-16.0
76.2474,124.3816,-8.792396502488804,-4.307893138348304,-13.364823680586266,0.09774,-0.32681,-0.1124,15.8,-31.9,-16.1
76.268,124.4016,-8.830197117231455,-4.448813832997642,-13.53051783438233,0.0507,-0.36408,-0.12156,15.9,-32.0,-16.1
76.2874,124.4216,-8.83232353385214,-4.5935476165420335,-13.700782744721893,-0.10263,-0.3427,-0.15944,16.0,-31.9,-16.1
76.3078,124.4416,-8.80710886493946,-4.71545205376695,-13.85594678821015,-0.39218,-0.47037,-0.25168,16.1,-31.9,-16.1
76.3267,124.4616,-8.740652300385568,-4.793538147697805,-14.002161929443226,-0.58032,-0.6634,-0.27,16.2,-31.9,-16.1
76.3471,124.4816,-8.621373083305903,-4.8141838762893565,-14.122341462943545,-0.38301,-0.59315,-0.29199,16.2,-31.8,-16.2
76.3689,124.5016,-8.437209632816195,-4.783891754271293,-14.1976331389407,-0.00916,-0.36346,-0.30421,16.3,-31.7,-16.4
76.3866,124.5216,-8.215114215328569,-4.70615166534955,-14.190916580990274,0.16799,-0.0672,-0.28527,16.3,-31.7,-16.5
76.4066,124.5416,-7.997608730549844,-4.594639681921554,-14.092814134413715,0.08247,0.00794,-0.26512,16.4,-31.6,-16.7
76.4273,124.5616,-7.831068750307305,-4.456876630310097,-13.934248386901679,-0.03726,-0.12828,-0.16066,16.5,-31.4,-16.8
76.4484,124.5816,-7.733902403181773,-4.315046396320423,-13.773660175198026,-0.02382,-0.41844,-0.01161,16.5,-31.3,-16.9
76.4766,124.6016,-7.709792236061208,-4.177276914235315,-13.657805321622819,-0.04093,-0.55711,0.08552,16.6,-31.2,-17.1
76.4928,124.6216,-7.695305724580001,-4.128817357986189,-13.606589796277202,-0.08491,-0.48686,0.16371,16.7,-31.0,-17.2
76.5069,124.6416,-7.685679643202376,-4.126373370788139,-13.592847638722041,-0.01955,-0.36041,0.14905,16.7,-30.9,-17.5
76.5334,124.6616,-7.668757112279389,-4.109973195665355,-13.58701282761567,0.1405,-0.24801,0.06231,16.8,-30.8,-17.7
76.5579,124.6816,-7.618747143739316,-4.085452476508225,-13.534260540077955,0.16982,-0.11179,-0.01222,16.8,-30.8,-17.8
