AppTimestamp(s),SensorTimestamp(s),acc_x,acc_y,acc_z,gyro_x,gyro_y,gyro_z,mag_x,mag_y,mag_z,PitchX,RollY,YawZ,Quat_w,Quat_x,Quat_y,Quat_z
0.0962,48.1208,-1.66642,6.1485,7.43183,0.01222,0.02382,-0.0898,-33.2,49.3,35.5,42.102871,9.321093,-47.103889,0.86434940977246,0.358495,-0.073545,-0.344924
0.0991,48.1408,-1.73585,6.32328,7.64492,-0.10751,-0.09774,-0.0788,-33.2,49.3,35.7,41.945221,9.465902,-47.282406,0.8643119697677337,0.35766101,-0.072461,-0.346111
0.1016,48.1609,-1.56586,6.4406,7.67604,0.00672,-0.2303,-0.08613,-33.1,49.2,36.1,41.763699,9.435984,-47.409916,0.8643746904509871,0.35615799,-0.072449,-0.34750399
0.1053,48.181,-1.35277,6.59623,7.52281,0.06292,-0.44654,-0.2584,-33.1,49.2,36.2,41.712452,9.3098,-47.632347,0.8637491739064761,0.35525599,-0.073911,-0.349668
0.1064,48.201,-1.31925,6.70636,7.97054,0.16371,-0.8546,-0.47281,-33.1,49.2,36.5,41.693909,9.069138,-48.174545,0.8619717649110902,0.35402301,-0.077336,-0.35453001
0.1088,48.221,-1.41023,6.4837,8.05195,0.40684,-0.62614,-0.4722,-33.1,49.2,36.8,41.843494,8.673245,-48.993774,0.8587500504412794,0.35330501,-0.08337,-0.361626
0.1103,48.2411,-1.5491,6.2323,7.69999,0.3427,-0.50885,-0.32009,-33.1,49.2,37.0,42.176434,8.593226,-49.796204,0.8552803255661151,0.35487601,-0.087649,-0.367255
0.136,48.2611,-1.48206,6.26821,7.43901,0.18509,-0.91996,-0.21136,-33.1,49.2,37.1,42.405434,8.268242,-50.312866,0.8527654950913057,0.355084,-0.092506,-0.37168401
0.1526,48.2811,-1.45811,6.40708,7.41507,0.18509,-1.00548,-0.42089,-33.1,49.2,37.3,42.505085,7.582818,-50.809612,0.8503074423419917,0.35315001,-0.0995,-0.37730899
0.166,48.3011,-1.35037,6.42623,7.5276,0.1741,-1.50639,-0.52595,-33.2,49.2,37.3,42.578415,6.85184,-51.594395,0.8468431024538252,0.350539,-0.107593,-0.38523099
0.214,48.3212,-1.35277,6.31131,7.61379,0.23274,-1.8045,-0.57055,-33.2,49.3,37.2,42.666527,5.748692,-52.56002,0.8422292304039678,0.34646201,-0.118988,-0.39554501
0.2172,48.3412,-1.73345,6.43581,7.36958,0.22785,-1.84237,-0.4722,-33.3,49.4,37.0,42.802818,4.34621,-53.52602,0.8369423766481776,0.341474,-0.13267501,-0.406596
0.2259,48.3612,-2.14766,6.38314,7.27381,-0.0843,-0.76236,-0.35491,-33.3,49.4,36.8,42.900501,3.156172,-54.423447,0.832015427203258,0.336817,-0.144366,-0.41648901
0.2587,48.3812,-2.174,6.13174,7.9059,-0.13134,0.23396,0.01344,-33.5,49.5,36.6,42.639046,3.242465,-55.079578,0.8304363371124723,0.33443001,-0.144665,-0.42143101
0.274,48.4013,-2.26977,6.01681,8.01843,0.15088,0.41661,0.19364,-33.5,49.6,36.5,42.474083,3.927319,-55.238506,0.83114498129182,0.33556899,-0.139529,-0.42085999
0.2905,48.4213,-2.40625,6.26821,7.54436,0.19059,-0.04643,0.38668,-33.6,49.7,36.4,42.547646,4.442092,-55.142208,0.8319200685464558,0.33809599,-0.135795,-0.41852099
0.3114,48.4413,-2.49244,6.54595,7.41986,0.09468,-0.74342,0.41966,-33.8,49.7,36.2,42.623829,4.248188,-54.841206,0.8325833961625104,0.338292,-0.136609,-0.41677499
0.3265,48.4613,-3.02876,6.98649,7.779,0.15699,-0.28405,0.50335,-33.9,49.8,36.1,42.618961,3.678685,-54.550846,0.8329650538455978,0.336537,-0.139874,-0.41635001
0.3518,48.4813,-3.60817,7.1086,8.40869,0.36652,-0.79046,0.70433,-34.1,49.8,36.0,42.779633,3.224289,-54.137917,0.8334659475510802,0.33655301,-0.142575,-0.41441399
0.3728,48.5013,-3.7231,6.82608,9.1605,0.69394,-0.85338,0.90958,-34.3,49.8,35.8,43.199444,2.225524,-53.475361,0.8334218629178263,0.33682099,-0.149463,-0.41185001
0.3937,48.5213,-3.44536,6.5651,9.51964,1.1753,-0.30055,0.97494,-34.7,49.8,35.6,43.965782,1.192632,-52.612755,0.8329435821493072,0.33982199,-0.157232,-0.40743601
0.4056,48.5413,-3.3855,6.69439,9.14134,1.35673,0.56688,0.93951,-34.9,49.7,35.5,45.136837,0.935726,-51.711987,0.8323194375894749,0.34864399,-0.160583,-0.39988101
0.4257,48.5613,-3.46691,7.20677,8.43503,0.99327,0.89431,0.87109,-35.2,49.5,35.5,46.283512,1.552197,-50.872589,0.8326084018498732,0.360228,-0.157537,-0.390104
0.457,48.5813,-3.34241,7.49887,8.00646,0.36896,0.90164,0.59437,-35.5,49.4,35.5,46.933445,2.519073,-50.197399,0.8341914936243355,0.369082,-0.15061501,-0.38107499
0.4759,48.6013,-3.40466,7.69759,8.43024,-0.14722,0.90164,0.3708,-35.7,49.2,35.7,46.893024,3.749914,-49.960232,0.8366624939893386,0.373155,-0.140733,-0.37542701
0.4899,48.6213,-3.60578,7.25944,9.25387,-0.0226,0.85277,0.33231,-35.9,49.0,35.8,46.467491,5.066197,-49.911427,0.8396504903649373,0.37443799,-0.129457,-0.37151599
0.5066,48.6413,-3.84281,6.42863,9.68484,0.35736,1.00365,0.43371,-36.1,48.7,36.0,46.290775,6.414043,-49.877682,0.8417394723765305,0.37754801,-0.118833,-0.36716601
0.5256,48.6613,-4.11097,5.55232,9.6609,0.58887,1.17103,0.79107,-36.2,48.5,36.2,46.448097,7.729416,-49.622997,0.8433985009473635,0.38310701,-0.108876,-0.36063001
0.5548,48.6813,-3.96492,4.58982,9.26824,0.83811,1.46058,1.37628,-36.3,48.2,36.5,46.84177,8.813756,-48.720345,0.8460416871518683,0.39010701,-0.099235,-0.34954599
0.5688,48.7013,-3.15087,3.61775,8.5739,1.02625,1.73852,1.84665,-36.5,47.8,37.0,47.496536,9.562032,-46.936787,0.8500536856144204,0.39850301,-0.089843,-0.33246401
0.586,48.7213,-2.02556,2.78694,7.78858,1.11972,2.07633,2.08794,-36.7,47.4,37.3,48.293625,10.090302,-44.473099,0.8549781442001895,0.407554,-0.07993,-0.310682
0.6058,48.7413,-0.56026,2.18597,6.87636,1.11239,2.52348,2.17224,-36.9,46.9,38.0,49.106567,10.633205,-41.577225,0.8603656394576668,0.41672799,-0.068056,-0.28544199
0.6265,48.7613,1.0032,1.75261,5.97132,0.66218,2.62733,2.07267,-37.2,45.4,39.9,49.704193,11.363835,-38.417213,0.8663579709102582,0.42448699,-0.05276,-0.257781
0.6547,48.7813,2.43019,1.72627,5.18121,-0.10996,1.99692,2.07755,-37.2,44.2,41.5,49.645954,11.479229,-34.912605,0.874063853964377,0.42570299,-0.038717,-0.230847
0.6692,48.8012,3.72789,2.0495,4.95136,-0.81856,1.64017,1.9285,-37.6,43.0,42.8,48.697716,10.334644,-30.853668,0.8845358694874957,0.417649,-0.03013,-0.205567
0.6898,48.8212,4.84122,2.37751,5.18361,-1.15576,1.52594,1.40988,-38.9,42.8,42.7,47.059219,8.686425,-26.7759,0.8963767801545954,0.40333599,-0.024625,-0.18227001
0.7084,48.8412,5.39191,2.50441,5.50204,-1.2535,1.43309,0.9389,-39.0,42.6,42.1,45.117653,7.248193,-23.36348,0.9074596067974154,0.38675401,-0.020356,-0.162862
0.7257,48.8612,5.79175,2.59061,5.85879,-1.26449,1.22967,0.76541,-38.9,42.4,42.4,43.132305,5.914728,-20.484072,0.9173277359408468,0.36976799,-0.018054,-0.146477
0.7537,48.8812,6.20596,2.96411,6.11977,-1.15209,1.10444,0.697,-39.0,42.2,41.5,41.222176,4.427108,-17.856331,0.9260707154159449,0.353109,-0.018878,-0.131722
0.7673,48.9013,6.40708,3.5148,6.22033,-1.0006,0.96333,0.59498,-38.8,42.3,42.6,39.523434,2.947801,-15.43469,0.9334420260210379,0.33818701,-0.021401,-0.117718
0.7878,48.9213,6.36877,4.28815,6.32567,-0.92485,0.29566,0.52534,-39.4,42.1,42.3,38.046162,1.329763,-13.286898,0.9394136331627299,0.325008,-0.02681,-0.105608
0.8131,48.9413,6.40708,5.59542,6.61538,-0.89003,-0.43982,0.6127,-39.5,42.0,41.9,36.723209,-0.933537,-11.348458,0.9441517514324697,0.312695,-0.038839,-0.096389
0.8272,48.9613,7.24029,7.37197,6.97692,-0.96883,-0.88209,0.59682,-39.2,42.1,42.7,35.532257,-3.853198,-9.462687,0.9476822117480099,0.30127999,-0.057061,-0.088729
0.8527,48.9814,8.28658,8.83727,7.84843,-1.36834,-0.97005,-0.16982,-39.5,41.8,42.9,34.306023,-6.75162,-8.067223,0.9502780347995632,0.28972599,-0.076836,-0.08442
0.8683,49.0014,7.84843,9.77343,9.77104,-1.45814,-1.14415,-1.20096,-39.8,41.7,42.8,32.922176,-8.879181,-8.134791,0.9521707792502352,0.276537,-0.094087,-0.089698
0.8903,49.0214,6.0647,10.29299,12.07672,-0.67928,-1.77823,-1.69271,-40.1,41.5,42.5,31.951408,-10.429836,-9.595463,0.951952115190906,0.26582199,-0.11,-0.105004
0.9074,49.0415,4.34082,10.19243,13.50132,0.50702,-2.79288,-1.58336,-40.7,41.7,40.8,32.098656,-12.317703,-11.515373,0.9476813069677168,0.26313901,-0.13015901,-0.125366
0.9289,49.0615,3.2634,9.75667,13.8006,1.35795,-3.24308,-1.19302,-40.9,42.1,40.6,33.404701,-14.863844,-13.186986,0.9392137841413954,0.268875,-0.15579499,-0.14598501
0.9476,49.0815,2.88271,9.38077,13.49174,1.68477,-3.12396,-0.89308,-41.3,41.7,40.5,35.349762,-18.063169,-14.083838,0.9280406347574118,0.27925301,-0.185201,-0.162662
0.9746,49.1015,3.00242,9.00966,12.71599,1.90956,-3.02745,-1.01404,-41.2,41.8,40.5,37.577351,-21.386501,-14.434658,0.9153938817954158,0.29190901,-0.21403299,-0.176162
0.9893,49.1216,2.96172,8.40151,11.64575,2.07816,-3.1765,-1.42942,-41.5,41.9,40.1,40.135815,-24.641985,-14.818746,0.9005475867265205,0.306584,-0.24199,-0.19094799
1.0101,49.1416,2.62413,7.49408,10.46298,2.15452,-3.38114,-1.81732,-41.7,41.9,39.9,43.077557,-27.886139,-15.496938,0.8825926186588011,0.322842,-0.270125,-0.20937
1.0262,49.1616,2.26259,6.31131,9.41189,2.16796,-3.64564,-2.09221,-41.9,42.0,39.6,46.253769,-31.113594,-16.484272,0.8616942102694202,0.33911401,-0.29833701,-0.23125701
1.0495,49.1817,2.02795,5.04234,8.87558,2.34817,-3.56745,-2.42452,-42.1,42.0,39.5,49.281696,-33.758713,-18.143742,0.8398123426745644,0.352364,-0.32352301,-0.256686
1.0734,49.2017,1.52515,4.04154,8.31532,2.59129,-2.99446,-2.7324,-42.3,42.0,39.3,52.542171,-35.626324,-20.2311,0.8166678319617712,0.36667001,-0.34406501,-0.28324199
1.086,49.2217,1.08221,3.28255,7.22592,2.47523,-2.62306,-3.11908,-42.3,42.0,39.4,56.004295,-36.362446,-22.808237,0.7933203732283697,0.38278499,-0.35825601,-0.30946901
1.1086,49.2417,0.58181,2.51159,6.33525,2.1643,-2.50821,-3.64931,-42.2,42.0,39.6,59.409832,-35.51577,-26.78121,0.7697137682437802,0.397742,-0.367006,-0.33859801
1.1267,49.2618,-0.52195,1.7574,5.0615,1.76907,-2.23088,-3.9578,-41.9,42.0,39.9,62.62442,-32.488819,-32.943562,0.7453544428383853,0.410712,-0.37065899,-0.37198699
1.15,49.2818,-1.82204,1.24981,3.71591,0.75747,-2.05678,-3.60594,-40.0,42.3,41.7,65.000519,-27.031202,-41.429939,0.7225989133622053,0.41892901,-0.36915901,-0.407518
1.1688,49.3018,-3.08861,1.14925,3.07664,0.04215,-1.47035,-3.63954,-38.3,43.1,42.2,65.757843,-19.402689,-51.785835,0.7047574597827538,0.41958401,-0.360989,-0.44379401
1.1883,49.3219,-4.38871,0.92419,2.60976,-0.72021,-1.60474,-3.56318,-36.8,44.4,42.5,65.330147,-10.293514,-63.324505,0.6882326339636329,0.4179,-0.34644699,-0.48132101
1.2068,49.3419,-6.05752,0.67758,2.92341,-1.25044,-1.98898,-3.76843,-35.0,45.6,40.9,64.208549,-2.019966,-74.251068,0.6696308208464269,0.41466501,-0.33262801,-0.51865798
1.2307,49.3619,-7.59464,0.69434,3.86675,-1.69088,-3.05372,-3.2498,-34.0,47.3,39.8,61.847149,5.118296,-84.842522,0.6481177864490063,0.40482,-0.318041,-0.56117201
1.2539,49.3819,-8.78938,0.92419,5.46852,-1.81671,-3.30661,-2.63588,-32.8,49.2,39.2,58.009212,10.337318,-94.140137,0.6252405908693708,0.386599,-0.29991701,-0.60800099
1.2705,49.402,-10.1637,1.02475,6.28258,-2.22966,-1.60474,-1.91018,-32.3,50.7,37.3,54.065125,13.239677,-100.877472,0.6039312232411236,0.36670601,-0.282655,-0.64876801
1.2878,49.422,-11.13098,1.89387,6.9841,-2.63772,1.07329,-0.78618,-31.6,52.9,36.9,49.674915,16.680368,-104.865913,0.5957372372353265,0.35772699,-0.24916901,-0.67456901
1.3101,49.442,-11.44942,3.33762,8.44461,-2.82892,0.73121,0.15944,-31.3,53.5,35.1,45.25956,19.490561,-105.795143,0.600709219412437,0.35337099,-0.208205,-0.68624198
1.3276,49.4621,-11.47815,4.77897,10.21158,-2.11909,0.71593,0.6243,-30.2,55.5,34.9,41.421146,20.991413,-105.272827,0.6093584879094731,0.34645399,-0.17297199,-0.69190502
1.3489,49.4821,-11.24351,6.04076,10.89395,-1.56809,1.13377,1.4166,-30.5,55.9,35.4,38.792362,22.101168,-104.114311,0.6194241910110226,0.342994,-0.145878,-0.69093299
1.372,49.5021,-10.40791,7.27381,10.88198,-1.70126,1.62001,2.09221,-30.2,55.4,35.1,37.218739,22.810568,-101.788475,0.6349391995713605,0.34273401,-0.124529,-0.681086
1.3934,49.5221,-8.99529,8.45179,11.20521,-1.90223,2.11909,2.3164,-30.3,56.5,35.8,36.221684,22.714983,-98.04203,0.6573028784030996,0.341169,-0.107341,-0.663351
1.409,49.5421,-7.52521,9.34725,12.07672,-1.53877,2.06656,2.36771,-30.3,55.7,35.8,35.300983,22.79221,-93.998215,0.680906027042513,0.34041899,-0.088964,-0.64231402
1.4266,49.5621,-6.11498,10.00567,12.55797,-0.8491,1.95171,2.38054,-30.1,55.0,36.1,34.915081,22.916862,-90.190231,0.7022057567745222,0.341782,-0.07447,-0.62011802
1.4476,49.5821,-4.81249,10.2475,12.19165,-0.45021,2.12459,2.2602,-29.6,54.7,36.1,35.218796,23.222233,-86.761757,0.7203916320274687,0.34714001,-0.064109,-0.597009
1.4691,49.6021,-4.37434,10.06074,11.33689,-0.45143,2.3219,2.18018,-30.1,54.0,36.6,35.780445,23.923096,-83.654922,0.7361875781473225,0.35547099,-0.053447,-0.573421
1.4878,49.622,-4.60898,9.52443,10.62579,-0.54611,2.21133,2.54975,-29.8,53.8,36.9,36.331852,24.698975,-80.466415,0.7516550502184226,0.36376101,-0.041575,-0.54860198
1.5228,49.642,-4.44617,8.76305,10.26665,-0.36408,1.66461,3.12335,-30.0,54.3,36.1,37.087486,24.827478,-76.658463,0.7687433330702257,0.37004599,-0.032744,-0.520603
1.536,49.662,-3.40705,8.11659,10.37918,0.09591,1.14415,3.39824,-30.0,54.7,36.0,38.338123,23.855618,-72.252762,0.7864714088573086,0.374589,-0.031727,-0.49004
1.5556,49.682,-2.02316,7.6114,10.82452,0.92241,1.10567,3.28462,-30.0,54.6,35.9,40.135059,22.281267,-67.788536,0.8019532626467204,0.38066101,-0.037097,-0.45890301
1.5684,49.702,-1.52276,6.76622,10.06314,1.84176,1.69698,3.08548,-30.1,54.4,35.9,42.679665,21.137285,-63.887691,0.8122929252524239,0.39394301,-0.044301,-0.427816
1.5934,49.722,-1.506,5.91386,7.85562,1.80388,2.09282,3.25897,-31.1,51.1,36.9,45.645142,20.570883,-60.213684,0.8192905236906013,0.41271099,-0.049068,-0.39500001
1.6077,49.742,-1.27854,5.18121,5.80372,0.97128,2.11176,3.33899,-32.2,48.9,39.9,48.213871,19.693027,-55.796413,0.8274994967295749,0.42869201,-0.050342,-0.35907301
1.6274,49.762,-0.80208,4.45335,4.76461,0.31887,1.87352,3.13313,-33.9,46.1,39.2,49.78278,18.051014,-50.629021,0.8380815188533033,0.436618,-0.049106,-0.32337701
1.6507,49.782,-0.36632,3.62014,4.35997,-0.02077,1.41171,2.78555,-34.1,45.3,41.4,50.555309,16.063231,-45.434826,0.8489564041514969,0.43880701,-0.046747,-0.29075101
1.6662,49.802,0.27055,2.95693,4.52518,-0.55344,0.56261,2.61084,-36.4,44.3,42.4,50.724094,13.587202,-40.514172,0.8593199490228421,0.436032,-0.046983,-0.26313099
1.6866,49.822,0.99602,2.43019,5.43979,-0.61331,0.78496,2.55891,-36.9,43.4,41.7,50.135483,10.407016,-35.605312,0.8706268936731049,0.42685601,-0.050788,-0.239214
1.7074,49.842,1.73585,2.02795,5.88513,-0.33414,1.03236,2.42025,-37.8,42.4,42.0,49.365185,7.630629,-30.805222,0.8814384764066066,0.417759,-0.052377,-0.21401
1.7309,49.862,2.29132,1.8412,5.66246,-0.3372,0.62675,2.1643,-39.3,40.9,41.4,48.585941,5.142453,-26.302551,0.8908541038700332,0.409513,-0.053693,-0.18919601
1.748,49.882,2.82764,1.78613,5.66964,-0.61575,-0.08796,1.95233,-40.2,40.9,40.4,47.465641,2.290504,-22.16777,0.899723127152359,0.398404,-0.059403,-0.16805901
1.7709,49.902,3.74704,1.99204,6.18681,-0.57727,0.0226,1.64934,-41.4,40.9,42.7,45.909218,-0.969809,-18.430288,0.9083687438001926,0.38370699,-0.070146,-0.150714
1.7871,49.922,4.39589,2.28174,6.51722,-0.45204,0.63225,1.32802,-41.1,40.4,42.5,44.345512,-3.455975,-15.268565,0.9159123032051266,0.37017599,-0.077792,-0.134249
1.8062,49.942,4.70236,2.62173,6.70397,-0.45754,0.8772,1.29442,-40.7,40.3,41.1,42.859051,-5.095483,-12.52884,0.9226224947739893,0.35830101,-0.080959,-0.117617
1.8284,49.962,5.35599,3.28255,6.72552,-0.36835,0.92118,1.37139,-42.6,40.9,42.5,41.395138,-6.54715,-9.779835,0.9288128532990809,0.34702101,-0.083302,-0.099719
1.8475,49.982,6.67524,4.23308,6.40469,-0.36285,1.02014,0.9841,-43.2,39.9,40.4,40.10313,-7.975195,-7.064052,0.9338611868335893,0.33736199,-0.086273,-0.08153
1.8705,50.002,7.60901,5.17882,5.79893,-0.80329,1.25105,0.09529,-42.3,39.9,42.0,38.920773,-8.759478,-5.148887,0.9380269233975855,0.32861301,-0.086852,-0.067644
1.8941,50.0219,7.51563,5.83006,5.74387,-1.36712,1.11239,-0.58704,-43.0,39.9,40.3,37.500538,-8.650984,-4.560809,0.9425188991240441,0.317433,-0.084117,-0.061796
1.9083,50.0419,7.00804,6.38314,6.42863,-1.44775,0.46609,-0.75747,-41.9,40.3,40.2,35.850723,-8.419062,-4.823603,0.9471000872828911,0.30373701,-0.082696,-0.062503
1.9265,50.0619,6.75185,7.12057,7.46535,-1.15209,-0.3708,-0.75198,-42.0,40.4,40.6,34.410763,-8.909204,-5.255119,0.9503103943460474,0.29119301,-0.087635,-0.06661
1.9531,50.0819,6.30652,7.8604,8.64812,-0.6689,-1.41049,-0.87965,-42.1,40.3,39.9,33.472794,-10.312464,-5.762656,0.9512577307558135,0.28211501,-0.100373,-0.073791
1.9688,50.1019,5.6026,8.71756,9.7878,-0.05681,-2.51676,-0.90469,-42.5,40.0,40.5,33.224186,-12.724738,-6.459378,0.949062644578365,0.27769601,-0.12203,-0.085286
1.9871,50.1219,5.27698,9.60104,10.51805,0.54184,-3.04089,-0.83627,-42.9,40.0,40.3,33.722069,-16.070988,-7.092538,0.9432923398294188,0.27837899,-0.15128601,-0.099082
2.0078,50.1419,5.3129,10.24989,10.73832,0.70677,-3.01095,-1.02381,-43.2,40.0,39.9,34.807529,-19.713881,-7.626709,0.9346477974394097,0.28317201,-0.18258899,-0.113615
2.0266,50.1619,5.24346,10.47495,10.92986,0.61331,-2.45018,-1.43126,-43.4,40.0,39.5,36.081017,-22.659412,-8.573217,0.9251530436509193,0.28884301,-0.20897099,-0.130356
2.0552,50.1819,4.74306,10.30496,11.02085,0.76053,-1.78373,-1.90162,-43.6,40.1,39.2,37.447578,-24.268309,-10.205761,0.9162459776959461,0.294884,-0.226202,-0.149564
2.0729,50.2019,4.08224,9.84286,10.59227,0.92974,-1.47524,-2.19117,-43.7,40.2,38.8,39.239128,-24.906181,-12.333304,0.9066814480274425,0.30415699,-0.237166,-0.170791
2.0969,50.2219,3.25861,9.14613,9.75906,0.85827,-1.20646,-2.4233,-43.6,40.3,38.5,41.292301,-24.884495,-14.826008,0.8963583906485174,0.315424,-0.244357,-0.193233
2.1069,50.2419,2.27935,8.35362,9.23711,0.79474,-1.22417,-2.47462,-43.6,40.5,38.3,43.31155,-24.292807,-17.743639,0.885764773248609,0.32629201,-0.248859,-0.216849
2.1304,50.2619,1.506,7.53478,8.97853,1.02198,-1.31519,-2.4624,-43.3,40.6,38.0,45.271248,-23.524681,-20.843964,0.874489988949902,0.33653599,-0.25320601,-0.240619
2.1634,50.2819,1.07742,6.73988,8.64094,1.27793,-1.37445,-2.52593,-42.9,40.8,37.8,47.344151,-22.675852,-24.027746,0.8618867087788625,0.34756601,-0.25805101,-0.264119
2.1669,50.3019,0.56265,5.96414,8.23631,1.47646,-1.36651,-2.62061,-42.5,41.1,37.6,49.50375,-21.518284,-27.48634,0.8480533877103373,0.35927799,-0.26239699,-0.28787601
2.1906,50.3219,-0.13408,5.16924,7.74069,1.7373,-1.54854,-2.51432,-41.9,41.3,37.6,51.736588,-20.05093,-31.242939,0.8328768714191912,0.371591,-0.26655099,-0.311748
2.2064,50.3419,-0.47646,4.47969,6.96016,1.89796,-1.74097,-2.22538,-41.2,41.5,37.8,53.99828,-18.745255,-34.928635,0.8164056480688627,0.38372201,-0.272843,-0.33435899
2.2271,50.3619,-0.38308,4.04154,6.21554,1.88391,-1.86619,-2.11604,-39.8,42.0,38.2,56.123985,-17.632946,-38.484127,0.7995347720539737,0.39432499,-0.280898,-0.35545501
2.2501,50.3819,-0.29928,3.74704,5.47331,1.78922,-1.84787,-2.2602,-38.3,42.6,39.1,58.057251,-16.291325,-42.340561,0.7823093883106349,0.403191,-0.28900501,-0.37670299
2.2664,50.4019,-0.71589,3.3472,4.65447,1.54121,-1.75685,-2.42147,-36.6,43.2,39.5,59.768936,-14.125534,-47.036274,0.7645305372050875,0.41085801,-0.29506701,-0.39952999
2.2874,50.4219,-1.49403,2.87552,3.90985,1.18264,-1.72753,-2.31579,-35.6,43.7,40.8,61.031189,-11.126307,-52.531864,0.7471181937089204,0.416242,-0.29854399,-0.42359
2.3075,50.4418,-2.23625,2.53075,3.17241,0.78007,-1.62979,-2.10504,-34.2,45.2,40.6,61.702915,-7.759172,-58.34071,0.7309889639020276,0.418439,-0.300098,-0.44777799
2.3261,50.4618,-2.70074,2.40864,2.68398,0.26817,-1.35918,-1.88941,-33.8,45.4,40.7,61.726482,-4.156837,-64.16539,0.7169406630008092,0.41782701,-0.29867101,-0.471394
2.3468,50.4818,-3.27537,2.31048,2.44455,-0.16616,-1.13254,-1.84237,-33.0,45.6,40.7,61.386768,-0.684839,-69.52948,0.7046642601086561,0.416392,-0.295277,-0.49282601
2.3672,50.5018,-3.93619,2.21949,2.30808,-0.60476,-1.17653,-1.664,-32.0,46.3,40.4,60.817501,2.266592,-74.253815,0.6935282536646502,0.41378301,-0.29185399,-0.51246798
2.3866,50.5218,-4.73348,2.26738,2.06626,-1.06413,-1.12827,-1.42881,-30.8,47.3,39.4,59.792931,4.310622,-78.09964,0.6845867176985393,0.40735,-0.28847101,-0.53121698
2.4067,50.5418,-5.94498,2.45892,1.70951,-1.77395,-0.85399,-1.32741,-31.2,47.9,38.7,58.143822,6.092445,-81.405701,0.6784914281092275,0.39813599,-0.28121999,-0.54959297
2.4274,50.5618,-7.16128,2.69356,2.57145,-2.84052,-1.13377,-1.23456,-27.0,48.5,39.6,55.257565,8.606059,-85.013718,0.6748033086452819,0.38582101,-0.26345199,-0.571293
2.4473,50.5818,-7.69759,2.94975,4.56828,-2.99752,-1.09162,-1.01648,-26.8,49.9,38.1,51.277195,11.260482,-88.676476,0.671363394595415,0.36979699,-0.237688,-0.59667897
2.4664,50.6018,-8.41109,3.28973,6.26821,-2.96331,-0.53512,-0.78191,-29.8,52.5,34.6,47.207039,13.283124,-91.27845,0.6694896258276447,0.35384601,-0.21025001,-0.61836201
2.4884,50.6218,-9.32331,3.84042,8.14772,-3.02623,-0.12706,-0.36469,-25.1,53.7,36.0,43.138893,15.017278,-92.786041,0.6706944892814459,0.33937699,-0.180097,-0.63447398
2.5079,50.6418,-9.9099,4.86038,10.17327,-2.68475,0.52534,0.08735,-29.1,56.0,33.4,39.238041,16.399927,-93.201584,0.6753688824990528,0.32595301,-0.14916,-0.64450198
2.5264,50.6618,-9.85723,6.0647,11.40154,-2.34328,1.21929,0.50763,-25.3,55.9,35.3,35.96693,17.944693,-92.790627,0.6828248557747293,0.31774199,-0.118524,-0.64710301
2.5478,50.6818,-9.44781,6.9841,12.06954,-2.2266,1.64567,0.80879,-24.2,56.6,33.8,33.249836,19.734163,-91.693825,0.692763148639518,0.31415701,-0.087861,-0.64316797
2.5664,50.7018,-8.97614,7.64492,12.97218,-1.8216,1.47524,1.113,-23.7,58.0,34.5,31.018362,21.30031,-90.00473,0.7045392784260931,0.311739,-0.059908,-0.63470799
2.5861,50.7218,-8.34165,8.14772,13.44385,-1.02748,1.38544,1.45936,-23.9,57.6,35.4,29.778917,21.852598,-87.748222,0.7177870955655583,0.30883101,-0.042812,-0.62255299
2.6096,50.7418,-7.60422,8.61939,13.20443,-0.47953,1.4111,1.68538,-25.4,58.0,35.1,29.517843,22.298738,-85.452072,0.7303848207189132,0.31048101,-0.032224,-0.60753697
2.6284,50.7618,-6.78298,8.75586,12.78782,-0.17532,1.55099,1.72325,-24.5,57.2,35.2,29.84178,22.819086,-83.17569,0.7422474195172651,0.31565699,-0.024564,-0.59061497
2.6487,50.7818,-6.34962,8.47573,12.12461,0.05131,1.70737,1.72142,-24.7,56.8,35.6,30.502003,23.589825,-81.02681,0.7529228268224306,0.323874,-0.017345,-0.57263601
2.6666,50.8018,-6.32567,7.8604,11.20042,0.11118,1.67072,1.92789,-26.1,56.9,35.3,31.407007,24.458488,-78.924316,0.7628010286608425,0.333823,-0.010686,-0.55369902
2.6869,50.8218,-6.08864,7.22353,10.52523,0.02993,1.48685,2.35855,-26.1,56.2,35.1,32.476822,25.045588,-76.492531,0.7736222146530176,0.34325999,-0.005494,-0.53258902
2.7057,50.8417,-4.9777,7.02959,10.77663,0.14416,1.20646,2.60717,-25.5,56.0,35.3,33.706921,25.003338,-73.458488,0.7863922150508357,0.350752,-0.003233,-0.50847799
2.7273,50.8617,-3.98886,6.85002,11.03042,0.65363,1.28526,2.16674,-25.5,56.4,35.0,35.195831,24.677273,-70.438271,0.7979915926821283,0.35875699,-0.003927,-0.48423901
2.752,50.8817,-3.96492,6.22751,10.38636,0.85216,1.37017,1.94255,-25.9,56.3,35.4,36.911922,24.881859,-68.216377,0.8051967589093612,0.370556,-0.004154,-0.46295699
2.7713,50.9017,-4.5563,5.37275,9.28979,0.76175,1.42026,2.30785,-26.2,55.5,36.3,38.531841,25.173504,-66.093307,0.811476968086205,0.38210899,-0.003172,-0.44214001
2.7867,50.9217,-5.16206,4.35997,8.2818,0.65973,1.15942,3.00851,-27.2,53.8,37.4,40.068481,24.968037,-63.255939,0.8198674474244478,0.39130101,-0.002481,-0.41796499
2.8066,50.9417,-4.52997,3.37593,7.8628,0.85032,0.53939,3.88083,-28.5,52.5,37.4,41.802811,23.481911,-59.195324,0.8311576920046158,0.397609,-0.007228,-0.38862801
2.8266,50.9617,-2.57624,2.78694,7.30493,1.08917,0.47159,3.8961,-29.8,50.3,39.1,43.801365,20.843277,-54.257362,0.8429000883215874,0.40301901,-0.017907,-0.35605401
2.8477,50.9817,-0.83321,2.34878,6.21075,0.75931,0.61514,3.40435,-31.7,48.4,40.5,45.557739,18.114771,-49.309303,0.8529316053449184,0.40803999,-0.027582,-0.32442299
2.8676,51.0017,-0.14605,1.86514,5.28895,0.08308,0.76236,3.0641,-33.4,46.8,41.3,46.406528,15.608298,-44.599384,0.8627982450489684,0.40850899,-0.032647,-0.29603001
2.8859,51.0217,-0.19154,1.18038,4.8939,-0.3708,0.97861,3.17406,-35.3,45.0,41.3,46.286083,13.151775,-39.795624,0.8742618179761713,0.402973,-0.033868,-0.268574
2.9085,51.0417,-0.24661,0.39745,4.67123,-0.59926,1.15454,3.57906,-37.0,43.2,40.5,45.587185,10.608092,-34.492214,0.8873050539363562,0.393677,-0.032977,-0.237951
2.9263,51.0617,0.53153,-0.13887,4.81728,-0.86499,0.92852,3.96207,-39.1,42.0,40.0,44.429432,7.746593,-28.519276,0.9014910179064459,0.380997,-0.032305,-0.20276
2.9571,51.0817,2.66483,-0.03591,5.30332,-1.07879,0.79901,3.73116,-40.6,41.8,41.7,42.737606,4.39086,-22.18471,0.9158715268678681,0.36416399,-0.035042,-0.165336
2.9713,51.1017,4.61616,0.36872,5.44458,-1.33535,1.18141,2.91994,-41.9,40.9,41.7,40.697159,1.468454,-16.49752,0.9284575630627497,0.34582901,-0.037995,-0.130097
2.9877,51.1217,5.20276,0.72786,5.41346,-1.63223,1.47952,2.25959,-42.4,41.6,41.2,38.044029,-0.44286,-11.929719,0.9401368322043872,0.32378501,-0.037504,-0.099496
3.0065,51.1417,4.82446,0.91461,5.51401,-1.71164,1.24617,1.98714,-43.6,41.0,38.8,35.045143,-1.831272,-8.151511,0.9507231507384155,0.29919899,-0.036597,-0.072568
3.0279,51.1617,4.73348,1.27854,6.00005,-1.64445,0.64019,2.0861,-44.8,41.2,37.7,32.105309,-3.395243,-4.744952,0.9594236396785312,0.274984,-0.039887,-0.047949
3.0571,51.1817,5.55951,2.08062,6.62735,-1.44103,0.26512,1.83809,-41.7,39.5,38.4,29.344101,-5.482002,-1.472516,0.9660492052550946,0.252381,-0.049509,-0.024528
3.0722,51.2017,6.53398,3.0934,6.97931,-1.49051,0.25412,1.09467,-42.4,40.1,38.1,26.928101,-7.401595,1.085253,0.9705869756564839,0.232934,-0.060569,-0.005837
3.0913,51.2217,6.98649,3.98168,7.67844,-1.78922,0.30849,0.45876,-46.6,41.3,36.3,24.618103,-8.783506,2.520588,0.9742665612649034,0.21415301,-0.070122,0.005105
3.1089,51.2416,7.04396,4.45575,8.90431,-1.66888,0.0672,0.1179,-42.1,41.7,38.7,22.352425,-9.764887,3.113582,0.9775633167424093,0.19532099,-0.07822,0.010065
3.136,51.2616,6.92664,4.91545,10.1637,-1.11361,-0.39218,-0.12095,-43.4,42.7,34.7,20.56498,-10.903869,3.26984,0.97957365026883,0.180289,-0.088377,0.010993
3.153,51.2816,6.82608,5.49007,10.88916,-0.5846,-0.50274,-0.34392,-43.5,41.2,35.2,19.580658,-12.276134,3.176551,0.979914716196772,0.171924,-0.100641,0.008982
3.1673,51.3016,6.82608,6.09103,11.29858,-0.34208,-0.72449,-0.64568,-43.4,41.4,36.3,19.209484,-13.583037,2.860227,0.9792510930665331,0.168538,-0.112428,0.00471
3.1859,51.3216,7.04396,6.56989,11.38957,-0.26267,-1.02992,-1.06291,-43.5,41.2,35.4,19.230026,-14.952696,2.159242,0.9778063198809364,0.16799501,-0.125146,-0.00331
3.2068,51.3416,6.97213,6.83087,11.51886,-0.32376,-1.52533,-1.44592,-43.4,41.3,36.5,19.476316,-16.461586,0.918364,0.9756016057008107,0.168529,-0.139752,-0.016397
3.2261,51.3616,6.65848,6.90988,12.02165,-0.10934,-1.97615,-1.66644,-44.5,41.5,36.3,19.86627,-18.266325,-0.755755,0.9723201437463896,0.169277,-0.15747,-0.033794
3.2498,51.3816,6.16526,6.97692,12.60107,0.23885,-2.13864,-1.80694,-44.5,41.3,35.3,20.585983,-20.126648,-2.658123,0.9677848568260715,0.17189801,-0.17595901,-0.053684
3.2673,51.4016,5.80851,7.06072,12.98894,0.61697,-2.02196,-1.92484,-44.7,41.4,35.1,21.711895,-21.892307,-4.598087,0.9620246377214047,0.177284,-0.193756,-0.074415
3.318,51.4216,5.61218,7.04635,13.0488,0.90408,-1.89185,-2.15025,-45.0,41.5,34.7,23.316204,-23.430731,-6.52541,0.9550793105402294,0.186223,-0.2098,-0.095543
3.322,51.4416,5.38951,6.94819,12.73994,1.12582,-1.74402,-2.48439,-45.1,41.8,34.2,25.368372,-24.698818,-8.586221,0.9468317628628646,0.198275,-0.224125,-0.118172
3.3438,51.4616,4.99925,6.61059,12.19404,1.21562,-1.65483,-2.85579,-45.1,42.0,34.0,27.817835,-25.624752,-10.953292,0.9371023578942697,0.21278,-0.236645,-0.143398
3.3688,51.4816,4.38631,5.89949,11.49731,1.40194,-1.39766,-3.1374,-45.3,42.1,33.9,30.578154,-26.11775,-13.695674,0.9258539526467227,0.22905,-0.24702799,-0.171195
3.3731,51.5016,3.44776,5.01122,10.55157,1.58153,-1.27671,-3.26569,-45.3,42.4,33.7,33.659306,-26.04574,-16.705088,0.9131825674410018,0.247757,-0.25437701,-0.20001601
3.3916,51.5216,2.40385,4.21632,9.56273,1.64139,-1.4056,-3.15145,-45.2,42.5,33.7,36.598526,-25.607885,-19.906874,0.8998587122252804,0.265196,-0.26016301,-0.228562
3.4066,51.5416,1.7167,3.58423,8.77262,1.76784,-1.64873,-2.93093,-45.0,42.6,33.7,39.302135,-25.162235,-23.088953,0.8858906450723248,0.280523,-0.266671,-0.25571701
3.4268,51.5616,1.46051,3.24664,8.13096,1.97309,-1.83565,-2.84724,-44.8,42.7,33.9,41.915775,-24.949968,-26.118452,0.8707552837926853,0.294624,-0.275419,-0.28129399
3.4478,51.5816,1.18756,2.83243,7.29296,2.17773,-1.87597,-2.96453,-44.6,42.8,34.0,44.610813,-24.708857,-29.194281,0.854111593190843,0.3089,-0.284998,-0.30634999
3.4667,51.6016,0.66561,2.18597,6.15807,2.22477,-1.98959,-3.04822,-44.3,42.8,34.2,47.40337,-24.175686,-32.587166,0.835771126756865,0.323479,-0.29432401,-0.33199599
3.4865,51.6216,-0.2083,1.52994,4.82925,1.98592,-2.15391,-2.87412,-42.5,42.8,35.5,50.03727,-23.3559,-36.378769,0.8163471228176404,0.33620799,-0.30353701,-0.35833901
3.5866,51.6415,-0.98644,1.19474,3.62014,1.4728,-2.36283,-2.39642,-40.5,43.3,36.8,52.085346,-22.474401,-40.339783,0.7976990184226378,0.34384501,-0.31283,-0.38416699
3.5928,51.6615,-1.30488,1.23784,2.68877,0.73548,-2.26875,-2.06289,-39.8,43.3,36.9,53.251152,-21.626663,-44.306381,0.7815547304113896,0.34446201,-0.321327,-0.40898299
3.5967,51.6815,-1.26418,1.53473,2.07344,-0.53329,-1.72081,-2.23088,-39.1,43.2,36.5,53.762486,-20.441219,-48.426548,0.7676633957329865,0.34091201,-0.32684001,-0.43318301
3.5979,51.7015,-1.40305,1.94415,2.2171,-1.61024,-1.13071,-2.5864,-38.5,44.2,35.0,53.76062,-18.393898,-53.193039,0.7549614469160526,0.33526301,-0.32729301,-0.45881501
3.602,51.7215,-1.76458,2.15724,3.00242,-2.27731,-0.67806,-3.0305,-37.6,45.3,37.6,52.662903,-14.796198,-59.125027,0.7448988782526523,0.32567099,-0.31740099,-0.48818099
3.6403,51.7415,-2.56666,2.14766,4.12773,-2.47278,-0.47037,-3.27912,-37.1,46.1,36.0,50.80669,-10.339599,-65.68924,0.7348582146591272,0.31479999,-0.30010501,-0.52040499
3.6484,51.7615,-3.66085,1.95852,5.07107,-2.43124,-0.26328,-3.45444,-35.3,48.1,35.9,48.550358,-5.910698,-72.134888,0.7233938137947956,0.30420601,-0.27971101,-0.55310202
3.6559,51.7815,-5.46374,1.75979,5.99287,-2.39765,-0.23457,-3.33044,-34.2,49.9,33.4,45.923031,-1.442228,-78.417801,0.7102923625079315,0.29492801,-0.25556999,-0.58582097
3.6723,51.8015,-7.41507,1.59938,7.02241,-2.13192,-0.36469,-2.67376,-28.4,52.3,33.4,42.514118,3.293805,-84.528381,0.696423422390904,0.28621101,-0.223913,-0.61882198
3.7149,51.8215,-9.08867,1.60895,7.6545,-1.72631,-0.42089,-1.72508,-27.1,55.3,32.4,39.184891,6.857091,-89.093323,0.6842821257847671,0.27807599,-0.194655,-0.64539999
3.7159,51.8415,-10.1637,1.84359,7.84843,-1.5687,-0.56994,-0.73426,-29.9,57.2,32.4,36.296547,9.199336,-91.952156,0.6762207370743519,0.27056101,-0.170288,-0.66372001
3.731,51.8615,-10.53241,2.21949,8.05913,-1.77823,-0.60842,-0.07147,-27.4,57.6,32.3,33.664242,10.50364,-93.340424,0.6733211176902887,0.26159701,-0.149634,-0.67514098
3.748,51.8815,-10.43425,2.5499,8.66488,-2.18445,-0.19426,0.33781,-30.7,59.0,28.8,30.918278,11.41159,-93.767624,0.6748331058906343,0.251228,-0.128117,-0.681961
3.7667,51.9015,-10.06553,2.66004,9.48133,-2.3897,0.39767,0.68783,-26.9,59.6,29.9,27.951443,12.466319,-93.430367,0.6804848610300451,0.24130499,-0.102532,-0.68425101
3.7863,51.9215,-9.8692,2.74623,10.23313,-2.44163,0.77213,1.06657,-25.5,60.0,30.7,25.011724,13.880709,-92.463173,0.6892796093791109,0.23388299,-0.073622,-0.68174201
3.807,51.9415,-9.59386,3.04312,11.38238,-2.4007,0.63286,1.62979,-24.8,61.4,31.5,22.255104,15.240043,-90.795715,0.7011155941343338,0.22695801,-0.044838,-0.67447501
3.8291,51.9615,-8.70558,3.77338,13.00809,-1.91873,0.61758,2.12764,-25.2,61.6,31.7,19.957972,16.077778,-88.355095,0.7162806880498032,0.21903899,-0.020797,-0.66221702
3.8473,51.9815,-7.14691,4.75264,14.28903,-1.20035,1.06352,2.26081,-27.0,61.4,28.1,18.65185,16.288282,-85.363922,0.733658554420719,0.212695,-0.005986,-0.64534497
3.8744,52.0015,-5.99287,5.40867,14.6362,-0.71838,1.72569,2.12398,-27.0,61.5,31.3,18.209885,16.784342,-82.424492,0.7500581818670067,0.212714,0.005267,-0.62620902
3.8896,52.0215,-5.60979,5.71992,14.78944,-0.38057,1.65728,2.17773,-27.0,60.8,31.3,18.2313,17.987478,-79.7537,0.7642948497201711,0.21904799,0.018128,-0.60625303
3.9061,52.0415,-5.57148,5.95696,15.0959,0.2584,1.16187,2.44102,-28.5,60.8,30.5,18.776897,18.890856,-77.098885,0.777816904343689,0.226748,0.026344,-0.58556998
3.9273,52.0614,-5.05431,6.08146,14.86605,1.26144,0.96333,2.68353,-27.5,59.8,30.0,20.365366,19.233929,-74.411232,0.790767252042369,0.238254,0.025566,-0.56326598
3.9468,52.0814,-4.01041,6.13413,14.12143,1.49051,0.96517,2.47828,-27.0,59.6,30.7,22.832155,19.384796,-71.878067,0.8018536458887493,0.25482601,0.0191,-0.54012001
3.9667,52.1014,-3.36156,5.98329,13.39836,1.4844,1.24983,2.18934,-26.9,60.0,30.8,25.354282,19.668962,-69.668694,0.8104408284072929,0.27267,0.013265,-0.51832497
3.9876,52.1214,-3.44536,5.63852,12.60586,1.60291,1.41049,2.23393,-27.7,58.9,31.3,27.829233,20.281361,-67.706604,0.8170900329758403,0.29179001,0.010057,-0.49711299
4.0061,52.1414,-3.64648,5.25543,11.63139,1.77579,1.39216,2.48989,-27.9,57.3,32.4,30.524195,20.902903,-65.64769,0.8231372151326046,0.31240001,0.006742,-0.47413701
4.0257,52.1614,-3.59141,4.71433,10.30256,1.8106,1.17286,2.74462,-29.0,54.9,33.0,33.454311,21.191547,-63.292892,0.8291459441975941,0.33323401,0.001478,-0.448854
4.0553,52.1814,-3.31846,4.0966,8.79657,1.60169,0.79351,2.98957,-30.3,52.3,34.6,36.07555,20.752567,-60.472656,0.836143958433953,0.34938499,-0.005416,-0.42280501
4.0745,52.2014,-2.97608,3.60099,7.50605,1.16492,0.45204,3.23881,-30.5,50.6,36.6,38.286453,19.469713,-57.061043,0.844512778945375,0.360255,-0.014033,-0.39600199
4.0872,52.2214,-2.53793,3.33283,6.92185,0.67806,0.12767,3.42451,-33.4,48.8,37.9,39.927624,17.334579,-52.971455,0.8545997256653316,0.365271,-0.023754,-0.36833701
4.1071,52.2414,-1.72867,3.13889,6.94819,0.43921,0.11423,3.4575,-34.3,47.4,37.4,40.968372,14.56883,-48.359158,0.8658595578375167,0.36532101,-0.033825,-0.340123
4.1291,52.2614,-0.69673,2.90426,6.9841,0.34758,0.36163,3.28096,-35.6,45.9,38.4,41.588894,11.77255,-43.59922,0.8769504105644628,0.36349499,-0.042127,-0.31153601
4.158,52.2814,0.02394,2.59779,6.95297,0.281,0.44288,3.02928,-37.4,43.7,39.4,41.875065,9.314079,-39.00423,0.887167075048415,0.36105201,-0.047425,-0.28342
4.1702,52.3014,0.41421,2.03992,6.80213,0.3708,0.28466,3.01095,-38.1,43.4,40.0,41.910954,6.936443,-34.603722,0.8964039464346416,0.357636,-0.052233,-0.25657001
4.1868,52.3214,0.74701,1.24502,6.51003,0.57116,0.16799,3.32433,-40.9,41.3,38.2,41.886303,4.225537,-30.032606,0.9048445246358956,0.35392201,-0.059293,-0.229085
4.2062,52.3414,1.47966,0.67279,5.9378,0.7477,0.17226,3.69757,-41.9,40.6,39.6,41.845993,0.974835,-24.853748,0.9127980376498844,0.35044399,-0.069086,-0.19802999
4.2272,52.3614,2.54033,0.61533,5.08544,0.54184,0.48686,3.65175,-43.6,39.7,39.9,41.572212,-2.567121,-19.123381,0.9203712507514127,0.34638399,-0.079586,-0.16309801
4.2483,52.3814,3.45973,0.78053,4.06787,-0.19975,0.81856,3.18505,-45.3,38.9,40.0,40.62429,-5.653789,-13.585569,0.9280739409999722,0.338808,-0.086936,-0.12778901
4.2698,52.4014,3.93379,0.80448,3.56986,-1.13377,0.99876,2.75867,-47.0,38.7,37.3,38.652939,-7.964163,-8.831794,0.9368057961906939,0.32412601,-0.090757,-0.095396
4.2914,52.4214,4.24265,0.79011,4.0152,-1.7764,0.78374,2.5021,-43.8,37.8,42.6,35.944252,-9.593716,-4.9264,0.9458903126274314,0.30377099,-0.092684,-0.066516
4.3065,52.4414,4.80052,1.05827,5.22431,-1.90651,0.0843,2.44896,-44.0,38.4,39.6,32.684231,-11.349077,-1.583167,0.9544207370996713,0.27865601,-0.098742,-0.041011
4.327,52.4614,5.93301,1.69036,6.6513,-1.43492,0.27489,2.4007,-49.4,39.5,38.0,29.317484,-13.697765,1.62774,0.960878353018539,0.25286901,-0.111789,-0.016531
4.3478,52.4813,7.34085,2.56666,8.01843,-0.81795,0.80451,1.86925,-46.9,37.9,38.6,26.633238,-15.398176,4.589689,0.9648019531561906,0.233293,-0.121124,0.007781
4.3672,52.5013,8.41109,3.61775,8.53559,-0.46242,1.09528,1.08001,-51.8,38.7,36.0,24.861118,-16.232838,6.846873,0.9668652084644477,0.220953,-0.124904,0.027394
4.3864,52.5213,8.71277,4.59222,8.46376,-0.55833,1.07268,0.405,-48.0,38.6,39.8,23.731585,-16.387569,8.210755,0.96825426308589,0.212984,-0.124548,0.040116
4.4069,52.5413,8.39433,5.25304,8.91628,-0.67806,0.24801,0.0055,-47.6,38.9,39.1,22.770456,-16.523283,8.78302,0.9694722101195061,0.205569,-0.125494,0.046003
4.4259,52.5613,7.95378,5.66007,9.5364,-0.15638,-0.34086,-0.31093,-47.4,38.7,37.5,22.094276,-17.422356,8.889912,0.9694791260859822,0.20035701,-0.13352101,0.046254
4.4522,52.5813,7.39592,6.1892,9.73033,0.42028,-0.70372,-0.46426,-48.6,39.0,37.9,22.242826,-18.686411,8.829981,0.9677409257306109,0.20202801,-0.14417499,0.04331
4.4665,52.6013,7.25465,6.80692,9.59625,0.54245,-1.38911,-0.56872,-48.6,38.7,38.1,22.990599,-20.388159,8.791832,0.9643377106122003,0.208858,-0.15788899,0.038758
4.4862,52.6213,7.59225,7.17085,9.43823,0.40256,-1.71409,-1.00854,-49.1,38.2,38.2,23.898708,-22.603373,8.544392,0.959717022500393,0.21675099,-0.176071,0.031004
4.5069,52.6413,7.63534,7.23789,9.42147,0.23213,-1.76723,-1.62307,-49.1,38.3,38.4,24.919703,-24.706657,7.632112,0.954796779386179,0.224196,-0.19441099,0.017425
4.5265,52.6613,7.34324,7.10142,9.63456,0.20097,-1.70859,-2.16979,-49.8,38.4,37.4,26.114443,-26.441504,5.955627,0.9497300060069703,0.231213,-0.211064,-0.002335
4.5471,52.6813,6.8596,6.65848,9.88117,0.40378,-1.38605,-2.68109,-50.0,38.7,37.2,27.632971,-27.624773,3.661297,0.944324974492362,0.239195,-0.224309,-0.026862
4.5665,52.7013,6.13653,6.24666,9.81413,0.70005,-1.11911,-3.00301,-49.8,38.7,37.5,29.604973,-28.072678,0.906107,0.9384058412616579,0.249706,-0.232521,-0.054547
4.5867,52.7213,5.46613,5.92583,9.2443,0.8717,-0.99388,-3.14351,-50.1,38.6,37.1,31.92956,-27.964258,-2.064984,0.9315957549002678,0.26266801,-0.23707201,-0.083257
4.6093,52.7413,5.07826,5.76541,8.77741,0.85094,-1.25594,-3.41351,-50.3,38.8,36.8,34.355778,-27.558039,-5.268815,0.9236837481056488,0.27607799,-0.24049699,-0.112918
4.6261,52.7613,4.69757,5.49725,8.26743,0.98105,-1.49234,-3.74949,-50.0,38.8,36.7,36.822586,-27.095938,-8.940403,0.9138395027376525,0.28878999,-0.245524,-0.145656
4.6471,52.7813,4.06548,4.96812,7.77182,1.11972,-1.81671,-4.0818,-49.7,39.0,36.7,39.461639,-26.475815,-13.109576,0.9014619129905267,0.30187699,-0.251656,-0.1814
4.666,52.8013,3.06467,4.41744,7.49169,1.38605,-2.13314,-4.11173,-49.0,39.1,36.8,42.229889,-25.705181,-17.803255,0.8861330310555068,0.31487501,-0.25935599,-0.219901
4.6863,52.8213,2.03274,3.90027,7.39592,1.79228,-2.34511,-3.77576,-47.2,39.3,37.0,45.120335,-25.049177,-22.463858,0.8680285046244737,0.328343,-0.26937899,-0.25720099
4.7075,52.8413,1.82923,3.58662,6.66806,2.05801,-2.36466,-3.72078,-43.9,40.2,37.7,48.123558,-24.658884,-26.753874,0.847701481559505,0.34240201,-0.28184199,-0.29108101
4.7259,52.8613,1.64726,3.261,5.70316,1.59802,-2.51066,-4.25407,-40.6,40.9,38.0,51.131012,-23.681044,-31.567335,0.8255230564273052,0.35608801,-0.29300499,-0.32536301
4.7536,52.8812,-0.30168,3.01439,6.88115,1.14659,-3.13252,-4.37807,-38.5,42.2,38.0,53.555592,-21.416515,-38.15601,0.8016700397299001,0.36415201,-0.30146599,-0.36583701
4.7694,52.9012,-2.66243,2.5092,8.68882,2.21988,-3.61938,-3.61877,-37.3,43.3,38.6,55.599655,-19.225996,-45.393089,0.7745703151636653,0.36722901,-0.31370801,-0.40837601
4.7857,52.9212,-3.18439,1.72148,8.72713,2.70125,-4.27606,-3.0531,-36.1,44.0,39.2,58.242001,-18.074669,-51.415543,0.7441918505942534,0.37351799,-0.33212301,-0.443122
4.8057,52.9412,-3.01679,1.2953,8.01364,1.88513,-5.99076,-2.92177,-35.2,44.9,39.2,60.606789,-17.435114,-57.741283,0.7103987007846508,0.37358001,-0.35540599,-0.479018
4.827,52.9612,-3.45015,2.46131,7.03917,1.19119,-7.1404,-3.0531,-35.4,45.0,35.1,61.939754,-17.53199,-65.353752,0.6709581507398056,0.35753301,-0.38457301,-0.52353501
4.8478,52.9812,-4.35279,2.55469,4.3504,0.09224,-5.78062,-3.25836,-36.7,45.8,35.1,62.652504,-17.021374,-74.396637,0.6264149062065969,0.333143,-0.41156501,-0.57204401
4.8659,53.0012,-4.77658,1.55867,1.6736,-2.11482,-0.98716,-3.45505,-35.2,47.3,33.4,61.831799,-11.71188,-85.544876,0.5908781291196176,0.31573299,-0.411336,-0.61804402
4.8868,53.0212,-6.15329,1.74064,1.70233,-4.04271,2.19973,-2.64993,-34.7,48.3,33.1,58.127026,-1.673794,-96.278854,0.5779453061300692,0.31462699,-0.370276,-0.65565598
4.9062,53.0412,-9.83808,2.78454,5.22191,-5.09217,1.93889,-1.7428,-28.4,50.7,34.6,52.027054,7.566806,-102.955063,0.5811451814090517,0.31895801,-0.30545199,-0.68354601
4.9258,53.0612,-10.51087,1.49882,5.9378,-5.1276,-0.82039,-0.37446,-27.5,53.1,33.7,45.202721,11.760171,-105.64463,0.5863151933634323,0.30637401,-0.247447,-0.70791203
4.9479,53.0812,-9.71836,1.44135,7.11818,-5.22107,0.94257,0.78618,-30.9,56.5,29.2,38.655533,12.274856,-105.58046,0.5955637190338072,0.27935299,-0.201074,-0.72583401
4.9948,53.1012,-8.88276,1.74303,8.10223,-5.05186,-0.35308,1.68538,-27.5,58.2,29.8,32.464916,13.153597,-103.692459,0.6144201163521259,0.258028,-0.15043201,-0.73026001
5.0005,53.1212,-7.74308,2.01837,9.08148,-4.46543,-0.58765,1.89613,-31.8,61.3,27.9,26.897015,12.580214,-100.830009,0.6356560134694543,0.22943,-0.110258,-0.72879797
5.0142,53.1412,-6.41666,1.98964,10.67368,-3.59372,-0.55833,1.37567,-28.1,61.2,27.8,22.161497,12.089017,-98.122139,0.6547514747184614,0.203297,-0.076664,-0.723943
5.0262,53.1612,-5.70077,2.08062,12.29939,-2.44102,-0.64019,0.76664,-28.1,63.2,27.6,18.42621,11.91569,-96.292725,0.6674434512506209,0.182567,-0.050249,-0.72018301
5.0526,53.1812,-5.71274,2.22189,13.30977,-0.81245,-0.10324,1.0122,-28.8,63.0,26.9,16.178947,11.97789,-95.257294,0.6744325891742178,0.170634,-0.033779,-0.71755397
5.0803,53.2012,-5.83485,2.23146,13.41273,0.24129,0.48319,1.8723,-28.8,62.5,26.3,15.666984,12.426457,-93.950333,0.6827615008170862,0.17083301,-0.025897,-0.70991701
5.1056,53.2212,-5.44458,2.58342,13.01528,0.73182,0.38546,2.54181,-30.3,62.9,26.8,16.377108,13.109683,-91.82119,0.6958626098914062,0.179609,-0.023017,-0.69497198
5.1096,53.2412,-4.60898,3.18439,12.60107,0.57666,-0.22907,2.17835,-30.7,61.4,25.6,17.53915,13.171463,-89.268311,0.7109326301888101,0.18741301,-0.025749,-0.67733902
5.1266,53.2612,-4.14449,3.74943,12.94345,0.25473,-0.8436,1.98714,-31.1,61.1,27.0,18.31196,12.527747,-87.127617,0.7230690028169229,0.188848,-0.030954,-0.66373903
5.1511,53.2812,-3.77098,4.21632,13.43906,0.21319,-0.69211,2.71713,-32.8,61.5,25.7,18.821106,11.234848,-84.807465,0.7357684989193272,0.185277,-0.038425,-0.650262
5.1663,53.3011,-2.58103,4.5587,14.00651,0.33353,-0.31154,3.18261,-33.4,59.6,24.3,19.509996,9.813706,-81.52301,0.7532090195724424,0.182906,-0.04637,-0.63013601
5.188,53.3211,-1.06306,5.06629,14.78944,0.73059,-0.13439,2.59129,-34.3,59.5,23.4,20.427189,8.453658,-77.990837,0.771023935694606,0.183081,-0.0549,-0.607445
5.2059,53.3411,-0.20591,5.11178,15.32815,1.22417,-0.18143,2.13192,-33.9,59.4,25.3,21.740246,7.314328,-75.201912,0.7838186733578112,0.187328,-0.065202,-0.58846003
5.2268,53.3611,0.94095,5.44219,15.15337,1.83137,1.7373,2.13436,-34.1,57.8,25.0,23.603123,6.61761,-72.758194,0.7937792652788556,0.197899,-0.075619,-0.57011598
5.2497,53.3811,1.89627,5.36557,13.45582,2.04396,2.31457,2.10199,-34.5,56.6,25.2,26.08926,7.980884,-70.417709,0.8030976199545731,0.223058,-0.074428,-0.54748499
5.2685,53.4011,1.61374,5.63373,12.15813,1.45142,0.50152,1.9285,-34.3,55.4,26.4,28.626675,9.129634,-68.143181,0.8111017641023844,0.247339,-0.074185,-0.524818
5.2873,53.4211,1.5491,6.00963,10.38158,1.41904,0.04215,1.98531,-34.9,53.5,27.4,30.571228,8.313349,-65.80442,0.8181466254562808,0.25874299,-0.084125,-0.50656801
5.3069,53.4411,1.55867,5.51401,8.7822,1.29503,0.36835,1.81183,-35.7,52.6,26.9,32.156746,6.858186,-63.258015,0.8253777437716865,0.26553199,-0.096042,-0.488897
5.3259,53.4611,0.88349,4.61616,7.79336,0.69761,-0.18998,1.69393,-36.4,51.5,28.0,33.387451,5.530868,-60.786057,0.8322705958076375,0.270872,-0.105299,-0.472087
5.3551,53.4811,-0.05267,3.8069,6.85241,0.00672,-0.57482,1.73058,-37.2,50.6,28.0,33.872265,3.508436,-58.299297,0.8394251419972361,0.26855701,-0.116251,-0.45796099
5.371,53.5011,-1.08221,3.12453,6.26821,-0.74159,-0.82833,2.1704,-38.0,50.7,26.5,33.51228,1.194816,-55.703228,0.8479776205465329,0.25955299,-0.125854,-0.44466501
5.3858,53.5211,-0.57702,2.05908,6.19878,-1.2425,-1.37384,2.8393,-39.2,50.4,26.3,32.337017,-1.635504,-52.479843,0.85962821278405,0.243682,-0.1354,-0.42816499
5.4055,53.5411,1.06306,1.03433,7.91787,-0.99999,-0.49419,2.66582,-40.4,50.2,26.7,30.442266,-5.066865,-48.818142,0.8730187490764445,0.221219,-0.14723,-0.40893
5.4268,53.5611,1.24502,0.47407,8.79896,0.77213,0.5058,2.45507,-40.9,49.7,26.9,29.157076,-6.890428,-45.66626,0.8844835870335073,0.208995,-0.15109999,-0.38881701
5.448,53.5811,1.35037,-0.04549,8.29616,2.27486,0.9951,2.76661,-41.4,49.0,27.1,29.564581,-7.617631,-42.247112,0.8938314910826313,0.21433,-0.15166,-0.363493
5.4664,53.6011,1.48684,0.02873,6.97213,3.12824,0.65912,3.21132,-41.9,47.6,28.1,31.130211,-8.601389,-38.060032,0.901552730026436,0.229399,-0.15554,-0.33224401
5.569,53.6211,1.80528,0.39745,5.65767,3.75499,0.49724,3.36403,-43.4,45.3,30.5,33.235291,-10.501817,-32.991795,0.9075062897171456,0.248161,-0.164949,-0.29604101
5.5738,53.6411,2.48047,0.40942,4.88193,4.09646,-0.23274,3.036,-42.2,41.6,32.1,35.646793,-13.122251,-27.47303,0.910413306539376,0.26955199,-0.177874,-0.25855401
5.5751,53.6611,2.97848,0.19872,3.49804,3.85273,0.69578,2.73851,-42.9,40.6,36.3,38.122509,-16.741945,-21.916145,0.9090124702783674,0.29105201,-0.196509,-0.22443099
5.5795,53.6811,3.66563,0.36872,1.77895,2.00364,1.10506,2.8167,-48.7,40.0,36.9,39.527607,-19.009392,-16.520668,0.9105236092814947,0.307715,-0.201704,-0.18861
5.5822,53.701,4.90108,1.45332,0.66321,0.22358,1.32924,2.62855,-50.4,36.8,37.9,39.708561,-20.859268,-11.736161,0.9138862017301168,0.31485999,-0.20352501,-0.155733
5.6124,53.721,5.58345,2.34878,1.36234,-0.75075,1.81366,2.66276,-46.7,38.0,38.8,38.527496,-21.411741,-8.221329,0.9207985791471661,0.31077,-0.198153,-0.12762199
5.6148,53.741,6.22511,2.74384,2.70314,-1.03053,1.89979,3.01095,-51.9,39.1,35.5,36.397514,-21.441257,-4.89625,0.9300641058268725,0.29903501,-0.18966199,-0.097914
5.6567,53.761,6.88593,2.65286,4.04393,-0.73426,2.10687,3.25774,-50.1,38.1,36.5,33.718033,-22.485348,-0.666864,0.9383111509791194,0.283362,-0.18823799,-0.062005
5.6585,53.781,7.64971,2.4685,5.42543,-0.2474,1.96882,3.17894,-50.1,39.0,36.8,31.265186,-23.678036,3.93474,0.9438665036947758,0.270363,-0.188403,-0.022895
5.6695,53.801,8.83248,2.65764,6.58665,0.28833,1.34024,2.79471,-51.5,38.5,36.6,29.334539,-24.944733,8.375547,0.9460532711991116,0.26182699,-0.190319,0.01444
5.6871,53.821,10.30017,3.16284,7.16367,0.69639,1.0403,1.923,-52.3,38.4,37.1,28.086523,-26.423494,12.309645,0.944938032810533,0.25864199,-0.195114,0.046119
5.7069,53.841,10.76945,3.84042,6.73988,0.50519,0.78557,0.88637,-54.2,38.7,36.9,27.570143,-27.632496,15.209137,0.9423320786002777,0.26004401,-0.19927,0.068402
5.7268,53.861,10.10623,4.58025,6.25863,-0.20953,0.58643,0.47342,-53.4,38.6,36.5,27.155657,-28.514597,16.815304,0.9404409129195943,0.260093,-0.20355199,0.080555
5.7472,53.881,9.66329,4.88671,6.4406,-0.78924,0.32681,0.41356,-54.3,38.7,35.7,26.278442,-29.224382,17.646889,0.9399675008366406,0.25504601,-0.209023,0.087875
5.7658,53.901,9.60344,5.04234,7.26423,-1.16125,-0.09346,0.06597,-55.3,39.4,36.7,25.021235,-30.031488,17.952059,0.9401302577062606,0.246125,-0.21719199,0.09168
5.7864,53.921,9.62977,5.09262,8.49728,-1.04947,-0.78863,-0.45754,-56.3,39.4,33.7,23.831057,-30.961555,17.567381,0.9403112536644449,0.236526,-0.227716,0.08953
5.8053,53.941,9.83089,5.28656,9.27542,-0.63652,-1.06168,-1.05313,-56.2,40.0,35.4,23.274895,-32.354233,16.641144,0.9388938098922582,0.231181,-0.241973,0.080516
5.8249,53.961,10.2858,5.86837,9.71836,-0.58704,-1.03236,-1.69026,-56.2,39.7,34.0,23.377436,-33.641476,15.273391,0.9368418081528705,0.229865,-0.25509301,0.066461
5.8485,53.981,10.31454,6.4382,10.20201,-0.53206,-1.42759,-2.62977,-56.0,40.1,34.3,23.998314,-34.494209,13.108356,0.9350982926153271,0.23035499,-0.265457,0.045391
5.8651,54.001,9.87399,6.54834,10.64016,-0.42028,-2.04579,-3.441,-55.5,39.9,34.0,25.354816,-35.130272,9.868612,0.9323818991218137,0.233779,-0.275345,0.014018
5.896,54.021,9.31612,6.24666,11.31774,-0.11912,-2.75195,-4.04881,-55.1,39.4,34.3,27.403528,-35.873775,5.852755,0.9268400344369032,0.240337,-0.28731,-0.025664
5.9106,54.041,8.83009,5.82766,11.43027,0.33475,-3.0641,-4.58943,-54.7,39.6,34.5,30.267347,-37.061203,1.455376,0.9162512016961724,0.25141299,-0.30362099,-0.071341
5.927,54.061,8.40151,5.435,11.24112,0.48258,-2.83441,-5.11233,-54.7,39.3,34.8,33.907185,-38.011047,-3.275053,0.9013144289559887,0.26668701,-0.319258,-0.120767
5.9493,54.081,7.5276,4.75982,10.9993,0.62369,-2.63405,-5.72197,-54.1,39.4,34.3,38.087357,-37.999352,-8.697979,0.8831430513233967,0.28428799,-0.33025399,-0.17369799
5.9661,54.101,6.08146,3.8045,10.26186,0.81917,-2.16979,-6.1673,-53.0,39.6,33.4,42.783772,-36.77433,-15.08527,0.8608233455224829,0.30457601,-0.33659801,-0.23004
5.9858,54.1209,4.38152,2.95693,9.2419,0.68967,-1.62796,-6.00847,-50.3,39.7,33.3,46.991261,-33.953606,-22.424417,0.8377504183288839,0.32196099,-0.336808,-0.284738
6.008,54.1409,2.88271,2.44455,8.94501,0.47159,-1.09772,-5.60041,-46.0,40.5,33.1,49.963055,-29.707352,-30.430954,0.8170263713626384,0.332919,-0.331359,-0.334416
6.0267,54.1609,1.48924,1.69994,8.60263,0.71899,-0.90225,-5.51,-42.7,42.1,35.1,52.051899,-24.398148,-38.886242,0.7973531868337017,0.341207,-0.321812,-0.37979299
6.0469,54.1809,-0.249,1.08221,7.54675,0.90347,-0.49297,-5.06102,-39.4,43.1,34.2,53.719151,-18.339643,-47.756031,0.7761885344625749,0.35030699,-0.31055099,-0.422344
6.0692,54.2009,-1.59459,1.07264,6.4406,0.73976,-0.43555,-4.06836,-37.1,44.7,35.1,54.567024,-12.1386,-56.161388,0.7569208282271005,0.35793501,-0.29747099,-0.45876399
6.0856,54.2209,-2.40385,1.32643,6.17244,0.68111,-0.64691,-3.61205,-35.3,45.4,33.5,54.511669,-6.903271,-63.330879,0.7407797919554768,0.36098301,-0.28553101,-0.48929399
6.1056,54.2409,-3.73028,1.09897,5.87076,0.84116,-1.09284,-3.49476,-34.3,46.3,32.2,54.034157,-1.98764,-70.394775,0.7233429159689196,0.362243,-0.27441901,-0.51985502
6.247,54.2609,-4.95375,0.98644,5.06629,0.86071,-1.73547,-2.5522,-28.4,46.4,36.6,53.430229,2.093787,-77.081192,0.7036729771127774,0.36173701,-0.26729301,-0.55004102
6.2602,54.2809,-5.21473,1.40065,4.47251,0.23152,-1.6585,-1.75502,-28.6,46.9,35.7,52.556423,4.613827,-82.332207,0.6861885936421267,0.35677701,-0.26401901,-0.57632399
6.2613,54.3009,-5.18839,1.72867,4.52279,-0.77397,-0.26328,-1.57053,-29.0,49.5,32.3,50.95166,6.782783,-86.563133,0.6735015039577564,0.349197,-0.25549701,-0.59931499
6.2634,54.3209,-5.24586,2.1333,5.28416,-1.15209,0.43005,-1.22845,-31.5,50.4,34.5,48.428986,10.083058,-90.163887,0.6670011341689305,0.34524,-0.232724,-0.61786598
6.2655,54.3409,-5.38712,2.60258,5.53796,-1.00732,0.54489,-1.01037,-27.2,49.3,36.6,45.751789,13.160841,-92.805908,0.6634221892766626,0.342765,-0.206863,-0.63213199
6.2707,54.361,-6.17005,2.91144,5.06389,-1.03847,0.48991,-1.12766,-30.1,51.9,35.1,43.323166,16.02463,-94.951492,0.6599566692566409,0.34252799,-0.18182801,-0.64348298
6.2733,54.381,-7.6545,3.40226,4.37195,-1.44164,-0.18265,-0.70066,-26.1,52.3,34.6,40.911102,18.486105,-96.932869,0.6552027007712956,0.341373,-0.158427,-0.655038
6.275,54.401,-7.92984,3.52677,4.64968,-1.97187,-0.71044,-0.2248,-25.5,53.2,34.1,38.327538,19.544222,-97.865028,0.6535456874750376,0.33340099,-0.138579,-0.66522002
6.2864,54.421,-7.95857,3.52437,5.32487,-2.33289,-0.78374,0.00183,-26.0,53.3,33.1,35.546448,19.768812,-98.021637,0.6548923660488181,0.320638,-0.119772,-0.67376697
6.307,54.4411,-9.02881,3.61057,6.12216,-2.67131,-0.66768,0.75075,-28.0,54.1,31.4,32.603313,19.659494,-97.592354,0.6590285472514372,0.30547199,-0.100147,-0.67995501
6.328,54.4611,-8.62178,3.66085,6.97213,-2.9181,-0.69211,1.72386,-28.0,55.1,30.5,29.803373,19.209024,-95.847054,0.6703548480986913,0.28959101,-0.080156,-0.67848098
6.3487,54.4811,-7.93463,4.00802,8.20997,-2.90589,-1.507,1.97126,-28.5,55.4,30.3,27.055386,18.038937,-93.109673,0.6869396277547245,0.269528,-0.062917,-0.67194498
6.3673,54.5012,-6.54834,4.33843,9.55555,-2.42269,-2.49172,2.08061,-29.7,56.0,29.8,24.556252,15.905044,-90.217804,0.703830215897982,0.244416,-0.053798,-0.664823
6.3877,54.5212,-5.605,4.68799,10.8748,-1.62979,-2.88939,1.94377,-33.4,56.7,27.8,22.62986,12.922107,-87.572639,0.7186750935366549,0.217096,-0.055246,-0.65827298
6.4077,54.5412,-5.03277,5.14051,11.63618,-0.83872,-3.06043,2.28158,-34.6,58.0,25.6,21.522945,9.723909,-85.240761,0.731029658412434,0.193287,-0.06471,-0.65118998
6.4296,54.5612,-3.10059,5.45176,11.93546,-0.48442,-2.97797,2.62794,-36.7,57.9,25.4,21.158636,6.130894,-82.595619,0.7439416106419912,0.17242999,-0.081502,-0.64045
6.4483,54.5813,-0.93856,6.11258,12.44065,-0.38301,-2.15697,2.43185,-39.5,56.9,22.5,20.979029,2.752394,-79.703041,0.7574618704067948,0.15485799,-0.098498,-0.626553
6.4666,54.6013,-0.29689,6.42144,13.22358,-0.02077,-1.30359,2.56258,-40.3,57.4,23.0,20.812214,0.254754,-77.088585,0.7695106588475816,0.14263301,-0.11084,-0.61255503
6.4877,54.6213,1.10855,6.81889,13.7575,0.58521,-0.96761,2.89856,-41.9,57.5,22.1,21.093996,-1.624377,-73.983597,0.7835872107914983,0.13779999,-0.121256,-0.593548
6.5075,54.6413,1.73824,6.70397,13.9682,1.25044,-1.24983,2.69636,-43.6,55.7,22.8,21.952356,-3.710438,-70.60128,0.7972190378952448,0.13694499,-0.13590699,-0.57202899
6.5288,54.6614,3.28734,6.64651,14.90675,2.25409,-0.25412,2.20645,-45.6,53.9,20.9,23.437239,-6.149335,-67.268005,0.8080308888404946,0.139771,-0.15606301,-0.55063099
6.5476,54.6814,5.00164,6.273,15.28745,3.30356,1.28893,1.40194,-44.4,52.7,23.7,26.057304,-7.114079,-64.390686,0.8154114023838758,0.15820099,-0.17103501,-0.52992803
6.5672,54.7014,5.39191,5.75823,13.61385,3.35182,1.9285,0.73793,-44.9,50.4,24.2,29.765364,-6.367455,-62.31039,0.8184047972331541,0.191688,-0.178607,-0.51143801
6.5883,54.7215,4.88193,5.17642,11.51167,2.43308,1.23639,0.35064,-43.8,49.2,24.7,33.287861,-4.957438,-61.057034,0.818222802613689,0.225439,-0.18105,-0.49689999
6.6073,54.7415,3.61536,4.58504,10.372,1.72325,0.50824,0.24068,-43.2,48.7,25.7,35.745461,-4.224755,-60.379883,0.8164016165019885,0.247455,-0.18455,-0.48805299
6.6275,54.7615,2.41582,3.72549,10.02004,1.87841,0.7929,0.47037,-43.6,47.0,26.2,37.250164,-4.366667,-59.553566,0.8158702157292419,0.259076,-0.18982901,-0.48083299
6.6518,54.7815,1.67599,2.79891,9.90033,2.61389,1.5406,0.99205,-43.5,47.0,26.9,38.897903,-4.483037,-58.147148,0.8171657937813843,0.27286801,-0.193909,-0.46923599
6.6674,54.8016,1.4222,2.174,8.92346,3.19421,2.35855,1.42332,-43.3,45.5,28.1,41.216846,-4.20044,-55.842472,0.8204530820347863,0.29473501,-0.195016,-0.44939601
6.6933,54.8216,2.19076,1.98246,6.83805,2.53692,2.02013,1.47096,-43.2,44.7,29.5,43.69799,-3.776814,-52.896908,0.825107798090007,0.319406,-0.19305301,-0.424155
6.7075,54.8416,2.35836,1.97288,5.15727,1.29259,1.7373,1.09039,-43.6,43.3,30.7,45.079346,-3.896696,-50.075932,0.8308202508995431,0.33381101,-0.190587,-0.402473
6.7262,54.8617,1.61614,1.86035,4.44617,0.48381,2.17468,1.3323,-42.2,43.0,31.4,45.152096,-3.811019,-47.685349,0.8389418084274856,0.338541,-0.183184,-0.38472101
6.7564,54.8817,0.93616,1.44614,4.87235,0.50335,2.12703,2.03113,-40.1,40.8,34.6,44.54258,-3.757125,-44.698074,0.8507036396130205,0.338801,-0.17209101,-0.36318299
6.7737,54.9017,1.05827,0.93377,5.27219,0.91324,1.96576,2.38665,-39.8,39.7,35.2,44.04842,-4.44246,-40.759823,0.8632825965868649,0.33874899,-0.16417401,-0.33621299
6.7899,54.9218,1.5036,0.54829,4.82446,1.13499,1.64689,2.60351,-44.2,40.3,35.5,43.854923,-5.586298,-36.382061,0.8745657000660041,0.34023499,-0.15938801,-0.306546
6.8163,54.9417,2.55948,0.62491,3.38072,0.84177,1.51617,2.99629,-41.3,38.7,39.5,43.582363,-7.349702,-31.57427,0.8852067438756892,0.340296,-0.158059,-0.27500001
6.829,54.9617,3.80929,0.92898,2.00161,0.04398,1.72142,2.89123,-42.3,37.8,37.2,43.12851,-9.323192,-26.444307,0.8955247850481078,0.33932999,-0.157368,-0.24109299
6.8491,54.9817,4.38871,1.20193,1.71909,-1.10261,1.53083,2.41475,-42.5,37.6,38.0,42.151939,-10.189763,-22.302092,0.9056947589641114,0.33539701,-0.150572,-0.211078
6.8676,55.0017,4.10858,1.17798,2.49244,-1.53144,1.05069,2.95292,-43.2,37.8,36.5,40.233963,-10.779655,-18.948021,0.9167721607349341,0.32322901,-0.14336,-0.18574101
6.8907,55.0217,4.71672,1.18038,3.48846,-1.43309,1.22417,3.71834,-44.2,38.5,37.0,37.775612,-12.233003,-14.788171,0.9285060245181718,0.30622301,-0.141398,-0.155276
6.9293,55.0417,6.33525,1.45332,4.70954,-0.99876,1.59925,3.4239,-45.4,38.7,35.2,35.182564,-13.860724,-9.828315,0.939669545778589,0.28906101,-0.14029799,-0.117394
6.9314,55.0617,7.69041,2.174,5.80612,-0.62553,0.49052,2.69025,-47.4,38.7,35.8,32.676559,-16.055115,-4.960087,0.9476242320854822,0.27249199,-0.14593799,-0.080365
6.9505,55.0817,8.96656,3.02397,6.50285,-0.42516,-0.70555,2.17346,-48.0,38.7,34.9,30.622435,-19.071724,-1.098984,0.9507149185930448,0.25886899,-0.162275,-0.052866
6.9666,55.1017,11.01127,3.81647,6.86678,-0.37935,-0.2584,1.48074,-49.3,38.8,34.4,28.895096,-22.408375,1.944363,0.9506058150169291,0.247896,-0.183982,-0.032354
6.987,55.1217,12.08151,4.57067,7.41507,-0.65301,0.18021,0.28588,-49.8,38.6,35.5,27.493628,-24.472342,3.762592,0.9504299437023225,0.238867,-0.198136,-0.019173
7.0064,55.1417,11.72716,4.8939,7.99688,-0.63897,0.20159,-0.40867,-52.0,39.6,32.5,26.479738,-25.424578,4.082337,0.9507512437599016,0.230902,-0.206113,-0.016546
7.0311,55.1617,11.07113,5.20755,8.36799,-0.53451,-0.02016,-0.58765,-52.6,39.7,32.5,25.834299,-26.183559,3.784913,0.9505147990888937,0.224904,-0.213469,-0.019256
7.053,55.1817,10.55875,6.024,8.69601,-0.68417,-0.03543,-0.81428,-52.7,40.3,32.6,25.40222,-26.94483,3.255603,0.9497579875620947,0.220185,-0.221111,-0.024254
7.0665,55.2017,10.32172,6.58186,9.55076,-0.76236,-0.37446,-1.08673,-52.2,40.5,31.9,24.998392,-27.536018,2.303253,0.9490909330782904,0.214835,-0.22807901,-0.032439
7.0864,55.2217,10.13496,6.68242,10.30975,-0.31948,-0.97311,-1.57176,-52.9,39.9,31.0,24.923864,-27.957911,0.806364,0.9478651013034503,0.211055,-0.234395,-0.045459
7.1122,55.2417,9.37598,7.26184,10.49411,-0.05742,-1.49418,-2.02502,-52.4,40.4,31.9,25.623034,-28.447153,-1.177782,0.9446023628011629,0.21247301,-0.241786,-0.064196
7.1308,55.2617,9.17247,8.06392,11.13817,-0.03787,-1.88818,-2.26814,-52.4,40.7,32.6,26.70776,-29.248415,-3.548223,0.93918391753245,0.21577001,-0.252453,-0.087432
7.1496,55.2817,9.54837,8.10701,11.84687,0.35186,-2.05067,-3.02073,-51.8,40.3,31.7,28.126999,-30.23864,-6.239295,0.9316120864560956,0.220469,-0.26540399,-0.11425
7.1742,55.3017,9.28739,7.50366,12.0025,0.78313,-1.99631,-3.78309,-51.4,39.9,31.9,30.465889,-30.963703,-9.571437,0.9207623197153758,0.23084,-0.27778199,-0.147468
7.1874,55.3217,8.47334,6.74946,11.72955,1.12827,-1.86436,-4.38051,-51.8,39.7,32.6,33.658707,-31.107244,-13.519549,0.9065712580058777,0.24677099,-0.28770301,-0.185633
7.2069,55.3416,7.5683,5.90428,11.03282,1.3213,-1.78189,-4.86554,-52.4,40.0,32.2,37.469963,-30.55994,-18.104771,0.8888407399721504,0.266711,-0.29521301,-0.22732501
7.2269,55.3616,6.83805,4.78376,9.77582,1.23028,-1.50456,-5.51489,-52.4,40.1,32.0,41.673012,-28.996454,-23.650311,0.8673855243974734,0.28911901,-0.29958299,-0.272585
7.2517,55.3816,5.83724,3.22988,7.91787,0.66462,-1.15454,-6.02496,-50.5,40.3,32.0,45.720482,-25.742176,-30.741356,0.843232550663884,0.31077,-0.29830599,-0.32155001
7.2671,55.4016,3.83323,1.76458,6.16047,-0.39767,-0.06231,-6.05184,-46.2,41.1,32.4,48.013248,-20.902903,-39.303429,0.821197774689508,0.32106,-0.290611,-0.371618
7.2876,55.4216,1.29051,0.84757,6.27779,-0.79046,0.80879,-5.46358,-41.0,43.5,31.8,48.425343,-14.240485,-48.493511,0.804284986585526,0.324637,-0.27020201,-0.41800401
7.3084,55.4416,-0.83321,0.13408,6.85481,-0.3317,0.58521,-4.63463,-37.0,46.1,34.2,47.689178,-7.805768,-56.689075,0.7900557176951761,0.32540801,-0.246278,-0.457459
7.3265,55.4616,-2.54033,-0.31365,6.4837,0.05131,0.65912,-3.70917,-34.7,47.5,33.1,46.72134,-2.750162,-63.347237,0.7760679301651756,0.325793,-0.22689299,-0.489997
7.3488,55.4816,-3.22509,-0.10774,5.99766,0.13622,1.00732,-2.96819,-32.9,49.0,32.9,45.509975,1.617887,-68.632431,0.7646560306665474,0.326774,-0.20728301,-0.51531899
7.3662,55.5016,-2.842,0.24422,5.46613,0.17226,0.73793,-3.05005,-28.4,49.9,33.6,44.038963,5.719795,-73.127411,0.7548230738711554,0.32831499,-0.185918,-0.53654999
7.3867,55.5216,-2.9282,0.43336,4.48448,0.01161,0.35308,-3.53813,-24.3,50.7,38.1,42.301579,9.76153,-78.047401,0.741252204926798,0.329265,-0.16472,-0.56124598
7.4345,55.5416,-3.70394,0.37351,3.44297,-0.51985,-0.01772,-3.65481,-27.4,53.3,33.7,39.986206,13.652723,-83.422348,0.7235864522216815,0.327748,-0.142501,-0.59050602
7.4371,55.5616,-4.71672,0.07422,3.57944,-1.03175,-0.44166,-3.62304,-22.8,54.3,36.4,37.189213,16.800249,-88.466721,0.7043112569710067,0.32260799,-0.120846,-0.62069798
7.4504,55.5816,-5.99526,-0.48604,4.02956,-1.05496,-0.56322,-3.25774,-21.9,56.7,35.6,33.980202,19.186325,-93.054749,0.6841179793438109,0.31389001,-0.099437,-0.65082097
7.4675,55.6016,-7.19719,-0.8763,3.73267,-1.04275,-0.40012,-2.36405,-25.5,57.5,35.5,30.592464,21.334105,-96.942291,0.6650156762227489,0.305545,-0.075707,-0.677248
7.5061,55.6216,-8.48292,-0.86194,3.03833,-1.60963,-0.63713,-1.36773,-20.8,60.8,35.6,27.390491,23.05253,-99.541832,0.650947224750225,0.298042,-0.05173,-0.69624901
7.5085,55.6416,-8.8253,-1.01757,2.90904,-2.48195,-1.1918,-0.55405,-21.5,61.3,35.9,23.942875,23.828634,-100.577278,0.6445022211874835,0.285034,-0.027093,-0.70897001
7.5284,55.6616,-8.87797,-1.13728,3.85239,-2.99263,-1.66522,-0.47709,-22.1,62.8,36.5,20.044506,23.78693,-100.49295,0.6437835897471443,0.26492801,-0.001141,-0.71788198
7.5512,55.6816,-9.34007,-0.73025,5.40148,-2.93948,-2.81792,0.10996,-24.6,64.8,32.4,15.945428,22.910463,-99.972557,0.6451697628826076,0.238042,0.022347,-0.725667
7.5693,55.7016,-9.38077,-0.52195,6.63214,-2.58396,-3.13924,0.90836,-26.3,66.2,30.6,12.403829,20.813828,-98.784752,0.6512368288698352,0.205494,0.036217,-0.72962397
7.587,55.7216,-8.78699,-0.25858,8.22194,-2.43369,-3.23087,1.66278,-27.0,66.4,28.7,9.592154,18.554232,-96.91275,0.6623121604625417,0.174959,0.044779,-0.72713602
7.6065,55.7416,-7.78618,-0.22027,10.57791,-2.44346,-4.60776,2.22355,-31.2,67.2,26.3,7.102153,15.517425,-94.27729,0.678834584771312,0.140513,0.04667,-0.71920902
7.6269,55.7615,-6.78777,-0.06943,13.33132,-1.9902,-3.67435,2.24493,-33.9,67.8,23.0,4.784606,11.542352,-91.330498,0.6977033305526066,0.100885,0.040507,-0.70809001
7.6512,55.7815,-6.51961,0.18196,16.02967,-1.08551,-2.71163,3.36648,-35.0,69.1,23.6,3.033837,8.629366,-88.265358,0.7168311505099928,0.071315,0.035598,-0.69267601
7.6655,55.8015,-5.98569,-0.14366,18.1079,0.47953,-2.31518,4.53079,-36.6,68.0,23.2,2.604681,6.552973,-83.993057,0.7426478942916619,0.055095,0.027283,-0.66685402
7.6861,55.8215,-5.2698,-0.60096,19.05843,2.49905,-2.24554,5.24061,-37.3,66.4,21.0,4.177375,3.737401,-78.706406,0.7730805749081522,0.048831,0.0021,-0.63242197
7.707,55.8415,-4.6401,-1.27854,18.50296,4.43305,-2.36527,6.30718,-39.3,63.0,21.1,7.851024,0.46987,-72.534721,0.8045329867183818,0.057616,-0.037199,-0.589935
7.7258,55.8615,-2.64328,-1.82923,17.73918,5.88508,-1.53816,7.28457,-41.7,58.7,21.5,13.185487,-3.500476,-64.686592,0.8370033654101996,0.080722,-0.087028,-0.534168
7.7496,55.8815,0.51956,-2.17161,15.64419,6.38171,-1.05069,7.29923,-44.2,53.2,21.4,19.288584,-7.749382,-55.2668,0.8661649618610995,0.117183,-0.136546,-0.46624199
7.7707,55.9015,2.98566,-2.57145,12.89317,6.04757,-0.16799,7.2076,-46.7,48.5,24.2,24.962969,-12.572603,-45.047367,0.8874016954981998,0.15748499,-0.18104599,-0.39362299
7.7859,55.9215,4.4749,-2.6744,10.03201,5.20396,0.4496,7.12941,-48.9,46.8,27.4,29.323402,-17.587296,-34.134056,0.902605314178207,0.195714,-0.214798,-0.31758699
7.8056,55.9415,5.48049,-2.43737,8.17645,4.34081,0.58582,7.00296,-54.6,43.0,29.4,30.752596,-21.91917,-23.384375,0.9167615678814311,0.21777099,-0.232263,-0.241201
7.8364,55.9615,6.09582,-2.68159,7.31451,4.14839,0.26756,6.85024,-56.6,41.9,32.8,30.353849,-26.061893,-13.005036,0.9275346486967265,0.228774,-0.24509799,-0.165133
7.8505,55.9815,6.59144,-2.88989,5.97132,4.22047,-0.15699,6.56314,-60.8,40.8,32.4,29.248846,-30.561001,-2.770549,0.9315126542659525,0.23732001,-0.26082,-0.089086
7.8661,56.0015,6.70636,-2.94975,4.69278,3.91809,-0.20159,6.26565,-62.9,41.1,35.8,27.570499,-35.100201,7.046489,0.9286552497363055,0.24476001,-0.278339,-0.014811
7.8872,56.0215,6.71594,-3.21791,4.09182,3.64503,-0.57971,6.20639,-66.6,41.9,38.2,25.076668,-39.309906,16.244421,0.9203710626913146,0.24878199,-0.29615501,0.057592
7.9061,56.0415,6.95537,-3.50043,3.40466,3.77759,-1.03358,6.07933,-69.2,43.1,38.9,21.923111,-43.496239,25.026686,0.9054795502560066,0.251237,-0.31685901,0.128791
7.9262,56.0615,7.03917,-3.59141,1.84599,3.34815,-1.14598,5.9822,-72.0,44.6,41.6,18.404053,-47.672115,33.459312,0.8833185669091417,0.254917,-0.33992901,0.198025
7.9497,56.0815,7.24986,-3.86675,0.95053,2.40131,-1.20524,6.10377,-75.3,46.2,41.3,13.98738,-51.277817,40.962872,0.8566994837350025,0.25310901,-0.36392,0.26374999
7.9659,56.1015,7.63774,-3.93379,1.07742,1.59436,-1.34513,6.23755,-77.4,49.3,43.4,8.509545,-54.24155,47.422802,0.8262666113959585,0.243273,-0.38968,0.32596201
7.9854,56.1215,8.38475,-3.99604,1.35755,1.55099,-2.13681,5.98343,-74.5,51.1,49.4,2.49596,-56.965866,52.985321,0.7911075185577241,0.229819,-0.41817799,0.3827
8.0076,56.1415,8.77023,-4.33603,1.07503,1.52533,-2.77455,5.71037,-75.7,54.4,52.7,-3.286171,-60.099224,58.03381,0.7496640442752606,0.221094,-0.44975299,0.43225399
8.028,56.1614,8.866,-4.75742,0.83321,1.41782,-2.90772,5.83804,-82.0,58.6,49.6,-9.004333,-63.335915,62.608868,0.7035434436737791,0.214856,-0.481895,0.47606799
8.052,56.1814,9.05275,-5.40627,0.17239,1.19669,-3.20154,6.01275,-30.3,-2.2,8.0,-14.977621,-66.280869,66.91069,0.653361009420121,0.207764,-0.51238698,0.51712
8.0701,56.2014,9.2012,-6.27061,-0.07901,1.00243,-3.89976,6.08422,-34.1,4.5,7.6,-21.246902,-69.402084,-116.446419,0.5147452149818973,-0.55548102,-0.165813,-0.631652
8.0896,56.2214,9.06951,-7.3193,-0.27774,1.30236,-4.69755,6.20822,-29.5,6.5,11.0,-27.657103,-73.051071,-113.203568,0.5482873150846185,-0.58822101,-0.15776899,-0.57313699
8.1073,56.2414,8.41348,-8.59545,-1.04869,1.6304,-5.36095,6.51976,-26.6,11.6,18.2,-34.226181,-76.988831,-105.877678,0.5969642200697124,-0.613509,-0.174731,-0.48652801
8.1276,56.2614,7.61619,-10.12539,-1.98007,1.80022,-5.9315,6.93027,-23.9,16.0,17.3,-41.249931,-81.049019,-98.296013,0.6384650111890854,-0.63512897,-0.19524901,-0.38839599
8.1475,56.2814,7.00086,-11.3752,-2.86116,2.10626,-6.21433,7.21249,-19.8,20.3,19.9,-48.818001,-85.226143,-99.507896,0.6465284350640265,-0.66706997,-0.166188,-0.33075699
8.167,56.3014,6.29215,-11.63378,-3.63451,2.3671,-5.96632,7.3426,-17.1,24.6,18.6,-56.709808,-88.926514,-98.338402,0.6623612762776065,-0.68802601,-0.146556,-0.25771901
8.1876,56.3214,6.00724,-11.57392,-4.45814,2.31151,-6.10865,7.3762,-12.5,27.6,22.5,-64.730064,-91.654839,-97.158554,0.6773037444814988,-0.70107198,-0.121086,-0.18733899
8.2089,56.3414,5.78217,-11.25309,-5.18839,1.93522,-6.10682,6.65293,-6.8,30.0,21.3,-72.485466,-94.580605,-94.177238,0.6906395718018046,-0.70707899,-0.109801,-0.104881
8.2286,56.3614,5.75344,-10.9969,-4.30012,1.98409,-5.19297,6.08788,-4.5,32.5,19.1,-79.279671,-97.739471,-94.655861,0.6966293271950155,-0.71089101,-0.084608,-0.046723
8.2503,56.3814,5.43261,-10.87958,-3.3041,2.17346,-4.59248,4.70733,-0.4,33.0,19.8,-85.101997,-95.893486,-95.129738,0.7035439785820499,-0.70934701,-0.034778,-0.025361
8.2661,56.4014,4.75742,-10.6234,-1.24981,2.11787,-3.99506,3.43673,3.0,33.4,17.4,-88.539421,-45.012833,-38.596699,0.7126459493428277,-0.69923699,-0.045565,0.033574
8.2861,56.4214,3.41902,-10.25707,0.05746,2.59007,-3.44406,2.89367,5.9,33.6,14.6,-86.71283,25.301432,40.377262,0.7177375156641034,-0.68367797,-0.081733,0.103716
8.3097,56.4414,3.25382,-9.9937,0.47646,2.26814,-1.22417,2.16002,8.6,34.3,14.0,-83.646523,30.331944,42.424728,0.7336356713321673,-0.67054999,-0.051132,0.097606
8.33,56.4614,3.5148,-9.67526,0.79011,1.84176,0.5058,1.14965,8.2,33.8,11.8,-81.466316,28.950956,48.908699,0.7354036904253334,-0.65355498,-0.089135,0.155249
8.3535,56.4814,4.00802,-9.45739,1.3791,1.67438,1.80022,-0.11423,8.3,34.4,9.6,-80.197586,24.743248,46.488659,0.7409835413187663,-0.64276499,-0.097714,0.168073
8.3667,56.5014,4.59701,-9.18444,1.71191,1.92606,2.18384,-1.28893,7.8,35.4,10.3,-79.23349,16.008354,35.982838,0.752944381537016,-0.63369602,-0.093018,0.151168
8.3859,56.5214,5.32247,-9.11979,1.31685,1.88208,2.94804,-2.59007,6.2,35.6,10.9,-77.861717,3.114103,22.544497,0.7659522030134644,-0.62016702,-0.102057,0.13525701
8.4067,56.5414,6.28258,-9.22754,0.77335,1.64139,3.42207,-3.87044,2.8,35.7,8.8,-75.823204,-11.292647,7.083977,0.7798964669486584,-0.605501,-0.115252,0.108844
8.4292,56.5613,7.02959,-9.76864,-0.01197,1.50212,3.44589,-5.21129,-0.3,35.9,10.0,-72.659622,-25.22592,-8.274293,0.7934623649954416,-0.58932102,-0.133751,0.072311
8.4492,56.5813,7.71196,-10.91311,-0.76617,1.20035,3.23942,-6.58146,-3.1,36.2,8.0,-68.008614,-37.038677,-16.920385,0.8036467153576874,-0.56326401,-0.18242601,0.060053
8.4667,56.6013,8.42545,-12.61065,-0.83081,0.97494,2.80021,-7.85756,-6.8,35.7,8.3,-61.879971,-46.369152,-27.562273,0.8139592691417791,-0.53945303,-0.215369,0.008771
8.4866,56.6213,8.46616,-14.052,-1.2977,0.77946,2.70002,-8.74576,-11.5,33.9,6.4,-54.392563,-53.151241,-30.817978,0.821205982300336,-0.499789,-0.27500701,-0.014242
8.5075,56.6413,8.33926,-15.0959,-1.24502,0.34086,2.75745,-9.34746,-17.3,30.7,5.8,-46.055344,-57.168098,-37.874702,0.8251413441283135,-0.46780601,-0.305013,-0.085243
8.5262,56.6613,8.028,-15.7232,-1.0463,0.16677,2.09588,-9.64006,-21.7,27.6,4.5,-36.735146,-59.007629,-40.805805,0.8282663337197521,-0.41998601,-0.34246099,-0.14250299
8.5537,56.6813,7.95618,-15.86686,-0.23943,0.09652,0.76725,-9.73475,-26.5,20.4,1.2,-27.094759,-60.345058,-48.565269,0.81452163638478,-0.38553599,-0.362111,-0.23831099
8.5681,56.7013,8.16927,-15.58912,0.42139,-0.09529,-0.25717,-9.60097,-30.8,13.8,2.2,-17.305527,-62.014484,-58.359711,0.7775991315977788,-0.36088601,-0.38178301,-0.34546
8.587,56.7213,8.80854,-14.73197,1.2115,-0.38851,-0.55344,-9.5973,-32.5,5.1,4.3,-7.64417,-63.569313,-65.988823,0.7304775690750674,-0.33372,-0.40994099,-0.432414
8.6078,56.7413,8.70079,-13.60666,1.13489,-0.69089,-0.59743,-9.81966,-33.5,-1.4,3.0,2.090505,-64.496307,-78.574074,0.6483202301654173,-0.325874,-0.42268801,-0.54297501
8.6295,56.7614,8.1956,-12.27305,1.25221,-1.2596,-0.73243,-9.57531,-33.6,-8.2,2.1,11.806947,-64.474113,-86.199356,0.5768474513900703,-0.29901701,-0.44686499,-0.61493701
8.6503,56.7814,7.92505,-10.65931,2.46131,-1.18019,-2.49905,-9.14099,-31.2,-14.7,2.2,20.877699,-64.039574,-91.627914,0.5122851945802259,-0.26684001,-0.47359499,-0.664882
8.6722,56.8014,7.54197,-9.35204,3.58423,-0.77519,-4.17954,-8.68895,-27.8,-19.0,4.5,29.685017,-64.77533,-97.616669,0.43432355935808953,-0.247169,-0.50377399,-0.704615
8.6872,56.8215,7.56351,-7.5707,4.07984,-0.61942,-5.09706,-8.10679,-24.7,-23.7,5.5,37.134632,-66.828522,-104.456573,0.34605681272643446,-0.24984001,-0.52984297,-0.73286498
8.7071,56.8415,7.34803,-5.20276,3.00242,-1.10506,-4.52285,-7.50081,-20.0,-26.7,8.4,41.962029,-69.284157,-112.784019,0.2556746041632198,-0.27898699,-0.53912002,-0.75242698
8.7285,56.8615,7.28817,-3.25143,1.17559,-2.38115,-2.47156,-6.85696,-17.0,-29.2,8.5,45.88641,-69.632484,-123.88295,0.15921827759613347,-0.31344801,-0.52973402,-0.771869
8.7481,56.8815,7.09902,-1.81486,-0.23224,-3.70429,-0.48014,-6.91438,-13.8,-32.4,7.3,48.656406,-65.768326,-133.825745,0.0943089949140539,-0.31944799,-0.512245,-0.79162103
8.7671,56.9016,6.19399,-1.15643,-1.2115,-4.8124,0.97861,-7.32305,-9.3,-33.6,3.6,50.411846,-57.72084,-145.424957,0.03923829388543608,-0.30615401,-0.485908,-0.81769401
8.7887,56.9216,4.99925,-1.60656,-0.88588,-5.5491,1.96515,-7.68468,-4.9,-34.9,-0.2,50.671005,-46.566181,-158.516739,0.011528960823919585,0.27773601,0.452768,0.84719002
8.8072,56.9416,3.46212,-1.82683,0.88588,-5.28643,2.16857,-7.82885,-1.1,-34.1,-4.3,49.020241,-34.447151,-178.538544,0.11176010969044284,0.26434401,0.39965501,0.870579
8.8378,56.9617,1.79331,-0.97686,2.1764,-4.58088,2.07572,-7.33405,6.8,-31.1,-7.2,45.867661,-23.953421,168.104324,0.1737817160755398,0.229582,0.35933,0.88767898
8.8504,56.9817,0.61293,-0.48364,1.97767,-4.64013,1.97248,-6.86551,11.3,-28.4,-9.7,42.966904,-13.363805,147.9711,0.29593158765734995,0.204421,0.31975901,0.87657899
8.867,57.0017,-0.68955,-0.37111,1.95373,-5.28887,2.35733,-6.6737,14.1,-25.5,-10.2,38.668377,-3.616647,137.585861,0.35090996734832125,0.14746401,0.297732,0.87548399
8.8876,57.0217,-2.32245,-0.46928,2.63131,-5.8582,2.89367,-6.31329,18.2,-20.9,-13.3,32.362385,4.604583,126.055885,0.42526061950752014,0.091909,0.26566201,0.86030799
8.9084,57.0418,-4.35758,-1.13489,4.99206,-5.73114,2.40864,-6.08972,20.8,-16.8,-14.6,24.676243,11.281933,121.185097,0.4590568760291691,0.020761,0.23239601,0.85722101
8.9303,57.0618,-7.08945,-1.73345,8.15251,-4.85577,1.1863,-5.07079,22.1,-12.3,-15.8,16.923187,15.635395,114.379356,0.5141583439326445,-0.034086,0.195425,0.83443898
8.954,57.0818,-9.20838,-1.6736,11.71279,-3.34204,-0.33598,-3.44223,23.8,-8.2,-17.3,9.963736,17.752918,108.650528,0.5631366062887042,-0.074837,0.159347,0.80739403
8.9758,57.1019,-10.47735,-1.45332,15.43589,-1.16187,-2.35183,-1.84787,24.1,-5.6,-16.7,5.124111,17.909332,102.965538,0.6091009397305993,-0.094166,0.131385,0.77644497
8.9874,57.1219,-11.49731,-1.18277,18.08635,1.24678,-4.82217,-0.68539,22.1,-6.2,-22.1,3.551858,15.268401,102.665398,0.6157473656681931,-0.084485,0.106946,0.77606702
9.007,57.1419,-11.11662,-0.99362,19.09195,2.95109,-3.99506,0.34086,21.2,-6.7,-21.8,5.08252,10.451966,100.470825,0.6332452429876118,-0.041703,0.092144,0.76731402
9.03,57.1619,-9.85962,-0.27534,18.04565,3.15634,-1.36284,1.2596,19.6,-9.0,-23.1,8.795464,6.644866,102.110046,0.6222135185312192,0.003176,0.095859,0.77695
9.0596,57.182,-8.85403,0.64885,17.07357,2.79165,0.44593,1.52167,19.6,-10.5,-22.1,12.40632,5.499719,101.886848,0.6216516029554657,0.030969,0.113862,0.77435499
9.0947,57.202,-8.56672,0.97686,16.73598,3.15451,0.93707,1.9847,20.1,-11.8,-19.3,15.807513,5.811857,103.478806,0.6070943070157878,0.045613,0.13892899,0.78105998
9.0975,57.222,-8.56432,1.01517,15.6418,3.83684,1.22356,2.89306,18.5,-15.6,-17.5,19.88402,6.308277,105.672005,0.5865550848677044,0.060951,0.170119,0.78949201
9.1204,57.242,-8.60981,1.09418,14.18368,4.28217,0.86071,3.86006,18.3,-19.0,-19.6,24.781223,6.410374,109.061691,0.5560914568760968,0.07984,0.20617101,0.801175
9.1305,57.2621,-8.72953,0.69913,12.76867,4.96023,-0.30299,4.92052,17.5,-20.4,-14.5,30.304815,4.918257,113.772705,0.5174297694779456,0.107976,0.241359,0.813851
9.151,57.2821,-8.028,0.05267,10.68325,5.53383,-1.54121,6.12698,14.9,-23.6,-14.4,36.472767,0.419501,120.616592,0.46945608968490316,0.151987,0.27357101,0.82563299
9.1671,57.3021,-6.22751,-0.40703,8.43024,5.80261,-2.4905,6.73968,11.1,-26.1,-10.6,42.426964,-7.942217,130.456635,0.4124270451507509,0.20987,0.30070901,0.83392602
9.187,57.3222,-3.98168,-0.90982,6.99128,6.27359,-3.63404,6.77388,6.0,-28.5,-7.4,46.595219,-18.845659,142.342209,0.3537164084653691,0.26824799,0.320761,0.83668399
9.2074,57.3422,-2.27696,-1.35277,5.47331,6.93943,-4.1209,6.74029,2.5,-30.4,-5.6,48.863316,-30.791367,154.774765,0.2988313990714497,0.322952,0.336364,0.832623
9.2269,57.3622,-0.85236,-1.92021,3.05509,6.84475,-3.3115,7.15445,-1.9,-30.8,1.4,49.468006,-43.919079,168.512604,0.23998440866285356,0.37677601,0.35211101,0.82247502
9.2811,57.3821,1.20193,-2.15724,0.82842,5.97121,-1.29687,7.26197,-5.6,-30.7,4.1,47.306767,-54.972107,-178.01001,0.17103460328337006,0.41651499,0.363204,0.815687
9.2853,57.4021,2.78454,-2.01359,-0.55308,5.24489,-0.33048,7.09581,-10.8,-29.5,6.9,42.987198,-62.235554,-166.413925,0.09381201343356668,0.440382,0.36835101,0.81337601
9.305,57.4221,3.68958,-2.13569,-1.3384,4.78124,-0.33903,7.15079,-13.6,-27.5,10.7,37.891266,-69.993912,-154.838623,0.0130366328206091,0.471508,0.37773499,0.79676002
9.3145,57.4421,4.54673,-2.43019,-1.925,4.60837,-0.68111,7.02923,-17.7,-24.0,13.5,31.669867,-75.747696,-145.405212,0.06586846814675491,-0.499874,-0.381262,-0.774872
9.3279,57.4621,5.54753,-2.75342,-2.76299,4.36402,-0.81001,6.81542,-20.2,-20.9,16.1,24.932751,-80.257637,-137.500977,0.14091499911726804,-0.52670699,-0.38191101,-0.74623501
9.3491,57.4821,6.30173,-3.48128,-3.44057,3.91198,-0.41539,6.65721,-22.6,-14.4,19.2,17.951994,-83.468246,-130.964783,0.21138682442928947,-0.54992199,-0.37878501,-0.71373898
9.3718,57.5021,6.522,-4.04872,-3.55071,3.39397,0.35003,6.66943,-24.7,-10.5,18.6,10.724563,-85.037666,-125.462372,0.2800779785001657,-0.56653798,-0.36951301,-0.68121302
9.3885,57.5221,6.57228,-4.73109,-3.5962,3.15451,0.29932,6.76411,-26.5,-5.5,19.8,2.236471,-85.862282,-120.668709,0.350761691404035,-0.58465898,-0.34946299,-0.642663
9.4118,57.5421,6.58665,-5.80851,-3.74943,3.03539,-0.44593,6.95837,-25.9,-1.0,21.1,-6.431796,-86.584213,-116.404861,0.4156188691109917,-0.60339999,-0.32604501,-0.597381
9.4268,57.5621,6.54595,-7.10621,-3.77338,2.89123,-0.77763,7.23631,-25.6,4.1,21.8,-15.220016,-87.486893,-112.519035,0.47387692195898196,-0.623043,-0.30110201,-0.54460597
9.4489,57.5821,6.50046,-8.55953,-3.64887,2.85824,-0.96211,7.41652,-24.5,8.0,21.2,-24.160337,-88.168549,-108.891365,0.5268894102231888,-0.64088899,-0.27327901,-0.48679301
9.515,57.6021,6.40229,-10.0799,-3.81408,2.95231,-1.19119,7.48554,-23.4,12.9,19.4,-33.130802,-88.41301,-105.254601,0.5750362434094737,-0.65516198,-0.243242,-0.425358
9.5157,57.6221,6.05991,-11.56674,-4.43659,2.89184,-1.28404,7.57717,-20.6,16.9,19.4,-42.018764,-88.092949,-101.259865,0.6183225065046232,-0.66520101,-0.212476,-0.36060899
9.5171,57.6421,5.64331,-12.78543,-5.28177,2.57174,-1.53266,7.47394,-16.5,21.2,19.4,-50.769188,-87.093842,-96.961662,0.6552044343608942,-0.67200297,-0.179943,-0.294516
9.5276,57.6621,5.10938,-13.91553,-6.1485,2.19301,-2.08244,7.44217,-13.2,24.3,17.3,-59.20834,-85.709908,-92.307343,0.683851020278613,-0.67735499,-0.148469,-0.226925
9.5506,57.6821,4.65447,-14.73676,-6.75664,1.81732,-2.72079,7.37192,-9.6,26.8,18.0,-67.422874,-84.12458,-87.191147,0.7036585084158647,-0.68269902,-0.119464,-0.156573
9.5727,57.7021,4.48208,-15.35448,-7.2331,1.529,-3.4575,7.00113,-4.3,28.9,16.9,-75.365662,-79.350159,-78.544571,0.7185958992985277,-0.68406701,-0.093315,-0.083454
9.5871,57.7221,4.8101,-15.4742,-7.79576,1.29748,-4.21802,6.23449,0.0,29.5,15.7,-82.323532,-62.209682,-56.848507,0.7287500012905386,-0.68074799,-0.073789,-0.007797
9.6066,57.7421,4.8915,-14.91154,-8.97853,0.74953,-4.29499,5.09339,5.9,29.2,16.1,-85.338478,-4.101877,6.429823,0.7322833044710224,-0.674797,-0.06426,0.065428
9.628,57.7621,4.05111,-13.89877,-10.25229,-0.50763,-3.76598,4.04271,8.8,28.4,14.3,-82.824303,41.364098,56.940819,0.7281500454092136,-0.67027199,-0.062166,0.129106
9.6521,57.7821,2.90426,-13.26907,-10.93226,-2.16552,-3.12641,3.42573,12.5,27.8,16.0,-79.970909,61.103268,81.090691,0.7137351246382649,-0.67369002,-0.063771,0.180713
9.667,57.802,2.35357,-12.70402,-10.57791,-3.44284,-2.96758,2.89489,13.5,25.6,16.0,-77.413689,77.933762,101.783295,0.6878698044653944,-0.68748701,-0.067719,0.222735
9.688,57.822,2.46371,-11.87081,-9.94342,-4.17588,-3.6377,2.10687,16.0,23.5,16.7,-74.631157,92.212982,120.127632,0.6537365847755804,-0.70639902,-0.078213,0.25983
9.7097,57.842,2.66722,-11.24591,-9.55316,-4.75192,-4.74887,1.11177,18.0,20.2,16.7,-71.844719,103.106865,136.1371,0.6143031117553287,-0.72458601,-0.10151,0.29547
9.7279,57.862,2.32724,-11.55238,-8.85882,-5.5998,-5.5039,0.57238,22.0,19.5,16.5,-69.116135,111.725777,151.427643,0.5690293507015775,-0.73912197,-0.14026999,0.33200699
9.7501,57.882,2.61694,-12.07912,-7.52999,-6.26442,-5.19785,0.4612,23.9,16.7,17.8,-65.661758,119.257713,166.36377,0.5148908532179796,-0.75237697,-0.186112,0.36630401
9.767,57.902,3.07425,-12.20841,-5.76541,-6.30963,-5.40555,-0.02932,24.6,14.8,15.0,-61.412472,125.146988,179.620865,0.4545525968776765,-0.76393098,-0.232678,0.394528
9.7867,57.922,3.20833,-12.03123,-4.47969,-5.92906,-4.97611,-0.44288,25.6,12.6,13.8,-57.243305,128.842865,-168.95047,0.3935851518105827,-0.76818198,-0.282085,0.41882601
9.808,57.942,2.34639,-11.30816,-4.03675,-5.55765,-4.45076,-0.64874,27.3,12.2,12.9,-53.785374,132.162766,-158.487122,0.3387291370366882,-0.76671302,-0.332322,0.43240699
9.8274,57.962,0.85954,-10.34566,-4.50363,-5.54116,-3.93153,-0.50335,27.9,10.9,12.6,-50.925671,135.485352,-148.719269,0.2909672153482922,-0.76075202,-0.38208601,0.43658301
9.8478,57.982,-0.86194,-9.58428,-5.14051,-5.72992,-3.06593,-0.21625,28.1,9.2,8.7,-47.693119,138.256866,-140.222809,0.24437850548740936,-0.754641,-0.42617899,0.43493399
9.8765,58.002,-1.70233,-9.72315,-5.75823,-6.02557,-2.26692,0.08308,29.4,7.5,6.7,-43.823971,140.737503,-132.880859,0.19761202365002958,-0.75088,-0.46419701,0.426204
9.8906,58.022,-2.344,-9.44541,-5.40627,-6.47456,-1.61024,-0.17776,29.9,7.2,9.1,-39.363113,143.218033,-126.20784,0.15064325299461553,-0.74877,-0.49895301,0.40950701
9.9065,58.042,-2.97369,-8.62897,-4.32406,-6.13125,-1.59619,-0.27978,29.9,5.9,8.5,-34.675503,145.502609,-120.019028,0.10502211501640626,-0.74540502,-0.53221798,0.387409
9.9284,58.062,-3.87154,-7.84125,-3.94337,-5.34263,-1.65422,-0.48869,30.5,5.8,5.9,-30.491611,146.694168,-114.80761,0.06332599757761136,-0.73815,-0.56144202,0.36865601
9.9486,58.082,-5.16684,-7.2355,-4.40068,-4.98283,-1.31947,-0.70921,30.2,5.8,6.5,-27.170055,147.200195,-110.241066,0.027951708851502194,-0.72703803,-0.587641,0.353995
9.9687,58.102,-7.20437,-6.25863,-3.81887,-4.79712,-1.18141,-0.34636,30.5,5.0,4.6,-24.099792,147.52684,-105.996727,0.004679966912232548,0.71474099,0.61171699,-0.33900699
9.9879,58.122,-8.43503,-5.07347,-3.64169,-4.22291,-1.51311,0.52351,30.2,4.1,4.1,-20.93849,147.045013,-102.79142,0.037878022471859916,0.70474702,0.62862903,-0.326684
10.0112,58.142,-7.9897,-4.12294,-4.70954,-4.07814,-1.59802,0.76053,29.9,3.0,5.2,-17.714703,145.395355,-100.741249,0.07422000378846398,0.697357,0.63696402,-0.32009599
10.0281,58.162,-7.8628,-3.46691,-5.7702,-4.30599,-1.24983,0.62492,30.4,2.0,3.4,-14.405083,143.619492,-98.718407,0.11134294125034616,0.68970603,0.64358097,-0.31258899
10.0508,58.182,-8.36799,-2.69116,-5.88034,-4.52895,-0.63102,0.86987,30.7,2.2,3.1,-10.845637,142.285233,-96.35746,0.14791404381470957,0.681705,0.65095699,-0.29942399
10.0722,58.202,-9.0336,-2.04471,-6.64651,-4.69572,-0.13378,1.31458,30.4,1.5,1.8,-6.873744,141.457123,-94.068138,0.18313729389138333,0.67602801,0.65669203,-0.27964699
10.0861,58.2219,-9.48612,-2.03274,-7.35282,-5.50878,0.77519,1.69576,30.6,0.8,3.1,-2.264644,141.146317,-91.850304,0.21792662247898623,0.67282498,0.66058803,-0.25186899
10.1098,58.2419,-9.98413,-2.15245,-7.25465,-6.15997,1.59802,1.99203,30.4,-0.6,2.3,3.304235,141.655838,-89.318115,0.2526431740964689,0.67036098,0.66491503,-0.211366
10.1267,58.2619,-11.12141,-2.16921,-7.37916,-6.61017,2.52348,2.35855,29.8,-2.4,1.9,9.482617,142.792862,-86.679123,0.2849956014283714,0.66741198,0.66883898,-0.16122399
10.1522,58.2819,-11.89476,-2.20273,-7.16606,-7.48249,3.23209,3.08487,29.9,-3.4,3.5,16.474787,144.688202,-84.156937,0.31428943983226587,0.66424602,0.67084599,-0.099825
10.1691,58.3019,-11.97616,-2.5092,-6.62017,-8.23324,3.69329,3.48315,28.8,-6.7,2.5,24.464338,146.743805,-81.752457,0.3443200038375922,0.65866798,0.668378,-0.029514
10.1863,58.3219,-11.26506,-2.69116,-5.19797,-8.6187,5.0433,3.43673,28.0,-9.3,2.8,33.123001,149.1185,-79.259003,0.3717968828586113,0.647744,0.66318101,0.048844
10.2065,58.3419,-10.81494,-2.28653,-3.49564,-8.34442,6.36155,3.24064,26.2,-13.3,4.1,41.756145,152.453186,-76.508118,0.3889939327239167,0.62849098,0.66008002,0.13407899
10.2275,58.3619,-9.72554,-1.25699,-2.11175,-7.67125,6.98158,3.0641,24.1,-15.6,4.2,49.853844,156.706619,-73.929214,0.39449361162211366,0.60206097,0.658494,0.219734
10.2514,58.3819,-8.57629,0.13887,-1.32643,-6.91683,6.84902,2.72996,22.4,-18.6,3.9,57.136509,161.234695,-71.513885,0.3918926979628466,0.56960201,0.65760797,0.29920799
10.2665,58.4019,-7.89871,1.24742,-1.23305,-6.72929,6.60101,2.70858,20.2,-20.9,2.0,63.766476,165.135468,-69.019417,0.3872417556665082,0.533328,0.65511698,0.36936
10.2871,58.4219,-7.16846,1.79331,-0.70392,-7.20393,7.37009,3.03722,18.3,-22.7,1.6,70.637405,169.035004,-66.549362,0.3809205732645056,0.49180499,0.64874399,0.43835899
10.3066,58.4419,-5.96174,2.03992,1.08461,-7.80136,8.20942,3.08915,16.1,-24.9,1.0,78.424591,175.048752,-65.168579,0.36835243447785115,0.439886,0.637532,0.51416898
10.3283,58.4619,-4.04632,2.33681,4.61616,-7.47516,8.70727,2.66276,14.5,-26.1,0.9,87.015739,-169.802063,-71.828003,0.350051365330061,0.37419301,0.620947,0.59318501
10.3498,58.4819,-2.54751,3.36635,8.26743,-5.62729,9.1587,1.33963,13.3,-26.1,-1.4,84.370575,0.014118,127.894768,0.3253581034846664,0.29485101,0.60334003,0.66572201
10.3707,58.5019,-3.86675,4.18519,8.41827,-3.41229,9.23201,0.82711,12.6,-26.9,-3.5,77.479362,12.783449,125.338348,0.29400190539583143,0.208387,0.59234202,0.72060299
10.3943,58.5219,-5.92583,4.38631,7.01762,-3.12763,8.83861,1.61024,11.1,-27.4,-2.3,72.457794,20.283165,128.228134,0.25304601626953044,0.126205,0.58542001,0.75981802
10.4072,58.5419,-7.80294,4.35997,7.22113,-2.96453,6.76289,2.74706,9.7,-27.7,-1.4,68.194641,23.202236,135.296005,0.20422108843946424,0.054824,0.57121801,0.79309398
10.4277,58.5619,-9.03599,4.05111,8.30095,-1.32741,2.90711,4.06714,8.9,-29.2,-0.7,65.158791,22.070101,144.032272,0.15732452421653623,0.009767,0.55248898,0.81848001
10.4507,58.5819,-9.38556,3.35198,7.8197,0.52107,-1.57115,5.93639,6.3,-30.8,0.8,64.437408,15.643164,153.60939,0.12068737117718452,0.008477,0.54052901,0.83258098
10.4695,58.6019,-8.39193,2.03992,6.00724,1.24433,-4.24063,8.04815,2.3,-30.6,-0.6,65.064911,1.381647,167.053925,0.08860374063965669,0.050522,0.53545702,0.83838099
10.4868,58.6218,-5.64091,0.54829,3.84042,0.91324,-5.03231,9.74513,-3.3,-30.3,-0.2,64.014938,-19.228987,-174.916824,0.05137556232022394,0.118315,0.52835202,0.83916998
10.5065,58.6418,-0.84518,0.12929,0.99123,-0.1912,-4.32798,10.72069,-9.3,-30.2,0.0,59.043842,-38.295197,-158.1931,0.003584879827743539,0.192215,0.51108098,0.83775699
10.5271,58.6618,5.05192,0.10295,0.70152,-2.92482,-1.9114,9.85692,-14.3,-28.4,-1.0,50.290096,-48.49102,-148.700195,0.05464735729016414,-0.25343901,-0.47334701,-0.84185803
10.5509,58.6818,8.87318,1.08221,3.70634,-2.41536,-2.30418,7.7922,-18.4,-25.8,-1.2,39.851532,-54.637486,-143.095001,0.11602209415942918,-0.31344399,-0.42379099,-0.84183902
10.5676,58.7018,10.28341,1.31446,4.41025,-1.73608,-2.97186,7.01762,-22.2,-22.2,1.1,31.241758,-59.446751,-139.841293,0.16175050809119498,-0.36819401,-0.38356501,-0.83135301
10.5873,58.7218,10.02483,0.43815,4.6018,-1.86803,-2.83319,6.73784,-25.1,-18.9,-1.3,23.116514,-63.536633,-137.701385,0.20214744763790587,-0.419606,-0.34497601,-0.81489801
10.6063,58.7418,9.31612,-0.79969,5.43261,-1.7202,-2.7776,7.1062,-28.0,-15.4,0.9,14.803178,-66.679321,-136.421661,0.24177999839258768,-0.466135,-0.302241,-0.79555702
10.6264,58.7618,9.4095,-2.06386,6.09343,-1.06046,-2.9627,7.45072,-29.0,-11.2,0.9,6.257238,-69.665611,-135.04715,0.2845330629433407,-0.50988197,-0.259435,-0.769256
10.6491,58.7818,9.56513,-3.58902,5.18839,-0.47525,-2.98347,7.81297,-31.0,-4.0,4.9,-2.304213,-72.525711,-133.199295,0.33108080851979155,-0.54917097,-0.21998601,-0.73512101
10.6767,58.8018,9.56513,-5.16206,3.28495,-0.59865,-2.74462,8.32365,-31.0,1.2,5.2,-11.152343,-74.998947,-130.749542,0.3827868026753007,-0.58289301,-0.182377,-0.69314402
10.6917,58.8218,9.94821,-6.65369,1.34319,-0.85643,-2.94987,8.51974,-29.3,6.8,8.4,-20.534647,-77.138412,-128.685394,0.4332829699049332,-0.61332798,-0.140009,-0.64536202
10.7073,58.8418,10.5827,-8.28898,-0.53153,-1.05863,-3.56318,8.38596,-27.7,11.3,11.2,-30.021505,-79.770798,-127.155647,0.4785329777094362,-0.64310801,-0.097631,-0.58981901
10.737,58.8618,10.63297,-9.90033,-2.49723,-1.19852,-4.30049,8.31082,-23.9,16.3,13.2,-39.280399,-83.716316,-126.447922,0.5162500516037347,-0.67385697,-0.059633,-0.52521098
10.7475,58.8818,10.3289,-11.43027,-4.62574,-1.55282,-4.50208,8.15566,-20.8,20.0,15.7,-48.32687,-89.429543,-127.134384,0.5465090178608033,-0.70430899,-0.025279,-0.452369
10.7713,58.9018,10.07511,-12.72078,-6.29215,-1.94988,-4.66212,7.71889,-16.1,22.3,19.3,-56.748665,-97.826286,-130.790222,0.5664241896192815,-0.73298699,0.007851,-0.37660599
10.7887,58.9218,9.88357,-13.52765,-7.6545,-2.29319,-4.70611,7.09398,-11.4,24.5,20.7,-63.985435,-110.798836,-139.125061,0.5768227939731577,-0.75922,0.038148,-0.299007
10.8064,58.9418,9.06951,-13.96581,-8.5739,-2.68964,-4.65418,6.3982,-6.0,23.8,22.7,-69.400406,-131.117645,-154.968399,0.5796695787838965,-0.78172499,0.067749,-0.219771
10.8271,58.9618,8.0304,-14.22918,-9.07909,-3.02012,-4.71344,5.8075,-1.7,23.0,23.4,-70.994606,-157.954285,-177.41861,0.5733163546954155,-0.80141902,0.092995,-0.142786
10.8492,58.9818,7.33127,-14.12862,-8.77023,-3.27057,-4.69572,4.98466,2.1,21.6,25.4,-68.583778,177.662308,162.711792,0.5594277215834049,-0.81835002,0.112783,-0.067999
10.8752,59.0018,7.22832,-13.31456,-7.99209,-3.26935,-4.2333,4.12029,6.4,19.6,26.8,-63.879433,161.646454,151.252365,0.5395064092651903,-0.83246303,0.126238,0.001451
10.8882,59.0217,7.11818,-11.96659,-7.33366,-3.08365,-3.75988,2.44652,10.5,17.3,28.5,-58.773552,152.223785,146.160583,0.5166065877728232,-0.84351802,0.133486,0.061453
10.913,59.0417,6.13174,-10.72396,-7.38873,-3.29806,-3.16795,1.30542,14.4,14.6,29.9,-54.4692,147.53801,145.859039,0.4929925384792552,-0.85363901,0.128323,0.108591
10.9378,59.0618,4.767,-9.77582,-7.779,-3.92725,-2.38115,0.63835,14.0,12.5,27.1,-50.472866,145.598801,148.076538,0.46514472626974923,-0.86545599,0.116403,0.14517801
10.9508,59.0818,3.69915,-8.9498,-7.73351,-4.46115,-2.4459,0.02566,15.0,10.6,28.1,-46.316555,145.358337,151.689148,0.4309829814349978,-0.87971002,0.10112,0.173605
10.9701,59.1018,2.57145,-8.30574,-7.60422,-4.83439,-2.40314,-0.4496,16.3,7.9,27.2,-42.495197,146.38089,156.821732,0.3939917144401894,-0.89506298,0.076569,0.194345
10.9878,59.1219,1.57304,-7.84364,-7.6952,-5.25588,-2.15697,-0.83505,17.8,5.3,27.6,-39.068394,148.756088,163.117813,0.35578745503353526,-0.91101199,0.044166,0.203769
11.0089,59.1419,1.09179,-7.60422,-7.66647,-5.67555,-2.26387,-1.26571,18.5,3.0,26.1,-35.259495,151.088959,169.643295,0.3135527819506628,-0.925919,0.007999,0.210463
11.0284,59.1619,0.6704,-7.67365,-7.41267,-5.92539,-3.02867,-1.70492,19.5,0.0,24.6,-31.190622,152.732361,176.280106,0.2684993007870594,-0.93760699,-0.032956,0.218438
11.0543,59.1819,0.0838,-7.85322,-6.91467,-6.17035,-3.24553,-1.7764,21.6,-2.4,23.4,-27.039778,153.201492,-177.020615,0.22148957879742312,-0.94409299,-0.078746,0.231149
11.0785,59.202,-0.36872,-8.09265,-6.19638,-6.26748,-2.91077,-1.93339,23.2,-4.5,20.5,-22.82893,153.032578,-170.503479,0.1728728683704284,-0.94611102,-0.124891,0.24370299
11.0925,59.2221,-0.78772,-8.00406,-5.07586,-6.06772,-2.24126,-2.0464,24.6,-5.1,19.9,-18.842722,152.864395,-164.027328,0.12543079814686525,-0.94434398,-0.171267,0.251295
11.1108,59.2421,-1.41502,-7.23071,-3.84521,-5.36095,-2.23943,-2.1985,25.4,-7.2,17.8,-15.43281,152.815994,-157.844162,0.08334530608078032,-0.93918103,-0.21603701,0.25361499
11.1301,59.2622,-2.35597,-6.21793,-3.15805,-3.98345,-3.07265,-2.31701,27.6,-7.3,14.5,-13.305373,151.881149,-152.159973,0.05104179051149785,-0.92844599,-0.25910601,0.26124099
11.15,59.2823,-2.90665,-5.10938,-3.65606,-3.46605,-3.47521,-2.53509,29.1,-7.1,10.9,-12.567673,149.729889,-147.041489,0.027715060281728605,-0.91199201,-0.29958701,0.278837
11.1689,59.3023,-3.62014,-4.33843,-3.91703,-3.35548,-2.8057,-2.76355,29.5,-5.7,10.3,-12.487986,147.262009,-141.824219,0.007192679577145007,-0.89130998,-0.34086701,0.29887199
11.2022,59.3224,-4.90826,-3.87154,-4.50842,-3.32494,-2.06045,-2.67192,29.8,-5.6,7.6,-12.613215,145.534882,-136.569153,0.011528597847080614,0.86991799,0.38148201,-0.31237999
11.2111,59.3424,-6.81889,-3.90506,-6.00005,-3.7104,-0.8937,-2.22783,30.5,-4.6,7.0,-12.478975,144.61058,-131.48201,0.02975121706753402,0.84984702,0.419222,-0.31800601
11.2288,59.3625,-8.67446,-3.81887,-6.28497,-4.31393,0.00183,-1.45752,31.1,-4.0,6.1,-11.271544,144.636688,-126.608154,0.05221731582588005,0.83368301,0.45260999,-0.31207401
11.2536,59.3826,-9.99849,-3.26819,-6.3137,-4.57721,0.95967,-0.7251,30.1,-3.7,7.2,-8.896911,145.23027,-122.253098,0.0790384951161084,0.82197797,0.47972301,-0.296599
11.2739,59.4026,-10.92268,-2.52357,-6.05991,-4.99077,1.99264,0.04581,30.9,-4.4,6.0,-5.597425,146.445038,-118.514595,0.10720735590918835,0.81470001,0.50095302,-0.27169201
11.2915,59.4227,-10.74072,-1.60895,-5.67683,-5.1838,2.67131,0.62064,30.3,-5.4,5.4,-1.339807,148.28862,-115.392357,0.1364971125737076,0.81130499,0.51674002,-0.23692299
11.3114,59.4427,-10.18524,-0.80208,-6.13413,-5.49412,3.59861,0.73915,30.1,-6.3,8.8,3.44549,150.472595,-112.755417,0.16525403137618094,0.80909199,0.52881199,-0.196008
11.3287,59.4628,-9.7854,0.05746,-5.854,-5.87103,4.33409,0.72449,28.7,-7.7,7.7,8.741094,153.389297,-110.100204,0.19224300043772363,0.80537897,0.54148602,-0.145603
11.3526,59.4829,-9.6178,1.13728,-5.40388,-5.66822,4.8014,0.87842,28.3,-8.3,10.4,14.355022,156.666138,-107.54126,0.21728703978682173,0.79873401,0.553891,-0.089527
11.369,59.5029,-9.17726,1.97288,-5.71274,-5.54421,5.25527,1.03725,27.4,-9.8,9.0,19.9237,160.267731,-105.400299,0.23784937460522915,0.78985697,0.56444198,-0.030966
11.3889,59.523,-8.60023,2.49244,-6.5651,-5.76046,5.56376,1.05008,26.7,-11.6,11.2,25.595419,164.193344,-103.663147,0.2553596832705977,0.778207,0.57295299,0.030169
11.4078,59.5431,-7.58506,2.8444,-7.41746,-6.21861,5.84354,0.9279,24.6,-13.6,12.7,31.642725,168.371536,-102.051193,0.27217303860158426,0.76149899,0.58055902,0.094828
11.4293,59.5631,-5.80372,3.27776,-7.84364,-6.62606,5.98281,0.56688,23.0,-15.6,12.7,38.132755,172.752975,-100.427216,0.28874654698049484,0.73803902,0.58774602,0.16272201
11.4542,59.5832,-4.28336,3.86197,-7.70717,-6.72563,5.62424,-0.26817,21.1,-18.2,12.1,44.924763,176.895416,-98.454933,0.3055961772204925,0.70635402,0.59544897,0.230468
11.4686,59.6032,-3.38311,4.28815,-7.51323,-6.66821,5.17647,-0.89797,23.1,-19.5,12.3,51.609947,179.785797,-95.485191,0.32332079413248305,0.66687202,0.60479999,0.29148301
11.491,59.6233,-3.57465,4.34321,-7.17085,-6.91011,5.68166,-1.31031,18.9,-21.6,11.0,58.188236,-178.582199,-91.373032,0.34034851824510554,0.62099397,0.61469299,0.34739301
11.5084,59.6434,-4.83165,4.35758,-5.32487,-6.77266,6.62239,-0.97983,17.3,-22.9,8.2,64.956657,-177.130753,-86.212425,0.35141641718707317,0.566477,0.62489003,0.406353
11.5295,59.6634,-5.37754,5.04234,-2.8037,-5.73664,6.84475,-0.13928,17.3,-24.1,8.5,71.233566,-174.668716,-81.439644,0.35085006966426485,0.50922298,0.63312501,0.465563
11.5528,59.6834,-4.35997,5.95935,-0.78293,-4.51063,6.58391,0.13989,15.0,-25.3,7.0,76.373581,-170.740051,-78.189377,0.3393494353635185,0.45530701,0.63949299,0.51825303
11.6043,59.7034,-3.44776,6.59623,0.16042,-3.64931,6.60284,0.05315,14.9,-26.0,5.9,80.475082,-167.209778,-74.808685,0.3224043721419723,0.403662,0.64632398,0.56158501
11.6056,59.7235,-3.54592,6.72791,-0.33759,-3.60716,7.33588,0.41111,13.7,-26.4,8.2,84.098434,-163.9673,-70.931137,0.3004894157593902,0.35056901,0.65306801,0.60025799
11.6128,59.7435,-3.34959,6.34004,-0.11014,-4.47031,8.47453,0.87293,12.1,-26.7,8.5,87.86174,-140.552124,-86.014404,0.26778002032586284,0.29119501,0.65543002,0.64335901
11.6282,59.7635,-2.87552,6.49327,2.81327,-4.07814,8.2925,0.61331,10.6,-28.4,6.0,86.690094,-13.714456,156.585129,0.2267583336821803,0.223304,0.64969099,0.69037497
11.6503,59.7836,-2.8013,6.98889,5.69598,-1.9621,6.9376,0.29627,9.3,-28.1,7.3,82.852486,5.763475,145.976807,0.1872812392145029,0.157285,0.64293599,0.725824
11.6686,59.8036,-4.03196,7.42465,4.94657,-0.06597,4.85271,0.551,8.3,-28.6,6.0,81.006584,15.859185,142.98555,0.15408437624833746,0.10472,0.64331198,0.74259102
11.6919,59.8236,-5.18121,7.53957,3.44536,-0.64141,3.83868,1.65422,7.4,-28.3,9.4,80.455849,20.218302,143.756424,0.12605116579000664,0.070395,0.64595199,0.74960101
11.7079,59.8435,-5.58105,7.33606,4.31448,-0.52473,2.49355,2.53081,5.3,-29.7,9.0,79.56617,15.946248,152.159164,0.09694010197054226,0.048987,0.64073199,0.76004303
11.7305,59.8635,-5.78936,6.86439,4.45335,0.3317,1.17714,3.72689,3.5,-29.7,9.2,79.140686,6.828089,164.040512,0.06926733250241415,0.042816,0.636114,0.767286
11.7528,59.8835,-5.27698,6.42384,3.13889,0.3207,0.72937,4.91258,0.5,-29.7,8.1,78.960579,-9.089353,-178.398331,0.039656433934225875,0.052294,0.63461101,0.77003998
11.7694,59.9035,-4.08942,5.80372,2.61455,-0.34453,0.49847,5.75313,-2.0,-29.2,8.5,77.165878,-27.302361,-158.661911,0.004249019696153558,0.069105,0.62971097,0.77373803
11.7895,59.9235,-2.79412,5.40148,2.90186,-0.51129,0.22724,6.4935,-6.4,-29.8,10.9,73.438187,-40.591263,-144.01387,0.03501232033897717,-0.091218,-0.61923498,-0.77910298
11.8118,59.9435,-1.02954,5.32966,3.09819,-0.38485,-0.59376,7.03167,-10.3,-28.8,6.4,68.490242,-49.950916,-133.437164,0.0779266284703733,-0.118992,-0.60653102,-0.782233
11.8373,59.9635,1.0894,5.79415,2.3823,-0.43982,-1.21868,7.11169,-14.0,-27.2,8.6,62.825672,-57.042004,-125.871483,0.11957127423842014,-0.154515,-0.59320998,-0.78097999
11.8526,59.9835,3.8045,6.18441,0.7111,-1.02442,-1.29259,6.9492,-17.4,-25.9,8.3,56.709919,-62.059708,-120.865387,0.15916451683971403,-0.193747,-0.57781798,-0.77669501
11.8717,60.0035,6.59383,6.19399,-0.6273,-2.31579,-0.90347,6.17035,-21.2,-24.5,6.4,50.249233,-65.010269,-118.153366,0.19665359704993843,-0.233365,-0.55720001,-0.77226698
11.9005,60.0235,8.67446,5.74387,-0.65603,-3.01829,-0.97066,5.29681,-23.3,-22.0,6.3,43.827507,-65.907028,-117.886284,0.22770120257969462,-0.270758,-0.52862102,-0.77162302
11.9107,60.0435,9.28021,4.84841,0.12929,-3.23331,-1.68477,4.8014,-26.5,-18.6,6.0,37.759018,-66.771889,-118.519928,0.25079626197198296,-0.30941299,-0.49835899,-0.77006698
11.9289,60.0635,8.83727,3.55071,1.65444,-2.93826,-2.8955,4.8576,-27.7,-16.0,5.3,31.856146,-68.621368,-119.413872,0.2670862884839278,-0.353686,-0.469143,-0.76385599
11.9501,60.0835,7.98251,1.69275,2.87313,-2.2712,-3.76537,5.37867,-29.1,-14.1,7.7,25.868004,-72.064041,-120.035698,0.27982822296462434,-0.406138,-0.44328699,-0.74849498
11.9703,60.1035,7.00804,-0.39506,3.10298,-1.83137,-3.73972,6.29741,-29.3,-10.6,8.9,19.387238,-76.248184,-120.294792,0.2958348965170938,-0.46186799,-0.41780299,-0.72429299
11.988,60.1235,6.74946,-2.39188,2.40385,-1.74707,-3.45383,7.32427,-29.7,-6.6,11.6,11.849792,-80.125359,-120.440453,0.3204263403618981,-0.51640701,-0.386529,-0.69371903
12.0106,60.1435,7.64013,-4.12055,1.40065,-1.66949,-3.43734,7.89482,-30.0,-2.0,12.5,3.233651,-83.575783,-120.800018,0.3517982747533869,-0.56878799,-0.34731099,-0.65733802
12.0288,60.1635,8.78699,-5.62655,-0.09338,-1.66888,-3.61327,8.11657,-28.1,2.3,16.5,-5.965133,-87.155525,-121.529915,0.3846327975503646,-0.61912799,-0.30331901,-0.61378801
12.0514,60.1835,9.76864,-7.12057,-1.69754,-1.83565,-3.86494,8.0903,-26.0,6.4,18.1,-15.328584,-91.33136,-122.922348,0.41469815611104394,-0.66727901,-0.25679299,-0.56286901
12.0724,60.2035,10.29059,-8.61939,-3.18439,-2.01341,-4.09402,7.84168,-25.0,9.8,19.4,-24.369017,-96.599907,-125.360535,0.438444181215511,-0.71285301,-0.21021,-0.50538999
12.0891,60.2235,10.18524,-10.12778,-4.49166,-2.16674,-4.15022,7.601,-21.7,13.3,21.6,-32.712067,-103.222481,-129.272766,0.45469619052580557,-0.75450802,-0.164149,-0.443874
12.1189,60.2435,9.81892,-11.23154,-5.94738,-2.29991,-4.09768,7.21187,-19.2,15.9,23.9,-40.07056,-111.363503,-134.855042,0.46459840979704126,-0.79063702,-0.119487,-0.38047901
12.1364,60.2634,9.11979,-11.85645,-7.28817,-2.62122,-3.98834,6.64988,-15.5,17.0,26.2,-45.900421,-121.200462,-142.412155,0.4672358663243218,-0.82114798,-0.077246,-0.31849599
12.1538,60.2834,8.52362,-12.41192,-7.94181,-3.04577,-4.06164,6.21433,-11.5,17.1,27.9,-49.75602,-132.927429,-152.012863,0.4618464880396946,-0.84767199,-0.038116,-0.25825799
12.1684,60.3034,8.25067,-12.63938,-7.45577,-3.11663,-4.09768,5.5772,-6.6,16.3,30.2,-51.492321,-146.705475,-163.478592,0.4489360654335978,-0.87190002,-0.000839,-0.195566
12.1884,60.3234,7.78379,-12.3377,-6.91706,-2.7324,-3.83807,4.83378,-1.8,15.7,33.2,-51.144505,-160.216721,-174.43869,0.4322493787522193,-0.89118302,0.030954,-0.134146
12.2114,60.3434,7.24747,-11.61463,-6.72552,-2.4117,-3.58639,3.94619,0.6,14.4,31.1,-49.496735,-171.639236,176.767288,0.41548834121830663,-0.90451699,0.056053,-0.077952
12.2388,60.3634,6.5675,-10.80536,-6.78298,-2.14597,-3.32677,3.10136,3.1,12.4,32.5,-47.105858,179.346069,170.43248,0.3986347639392727,-0.91367298,0.074174,-0.028111
12.2532,60.3834,5.7726,-9.73033,-7.27381,-1.96027,-3.2327,2.0464,4.5,11.5,31.9,-44.519238,172.460693,166.387833,0.38253461425646146,-0.91991699,0.084711,0.015622
12.2758,60.4034,4.86517,-8.64333,-8.1142,-2.18323,-3.13557,1.237,7.6,10.2,33.0,-42.03746,167.51413,164.518219,0.3669727983965018,-0.92472398,0.086337,0.052559
12.2933,60.4234,3.55071,-7.93463,-8.72713,-2.73484,-2.60717,0.67378,9.5,8.7,32.4,-39.749447,164.974976,164.963791,0.3502402849492045,-0.93016499,0.077924,0.077799
12.3408,60.4434,2.36315,-7.39831,-8.76065,-3.1936,-2.23821,0.33353,11.4,7.4,32.8,-37.136963,164.103683,166.684799,0.3284504591889615,-0.93761098,0.065109,0.093631
12.3434,60.4634,1.39586,-6.6489,-8.41588,-3.32005,-2.84663,-0.10751,11.9,5.2,32.9,-34.196232,163.530869,168.947281,0.30281181887621206,-0.94560599,0.049184,0.108237
12.3579,60.4834,0.46928,-5.84682,-8.34884,-3.21437,-3.42451,-0.47098,13.8,3.9,32.6,-31.376965,162.353622,171.602539,0.27730467197420233,-0.95183599,0.028289,0.127711
12.3689,60.5034,-0.30407,-5.435,-9.05275,-3.56929,-3.47338,-0.74892,15.6,1.6,31.2,-28.723835,160.674255,174.661774,0.251837410144639,-0.95590597,0.002883,0.151041
12.3926,60.5234,-0.65843,-5.31529,-9.64893,-4.40128,-3.25958,-1.04947,16.9,0.0,29.7,-25.66923,159.128754,178.221466,0.22118076679010734,-0.959396,-0.025349,0.17319299
12.4086,60.5434,-0.80208,-5.28895,-9.63456,-5.19724,-3.06105,-1.49051,19.0,-2.0,28.0,-21.892593,157.853714,-177.504272,0.18220489194244804,-0.96250403,-0.057445,0.192581
12.4312,60.5634,-0.79011,-5.80372,-9.44302,-5.89668,-2.53509,-1.96699,20.5,-5.1,26.3,-17.652988,156.87381,-172.452942,0.13696987513471687,-0.96397901,-0.094404,0.207537
12.4554,60.5834,-1.31206,-6.61538,-8.94501,-6.53565,-1.65789,-2.34939,22.4,-7.1,24.3,-13.079052,156.396652,-166.621796,0.08705828659558744,-0.96315902,-0.13641199,0.21479601
12.4685,60.6034,-2.09499,-7.00804,-7.98251,-6.74395,-0.71044,-2.37871,24.1,-8.9,19.2,-8.27354,156.560608,-160.359604,0.03506484792664919,-0.95979297,-0.181004,0.21167301
12.5238,60.6234,-2.87074,-6.63693,-6.73988,-6.36338,-0.44593,-2.35244,23.6,-9.9,20.9,-3.612699,157.019745,-154.227188,0.014369016802115376,0.95340198,0.22456101,-0.200974
12.5269,60.6434,-3.68958,-5.61697,-5.49247,-5.53933,-0.57788,-2.27608,24.8,-10.8,19.4,0.34265,157.036682,-148.505585,0.05685102715729493,0.94336498,0.26538801,-0.190787
12.5299,60.6633,-4.57067,-4.06787,-4.81967,-4.61936,-0.91874,-2.09832,25.1,-11.0,14.8,3.248376,156.357849,-143.297379,0.09080992117252118,0.93046898,0.30252999,-0.185625
12.5522,60.6833,-5.21234,-2.52117,-4.59701,-3.94008,-1.36834,-1.88574,25.8,-10.7,14.5,5.215208,154.896957,-138.628738,0.11823505772054187,0.915721,0.33519101,-0.18741
12.6036,60.7033,-5.40148,-1.35995,-5.07347,-3.63831,-1.65544,-1.68232,26.3,-11.1,11.4,6.631088,152.666092,-134.402924,0.14321472262473492,0.89956599,0.36329201,-0.195677
12.6064,60.7234,-5.79893,-0.8356,-5.81809,-3.96146,-0.91141,-1.50456,26.9,-11.2,10.2,8.039293,150.261902,-130.309448,0.16903906048644435,0.88246,0.38877699,-0.20382001
12.6137,60.7434,-6.46215,-0.6273,-5.92104,-4.30171,-0.47525,-1.25655,28.6,-10.8,10.1,9.973022,148.474014,-126.087082,0.19724512933945787,0.86528802,0.41356701,-0.203306
12.6366,60.7634,-7.08945,-0.17478,-5.37515,-4.19848,-0.57055,-0.97433,28.4,-11.1,9.2,12.298688,146.818054,-121.861504,0.2276682223833175,0.84768599,0.43622401,-0.19825301
12.6549,60.7835,-7.63055,0.43576,-4.80531,-3.96635,-0.70799,-0.71716,28.5,-10.3,6.0,14.612317,144.790085,-117.790695,0.25877056502755413,0.82936698,0.455475,-0.194244
12.6688,60.8035,-8.26743,0.78293,-4.69996,-4.06409,0.0562,-0.14539,29.0,-9.8,5.4,16.938696,142.665253,-114.026306,0.28940515074555856,0.81166798,0.47063699,-0.18957999
12.7107,60.8235,-8.6146,1.06306,-4.84362,-4.56805,1.64995,0.28161,28.8,-10.2,4.3,19.823793,141.525375,-110.433769,0.31863862232212153,0.79623598,0.483996,-0.17385501
12.7124,60.8435,-9.32091,1.37431,-4.9777,-5.03048,2.62367,0.66401,28.8,-10.8,4.9,23.417698,141.853546,-106.648315,0.34494814503594573,0.78183401,0.499562,-0.14207099
12.7544,60.8636,-9.7447,2.0088,-5.12854,-5.29376,2.64382,1.27854,28.2,-11.7,4.4,27.682291,142.585541,-102.819427,0.3713586939962483,0.76669502,0.51366502,-0.102077
12.7567,60.8836,-9.91469,2.29372,-6.18202,-5.98343,3.51919,1.82588,27.3,-12.7,5.0,32.634254,143.253784,-99.212708,0.39910575889706124,0.75106198,0.52278298,-0.057606
12.7813,60.9036,-10.09187,2.16921,-6.54834,-7.37192,5.55887,2.08977,27.2,-13.8,5.6,38.676449,144.898087,-95.257683,0.42502088140923033,0.73195797,0.53253001,0.002563
12.8583,60.9237,-10.64734,2.08781,-5.53556,-8.29677,7.70545,2.31274,26.2,-15.0,4.7,46.045525,147.816071,-90.22406,0.4462640188499621,0.70301098,0.54725802,0.084455
12.8592,60.9437,-10.66889,2.48286,-4.23787,-8.31143,9.49773,2.45018,25.7,-15.4,6.9,54.19455,152.178009,-84.669975,0.45598048361218213,0.66290802,0.56502599,0.182703
12.8598,60.9637,-9.54837,3.24903,-3.56986,-8.0396,10.61195,2.30418,24.1,-16.8,7.4,62.399025,157.868393,-79.033203,0.45014260441051246,0.61085498,0.58433002,0.28772601
12.8605,60.9837,-7.97054,3.99604,-3.24664,-7.92537,10.7775,1.88146,22.0,-19.4,6.9,70.410027,163.764954,-72.929268,0.43199173237134925,0.54622298,0.60215801,0.39042199
12.9004,61.0038,-7.21634,4.58743,-2.23865,-7.79769,10.25826,1.37994,19.6,-21.0,7.0,78.304298,166.556839,-63.817318,0.4084904817035274,0.469805,0.61469901,0.48431799
12.903,61.0238,-6.95537,4.67841,-0.44055,-7.37681,10.22588,1.4673,17.6,-23.4,6.5,85.673462,151.905853,-37.633892,0.3812211648540767,0.385656,0.62010503,0.56693
12.9149,61.0438,-6.78537,4.81249,2.54751,-6.38537,9.89174,2.01341,15.3,-24.2,7.0,85.860855,38.470417,87.463425,0.34440048335116874,0.297934,0.61885798,0.64003003
12.9296,61.0639,-5.4374,5.15248,6.54834,-3.77454,8.00844,2.78127,12.4,-26.1,5.7,80.566742,21.681812,115.40815,0.29751463841202713,0.218006,0.61345398,0.69830698
12.9523,61.0839,-3.60578,6.22033,9.8261,-0.75442,5.81055,2.92299,9.3,-27.2,7.0,77.502831,18.449287,127.715439,0.2490892976676838,0.159995,0.60972899,0.735246
12.9714,61.1039,-3.16523,7.05353,9.19162,1.65056,3.41107,3.16489,7.3,-28.1,7.0,77.290871,16.298105,136.263397,0.20582256395492646,0.127517,0.61494899,0.750476
12.9939,61.1239,-2.88989,7.14691,6.2323,1.34513,2.68597,3.92664,5.0,-28.1,9.7,78.687668,9.500912,147.148422,0.1675748308717599,0.117221,0.62412399,0.75408697
13.0401,61.144,-2.29372,6.80453,5.06868,0.62186,2.57235,4.6945,1.7,-29.3,10.9,78.925842,-5.174407,165.459381,0.1260695387979136,0.11492,0.62541997,0.76141298
13.0497,61.164,-1.4629,6.77819,4.98488,1.01098,2.05801,5.41837,-1.4,-29.6,10.3,77.47686,-22.520145,-173.47963,0.07850218844108325,0.117159,0.62139201,0.77070302
13.0608,61.184,-0.33041,6.89551,4.42223,1.67744,0.2926,5.65783,-5.1,-28.5,10.2,75.015976,-39.142223,-153.901947,0.02995799533345256,0.129334,0.61887902,0.77418602
13.0734,61.2041,0.51237,6.74467,3.25621,2.04396,-1.33596,5.86736,-8.0,-27.9,13.5,71.744873,-54.060841,-137.88916,0.010841638354959693,-0.156146,-0.61942899,-0.76929098
13.0951,61.2241,1.01278,5.77499,1.59938,1.85275,-1.79411,6.33406,-11.4,-27.2,12.3,67.415489,-66.206749,-126.042267,0.0460363472484402,-0.19399101,-0.62040198,-0.75851798
13.1107,61.2441,2.30569,4.92263,0.04549,1.3042,-1.27488,6.83986,-14.5,-25.3,13.1,61.880421,-74.37426,-118.309074,0.08355049472887009,-0.235075,-0.61746699,-0.74598497
13.1345,61.2641,4.12055,4.38152,-1.53234,0.6408,-1.05802,7.06649,-17.0,-23.0,14.9,55.442989,-79.058235,-113.641922,0.12585599258406013,-0.27520999,-0.60862702,-0.73347998
13.152,61.2842,6.2323,3.96252,-2.60976,-0.30177,-0.73426,6.8704,-20.2,-21.4,16.1,48.429111,-81.72303,-111.063194,0.1691428418295602,-0.31636301,-0.59342498,-0.72052199
13.1709,61.3042,8.38236,3.84042,-2.73905,-0.72571,-1.17592,6.2461,-22.1,-18.6,15.2,41.368862,-83.197586,-110.050804,0.20887053895554378,-0.35753599,-0.57247102,-0.70768499
13.188,61.3242,10.01046,3.3855,-2.81806,-0.8546,-2.08183,5.62301,-22.9,-15.3,18.0,34.787552,-85.193764,-109.656136,0.23925676257217743,-0.401205,-0.55193198,-0.69076902
13.209,61.3442,10.6641,2.62891,-3.03115,-1.0458,-2.30357,5.15021,-23.8,-13.3,17.7,28.66942,-87.882164,-109.818825,0.2604736473752367,-0.44763201,-0.53236598,-0.66960102
13.233,61.3642,9.91469,1.47487,-2.9689,-1.23334,-2.34511,4.99993,-25.1,-10.8,17.7,22.955084,-90.506691,-110.592781,0.2765980104638494,-0.49245599,-0.511428,-0.64762801
13.2653,61.3842,8.80135,-0.04789,-2.8037,-1.30786,-2.66765,5.38417,-26.2,-9.1,18.6,17.275185,-93.172203,-111.804703,0.29057620571760423,-0.53684098,-0.48807999,-0.623815
13.269,61.4042,8.10701,-1.85796,-2.57624,-1.21257,-3.05555,5.9987,-25.2,-5.6,20.2,11.144514,-96.244476,-113.436798,0.3041474199183681,-0.583938,-0.460843,-0.595092
13.2889,61.4242,8.04955,-3.53395,-2.50202,-0.99021,-3.11053,6.769,-23.5,-2.7,21.1,4.350863,-99.715546,-115.383888,0.31979404773503745,-0.63255501,-0.42896301,-0.55999702
13.3079,61.4442,8.31292,-4.92263,-2.80609,-0.90103,-2.8277,7.15384,-24.2,-0.4,24.2,-3.178501,-103.263367,-117.702271,0.33956007883542366,-0.67964602,-0.39066401,-0.51977098
13.3463,61.4642,8.58826,-6.05273,-3.27297,-0.77274,-2.83319,7.26258,-22.6,3.2,24.5,-10.893417,-106.878891,-120.536125,0.36029209725637745,-0.72237903,-0.347458,-0.47710699
13.3522,61.4841,8.79657,-7.15888,-4.29533,-0.56322,-3.15573,7.20455,-21.7,5.3,24.3,-18.521172,-111.10199,-123.805664,0.3800080751757519,-0.76083899,-0.303009,-0.430004
13.3703,61.5041,8.95938,-8.09744,-5.78936,-0.59315,-3.25713,6.98647,-18.8,8.7,28.0,-25.805769,-116.279091,-127.647964,0.397179321115085,-0.79497999,-0.259426,-0.37809199
13.389,61.5241,9.20838,-8.73431,-7.22592,-1.00854,-3.07082,6.48311,-15.6,10.7,27.8,-32.263611,-122.363693,-132.497269,0.4093228176471952,-0.82431197,-0.21640401,-0.325782
13.4102,61.5441,9.13416,-9.19641,-7.99688,-1.38239,-2.81303,5.85698,-13.8,12.1,30.9,-37.258568,-129.195404,-138.431274,0.4140283001614014,-0.84890902,-0.175634,-0.27764499
13.4314,61.5641,8.447,-9.56273,-8.43503,-1.69515,-2.56258,5.30964,-10.4,13.1,31.4,-40.694065,-136.475204,-145.094742,0.4123196360557424,-0.86935699,-0.138181,-0.23477
13.4494,61.5841,7.49408,-9.87399,-8.51883,-2.07267,-2.3219,4.82706,-8.5,12.2,32.4,-42.683044,-143.917633,-152.156708,0.4052730003137632,-0.88673502,-0.103681,-0.19673599
13.4695,61.6041,6.7327,-9.89793,-8.09265,-2.15635,-2.26631,4.4135,-5.1,12.5,35.0,-43.374218,-151.333359,-159.396332,0.3934046881602705,-0.90213698,-0.070993,-0.162301
13.4916,61.6241,6.50046,-9.57949,-7.74548,-1.90162,-2.55281,3.7611,-3.7,11.2,33.5,-43.20414,-158.429596,-166.055069,0.380103374020567,-0.91494697,-0.042489,-0.128795
13.5086,61.6441,6.11977,-9.01205,-8.47094,-1.70981,-2.6872,2.95964,-0.6,10.9,34.6,-42.539551,-164.767487,-171.313339,0.367883640466656,-0.924649,-0.02201,-0.095924
13.5376,61.6641,5.43022,-8.55953,-9.83568,-2.2376,-2.03968,2.27914,0.3,9.4,32.2,-41.309746,-169.891571,-175.054779,0.3545976954132091,-0.93255597,-0.009165,-0.0672
13.5497,61.6841,4.62095,-8.19081,-10.86282,-3.01706,-1.22662,1.74585,1.6,7.6,33.8,-39.032982,-173.377136,-177.765228,0.3345214506076401,-0.94116801,0.000944,-0.04793
13.5684,61.7041,3.60578,-7.80055,-11.36083,-3.66886,-1.0006,1.18752,2.9,5.4,32.9,-35.71817,-175.509781,-179.634811,0.30656025033920997,-0.95111603,0.008983,-0.03631
13.589,61.7241,2.66483,-7.29057,-11.52364,-4.15877,-1.04824,0.87109,3.3,3.0,34.2,-31.678122,-176.947662,179.334305,0.2726873296623074,-0.96163201,0.012856,-0.027207
13.6087,61.7441,2.1333,-6.75425,-11.08789,-4.48619,-1.32252,0.57544,3.7,0.2,32.2,-27.167173,-178.131592,178.814346,0.2346578632754506,-0.971807,0.013885,-0.018277
13.6308,61.7641,2.10936,-5.92822,-10.54678,-4.54972,-1.65606,0.14661,4.9,-2.8,31.4,-22.493393,-179.357208,178.823883,0.1949649318166722,-0.98071802,0.01116,-0.007503
13.6561,61.7841,1.75021,-5.09502,-10.67607,-4.60959,-1.64873,-0.34392,6.5,-5.2,32.6,-17.893131,179.357269,179.444656,0.15554138289728445,-0.98781002,0.003915,0.004787
13.6681,61.8041,1.29051,-4.38152,-11.08789,-5.24733,-1.35246,-0.8375,7.6,-7.7,30.9,-13.210232,178.356155,-179.308807,0.11492822186634487,-0.99323201,-0.007641,0.014943
13.6885,61.8241,1.09897,-3.91703,-10.72156,-5.76779,-1.39461,-1.31336,8.6,-11.2,29.2,-7.85713,177.602585,-177.412399,0.0680129187360765,-0.997145,-0.023954,0.022412
13.7091,61.8441,1.13489,-3.74225,-9.2826,-5.66761,-1.6811,-1.85153,10.4,-15.6,25.3,-2.254232,176.610779,-174.899567,0.018359611733365467,-0.998353,-0.045048,0.030412
13.7301,61.8641,0.76856,-3.34001,-7.5707,-5.08484,-1.99264,-2.29869,11.5,-18.1,22.6,2.830983,175.099716,-171.742004,0.02771570010949487,0.99626398,0.070861,-0.040849
13.7499,61.884,0.05028,-2.61215,-6.49806,-4.36646,-2.07328,-2.38299,12.9,-19.4,19.8,6.881445,173.062836,-168.115906,0.06584165048052792,0.991391,0.099535,-0.053866
13.7732,61.904,-0.41182,-1.44375,-6.58426,-4.03049,-2.14902,-2.47706,14.9,-20.2,19.4,9.975113,170.738937,-164.379242,0.09678404396820545,0.98470402,0.127985,-0.067902
13.7903,61.924,-0.838,-0.55068,-7.3169,-4.26689,-1.82832,-2.84236,18.3,-20.2,17.0,12.660021,168.166397,-160.330658,0.12556366306061598,0.97602099,0.15766101,-0.082218
13.8099,61.9441,-1.62332,-0.28971,-7.26902,-4.67434,-1.17836,-3.15939,18.6,-21.2,13.0,15.498796,165.769318,-155.531784,0.15677482198707782,0.96444601,0.192031,-0.091595
13.8363,61.9641,-3.1796,-0.44294,-6.31131,-4.73726,-1.13621,-2.97919,20.9,-21.2,11.1,18.497149,163.514008,-150.214111,0.19008863272894533,0.94991201,0.228783,-0.095874
13.8506,61.9841,-4.24265,-0.1676,-4.8939,-4.3683,-1.54121,-2.48011,21.5,-20.4,8.6,21.330803,160.747406,-144.959305,0.22347741614977443,0.93325698,0.26216501,-0.101778
13.8707,62.0042,-4.5994,0.56505,-4.12773,-3.76843,-1.69882,-2.37871,23.0,-20.5,3.1,23.579807,157.313232,-140.064178,0.2540415469206954,0.91580701,0.289987,-0.112552
13.8912,62.0242,-5.18121,0.84757,-4.05111,-3.63587,-1.42881,-2.40864,24.5,-19.5,1.8,25.092146,153.446289,-135.122787,0.28097921185532365,0.89714497,0.31650999,-0.12650301
13.9096,62.0442,-5.86597,1.16601,-4.10139,-3.79653,-0.87537,-2.22538,25.2,-18.5,0.2,26.391825,149.634552,-129.92514,0.3075255601768081,0.87661999,0.34348401,-0.13778301
13.931,62.0642,-7.11578,1.44375,-3.53156,-4.12212,0.21197,-1.92423,26.1,-17.5,-3.1,27.816238,146.271423,-124.518188,0.33466918429858433,0.85462499,0.37067899,-0.142161
13.9542,62.0843,-7.97294,2.06147,-2.43019,-4.0256,0.81856,-1.13926,26.5,-16.9,-5.6,29.610834,143.726944,-119.055008,0.36191843871996837,0.83219802,0.39737099,-0.136227
13.9733,62.1043,-8.4063,2.66004,-1.98964,-3.84784,2.04273,-0.44043,27.1,-16.1,-5.1,31.710672,141.986526,-114.284622,0.38696725056402265,0.81228203,0.418713,-0.123019
13.9922,62.1243,-9.02642,3.30889,-1.73106,-3.80691,2.87107,0.11057,27.4,-16.1,-3.9,34.182209,141.469147,-109.950836,0.40819604604821813,0.79456103,0.43845299,-0.099034
14.0102,62.1444,-9.59865,3.95774,-2.40625,-4.04332,3.88449,0.83566,27.8,-15.1,-3.6,37.108219,141.741302,-105.97168,0.4270771405942723,0.77795899,0.455944,-0.067082
14.0305,62.1644,-10.24031,4.24505,-3.85239,-5.12027,5.88019,1.53633,27.0,-15.4,-1.3,41.004047,143.33876,-102.17704,0.44373200185564665,0.76103598,0.47276899,-0.020387
14.0509,62.1844,-11.02803,4.30012,-4.08224,-6.29497,7.93514,2.10626,27.5,-16.2,-1.6,46.480675,146.857895,-97.98085,0.45735278030553117,0.73841798,0.49297601,0.050418
14.1014,62.2044,-11.32971,4.33843,-3.76141,-6.83192,9.27232,2.58091,25.6,-16.9,1.3,53.265446,152.107254,-93.666122,0.46470464073426204,0.70666999,0.51471102,0.140498
14.1021,62.2245,-10.46537,4.57067,-4.0559,-7.19355,9.90152,2.60962,24.8,-18.7,1.3,60.765614,158.702438,-89.799484,0.4637820241319403,0.664644,0.53456599,0.23957001
14.1097,62.2445,-8.68164,4.79094,-4.23308,-7.72378,10.15014,2.28403,23.3,-20.3,2.9,68.704948,165.893677,-86.073135,0.4562885050501924,0.60981101,0.55157602,0.34014001
14.1322,62.2645,-7.29057,5.26501,-3.35677,-7.62238,9.53194,1.78189,22.9,-20.6,2.3,76.94268,172.456131,-81.652214,0.44482195100192484,0.54170603,0.56438702,0.436068
14.1535,62.2846,-6.21554,5.88992,-1.68557,-6.91011,8.46415,1.42332,21.3,-22.0,1.4,84.771721,175.392883,-74.353546,0.43069621297006844,0.46756101,0.57165098,0.51875103
14.1702,62.3046,-4.24265,6.56031,-0.1245,-5.92723,7.72928,1.09956,19.7,-23.0,2.7,88.244423,25.682476,84.483742,0.41406826957804754,0.395244,0.57446998,0.58507597
14.1953,62.3246,-2.57145,7.31212,1.07982,-4.87593,7.17034,0.20831,18.9,-23.7,2.0,82.471413,18.51026,100.276344,0.39432686383481336,0.32414001,0.57690698,0.63766599
14.2106,62.3446,-3.34241,7.66647,0.98405,-4.46909,7.31572,0.01649,18.0,-25.2,0.5,77.492287,25.014957,102.044434,0.3735717683289516,0.253034,0.58124799,0.67717701
14.2298,62.3647,-5.20994,7.62816,0.97208,-4.64746,6.98891,0.9108,17.5,-25.2,1.3,72.985413,29.216766,106.375572,0.3460505292749592,0.182501,0.58223802,0.71270001
14.2512,62.3847,-4.77418,7.12536,2.6337,-4.7,6.73357,2.05006,16.4,-26.1,1.1,68.998795,29.816477,114.242233,0.30995519986056,0.119063,0.574763,0.74792999
14.2696,62.4047,-2.42301,7.19001,6.12456,-3.69512,6.5332,1.66278,14.5,-26.8,0.1,65.541763,29.333021,123.261276,0.26592170369933826,0.061484,0.56191403,0.78087002
14.2916,62.4248,-1.36953,7.7383,8.08068,-1.48501,6.06162,0.95112,14.1,-26.7,0.7,63.058826,31.542896,129.079926,0.22429407501813248,0.007161,0.55396998,0.80172199
14.3106,62.4448,-1.8388,8.12138,6.61538,-0.20281,5.11416,0.88942,13.3,-26.8,2.3,62.324417,35.61002,131.766739,0.1884747037707704,-0.037513,0.55658698,0.808258
14.3467,62.4648,-2.89707,8.13096,4.36955,-0.6127,4.41167,1.40988,13.2,-28.1,5.0,62.467182,38.858765,134.114594,0.15549088182263113,-0.071315,0.56119198,0.80981499
14.3733,62.4848,-2.49962,8.05434,4.78855,-1.02503,3.53508,1.39583,12.9,-28.4,2.5,62.478252,39.581127,138.494644,0.12087080971235134,-0.097802,0.55889702,0.81453001
14.3774,62.5049,-2.48765,8.43742,5.32726,0.4496,1.76784,0.89003,12.1,-28.0,3.0,62.52953,39.660583,141.958298,0.09562127883311207,-0.115023,0.55606699,0.81756699
14.3922,62.5249,-2.83003,8.48531,3.55789,0.50885,0.69333,0.82711,10.7,-28.1,3.8,63.375084,40.149006,142.817688,0.08392160646793957,-0.119539,0.56074601,0.81500399
14.4102,62.5449,-4.20674,7.84125,1.72388,-0.33537,0.40256,1.36284,10.5,-28.3,3.8,64.100258,39.366528,144.073059,0.07610980330942403,-0.117469,0.563344,0.81427997
14.4323,62.5649,-6.15807,6.83087,0.69673,-1.27793,0.24618,2.8167,9.7,-29.0,3.7,64.578781,35.912476,148.1241,0.0624809042188082,-0.111056,0.56020701,0.81849301
14.4517,62.5849,-7.36,5.52599,0.05267,-2.07083,-0.58582,4.77269,8.4,-29.1,2.2,64.954842,28.574339,156.278885,0.038347664014629135,-0.096792,0.55203903,0.82729298
14.47,62.6049,-6.42384,4.21871,0.64885,-2.59801,-2.67742,6.34689,3.9,-30.0,0.8,64.702095,16.06946,168.952545,0.0062148758587264605,-0.066528,0.53875899,0.83980602
14.4905,62.6249,-3.57226,3.56747,2.14048,-1.78922,-5.53138,7.10558,-1.2,-29.9,-0.2,63.12204,-0.364892,-176.521011,0.024238744767827867,0.013176,-0.52324599,-0.851735
14.5117,62.6449,-0.24422,3.67761,2.24104,-0.67134,-6.99074,7.10925,-5.2,-29.2,-0.4,60.784897,-18.275724,-163.281708,0.044344973019262976,-0.062916,-0.51410902,-0.85426402
14.5295,62.6649,2.57145,3.03115,1.27854,-1.38239,-5.4312,7.31878,-9.2,-28.2,0.4,57.411285,-34.374531,-152.576996,0.06074627797519092,-0.14302801,-0.50721902,-0.84769201
14.5537,62.6849,4.62813,1.68557,1.95373,-2.65177,-2.63955,7.68224,-14.1,-26.5,-1.4,50.619621,-46.428467,-144.192337,0.09506692955302108,-0.218293,-0.48341799,-0.84238797
14.5698,62.7049,5.99048,0.24182,3.74704,-2.77088,-1.5742,7.67125,-18.4,-24.0,-0.1,41.847233,-52.399887,-139.416061,0.14276893747562475,-0.27566999,-0.443564,-0.84075803
14.5906,62.7248,6.91227,-0.96729,4.62334,-1.63223,-2.98591,7.69446,-21.2,-20.5,-0.5,33.031872,-56.593151,-135.912643,0.19192474046172114,-0.32730901,-0.402585,-0.83304203
14.6148,62.7448,7.71196,-2.40146,3.21551,-0.90469,-4.40495,7.97485,-24.9,-16.3,0.2,24.567148,-62.256832,-132.214767,0.23821213359768129,-0.38807601,-0.371097,-0.80928302
14.6294,62.7648,8.91867,-3.79493,1.2977,-1.24555,-4.30477,8.40917,-27.6,-11.8,2.2,15.337756,-68.168213,-129.143219,0.2849024984129827,-0.454135,-0.338294,-0.77340102
14.6591,62.7848,10.5827,-4.86517,-0.31604,-1.91079,-3.33044,8.35053,-28.7,-6.7,5.0,5.090167,-72.925476,-127.347908,0.332661353446412,-0.51629901,-0.29530799,-0.73182303
