AppTimestamp(s),SensorTimestamp(s),gyro_x,gyro_y,gyro_z
0.0408,7121.0651,-0.24789,-0.22278,-0.31578
0.0421,7121.0851,-0.51545,-0.28387,-0.30845
0.0433,7121.1051,-0.44642,-0.34434,-0.36892
0.0525,7121.1252,-0.243,-0.5331,-0.40252
0.0985,7121.1452,0.00867,-0.95398,-0.46299
0.0999,7121.1652,-0.03531,-1.29546,-0.42451
0.1165,7121.1852,-0.09517,-1.09448,-0.27179
0.1329,7121.2053,-0.10006,-0.76889,-0.23759
0.1512,7121.2253,-0.0066,-0.65527,-0.17955
0.1742,7121.2453,0.20904,-1.43535,-0.08548
0.1943,7121.2654,0.69223,-2.4787,0.20224
0.2117,7121.2854,0.97079,-1.46039,0.42215
0.232,7121.3054,1.3538,-0.5447,0.81005
0.264,7121.3254,1.57127,0.67886,0.9481
0.2742,7121.3455,1.76735,1.4681,0.80394
0.2987,7121.3655,1.80767,1.46321,0.62373
0.3146,7121.3855,1.52301,1.10891,0.71109
0.332,7121.4056,0.94085,0.99529,1.04157
0.3518,7121.4256,0.30861,1.16266,1.39037
0.3747,7121.4456,-0.23689,1.7778,1.55408
0.3926,7121.4656,-0.79706,2.91279,1.6335
0.412,7121.4857,-1.70419,3.35139,1.79721
0.4348,7121.5057,-2.48366,3.36728,2.01529
0.4542,7121.5257,-2.92531,3.02336,2.04216
0.4745,7121.5458,-3.13362,2.27933,1.77827
0.4988,7121.5658,-3.00289,1.42595,1.52904
0.5297,7121.5858,-2.41402,1.11807,1.09227
0.5421,7121.6058,-1.70725,0.75277,0.58342
0.5637,7121.6259,-1.25276,0.21765,0.38
0.5757,7121.6459,-1.1141,-0.19529,0.14604
0.5932,7121.6659,-1.00414,-0.50256,-0.42146
0.6155,7121.6859,-0.82332,-0.78966,-1.06409
0.6446,7121.7059,-0.51056,-1.24598,-1.52834
0.6642,7121.7259,-0.08723,-1.55874,-1.80812
0.683,7121.746,0.29639,-1.5563,-1.93335
0.6934,7121.766,0.49553,-1.48605,-2.01032
0.7132,7121.786,0.66658,-1.50254,-2.00665
0.7427,7121.8061,1.03126,-1.67542,-2.02498
0.7606,7121.8261,1.52057,-1.96436,-2.10378
0.7819,7121.8461,1.87609,-2.26063,-2.22473
0.7972,7121.8661,1.98666,-2.57828,-2.41043
0.8142,7121.8862,1.89197,-2.60699,-2.4758
0.8339,7121.9062,1.74781,-2.38035,-2.53933
0.8559,7121.9262,1.59081,-2.11157,-2.50817
0.8752,7121.9463,1.5169,-1.72917,-2.47763
0.8975,7121.9663,1.44176,-1.36693,-2.44281
0.9188,7121.9863,1.264,-1.07677,-2.42082
0.9395,7122.0063,1.01171,-0.91428,-2.33652
0.9586,7122.0264,0.80463,-0.86969,-2.19235
0.9823,7122.0464,0.70078,-0.84097,-2.08301
0.9977,7122.0664,0.60915,-0.73041,-1.9926
1.015,7122.0865,0.34465,-0.46957,-1.94068
1.0417,7122.1065,-0.16359,-0.40298,-1.86676
1.0564,7122.1265,-0.68038,-0.43597,-1.78307
1.0837,7122.1465,-1.20206,-0.36511,-1.84294
1.1033,7122.1666,-1.83614,-0.35045,-1.87348
1.1153,7122.1866,-2.41035,-0.50866,-1.57294
1.1338,7122.2066,-2.74938,-0.69437,-1.05065
1.1568,7122.2267,-2.95463,-0.78661,-0.29317
1.1738,7122.2467,-2.6156,-1.11525,1.0153
1.1982,7122.2667,-1.81476,-0.56731,1.67748
1.219,7122.2867,-1.39571,0.64465,1.8308
1.2376,7122.3068,-1.50444,1.60371,2.05194
1.2577,7122.3268,-1.51971,2.13394,2.36042
1.2847,7122.3469,-1.12998,2.11378,2.5333
1.3034,7122.3669,-0.54355,1.7778,2.46244
1.3186,7122.3869,0.19865,1.34104,2.2187
1.3366,7122.4069,0.98423,0.87128,1.96336
1.3575,7122.427,1.63174,0.63427,1.82836
1.3784,7122.447,1.93718,0.76133,1.80576
1.3967,7122.467,1.82905,0.93115,1.79476
1.4161,7122.4871,1.50468,0.91282,1.74223
1.4368,7122.5071,1.25423,1.00689,1.60295
1.4593,7122.5271,1.15771,1.16694,1.4258
1.4765,7122.5471,1.2469,1.18832,1.44779
1.5045,7122.5672,1.44665,1.10402,1.70191
1.521,7122.5872,1.64029,1.08447,2.0611
1.5428,7122.6072,1.50102,0.96474,2.32622
1.5605,7122.6273,1.02332,0.82363,2.5559
1.5808,7122.6473,0.67024,0.74361,2.86133
1.5948,7122.6673,0.68551,0.80958,3.21808
1.6134,7122.6873,0.76554,1.13029,3.40256
1.6449,7122.7074,0.48698,1.56583,3.38118
1.6545,7122.7274,-0.11045,1.59699,3.47342
1.6756,7122.7474,-0.63518,1.44183,3.54917
1.6977,7122.7675,-1.05423,1.75093,3.19365
1.7141,7122.7875,-1.3731,2.2219,2.65669
1.7344,7122.8075,-1.70358,2.19686,2.25413
1.7613,7122.8275,-1.73474,1.90914,1.89739
1.7805,7122.8476,-1.502,1.65197,1.50033
1.8194,7122.8676,-1.12265,1.19748,1.04279
1.8455,7122.8876,-0.83737,0.67031,0.51806
1.848,7122.9076,-0.68344,0.11014,0.08312
1.8557,7122.9276,-0.74574,-0.10977,-0.40374
1.8803,7122.9476,-0.8502,-0.36694,-0.62304
1.8982,7122.9676,-0.75369,-0.82937,-0.99811
1.9141,7122.9876,-0.53439,-1.44817,-1.58149
1.936,7123.0076,-0.3328,-1.99062,-2.05491
1.9544,7123.0276,-0.04936,-2.304,-2.3524
1.9748,7123.0476,0.26707,-2.40174,-2.69387
2.0344,7123.0676,0.52608,-2.3828,-3.05856
2.0366,7123.0876,0.80097,-2.27895,-3.36155
2.0378,7123.1076,1.22368,-2.17999,-3.62483
2.0566,7123.1276,1.83699,-1.87456,-3.91499
2.0816,7123.1476,2.46313,-1.63449,-4.11414
2.0939,7123.1676,2.97259,-1.4213,-4.10314
2.1171,7123.1876,3.1247,-1.38892,-3.94432
2.1351,7123.2076,2.79178,-1.43962,-3.73418
2.1538,7123.2275,2.12349,-1.461,-3.49289
2.1779,7123.2475,1.4552,-1.34738,-3.22288
2.2054,7123.2675,0.88099,-1.1629,-2.99809
2.2277,7123.2875,0.37886,-1.1403,-2.84109
2.2421,7123.3075,-0.19169,-1.056,-2.96082
2.2572,7123.3275,-0.68771,-0.9436,-3.30779
2.2813,7123.3475,-1.38776,-0.61251,-3.55275
2.2964,7123.3675,-2.25764,-0.24172,-3.60223
2.3187,7123.3875,-2.88499,0.06494,-3.35544
2.3372,7123.4075,-3.07131,0.32089,-2.86614
2.356,7123.4275,-3.25335,0.20788,-1.86737
2.3742,7123.4475,-3.4079,-0.35045,-0.56623
2.3934,7123.4675,-3.12384,-0.51844,0.3238
2.422,7123.4875,-2.54474,-0.03952,0.74835
2.4368,7123.5075,-2.20205,0.65442,1.1729
2.4558,7123.5275,-2.1208,1.06676,1.73856
2.477,7123.5475,-1.94182,1.15106,2.16189
2.4961,7123.5675,-1.51605,1.22314,2.12952
2.515,7123.5875,-0.89846,1.48031,1.72451
2.5404,7123.6075,-0.56798,1.67457,1.51987
2.555,7123.6274,-0.58692,1.52979,1.55469
2.577,7123.6474,-0.58081,1.16877,1.77827
2.5993,7123.6674,-0.2595,0.87189,1.97863
2.6199,7123.6874,0.51142,0.83585,2.2352
2.6351,7123.7074,0.84495,0.75766,2.59439
2.6567,7123.7274,0.91153,0.33738,3.0843
2.6751,7123.7474,1.01171,-0.1452,3.55894
2.6954,7123.7674,1.19925,-0.36083,3.66645
2.7181,7123.7874,1.13939,-0.49889,3.76664
2.7439,7123.8074,0.79241,-0.57891,4.11788
2.7643,7123.8274,0.5725,-0.87335,4.77762
2.7798,7123.8474,0.73255,-1.29607,5.58152
2.8008,7123.8674,1.09357,-1.3541,6.07876
2.8149,7123.8874,0.8987,-0.8483,5.82342
2.8461,7123.9074,-0.23628,-0.03952,5.10138
2.8639,7123.9274,-1.70297,0.96413,4.16981
2.8906,7123.9474,-2.57284,1.98122,3.00977
2.9055,7123.9674,-2.60461,2.09362,1.76972
2.9171,7123.9874,-2.14768,1.7045,1.16863
2.9355,7124.0074,-1.62356,1.82301,0.82349
2.9574,7124.0274,-1.65105,1.77231,0.2224
2.9773,7124.0473,-1.83553,1.37402,-0.17955
2.9966,7124.0673,-2.28818,0.69596,-0.75316
3.0193,7124.0873,-2.7726,0.64343,-1.21863
3.036,7124.1073,-2.59117,0.8554,-1.66334
3.0667,7124.1273,-1.96076,1.34409,-1.99566
3.0771,7124.1473,-1.68892,1.23658,-2.35545
3.0949,7124.1673,-1.99008,0.84562,-2.77268
3.1161,7124.1873,-2.37553,0.50049,-2.59675
3.1393,7124.2073,-2.03101,0.04111,-2.62912
3.1583,7124.2273,-1.05851,-0.49034,-3.03046
3.1761,7124.2473,-0.28699,-1.02851,-3.27725
3.1947,7124.2673,0.33671,-1.17817,-3.40981
3.2153,7124.2873,0.72216,-1.03951,-3.38721
3.2341,7124.3073,0.7747,-1.01507,-3.14469
3.2627,7124.3273,0.82662,-0.79577,-2.9767
3.2856,7124.3473,0.92375,-0.09755,-3.00847
3.2934,7124.3673,1.04043,0.70329,-2.92234
3.3163,7124.3873,1.4216,1.2323,-2.62912
3.3344,7124.4073,1.96344,1.70389,-2.34263
3.3577,7124.4272,2.25055,1.86638,-2.32308
3.3851,7124.4472,1.84616,2.07896,-2.68227
3.3984,7124.4672,0.81868,2.17792,-2.84781
3.4146,7124.4872,-0.05791,2.37829,-2.97732
3.4406,7124.5072,-0.28027,2.35263,-2.45808
3.459,7124.5272,-0.18802,1.25796,-1.7788
3.4825,7124.5472,0.05449,-0.00103,-1.79346
3.5025,7124.5672,0.308,-0.41337,-2.33835
3.5163,7124.5872,0.87244,0.0625,-2.76657
3.5436,7124.6072,1.69833,1.5866,-2.82338
3.5652,7124.6272,2.58347,1.66418,-2.69815
3.5773,7124.6472,2.82232,-0.3645,-2.30414
3.5956,7124.6672,1.73437,-3.25023,-2.60652
3.6168,7124.6872,0.31899,-3.50679,-2.31392
3.6387,7124.7072,-1.12204,-2.86233,-0.79653
3.6604,7124.7272,-1.18618,-3.22029,0.54066
3.6851,7124.7472,-0.00171,-2.428,0.79233
3.6977,7124.7672,1.44115,-0.42253,0.83876
3.7205,7124.7872,0.64581,0.59212,2.01162
3.7418,7124.8072,1.66351,0.73078,0.91573
3.7539,7124.8272,2.66655,-1.32906,1.21505
3.7739,7124.8471,2.67938,-1.26675,1.36899
3.7972,7124.8671,2.33974,-0.7695,2.0721
3.8184,7124.8871,1.83638,0.23293,2.83018
3.8383,7124.9071,1.31776,0.54508,3.11301
3.8556,7124.9271,1.51568,0.58356,3.05681
3.8806,7124.9471,1.97749,0.95802,2.83507
3.8997,7124.9671,1.96772,1.82851,2.74344
3.915,7124.9871,1.5841,1.30988,3.06659
3.9347,7125.0071,1.03432,0.61227,2.57667
3.9557,7125.0271,0.70445,1.92808,2.03911
3.982,7125.0471,0.08381,3.8578,1.90533
3.9964,7125.0671,-0.53561,4.16934,1.93526
4.0401,7125.0871,-1.25704,3.55848,1.60112
4.0414,7125.1071,-1.90089,3.1999,1.37999
4.0599,7125.1271,-2.09209,2.77229,1.36166
4.0733,7125.1471,-1.90578,1.90181,1.18451
4.0943,7125.1671,-2.30589,1.43633,0.95299
4.112,7125.1871,-3.24846,1.90792,0.90534
4.1338,7125.2071,-3.92652,2.1767,1.21261
4.1578,7125.2271,-3.8184,-0.17941,1.21566
4.1824,7125.2471,-3.42744,-0.80799,0.99942
4.1974,7125.267,-2.35721,0.1248,0.00187
4.2251,7125.287,-1.4122,1.68679,-0.9468
4.24,7125.307,-1.65532,3.01359,-0.57051
4.2546,7125.327,-2.35232,2.23534,0.05135
4.2894,7125.3471,-2.93631,-0.78355,-0.4239
4.295,7125.3671,-2.59911,-3.72792,-1.76475
4.3149,7125.3871,-1.95404,-3.81711,-1.79957
4.3381,7125.4071,-1.31751,-1.9558,-1.1997
4.3553,7125.4272,-0.55088,-0.38221,-0.45261
4.3733,7125.4472,-0.00415,0.00019,-0.42695
4.396,7125.4672,0.58289,-0.94482,-0.68168
4.4156,7125.4873,1.34708,-1.67053,-0.7165
4.4406,7125.5073,2.31408,-1.41885,-0.94558
4.4581,7125.5273,2.98298,-0.46529,-0.97551
4.4759,7125.5473,3.56635,-0.29975,-0.64686
4.4943,7125.5674,3.46678,-1.045,-0.24308
4.5168,7125.5874,2.53216,-1.0841,0.5095
4.5408,7125.6074,1.25545,-0.55448,1.23521
4.5569,7125.6275,0.18705,-0.39688,1.8082
4.5806,7125.6475,-0.24422,0.35388,2.52414
4.5973,7125.6675,-0.47513,0.76255,3.36102
4.6177,7125.6875,-0.47452,0.55119,3.9951
4.643,7125.7076,0.29761,0.88472,3.35003
4.6622,7125.7276,0.86022,-0.25943,1.97619
4.681,7125.7476,1.0221,-1.38098,1.75506
4.7034,7125.7677,0.77897,-1.27225,2.34088
4.7153,7125.7877,0.09847,-0.60701,3.52412
4.735,7125.8077,-0.62296,0.11992,4.52594
4.757,7125.8277,-1.06401,0.52003,4.93095
4.775,7125.8478,-1.31874,-0.24172,4.23761
4.7956,7125.8678,-1.19717,-1.46345,3.95051
4.8177,7125.8878,-0.78056,-2.53735,3.51985
4.838,7125.9079,-0.29859,-3.05231,3.07208
4.8573,7125.9279,-0.33158,-3.40722,2.89066
4.8773,7125.9479,-0.82149,-3.11584,3.04093
4.8979,7125.9679,-1.06278,-2.99244,2.97618
4.9187,7125.9879,-1.02369,-2.97228,3.18143
4.948,7126.0079,-0.73536,-3.75847,2.88516
4.9641,7126.0279,-0.09334,-5.09809,2.07882
4.9764,7126.0479,0.70628,-6.40779,1.52293
4.9962,7126.0679,1.20414,-5.45362,1.66159
5.0155,7126.0878,0.65863,-2.96495,2.22298
5.0342,7126.1078,0.0887,-1.32111,2.61943
5.0651,7126.1278,-0.58997,-0.21362,2.76604
5.0745,7126.1478,-0.31875,-0.54837,2.78864
5.0943,7126.1678,0.24752,-2.38402,2.60538
5.1168,7126.1878,1.35319,-4.91178,2.45816
5.1346,7126.2078,1.80828,-5.59412,2.79353
5.1542,7126.2278,1.5279,-4.02664,3.45021
5.1759,7126.2478,0.73866,-2.41212,3.73121
5.1974,7126.2678,-0.05425,-2.03949,3.7086
5.2223,7126.2878,-0.30959,-1.80003,3.89064
5.2376,7126.3078,0.19499,-1.80736,3.91691
5.2829,7126.3278,1.10823,-2.23008,3.978
5.2855,7126.3479,2.34157,-3.47564,4.00732
5.2999,7126.3679,3.40631,-4.20501,3.78985
5.3217,7126.3879,3.80459,-4.07551,3.50152
5.3364,7126.408,3.40631,-3.91302,3.38607
5.3624,7126.4281,2.94449,-4.59902,3.10873
5.3909,7126.4481,3.05384,-3.94906,2.62493
5.4018,7126.4682,3.17357,-3.24229,2.45572
5.4204,7126.4882,3.62439,-2.89348,2.17228
5.4362,7126.5083,4.12835,-2.16533,1.5382
5.4588,7126.5284,4.00495,-1.41213,0.9927
5.4813,7126.5484,3.2878,-1.10976,0.40382
5.4996,7126.5685,2.39838,-0.8538,-0.22292
5.5149,7126.5886,1.74109,-0.55692,-0.72322
5.5386,7126.6086,1.34036,-0.58869,-1.31271
5.5569,7126.6287,0.95307,-0.38099,-2.1221
5.5786,7126.6487,0.35809,0.04722,-3.12148
5.6046,7126.6688,-0.24422,0.54264,-4.1514
5.6166,7126.6889,-0.85937,1.29156,-4.95835
5.6382,7126.7089,-1.11165,1.25246,-5.62114
5.6597,7126.729,-0.98398,0.85418,-6.09639
5.6778,7126.7491,-0.805,0.12847,-6.31936
5.701,7126.7691,-0.9345,-0.70231,-6.37189
5.7208,7126.7892,-1.41525,-1.16473,-6.42382
5.742,7126.8092,-2.20571,-1.07494,-6.49712
5.7614,7126.8293,-2.78359,-0.44574,-6.76285
5.7827,7126.8494,-2.66753,0.22865,-7.06217
5.7992,7126.8694,-1.97175,0.316,-7.04995
5.8151,7126.8895,-1.46779,-0.13054,-7.14586
5.838,7126.9095,-1.16113,-0.68643,-7.2155
5.8554,7126.9296,-1.24055,-0.85197,-7.13548
5.8762,7126.9496,-1.64372,-0.12565,-6.62907
5.8978,7126.9696,-1.94732,1.17855,-5.75797
5.9204,7126.9896,-1.907,1.8279,-4.90826
5.9378,7127.0096,-1.52887,2.39539,-4.52586
5.9911,7127.0296,-1.4177,3.54198,-4.41957
5.9942,7127.0496,-1.80621,3.74113,-4.60038
5.9978,7127.0696,-1.91311,3.46318,-4.80991
6.0189,7127.0896,-1.66693,3.04474,-4.75921
6.0353,7127.1096,-1.38899,3.14187,-4.54357
6.055,7127.1296,-1.56919,3.00564,-4.39941
6.0765,7127.1496,-1.7439,2.41249,-4.6969
6.0965,7127.1696,-1.64311,2.42715,-4.71095
6.1161,7127.1896,-1.79216,3.08994,-4.45561
6.1382,7127.2096,-2.11164,3.36178,-4.43423
6.1561,7127.2296,-2.29368,3.01114,-4.59855
6.1767,7127.2496,-2.01696,1.82912,-4.97423
6.1969,7127.2696,-2.40669,0.26714,-5.34808
6.2156,7127.2896,-2.97968,-1.1684,-5.13
6.2364,7127.3095,-3.18249,-3.05047,-4.21065
6.2651,7127.3295,-3.10185,-3.73037,-3.45562
6.2816,7127.3495,-2.66264,-3.91363,-2.5491
6.2994,7127.3696,-1.10677,-2.83911,-1.4868
6.3191,7127.3896,1.11067,-1.5282,-0.67863
6.3367,7127.4096,1.8486,-1.61372,-0.03356
6.3565,7127.4297,2.22184,-2.40296,0.79172
6.3779,7127.4497,3.07583,-2.5178,1.30485
6.3965,7127.4697,3.70746,-1.74567,1.06539
6.4167,7127.4897,3.88461,-1.84524,0.76301
6.4464,7127.5098,3.90477,-2.58133,0.44048
6.4629,7127.5298,3.84918,-3.98021,0.03242
6.4822,7127.5498,3.64454,-5.2111,-0.45078
6.5043,7127.5699,3.72151,-5.50371,-0.92542
6.5295,7127.5899,3.94692,-5.09993,-1.01155
6.54,7127.6099,4.18882,-4.47501,-0.76232
6.5601,7127.6299,4.3898,-4.73341,-0.4691
6.5794,7127.65,4.41362,-5.03029,-0.55279
6.5979,7127.67,4.19066,-5.05594,-0.78553
6.6202,7127.69,3.98541,-5.15246,-1.2504
6.6435,7127.7101,3.90294,-5.31801,-1.53628
6.6618,7127.7301,3.7997,-4.59902,-1.69939
6.6861,7127.7501,3.68975,-4.49089,-1.40251
6.699,7127.7701,4.18272,-4.95576,-1.11906
6.7185,7127.7902,5.18881,-4.91361,-1.53873
6.741,7127.8102,5.88398,-4.8452,-2.58697
6.7619,7127.8302,5.7673,-5.22882,-3.18929
6.8026,7127.8503,5.91146,-5.21905,-3.04573
6.8137,7127.8703,6.48385,-4.5477,-2.92478
6.8235,7127.8903,7.24987,-4.37116,-2.78306
6.8385,7127.9103,7.57913,-4.71936,-2.67799
6.8684,7127.9304,7.62433,-4.82687,-3.41775
6.8896,7127.9504,7.43802,-5.02479,-3.72685
6.8988,7127.9704,7.24193,-4.86169,-4.01823
6.9186,7127.9904,6.86747,-4.15247,-4.29068
6.9379,7128.0104,6.18635,-3.3272,-4.18194
6.9612,7128.0304,5.43804,-2.31072,-3.82275
6.9803,7128.0504,4.8901,-2.18121,-3.76716
6.9978,7128.0704,4.5138,-2.428,-4.50631
7.0288,7128.0904,3.84063,-2.05476,-4.9553
7.0415,7128.1104,2.98786,-1.19955,-4.36093
7.0595,7128.1303,2.05752,-0.09694,-3.3927
7.079,7128.1503,1.36968,0.77049,-2.68166
7.0999,7128.1703,0.68185,0.89388,-2.30597
7.1181,7128.1903,-0.17153,0.79859,-2.29192
7.1401,7128.2103,-0.93206,1.05759,-2.33407
7.1609,7128.2303,-1.64555,1.09241,-1.85638
7.1816,7128.2503,-2.44151,1.67823,-1.0311
7.2103,7128.2703,-3.17821,2.77229,-0.33349
7.2362,7128.2903,-4.13483,3.2677,0.03425
7.2685,7128.3103,-5.91,3.5597,-0.52164
7.2757,7128.3303,-7.11096,4.12414,-0.96329
7.2819,7128.3503,-8.28382,4.48638,-0.72567
7.3154,7128.3703,-9.25143,4.45645,-0.08914
7.3274,7128.3903,-9.39071,4.25914,0.0709
7.3424,7128.4103,-8.56238,3.7399,-0.44589
7.3576,7128.4303,-7.72671,3.21089,-0.90221
7.3769,7128.4503,-7.55689,3.02153,-0.87227
7.3987,7128.4703,-7.60454,2.33614,-1.11051
7.4181,7128.4903,-6.95886,1.38868,-1.73237
7.4377,7128.5103,-6.05172,0.72773,-2.20396
7.4592,7128.5303,-5.46957,1.20359,-2.04636
7.4784,7128.5503,-5.73468,1.03621,-1.77147
7.4999,7128.5702,-5.90572,1.60249,-2.12149
7.5219,7128.5902,-5.4433,2.46747,-2.61691
7.5449,7128.6102,-5.08289,2.53406,-2.99259
7.5655,7128.6302,-4.72064,2.00932,-3.16974
7.589,7128.6502,-4.0151,1.62509,-3.20639
7.5998,7128.6702,-3.29794,1.39235,-2.68593
7.6171,7128.6902,-3.08108,1.63059,-2.01215
7.6382,7128.7102,-3.34498,1.94885,-1.91869
7.6563,7128.7302,-3.65591,2.10156,-2.1502
7.6847,7128.7502,-3.7176,2.13577,-2.42143
7.7008,7128.7702,-3.66507,2.18586,-2.46052
7.7202,7128.7902,-3.54962,2.30254,-2.13188
7.743,7128.8102,-3.571,2.26772,-1.84905
7.7703,7128.8302,-3.69439,1.97267,-1.28155
7.783,7128.8502,-3.51358,2.16326,-0.27546
7.7998,7128.8702,-2.78298,2.74542,0.40993
7.8239,7128.8902,-2.03956,2.61713,0.50706
7.844,7128.9102,-1.09455,2.96349,1.06539
7.8603,7128.9302,-0.54966,3.20845,2.33599
7.8803,7128.9501,-0.14526,4.27258,4.113
7.8957,7128.9701,0.06182,5.95673,5.98163
7.9169,7128.9901,0.22064,7.23955,7.00544
7.9381,7129.0101,0.18216,5.49431,6.6096
7.9567,7129.0301,0.3251,3.09178,5.29258
7.9771,7129.0501,1.12472,1.65563,4.09406
8.0055,7129.0701,1.89808,0.76682,4.22112
8.0167,7129.0901,1.76064,1.13823,4.82527
8.0441,7129.1101,0.94085,1.78514,5.58885
8.0609,7129.1301,-0.38167,1.18221,6.25225
8.0799,7129.1501,-0.96321,0.50843,6.60777
8.1266,7129.1701,-0.73292,-0.07556,6.93947
8.1281,7129.1901,-0.25644,-0.775,7.16671
8.1412,7129.2101,-0.26194,-0.39688,7.27484
8.155,7129.2301,-1.37433,0.98979,6.88938
8.1766,7129.2501,-2.48793,2.13577,5.76111
8.196,7129.2701,-2.45983,2.66539,4.88452
8.2183,7129.2901,-1.91616,2.3398,4.47096
8.2391,7129.3101,-1.16235,1.25307,4.21684
8.2557,7129.3301,-0.45864,0.14069,4.13377
8.2766,7129.35,0.2518,-0.86602,3.98655
8.3007,7129.37,0.79913,-1.35044,3.65668
8.3183,7129.39,0.7075,-1.61433,3.50091
8.3382,7129.41,-0.00049,-2.2252,3.74465
8.3583,7129.43,-0.75796,-2.80002,4.2254
8.3761,7129.45,-1.50566,-3.67905,4.81061
8.3973,7129.47,-1.54537,-4.37361,5.04884
8.4189,7129.49,-1.21428,-4.36933,5.34878
8.4387,7129.51,-0.96321,-3.55138,6.2382
8.462,7129.53,-1.50322,-3.27955,6.50331
8.4843,7129.55,-2.08721,-3.57521,6.44772
8.5015,7129.57,-2.35537,-3.55261,6.54363
8.5201,7129.59,-2.79275,-3.05353,5.89978
8.5437,7129.61,-3.36452,-2.91486,5.07144
8.5673,7129.63,-3.5038,-3.57337,4.06902
8.5776,7129.65,-2.92348,-3.90141,2.98167
8.6021,7129.67,-2.50565,-3.98143,2.10569
8.6174,7129.69,-2.29612,-4.17202,1.94565
8.6371,7129.71,-2.03895,-3.6815,1.66098
8.6699,7129.73,-2.07804,-3.09018,1.2853
8.681,7129.7499,-2.57223,-3.26367,1.02202
8.7019,7129.7699,-2.9809,-3.39683,0.66772
8.7206,7129.7899,-3.30649,-3.32292,0.59075
8.7384,7129.8099,-3.38041,-2.94907,0.63412
8.7586,7129.8299,-3.01328,-2.52269,0.4924
8.7798,7129.8499,-2.60461,-1.83974,0.04341
8.7972,7129.8699,-2.17761,-1.58867,-0.70673
8.8209,7129.8899,-1.89784,-2.02117,-1.32493
8.8679,7129.9099,-2.19716,-3.03887,-0.60533
8.8767,7129.9299,-2.17945,-1.64121,0.0373
8.8804,7129.9499,-1.90578,-1.35532,-0.22903
8.8989,7129.9699,-1.45068,-1.59356,-1.08058
8.9187,7129.9899,-1.16907,-2.20137,-1.45199
8.9379,7130.0099,-1.29003,-3.20136,-0.86922
8.963,7130.0299,-1.77383,-4.08284,0.03364
8.9917,7130.0499,-2.03711,-2.11096,0.06174
9.001,7130.0699,-2.17883,-0.98697,-0.62121
9.0253,7130.0899,-2.23015,-2.01139,-1.51002
9.04,7130.1099,-1.94243,-2.45732,-1.99932
9.0574,7130.1299,-1.71885,-2.76398,-0.87594
9.0821,7130.1499,-2.18067,-4.13171,0.58586
9.0974,7130.1699,-2.88622,-4.99303,1.36594
9.1218,7130.1898,-2.45128,-0.78844,-0.05616
9.1413,7130.2098,-2.12935,-1.337,-0.61327
9.1608,7130.2298,-1.85752,-1.63999,-0.64381
9.1777,7130.2498,-1.60401,-2.47993,-1.16732
9.1984,7130.2698,-2.1092,-3.53611,-1.03049
9.2207,7130.2898,-2.83918,-4.7163,0.04769
9.2369,7130.3098,-2.81536,-3.08774,0.82166
9.262,7130.3298,-2.03711,-2.16411,1.12098
9.2777,7130.3498,-1.65899,-2.36081,1.85463
9.297,7130.3698,-1.21245,-2.40601,2.35981
9.3186,7130.3898,-1.00109,-2.99489,2.45511
9.3395,7130.4098,-1.29919,-3.95089,2.89066
9.3576,7130.4298,-1.31324,-3.14149,3.02138
9.381,7130.4498,-0.73108,-2.1971,2.7355
9.4051,7130.4698,-0.45925,-2.5068,2.80391
9.4156,7130.4898,-0.83554,-2.30216,3.59559
9.4415,7130.5098,-1.63333,-2.3547,4.62185
9.4567,7130.5298,-2.84712,-2.0566,5.69392
9.4762,7130.5498,-3.58138,-0.87579,6.78065
9.4984,7130.5697,-3.80862,0.00691,7.34325
9.5162,7130.5897,-4.57709,-0.03708,6.73361
9.5376,7130.6097,-5.11954,0.44184,6.05555
9.5605,7130.6297,-5.40481,1.66174,6.43917
9.5783,7130.6497,-5.56364,2.83643,6.68535
9.5993,7130.6697,-5.46224,3.03619,5.73851
9.6185,7130.6897,-5.06517,2.7222,4.08978
9.6419,7130.7097,-4.55999,2.65806,3.14844
9.6596,7130.7297,-4.07618,2.82727,3.21991
9.6791,7130.7497,-3.75426,2.93356,3.53206
9.6972,7130.7697,-3.46898,2.35263,3.8937
9.7222,7130.7897,-2.99312,1.95007,4.04458
9.7373,7130.8097,-2.85384,1.78086,4.04092
9.758,7130.8297,-3.09452,1.49986,3.52596
9.78,7130.8497,-3.25701,0.88777,2.95846
9.804,7130.8697,-3.19776,0.50049,2.79353
9.8177,7130.8897,-3.54045,0.07349,2.59439
9.8368,7130.9097,-3.94118,-0.40787,1.98963
9.8612,7130.9297,-4.65589,-1.75483,1.0996
9.8814,7130.9497,-4.95338,-1.82997,0.3067
9.8984,7130.9697,-5.73957,-0.76706,-0.66397
9.918,7130.9897,-6.76704,-1.24048,-1.05248
9.9377,7131.0096,-6.54774,-1.4775,-0.722
9.9564,7131.0296,-5.42558,-0.651,-0.51797
9.9787,7131.0496,-3.77564,-1.51109,-0.95657
9.9971,7131.0696,-3.05298,-0.96315,-0.72322
10.0173,7131.0896,-3.18921,-0.494,0.01104
10.0388,7131.1096,-3.279,-0.92588,0.0654
10.0552,7131.1296,-2.81841,-0.97598,-0.71406
10.0905,7131.1496,-2.10248,-1.4213,-1.16366
10.1003,7131.1696,-1.90517,-1.61738,-0.8173
10.1155,7131.1896,-1.91433,-1.28202,-0.03905
10.1345,7131.2096,-1.54109,-0.50683,0.22973
10.1585,7131.2296,-0.46169,-0.50256,0.11244
10.177,7131.2496,1.11801,-0.76584,0.01043
10.1946,7131.2696,2.40204,-0.73835,-0.21437
10.2157,7131.2896,3.22366,-0.20934,-0.15451
10.2458,7131.3096,3.16013,-0.11588,0.36351
10.2558,7131.3296,3.66043,-0.06518,1.00003
10.2796,7131.3496,5.19736,-0.32113,1.12098
10.2959,7131.3696,5.92613,-0.19468,0.76729
10.3156,7131.3895,6.39955,-0.54043,0.24011
10.3402,7131.4095,7.09288,-0.84708,-0.29867
10.3614,7131.4295,7.60662,-1.82386,-0.58211
10.3781,7131.4495,7.64082,-3.02299,-0.75193
10.3994,7131.4695,7.49116,-3.66928,-0.76049
10.4192,7131.4895,7.201,-3.45181,-0.69818
10.4405,7131.5095,6.79905,-3.52084,-0.70001
10.468,7131.5295,6.45636,-3.89713,-0.4184
10.4813,7131.5495,6.2169,-4.2722,0.29265
10.4979,7131.5695,6.25233,-4.74074,0.98476
10.523,7131.5895,6.3464,-4.79144,1.2175
10.5501,7131.6095,6.23461,-4.39499,1.34456
10.5663,7131.6295,6.07945,-4.67782,1.54797
10.5817,7131.6495,6.03181,-4.99608,1.45818
10.5985,7131.6695,5.97194,-4.29236,1.30302
10.6178,7131.6895,5.76119,-3.91729,1.40564
10.647,7131.7095,5.97072,-4.38949,1.58035
10.6589,7131.7295,6.89801,-4.34001,1.1729
10.6925,7131.7495,7.73856,-4.86169,0.9139
10.7052,7131.7695,8.29567,-5.60084,0.75018
10.7179,7131.7896,8.74466,-5.18545,0.76362
10.7369,7131.8096,9.08552,-4.80488,0.94933
10.7618,7131.8297,8.36775,-4.8061,0.29387
10.7783,7131.8498,7.06722,-4.70897,-0.66458
10.798,7131.8698,5.71354,-3.03398,-0.89854
10.8307,7131.8899,4.11002,-2.6357,-0.83562
10.8465,7131.91,2.89257,-2.7707,-1.06775
10.8706,7131.93,2.4613,-2.93502,-1.47581
10.8873,7131.9501,2.62684,-3.39622,-2.53688
10.9011,7131.9701,2.48146,-3.49763,-3.12942
10.9194,7131.9902,1.8315,-3.61614,-2.59186
10.9431,7132.0103,1.0557,-3.90507,-1.41717
10.9601,7132.0303,0.09847,-4.09261,-0.04516
10.9833,7132.0504,-1.14281,-3.74686,0.88824
11.0014,7132.0705,-2.30589,-3.74258,1.02935
11.0197,7132.0905,-2.78237,-3.81772,0.79844
11.0388,7132.1106,-2.62965,-3.67661,0.91023
11.0642,7132.1306,-2.27169,-3.77863,0.75263
11.0833,7132.1507,-1.9406,-4.12315,0.526
11.1041,7132.1708,-1.50261,-3.15615,0.18574
11.12,7132.1908,-1.69442,-3.00955,0.09961
11.1396,7132.2109,-2.10859,-3.31498,0.39038
11.1642,7132.2309,-2.25825,-3.59964,1.27247
11.1825,7132.251,-2.21854,-4.23372,1.97375
11.2263,7132.2711,-2.47694,-5.13108,1.42275
11.2375,7132.2911,-2.58384,-3.7041,0.53882
11.2481,7132.3112,-2.64004,-4.06756,0.56265
11.2575,7132.3313,-2.2277,-4.18974,1.09166
11.2913,7132.3513,-2.02367,-4.83664,1.22605
11.3022,7132.3713,-1.88928,-5.90932,1.08188
11.3176,7132.3913,-1.50505,-6.04371,1.02935
11.3373,7132.4113,-1.30469,-6.54096,1.1894
11.3598,7132.4313,-1.06156,-3.79268,1.26575
11.376,7132.4513,-1.38899,-3.43349,1.93038
11.3971,7132.4713,-1.44702,-3.20747,2.7526
11.4211,7132.4913,-1.35905,-2.63509,3.20769
11.4439,7132.5113,-1.40181,-2.69862,3.37446
11.4568,7132.5313,-1.66143,-3.11889,2.94319
11.4812,7132.5513,-1.71946,-3.25511,2.74405
11.4978,7132.5713,-1.62417,-2.58194,3.37935
11.5234,7132.5913,-1.47329,-1.22826,4.62429
11.5443,7132.6113,-1.51421,0.15596,5.79715
11.5599,7132.6312,-1.59546,1.23597,6.93825
11.5774,7132.6512,-1.65349,1.93724,7.63586
11.6037,7132.6712,-1.38104,2.62507,8.26871
11.6197,7132.6912,-1.01208,2.13027,8.33224
11.6385,7132.7112,-0.5576,2.75824,7.75436
11.6626,7132.7312,-0.53866,4.51387,7.25223
11.6815,7132.7512,-0.76346,6.07646,6.88327
11.6998,7132.7712,-0.99376,6.31714,6.7727
11.7204,7132.7912,-1.19045,5.74965,6.69024
11.7421,7132.8112,-1.19351,5.50714,6.48926
11.7654,7132.8312,-1.25765,5.66169,6.06593
11.7867,7132.8512,-1.68342,4.63055,5.17529
11.7978,7132.8713,-1.97847,3.94027,4.30725
11.8226,7132.8913,-2.1599,4.07527,4.04763
11.8402,7132.9113,-2.11286,3.52305,3.97005
11.8585,7132.9313,-1.24971,2.48702,3.92546
11.8786,7132.9514,-0.14404,3.16203,4.13926
11.9029,7132.9714,0.17361,4.97691,4.6359
11.9215,7132.9914,-0.30959,6.22918,4.934
11.9458,7133.0115,-0.70482,5.06365,5.25348
11.9603,7133.0315,-0.60402,2.41066,5.07022
11.9789,7133.0515,-0.80439,0.57012,3.58154
12.011,7133.0715,-0.64495,0.61533,2.98229
12.0225,7133.0916,-0.49712,0.88533,3.63591
12.0376,7133.1116,-0.38289,0.74361,4.41721
12.0581,7133.1316,-0.49529,0.17367,4.67988
12.084,7133.1517,-0.6419,-0.67971,4.65972
12.1433,7133.1717,-0.9681,-0.64305,4.68293
12.1445,7133.1917,-1.81415,0.20605,4.67255
12.1462,7133.2117,-2.05605,0.68985,4.46058
12.1659,7133.2318,-1.42564,-0.0273,4.09956
12.1778,7133.2518,-0.25766,-1.66198,3.8375
12.1984,7133.2718,0.59816,-2.83117,4.10383
12.2172,7133.2919,0.82112,-2.96923,4.13926
12.2387,7133.3119,0.90359,-3.26489,3.6353
12.2702,7133.3319,1.5059,-3.91179,3.27856
12.2798,7133.3519,1.961,-4.47196,3.04643
12.2983,7133.372,2.15281,-5.49394,3.06536
12.3186,7133.392,2.38372,-6.04432,3.11423
12.3374,7133.412,1.96161,-5.08954,3.42089
12.3578,7133.4321,1.38556,-3.41272,3.43066
12.3798,7133.452,0.86633,-3.11095,3.12645
12.398,7133.472,0.61832,-3.88125,2.22665
12.4181,7133.492,0.52424,-3.69616,1.2572
12.4411,7133.512,0.59205,-3.28077,1.5382
12.4626,7133.532,0.443,-3.87331,2.01284
12.4805,7133.552,0.08564,-4.27648,1.71657
12.5019,7133.572,-0.24361,-4.35834,1.59318
12.5328,7133.592,-0.02187,-4.93255,1.9597
12.5422,7133.612,0.28662,-5.16834,2.67319
12.5612,7133.632,0.4937,-5.205,3.1179
12.5781,7133.652,0.79058,-5.43163,3.42577
12.5983,7133.672,1.2976,-5.50982,3.60781
12.6278,7133.692,1.08746,-5.41086,3.31826
12.6502,7133.712,0.43872,-5.5312,2.55468
12.663,7133.732,0.30617,-5.20744,1.86379
12.6828,7133.752,0.40696,-4.60757,1.36838
12.6978,7133.772,0.16628,-3.86781,0.41176
12.7193,7133.792,-0.56187,-3.75358,-0.66702
12.7398,7133.812,-1.33889,-3.28016,-1.7904
12.7579,7133.832,-2.15073,-2.61309,-1.96756
12.7784,7133.852,-2.38042,-2.41212,-0.95413
12.8008,7133.8719,-1.96198,-2.48603,-0.18933
12.8198,7133.8919,-1.43358,-2.61248,-0.62121
12.8384,7133.9119,-0.93695,-3.27588,-1.53995
12.8598,7133.9319,-0.9229,-4.09933,-2.35668
12.878,7133.9519,-1.04385,-4.76334,-2.62851
12.8984,7133.9719,-1.10982,-4.15247,-2.01887
12.9202,7133.9919,-1.19595,-3.85682,-1.03476
12.9397,7134.0119,-1.33523,-3.79084,-0.7165
12.9583,7134.0319,-1.39876,-3.44998,-1.38907
12.9827,7134.0519,-2.09515,-3.71448,-1.80323
12.9979,7134.0719,-2.86484,-3.93379,-1.61509
13.0183,7134.0919,-2.64554,-3.86842,-1.04026
13.0404,7134.1119,-2.02856,-4.4127,-0.44406
13.0597,7134.1319,-1.47573,-3.90813,-0.26568
13.0785,7134.1519,-1.11532,-2.53551,-1.19481
13.1,7134.1719,-1.84042,-3.58376,-1.69144
13.1191,7134.1919,-2.01573,-3.85926,-1.27667
13.1389,7134.2119,-1.82453,-3.96311,-0.04394
13.1612,7134.232,-1.13364,-3.63141,0.88396
13.1788,7134.252,-0.66389,-3.20808,1.16191
13.1985,7134.272,-0.28149,-1.44329,0.67383
13.2218,7134.292,-1.03285,-3.1702,0.5767
13.2482,7134.3121,-1.07622,-3.57093,0.58586
13.2609,7134.3321,-0.85998,-3.50313,0.88641
13.2816,7134.3521,-1.1984,-3.75053,1.84241
13.2986,7134.3722,-1.48795,-6.40718,1.93404
13.3209,7134.3922,-1.09394,-4.69798,0.64817
13.3451,7134.4122,-1.13914,-0.06151,-1.27056
13.3722,7134.4322,-1.87523,-1.65404,-1.08302
13.3815,7134.4523,-2.41463,-1.93992,0.3519
13.4021,7134.4723,-2.84895,-2.57889,1.31951
13.4208,7134.4923,-3.0316,-3.52451,1.33112
13.4384,7134.5124,-3.05298,-3.31315,1.55408
13.4606,7134.5324,-2.83124,-2.52818,1.59196
13.4786,7134.5524,-2.42318,-2.60515,1.5211
13.5028,7134.5724,-1.94732,-2.95823,1.82775
13.5237,7134.5925,-1.63333,-3.14882,2.42151
13.5469,7134.6125,-1.60096,-3.36568,3.09407
13.5648,7134.6325,-1.84347,-3.10728,3.49725
13.5936,7134.6526,-2.29918,-2.69862,3.14661
13.6002,7134.6726,-2.73289,-2.43717,2.79719
13.6196,7134.6926,-3.01144,-2.26001,3.16188
13.6418,7134.7126,-3.01877,-2.03766,3.84849
13.6611,7134.7327,-2.7671,-1.7249,3.96334
13.68,7134.7527,-2.47816,-1.34372,3.83689
13.7051,7134.7727,-2.16906,-1.2753,4.18569
13.7257,7134.7927,-1.94793,-0.97414,5.1533
13.7396,7134.8127,-2.00291,-0.73957,6.36831
13.7638,7134.8327,-2.22587,-0.50378,7.4697
13.7838,7134.8527,-2.447,-0.45796,6.99017
13.8084,7134.8727,-2.18311,0.18772,5.58824
13.8247,7134.8927,-1.70236,1.08081,5.22783
13.8406,7134.9127,-1.40914,1.40884,6.01157
13.8634,7134.9327,-1.19717,1.06309,6.1374
13.8844,7134.9527,-1.04996,0.76988,5.31274
13.8987,7134.9727,-0.95038,0.75827,4.50945
13.9186,7134.9927,-1.16358,1.30622,3.28466
13.9525,7135.0127,-1.39021,1.38135,2.62615
13.9634,7135.0327,-1.21978,0.608,2.10447
14.0133,7135.0527,-0.53805,0.24087,2.04461
14.015,7135.0727,0.11435,0.42046,2.62065
14.0205,7135.0926,0.31166,0.81569,3.38424
14.0422,7135.1126,0.23897,1.45527,4.0006
14.0601,7135.1326,0.01112,1.55789,4.1973
14.0781,7135.1526,-0.33036,0.85906,3.86926
14.0988,7135.1726,-0.4342,0.08082,2.78742
14.1255,7135.1926,-0.12511,-0.06029,1.67198
14.142,7135.2126,0.2463,-0.04685,1.06295
14.1598,7135.2326,0.36175,0.06188,1.34639
14.1811,7135.2526,0.38069,0.06738,2.21748
14.2023,7135.2726,0.33976,-0.01814,3.05437
14.2339,7135.2926,0.19132,0.21888,3.16188
14.2421,7135.3126,-0.00354,0.50232,2.7697
14.2713,7135.3326,-0.03958,0.38259,2.57484
14.2885,7135.3527,0.19804,0.22499,2.79047
14.3067,7135.3727,0.57495,0.13946,2.90165
14.3201,7135.3927,0.79669,0.24698,2.60538
14.3401,7135.4127,0.85228,0.17428,2.16373
14.3618,7135.4328,0.85533,-0.00042,1.79843
14.3837,7135.4528,0.74171,-0.18124,1.81553
14.4016,7135.4728,0.52852,-0.12076,2.04033
14.4262,7135.4929,0.55357,0.18711,1.99879
14.4427,7135.5129,0.77287,0.3099,1.90472
14.4606,7135.5329,1.01416,1.02766,2.02567
14.4837,7135.5529,0.85594,1.21398,2.78192
14.5025,7135.573,0.46316,0.64221,3.75075
14.5201,7135.593,0.52363,-0.36816,4.01282
14.5436,7135.613,0.95002,-1.79637,3.67317
14.5608,7135.6331,1.14916,-2.94174,3.33353
14.5805,7135.6531,0.76187,-3.395,3.42577
14.6046,7135.6731,0.21881,-3.30459,3.52718
14.6232,7135.6931,-0.18131,-2.07431,3.22236
14.6532,7135.7132,-0.64373,-1.11342,3.23274
14.6669,7135.7332,-0.51484,-1.1739,3.12034
14.6817,7135.7532,0.41429,-2.41884,2.32133
14.702,7135.7733,1.75086,-3.6027,0.91206
14.7223,7135.7933,2.56576,-4.12804,0.12405
14.7415,7135.8133,2.55415,-4.36261,0.21568
14.7619,7135.8333,1.09907,-4.01808,0.60785
14.7868,7135.8534,-0.119,-2.10302,0.78561
14.8049,7135.8734,-1.07011,-1.59661,0.91084
14.8233,7135.8934,-1.3505,-2.97534,0.88519
14.8453,7135.9134,0.54746,-4.09933,0.80883
14.8618,7135.9334,2.51444,-4.7218,1.02019
14.8867,7135.9534,3.59873,-5.70529,1.17962
14.9105,7135.9734,3.83574,-5.05839,0.75446
14.9232,7135.9934,3.23832,-4.43592,0.43131
14.949,7136.0134,1.46559,-3.36385,0.92428
14.9647,7136.0334,0.82907,-2.8104,1.10021
14.9826,7136.0534,1.52728,-2.93624,0.6103
15.0031,7136.0734,2.13998,-4.07367,-0.05005
15.027,7136.0934,2.26216,-4.83176,-0.9297
15.0505,7136.1134,1.7588,-5.34855,-1.36891
15.067,7136.1334,1.41855,-5.81036,-1.06042
15.0963,7136.1534,1.62869,-5.80853,-0.46422
15.105,7136.1734,2.10822,-5.03456,-0.61938
15.1198,7136.1934,2.89868,-4.53121,-1.68289
15.1435,7136.2134,3.12042,-4.33879,-2.33957
15.1737,7136.2334,2.33302,-3.65951,-2.00482
15.1918,7136.2534,1.03248,-3.43349,-0.52347
15.2188,7136.2734,0.47537,-3.40539,-0.24003
15.2296,7136.2935,0.69834,-3.48846,-0.71284
15.2418,7136.3135,0.81624,-2.80124,-1.51368
15.2769,7136.3335,0.42406,-2.99305,-1.94679
15.2864,7136.3536,0.10763,-3.75602,-2.07262
15.3049,7136.3737,-0.53744,-5.40597,-1.31393
15.329,7136.3937,-1.32912,-6.14023,-0.5308
15.3475,7136.4138,-2.24175,-2.22825,-1.23574
15.3623,7136.4339,-2.82513,-2.52696,-2.27849
15.384,7136.4539,-2.48121,-2.74565,-2.99014
15.4006,7136.474,-1.57041,-3.16715,-2.76412
15.4225,7136.494,-1.04629,-4.22334,-2.21068
15.4507,7136.5141,-2.21793,-5.43163,-1.09219
15.4632,7136.5342,-2.87828,-2.71572,-1.17404
15.482,7136.5542,-3.20692,-3.80184,-1.49597
15.5042,7136.5743,-3.05176,-3.15005,-1.8576
15.5235,7136.5943,-2.73778,-2.8605,-1.98222
15.5425,7136.6144,-1.84958,-3.00222,-2.07385
15.5729,7136.6345,-1.15808,-4.28992,-1.93335
15.5869,7136.6545,-1.76345,-3.35469,-1.28827
15.6042,7136.6746,-2.54658,-3.822,-0.77698
15.6251,7136.6947,-1.91189,-3.98876,-0.80752
15.6482,7136.7147,-1.12998,-3.73159,-0.88022
15.6658,7136.7348,-0.60769,-3.51656,-0.8851
15.693,7136.7548,-0.26377,-3.27039,-0.72689
15.7052,7136.7749,0.1956,-2.304,-0.58028
15.723,7136.795,0.42223,-2.12868,-0.19299
15.75,7136.815,0.24386,-2.45732,0.39283
15.7623,7136.8351,-0.42748,-2.38769,2.19916
15.785,7136.8551,-0.84715,-1.1965,3.45021
15.8041,7136.8751,-1.49039,-1.41152,4.59558
15.8219,7136.8952,-2.58995,-1.08654,5.73423
15.8466,7136.9152,-3.98089,-1.12503,6.45017
15.8652,7136.9352,-5.30036,-2.16655,6.452
15.8833,7136.9552,-6.39686,-1.97841,5.64566
15.9014,7136.9752,-6.80797,-0.89778,5.40314
15.9286,7136.9952,-6.50743,-0.25515,5.50882
15.9452,7137.0152,-6.01934,0.00813,5.16674
15.9644,7137.0352,-5.37244,0.3044,4.54244
15.9856,7137.0552,-4.8416,1.14556,4.41721
16.0025,7137.0752,-4.43965,1.67823,4.77273
16.0223,7137.0952,-4.0377,1.30561,4.02259
16.045,7137.1152,-3.7176,1.49497,3.58093
16.0751,7137.1352,-3.41828,2.62691,3.70005
16.0857,7137.1551,-3.66202,2.97754,4.55404
16.11,7137.1751,-3.52091,1.87432,4.94683
16.1308,7137.1951,-2.83979,0.85173,4.69271
16.1421,7137.2151,-2.39569,0.99284,4.5742
16.1643,7137.2351,-2.73167,1.18282,3.87476
16.1822,7137.2551,-3.43111,1.23597,2.32072
16.2245,7137.2751,-3.57711,0.91038,0.2902
16.2368,7137.2951,-3.25518,0.28668,-0.587
16.248,7137.3151,-3.03893,0.06677,-0.74216
16.2936,7137.3352,-3.11285,0.34716,-0.5027
16.2947,7137.3552,-3.39629,-0.2466,-0.46849
16.3038,7137.3752,-3.06764,-0.09816,-0.95474
16.3208,7137.3952,-2.29246,0.53714,-1.85271
16.3438,7137.4153,-1.82575,0.30379,-2.31636
16.3614,7137.4353,-1.86485,-0.22278,-2.44586
16.3835,7137.4553,-2.20755,-1.01202,-2.45564
16.4047,7137.4754,-2.73533,-1.74994,-2.46236
16.4256,7137.4954,-3.43661,-1.63205,-2.33407
16.4478,7137.5154,-4.01693,-0.75179,-2.12577
16.4685,7137.5354,-4.3022,-0.08839,-2.23267
16.4924,7137.5555,-4.08046,-0.08717,-2.51917
16.5101,7137.5755,-3.46287,0.17306,-2.36828
16.5242,7137.5955,-2.83796,-0.05723,-1.90341
16.5435,7137.6156,-2.48427,-1.31684,-1.12823
16.5666,7137.6356,-2.5423,-0.66505,-0.59677
16.5858,7137.6556,-2.8569,-0.64977,-0.6487
16.6163,7137.6756,-3.01939,-0.19468,-1.06164
16.6256,7137.6957,-2.79092,-0.64428,-1.25895
16.6449,7137.7157,-2.50076,-1.47383,-1.13434
16.6625,7137.7357,-2.26802,-1.80675,-0.79897
16.684,7137.7558,-2.09454,-1.19894,-0.62915
16.7057,7137.7758,-1.93999,-1.02485,-0.42756
16.7253,7137.7958,-1.67731,-0.82754,-0.28462
16.7427,7137.8158,-1.33951,-0.91245,-0.48132
16.7679,7137.8359,-1.00781,-1.00957,-0.73178
16.7839,7137.8559,-0.94,-0.85197,-1.00544
16.8036,7137.8759,-1.23444,-0.88923,-1.18565
16.8325,7137.896,-1.5081,-1.36998,-0.77331
16.8479,7137.916,-1.49894,-1.22338,-0.24064
16.8644,7137.936,-1.26193,-0.86785,-0.02745
16.8886,7137.9559,-0.79461,-0.68398,-0.21804
16.9048,7137.9759,-0.33708,-0.4488,-0.35915
16.9298,7137.9959,0.01234,0.01485,-0.41962
16.9469,7138.0159,0.06487,-0.20751,-0.07204
16.9638,7138.0359,0.09297,0.07227,0.35862
16.9847,7138.0559,0.49248,0.21094,0.19857
17.0086,7138.0759,1.53278,0.80103,-0.63465
17.0315,7138.0959,3.09293,1.294,-1.06409
17.0531,7138.1159,4.81252,1.16144,-0.76354
17.0674,7138.1359,6.2395,0.23537,-0.04028
17.0861,7138.1559,6.96521,-0.74873,0.67138
17.1025,7138.1759,6.86686,-1.35471,1.35066
17.1308,7138.1959,6.09289,-1.4775,1.30424
17.1447,7138.2159,4.94874,-0.69498,0.4533
17.1644,7138.2359,3.97197,-0.01936,-0.45322
17.1868,7138.2559,3.72945,-0.56792,-0.8289
17.2213,7138.2759,4.37575,-1.48666,-0.83745
17.2431,7138.2959,5.29266,-1.96374,-1.06347
17.2484,7138.3159,5.32748,-1.48116,-1.29316
17.2706,7138.3359,4.49975,-1.16901,-0.64992
17.2916,7138.3559,4.55473,-1.09754,0.31342
17.309,7138.3759,5.12895,-1.97046,0.85403
17.3232,7138.3958,5.52662,-2.43533,0.3629
17.3471,7138.4158,4.89437,-2.68457,-0.55157
17.3645,7138.4358,4.165,-2.17266,-1.26567
17.3816,7138.4558,4.03489,-2.66929,-1.6664
17.4072,7138.4758,4.28901,-3.06697,-2.18258
17.4281,7138.4958,4.2664,-3.03154,-2.50328
17.4453,7138.5158,4.22609,-2.39807,-2.53261
17.4624,7138.5358,4.53702,-2.62776,-2.25772
17.4933,7138.5558,4.99578,-2.38097,-2.23695
17.5039,7138.5758,5.09229,-1.95031,-2.39883
17.526,7138.5958,4.84123,-2.22153,-2.4257
17.551,7138.6158,4.81252,-2.67601,-2.27787
17.5657,7138.6358,5.4582,-2.77192,-2.28398
17.5858,7138.6558,6.32074,-3.24839,-2.7067
17.6128,7138.6758,6.69643,-3.69555,-3.37988
17.6232,7138.6958,6.5486,-3.83605,-3.90644
17.6444,7138.7158,6.31036,-3.70654,-4.37681
17.667,7138.7358,6.22484,-3.86292,-4.58572
17.6888,7138.7558,6.0428,-3.41455,-4.61871
17.705,7138.7758,5.79723,-2.31072,-4.91803
17.7249,7138.7957,5.77463,-2.02544,-4.78242
17.7479,7138.8157,5.90597,-1.95336,-4.07443
17.7653,7138.8357,5.81678,-1.66137,-3.47334
17.7899,7138.8557,5.4973,-1.09082,-3.37438
17.8054,7138.8757,5.19309,-0.67971,-3.45685
17.8228,7138.8957,4.98967,-0.8929,-3.44157
17.8465,7138.9157,4.46188,-0.98331,-2.90707
17.8695,7138.9357,3.97808,-0.48606,-2.5717
17.8849,7138.9557,3.90111,0.44917,-2.48679
17.905,7138.9757,3.82475,1.55117,-2.29926
17.9298,7138.9957,3.68058,1.54507,-2.40799
17.9538,7139.0157,3.60545,1.55728,-2.22351
17.9738,7139.0357,3.38432,2.10767,-1.7904
17.9819,7139.0557,2.68304,2.81505,-1.13006
18.0068,7139.0757,1.5395,3.363,-0.6939
18.0265,7139.0957,1.23712,4.0264,-0.87838
18.0506,7139.1157,1.55966,4.22249,-1.20764
18.0615,7139.1357,1.70993,3.28298,-1.38235
18.0831,7139.1557,1.61525,2.56399,-1.45748
18.1006,7139.1757,1.44054,3.09422,-1.37746
18.1219,7139.1956,0.68307,3.59879,-0.85334
18.1431,7139.2156,0.33182,4.04167,-0.45627
18.1637,7139.2356,0.08259,4.53953,-0.64015
18.1916,7139.2556,-0.2766,4.88344,-1.17099
18.2103,7139.2756,-0.52034,5.08625,-1.74703
18.229,7139.2956,-0.67061,4.89566,-2.59491
18.243,7139.3156,-0.92351,4.99951,-3.10071
18.2749,7139.3356,-1.00597,4.88405,-3.06589
18.2895,7139.3556,-0.72681,3.88773,-3.81054
18.3068,7139.3756,-0.72192,3.16386,-4.76959
18.3248,7139.3956,-1.18435,3.23105,-4.82335
18.3446,7139.4156,-1.49955,2.92929,-4.16911
18.3606,7139.4356,-1.27475,2.4803,-3.88017
18.3837,7139.4556,-0.82821,2.16754,-3.71768
18.4035,7139.4756,-0.61624,2.58903,-3.19356
18.4271,7139.4956,-0.69565,1.79002,-3.37865
18.4443,7139.5156,-0.56493,1.14067,-4.13063
18.466,7139.5356,-0.08051,1.26712,-4.27235
18.4813,7139.5556,0.20659,1.45282,-3.84291
18.5034,7139.5756,0.10763,0.67092,-3.73296
18.5213,7139.5955,-0.23384,-0.14153,-4.22043
18.5445,7139.6155,-0.31264,-0.14337,-4.35421
18.5639,7139.6355,-0.29798,-0.11832,-4.27663
18.5904,7139.6555,-0.36884,-0.45735,-4.41163
18.6017,7139.6755,-0.35601,-0.81226,-4.10436
18.6238,7139.6955,-0.35357,-1.16534,-3.7073
18.6432,7139.7155,-0.46902,-1.8434,-3.60101
18.6618,7139.7355,-0.73414,-1.96558,-3.38476
18.6833,7139.7555,-0.64434,-1.74017,-2.87652
18.7042,7139.7755,-0.16787,-1.73345,-2.34385
18.7249,7139.7955,0.01539,-2.63325,-2.13615
18.7519,7139.8155,-0.10006,-2.10791,-2.35973
18.7611,7139.8355,-0.77323,-0.786,-2.8472
18.7833,7139.8555,-1.33584,-1.24231,-3.13858
18.8031,7139.8755,-1.0414,-1.74506,-3.45196
18.8227,7139.8955,-0.69382,-1.83119,-3.68592
18.8406,7139.9155,-0.66939,-1.72367,-3.77633
18.8633,7139.9355,-0.98948,-1.45245,-3.77083
18.8828,7139.9555,-1.47939,-0.32418,-3.91377
18.9007,7139.9755,-1.91616,-0.05235,-3.85941
18.924,7139.9955,-1.78971,-0.18918,-3.63033
18.9442,7140.0154,-1.43358,-0.53432,-3.58513
18.9643,7140.0354,-1.30041,-0.60885,-3.769
18.9833,7140.0554,-1.41892,-0.49217,-3.70425
19.002,7140.0755,-1.55025,-0.05418,-3.34322
19.0269,7140.0955,-1.60768,0.21216,-2.94372
19.047,7140.1155,-1.78177,0.1358,-2.85087
19.0653,7140.1356,-1.98519,0.16451,-2.74458
19.0833,7140.1556,-2.51664,-0.2802,-2.49107
19.1066,7140.1756,-2.91371,-0.36511,-3.00969
19.1237,7140.1956,-3.14461,-0.84464,-3.4318
19.1425,7140.2157,-3.07009,-0.98575,-3.37255
19.1647,7140.2357,-3.04199,-1.09509,-2.91867
19.1829,7140.2557,-3.1269,-1.47078,-2.04147
19.2009,7140.2757,-3.21181,-1.40969,-1.1771
19.2418,7140.2958,-3.09635,-0.1226,-1.36341
19.252,7140.3158,-3.09941,-0.8929,-1.68106
19.2643,7140.3358,-3.43783,-1.40175,-2.33346
19.2851,7140.3559,-3.81351,-1.16779,-2.53566
19.303,7140.376,-3.92896,-0.31746,-2.0488
19.3228,7140.396,-3.60032,0.08937,-1.28949
19.3457,7140.4161,-3.08292,-0.44758,-1.2278
19.3661,7140.4361,-2.58873,-1.23376,-2.07629
19.3838,7140.4562,-2.02429,-1.75972,-3.06039
19.4107,7140.4763,-1.7329,-1.89105,-2.93944
19.4261,7140.4964,-1.73168,-1.55752,-2.49779
19.4466,7140.5165,-1.87829,-1.45428,-1.72626
19.4743,7140.5366,-2.03711,-1.40664,-1.23085
19.4854,7140.5567,-2.11286,-1.53003,-1.1942
19.5073,7140.5768,-2.04261,-1.81408,-1.25101
19.5329,7140.5969,-2.01268,-1.56485,-1.43366
19.5455,7140.617,-2.26985,-0.96193,-1.15999
19.5703,7140.6371,-2.08049,-1.01935,-0.52958
19.5897,7140.6572,-1.34745,-1.35593,-0.17283
19.6054,7140.6773,-0.43115,-1.89105,-0.40679
19.6258,7140.6973,0.35076,-2.03033,-0.82829
19.6462,7140.7174,0.74904,-1.23559,-1.09768
19.6695,7140.7374,1.02515,-0.90878,-0.65847
19.6923,7140.7575,2.096,-1.42618,0.98537
19.7073,7140.7776,2.95976,-2.25574,2.71534
19.7278,7140.7976,3.14669,-2.66257,3.45326
19.7448,7140.8177,3.16013,-2.95946,3.35491
19.772,7140.8377,3.26581,-3.62285,2.50092
19.7935,7140.8578,3.59934,-3.38523,1.27125
19.8112,7140.8779,4.17539,-3.10118,1.2346
19.8306,7140.8979,5.35619,-3.07735,2.75688
19.849,7140.918,6.61396,-2.98389,4.59069
19.8669,7140.9381,6.87297,-3.11767,5.86374
19.8869,7140.9581,5.62619,-2.6302,6.35671
19.9046,7140.9781,3.95731,-1.26797,5.86862
19.9246,7140.9981,2.5175,-0.47079,4.8949
19.9494,7141.0182,1.88586,-0.47262,4.5797
19.9665,7141.0382,1.69161,-0.57647,5.19301
19.9853,7141.0582,1.73315,-1.06455,5.63039
20.0069,7141.0782,2.00254,-1.64732,5.61511
20.0763,7141.0982,2.43808,-1.94542,5.38665
20.078,7141.1182,2.90356,-1.60395,5.02746
20.0808,7141.1382,2.68854,-2.82323,5.35305
20.0881,7141.1582,2.99519,-3.00344,4.9957
20.1064,7141.1782,2.8101,-2.11829,4.32313
20.1262,7141.1982,2.05324,-2.21725,4.28648
20.1455,7141.2182,2.17114,-2.18121,3.94806
20.1654,7141.2381,2.10944,-1.47811,3.55467
20.1871,7141.2581,1.51751,-0.57036,3.44227
20.2057,7141.2781,1.5169,-0.0328,3.66035
20.2303,7141.2981,1.32387,-0.18185,3.55039
20.2478,7141.3181,0.54196,-0.62045,3.19792
20.2657,7141.3381,0.00379,-1.33944,2.41357
20.2948,7141.3581,-0.31692,-2.47565,1.18207
20.3052,7141.3781,-0.95649,-2.34126,-0.9297
20.3235,7141.3981,-1.75428,-1.93015,-3.02435
20.3443,7141.4181,-2.14768,-2.54712,-4.37742
20.3672,7141.4381,-1.772,-2.8776,-5.1129
20.3863,7141.4581,-1.6315,-1.71573,-5.14894
20.4048,7141.4781,-1.56858,-0.26859,-5.23263
20.4268,7141.4981,-1.85447,0.41924,-5.82945
20.452,7141.5181,-2.67547,0.61533,-6.98581
20.4705,7141.5381,-2.8007,-0.2185,-7.0359
20.4925,7141.5581,-2.43173,-1.06394,-5.81112
20.5103,7141.5781,-1.8337,-0.55326,-4.54419
20.5294,7141.5981,-1.05301,1.29828,-4.54052
20.5547,7141.6181,-0.5802,1.93846,-5.60526
20.5711,7141.638,-0.82882,1.50841,-6.8612
20.5862,7141.658,-1.49344,-0.08411,-7.38898
20.6122,7141.678,-1.64799,-1.28935,-7.45007
20.6257,7141.698,-1.43358,-1.87578,-7.4122
20.6524,7141.718,-1.40548,-1.23498,-7.73351
20.6786,7141.738,-1.33767,-1.55691,-8.15806
20.6862,7141.758,-1.10127,-2.20443,-8.97418
20.706,7141.778,-0.91923,-2.06881,-9.76892
20.7279,7141.798,-1.45801,-2.41395,-8.9754
20.7472,7141.818,-2.09331,-3.24717,-7.28514
20.7678,7141.838,-2.03895,-3.48602,-6.08051
20.7878,7141.858,-1.60279,-1.87761,-6.1923
20.8056,7141.878,-0.89602,-0.22889,-6.63579
20.8257,7141.898,0.16139,-0.11954,-5.82761
20.8484,7141.918,0.99217,-0.51844,-4.72073
20.8698,7141.938,1.77163,-0.33518,-3.95592
20.8899,7141.958,2.24749,-0.38649,-3.5387
20.9176,7141.978,2.17236,-0.25454,-2.65234
20.9277,7141.998,1.83455,-0.45552,-1.69022
20.9469,7142.018,1.63113,-0.38038,-1.79468
20.9666,7142.038,1.65557,0.64526,-2.77878
20.9847,7142.0579,1.66839,1.11257,-2.62362
21.0064,7142.0779,1.5676,0.70329,-1.17343
21.0278,7142.0979,1.48086,0.3215,-0.38358
21.0464,7142.1179,1.43565,0.4449,-0.1258
21.0715,7142.1379,1.33547,0.22437,0.31036
21.0878,7142.1579,1.19497,0.57074,0.68604
21.1074,7142.1779,1.11129,0.81752,1.08494
21.1306,7142.1979,1.09174,0.43757,1.31585
21.1521,7142.2179,0.9323,-0.0835,1.51071
21.1772,7142.2379,0.33243,-0.26493,1.86807
21.1917,7142.2579,-0.80194,-0.18918,2.32194
21.2095,7142.2779,-2.1489,-1.03034,2.47038
21.2236,7142.2979,-2.28329,-1.77132,2.08737
21.2519,7142.3179,-1.70114,-1.62227,2.44289
21.2702,7142.3379,-0.8221,-1.10365,2.91753
21.2863,7142.3579,-0.119,-0.1678,2.6121
21.3059,7142.3779,0.22492,0.30867,1.96397
21.3266,7142.3979,0.45522,0.53653,1.77949
21.3441,7142.4179,0.66108,0.72773,2.28895
21.3652,7142.4379,0.85106,0.878,3.16555
21.3897,7142.4578,1.00011,0.4113,3.86682
21.4071,7142.4779,1.06058,-0.01203,3.84483
21.4289,7142.4979,1.08135,-0.13237,3.6524
21.4544,7142.5179,1.05936,0.07838,3.42455
21.4692,7142.538,1.04531,2.20969,3.08064
21.4889,7142.558,0.73072,2.98976,3.41417
21.5145,7142.578,0.30922,2.5029,5.07939
21.5256,7142.598,0.45644,1.45649,6.05311
21.5457,7142.6181,1.18703,0.30867,6.463
21.5695,7142.6381,2.18763,0.2201,6.57662
21.5899,7142.6581,2.88707,2.21335,6.20093
21.6071,7142.6782,2.3605,3.28909,6.20399
21.6286,7142.6982,1.69894,2.23656,6.55279
21.6504,7142.7182,1.93595,2.26466,6.37259
21.6644,7142.7382,2.2029,3.44302,5.8338
21.6886,7142.7583,1.85349,3.57069,5.53876
21.7131,7142.7783,1.26583,3.3123,5.31762
21.7283,7142.7983,1.20719,2.90485,4.61207
21.7473,7142.8184,1.5059,2.70449,3.73793
21.7671,7142.8384,1.48025,2.66722,3.2419
21.7851,7142.8584,1.19131,2.66661,2.90654
21.8083,7142.8784,0.91581,2.74908,2.62432
21.8253,7142.8985,0.82051,2.38439,2.30239
21.8454,7142.9185,0.85655,2.55788,2.10692
21.868,7142.9385,0.46682,3.36178,2.02506
21.8855,7142.9586,-0.44153,3.89506,1.78132
21.9108,7142.9786,-0.91373,3.12904,1.79782
21.9281,7142.9986,-0.9064,1.31538,1.75628
21.9474,7143.0186,-0.74697,-0.39749,1.3299
22.0028,7143.0387,-0.78545,-0.94177,0.16986
22.0052,7143.0587,-0.86303,-1.35532,-1.29011
22.0067,7143.0787,-0.929,-1.202,-2.33713
22.0246,7143.0987,-1.08905,-0.4714,-2.74824
22.046,7143.1187,-1.46962,0.34227,-2.9767
22.0646,7143.1387,-1.92105,0.192,-3.77938
22.0856,7143.1587,-1.90639,0.10281,-4.99378
22.1103,7143.1787,-1.52643,0.59822,-6.14587
22.1274,7143.1987,-1.73901,0.23476,-6.61441
22.1474,7143.2187,-2.26741,-0.79394,-6.89602
22.1695,7143.2387,-2.51053,-1.1739,-7.2326
22.1989,7143.2587,-2.37065,0.20238,-7.33462
22.2271,7143.2786,-2.20816,1.63975,-7.16724
22.2404,7143.2986,-2.31384,1.35875,-7.05667
22.2516,7143.3186,-2.13424,1.13884,-7.15136
22.2672,7143.3386,-1.72252,0.68924,-7.3224
22.2996,7143.3587,-1.46412,0.40336,-7.33828
22.3101,7143.3787,-1.42625,-0.08656,-6.71887
22.3265,7143.3987,-1.2772,-0.4714,-5.26073
22.3485,7143.4188,-0.88014,-0.27226,-3.9883
22.3659,7143.4388,-0.51301,0.20788,-3.89545
22.3861,7143.4588,-0.24178,0.63243,-4.37498
22.4077,7143.4788,0.02517,0.55119,-5.00539
22.4364,7143.4989,0.59327,0.60128,-5.41284
22.4544,7143.5189,1.32509,0.69046,-5.27356
22.4769,7143.5389,1.88892,0.78393,-4.96568
22.489,7143.5589,1.99887,0.5799,-4.5002
22.5069,7143.579,1.96833,0.38442,-4.29495
22.529,7143.599,2.27071,0.91038,-4.23264
22.5541,7143.619,2.72825,1.23902,-4.05427
22.575,7143.6391,3.27741,1.33187,-3.41286
22.59,7143.6591,3.75572,1.28484,-2.84903
22.6071,7143.6791,4.15645,1.13151,-2.45197
22.6307,7143.6991,4.40018,0.75583,-1.55339
22.65,7143.7192,4.31344,0.88777,0.17903
22.6679,7143.7392,3.72457,0.96047,2.39036
22.6938,7143.7592,2.66044,0.53714,3.91447
22.7242,7143.7793,1.68855,-0.06518,3.81978
22.7323,7143.7993,1.00377,0.608,3.14661
22.7473,7143.8193,0.85839,0.75399,3.15088
22.7682,7143.8393,1.34525,0.71246,4.21257
22.7853,7143.8594,2.03675,0.77537,5.65543
22.8064,7143.8794,1.90724,1.55545,6.45444
22.8289,7143.8994,1.09357,2.28849,6.75132
22.8464,7143.9195,0.55173,2.53222,7.07447
22.8664,7143.9395,0.73866,2.65195,7.09219
22.8906,7143.9595,1.27988,2.93234,7.14289
22.9086,7143.9795,1.59143,3.33001,7.22047
22.9281,7143.9995,1.64091,3.45768,6.8008
22.9499,7144.0195,1.97871,2.38745,4.60841
22.9683,7144.0395,1.99276,2.78512,2.69274
22.9943,7144.0595,1.23101,4.30373,1.94259
23.0135,7144.0795,0.01173,5.14245,2.04094
23.0276,7144.0994,-0.86059,4.81319,1.63899
23.0458,7144.1194,-0.86975,5.31471,0.30792
23.0709,7144.1394,-0.80072,5.27073,-0.47155
23.0866,7144.1594,-1.10921,3.86391,-0.85028
23.1066,7144.1794,-1.27659,1.9464,-1.01338
23.1286,7144.1994,-0.99925,1.04232,-0.75926
23.1536,7144.2194,-0.49712,0.86029,-0.69207
23.1708,7144.2394,0.1284,1.50902,-1.34631
23.2018,7144.2594,0.04899,2.98976,-2.01276
23.2281,7144.2794,-0.83615,3.06062,-2.41898
23.2443,7144.2994,-1.1984,3.03252,-2.52405
23.2557,7144.3194,-0.951,2.93723,-2.22901
23.2778,7144.3394,-0.59364,2.40944,-1.67312
23.2939,7144.3595,-0.50934,1.97695,-1.55339
23.309,7144.3795,-0.47024,2.6153,-1.66518
23.3284,7144.3995,-0.50995,3.4363,-1.59432
23.3479,7144.4196,-0.78301,3.97692,-1.13006
23.3695,7144.4397,-1.19229,4.26403,-0.3677
23.3869,7144.4597,-1.32851,4.02518,0.11733
23.4072,7144.4798,-0.82577,3.98181,0.3464
23.4308,7144.4999,-0.10983,4.05694,0.78989
23.4489,7144.5199,-0.47086,3.4021,0.54616
23.4728,7144.54,-1.28025,3.80649,0.56876
23.4912,7144.56,-1.62967,4.03617,1.15641
23.5126,7144.5801,-1.37371,3.43447,0.98353
23.5394,7144.6002,-0.82149,2.69899,0.60602
23.557,7144.6202,-0.28454,1.57744,0.51378
23.5669,7144.6403,-0.2656,1.01606,0.45208
23.587,7144.6604,-0.08723,0.41008,0.40199
23.6089,7144.6804,0.70262,-0.5667,0.29814
23.6278,7144.7005,1.42405,-2.20259,-0.00423
23.6478,7144.7205,2.14365,-4.23005,-0.5699
23.67,7144.7406,2.58347,-6.32349,-1.15083
23.6878,7144.7607,2.39716,-7.57027,-1.30843
23.7078,7144.7807,1.78751,-7.25811,-1.13189
23.7296,7144.8008,0.9268,-5.78654,-0.94802
23.7485,7144.8208,0.04044,-4.53304,-0.93641
23.7726,7144.8409,-0.32058,-3.60758,-0.65297
23.7969,7144.861,-0.34929,-2.47015,-0.33655
23.8099,7144.881,-0.40549,-1.461,-0.28707
23.8331,7144.9011,-0.63273,-1.51659,-0.44161
23.8493,7144.9212,-0.52095,-2.50008,-0.9468
23.8688,7144.9412,0.02883,-2.94418,-1.33898
23.888,7144.9612,0.74293,-2.49642,-1.60592
23.9178,7144.9812,1.35136,-2.17755,-1.31821
23.9292,7145.0012,1.68855,-4.69248,-1.17282
23.948,7145.0212,1.74414,-5.82441,-1.70427
24.0072,7145.0412,1.78385,-5.36993,-1.90036
24.0099,7145.0612,1.62624,-4.46402,-1.48192
24.0113,7145.0812,1.14427,-4.33879,-0.73178
24.0303,7145.1012,0.51569,-3.5581,-0.31333
24.0486,7145.1212,-0.00721,-2.08897,-0.31639
24.0664,7145.1412,-0.20818,-1.49888,-0.29928
24.089,7145.1612,-0.06524,-1.85073,0.15703
24.1089,7145.1812,0.13573,-1.90571,0.95788
24.1273,7145.2012,0.17177,-2.10424,1.21383
24.1517,7145.2212,0.02578,-4.03458,0.49545
24.1688,7145.2412,0.02089,-4.27831,-1.30477
24.187,7145.2612,0.09725,-3.19464,-3.14408
24.2123,7145.2812,0.15345,-3.26733,-3.33406
24.2284,7145.3012,0.01845,-4.43347,-2.42937
24.2496,7145.3212,-0.03897,-4.70775,-1.95656
24.2728,7145.3411,0.31533,-4.02541,-2.27543
24.2926,7145.3611,1.08135,-3.0969,-2.10439
24.3065,7145.3811,2.3153,-2.76703,-1.41228
24.3296,7145.4011,3.01657,-3.16348,-1.17465
24.3487,7145.4211,3.37393,-3.03459,-1.81484
24.368,7145.4411,3.4057,-2.56789,-2.1386
24.3899,7145.4611,3.7038,-2.42312,-1.90586
24.4109,7145.4811,4.6091,-2.79635,-1.79896
24.4306,7145.5011,5.73431,-3.61369,-2.08851
24.4526,7145.5211,6.57364,-4.09566,-2.90951
24.4701,7145.5411,6.85769,-4.93316,-3.72318
24.4905,7145.5611,6.94077,-5.58495,-4.44522
24.5121,7145.5811,6.92917,-5.86778,-5.14772
24.5379,7145.6011,6.97071,-5.86962,-5.6022
24.5587,7145.6211,7.32501,-5.27708,-5.61137
24.5761,7145.6411,7.61578,-4.26671,-5.56189
24.5877,7145.6611,7.74834,-3.65706,-5.4446
24.608,7145.6811,7.76116,-3.58254,-4.92903
24.6298,7145.7011,7.53576,-2.53979,-4.13796
24.655,7145.7211,6.94444,-0.98147,-3.79099
24.6728,7145.741,6.40138,-0.3419,-3.9376
24.6926,7145.761,4.96218,-0.76706,-4.74944
24.7091,7145.781,3.95486,0.49987,-5.19659
24.7309,7145.801,3.96097,1.67335,-5.37863
24.7517,7145.821,3.749,2.62507,-5.11412
24.7698,7145.841,2.74902,3.58597,-4.58389
24.7987,7145.861,1.86876,3.2787,-4.3255
24.829,7145.881,1.92313,2.88836,-4.38414
24.8382,7145.901,1.05386,3.37888,-5.03471
24.8574,7145.921,-1.2326,4.49921,-5.39329
24.8734,7145.941,-2.70479,5.6177,-5.45987
24.8888,7145.961,-2.98762,6.26156,-5.77813
24.9093,7145.981,-2.91676,6.23895,-5.95956
24.9319,7146.001,-2.28268,6.18764,-5.43422
24.9495,7146.021,-1.57652,5.71483,-5.26501
24.9706,7146.041,-1.24299,5.51813,-4.86184
24.9917,7146.061,-1.08172,5.57739,-4.13979
25.0087,7146.0811,-1.02369,5.07464,-4.01334
25.0298,7146.1011,-1.06889,3.84253,-4.59061
25.0656,7146.1211,-1.17396,2.19136,-5.33648
25.0828,7146.1412,-1.17213,0.743,-5.83861
25.0904,7146.1612,-1.48428,0.11931,-6.26927
25.1109,7146.1812,-2.56246,0.61044,-6.22223
25.1288,7146.2012,-3.49464,1.11624,-5.7592
25.149,7146.2213,-3.2674,1.10463,-5.52096
25.1767,7146.2413,-2.74572,0.8218,-5.81417
25.1986,7146.2613,-2.39386,0.4058,-5.86365
25.2385,7146.2813,-2.10187,0.38137,-5.73171
25.2561,7146.3014,-1.71152,0.95008,-5.98766
25.2686,7146.3214,-1.12143,1.22008,-6.10922
25.2739,7146.3414,-0.80866,1.42534,-5.68101
25.2918,7146.3615,-1.20756,1.55789,-5.00966
25.3074,7146.3815,-1.82453,2.50901,-4.90032
25.3318,7146.4015,-2.12874,3.84803,-5.42627
25.3514,7146.4215,-1.77627,4.32511,-5.67612
25.3705,7146.4416,-0.88747,4.32084,-5.52951
25.3915,7146.4616,-0.47819,4.465,-5.91619
25.41,7146.4816,-0.60525,4.96347,-5.80501
25.4274,7146.5017,-0.7543,4.80586,-4.64376
25.4533,7146.5217,-0.66878,4.42163,-4.163
25.4719,7146.5417,-0.72681,4.22982,-4.13124
25.4894,7146.5617,-1.02186,4.48149,-4.16545
25.5094,7146.5818,-1.05179,4.32817,-3.52832
25.5321,7146.6018,-0.98276,3.28114,-2.39089
25.5494,7146.6218,-0.82394,0.52064,-1.46909
25.5841,7146.6418,-0.03348,-1.41763,-0.58517
25.592,7146.6618,0.62382,-1.92037,1.02263
25.6097,7146.6818,0.85839,-1.61189,2.54185
25.6268,7146.7018,0.84434,-1.26369,3.71593
25.6544,7146.7218,0.55295,-1.45551,3.9218
25.6697,7146.7418,1.01782,-2.41029,4.20402
25.6897,7146.7618,1.8205,-3.32353,4.81916
25.7099,7146.7818,2.58164,-4.0248,5.46118
25.7309,7146.8018,2.58836,-3.87087,5.99507
25.7502,7146.8218,1.99826,-3.24412,6.67497
25.7726,7146.8418,1.8657,-3.45792,6.65664
25.7972,7146.8618,1.7643,-2.64425,6.11786
25.8103,7146.8818,1.36052,-1.1739,5.87962
25.8456,7146.9018,0.9433,-0.18735,6.08182
25.8536,7146.9218,0.76126,-0.10488,6.43612
25.8711,7146.9418,0.45644,-0.47079,6.70673
25.8947,7146.9617,-0.09395,-0.30891,6.54485
25.9123,7146.9817,-0.52767,0.41313,6.28279
25.9293,7147.0017,-0.61746,0.38442,6.10747
26.0021,7147.0217,-0.42199,-0.35534,5.92177
26.0047,7147.0417,-0.32608,-0.76217,5.99385
26.0064,7147.0617,-0.55882,-0.90328,6.0977
26.0125,7147.0817,-0.77568,-1.49949,5.91627
26.0272,7147.1017,-0.57592,-2.35164,6.13985
26.0471,7147.1217,-0.03714,-3.48969,6.49171
26.0701,7147.1417,-0.0463,-3.54222,7.12151
26.0891,7147.1617,-0.39144,-2.52513,7.62303
26.1096,7147.1817,-0.45009,-2.43289,7.77269
26.1301,7147.2017,-0.42932,-1.98268,7.68106
26.1482,7147.2217,-0.46536,-1.71634,7.59188
26.1678,7147.2417,-0.33463,-2.50192,7.21192
26.1893,7147.2617,-0.1135,-3.27161,6.49232
26.2058,7147.2817,-0.34807,-3.13355,6.07998
26.2319,7147.3017,-0.98826,-2.83973,5.9236
26.2507,7147.3217,-1.14586,-2.82995,5.52898
26.2671,7147.3417,-1.2998,-2.32232,5.10932
26.287,7147.3616,-2.09331,-1.74689,4.73303
26.3091,7147.3816,-2.56979,-1.56424,4.372
26.3265,7147.4016,-2.70296,-2.02483,3.73243
26.3493,7147.4216,-2.70174,-2.32477,3.25412
26.37,7147.4416,-3.25457,-1.81836,2.89127
26.3905,7147.4616,-3.73104,-1.10609,2.84545
26.4073,7147.4816,-3.77136,-0.79577,2.88699
26.429,7147.5016,-3.76586,-1.13358,2.51131
26.4481,7147.5216,-4.0212,-1.71329,1.4032
26.4678,7147.5416,-4.60275,-2.03949,0.6329
26.4898,7147.5616,-4.71331,-1.58623,0.51378
26.507,7147.5816,-4.122,-0.87335,0.93283
26.527,7147.6016,-3.4586,-1.53919,1.077
26.5504,7147.6216,-3.02855,-2.32477,0.37878
26.5676,7147.6416,-3.0707,-2.89043,-0.57173
26.5875,7147.6616,-3.46165,-2.90631,-0.98528
26.6105,7147.6816,-4.04747,-2.54712,-1.09707
26.628,7147.7016,-4.52761,-1.73834,-0.91687
26.6477,7147.7216,-5.23622,-1.27774,-0.4129
26.6714,7147.7416,-5.80493,-1.84218,-0.17467
26.6886,7147.7616,-5.3419,-2.63814,-0.58761
26.7078,7147.7815,-4.40361,-2.66929,-0.36159
26.7298,7147.8015,-4.48607,-1.49643,0.34885
26.748,7147.8215,-5.59907,0.10892,0.6048
26.7701,7147.8415,-6.03889,0.07288,0.89924
26.7921,7147.8615,-5.23499,-1.7475,1.10998
26.8076,7147.8815,-3.90514,-2.45549,0.87419
26.8274,7147.9015,-3.41278,-1.35777,0.24194
26.8515,7147.9215,-2.87033,-0.32602,-0.20215
26.8705,7147.9415,-2.32178,0.07593,1.19367
26.8889,7147.9615,-2.97052,1.33309,3.0226
26.9096,7147.9815,-4.60947,1.87188,4.43492
26.9273,7148.0015,-5.56486,1.53468,5.1643
26.9477,7148.0215,-5.53065,2.30804,4.91873
26.9703,7148.0415,-5.33579,2.92073,4.48257
26.9869,7148.0615,-5.26004,3.97692,4.26877
27.0077,7148.0815,-5.62717,4.31412,4.45325
27.0309,7148.1015,-5.8764,3.37888,4.22662
27.048,7148.1215,-5.17452,3.0765,4.07146
27.0688,7148.1415,-4.82144,3.6104,4.15881
27.0901,7148.1615,-4.74325,3.86819,4.05985
27.1075,7148.1815,-4.57526,3.78083,3.94562
27.1294,7148.2014,-4.50745,4.92559,3.79046
27.1511,7148.2214,-4.52456,6.02943,3.52535
27.1691,7148.2414,-4.56549,6.30309,3.95051
27.189,7148.2614,-4.40727,6.34158,4.37567
27.2099,7148.2814,-3.93507,6.59081,4.41293
27.2277,7148.3014,-3.3517,6.93962,4.83993
27.2511,7148.3214,-2.85384,7.46863,5.81304
27.2741,7148.3414,-2.47266,7.40815,6.97307
27.2878,7148.3614,-1.82026,6.40389,7.23085
27.3082,7148.3814,-0.38595,4.00991,6.39886
27.3287,7148.4014,0.78631,1.77414,6.26141
27.352,7148.4214,0.81624,1.19137,7.31271
27.3734,7148.4414,0.77653,1.14128,8.08607
27.3957,7148.4614,1.48086,0.14435,7.61692
27.4178,7148.4814,1.86693,-0.38466,6.2834
27.43,7148.5014,0.84434,0.55058,5.53631
27.4483,7148.5214,-0.92351,2.18464,5.68353
27.4671,7148.5414,-2.18189,3.06673,6.2217
27.4888,7148.5614,-2.59911,2.7222,6.37503
27.5113,7148.5813,-2.61194,1.76559,5.99385
27.5308,7148.6013,-2.62782,0.71673,5.41109
27.5475,7148.6213,-2.60155,-0.06456,5.54181
27.5705,7148.6413,-2.77015,-0.77928,5.7831
27.5882,7148.6613,-3.13912,-1.43168,5.83197
27.6078,7148.6813,-2.90943,-2.50131,6.15023
27.6373,7148.7013,-2.26619,-3.83788,6.47949
27.6576,7148.7213,-2.31689,-5.61794,6.86983
27.6728,7148.7413,-2.83002,-5.6552,6.25897
27.6932,7148.7613,-3.02488,-3.67967,5.35489
27.7083,7148.7813,-3.77808,-2.28811,4.66644
27.7288,7148.8013,-4.19041,-2.11524,3.35247
27.7537,7148.8214,-4.11955,-2.62165,1.9597
27.7727,7148.8414,-4.03892,-2.68334,0.47591
27.7904,7148.8614,-3.79518,-2.01628,-0.72567
27.811,7148.8814,-4.05053,-0.79333,-1.32248
27.8317,7148.9015,-4.68888,-0.37855,-1.38784
27.8481,7148.9215,-4.8587,-1.25697,-1.41655
27.8746,7148.9415,-4.7066,-2.22703,-1.48253
27.8914,7148.9616,-4.7408,-2.44755,-1.80507
27.9109,7148.9816,-5.22644,-2.66502,-2.0433
27.9337,7149.0016,-5.57708,-2.40968,-1.87959
27.9503,7149.0216,-5.48667,-2.71816,-1.34631
27.9685,7149.0417,-4.63696,-2.79941,-1.76475
27.9916,7149.0617,-3.96562,-2.32293,-2.04452
28.0125,7149.0817,-3.69256,-1.86662,-1.53751
28.039,7149.1018,-3.36208,-1.76766,-0.86678
28.0558,7149.1218,-3.66324,-1.92343,-1.04759
28.0713,7149.1418,-4.30404,-1.86234,-2.0543
28.0933,7149.1618,-4.62779,-1.65648,-2.91867
28.1567,7149.1819,-4.70171,-0.98697,-2.72747
28.1598,7149.2019,-4.53372,-0.59968,-2.47274
28.1607,7149.2219,-4.83488,-1.14213,-2.67066
28.1717,7149.242,-5.1116,-0.92711,-3.02252
28.1879,7149.262,-5.18796,0.02035,-3.03107
28.2061,7149.282,-4.99187,0.73384,-2.23023
28.232,7149.302,-4.84832,1.86272,-1.19787
28.2551,7149.3221,-4.64612,3.33551,-0.65847
28.2778,7149.3421,-4.30953,4.51326,-0.24797
28.2946,7149.3621,-3.92347,4.93903,0.50095
28.3076,7149.3822,-4.25028,5.92802,1.01102
28.3277,7149.4022,-5.43902,8.74472,1.29752
28.3491,7149.4221,-6.22765,9.97439,0.94016
28.3671,7149.4421,-6.77315,8.90172,-0.12213
28.3878,7149.4621,-6.91121,6.47475,-0.37747
28.4114,7149.4821,-6.72062,4.74111,0.22606
28.4296,7149.5021,-6.55752,3.96348,1.20161
28.4552,7149.5221,-6.30218,4.09115,2.00001
28.4733,7149.5421,-5.84525,4.48821,1.82897
28.4899,7149.5621,-5.20079,4.70874,1.01652
28.509,7149.5821,-4.44453,3.9421,0.8919
28.531,7149.6021,-4.0096,2.3569,1.12526
28.5501,7149.6221,-3.16905,1.17977,1.16802
28.5734,7149.6421,-1.90028,1.15655,0.8412
28.6023,7149.6621,-1.12082,0.90854,0.68116
28.6139,7149.6821,-1.05668,0.2317,0.70009
28.6289,7149.7021,-0.96321,-0.40237,0.50095
28.6548,7149.7221,-0.50751,-0.98208,0.1662
28.6707,7149.7421,-0.0909,-1.2643,-0.23514
28.6893,7149.7621,0.45827,-1.79331,-0.71039
28.7146,7149.7821,0.43811,-0.78111,-0.1429
28.7365,7149.8021,-0.2259,-0.44941,1.03607
28.7523,7149.822,-0.73231,-0.36755,1.5608
28.7705,7149.842,-0.62846,-0.62167,1.43069
28.7962,7149.862,-0.15259,-0.80127,1.08005
28.8146,7149.882,0.14245,-0.75423,0.62984
28.8409,7149.902,0.13696,-0.69009,0.02081
28.8561,7149.922,0.22187,-0.49461,0.07335
28.8699,7149.942,0.22859,-0.43719,0.31708
28.892,7149.962,0.27562,-0.61495,0.5205
28.9117,7149.982,0.40207,-0.16291,0.49912
28.9337,7150.002,0.47721,0.43634,0.46919
28.9532,7150.022,0.51203,0.53347,0.72392
28.9739,7150.042,0.8254,0.24698,1.34211
28.9904,7150.062,1.27744,-0.18857,2.23214
29.0172,7150.082,1.3147,-0.14398,2.90959
29.0351,7150.102,1.09296,-0.07739,3.13256
29.0487,7150.122,1.06058,0.0063,3.05803
29.0717,7150.142,1.36724,-0.08839,3.23091
29.0905,7150.162,1.57738,-0.9546,4.10811
29.1082,7150.182,1.58593,-1.54408,5.04273
29.1311,7150.202,1.10396,-1.27713,6.01768
29.1518,7150.222,0.18521,-1.83485,6.70429
29.1734,7150.2419,-0.38289,-2.54773,6.76904
29.2117,7150.2619,-0.42199,-2.40357,6.41413
29.2301,7150.2819,-0.23079,-1.25758,5.26692
29.243,7150.3019,-0.38778,-0.34068,3.35858
29.2559,7150.3219,-0.55882,0.75399,1.3641
29.2694,7150.3419,-0.37678,1.83706,0.2169
29.2971,7150.3619,0.24997,2.34713,-0.76476
29.3131,7150.3819,1.23957,2.54444,-2.04636
29.3311,7150.4019,2.04408,2.35874,-3.09766
29.3524,7150.4219,2.15892,2.00993,-3.86368
29.3706,7150.4419,2.00437,1.81079,-4.50937
29.3897,7150.4619,2.08989,1.32821,-4.78548
29.4075,7150.4819,2.36539,0.90488,-4.71217
29.4303,7150.5019,2.54376,0.38931,-4.54235
29.451,7150.5219,2.49306,-0.22705,-4.38475
29.4761,7150.5419,2.24811,-0.46285,-4.15567
29.4962,7150.5619,2.07767,-0.235,-3.87773
29.5082,7150.5819,1.94145,-0.24599,-3.4935
29.5306,7150.6019,1.49185,-0.494,-3.12209
29.5527,7150.6219,0.62076,-0.55265,-2.78184
29.5688,7150.6419,-0.53194,-0.82998,-2.43975
29.5935,7150.6618,-1.04018,-0.57708,-2.1838
29.619,7150.6818,-0.96138,-0.3816,-1.89303
29.6297,7150.7018,-0.63396,-0.58685,-1.64563
29.6521,7150.7218,-0.4226,-0.74629,-1.75497
29.6745,7150.7418,-0.45497,-0.40482,-1.77697
29.6875,7150.7618,-0.68832,-0.10305,-1.52957
29.708,7150.7818,-1.01697,-0.39138,-0.90221
29.7368,7150.8018,-1.5362,-1.07127,-0.03966
29.7522,7150.8218,-2.12447,-0.95154,0.16925
29.7739,7150.8418,-2.35904,-0.30341,-0.0922
29.7893,7150.8618,-2.01818,0.46994,-0.29806
29.8076,7150.8818,-1.40304,0.95008,-0.37014
29.8281,7150.9018,-0.97971,0.9904,-0.42084
29.8496,7150.9218,-0.70115,0.58356,-0.53263
29.8709,7150.9418,-0.32119,0.05516,-0.42512
29.8958,7150.9618,0.03738,-0.13237,-0.171
29.9113,7150.9818,0.13573,-0.01753,0.01287
29.9311,7151.0018,0.09297,0.18345,0.06357
29.9553,7151.0218,0.05266,0.21094,0.13871
29.9717,7151.0418,0.12596,0.22315,0.14726
29.9883,7151.0617,0.24569,0.07777,0.0935
30.0341,7151.0817,0.38191,-0.21239,0.11183
30.0388,7151.1017,0.50225,-0.49095,0.2505
30.0519,7151.1217,0.67513,-0.36755,0.41176
30.0681,7151.1417,0.76187,-0.00959,0.59991
30.0888,7151.1617,0.74721,0.23048,0.88274
30.1071,7151.1817,0.64214,0.33983,1.05745
30.1292,7151.2017,0.55173,0.16207,1.08188
30.1525,7151.2217,0.6733,-0.15864,0.86991
30.1716,7151.2417,1.01721,-0.3083,0.60969
30.1916,7151.2617,1.03798,-0.43108,0.65611
30.2193,7151.2817,0.62382,-0.34556,0.81616
30.2384,7151.3017,-0.39389,-0.16047,0.9084
30.2502,7151.3217,-1.30102,-0.26249,1.0379
30.2912,7151.3417,-1.79949,-0.41826,0.88519
30.3002,7151.3617,-1.88379,-0.31563,0.37572
30.3105,7151.3817,-1.88073,0.03134,-0.19971
30.3287,7151.4017,-2.01879,0.39969,-0.45261
30.3482,7151.4217,-2.14585,0.55791,-0.66275
30.3675,7151.4417,-1.72802,0.19994,-0.90098
30.3894,7151.4617,-0.73964,-0.12687,-0.86861
30.4126,7151.4817,0.08442,-0.37733,-0.52164
30.4286,7151.5016,0.2799,-0.91428,0.01837
30.4547,7151.5216,0.08931,-1.48177,0.27127
30.4789,7151.5416,-0.04325,-1.41152,0.06846
30.4922,7151.5616,-0.23751,-0.9943,-0.33471
30.5109,7151.5816,-0.42748,-0.45979,-0.62854
30.5293,7151.6016,-0.45253,0.23048,-0.68963
30.5524,7151.6216,-0.34441,0.2989,-0.51675
30.5714,7151.6416,-0.21612,0.01363,-0.42879
30.5887,7151.6616,-0.21429,-0.20079,-0.45566
30.6096,7151.6816,-0.35662,-0.18185,-0.42818
30.6327,7151.7016,-0.24972,-0.07067,-0.32555
30.6518,7151.7216,0.06854,0.06188,-0.15939
30.6715,7151.7416,0.22492,0.24026,-0.03539
30.6913,7151.7616,0.25913,0.18345,-0.02928
30.7104,7151.7816,0.17666,0.05333,-0.13313
30.7332,7151.8016,0.03128,0.04173,-0.13924
30.7537,7151.8216,-0.05547,0.18284,-0.12824
30.7746,7151.8416,-0.03348,0.27202,-0.08304
30.7923,7151.8616,0.00684,0.34166,-0.04455
30.8135,7151.8816,0.03922,0.25247,0.06174
30.8283,7151.9015,0.06304,0.12297,0.11061
30.85,7151.9215,0.00379,-0.00653,0.06479
30.8705,7151.9415,-0.07501,0.06983,0.00371
30.8919,7151.9615,-0.18619,0.04356,-0.01706
30.9079,7151.9815,-0.05974,-0.03341,-0.04638
30.9314,7152.0015,0.15956,-0.10977,-0.09037
30.9499,7152.0215,0.24325,-0.21545,-0.14046
30.9715,7152.0415,0.2799,-0.23377,-0.21071
30.9935,7152.0615,0.13818,-0.1733,-0.27607
31.0106,7152.0815,0.01661,-0.1397,-0.23514
31.0309,7152.1015,0.04166,-0.07495,-0.21132
31.0557,7152.1215,0.00684,-0.10183,-0.23209
31.0811,7152.1415,-0.14221,-0.18429,-0.1881
31.0892,7152.1615,-0.15931,-0.23805,-0.11114
31.1103,7152.1815,-0.05913,-0.27165,-0.02745
31.128,7152.2015,0.10641,-0.35411,0.07762
31.153,7152.2215,0.308,-0.32052,0.14237
31.1732,7152.2415,0.35137,-0.29669,0.19124
31.1945,7152.2615,0.4149,-0.24233,0.19307
31.2141,7152.2814,0.39352,0.05333,0.20163
31.2317,7152.3014,0.23714,0.0625,0.25416
31.2523,7152.3214,0.04349,-0.03769,0.24011
31.278,7152.3414,-0.04325,-0.21362,0.27188
31.3001,7152.3614,-0.08296,-0.38038,0.23889
31.3106,7152.3814,-0.08479,-0.23072,0.20529
31.331,7152.4014,-0.15626,-0.22461,0.21873
31.3542,7152.4214,-0.16359,-0.19407,0.16803
31.3689,7152.4414,-0.08357,-0.11893,0.15581
31.3872,7152.4614,0.03494,-0.15436,0.1888
31.4096,7152.4814,0.09481,-0.20445,0.24989
31.4287,7152.5014,0.07159,-0.32357,0.41421
31.4502,7152.5214,-0.06158,-0.4207,0.52539
31.4704,7152.5414,-0.02615,-0.52638,0.59319
31.4914,7152.5614,0.01845,-0.42742,0.34701
31.5137,7152.5814,-0.09762,0.15168,0.1326
31.5313,7152.6014,-0.29554,0.50476,0.08556
31.5486,7152.6214,-0.3835,0.75949,0.16009
31.568,7152.6414,-0.42687,0.80103,0.19307
31.5959,7152.6614,-0.41954,0.71429,0.22056
31.6103,7152.6814,-0.32669,0.43573,0.24439
31.6274,7152.7013,-0.18436,0.08265,0.20651
31.6506,7152.7213,-0.37312,-0.15375,0.14176
31.6669,7152.7413,-0.5973,-0.12626,0.18391
31.69,7152.7613,-0.59364,-0.04868,0.09228
31.7122,7152.7813,-0.42443,0.05333,-0.09159
31.731,7152.8013,-0.26622,0.06616,-0.30356
31.7476,7152.8213,-0.09578,0.18528,-0.55523
31.7715,7152.8413,0.02456,0.34227,-0.6542
31.7876,7152.8613,0.0441,0.31845,-0.61938
31.8102,7152.8813,0.16689,0.41374,-0.53202
31.8308,7152.9013,0.3251,0.36426,-0.43001
31.8579,7152.9213,0.49065,0.32028,-0.30173
31.8683,7152.9413,0.64031,0.26225,-0.14412
31.8919,7152.9613,0.80769,0.23659,0.00982
31.913,7152.9813,1.01477,0.20116,0.16742
31.9501,7153.0013,1.00194,0.15351,0.26271
31.9518,7153.0213,0.86266,0.16207,0.37695
31.9676,7153.0413,0.69162,0.20971,0.36473
32.0071,7153.0613,0.59266,0.29279,0.26088
32.0085,7153.0813,0.5108,0.39603,0.17231
32.0284,7153.1013,0.24813,0.22682,0.12221
32.0473,7153.1212,-0.00721,-0.03402,0.05258
32.0715,7153.1412,-0.20146,-0.24721,-0.11786
32.0879,7153.1612,-0.12694,-0.20384,-0.17955
32.1103,7153.1812,0.05999,-0.09144,-0.14718
32.1321,7153.2012,0.3025,-0.06518,-0.02256
32.1486,7153.2212,0.32388,-0.06029,-0.0134
32.168,7153.2412,0.44727,0.06555,-0.02684
32.191,7153.2612,0.58716,0.15535,-0.00179
32.2158,7153.2812,0.4766,0.17001,0.08923
32.2293,7153.3012,0.15406,-0.00531,0.2059
32.2508,7153.3212,-0.14954,-0.16597,0.20224
32.2729,7153.3412,-0.39755,-0.3138,-0.03478
32.2906,7153.3612,-0.63029,-0.2014,-0.32372
32.3113,7153.3812,-0.6193,0.06799,-0.50209
32.3269,7153.4012,-0.34318,0.27874,-0.45444
32.3509,7153.4212,-0.04936,0.41069,-0.20277
32.3816,7153.4412,0.20049,0.462,0.17475
32.3944,7153.4612,0.36847,0.45467,0.30792
32.4096,7153.4812,0.36053,0.57379,0.17353
32.4322,7153.5012,0.12352,0.7937,-0.07693
32.4491,7153.5211,-0.05425,0.73811,-0.33105
32.4676,7153.5411,-0.03836,0.28852,-0.39763
32.4895,7153.5611,0.02883,-0.10671,-0.31578
32.508,7153.5811,0.02333,-0.4769,-0.16001
32.5293,7153.6011,0.08748,-0.46651,-0.05433
32.5537,7153.6211,0.16017,-0.35778,-0.08426
32.5717,7153.6411,0.33976,-0.31135,-0.11663
32.5991,7153.6611,0.7521,-0.34495,-0.05677
32.6174,7153.6811,1.04287,-0.4152,0.06907
32.6321,7153.7011,1.00805,-0.27287,0.06724
32.6493,7153.7211,0.69406,-0.03708,-0.07082
32.6724,7153.7411,0.41979,0.13885,-0.16734
32.6911,7153.7612,0.25913,0.1303,-0.18872
32.7088,7153.7812,0.12474,0.03867,-0.19666
32.7376,7153.8012,0.03616,-0.01325,-0.24003
32.7549,7153.8212,-0.02065,-0.05418,-0.27607
32.7718,7153.8413,-0.01882,-0.08595,-0.26385
32.7967,7153.8613,-0.07868,-0.01875,-0.20338
32.8135,7153.8813,-0.20574,0.09609,-0.13068
32.829,7153.9014,-0.12511,0.09059,-0.12274
32.852,7153.9214,0.06548,-0.03524,-0.02195
32.8767,7153.9414,0.22064,-0.12321,0.09839
32.9002,7153.9614,0.18888,-0.09083,0.05685
32.9212,7153.9815,-0.01759,-0.10671,-0.04089
32.9366,7154.0015,-0.15626,-0.22339,-0.09037
32.9502,7154.0215,-0.24239,-0.36022,-0.09892
32.9718,7154.0416,-0.23995,-0.37244,-0.09403
32.9888,7154.0616,-0.20941,-0.27165,-0.06288
33.0146,7154.0816,-0.15137,-0.12321,-0.02806
33.04,7154.1016,-0.08357,0.12786,0.04952
33.0533,7154.1217,-0.06585,0.04845,-0.02867
33.0737,7154.1417,-0.02981,0.24698,-0.12702
33.0926,7154.1617,-0.07807,-0.05907,-0.08914
33.1118,7154.1818,-0.02737,-0.10427,-0.14657
33.1337,7154.2018,0.20354,0.01973,-0.09953
33.1545,7154.2218,0.28234,-0.0609,-0.06166
33.1713,7154.2418,0.27623,-0.01325,-0.00729
33.1914,7154.2619,0.25302,0.05455,0.11061
33.2257,7154.2819,0.20659,0.04295,0.12649
33.2346,7154.3019,-0.00782,-0.10305,0.06235
33.2487,7154.322,-0.09273,-0.15497,0.02081
33.2763,7154.3419,-0.07868,-0.07861,-0.05433
33.2887,7154.3619,-0.06891,-0.01631,-0.10503
33.3105,7154.3819,-0.04569,-0.04013,-0.13313
33.3298,7154.4019,-0.07196,-0.11527,-0.10625
33.3483,7154.4219,-0.05363,-0.20506,-0.04577
33.3689,7154.4419,0.02517,-0.1788,-0.02623
33.4071,7154.4619,0.02395,-0.12932,-0.10075
33.4139,7154.4819,-0.05791,-0.06334,-0.19482
33.433,7154.5019,-0.04203,-0.05357,-0.19544
33.4526,7154.5219,-0.02248,-0.10733,-0.13496
33.4681,7154.5419,-0.02065,-0.1226,-0.03539
33.4894,7154.5619,0.00806,-0.05113,0.07579
33.5167,7154.5819,0.12352,-0.05296,0.12588
33.5312,7154.6019,0.22675,-0.00287,0.15093
33.5538,7154.6219,0.18888,-0.02608,0.17964
33.5762,7154.6419,0.12046,-0.0499,0.15764
33.5959,7154.6619,0.09847,-0.0719,0.05746
33.6114,7154.6819,0.12413,0.05761,0.02753
33.6339,7154.7019,0.1284,0.14496,0.02325
33.6557,7154.7219,0.13024,0.04722,0.01043
33.6708,7154.7418,0.12291,-0.01631,0.00676
33.69,7154.7618,0.12535,0.0796,-0.00423
33.7108,7154.7818,0.09419,0.18528,0.01165
33.7287,7154.8018,0.11863,0.18284,0.00982
33.7508,7154.8218,0.13573,0.12725,0.01287
33.7682,7154.8418,0.08503,-0.00348,0.01592
33.79,7154.8618,0.09725,0.00324,0.0092
33.8124,7154.8818,0.05388,0.11503,-0.00851
33.8404,7154.9018,-0.01148,0.19322,0.01898
33.8534,7154.9218,0.01051,0.10281,0.04647
33.8816,7154.9418,0.09969,0.00996,0.08068
33.8899,7154.9618,0.16872,-0.00103,0.11
33.9144,7154.9818,0.1168,0.04295,0.07273
33.9305,7155.0018,0.01173,0.16146,0.0092
33.9513,7155.0218,-0.04325,0.11808,-0.00912
34.0015,7155.0418,-0.01759,0.0124,0.01531
34.0034,7155.0618,0.01967,-0.02852,-0.01584
34.0073,7155.0818,0.02028,0.03195,-0.06471
34.0273,7155.1018,-0.01576,0.10403,-0.06349
34.0494,7155.1218,-0.01943,0.07655,-0.04638
34.0683,7155.1418,-0.05608,0.02218,-0.05555
34.0877,7155.1617,-0.01332,-0.0383,-0.10381
34.1106,7155.1817,0.00318,-0.01325,-0.1484
34.1291,7155.2017,-0.05486,0.03989,-0.1093
34.1508,7155.2217,-0.05302,0.03562,-0.05494
34.1724,7155.2417,-0.03531,-0.03158,-0.04028
34.1942,7155.2617,-0.0011,-0.02303,-0.02439
34.2122,7155.2817,0.04044,-0.02425,-0.01156
34.2307,7155.3017,0.04838,-0.03158,0.02264
34.2587,7155.3217,0.01051,-0.01264,0.02936
34.2679,7155.3417,-0.06035,-0.00226,-0.02867
34.289,7155.3617,-0.0573,-0.02669,-0.0641
34.3097,7155.3818,-0.04203,-0.0157,-0.04333
34.3285,7155.4018,-0.01393,-0.04868,-0.01584
34.3509,7155.4218,-0.02553,-0.09144,-0.02928
34.3683,7155.4418,-0.02431,0.05394,-0.02928
34.3933,7155.4619,-0.02492,0.03806,-0.01095
34.4167,7155.4819,-0.02065,-0.01814,0.00126
34.4371,7155.5019,-0.00049,-0.05296,4e-05
34.4555,7155.522,0.03738,0.05455,-0.05127
34.4725,7155.542,0.01356,0.13458,-0.03111
34.4905,7155.562,-0.00782,0.0625,-0.01401
34.5104,7155.582,0.01356,0.0686,0.01592
34.5393,7155.6021,0.05082,-0.02119,0.03425
34.5576,7155.6221,0.05754,-0.05846,0.02936
34.5792,7155.6421,0.04899,-0.01142,0.0312
34.5933,7155.6622,0.03494,0.05272,0.04525
34.6102,7155.6822,0.01417,0.0344,0.04708
34.63,7155.7022,-0.03287,-0.04929,0.01959
34.6537,7155.7222,-0.04814,-0.05479,0.00859
34.674,7155.7423,-0.02981,0.04783,0.00432
34.6944,7155.7623,-0.03042,0.06799,4e-05
34.7189,7155.7824,0.02456,0.01973,-0.0079
34.7376,7155.8024,0.05571,-0.07861,-0.0189
34.7566,7155.8225,0.05327,-0.08533,-0.03172
34.7742,7155.8425,0.01356,0.01057,-0.04028
34.7904,7155.8626,-0.00171,0.02768,-0.03417
34.8109,7155.8827,0.02456,0.06127,-0.02073
34.837,7155.9027,0.03189,-0.01203,-0.02012
34.8525,7155.9228,0.02822,-0.02608,-0.03539
34.8728,7155.9429,-0.00354,-0.03402,-0.047
34.8942,7155.9629,-0.0463,-0.0383,-0.04638
34.912,7155.9829,-0.01454,-0.01142,-0.0586
34.9321,7156.0029,-0.00599,0.00507,-0.02561
34.9601,7156.023,0.016,0.03501,0.04891
34.9755,7156.043,0.06548,0.01607,0.06174
34.9918,7156.063,0.13512,0.03928,0.07518
35.0184,7156.0831,0.2011,-0.03952,0.09045
35.0341,7156.1031,0.25791,-0.11527,0.08556
35.0541,7156.1231,0.27379,-0.07556,0.08129
35.0756,7156.1431,0.20049,-0.01264,0.06296
35.0917,7156.1632,0.15039,0.08388,0.06846
35.1111,7156.1832,0.1284,0.1413,0.11427
35.1328,7156.2032,0.03738,0.28118,0.11916
35.1565,7156.2233,-0.06891,0.39053,0.09411
35.1754,7156.2433,-0.05241,0.3441,0.11244
35.202,7156.2633,-0.00965,0.12053,0.12588
35.2219,7156.2833,0.01112,-0.02975,0.04891
35.2337,7156.3034,-0.05302,-0.02608,0.0373
35.261,7156.3234,-0.11961,-0.01753,0.08923
35.2769,7156.3434,-0.07868,0.00385,0.05441
35.2947,7156.3635,-0.04814,0.05761,0.02203
35.3126,7156.3834,-0.04997,0.03134,0.07945
35.3298,7156.4034,0.06487,-0.01692,0.08923
35.3495,7156.4234,0.07404,0.00568,0.08373
35.3735,7156.4434,-0.05119,-0.0273,0.08556
35.3971,7156.4634,-0.0854,-0.03341,0.05013
35.4111,7156.4834,-0.05974,-0.03769,0.00432
35.4381,7156.5034,-0.04814,-0.04318,-0.05066
35.4538,7156.5234,-0.00171,-0.0047,-0.07326
35.4728,7156.5434,-0.04447,0.00507,-0.10625
35.4934,7156.5634,-0.01393,0.0405,-0.12152
35.5151,7156.5834,-0.02553,0.03134,-0.0867
35.5298,7156.6034,-0.01698,-0.01386,-0.04638
35.5528,7156.6234,0.06487,-0.04074,-0.04028
35.5736,7156.6434,0.06365,-0.06029,-0.02806
35.5938,7156.6634,0.02761,-0.05174,-0.01523
35.6114,7156.6834,0.02822,-0.01203,-0.01034
35.6302,7156.7034,-0.02004,0.00202,-0.03661
35.653,7156.7234,-0.08723,0.06127,-0.09648
35.6819,7156.7434,-0.11655,0.08998,-0.13435
35.717,7156.7634,-0.15198,-0.00287,-0.10808
35.7209,7156.7834,-0.1587,-0.11588,-0.11297
35.7359,7156.8033,-0.05363,-0.08472,-0.11358
35.7552,7156.8233,0.08259,-0.03158,-0.0922
35.7732,7156.8433,0.11619,0.0405,-0.06899
35.793,7156.8633,0.06548,0.03745,-0.05738
35.8129,7156.8833,0.05266,0.02523,-0.06838
35.831,7156.9033,0.04655,0.00813,-0.09037
35.8533,7156.9233,0.04105,-0.02364,-0.07998
35.8698,7156.9433,0.02761,-0.03402,-0.06288
35.8898,7156.9633,0.02639,0.04295,-0.02989
35.9131,7156.9833,-0.00843,0.13519,0.03608
35.93,7157.0033,-0.03653,0.0967,0.13626
35.9568,7157.0233,-0.04264,-0.0719,0.22117
35.9733,7157.0433,-0.0463,-0.15742,0.25783
35.9922,7157.0633,-0.04814,-0.11221,0.25111
36.0189,7157.0833,-0.0683,-0.00592,0.22606
36.0326,7157.1033,-0.06463,0.03562,0.19124
36.0537,7157.1233,-0.0011,0.02096,0.17841
36.0712,7157.1433,-0.02981,-0.01386,0.1216
36.0945,7157.1633,-0.11106,-0.01264,0.02325
36.1101,7157.1833,-0.15137,0.06616,-0.04272
36.1472,7157.2033,-0.06158,0.13702,-0.0641
36.1527,7157.2232,-0.00232,0.12358,-0.03966
36.1696,7157.2432,0.00806,0.046,-0.00301
36.1889,7157.2632,0.02944,0.01668,0.01837
36.2081,7157.2832,0.02456,0.01851,-0.00851
36.2311,7157.3032,0.01356,0.02584,-0.02317
36.251,7157.3232,-0.0182,0.04295,-0.02623
36.2718,7157.3432,-0.03348,0.01485,-0.01279
36.2898,7157.3632,0.04105,-0.0328,0.01287
36.308,7157.3832,0.11069,-0.04746,-0.00729
36.3302,7157.4032,0.08259,-0.03524,-0.05555
36.349,7157.4232,-0.01943,0.04906,-0.10258
36.372,7157.4432,-0.108,0.1077,-0.10564
36.3941,7157.4632,-0.06158,0.03378,-0.10075
36.4104,7157.4832,0.03189,0.046,-0.08487
36.4316,7157.5032,0.03922,-0.00409,-0.02867
36.4523,7157.5232,0.0099,0.0405,-0.00118
36.4802,7157.5432,0.01906,0.09548,0.01959
36.4948,7157.5632,0.07343,0.0625,0.00737
36.5159,7157.5832,0.1113,0.05089,0.03242
36.5318,7157.6031,0.09297,-0.00165,0.05991
36.5531,7157.6231,0.09419,0.0344,0.06113
36.5739,7157.6431,0.10397,0.04356,0.05991
36.5901,7157.6631,0.08137,0.10892,0.03425
36.6109,7157.6831,0.04349,0.11869,0.00554
36.6317,7157.7031,0.01539,0.10953,-0.03844
36.6532,7157.7231,0.05021,0.09059,-0.08609
36.6761,7157.7431,0.07037,0.14863,-0.14657
36.6939,7157.7631,0.04716,0.20544,-0.13801
36.7122,7157.7831,-0.0121,0.14374,-0.09464
36.7367,7157.8031,0.02456,0.03501,-0.05066
36.7642,7157.8231,0.06365,0.01424,-0.04577
36.7802,7157.8431,0.08381,0.0625,-0.00057
36.7928,7157.8631,0.05938,0.08326,0.06907
36.8135,7157.8831,-0.00538,0.13946,0.12344
36.831,7157.9031,-0.0909,0.18528,0.09045
36.8517,7157.9231,-0.05363,0.18039,0.0202
36.8772,7157.9431,0.03189,0.22437,-0.02439
36.8968,7157.9631,0.07159,0.19566,-0.00423
36.9156,7157.9831,0.07343,0.1584,0.07396
36.9326,7158.0031,0.03311,0.09304,0.06113
36.9513,7158.023,0.06121,0.10037,0.03486
36.971,7158.043,0.06915,0.12236,-0.01279
36.9978,7158.063,0.03433,0.14313,0.00248
37.0137,7158.083,0.00501,0.14741,0.04586
37.0347,7158.103,0.05143,0.17245,0.05991
37.0551,7158.123,0.14367,0.17673,0.08617
37.0747,7158.143,0.1675,0.12908,0.1155
37.0936,7158.163,0.12535,0.14618,0.12588
37.1152,7158.183,0.06426,0.17001,0.09167
37.1344,7158.203,-0.02126,0.11381,0.08129
37.1508,7158.223,0.01112,0.08143,0.06846
37.1737,7158.243,0.07648,0.1077,0.08923
37.193,7158.263,0.12291,0.11931,0.1326
37.2176,7158.283,0.10886,0.13641,0.16314
37.2334,7158.303,0.04594,0.09304,0.14054
37.2567,7158.323,0.03494,0.06372,0.08312
37.2754,7158.343,0.05021,0.07899,0.03853
37.2951,7158.3631,0.05021,0.1132,0.0202
37.3101,7158.3831,0.02333,0.14985,0.0312
37.3336,7158.4031,-0.01026,0.15351,0.02142
37.352,7158.4231,-0.0292,0.17917,-0.00912
37.37,7158.4432,-0.0463,0.16817,-0.02684
37.3946,7158.4632,-0.02431,0.18161,-0.00546
37.4154,7158.4832,-0.02981,0.12908,0.03486
37.431,7158.5033,-0.04692,0.08204,0.02692
37.45,7158.5233,0.01173,0.06494,0.01287
37.4746,7158.5433,0.0551,0.05761,0.05013
37.4909,7158.5633,0.03005,0.04783,0.09411
37.5128,7158.5834,0.00134,0.07166,0.08495
37.5329,7158.6034,-0.05302,0.14069,0.05685
37.5613,7158.6234,-0.14649,0.24331,-0.00668
37.5724,7158.6435,-0.19963,0.33005,-0.02439
37.5945,7158.6635,-0.15259,0.36426,0.00493
37.6108,7158.6835,-0.0744,0.30928,0.06113
37.6319,7158.7035,-0.01882,0.13091,0.12588
37.656,7158.7236,0.06426,-0.06945,0.18513
37.673,7158.7436,0.06671,-0.12321,0.19918
37.6985,7158.7636,0.038,0.00446,0.1607
37.7151,7158.7837,-0.00171,0.07532,0.08373
37.7314,7158.8037,-0.03042,0.1248,0.02631
37.7544,7158.8237,0.02517,0.09854,0.02203
37.7717,7158.8437,0.03372,0.01668,0.03303
37.7958,7158.8638,0.01417,-0.01631,0.04952
37.8202,7158.8838,0.07953,0.02218,0.05441
37.841,7158.9038,0.14673,0.0515,0.06113
37.8603,7158.9238,0.08564,0.01363,0.0593
37.8707,7158.9438,0.0661,0.00324,0.03303
37.8956,7158.9638,0.0325,0.04173,-0.00729
37.9131,7158.9838,0.02395,0.00141,-0.02989
37.9296,7159.0038,0.0441,-0.04441,-0.04883
37.9519,7159.0238,0.04777,-0.01936,-0.06349
37.9716,7159.0438,0.00928,0.01546,-0.0586
38.0224,7159.0638,-0.02615,-0.02242,-0.0641
38.0262,7159.0838,-0.02615,-0.02852,-0.08792
38.0299,7159.1038,-0.00049,-0.03219,-0.08243
38.0499,7159.1238,0.04044,0.0124,-0.0531
38.0723,7159.1438,0.08014,0.00446,0.00065
38.0888,7159.1638,0.07587,-0.01447,0.02936
38.1103,7159.1838,0.03616,-0.01753,0.01531
38.1335,7159.2038,0.01295,0.00019,0.01348
38.1536,7159.2238,0.01478,0.00446,0.03058
38.1795,7159.2438,0.06243,-0.01264,0.02997
38.1924,7159.2637,0.09786,-0.00348,0.01348
38.2144,7159.2837,0.0441,0.02096,-0.00057
38.2308,7159.3037,0.00806,-0.00714,-0.02134
38.2585,7159.3237,-0.01087,-0.06395,-0.03417
38.2783,7159.3437,0.01356,-0.0719,-0.025
38.2914,7159.3637,0.04349,-0.03585,-0.02439
38.3142,7159.3837,0.06365,0.01607,-0.02745
38.331,7159.4037,0.038,-0.01814,-0.00851
38.3509,7159.4237,-0.00965,-0.08533,0.00859
38.375,7159.4437,0.01112,-0.07006,0.00982
38.3943,7159.4637,0.03555,-0.07984,-0.04516
38.4158,7159.4837,0.04044,-0.01814,-0.10503
38.4473,7159.5037,0.00318,-0.05968,-0.06654
38.4587,7159.5237,-0.0347,-0.09511,-0.05188
38.4713,7159.5437,0.01417,-0.01997,-0.06838
38.4936,7159.5637,0.03066,-0.01753,-0.02439
38.5142,7159.5837,0.0099,-0.12138,0.02448
38.5388,7159.6037,0.016,-0.1452,0.01348
38.5669,7159.6237,0.04899,-0.07434,-0.01095
38.5777,7159.6437,0.04288,-0.02303,-0.03172
38.5939,7159.6637,0.02333,-0.02303,-0.04028
38.6153,7159.6836,-0.0011,-0.07861,-0.0305
38.6323,7159.7036,0.0099,-0.08717,-0.02623
38.6529,7159.7236,0.027,-0.10671,-0.02684
38.676,7159.7436,0.01234,-0.0157,-0.02256
38.6953,7159.7636,-0.00049,0.02035,-0.0079
38.7186,7159.7836,-0.02431,0.00324,-0.01951
38.7374,7159.8036,0.00867,-0.03952,-0.02439
38.7582,7159.8236,0.04288,-0.0157,-0.01401
38.7736,7159.8436,-0.01332,0.03073,0.01348
38.799,7159.8636,-0.01637,0.01729,0.0147
38.8149,7159.8836,0.02395,-0.06823,-0.01462
38.8342,7159.9036,0.02272,-0.07006,-0.01401
38.86,7159.9236,0.00257,-0.01997,-0.03111
38.8729,7159.9436,-0.00904,0.02096,-0.03783
38.8949,7159.9636,-0.01026,0.00691,-0.00668
38.9232,7159.9836,0.0215,-0.04685,0.01592
38.9362,7160.0036,0.0551,-0.06823,0.01043
38.9562,7160.0236,0.07281,0.01546,-0.00668
38.9729,7160.0436,0.04166,0.03562,-0.02684
38.9907,7160.0636,0.01906,0.00324,-0.0305
39.0126,7160.0835,0.04044,-0.03585,-0.02195
39.0354,7160.1035,0.04838,-0.02791,-0.025
39.0586,7160.1235,0.02028,0.00324,-0.04333
39.0749,7160.1435,0.02639,0.01973,-0.04211
39.0941,7160.1635,-0.00782,-0.02608,-0.04028
39.1138,7160.1835,-0.01698,0.00752,-0.04455
39.1296,7160.2035,-0.0066,0.00263,-0.01706
39.1528,7160.2235,-0.00843,-0.02486,-0.02134
39.1697,7160.2435,0.01539,-0.00714,-0.03356
39.1897,7160.2635,0.02028,-0.0102,-0.02012
39.2129,7160.2835,0.01661,-0.02058,-0.01156
39.2321,7160.3035,0.01784,-0.02791,-0.02134
39.2539,7160.3235,0.03005,-0.02425,-0.02195
39.2772,7160.3435,0.02822,-0.04746,-0.00423
39.2971,7160.3636,0.04777,-0.04502,-0.0079
39.3124,7160.3836,0.08442,-0.00653,-0.03783
39.3333,7160.4036,0.03433,0.01851,-0.04944
39.3527,7160.4237,-0.02798,0.01668,-0.04638
39.3769,7160.4437,0.01967,-0.0218,-0.04761
39.3969,7160.4637,0.06976,-0.04502,-0.02806
39.4117,7160.4838,0.04044,-0.0664,-0.02561
39.4322,7160.5038,-0.0066,-0.0664,-0.01828
39.4596,7160.5239,-0.0237,-0.0499,-0.01095
39.4841,7160.544,-0.02615,-0.0609,-0.00973
39.4939,7160.564,0.01173,-0.0664,-0.0079
39.5196,7160.5841,0.05143,-0.08045,0.00493
39.5398,7160.6042,0.03555,-0.11404,0.03853
39.5538,7160.6242,-0.01393,-0.13176,0.0373
39.5741,7160.6443,-0.07868,-0.13054,-0.05677
39.5922,7160.6643,-0.15321,-0.10244,-0.11786
39.6126,7160.6844,-0.16298,-0.10305,-0.12824
39.6435,7160.7045,-0.18375,-0.10305,-0.13374
39.6573,7160.7245,-0.23201,-0.10916,-0.10808
39.6759,7160.7446,-0.108,-0.07373,-0.09586
39.6956,7160.7646,0.01234,-0.14092,-0.06776
39.7119,7160.7847,-0.00965,-0.25821,0.00248
39.7332,7160.8048,-0.07868,-0.26798,0.0483
39.7539,7160.8248,-0.12511,-0.18246,0.02631
39.7714,7160.8449,-0.14832,-0.089,-0.04211
39.7917,7160.865,-0.09762,-0.02119,-0.10319
39.8157,7160.885,-0.06707,-0.05479,-0.11297
39.832,7160.9051,-0.06524,-0.12932,-0.09586
39.8559,7160.9251,-0.11533,-0.1678,-0.08426
39.8779,7160.9451,-0.06035,-0.10855,-0.06838
39.9028,7160.9652,0.02761,-0.08839,-0.04333
39.9136,7160.9852,0.07526,-0.09144,-0.02317
39.9453,7161.0052,0.06426,-0.09511,-0.01706
39.9594,7161.0252,0.03066,-0.04563,-0.05188
39.9729,7161.0453,-0.01637,-0.04135,-0.08304
40.0249,7161.0653,0.00195,-0.03646,-0.09159
40.0284,7161.0853,0.09603,-0.08595,-0.09464
40.0311,7161.1053,0.11985,-0.10061,-0.07021
40.0533,7161.1253,0.0777,-0.0438,-0.0586
40.0703,7161.1453,-0.02981,-0.03219,-0.07387
40.0904,7161.1653,-0.03348,-0.02119,-0.07632
40.1138,7161.1853,0.01967,-0.07617,-0.06471
40.1312,7161.2053,0.02578,-0.0719,-0.04944
40.1525,7161.2253,-0.0121,-0.07373,-0.06593
40.1734,7161.2453,0.00012,-0.10427,-0.06899
40.1979,7161.2653,0.04594,-0.10244,-0.05982
40.2199,7161.2853,0.03677,-0.05907,-0.06043
40.2373,7161.3052,0.02333,-0.03219,-0.06166
40.2537,7161.3252,0.00928,-0.00714,-0.05738
40.2779,7161.3452,-0.01454,-0.0218,-0.0641
40.2925,7161.3652,-0.00599,-0.05785,-0.05616
40.3099,7161.3852,0.00562,-0.07006,-0.04944
40.3297,7161.4052,0.00134,-0.02486,-0.06288
40.3545,7161.4252,-0.0011,-0.01264,-0.07387
40.3716,7161.4452,0.02761,0.00019,-0.05982
40.3925,7161.4652,0.02028,-0.04624,-0.02928
40.4186,7161.4852,0.01539,0.01485,-0.02439
40.4344,7161.5052,-0.00232,0.03501,-0.03905
40.4568,7161.5252,0.01478,0.03623,-0.04333
40.4787,7161.5452,0.03922,-0.00775,-0.00973
40.4965,7161.5652,0.04777,0.01607,0.01409
40.5144,7161.5852,0.03494,0.02035,0.0147
40.5389,7161.6052,0.01173,0.07044,0.01226
40.5617,7161.6252,-0.0347,0.04722,0.0257
40.5744,7161.6452,-0.07746,0.0179,0.0312
40.5958,7161.6652,-0.08723,0.01118,0.07335
40.6176,7161.6852,-0.01454,0.04295,0.11183
40.6341,7161.7052,0.01478,0.06433,0.09289
40.6571,7161.7251,0.01845,0.06494,0.06968
40.6767,7161.7451,0.03983,0.03806,0.06418
40.6939,7161.7651,0.00684,0.00324,0.06601
40.7182,7161.7851,-0.00049,-0.00775,0.02325
40.7343,7161.8051,0.01784,0.0179,-0.05188
40.759,7161.8251,-0.0121,0.06188,-0.07815
40.7751,7161.8451,-0.00415,0.02279,-0.05494
40.7928,7161.8651,0.03922,-0.02852,-0.00973
40.8138,7161.8851,0.04471,-0.04624,0.00065
40.8353,7161.9051,0.02456,0.01179,-0.03295
40.8547,7161.9251,-0.02798,0.03256,-0.05005
40.8732,7161.9451,-0.01148,-0.00653,-0.02928
40.8962,7161.9651,0.04716,-0.03219,0.00432
40.919,7161.9851,0.0551,-0.0273,0.0092
40.9347,7162.0051,0.00745,0.01424,-0.00301
40.954,7162.0251,-0.0237,0.05883,-0.02928
40.9725,7162.0451,-0.00965,0.03989,-0.02195
40.9926,7162.0651,0.04166,-0.01631,0.00371
41.0145,7162.0851,0.09542,0.01424,0.0312
41.0351,7162.1051,0.09786,0.03134,0.02325
41.0684,7162.125,0.04349,0.0344,0.00065
41.0796,7162.145,-0.01515,0.02829,0.00737
41.1,7162.165,-0.00843,0.04295,-0.00118
41.1126,7162.185,0.01539,0.04173,-0.025
41.1365,7162.205,0.03005,0.02157,-0.01218
41.157,7162.225,0.02639,0.00996,0.01348
41.174,7162.245,0.03677,0.00568,0.0312
41.195,7162.265,0.03738,-0.01508,0.03914
41.214,7162.285,0.04105,-0.00348,0.03608
41.2327,7162.305,0.03738,-0.02791,0.0483
41.2642,7162.325,0.04166,0.00874,0.04341
41.2836,7162.345,0.05632,0.03012,-0.00729
41.293,7162.365,0.06182,0.04173,-0.05738
41.3141,7162.385,0.01539,-0.01814,-0.09098
41.3359,7162.405,0.01661,-0.02913,-0.07265
41.3513,7162.425,0.04838,-0.02486,-0.05066
41.377,7162.445,0.03494,0.0063,-0.04516
41.3914,7162.465,0.00195,-0.02669,-0.01951
41.413,7162.485,0.01906,-0.04624,-0.00607
41.4352,7162.505,0.05815,-0.03158,-0.00851
41.4568,7162.525,0.05754,-0.01508,0.00615
41.474,7162.545,0.04533,-0.00837,0.00737
41.4948,7162.5651,0.02761,-0.03036,-0.00057
41.5146,7162.5851,0.02089,-0.01386,-0.02623
41.5402,7162.6051,-0.02309,0.00263,-0.04822
41.5575,7162.6252,-0.01759,-0.00531,-0.03539
41.5758,7162.6452,0.0606,0.00996,-0.00423
41.5998,7162.6652,0.08748,0.01118,0.00493
41.6154,7162.6852,0.0099,-0.01081,0.00371
41.6337,7162.7053,-0.06402,-0.00103,-0.01401
41.6578,7162.7253,-0.02553,0.01851,-0.05738
41.6901,7162.7453,0.00928,0.02951,-0.05616
41.7026,7162.7654,-0.02065,-0.01631,-0.02073
41.7219,7162.7854,-0.03409,-0.04685,-0.00546
41.7367,7162.8054,-0.02004,-0.01447,-0.01156
41.7585,7162.8254,-0.00904,0.04111,-0.03478
41.7738,7162.8455,-0.02187,0.06127,-0.03905
41.7952,7162.8655,-0.01515,0.04539,-0.03356
41.8135,7162.8855,0.03005,-0.02303,-0.00301
41.8366,7162.9056,0.06854,-0.04746,0.01409
41.8555,7162.9256,0.0441,-0.01997,0.00493
41.8725,7162.9456,-0.02859,0.04539,-0.04822
41.9058,7162.9656,-0.04081,0.05822,-0.07571
41.9221,7162.9857,0.01295,0.00752,-0.04577
41.9443,7163.0057,0.07159,-0.03585,0.00554
41.9531,7163.0257,0.06793,-0.01142,-0.00118
41.9769,7163.0458,0.02761,0.01973,-0.00973
42.0009,7163.0658,0.00379,0.00996,-0.01034
42.0144,7163.0858,-0.02065,-0.01386,0.00676
42.0359,7163.1058,-0.00782,-0.03769,0.02692
42.054,7163.1258,0.0325,-0.01508,0.03608
42.1204,7163.1458,0.01173,0.00996,0.01409
42.1229,7163.1658,-0.01454,0.04783,0.02264
42.1243,7163.1858,-0.00171,0.01546,0.01776
42.1392,7163.2058,0.02883,-0.02791,-0.02134
42.154,7163.2258,0.04227,-0.01386,-0.03478
42.1708,7163.2458,0.02272,0.02584,-0.03783
42.1994,7163.2658,-0.0066,0.01607,-0.02195
42.2196,7163.2858,0.00134,-0.01997,-0.0079
42.2357,7163.3058,0.05205,0.00691,-0.02561
42.2531,7163.3258,0.02944,-0.00287,-0.02989
42.2781,7163.3457,0.00134,-0.00042,-0.02195
42.2968,7163.3657,0.01417,-0.02547,-0.02317
42.3113,7163.3857,0.02456,-0.00714,-0.01462
42.3327,7163.4057,-0.00293,-0.00287,0.01531
42.3504,7163.4257,-0.0237,-0.0157,0.0147
42.3702,7163.4457,-0.01637,-0.02913,0.01287
42.4005,7163.4657,0.00318,-0.0157,-0.01584
42.4136,7163.4857,0.01478,0.00691,-0.03844
42.4322,7163.5057,0.00134,-0.00592,-0.03111
42.4573,7163.5257,-0.01087,-0.0273,0.00065
42.4747,7163.5457,-0.00843,-0.04257,-0.01156
42.4993,7163.5657,0.01356,0.00874,-0.04577
42.5288,7163.5857,-0.00293,0.02951,-0.03844
42.5375,7163.6057,0.00379,-0.00653,-0.02623
42.5539,7163.6257,0.0099,-0.06334,-0.01951
42.575,7163.6457,-0.0066,-0.0438,-0.00912
42.5933,7163.6657,-0.03164,0.02401,-0.01034
42.6145,7163.6857,-0.02859,0.01424,-0.02073
42.6374,7163.7057,-0.02309,-0.03158,-0.04089
42.6595,7163.7257,-0.02065,-0.01753,-0.0305
42.6744,7163.7456,-0.00904,0.03256,0.00126
42.6949,7163.7656,-0.0402,0.00385,-0.00179
42.7142,7163.7856,-0.06707,-0.00348,-0.0134
42.7331,7163.8056,-0.04081,0.01485,-0.02195
42.7623,7163.8256,0.01173,0.03867,-0.01951
42.7736,7163.8456,0.03555,0.03195,0.00798
42.7941,7163.8656,0.00867,0.00996,0.01409
42.818,7163.8856,0.01234,0.03012,-0.0189
42.8341,7163.9056,0.00562,0.03134,-0.04028
42.8541,7163.9256,0.00623,0.01546,-0.01706
42.8772,7163.9456,0.04471,-0.01325,-0.00118
42.8972,7163.9656,0.04288,-0.00898,-0.00668
42.9165,7163.9856,-0.00232,-0.01508,-0.025
42.9362,7164.0056,-0.01698,0.01118,-0.02989
42.9561,7164.0256,-0.02553,-0.01936,-0.01401
42.9768,7164.0456,0.02028,0.00141,0.01348
42.9964,7164.0656,0.02456,-0.00226,0.01287
43.0156,7164.0856,0.01234,-0.01386,-0.0024
43.0341,7164.1056,0.00257,-0.01875,-0.01584
43.0559,7164.1256,-0.00843,0.00446,-0.01156
43.079,7164.1456,0.01295,0.03867,0.01043
43.0938,7164.1655,0.02639,0.00263,-0.00546
43.1149,7164.1855,0.03677,-0.0047,-0.03356
43.1425,7164.2055,0.03005,0.00385,-0.03966
43.1533,7164.2255,0.01356,0.03317,-0.0134
43.1803,7164.2455,0.04655,0.01851,0.01409
43.1929,7164.2655,0.02761,-0.0157,-0.00301
43.214,7164.2855,-0.03164,-0.01081,-0.02745
43.2382,7164.3055,-0.03653,0.01912,-0.0079
43.2725,7164.3255,0.03066,0.02462,0.03547
43.2744,7164.3455,0.07709,-0.00409,0.04525
43.2982,7164.3655,0.02272,-0.02364,0.03058
43.3126,7164.3855,-0.02737,0.01546,0.00248
43.3323,7164.4055,-0.01882,0.0234,0.00493
43.3543,7164.4255,0.038,-0.02486,0.01715
43.3739,7164.4455,0.03128,-0.01631,-0.00362
43.3951,7164.4655,-0.00232,-0.00348,-0.0415
43.4148,7164.4855,-0.02737,0.00874,-0.04638
43.4334,7164.5055,-0.01515,0.01179,-0.01279
43.4587,7164.5255,0.01723,0.01302,0.02264
43.4787,7164.5455,0.03494,-0.01875,0.01409
43.4919,7164.5654,0.03494,-0.01936,-0.00301
43.5126,7164.5854,0.027,-0.01447,-0.00179
43.5359,7164.6054,0.01967,0.00935,0.00493
43.5584,7164.6254,-0.00477,0.02523,0.00859
43.578,7164.6454,0.02211,0.0515,-0.0189
43.5987,7164.6654,0.02272,0.01179,-0.02684
43.6152,7164.6854,0.01051,-0.03097,-0.01828
43.6333,7164.7054,-0.00782,-0.00042,-0.00546
43.6572,7164.7254,0.00073,0.03867,0.00859
43.6704,7164.7454,0.02211,0.02096,0.01898
43.6925,7164.7654,0.05571,0.00813,0.0257
43.7182,7164.7854,0.0722,-0.01631,0.01959
43.7329,7164.8054,0.01845,-0.0554,-0.00057
43.7528,7164.8254,-0.02859,-0.01753,-0.00179
43.7747,7164.8454,-0.00232,0.03745,-0.01645
43.8011,7164.8654,0.04349,0.02157,-0.02806
43.8133,7164.8854,0.03005,-0.02913,-0.025
43.8348,7164.9054,0.00379,-0.05662,-0.02378
43.8538,7164.9254,0.00501,-0.01142,-0.02684
43.8724,7164.9454,0.01906,0.0124,-0.01951
43.894,7164.9654,0.00623,0.01118,0.00187
43.9128,7164.9853,0.00806,-0.01692,0.02081
43.9338,7165.0053,0.01661,-0.03585,0.02081
43.9564,7165.0253,0.02761,-0.01631,0.01959
43.9733,7165.0453,0.02211,0.01546,0.02509
43.9939,7165.0653,0.01784,0.02218,-0.00546
44.0171,7165.0853,0.01295,0.00507,-0.03905
44.0341,7165.1053,-0.01026,0.02096,-0.02317
44.0574,7165.1253,-0.02065,0.0234,0.01226
44.0752,7165.1453,0.02395,0.0008,0.01165
44.0927,7165.1653,0.04655,-0.00837,-0.00423
44.1145,7165.1853,-0.02187,0.02157,-0.01218
44.134,7165.2053,-0.07135,0.03134,-0.00729
44.1847,7165.2253,-0.05852,0.01851,-0.01401
44.188,7165.2453,0.0099,0.01546,-0.01156
44.1908,7165.2653,0.06548,0.03806,0.01592
44.2135,7165.2853,0.05205,0.02035,0.04219
44.232,7165.3053,0.02333,0.01485,0.03486
44.2527,7165.3253,0.03616,0.0063,0.01837
44.2745,7165.3453,0.01356,0.0234,0.01043
44.2912,7165.3653,0.00073,0.00752,0.01226
44.3153,7165.3852,0.02822,0.03378,0.00554
44.3337,7165.4052,0.05754,0.03989,0.01287
44.3519,7165.4252,0.07037,0.00813,0.01898
44.3736,7165.4452,0.03738,-0.03097,0.03058
44.3916,7165.4652,0.0325,-0.04929,0.03242
44.413,7165.4852,0.05571,-0.00409,0.00615
44.4364,7165.5052,0.02639,0.00935,-0.02684
44.456,7165.5252,0.00257,0.00202,-0.03905
44.4827,7165.5452,0.08625,0.09121,-0.036
44.4991,7165.5652,0.16444,0.16817,-0.01462
44.5181,7165.5852,0.09847,0.08571,0.01165
44.5366,7165.6052,0.01723,-0.00103,0.01898
44.5573,7165.6252,-0.00293,0.06921,-0.00607
44.5766,7165.6452,-0.03958,0.16084,-0.02073
44.5973,7165.6652,-0.0683,0.16879,0.00187
44.616,7165.6852,-0.05363,0.14191,0.02264
44.6354,7165.7052,0.0722,0.20544,-0.00851
44.6535,7165.7252,0.06426,0.21094,-0.03783
44.6785,7165.7452,-0.00354,0.26469,-0.05677
44.6951,7165.7652,-0.00599,0.34288,-0.04883
44.7405,7165.7852,-0.01882,0.34349,-0.02073
44.748,7165.8051,-0.04814,0.23537,0.01776
44.757,7165.8251,-0.02187,0.17856,0.05991
44.7736,7165.8451,0.00073,0.13885,0.1045
44.7983,7165.8651,-0.06768,0.11442,0.12832
44.8123,7165.8851,-0.08784,0.06066,0.12832
44.8342,7165.9051,-0.04508,0.03012,0.10755
44.8545,7165.9251,0.00012,0.02462,0.09778
44.8719,7165.9451,0.05143,-0.00165,0.04219
44.8945,7165.9651,0.05327,-0.01753,-0.02561
44.916,7165.9851,0.03311,0.00996,-0.0977
44.9359,7166.0051,0.00745,0.02157,-0.16245
44.9571,7166.0251,0.00867,0.0179,-0.18994
44.9782,7166.0451,0.02883,-0.00409,-0.18749
45.0009,7166.0651,0.038,-0.00531,-0.14718
45.0172,7166.0851,0.02456,-0.01875,-0.09831
45.0516,7166.1051,0.02211,-0.05479,-0.05616
45.0689,7166.1251,0.0606,-0.07923,-0.02623
45.0728,7166.1451,0.0551,-0.04441,-0.0024
45.0948,7166.1651,-0.00354,-0.01325,0.0031
45.1119,7166.1851,-0.03531,-0.04013,0.00676
45.1329,7166.2051,0.01723,-0.0438,0.0257
45.1543,7166.225,0.03677,-0.05051,0.0654
45.1735,7166.245,0.02395,-0.0554,0.07273
45.1919,7166.265,0.01723,-0.03097,0.06174
45.2189,7166.285,0.00745,-0.02058,0.02081
45.233,7166.305,-0.02553,0.04783,-0.01645
45.261,7166.325,-0.06768,-0.00226,-0.00118
45.295,7166.345,-0.00171,-0.01447,0.0257
45.299,7166.365,0.05327,-0.04441,0.06785
45.3122,7166.385,0.04777,-0.02852,0.09534
45.3346,7166.405,-0.00782,-0.0218,0.08068
45.3555,7166.425,-0.0066,-0.02119,0.0257
45.3708,7166.445,0.02944,-0.01936,-0.01584
45.3946,7166.465,0.06365,-0.00226,-0.01156
45.4112,7166.485,0.05388,0.00202,-0.00301
45.432,7166.505,0.04166,-0.00287,-0.00729
45.4544,7166.525,0.02272,-0.0328,-0.01279
45.4785,7166.545,0.01845,-0.00959,-0.00423
45.5001,7166.565,0.0099,-0.01081,0.00432
45.5228,7166.585,0.03372,-0.02852,0.00982
45.5361,7166.605,0.03922,-0.02791,0.02692
45.5546,7166.6249,0.05999,-0.00898,0.0373
45.573,7166.6449,0.05082,0.0124,0.0147
45.593,7166.6649,0.00928,0.0008,0.00798
45.6142,7166.6849,-0.03775,-0.03708,0.00065
45.6362,7166.7049,-0.02187,-0.04074,-0.025
45.6566,7166.7249,0.0215,-0.00103,-0.0189
45.6744,7166.7449,0.01661,0.00202,0.00248
45.6924,7166.7649,0.01112,-0.00898,0.01226
45.7109,7166.7849,0.04044,-0.0047,0.0202
45.7317,7166.8049,0.0551,-0.02975,0.03547
45.7552,7166.8249,0.04349,-0.04013,0.04586
45.7753,7166.8449,0.01845,-0.01692,0.01959
45.7929,7166.8649,0.00195,0.02829,-0.01034
45.8152,7166.8849,-0.0066,-0.01631,-0.01218
45.8386,7166.9049,-0.02431,-0.06518,-0.0079
45.8594,7166.9249,-0.0182,-0.05235,-0.0079
45.8832,7166.9449,0.03128,0.01424,-0.0189
45.9007,7166.9649,0.01661,0.00752,0.01715
45.913,7166.9849,0.00257,-0.05601,0.03853
45.9339,7167.0049,0.0099,-0.0835,0.08068
45.9543,7167.0249,0.00562,-0.07067,0.09289
45.9736,7167.0448,-0.06524,-0.12443,0.05807
46.0011,7167.0648,-0.10922,-0.13787,0.0147
46.0144,7167.0848,-0.12083,-0.16597,-0.01951
46.0344,7167.1048,-0.09456,-0.15558,0.00859
46.0598,7167.1248,-0.04264,-0.10183,0.07762
46.0743,7167.1448,0.00684,-0.14337,0.1045
46.0916,7167.1648,0.09847,-0.15497,0.07212
46.1165,7167.1848,0.16567,-0.13787,0.03181
46.1672,7167.2048,0.15406,-0.0835,0.00065
46.1701,7167.2248,0.11741,-0.04746,-0.01523
46.1803,7167.2448,0.09297,-0.06273,-0.03722
46.1893,7167.2648,0.08992,-0.11099,-0.06593
46.2103,7167.2848,0.07953,-0.10855,-0.0867
46.2322,7167.3048,0.0099,-0.08961,-0.07937
46.2575,7167.3248,-0.01576,-0.04624,-0.0586
46.274,7167.3448,0.03861,-0.05785,-0.02439
46.2942,7167.3648,0.07648,-0.10794,0.04525
46.3115,7167.3848,0.08198,-0.15864,0.08923
46.3303,7167.4048,0.07648,-0.13115,0.08251
46.3524,7167.4247,0.0325,-0.10427,0.07579
46.3708,7167.4447,0.01723,-0.12443,0.06663
46.3906,7167.4647,0.01478,-0.14642,0.02631
46.4157,7167.4847,-0.03225,-0.15192,0.00065
46.4365,7167.5047,-0.04264,-0.14153,-0.01401
46.4544,7167.5247,-0.03042,-0.12809,-0.04638
46.4826,7167.5447,-0.02737,-0.06518,-0.11114
46.5005,7167.5647,-0.02676,-0.00775,-0.14473
46.5152,7167.5847,-0.02431,-0.04807,-0.13862
46.5348,7167.6047,-0.01148,-0.06029,-0.14779
46.5563,7167.6247,-0.03775,-0.04257,-0.16123
46.582,7167.6447,-0.07685,-0.02975,-0.13374
46.6032,7167.6647,-0.0628,-0.02242,-0.09709
46.6129,7167.6847,-0.04447,-0.01692,-0.07448
46.6341,7167.7047,-0.05913,0.00019,-0.05494
46.6552,7167.7247,-0.06891,-0.00837,-0.04455
46.6715,7167.7447,-0.02615,0.00385,-0.02623
46.6979,7167.7647,0.03005,0.02401,0.01959
46.7179,7167.7847,0.01356,-0.0047,0.09595
46.732,7167.8047,0.0661,0.01607,0.12649
46.7524,7167.8247,0.13696,0.00691,0.0654
46.7744,7167.8446,0.12413,0.00568,-0.00423
46.7934,7167.8646,0.1113,0.02096,-0.0189
46.8149,7167.8846,0.06854,0.06677,-0.0189
46.8362,7167.9046,0.03128,0.07777,-0.03172
46.8556,7167.9246,0.02211,0.02218,-0.0189
46.8741,7167.9446,0.05449,-0.01753,-0.00729
46.8951,7167.9646,0.05754,0.01973,-0.03661
46.912,7167.9846,0.01173,0.07166,-0.04333
46.9333,7168.0046,-0.01148,0.08388,-0.01828
46.9618,7168.0246,0.01967,0.06066,-0.01401
46.9828,7168.0446,0.03677,0.04173,-0.02684
46.9979,7168.0646,0.01112,0.0515,-0.02561
47.0163,7168.0846,-0.00049,0.07471,0.00554
47.0375,7168.1046,0.01539,0.07532,0.02325
47.0541,7168.1246,0.01906,0.04173,0.03792
47.076,7168.1446,0.00134,0.06372,0.04219
47.0929,7168.1646,-0.01454,0.09059,0.04647
47.1172,7168.1846,-0.0066,0.09609,0.05074
47.1398,7168.2046,-0.0066,0.04967,0.06418
47.1533,7168.2246,-0.00721,0.03195,0.06846
47.1713,7168.2446,-0.00354,0.07166,0.06785
47.1967,7168.2645,0.01661,0.08449,0.04891
47.2185,7168.2845,0.027,0.07471,0.03914
47.2364,7168.3045,0.05327,0.02279,0.04097
47.2533,7168.3245,0.06915,0.0344,0.00798
47.2717,7168.3445,0.00501,0.08693,0.00248
47.2952,7168.3645,-0.0292,0.07227,0.0031
47.3134,7168.3845,-0.01454,0.03378,-0.02806
47.3314,7168.4045,0.00867,0.02157,-0.04272
47.351,7168.4245,0.01234,0.01363,4e-05
47.3753,7168.4445,0.00623,0.02829,0.02875
47.3919,7168.4645,0.01661,0.01973,0.03425
47.416,7168.4845,0.03555,0.00385,0.02997
47.4408,7168.5045,0.02028,0.00446,0.01043
47.4554,7168.5245,-0.00477,0.02523,-0.00546
47.4786,7168.5445,-0.00293,0.03867,-0.00057
47.4963,7168.5645,0.00623,0.03806,0.00737
47.5144,7168.5845,0.01356,-0.0047,0.0147
47.5353,7168.6045,0.02456,-0.03646,0.01104
47.5554,7168.6245,0.00073,-0.00409,-0.00912
47.5709,7168.6445,-0.01454,0.02645,-0.01462
47.5907,7168.6644,-0.02004,0.03256,-0.02439
47.6133,7168.6844,-0.02676,0.01302,-0.02256
47.6376,7168.7044,0.01173,-0.04868,4e-05
47.6616,7168.7244,0.01112,-0.0438,-0.01156
47.6789,7168.7444,-0.00415,-0.00409,-0.01095
47.6913,7168.7644,0.00684,-0.00653,-0.0024
47.7154,7168.7844,-0.0011,-0.04929,0.00615
47.7357,7168.8044,0.0044,-0.0609,-0.01584
47.7528,7168.8244,0.02822,-0.00592,-0.01767
47.7713,7168.8444,0.01845,0.05028,-0.00362
47.7938,7168.8644,0.03494,0.02462,0.01409
47.8153,7168.8844,0.03861,-0.01692,0.02142
47.8317,7168.9044,0.01478,-0.00287,0.01348
47.854,7168.9244,0.02028,0.0179,0.0257
47.872,7168.9444,0.03005,0.00385,0.01287
47.8913,7168.9644,0.02333,0.02096,0.02448
47.9162,7168.9844,-0.01882,-0.01997,0.0092
47.9305,7169.0044,-0.02859,-0.00287,0.0147
47.951,7169.0244,-0.02309,0.00446,0.0147
47.9751,7169.0444,-0.01393,0.00813,0.01409
47.9979,7169.0644,-0.02615,0.03256,0.02081
48.0158,7169.0843,0.00134,0.05822,0.03181
48.0338,7169.1043,0.0441,0.01607,0.04402
48.055,7169.1243,0.05082,-0.01142,0.06846
48.0764,7169.1443,0.02883,-0.01936,0.06601
48.1011,7169.1643,0.01906,0.01851,0.03058
48.1199,7169.1843,0.01173,0.03501,0.00554
48.1381,7169.2043,-0.02004,0.03623,0.00371
48.1551,7169.2243,-0.02615,0.02768,0.01837
48.1967,7169.2443,0.02028,0.00813,-0.0024
48.1981,7169.2643,0.04655,0.00874,-0.03905
48.2119,7169.2843,0.03677,-0.00898,-0.01828
48.2289,7169.3043,-0.00354,-0.00287,0.00248
48.2532,7169.3243,-0.02309,0.02523,-0.00973
48.2746,7169.3443,0.00867,0.01729,-0.01951
48.2905,7169.3643,0.03311,-0.01203,0.01776
48.3094,7169.3843,0.04777,-0.02608,0.01409
48.332,7169.4043,0.04288,-0.01997,0.01104
48.3527,7169.4243,0.03128,-0.00287,0.00859
48.3801,7169.4443,0.02639,0.02401,0.00676
48.3939,7169.4643,0.01356,0.00935,0.00493
48.4112,7169.4843,0.00928,-0.00348,0.00432
48.4336,7169.5042,0.027,-0.00348,-0.00118
48.4568,7169.5242,0.04655,0.00141,-0.00851
48.4738,7169.5442,0.04716,0.01485,-0.01095
48.494,7169.5642,0.00257,-0.00592,-0.01156
48.5214,7169.5842,-0.02309,0.00019,-0.00851
48.5378,7169.6042,-0.01148,0.01118,-0.02439
48.5511,7169.6242,0.00928,-0.00287,-0.02745
48.58,7169.6442,0.01723,-0.00287,-0.00668
48.5915,7169.6642,0.02944,-0.00653,0.0092
48.6108,7169.6842,0.02211,0.0063,0.02142
48.6369,7169.7042,0.01051,0.02035,0.03425
48.655,7169.7242,0.00379,-0.00226,0.02692
48.672,7169.7442,0.02517,-0.02791,0.00065
48.6944,7169.7642,0.03372,-0.01386,0.01043
48.7111,7169.7842,0.038,0.0344,0.02325
48.7311,7169.8042,0.03372,0.01302,0.02997
48.7567,7169.8242,0.01356,-0.01386,0.01715
48.7795,7169.8442,0.02944,-0.01081,0.00065
48.8032,7169.8642,0.01784,0.03806,0.01165
48.8244,7169.8842,0.01051,0.03684,-0.00301
48.8342,7169.9041,0.01845,-0.00348,-0.01523
48.8538,7169.9241,0.01112,0.02645,-0.01706
48.8761,7169.9441,-0.00904,0.00691,-0.00973
48.9022,7169.9641,0.00623,0.00141,-0.00057
48.9131,7169.9841,0.03433,0.00568,0.01653
48.939,7170.0041,0.03983,-0.00409,0.01409
48.9575,7170.0241,0.03311,-0.01997,0.02875
48.9728,7170.0441,0.03128,-0.01386,0.03975
48.996,7170.0641,0.02456,0.01179,0.02692
49.0123,7170.0841,0.01051,0.01668,0.01898
49.0453,7170.1041,0.0099,0.00446,0.00859
49.0594,7170.1241,0.02089,-0.00042,-0.00301
49.0708,7170.1441,0.00501,0.00874,-0.00851
49.0916,7170.1641,-0.01087,0.0124,0.00371
49.1136,7170.1841,0.00745,0.01424,0.0092
49.1404,7170.2041,0.038,-0.0218,-0.01828
49.1522,7170.2241,-0.00232,-0.03524,-0.02867
49.1736,7170.2441,-0.02615,-0.00287,-0.01156
49.1937,7170.2641,-0.00965,0.00996,-0.00607
49.2199,7170.2841,0.00012,0.01851,-0.01156
49.2381,7170.304,0.01051,0.00752,-0.01462
49.2528,7170.324,-0.03287,-0.01875,-0.01767
49.2745,7170.344,-0.10617,-0.0499,0.00493
49.2933,7170.364,-0.11655,-0.09205,-0.01584
49.3149,7170.384,-0.0683,-0.03524,-0.04944
49.332,7170.404,-0.05913,-0.01142,-0.04577
49.3567,7170.424,-0.03409,0.0124,-0.03844
49.3731,7170.444,-0.00965,-0.03341,-0.02745
49.3907,7170.464,-0.02615,-0.04135,-0.00301
49.4147,7170.484,-0.06096,-0.05296,-0.01523
49.4305,7170.504,-0.07257,-0.04013,-0.0867
49.4529,7170.524,-0.03775,-0.0328,-0.10319
49.4758,7170.544,-0.0121,-0.09572,-0.08243
49.4909,7170.564,-0.0463,-0.15314,-0.09586
49.5116,7170.584,-0.02859,-0.11649,-0.16672
49.5375,7170.604,-0.01454,-0.07984,-0.21254
49.5572,7170.624,-0.04508,-0.08228,-0.19421
49.5794,7170.644,-0.04325,-0.12626,-0.16978
49.6051,7170.664,0.00379,-0.15742,-0.17894
49.6163,7170.6841,0.02333,-0.15253,-0.18933
49.6355,7170.7041,-0.03164,-0.14948,-0.15206
49.6548,7170.7242,-0.07563,-0.21056,-0.11419
49.6747,7170.7442,-0.00843,-0.21972,-0.12457
49.697,7170.7643,0.03983,-0.13176,-0.12763
49.7148,7170.7844,0.05143,-0.05174,-0.07754
49.7334,7170.8044,0.06548,-0.10794,-0.02561
49.7606,7170.8245,0.04533,-0.19285,-0.05616
49.7757,7170.8445,0.02456,-0.16475,-0.11114
49.7932,7170.8646,-0.00599,-0.05968,-0.14412
49.8128,7170.8847,-0.02004,-0.00653,-0.13618
49.8412,7170.9047,-0.02859,-0.09877,-0.1148
49.8579,7170.9248,0.01723,-0.1171,-0.10564
49.8738,7170.9449,0.02456,-0.07923,-0.10381
49.8954,7170.9649,-0.04569,0.01851,-0.08731
49.9116,7170.985,-0.08784,0.04906,-0.05555
49.9363,7171.005,-0.04569,0.01424,-0.0024
49.9587,7171.0251,0.01112,-0.04502,0.03181
49.9749,7171.0452,0.00928,-0.03463,0.02509
50.0209,7171.0652,-0.01698,0.00691,0.00065
50.0241,7171.0853,-0.0573,0.08326,0.0031
50.0366,7171.1054,-0.0463,0.09059,0.00676
50.0529,7171.1254,0.03005,0.07044,-0.0134
50.0737,7171.1455,0.05449,0.05333,-0.00118
50.0922,7171.1655,0.02395,0.07044,0.03058
50.1128,7171.1856,0.03128,0.1022,0.04402
50.1344,7171.2057,0.03738,0.09426,0.03792
50.1543,7171.2257,0.00562,0.09731,-0.00118
50.1817,7171.2458,-0.02737,0.07899,-0.02989
50.2016,7171.2658,-0.0347,0.06555,-0.03966
50.2245,7171.2858,-0.02248,0.08265,-0.03417
50.2358,7171.3058,-0.03714,0.08754,-0.02989
50.2622,7171.3258,-0.06158,0.05516,-0.0134
50.2771,7171.3459,-0.04325,0.04967,-0.00729
50.2949,7171.3659,-0.01943,0.05272,-0.00912
50.3158,7171.3859,0.00806,0.06494,0.00432
50.333,7171.4059,0.02028,0.08388,0.01837
50.3574,7171.426,0.02211,0.07471,0.01776
50.3757,7171.446,0.02333,0.07593,-0.01034
50.3923,7171.466,0.02395,0.09059,-0.00973
50.4179,7171.4861,0.027,0.0796,-0.00301
50.4427,7171.5061,-0.01759,0.057,0.00248
50.4632,7171.5261,-0.02248,0.0625,-0.00118
50.4818,7171.5461,0.01906,0.05822,0.01287
50.497,7171.5662,0.05082,0.03867,0.02814
50.5137,7171.5862,0.03311,0.03134,0.0147
50.5351,7171.6062,0.00257,0.0515,-0.01279
50.5564,7171.6263,-0.02615,0.06555,-0.01645
50.5741,7171.6463,-0.06463,0.01607,-0.0134
50.597,7171.6663,-0.09578,-0.03097,-0.02073
50.6207,7171.6863,-0.13366,-0.10305,-0.0586
50.636,7171.7064,-0.17459,-0.11038,-0.0641
50.6564,7171.7264,-0.12938,-0.06579,-0.04944
50.6772,7171.7464,-0.06768,-0.06518,-0.04944
50.6952,7171.7665,-0.01148,-0.07128,-0.03233
50.7199,7171.7865,0.04716,-0.08839,-0.00362
50.7379,7171.8065,0.05327,-0.04929,0.01531
50.7583,7171.8265,0.07159,0.00202,0.02264
50.7772,7171.8466,0.05327,-0.00959,0.03975
50.7975,7171.8666,0.04777,-0.08717,0.03792
50.8147,7171.8866,0.07404,-0.08839,0.0257
50.8364,7171.9067,0.05571,-0.05846,0.03486
50.8625,7171.9267,0.04899,-0.02486,0.06174
50.8828,7171.9466,0.08931,-0.03585,0.02936
50.9017,7171.9666,0.12718,-0.0273,-0.01706
50.9166,7171.9866,0.07159,-0.02852,-0.04211
50.9346,7172.0066,-0.02065,0.00446,-0.05188
50.9558,7172.0266,-0.00965,0.05822,-0.025
50.981,7172.0466,0.05388,0.01912,0.02325
50.9983,7172.0666,0.14245,-0.03036,0.08312
51.0179,7172.0866,0.18338,-0.03219,0.11672
51.0366,7172.1066,0.14734,0.00691,0.11305
51.0548,7172.1266,0.09114,0.00446,0.11305
51.0755,7172.1466,0.0722,-0.02913,0.11244
51.1032,7172.1666,0.10091,0.057,0.10511
51.1181,7172.1866,0.12352,0.09915,0.11916
51.1347,7172.2066,0.13696,0.03134,0.13077
51.156,7172.2266,0.11802,0.0124,0.11366
51.1753,7172.2466,0.07037,0.03806,0.0819
51.1933,7172.2666,0.01478,0.0289,0.05074
51.2143,7172.2866,-0.00843,0.02035,0.02997
51.2327,7172.3066,-0.01576,0.02768,0.01409
51.2701,7172.3266,-0.04264,-0.00592,-0.00668
51.2815,7172.3465,-0.03775,0.00202,-0.00301
51.2983,7172.3665,-0.01576,-0.00714,-0.00485
51.3148,7172.3865,0.00195,-0.01936,-0.0189
51.3356,7172.4065,0.00867,0.0008,-0.01645
51.3533,7172.4265,0.02517,0.01118,0.00432
51.3744,7172.4465,0.03616,0.01179,0.01898
51.3985,7172.4665,0.03616,0.00141,0.01531
51.4166,7172.4865,0.02028,0.00324,0.00065
51.4343,7172.5065,-0.01087,0.03928,0.01104
51.4557,7172.5265,-0.01332,0.0234,0.01043
51.4807,7172.5465,0.04716,-0.01936,0.01165
51.503,7172.5665,0.04655,-0.0047,0.02387
51.5182,7172.5865,-0.00415,0.02401,0.02936
51.5332,7172.6065,-0.02187,0.01912,0.01348
51.5563,7172.6265,-0.00721,0.00019,4e-05
51.5846,7172.6465,0.03555,-0.03463,0.01104
51.6007,7172.6665,0.03983,0.0008,0.03303
51.6147,7172.6865,0.02395,0.01179,0.03669
51.635,7172.7065,0.02883,0.0063,0.03608
51.6544,7172.7265,0.00867,-0.03158,-0.00423
51.6735,7172.7465,-0.01576,-0.00348,-0.06043
51.6947,7172.7664,-0.03287,0.00752,-0.05249
51.7155,7172.7864,-0.00843,-0.0273,-0.01462
51.7427,7172.8064,-0.01576,-0.03585,4e-05
51.7573,7172.8264,-0.05608,-0.04868,-0.00423
51.7825,7172.8464,-0.05058,-0.0383,-0.02134
51.8069,7172.8664,-0.02615,-0.00898,-0.01156
51.8218,7172.8864,-0.04447,-0.03646,-0.00118
51.8354,7172.9064,-0.01454,-0.02547,-0.00973
51.8572,7172.9264,-0.0011,-0.03158,-0.025
51.8773,7172.9464,-0.02615,-0.01692,-0.01645
51.897,7172.9664,-0.01882,-0.0383,-0.00912
51.9163,7172.9864,0.04471,-0.05174,-0.02989
51.9469,7173.0064,0.0325,-0.02608,-0.06104
51.958,7173.0264,-0.03592,-0.0273,-0.047
51.9745,7173.0464,-0.03836,-0.03769,-0.0415
52.0305,7173.0664,0.016,-0.01875,-0.02317
52.0328,7173.0864,0.05632,0.00446,0.0031
52.0345,7173.1064,0.04288,0.00324,0.01592
52.0536,7173.1264,0.01234,-0.02669,0.02387
52.072,7173.1464,0.01539,-0.05907,0.0373
52.0916,7173.1664,0.04899,-0.05357,0.03364
52.119,7173.1863,0.07098,-0.02975,0.02203
52.1339,7173.2063,0.02272,-0.01814,0.00982
52.1563,7173.2263,-0.03225,-0.00714,0.00676
52.1831,7173.2463,0.00134,0.00324,-0.00057
52.1979,7173.2663,0.05693,0.00996,-0.02012
52.2229,7173.2863,0.05143,0.01729,-0.01523
52.2351,7173.3063,0.01234,0.03073,-0.0079
52.256,7173.3263,0.01295,0.02706,-0.00668
52.2742,7173.3463,0.00073,-0.00165,-0.00118
52.296,7173.3663,0.02333,0.00385,-0.01462
52.3114,7173.3863,0.04227,0.01057,-0.01645
52.3325,7173.4063,0.0441,0.0063,0.00798
52.3571,7173.4263,0.0044,0.00813,0.0202
52.373,7173.4463,0.0044,0.02829,0.02814
52.3969,7173.4663,0.01478,0.0234,0.00676
52.4156,7173.4863,0.0044,0.01546,-0.01706
52.4409,7173.5063,-0.00049,-0.01264,-0.03233
52.4602,7173.5263,0.016,-0.01875,-0.02623
52.4819,7173.5463,0.03128,0.0008,-0.02439
52.4966,7173.5663,0.00806,0.02706,-0.03295
52.5179,7173.5862,-0.01759,0.00019,-0.02867
52.539,7173.6062,-0.02065,0.00996,-0.02806
52.5675,7173.6262,-0.01454,0.0179,-0.02378
52.5821,7173.6463,0.00806,0.00874,-0.01279
52.6035,7173.6663,0.03311,-0.01447,0.01776
52.6158,7173.6863,0.05327,0.01179,0.0202
52.6349,7173.7064,0.03005,0.03928,0.00615
52.6584,7173.7264,-0.0237,0.04111,0.00065
52.677,7173.7464,-0.02737,0.01729,0.02753
52.7021,7173.7664,0.03677,-0.03219,0.04586
52.7222,7173.7865,0.08564,-0.0273,0.02997
52.7348,7173.8065,0.04044,-0.00409,-0.01584
52.7563,7173.8265,-0.04325,0.01118,-0.05066
52.7766,7173.8466,-0.05425,0.05333,-0.05616
52.7944,7173.8666,-0.00843,0.0179,-0.03905
52.8152,7173.8866,0.01661,-0.05235,-0.01095
52.8416,7173.9066,0.00928,-0.06762,0.01287
52.8572,7173.9267,0.02089,-0.03097,0.01959
52.876,7173.9467,0.0215,-0.03463,0.01287
52.8971,7173.9667,-0.02492,-0.02608,-0.01828
52.9151,7173.9867,-0.07868,-0.00348,-0.05494
52.938,7174.0068,-0.06707,-0.0157,-0.05005
52.9653,7174.0268,-0.0121,-0.00653,-0.00973
52.9822,7174.0468,-0.00171,-0.0273,0.01287
52.9964,7174.0669,-0.01759,-0.00898,4e-05
53.0172,7174.0869,-0.06035,-0.00165,-0.02317
53.0349,7174.1069,-0.06341,-0.01875,-0.02439
53.0562,7174.1269,-0.01759,-0.03402,0.00432
53.0798,7174.147,0.04349,-0.01203,0.03669
53.107,7174.167,0.05266,0.00813,0.06357
53.1208,7174.187,0.03922,-0.0047,0.04036
53.1359,7174.2071,0.06487,0.02218,0.00859
53.1564,7174.2271,0.05938,0.02706,-0.01034
53.1803,7174.2471,0.03066,0.00263,-0.00607
53.2018,7174.2671,0.02822,-0.00959,-0.01706
53.2282,7174.2871,0.03494,0.01607,-0.02012
53.2363,7174.3071,0.02761,-0.00531,-0.03295
53.2744,7174.3271,0.00257,-0.01386,-0.05249
53.2778,7174.3471,-0.01271,-0.01264,-0.04883
53.2963,7174.3671,-0.00904,-0.0218,-0.01767
53.3182,7174.3871,0.01295,0.0179,0.0031
53.3383,7174.407,0.04044,0.01302,0.00432
53.3549,7174.427,0.04533,-0.01508,-0.00057
53.3754,7174.447,0.03311,-0.04135,0.01837
53.396,7174.467,0.05754,-0.02608,0.02753
53.4139,7174.487,0.04288,0.02096,0.00065
53.4393,7174.507,0.00562,0.03684,-0.01706
53.4595,7174.527,-0.00965,0.02829,-0.01645
53.4784,7174.547,0.00928,0.01485,-0.01706
53.5019,7174.567,0.00134,-0.01142,-0.02806
53.5165,7174.587,0.00501,-0.02303,0.00859
53.5344,7174.607,0.0325,-0.00165,0.04219
53.5565,7174.627,0.05938,0.03073,0.02264
53.5739,7174.647,0.0044,0.03073,-0.01034
53.594,7174.667,-0.03103,0.02768,-0.02378
53.6211,7174.687,-0.00477,0.0234,-0.01401
53.6371,7174.707,0.04105,0.00813,-0.02256
53.6541,7174.727,0.06243,0.02523,-0.02989
53.6759,7174.747,0.02517,0.01912,0.00432
53.6938,7174.767,0.00318,-0.01142,0.03364
53.7132,7174.787,0.00928,-0.01325,0.01837
53.743,7174.8069,0.03494,0.01729,-0.01218
53.7563,7174.8269,0.04716,0.02829,-0.02195
53.7762,7174.8469,0.00195,0.00202,-0.01401
53.796,7174.8669,-0.00843,-0.01264,-0.0134
53.8141,7174.8869,0.01112,-0.01508,-0.02256
53.8353,7174.9069,-0.02676,-0.02791,-0.01828
53.8629,7174.9269,-0.04814,-0.04441,0.01226
53.8762,7174.9469,-0.00904,0.01057,0.01531
53.8932,7174.9669,-0.00293,0.04783,0.00371
53.9149,7174.9869,0.00379,0.01607,0.00737
53.9342,7175.0069,0.02395,-0.04257,0.00432
53.9528,7175.0269,0.05571,-0.03219,0.01409
53.9747,7175.0469,0.06915,0.03684,0.02325
54.0019,7175.0669,0.03189,0.0625,0.00432
54.0179,7175.0869,-0.0121,0.04111,-0.03172
54.0502,7175.1069,-0.00415,0.00141,-0.04089
54.0619,7175.1269,0.01478,-0.00959,-0.01034
54.0826,7175.1469,0.02517,0.00446,0.01653
54.1071,7175.1669,0.02944,0.02706,0.00248
54.1188,7175.1869,0.02944,0.01485,0.00432
54.1599,7175.2069,0.03433,0.01179,0.01715
54.1615,7175.2268,0.02578,-0.01264,0.01592
54.1728,7175.2468,0.02395,-0.00103,-0.00485
54.1924,7175.2668,0.03128,0.01668,-0.02134
54.2128,7175.2868,0.027,-0.00775,-0.02928
54.2328,7175.3068,0.02639,-0.02364,-0.02439
54.2609,7175.3268,0.02883,-0.02669,-0.00057
54.2794,7175.3469,0.016,0.01607,-0.00485
54.293,7175.3669,-0.00721,-0.00959,-0.02928
54.3133,7175.3869,0.00257,0.00019,-0.047
54.3351,7175.4069,0.01723,-0.03097,-0.0134
54.3553,7175.427,0.04716,-0.03158,-0.00179
54.374,7175.447,0.04105,-0.00531,-0.00179
54.3958,7175.467,0.01539,0.01912,-0.01156
54.4147,7175.4871,-0.03409,-0.00348,-0.03172
54.441,7175.5071,-0.03714,-0.03158,-0.04761
54.4579,7175.5271,-0.00599,0.00813,-0.05433
54.4754,7175.5471,0.01112,0.01668,-0.047
54.4987,7175.5672,0.01234,0.01363,0.00126
54.5255,7175.5872,0.01967,-0.00042,0.02753
54.5467,7175.6072,0.02761,0.03073,0.02081
54.5621,7175.6273,0.01173,0.02645,0.00432
54.5818,7175.6473,-0.00904,0.00507,0.00798
54.5963,7175.6673,0.03433,-0.0047,0.02753
54.6163,7175.6873,0.08625,0.02401,0.01898
54.6519,7175.7074,0.03922,0.0625,4e-05
54.6626,7175.7274,-0.0347,0.05455,-0.0024
54.6772,7175.7474,-0.01148,0.01607,0.00432
54.6977,7175.7675,0.06915,0.00996,0.03486
54.7151,7175.7875,0.04471,0.0179,0.03853
54.7359,7175.8075,-0.02309,0.08143,0.0147
54.7584,7175.8275,0.016,0.05455,0.00798
54.7789,7175.8476,0.04716,-0.00775,0.01531
54.8016,7175.8676,0.02333,-0.00287,0.04525
54.8161,7175.8876,0.02639,0.04783,0.04891
54.8343,7175.9076,0.05815,0.06372,0.02509
54.8578,7175.9277,0.04044,0.00752,0.00432
54.8768,7175.9477,0.00073,0.0008,0.00371
54.8943,7175.9677,0.01051,0.00935,0.01653
54.9145,7175.9877,0.05999,0.0063,0.02997
54.9462,7176.0077,0.0661,0.01363,0.02509
54.965,7176.0277,0.01967,0.0234,0.00065
54.9804,7176.0476,0.00501,0.04173,-0.00546
55.0009,7176.0676,-0.00965,-0.01264,0.00126
55.0173,7176.0876,0.00379,-0.03402,0.01715
55.0419,7176.1076,0.02089,0.01118,0.01348
55.0632,7176.1276,0.01539,0.0063,0.00126
55.082,7176.1476,0.01234,-0.01386,-0.00301
55.0984,7176.1676,0.01661,-0.00592,0.00859
55.1178,7176.1876,0.04777,0.0008,0.01348
55.1345,7176.2076,0.04227,0.0008,0.00065
55.1549,7176.2276,0.01173,-0.01142,-0.0079
55.1771,7176.2476,0.01661,0.00568,-0.0305
55.1964,7176.2676,0.02395,0.0063,-0.01645
55.2204,7176.2876,0.02761,0.01485,0.00065
55.2388,7176.3076,-0.00049,0.00752,-0.0134
55.2702,7176.3276,-0.01637,-0.0047,-0.036
55.2834,7176.3476,-0.00171,-0.00959,-0.02623
55.2955,7176.3676,0.01967,-0.0047,0.00371
55.3129,7176.3876,0.02395,0.00691,0.03181
55.3333,7176.4076,0.02456,-0.00226,0.02997
55.3561,7176.4276,0.01967,-0.00165,0.02203
55.378,7176.4475,-0.01698,0.00202,0.00982
55.3944,7176.4675,-0.00415,0.03256,0.00432
55.4156,7176.4875,0.038,0.01668,0.0092
55.4343,7176.5075,0.04533,0.0234,0.01165
55.4549,7176.5275,0.02395,0.02706,-0.00485
55.4765,7176.5475,0.02272,0.01546,0.00248
55.4977,7176.5675,0.03433,-0.01142,0.02325
55.5145,7176.5875,0.00379,0.01118,0.02142
55.5366,7176.6075,0.00501,0.05333,-0.01523
55.5596,7176.6275,0.01661,0.04356,-0.02684
55.5768,7176.6476,-0.00843,-0.01447,-0.00912
55.5974,7176.6676,-0.02065,-0.02975,0.02081
55.6157,7176.6876,0.01234,0.01546,0.03058
55.6371,7176.7076,0.04105,0.02035,0.00737
55.6596,7176.7277,-0.00904,0.01912,-0.02134
55.6782,7176.7477,-0.05119,0.01729,-0.02012
55.7,7176.7677,-0.02065,-0.01386,-0.00118
55.7175,7176.7878,0.02028,-0.01875,0.01165
55.7348,7176.8078,0.0325,0.01729,0.03364
55.7606,7176.8278,0.03128,0.02706,0.02936
55.7775,7176.8478,0.01967,0.01912,-0.00423
55.7982,7176.8679,-0.01393,-0.01142,0.00248
55.8218,7176.8879,-0.01454,-0.00959,0.01776
55.8386,7176.9079,0.01661,-0.00287,0.00065
55.8625,7176.928,0.03555,0.00385,-0.0189
55.8768,7176.948,0.01967,0.02584,-0.00668
55.8973,7176.968,0.00012,0.02706,-0.00118
55.9188,7176.9881,0.02333,-0.00409,-0.02806
55.9472,7177.0081,0.01112,-0.00103,-0.03905
55.9638,7177.0281,0.01051,-0.00165,-0.02561
55.9746,7177.0481,0.00379,-0.00165,4e-05
56.0105,7177.0682,0.00379,-0.00165,0.00432
56.0188,7177.0882,0.0099,0.01546,-0.01645
56.0338,7177.1082,-0.00049,0.00324,-0.02928
56.0538,7177.1282,0.00806,-0.00653,-0.00118
