AppTimestamp(s),SensorTimestamp(s),acc_x,acc_y,acc_z,gyro_x,gyro_y,gyro_z,mag_x,mag_y,mag_z,yaw_deg_ori,yaw_deg_ori_cal,yaw_deg,yaw_error,Quat_w,Quat_x,Quat_y,Quat_z,q_w,q_x,q_y,q_z,quat_angle_error_deg
0.063,5778.8081,-0.17431844822020712,0.2637495791552986,-0.09788366875405252,-0.004257304941919657,0.03259480736943892,-0.1385580882016065,0.10523519260529088,11.144088141515299,-17.247767151222597,0.347331,0.20219698917548898,0.0,0.34733099999999695,0.8646099253182211,0.46919701,0.15716401,0.087197,1.0,0.0,0.0,0.0,60.323612738643455
0.0678,5778.8281,-0.21729303772631212,0.2518463830298696,-0.06603327862259434,-0.26921877529694915,-0.13808420287693257,-0.19942718194446019,0.13361450914961637,11.158994093639915,-17.259735814044557,0.264946,0.1543829268795629,0.0,0.264946000000009,0.8651842181117845,0.46878499,0.15592,0.085941,1.0,0.0,0.0,0.0,60.19250557719351
0.0707,5778.8481,-0.2767019309096728,0.25791755209725586,-0.016315318777142096,-0.46785582923312674,-0.26163737347568844,-0.24265157584632596,0.3041317205090788,11.025482859146983,-17.362509470632766,0.590392,0.3483118667881752,0.0,0.5903920000000085,0.8684874650521675,0.46439701,0.15151601,0.084308,1.0,0.0,0.0,0.0,59.43330780185986
0.072,5778.8681,-0.29265969690633675,0.22967149478173443,0.06128378299400872,-0.562635756634917,-0.3179746518524944,-0.2654612596627316,0.5138615181531442,10.820767018637824,-17.502266382546626,0.926483,0.5567625824166583,0.0,0.9264829999999904,0.8730334397129013,0.45794699,0.146222,0.081953,1.0,0.0,0.0,0.0,58.37383714153054
0.0745,5778.888,-0.2467821368501803,0.15434724416102874,0.1585798161379124,-0.5566735636123027,-0.32099670696171395,-0.28479615241069806,0.6260309546002458,10.6609338965004,-17.61064288347292,1.185488,0.7247454015657111,0.0,1.1854879999999923,0.8767816136276124,0.45202801,0.142966,0.080532,1.0,0.0,0.0,0.0,57.48692919966033
0.0955,5778.908,-0.1957719222074423,0.07565297941022298,0.24700421466208233,-0.48731150186876,-0.30222927589968684,-0.3251985066437467,0.6629082596214867,10.59128557196215,-17.664140217636163,1.564719,0.968501536887164,0.0,1.5647189999999966,0.8792962083911201,0.447649,0.141068,0.080922,1.0,0.0,0.0,0.0,56.88483666947601
0.1125,5778.928,-0.1804917339978789,0.030425308243075655,0.2946979562473402,-0.40387126391822603,-0.29398807747725825,-0.39374954951854424,0.6943119829574123,10.612116261007742,-17.66362245008586,1.802117,1.1220676947183836,0.0,1.8021170000000097,0.880827209785631,0.44531301,0.138965,0.080799,1.0,0.0,0.0,0.0,56.515378426442055
0.1578,5778.948,-0.21654709661950572,0.05406738566020497,0.286746916480098,-0.34275217648878153,-0.3262191478855719,-0.4769122114415736,0.7724090055707064,10.658136508578739,-17.65161208947758,1.608361,1.0047027986422514,0.0,1.6083610000000022,0.8823962731979663,0.44378299,0.135648,0.077673,1.0,0.0,0.0,0.0,56.13442130737156
0.1582,5778.968,-0.31370509615163167,0.14615830862426815,0.23128861768229036,-0.3191429333172255,-0.41840705373552645,-0.556883070276791,0.8943829148902487,10.696756902459041,-17.65574529210679,1.380996,0.8663762821255298,0.0,1.3809960000000103,0.884486258267374,0.44170901,0.131005,0.073586,1.0,0.0,0.0,0.0,55.6232675472962
0.1706,5778.988,-0.37077474887100587,0.26660497176174136,0.14716699488708684,-0.3396539179098229,-0.5628604233535034,-0.6117334461189979,0.8349273217401987,10.749837750162222,-17.67926732119693,1.242707,0.7858774767646376,0.0,1.2427069999999958,0.8861817710057682,0.43889499,0.13000099,0.071783,1.0,0.0,0.0,0.0,55.205393799791295
0.192,5779.008,-0.4569670133043071,0.35053425008114747,0.04010414391882833,-0.4060966266180457,-0.7077115137842982,-0.6156881268719312,0.9475160901910392,10.852477129947431,-17.679254116431075,1.464447,0.928887952458746,0.0,1.464447000000007,0.8881745849798113,0.43689701,0.12408,0.069793,1.0,0.0,0.0,0.0,54.71049037267369
0.2117,5779.028,-0.531905399636827,0.34529173820790593,-0.0795829436614035,-0.5150058625438593,-0.788015501929872,-0.5432403004259238,1.3087681309898276,10.999886899607713,-17.636881117187595,1.880508,1.188907274594648,0.0,1.8805079999999919,0.8905285094384121,0.43612999,0.111426,0.065832,1.0,0.0,0.0,0.0,54.120531124116354
0.2331,5779.048,-0.5491488946096299,0.2576884400950199,-0.18021215651810785,-0.634912427805309,-0.7738384546540145,-0.40991765437904615,1.8331028653333048,11.09340551777219,-17.594440114819204,2.416829,1.5268963842734407,0.0,2.416829000000007,0.8938720946265521,0.43415299,0.094181,0.060281,1.0,0.0,0.0,0.0,53.27216113112632
0.252,5779.068,-0.291629938091583,0.160519080891123,-0.20814122373431942,-0.695620580679561,-0.7136795296758462,-0.2648508979017118,1.617748146186431,11.034710111376148,-17.699693067642983,3.257914,2.1047956267904193,0.0,3.2579139999999995,0.8977124452022486,0.425818,0.093157,0.064134,1.0,0.0,0.0,0.0,52.282022574503394
0.2812,5779.088,-0.024405987753882696,0.02266088339921879,-0.15548452742171293,-0.6775785958055013,-0.632602020583344,-0.19789235825249085,1.3511523430405583,10.963047125413345,-17.79850680078441,4.395735,2.907045612568631,0.0,4.395735000000002,0.9015599165262284,0.41676101,0.092584,0.070201,1.0,0.0,0.0,0.0,51.272250131441886
0.2897,5779.108,0.18034808373132716,-0.1603648275679923,-0.04307633231104191,-0.594542172229692,-0.5543090897266827,-0.21558236131217617,1.186402398669375,10.974406549116392,-17.82251445041903,5.080503,3.4092745550089254,0.0,5.080502999999993,0.9044836675324878,0.41060099,0.089593,0.072727,1.0,0.0,0.0,0.0,50.49233741057225
0.3118,5779.128,0.3061066143752073,-0.3627193097891084,0.08032214982634933,-0.4720618621127969,-0.48969243670007223,-0.2622452856991736,1.0758820108933707,11.071343450702447,-17.776566192656986,5.230805,3.5338554819308046,0.0,5.230805000000004,0.906400773310449,0.40741101,0.085543,0.071668,1.0,0.0,0.0,0.0,49.97478112478488
0.3381,5779.148,0.3299225405030968,-0.5058041448763548,0.16901965073633818,-0.3334159375501191,-0.4326066594349669,-0.27919348223280493,1.0383376317469044,11.136593956420004,-17.731944914979884,5.270465,3.5862405854926167,0.0,5.2704650000000015,0.9086796953865206,0.40386301,0.079989,0.069265,1.0,0.0,0.0,0.0,49.35294370276962
0.35,5779.168,0.26702438265454415,-0.5872040788717197,0.19108199148497818,-0.1978592238382065,-0.3691557917913846,-0.2446886556327238,1.0737152480485674,11.201333778810735,-17.669398062835327,5.501924,3.7662470475777443,0.0,5.5019240000000025,0.9108936108560975,0.40057701,0.072619,0.06736,1.0,0.0,0.0,0.0,48.741729027226555
0.372,5779.188,0.22200663998281472,-0.6142246099343787,0.13432097596916392,-0.08656759282555865,-0.2988657656811337,-0.17670768063281556,0.9858683046566783,11.329356570375449,-17.562006783782028,5.80529,3.9826635565549613,0.0,5.805290000000014,0.911894219735491,0.399165,0.067848,0.067178,1.0,0.0,0.0,0.0,48.463109347456076
0.3902,5779.208,0.19522257983099411,-0.5734555981972127,0.017889245909156415,-0.016682928639118945,-0.23968798754646736,-0.1171156557679608,0.792615825158012,11.509337321917682,-17.418808145761044,6.196873,4.246226639011275,0.0,6.196873000000011,0.9118701146801554,0.39941001,0.065283,0.068576,1.0,0.0,0.0,0.0,48.469839087628785
0.4096,5779.228,0.1800367228581653,-0.47026028407352705,-0.1186182340692632,0.009959064783805472,-0.21618279904791093,-0.09988393900511963,0.49519150076145857,11.69832311348928,-17.26959690061144,6.620736,4.526645477331834,0.0,6.620735999999994,0.9113023038098828,0.40029001,0.065022,0.071191,1.0,0.0,0.0,0.0,48.628109569341575
0.4343,5779.248,0.15332176670329956,-0.32473039349415167,-0.23012224074042287,0.008713461143622052,-0.2405729486304671,-0.12938385440970107,0.17579062432690118,11.825462030232254,-17.158903960249813,6.794391,4.646746468236326,0.0,6.79439099999999,0.9111828417733732,0.40020999,0.065649,0.072581,1.0,0.0,0.0,0.0,48.66134660692309
0.4497,5779.268,0.07044459172434125,-0.186475826877202,-0.2842746972169312,0.0016152940808117494,-0.29979964466420095,-0.17973556268359525,-0.04087192271144402,11.88904963926658,-17.08693719831507,6.786884,4.653318994412421,0.0,6.786883999999986,0.9118389692433416,0.39903799,0.064345,0.071959,1.0,0.0,0.0,0.0,48.47853308817093
0.4699,5779.288,-0.0861791991914529,-0.1000133270437713,-0.269526706849355,0.0017251701493365586,-0.35869643879101515,-0.21443459317084063,-0.11593127086230243,11.941539164849711,-17.020438428744267,6.84192,4.6993595976742455,0.0,6.841919999999988,0.9127488469307752,0.39792299,0.059934,0.07039,1.0,0.0,0.0,0.0,48.22394102436008
0.4934,5779.3079,-0.3076688634606165,-0.06713330884085966,-0.19076595059475743,0.006827569566181933,-0.3810933923519473,-0.2091334473576132,-0.0875745801432265,12.009566340311226,-16.944120352508353,7.077851,4.861077695304843,0.0,7.07785100000001,0.913483446145621,0.39744601,0.053168,0.068977,1.0,0.0,0.0,0.0,48.0174677595871
0.5407,5779.3279,-0.5545516454920787,-0.0881305453456589,-0.0552179769989003,0.008274223102355788,-0.3511649873585422,-0.16164072507733895,-0.09287924513463391,12.115673348470962,-16.84332044198951,7.471498,5.1169929416841535,0.0,7.471497999999997,0.91346005291601,0.39826599,0.04719,0.068906,1.0,0.0,0.0,0.0,48.02405574795818
0.5549,5779.3479,-0.8007567524247459,-0.15260409448068746,0.13594840095326077,0.006155206522039373,-0.2786769053616869,-0.0813524986344658,-0.20350316269117785,12.228054437026206,-16.74010483826834,7.850456,5.3561677731920865,0.0,7.850456000000008,0.9129276391767968,0.39969599,0.043881,0.069862,1.0,0.0,0.0,0.0,48.17376465279083
0.562,5779.3679,-1.041114885967433,-0.228861430056841,0.3756644774665876,0.017157618439504183,-0.18538238819725322,0.024808354351720407,-0.3822372006018256,12.269001053407255,-16.69137560582124,8.015674,5.467945624596194,0.0,8.01567399999999,0.9129319941418088,0.39971301,0.042725,0.070422,1.0,0.0,0.0,0.0,48.17254185949042
0.581,5779.3879,-1.2876976524646184,-0.30525773949444446,0.632149639206327,0.06254028245039225,-0.09143818406491189,0.15209398285468248,-0.538732948735511,12.230644523051197,-16.709500445263334,8.043249,5.509069955581897,0.0,8.043249000000003,0.9137828623471442,0.39793301,0.041553,0.070168,1.0,0.0,0.0,0.0,47.933071109184176
0.592,5779.4079,-1.4987879501547932,-0.41805808778866194,0.8573075233420351,0.14675114710980772,-0.017102466170722502,0.28864434383625104,-0.71828791408094,12.208950795209443,-16.729803977995918,8.068644,5.539613729157601,0.0,8.068644000000006,0.9142575696508396,0.39689299,0.04106,0.070165,1.0,0.0,0.0,0.0,47.798977676414374
0.612,5779.4279,-1.5836210504801689,-0.5957941575614134,1.0122883242404797,0.25327497209938443,0.018634032984248594,0.411830755818477,-1.0947877930699699,12.264206630196384,-16.698871417431235,8.156881,5.581879313114463,0.0,8.156880999999998,0.9132011840187244,0.39849001,0.045046,0.072389,1.0,0.0,0.0,0.0,48.096901588697484
0.6312,5779.4479,-1.576343779670783,-0.8010828636815432,1.0629853104767015,0.3552424760309463,0.01201618847242153,0.5038774531424168,-1.5440699068168486,12.351343766425682,-16.639403256041383,8.327044,5.661127893912759,0.0,8.327044,0.9112546913711884,0.401577,0.050883,0.075906,1.0,0.0,0.0,0.0,48.64135898203162
0.6518,5779.4679,-1.5493607189849299,-1.0131973280664717,0.9891786169380374,0.4324420314593395,-0.016763247890334787,0.5711527100412824,-1.8996624360221235,12.433943278542943,-16.57808809281169,8.662424,5.843754171400176,0.0,8.662423999999987,0.90916642333487,0.40502599,0.054933,0.079704,1.0,0.0,0.0,0.0,49.21917920608488
0.6726,5779.4879,-1.5003319347267567,-1.2311530744421733,0.7869504243185155,0.4807510718656529,-0.029102431455625077,0.6426867162517593,-2.182054888624239,12.483434572967429,-16.530495907809993,9.111317,6.103289232287789,0.0,9.111316999999985,0.9072559345921414,0.40808299,0.057838,0.083724,1.0,0.0,0.0,0.0,49.74229122957451
0.6911,5779.5079,-1.424883798360751,-1.436781312964766,0.4469335947386348,0.5007893606864445,0.011856823177035236,0.7584159079769927,-2.4058979564035345,12.47538860539533,-16.51619331828428,9.543693,6.365098110158093,0.0,9.54369299999999,0.9059073998618954,0.40997699,0.060115,0.087389,1.0,0.0,0.0,0.0,50.10845362783685
0.711,5779.5279,-1.3344902641106753,-1.608988451857364,-0.048622791726756986,0.4813745566129728,0.12072139779838653,0.9491659801384238,-2.561383086506517,12.42742305278124,-16.529141245132955,9.996969,6.652076511960328,0.0,9.996969000000007,0.9050288608561164,0.41097599,0.061465,0.090794,1.0,0.0,0.0,0.0,50.34565917677259
0.7365,5779.5479,-1.186552608989678,-1.7323922906711302,-0.6978529669145974,0.3986347553600441,0.27335829304468373,1.2128391702293404,-2.7596618398182553,12.390543178170233,-16.517891756600655,10.458269,6.932890152269858,0.0,10.458269000000001,0.9036390849210764,0.412653,0.064385,0.094913,1.0,0.0,0.0,0.0,50.71878023806687
0.7635,5779.5679,-0.9324968416111247,-1.7686995022819216,-1.4518211039252549,0.22994077485783598,0.4059613844136272,1.5096593660486572,-3.141139070555638,12.357918540049694,-16.46240918488681,10.959087,7.2275174419625845,0.0,10.959087000000011,0.9011718469314052,0.41521201,0.072131,0.101417,1.0,0.0,0.0,0.0,51.37493726169933
0.7921,5779.5879,-0.5695437667143395,-1.6781866395925764,-2.2090017147221293,-0.019887500737962666,0.439545075805738,1.7771042436569497,-3.7080689417354886,12.251786221455035,-16.406896320395504,11.543147,7.606013051534161,0.0,11.543147000000005,0.8982896957763236,0.41660401,0.085017,0.110855,1.0,0.0,0.0,0.0,52.131683667500496
0.7986,5779.6079,-0.09814983690133317,-1.4659627364340047,-2.8425246433652287,-0.29605870087159103,0.3235114532455189,1.9570790487144847,-4.370434064435727,11.984061531900924,-16.413499269619965,12.200692,8.125362229310413,0.0,12.200692000000004,0.8961953006033226,0.41417399,0.101428,0.1225,1.0,0.0,0.0,0.0,52.67524495255375
0.8173,5779.6279,0.47951312087772124,-1.1619106038611897,-3.2501895337108273,-0.5145068117575264,0.07330283545490524,2.021855927154522,-4.936073920432255,11.503421425271718,-16.54684374711946,13.08069,8.947903462103511,0.0,13.080690000000004,0.8963043470710492,0.40570101,0.117244,0.13527399,1.0,0.0,0.0,0.0,52.64707266926951
0.8344,5779.6479,1.159492302767941,-0.807525326340381,-3.3937601178862753,-0.608483309675088,-0.2376910164201803,1.9800965667324402,-5.1855183934218285,10.908877371159292,-16.790431464474306,14.444119,10.237570440722562,0.0,14.444119,0.8987082365794807,0.39263999,0.127094,0.148339,1.0,0.0,0.0,0.0,52.022426424004614
0.8549,5779.6679,1.934402263373785,-0.4088276189642088,-3.302210717348747,-0.559512387935384,-0.5130787401915915,1.8625854331699196,-5.081590969985633,10.35591641777789,-17.05221754766938,16.465097,12.057020469807913,0.0,16.465097000000014,0.9019055615487132,0.37870601,0.12936901,0.162517,1.0,0.0,0.0,0.0,51.18062725316581
0.8916,5779.6879,2.7531454030925904,0.06416075159040124,-3.0571023827106707,-0.41188747001646264,-0.6728491840897284,1.7054196373125095,-4.707045764987559,9.960952805410034,-17.23710775465874,18.945625,14.199714252536566,0.0,18.945625000000007,0.9044024440800678,0.367091,0.125525,0.177606,1.0,0.0,0.0,0.0,50.51415561269111
0.899,5779.7079,3.54290009944716,0.6353070519906345,-2.7635905527325946,-0.25542667224644183,-0.6902371710031912,1.5396313523463108,-4.24595289742952,9.77282771475006,-17.272209651581438,21.508978,16.326995070827845,0.0,21.508978000000013,0.9050372929831232,0.35978901,0.119632,0.192737,1.0,0.0,0.0,0.0,50.34338746973403
0.9152,5779.7279,4.193626298489642,1.273321109476784,-2.47197486791773,-0.1973810120988047,-0.5950510245491627,1.3813884266534469,-3.745659688042691,9.812147448846389,-17.14868382811987,23.921736,18.199852479138613,0.0,23.92173600000001,0.9038794458891296,0.35746801,0.11253,0.20629001,1.0,0.0,0.0,0.0,50.654432812689244
0.9455,5779.7479,4.593347157145824,1.9046697854870853,-2.1314990820615485,-0.30049910985820716,-0.4497895370124232,1.2242668868542093,-3.1125873587527733,10.032670757523775,-16.923279065405424,26.159897,19.806809696178487,0.0,26.159897,0.9022483152275764,0.358367,0.101912,0.217106,1.0,0.0,0.0,0.0,51.0896195021461
0.9588,5779.768,4.760692053462615,2.559430219673043,-1.7188610792749852,-0.5167189528671386,-0.3218596301880284,1.032383480832594,-2.609781563967398,10.195681597161336,-16.69895293797039,28.185534,21.354092458450207,0.0,28.18553399999999,0.9006997890627264,0.35733199,0.094844,0.228163,1.0,0.0,0.0,0.0,51.499591230903754
0.9783,5779.788,4.723235039410277,3.1603901929831277,-1.164791363284376,-0.743398151891981,-0.274794201215385,0.7474986947256473,-2.2347368862054386,10.250889313945308,-16.536169481392953,29.890272,22.848291989369503,0.0,29.89027200000001,0.8999942834795229,0.35264099,0.091676,0.23927,1.0,0.0,0.0,0.0,51.68536832815052
1.0074,5779.808,4.518658904598674,3.602149826413317,-0.39470938250314624,-0.857810809895889,-0.32900824681267676,0.33405771913291826,-1.8513998520902468,10.223736727790415,-16.454166169405227,31.215876,24.245219890131068,0.0,31.21587600000001,0.9009218492441394,0.34407601,0.089121,0.249016,1.0,0.0,0.0,0.0,51.440987969691925
1.0235,5779.8281,4.19222444924733,3.790081751759398,0.6169545553233728,-0.7728866090273632,-0.4503471544417633,-0.18750449575323297,-1.3367082902300542,10.210495861355506,-16.404901288658454,32.124733,25.385883125634752,0.0,32.12473299999999,0.9034809105153024,0.333846,0.083532,0.25552201,1.0,0.0,0.0,0.0,50.761083804668104
1.0398,5779.8481,3.775844153332034,3.6418401653472157,1.818804890565172,-0.4829659854933086,-0.5662762317346408,-0.7455354789373536,-0.5823302348869732,10.346134988193093,-16.292502718487636,32.467167,25.93345195900339,0.0,32.46716700000002,0.907279434205438,0.32605699,0.071316,0.255822,1.0,0.0,0.0,0.0,49.73588810476581
1.0526,5779.8681,3.2878798700289003,3.1096705442319403,3.064699440679039,-0.05842252257574304,-0.6067871917646035,-1.2556663791530451,0.33679113498085966,10.743841666472942,-15.997435785664496,32.431355,25.852701236811907,0.0,32.431354999999996,0.9102864606874256,0.325517,0.052879,0.25024199,1.0,0.0,0.0,0.0,48.91006333637508
1.0769,5779.8882,2.7693578680861033,2.321284041240493,4.1214900436820034,0.3982289007365993,-0.537897369034292,-1.6570692267722729,1.192054594898659,11.290158950460786,-15.550627324788405,32.257568,25.44019568786569,0.0,32.25756799999999,0.9114285896678906,0.33102,0.03374,0.242044,1.0,0.0,0.0,0.0,48.592950774611865
1.0935,5779.9083,2.2345392108522724,1.4291188090481128,4.813908709569226,0.8034986204315868,-0.36604952864400386,-1.927320451608002,1.9480909670246471,11.836181371877053,-15.048019726349265,31.811237,24.72984966794978,0.0,31.811237000000006,0.9116431670275384,0.339338,0.015762,0.231318,1.0,0.0,0.0,0.0,48.53315619859147
1.1174,5779.9283,1.6911668243169435,0.5376063120298316,5.058469900427953,1.1127047024417558,-0.1236911563432026,-2.0715063884992864,2.6176813520102953,12.31506495398861,-14.55887017557866,30.925259,23.645971246911234,0.0,30.92525900000001,0.9115484614188868,0.34909299,-0.000526,0.21728601,1.0,0.0,0.0,0.0,48.559555588658284
1.1366,5779.9484,1.176523587096857,-0.30433909257012903,4.853923123394825,1.3081157952862166,0.15582075923250205,-2.11411025014264,3.142636227543136,12.751782906045905,-14.109581165129375,29.699253,22.23543564981656,0.0,29.699253,0.910565237835884,0.36100599,-0.013565,0.200902,1.0,0.0,0.0,0.0,48.832839124508595
1.154,5779.9685,0.7575396190209069,-1.0367427244143927,4.269705997223845,1.3876104054812477,0.43834655466393624,-2.090798393785721,3.437506791748309,13.154323284019501,-13.751604431204681,28.175663,20.538194731415942,0.0,28.175662999999986,0.9085249181677406,0.37479499,-0.020863,0.18351001,1.0,0.0,0.0,0.0,49.39540901921617
1.1721,5779.9885,0.37068788524275753,-1.6145911907461183,3.4290564746455274,1.3874410372855115,0.6898680525249254,-2.0259407030094865,3.6134936527174317,13.48415319338332,-13.522293738304404,26.400366,18.69844805920996,0.0,26.40036599999999,0.9061774237734572,0.38834399,-0.025052,0.16554099,1.0,0.0,0.0,0.0,50.03533588927087
1.1931,5780.0086,-0.03039526895587752,-2.032292921389714,2.4505653058744876,1.3571560986559459,0.8918680720273455,-1.940104215192255,3.758322193053605,13.702082919187264,-13.448795887010544,24.440706,16.853127527558275,0.0,24.440706000000006,0.9041253108872686,0.400042,-0.028585,0.147332,1.0,0.0,0.0,0.0,50.58853280876459
1.2152,5780.0286,-0.3873116157386358,-2.3223963669247984,1.421127326741459,1.3296942737279327,1.0423084209545161,-1.8592938785283555,3.7801069357029564,13.806139118459166,-13.560462445820853,22.265276,14.974631216954418,0.0,22.265276,0.902352521957832,0.410007,-0.029587,0.12953299,1.0,0.0,0.0,0.0,51.061920603009234
1.2446,5780.0487,-0.6916678401970435,-2.5075910088172364,0.39710007105571776,1.3330633443835107,1.1357758735551078,-1.801407044051218,3.639875018129317,13.784557226712865,-13.873630103361913,19.766693,12.994798103807744,0.0,19.766693000000004,0.900999189429824,0.41824001,-0.027539,0.111881,1.0,0.0,0.0,0.0,51.420562731927106
1.2606,5780.0688,-1.004717565684717,-2.591568077824374,-0.6016992031713748,1.3832099733501717,1.1666474308439647,-1.7684026714012617,3.4250666156220255,13.635600675030245,-14.35165400038053,16.989922,10.947902256472608,0.0,16.989922000000007,0.899985704152016,0.425015,-0.025156,0.093569,1.0,0.0,0.0,0.0,51.68762364981173
1.2957,5780.0888,-1.312662367903357,-2.582832649510041,-1.577273392156485,1.445082074733611,1.1491896491728428,-1.7564874661292884,3.09194476987005,13.44360292108794,-14.903550245289193,14.072713,8.86402421223785,0.0,14.072712999999993,0.8982047154951592,0.43253699,-0.02172,0.075288,1.0,0.0,0.0,0.0,52.15384119229086
1.2965,5780.1089,-1.6270950793069465,-2.4545447894803156,-2.521113992822328,1.4666549448781365,1.0973047242900198,-1.7550177487598102,2.7123412372451905,13.270945182745557,-15.43635216181956,10.906842,6.676805815324759,0.0,10.906842000000012,0.8951654694247092,0.44183201,-0.018115,0.055992,1.0,0.0,0.0,0.0,52.94061652411309
1.3182,5780.1289,-1.9729727954339842,-2.159028190798941,-3.3978383515237347,1.4008107535470458,1.0247512296707177,-1.7539674929370856,2.418992123252293,13.11172856105404,-15.92551507855097,7.512794,4.465589487552822,0.0,7.512794000000014,0.8915856828906462,0.45117101,-0.016382,0.035374,1.0,0.0,0.0,0.0,53.85363128284876
1.3399,5780.149,-2.3241682181560828,-1.7196643198793509,-4.155530185628857,1.2077691533888315,0.958759458393899,-1.755560706869673,2.1661585313852014,12.979347682998416,-16.37124145906258,4.128606,2.3916335017024557,0.0,4.128605999999991,0.8881519336747851,0.45903701,-0.014888,0.015796,1.0,0.0,0.0,0.0,54.71613888180049
1.3537,5780.1691,-2.6622328896439402,-1.2233062680285574,-4.735548140604018,0.8771427773806497,0.9137352957823577,-1.7667071027835592,1.8523578005442305,12.884579390389838,-16.765778653666835,0.586937,0.33342230718501514,0.0,0.586937000000006,0.8853493308710974,0.46479499,-0.010794,-0.002381,1.0,0.0,0.0,0.0,55.41091845981014
1.3721,5780.1891,-3.0393670886016073,-0.7485173675875711,-5.100818363187506,0.4515793613084762,0.8752231662843069,-1.774941840516155,1.5946055933391063,12.759720353346053,-17.120194763920058,-3.239711,-1.8254869984372464,0.0,3.239711,0.8838550490244427,0.467217,-0.006675,-0.02154,1.0,0.0,0.0,0.0,55.778098200288774
1.3937,5780.2092,-3.4731691275571053,-0.36062992004419603,-5.212589182139748,-0.021376022989283212,0.8213457764997097,-1.7542881899583391,1.322189537918585,12.493050958019076,-17.51300200526192,-7.368818,-4.19574534047712,0.0,7.3688180000000045,0.884660850242826,0.46433201,-0.001416,-0.042059,1.0,0.0,0.0,0.0,55.58037145518681
1.4142,5780.2293,-3.964210964920359,-0.12084594382015412,-5.031330957667453,-0.4995868739952159,0.7405744641251689,-1.6455047960393585,0.8669025667949188,12.109827780657852,-17.94672490096521,-11.594582,-6.766611841375111,0.0,11.594582000000003,0.8870237116243286,0.45743999,0.007978,-0.062241,1.0,0.0,0.0,0.0,54.99680388698327
1.4348,5780.2493,-4.551044522916778,0.03576758056023932,-4.5720485255036465,-0.9123076660193038,0.6455357448052661,-1.3840248353729732,0.5525470402638268,11.649960989544788,-18.39478078030091,-15.539928,-9.344474145889077,0.0,15.539928000000003,0.8895965958815826,0.44870499,0.013713,-0.084224,1.0,0.0,0.0,0.0,54.35480199130499
1.46,5780.2694,-5.176610415934624,0.20538909442955866,-3.8315423923046126,-1.2287146661933048,0.5571143014954089,-0.9441993847224068,0.43756445652031517,11.10951742302307,-18.87566728141515,-19.14509,-11.897263659704672,0.0,19.14509000000001,0.8921853395281722,0.438261,0.014113,-0.108321,1.0,0.0,0.0,0.0,53.701693319341594
1.4803,5780.2894,-5.6089355510192345,0.2878796089352158,-2.718584087290175,-1.4600664451437841,0.43580269818814776,-0.34329933720573996,-0.15978121284913938,10.533786020240269,-19.3660007295111,-21.886477,-14.145325256231152,0.0,21.886477000000014,0.8960944033060243,0.42531899,0.024103,-0.12465,1.0,0.0,0.0,0.0,52.70129943216209
1.5175,5780.3095,-5.710335034123575,0.30508192918752863,-1.3119030133839118,-1.5678329066497154,0.26423124917712104,0.3161514541673407,-1.0633885963515883,9.950123816699403,-19.799494534209956,-23.381262,-15.759427953530766,0.0,23.381261999999992,0.9012562224189966,0.41065201,0.040397,-0.132175,1.0,0.0,0.0,0.0,51.35262694149822
1.5247,5780.3295,-5.457123716220323,0.38713229949338546,0.191996456191589,-1.5446759374243613,0.07931976094733739,0.9121436208595279,-1.8269807880218094,9.344729960766514,-20.16221521135105,-23.683689,-16.62655452387853,0.0,23.683689000000015,0.9073288094545218,0.39475799,0.053943,-0.134204,1.0,0.0,0.0,0.0,49.722431926062434
1.5411,5780.3495,-4.862848579054299,0.52235153919223,1.6350120941094168,-1.4181370221030574,-0.08027234559717167,1.3745230791379113,-2.3702396491540387,8.826645733521458,-20.40471430510113,-22.878639,-16.61771749176209,0.0,22.878638999999993,0.9136189901691404,0.37991601,0.064072,-0.129842,1.0,0.0,0.0,0.0,47.979279176134504
1.5535,5780.3696,-3.9482317755974825,0.663166694213106,2.9273834924651574,-1.208422763005274,-0.1868560730834672,1.6806040088863279,-2.784124671905313,8.508985710854091,-20.476307952283005,-21.427423,-15.980281632262264,0.0,21.427423000000005,0.9192048272050684,0.36770499,0.073676,-0.120114,1.0,0.0,0.0,0.0,46.379782877713964
1.5752,5780.3896,-2.808274151472381,0.8329025685485583,3.993156983220679,-0.9290522711104405,-0.22066378056671831,1.8355514740013665,-3.069363874112224,8.40087637354406,-20.391029516084345,-19.912327,-15.175287529487411,0.0,19.912327000000005,0.923826985292982,0.35742599,0.082799,-0.109246,1.0,0.0,0.0,0.0,45.01573224614684
1.5924,5780.4096,-1.6375917676380767,1.0412272957319555,4.759000662001288,-0.5962593909268608,-0.189872631580984,1.8630429997603695,-3.1881998890435606,8.449623854406049,-20.205918396558985,-18.371569,-14.268625538933954,0.0,18.371568999999994,0.927986021251398,0.347931,0.09002,-0.098399,1.0,0.0,0.0,0.0,43.753964565604186
1.6213,5780.4296,-0.5768322034485238,1.1834567810468473,5.188238523796969,-0.22580721048675545,-0.13632292869936913,1.7990969052822692,-3.2538487449872817,8.698710572149501,-19.920353699218744,-16.804577,-13.231544586368297,0.0,16.804576999999995,0.9309545852757802,0.34119999,0.097163,-0.086403,1.0,0.0,0.0,0.0,42.83178077698673
1.6364,5780.4497,0.2887834471794144,1.1522347725586615,5.267713515096679,0.15063282107319212,-0.10255684169122536,1.6827802991686371,-3.369371696796148,9.180983851313162,-19.528679257258165,-15.410217,-12.19708819727176,0.0,15.410216999999989,0.9316395683880648,0.33981499,0.105591,-0.073648,1.0,0.0,0.0,0.0,42.61629348578275
1.6575,5780.4697,0.8171080156101362,0.9610991683676682,5.015598243856212,0.4837663102722512,-0.1105263104189318,1.5589802104613484,-3.4147978221101294,9.786014720711353,-19.115169378169202,-14.191339,-11.18980638207012,0.0,14.191339,0.9306013616619632,0.34314501,0.111448,-0.061741,1.0,0.0,0.0,0.0,42.942497795028586
1.6802,5780.4897,1.0447591227541178,0.6763843595848451,4.482807580137679,0.7527941359346598,-0.1671914109398399,1.4684138763789503,-3.4409975810491793,10.371742314666909,-18.75033866354955,-13.128775,-10.26488579447808,0.0,13.12877499999999,0.9287634029646086,0.34856999,0.115248,-0.051141,1.0,0.0,0.0,0.0,43.51426921749469
1.7018,5780.5097,1.0611668551133842,0.3311269493655562,3.7336208139767013,0.9522999124439395,-0.26833449237676454,1.4306629756342977,-3.4996236995245993,10.89993907879213,-18.43854801167334,-12.054602,-9.321327144472082,0.0,12.054601999999988,0.9264641196716686,0.355039,0.118192,-0.040524,1.0,0.0,0.0,0.0,44.21964487562875
1.7203,5780.5297,0.944461304370795,-0.06781433350664212,2.8333359359309647,1.0794644712160928,-0.40019352648467177,1.445450257512189,-3.5563599020002377,11.411706024450446,-18.131732514762007,-10.750267,-8.187519680591139,0.0,10.750267000000008,0.9235832213748472,0.36304301,0.119953,-0.028374,1.0,0.0,0.0,0.0,45.08864528380699
1.7408,5780.5496,0.7921267935658476,-0.48940351650027836,1.8389478995798232,1.1348432352981435,-0.5402368449534608,1.4993826169730258,-3.584056807306877,11.925021541853857,-17.78321503915882,-9.152394,-6.835312221536474,0.0,9.152393999999987,0.9200671022182132,0.37248901,0.120499,-0.014438,1.0,0.0,0.0,0.0,46.12821241751117
1.7562,5780.5696,0.667640040396216,-0.8785221958179523,0.8071335273311782,1.1217387630830953,-0.6620065311308698,1.5805030920018308,-3.5497662016982723,12.396426788050306,-17.399236447062535,-7.202484,-5.262721142245651,0.0,7.202483999999998,0.9164059411803374,0.38203099,0.11938,0.000943,1.0,0.0,0.0,0.0,47.18763004751157
1.7741,5780.5896,0.6089386246984767,-1.195736344768708,-0.20898530488782008,1.051201667405676,-0.7453319783663565,1.6812032486598585,-3.453444936333016,12.76818818170363,-17.017190707891835,-4.83573,-3.460300526464177,0.0,4.835730000000012,0.9131505132178483,0.39019901,0.116577,0.017626,1.0,0.0,0.0,0.0,48.111148236321746
1.7955,5780.6096,0.6733219377986359,-1.419863272984403,-1.1689031569634167,0.9454695447625023,-0.7847893465112342,1.7890966373013413,-3.3757978575921785,13.001617934589476,-16.669518867361045,-2.297993,-1.617966923844369,0.0,2.297992999999991,0.9104396842031875,0.396072,0.11415,0.034588,1.0,0.0,0.0,0.0,48.86763298273657
1.8181,5780.6296,0.8685831228994921,-1.5490108004966623,-2.0414243420117675,0.8192176713630687,-0.788589135088718,1.888129359875515,-3.344326203584423,13.104261402090074,-16.37478815945303,0.367041,0.2555334067402567,0.0,0.3670410000000004,0.9081174612251436,0.399905,0.112672,0.051997,1.0,0.0,0.0,0.0,49.50703733942064
1.8332,5780.6496,1.1824699766870626,-1.5787217247606287,-2.7975627680826003,0.6799079140994567,-0.7650052343376765,1.958700816076241,-3.391176782170878,13.082648954202888,-16.149891400835433,3.380036,2.338197032672724,0.0,3.38003599999999,0.9059443771368528,0.40185601,0.11246,0.071619,1.0,0.0,0.0,0.0,50.09844673001016
1.8596,5780.6696,1.5649394890598183,-1.5075525692371925,-3.4056396993314495,0.5217134581146647,-0.7212384411561888,1.990155235304731,-3.4327486487297145,12.93648944438223,-16.033996177964383,6.681116,4.618539025779428,0.0,6.681116000000003,0.9043072669629388,0.40144899,0.111889,0.092455,1.0,0.0,0.0,0.0,50.539710842138994
1.8736,5780.6896,1.975567382565775,-1.3655598888678946,-3.8476006803886147,0.3418743314236767,-0.6691916517495923,1.9840761422887718,-3.4148375439551915,12.701807538050371,-16.01744502743765,9.948898,6.903453093497738,0.0,9.948897999999986,0.903204846769934,0.39921501,0.110419,0.112499,1.0,0.0,0.0,0.0,50.83483798942953
1.8921,5780.7096,2.3979537482766036,-1.1918877721104169,-4.116962855804532,0.14556835953834613,-0.6273624111714585,1.9512268191712676,-3.342193069006905,12.433743631618524,-16.049731347212006,12.961828,9.041743110443187,0.0,12.961827999999997,0.9021747493901832,0.39646199,0.108572,0.130808,1.0,0.0,0.0,0.0,51.10916539855652
1.9122,5780.7296,2.828923141102564,-0.9888296755101658,-4.198359208398536,-0.052030947839134034,-0.6058131558095612,1.90072939758774,-3.228491412135944,12.123942608834371,-16.125111429928232,15.79391,11.105484144230225,0.0,15.793910000000011,0.9013800394760024,0.39268699,0.106666,0.14809901,1.0,0.0,0.0,0.0,51.319871229212026
1.9355,5780.7496,3.2628098933788103,-0.7183631347442967,-4.07527922868745,-0.22228157741329962,-0.5965812915464997,1.8293034349039834,-3.0732406432640116,11.707000568390999,-16.283890708172176,18.58423,13.274660977584741,0.0,18.58422999999999,0.901627637584208,0.38559401,0.104732,0.16557799,1.0,0.0,0.0,0.0,51.25431080167079
1.9559,5780.7696,3.6553632644709624,-0.36075921046929427,-3.7528844347666865,-0.34019627758198157,-0.5881716624491194,1.7199500752893644,-2.8007892096484532,11.216526423951983,-16.505600522628242,21.526011,15.716758227957921,0.0,21.52601100000001,0.9028745580094611,0.37526101,0.100723,0.183988,1.0,0.0,0.0,0.0,50.922948086845224
1.9741,5780.7896,3.9766617143404153,0.08920459748062237,-3.2956121722736533,-0.38816014827436607,-0.5724840870785373,1.5604017984945129,-2.4589568236162003,10.745461318173172,-16.712333562917163,24.512667,18.307391775792713,0.0,24.512666999999993,0.9039623971778028,0.36402199,0.095486,0.203033,1.0,0.0,0.0,0.0,50.63220806150158
1.9948,5780.8096,4.209350215749785,0.6044804643735215,-2.7933410456916974,-0.38365889823357535,-0.545980620790431,1.3546595072290415,-2.0757611044835684,10.386819645660601,-16.844871086779833,27.148348,20.648906736647266,0.0,27.148348,0.9044184225115496,0.35443601,0.089589,0.219946,1.0,0.0,0.0,0.0,50.50986419042152
2.0247,5780.8296,4.322241435403586,1.1392815166005907,-2.2896951847226443,-0.3771782703662761,-0.5133809757040197,1.1116713211164089,-1.5840873218596994,10.208591737901124,-16.87902581208681,29.459698,22.6596570363367,0.0,29.459698000000003,0.9043508098531784,0.34788299,0.080774,0.23367199,1.0,0.0,0.0,0.0,50.52802099535298
2.0428,5780.8496,4.3424620656173225,1.6872245463556967,-1.810659254126075,-0.4009626397741014,-0.48395902896706283,0.8362015887539571,-1.1067084932219724,10.191752422124736,-16.822330892444665,31.616396,24.462858812708788,0.0,31.61639600000001,0.9032693501541388,0.34419399,0.071492,0.246016,1.0,0.0,0.0,0.0,50.81761398033791
2.0633,5780.8696,4.284635629188131,2.2404574055684496,-1.339218641027042,-0.4623672732416314,-0.4635743505722156,0.5234874382971524,-0.6676687175565914,10.231020068092104,-16.744909970600162,33.524982,26.096055006398576,0.0,33.524981999999994,0.902163663126353,0.34062201,0.062859,0.25714999,1.0,0.0,0.0,0.0,51.11211033194558
2.0825,5780.8896,4.140182703393894,2.721660349002533,-0.8236879884043606,-0.5355028122764297,-0.45866679914343167,0.16779487973868423,-0.1854162203276657,10.287455138092099,-16.67234197584108,35.040447,27.48764300488573,0.0,35.040447,0.9019883565927554,0.33600199,0.053289,0.26585701,1.0,0.0,0.0,0.0,51.15865739542536
2.0924,5780.9096,3.929841566351116,3.0479620398918024,-0.23270368107469075,-0.5716188141400939,-0.47168048503524096,-0.22035231375352227,0.3206310795778129,10.357410998621082,-16.596483324860316,36.033966,28.507575663868604,0.0,36.03396599999999,0.9028182931841046,0.33082801,0.043355,0.27127901,1.0,0.0,0.0,0.0,50.937943496911686
2.1135,5780.9296,3.651804836754485,3.155418527649908,0.45517367175405354,-0.5280727409197984,-0.4988147397328331,-0.6152907178508644,0.8632163023408543,10.46351744601887,-16.49678637988071,36.53006,29.120700928679483,0.0,36.53005999999999,0.9044708570002572,0.326033,0.032517,0.27308899,1.0,0.0,0.0,0.0,50.49577915426537
2.134,5780.9495,3.2951324107554236,3.0469917613772366,1.2212524898808823,-0.3830578487848857,-0.532729142096056,-0.9817092359068482,1.4604318443488626,10.60049805528194,-16.37230230846412,36.568085,29.34857525930133,0.0,36.568084999999996,0.9069099960123496,0.32170999,0.020275,0.27130401,1.0,0.0,0.0,0.0,49.83646269843167
2.152,5780.9695,2.873824002175227,2.7525868044847126,2.0093200461792975,-0.14635436395511603,-0.5619121181616196,-1.2877788673949566,2.0986373712509034,10.789952173216442,-16.204313288103176,36.204239,29.18261158413827,0.0,36.204239,0.9096471242040948,0.31906101,0.006685,0.26589,1.0,0.0,0.0,0.0,49.086735655823766
2.1737,5780.9895,2.4150195657333424,2.312027842347445,2.7467421635778244,0.14583968645549616,-0.5670344888198012,-1.5185552647104306,2.72635752792124,11.073290462141205,-15.96259188433832,35.687649,28.75706729087022,0.0,35.68764899999999,0.9115981249567155,0.31984001,-0.007754,0.25813001,1.0,0.0,0.0,0.0,48.54571345357589
2.1967,5781.0095,1.9230689722757899,1.7975504565135707,3.360938457490864,0.45182169655542004,-0.5260338115610865,-1.6745016373006432,3.3386281098797386,11.425427923281024,-15.654167061210233,35.241329,28.291183594740808,0.0,35.24132900000001,0.912412178692832,0.323502,-0.02332,0.249613,1.0,0.0,0.0,0.0,48.31829082332411
2.2124,5781.0295,1.4274423852531521,1.2755189486046827,3.7868981963051596,0.7338782141139225,-0.4239549794668701,-1.764798212651356,3.9271863141367676,11.790264017460379,-15.311018151134718,34.804405,27.786450315689457,0.0,34.804405,0.9124214392205392,0.32893199,-0.039524,0.24026801,1.0,0.0,0.0,0.0,48.31569791772595
2.2333,5781.0495,0.9767138687184405,0.7683684643840216,3.978025030499797,0.9658685110897014,-0.2616597565229718,-1.806278804927071,4.443608233571874,12.151871736871826,-14.954351898099699,34.278667,27.146361783209354,0.0,34.278666999999984,0.9116961002448568,0.33626601,-0.054889,0.229614,1.0,0.0,0.0,0.0,48.51839507258074
2.2515,5781.0695,0.6446795057340746,0.29182303734306814,3.913268034322453,1.1339200872483624,-0.06284601006314983,-1.8230809306648044,4.78604369641868,12.50425797483561,-14.62628400058406,33.533146,26.218747117633868,0.0,33.53314599999999,0.910366883073654,0.345826,-0.066423,0.21731199,1.0,0.0,0.0,0.0,48.88779723767722
2.2742,5781.0895,0.4197928530132815,-0.13636588224335888,3.6171538402220325,1.2502864257657316,0.13521494863017325,-1.8359768603616986,4.9543370192230425,12.829357110306546,-14.356480246281155,32.538029,25.006608990280274,0.0,32.538028999999995,0.9087386887484652,0.35678601,-0.073888,0.203564,1.0,0.0,0.0,0.0,49.336749022714955
2.2932,5781.1095,0.22866712684265078,-0.4949653491302879,3.1497555122193077,1.346789709425635,0.3003956219173676,-1.8572465476984017,5.0234695073695566,13.093422310310135,-14.161654929122232,31.367069,23.664792239784283,0.0,31.367069000000015,0.907149483864848,0.36746299,-0.079298,0.18911,1.0,0.0,0.0,0.0,49.77128703670457
2.3119,5781.1295,0.0680596401631468,-0.7904009235590932,2.580868197771135,1.4447991909870177,0.42394348283768213,-1.89733753748563,4.999134485377685,13.289635920833941,-14.056508089429649,29.994452,22.190757522982064,0.0,29.994451999999995,0.90566699572313,0.37769201,-0.082902,0.173906,1.0,0.0,0.0,0.0,50.17346696970896
2.3411,5781.1495,-0.057873014223455144,-1.0415881219455105,1.9692426735964972,1.5495821104812528,0.5224594459264074,-1.9560763272661248,4.914034219264135,13.424366363335382,-14.031388421104799,28.361168,20.528524225998382,0.0,28.361167999999992,0.9040424725540496,0.38820401,-0.085649,0.15706401,1.0,0.0,0.0,0.0,50.61074519291119
2.3555,5781.1695,-0.1619310064552848,-1.2528407914403434,1.3477037644599292,1.649574022760414,0.6372682118434766,-2.021529501466497,4.821458186467261,13.506506774251234,-14.066671571970467,26.614634,18.79023051990499,0.0,26.614633999999995,0.901671141073762,0.39967799,-0.089392,0.13876501,1.0,0.0,0.0,0.0,51.24278362443822
2.3776,5781.1895,-0.26151458927463866,-1.4152296844450696,0.7167776545033497,1.7246421010280963,0.8157619145185374,-2.079348763052029,4.764100531397961,13.538898858913175,-14.159444632498396,25.022852,17.179581292510957,0.0,25.022852,0.8979974888317227,0.41234601,-0.09562,0.120117,1.0,0.0,0.0,0.0,52.20783623671717
2.3957,5781.2095,-0.309838130181602,-1.5015297962270782,0.05824515265131325,1.7441671185838896,1.0740070905544599,-2.137035448064072,4.6469559294675,13.498387108656967,-14.387963509819706,23.372829,15.548234379792733,0.0,23.372828999999996,0.8936036102459635,0.42546901,-0.101014,0.101217,1.0,0.0,0.0,0.0,53.340745084030075
2.4137,5781.2295,-0.2863015250644658,-1.4935748523682628,-0.6455484496090449,1.6852005067928635,1.373027104791913,-2.214743561057592,4.348103692069534,13.355932598830101,-14.837109623556689,20.950554,13.459117506596831,0.0,20.95055400000001,0.889940643206051,0.437471,-0.100748,0.080465,1.0,0.0,0.0,0.0,54.268421831972326
2.4426,5781.2495,-0.3180571788079124,-1.4176906828792726,-1.3989749771693187,1.5599127378084705,1.6391471639341866,-2.303611036621595,3.940026640335577,13.13619761295428,-15.452394448340899,17.444054,10.82054694062954,0.0,17.444053999999994,0.887352602711008,0.447438,-0.095873,0.056683,1.0,0.0,0.0,0.0,54.91512310348985
2.4544,5781.2695,-0.5324403748685943,-1.3135202814065403,-2.1683121036404653,1.3868661652041778,1.8070732352978547,-2.3722926875648533,3.5268116818315187,12.911781198630536,-16.106564784873882,12.868867,7.71901881834632,0.0,12.868866999999995,0.8851565409264962,0.45574799,-0.089045,0.029371,1.0,0.0,0.0,0.0,55.45841712873008
2.491,5781.2895,-0.9581233024541727,-1.1810883118651616,-2.8756677475988806,1.1690349904842596,1.846690429544726,-2.3907700174671924,3.1261665770252502,12.716557199070216,-16.71078876434563,7.37538,4.296809918622297,0.0,7.375380000000007,0.8830626846347998,0.46217099,-0.081228,-0.000532,1.0,0.0,0.0,0.0,55.971901199163625
2.5106,5781.3095,-1.5507605636508486,-1.0108718985894516,-3.437074997118671,0.9121931434581599,1.776425964327971,-2.3356774216720066,2.77248987780912,12.548605084699636,-17.205377131814117,1.586608,0.9055996923771908,0.0,1.5866080000000125,0.8810375842885705,0.46624801,-0.073951,-0.030279,1.0,0.0,0.0,0.0,56.46443802384589
2.5239,5781.3295,-2.211032978855657,-0.8058937323650084,-3.8063677267672666,0.6326978760464796,1.6511047052473273,-2.201801717147898,2.5088948297065885,12.379469765190855,-17.585525881198226,-3.881035,-2.1951043829029273,0.0,3.881034999999997,0.8793432679551371,0.46764901,-0.068592,-0.057922,1.0,0.0,0.0,0.0,56.87351313335019
2.5442,5781.3495,-2.826213161636138,-0.5738299622579244,-3.9840240746213222,0.3422300757629444,1.5334754287725725,-2.005137305305594,2.2736599539996125,12.153704973898881,-17.916516512132826,-8.818898,-5.009175840018451,0.0,8.81889799999999,0.8787445169531699,0.46568701,-0.064041,-0.082719,1.0,0.0,0.0,0.0,57.017431704052136
2.5523,5781.3695,-3.328035161902914,-0.3388817844191814,-4.001851659638795,0.043256803964087015,1.4746588684318485,-1.7620066942685124,1.9418832791470402,11.888865273640867,-18.23584927236255,-13.451893,-7.744379175193048,0.0,13.451893000000013,0.8790704248781549,0.46132299,-0.057601,-0.105349,1.0,0.0,0.0,0.0,56.93913629954116
2.5805,5781.3895,-3.730378346435825,-0.11390924428474314,-3.906151296389189,-0.2632736312456331,1.4938848417222244,-1.482441073024407,1.4786361896500249,11.622373363090325,-18.55458640225198,-17.915623,-10.499669209925107,0.0,17.91562300000001,0.8796194022597613,0.45593199,-0.048557,-0.12664101,1.0,0.0,0.0,0.0,56.80702764009087
2.5956,5781.4095,-4.089963800687899,0.1095522750106106,-3.723619630480628,-0.5784983701540233,1.5760158168795715,-1.1761600527804699,0.9091917177497018,11.32437152708087,-18.90065532569404,-22.182775,-13.300918501573525,0.0,22.182774999999992,0.8803902049219652,0.44923401,-0.037631,-0.14726099,1.0,0.0,0.0,0.0,56.62106103514033
2.6147,5781.4296,-4.452829419987698,0.30679493869180696,-3.430842611827165,-0.9032708105469565,1.6819430484273217,-0.8510300624265524,0.2000511187784877,10.97374080497932,-19.271418575921665,-26.083088,-16.099108975557847,0.0,26.083088000000004,0.8817877165535591,0.44066301,-0.024012,-0.166403,1.0,0.0,0.0,0.0,56.28245545755767
2.6349,5781.4496,-4.842445235667732,0.44750802493254005,-2.9679304269251823,-1.2187553483476354,1.7519416692479997,-0.5174297607241931,-0.6490991861536761,10.537705334590628,-19.64672112950897,-29.352892,-18.81037288092707,0.0,29.352891999999997,0.8845610187729956,0.42891401,-0.007237,-0.183118,1.0,0.0,0.0,0.0,55.60490311433665
2.6607,5781.4696,-5.219396376020201,0.5132871891413657,-2.2531357808103145,-1.4838816224383207,1.7268778060770602,-0.1712288965936475,-1.6258702305540564,10.045274425461727,-19.96398985023465,-32.052586,-21.505376036804126,0.0,32.05258599999999,0.8886435440507066,0.41347,0.013611,-0.197914,1.0,0.0,0.0,0.0,54.593425848977574
2.6732,5781.4897,-5.521430346804144,0.5581268210252306,-1.2654732067530094,-1.6396498532506614,1.5802363415586722,0.19819871760583418,-2.5347434384484666,9.538227476591212,-20.184851304614863,-34.156715,-24.131233026681194,0.0,34.15671499999999,0.8935276237973844,0.39430001,0.035659,-0.211812,1.0,0.0,0.0,0.0,53.36014088097777
2.6946,5781.5097,-5.677122854911286,0.631190441991111,-0.07389276305566916,-1.6485890417822715,1.3332465331632406,0.6063324474050399,-3.132644385289202,9.142724044858781,-20.29012663202599,-35.58326,-26.409727342641492,0.0,35.583259999999996,0.8983572704593868,0.37381199,0.055336,-0.223957,1.0,0.0,0.0,0.0,52.114058177028895
2.7166,5781.5297,-5.620090580884916,0.7419284257775938,1.1866805038637374,-1.5120091205770498,1.0447150211507785,1.0531362911728606,-3.2484392656728094,8.9847476113484,-20.298720914515712,-36.336418,-28.072762279078855,0.0,36.33641800000001,0.9026188792475924,0.35514101,0.070219,-0.232859,1.0,0.0,0.0,0.0,50.99105712558371
2.7455,5781.5497,-5.261111453990441,0.7987748154506518,2.4011590883498286,-1.264437510080459,0.7670017130364497,1.5135432467068692,-3.015725841306197,9.11074821756101,-20.221315752230616,-36.229324,-28.83319777339866,0.0,36.22932399999999,0.9067549638564324,0.34028,0.083011,-0.23476399,1.0,0.0,0.0,0.0,49.8786115661984
2.7625,5781.5698,-4.5188325894406365,0.7591008519919056,3.4938475968052085,-0.934439217893915,0.5419496215408947,1.9305174928612545,-2.716469554541299,9.429972570040892,-20.08727621791114,-35.197193,-28.682482018385656,0.0,35.197193,0.9113927603169008,0.32839701,0.097264,-0.228163,1.0,0.0,0.0,0.0,48.602928323669005
2.7758,5781.5898,-3.432449569490932,0.6765626064873071,4.39224508814041,-0.5461964370100266,0.39659228872754515,2.2367852724616997,-2.5140691747502606,9.814239694039522,-19.934507439066895,-33.43964,-27.81975444683174,0.0,33.43964,0.9163552271983828,0.318445,0.113016,-0.21473999,1.0,0.0,0.0,0.0,47.20214734909761
2.7977,5781.6098,-2.1913954712759716,0.6381449490172244,5.03530300845064,-0.13555130062381127,0.3331614144973485,2.392265219607343,-2.416643792170087,10.160702442091175,-19.78485417437479,-31.206444,-26.43169064659059,0.0,31.206444000000005,0.9212542223148832,0.310067,0.127793,-0.197023,1.0,0.0,0.0,0.0,45.77973018608534
2.8217,5781.6299,-0.989400481886741,0.6080637283087427,5.411988895494929,0.2643497009861604,0.3115266667201465,2.405561915913299,-2.447242970795476,10.53015287896606,-19.576222705633963,-28.901384,-24.79422511070691,0.0,28.901384000000007,0.9247638200278272,0.30546901,0.141767,-0.17720801,1.0,0.0,0.0,0.0,44.7344640410919
2.856,5781.6499,-0.00036978391608855077,0.5050702354098311,5.538821762812155,0.6278636785632146,0.2737374930835298,2.319377359738767,-2.570816566044229,10.986791869261568,-19.256762906292135,-26.918102,-23.219977794949507,0.0,26.918102000000005,0.9258071549901632,0.30655101,0.155049,-0.157694,1.0,0.0,0.0,0.0,44.41923304164632
2.86,5781.6699,0.6749675303087219,0.3317408587170121,5.445122315895318,0.9502548133645348,0.1844450980841268,2.1880660969856836,-2.7678293041478916,11.424071674955647,-18.874292796777404,-25.303844,-21.852946069157557,0.0,25.303843999999998,0.92504501316617,0.31095099,0.16747101,-0.139838,1.0,0.0,0.0,0.0,44.649712861750665
2.8743,5781.6899,0.9785099292232746,0.08797764349841941,5.155976513371215,1.2401508828462882,0.03416870123251092,2.0665610459655595,-3.0070893126037337,11.755553987337258,-18.50754657633175,-23.734926,-20.476293143010007,0.0,23.734926,0.9238058031898478,0.31618801,0.177839,-0.122398,1.0,0.0,0.0,0.0,45.02207253632335
2.9024,5781.71,0.9147205522700737,-0.31217419119241896,4.671512895087515,1.5058388322212228,-0.17950783976612117,2.003894373973454,-3.1911068967431775,12.084343042386681,-18.161792796691696,-22.095816,-18.92044285260986,0.0,22.095816000000013,0.9221794271355872,0.32365599,0.184112,-0.104569,1.0,0.0,0.0,0.0,45.506383728687474
2.9246,5781.73,0.6682491926029765,-0.932694854720709,3.9502147583182516,1.7557749353487784,-0.4512480213659096,2.016863582413629,-3.3673268331208326,12.556332651675763,-17.757904300012537,-20.536615,-17.30378361802892,0.0,20.536615000000012,0.919018092587333,0.33536401,0.18844301,-0.086174,1.0,0.0,0.0,0.0,46.43409339476615
2.9329,5781.75,0.40507321995335044,-1.6569554727145528,2.959430326161698,1.9790022137279664,-0.7512885044773286,2.1012617217753387,-3.540041966234499,13.119174261348851,-17.29832660241041,-18.887541,-15.56503289476185,0.0,18.887541,0.9147419510867532,0.349356,0.191781,-0.066465,1.0,0.0,0.0,0.0,47.66178554045236
2.9541,5781.77,0.2352274601069,-2.3154590224418525,1.714658498271005,2.1493838693925875,-1.0312239074426461,2.2477880272348876,-3.6460336060124297,13.64686372159421,-16.837626914882865,-16.785717,-13.4896542982109,0.0,16.785717000000005,0.9105348178845222,0.362822,0.19317,-0.044406,1.0,0.0,0.0,0.0,48.84127134264609
2.9927,5781.7901,0.23128729438213114,-2.8046949012318048,0.27174380601712933,2.226265624879592,-1.236176831342332,2.444085635579189,-3.6362270172391193,14.091377711135472,-16.38842710338245,-13.794861,-10.7690184889363,0.0,13.794860999999997,0.9067385659840766,0.37540701,0.191238,-0.017966,1.0,0.0,0.0,0.0,49.88306773534464
3.0003,5781.8101,0.44097369793693814,-3.050013740789454,-1.2711417819467172,2.1600534920023757,-1.335430798815148,2.667506507775352,-3.4950996965004837,14.453994220323237,-15.937046377063162,-9.899687,-7.465638075084395,0.0,9.899687,0.9027767830426522,0.38781101,0.18560299,0.012175,1.0,0.0,0.0,0.0,50.94900392460782
3.0178,5781.8301,0.9181931275290459,-2.98627852152588,-2.7676550132201365,1.9430140138614584,-1.321466151785876,2.875923196614708,-3.4261752553731535,14.67544113984831,-15.499609000460763,-5.547864,-4.05060059492474,0.0,5.547864000000004,0.8978791531040576,0.39869601,0.18146101,0.043891,1.0,0.0,0.0,0.0,52.2386465510934
3.038,5781.8502,1.5545664252308553,-2.6073143066458857,-4.052942923243689,1.577454266721021,-1.2130368235667057,3.0551072620995035,-3.4430864968999506,14.653324721528271,-15.202709030016253,-0.915821,-0.6547722114654652,0.0,0.915820999999994,0.8933000175407811,0.40496799,0.179736,0.075571,1.0,0.0,0.0,0.0,53.41819909407295
3.0532,5781.8702,2.2444610445401234,-2.0100758664261633,-5.009800892414498,1.0971033005568116,-1.0484163430289433,3.1889371160765467,-3.525345434925776,14.373729052047072,-15.100723646538903,3.992769,2.8397866660612987,0.0,3.99276900000001,0.8896645097007074,0.405487,0.180283,0.107589,1.0,0.0,0.0,0.0,54.33776088044054
3.0842,5781.8902,2.9150222980136062,-1.3165719128191071,-5.566128841975256,0.5467261493616264,-0.8687437073753776,3.2586040369080593,-3.533132410217807,13.889933630090493,-15.19266281595876,9.107143,6.53287555230731,0.0,9.107143000000008,0.8874404825693382,0.40064499,0.180389,0.139258,1.0,0.0,0.0,0.0,54.893278983976934
3.1063,5781.9102,3.561634226553612,-0.5977008287156433,-5.70160144463696,0.003179551469125852,-0.6919986191758785,3.2384581383529047,-3.445364468061867,13.233636929740173,-15.452043122993146,14.187675,10.405366689737695,0.0,14.187675000000013,0.8866423765375078,0.39046699,0.180126,0.17016301,1.0,0.0,0.0,0.0,55.09136944500527
3.1159,5781.9303,4.189058051669563,0.13743432641854914,-5.46045360196095,-0.4418734444043755,-0.5331075221549253,3.1088585064573633,-3.340122645699636,12.446273028809927,-15.808137145631276,18.935297,14.363530979682658,0.0,18.93529699999999,0.8863271395436562,0.37583199,0.181725,0.200376,1.0,0.0,0.0,0.0,55.16943081452856
3.1371,5781.9503,4.741590779077435,0.897741837902154,-4.904529474078194,-0.7419376959617257,-0.4008820814617433,2.8626533472394824,-3.0999604364345554,11.602695705918443,-16.204085890871564,23.276281,18.35051337194722,0.0,23.27628100000001,0.8866402615498462,0.35804901,0.18260799,0.228745,1.0,0.0,0.0,0.0,55.09189351392397
3.153,5781.9703,5.1484940081140245,1.686308024013694,-4.129932040748213,-0.8749898562970653,-0.3051067058643624,2.5052325187756175,-2.665800778731161,10.830048947038467,-16.54293016976286,27.205633,22.197487961008736,0.0,27.205633000000006,0.8870322787527406,0.34015799,0.180812,0.25450599,1.0,0.0,0.0,0.0,54.99467764193524
3.182,5781.9903,5.365796880900721,2.491031073346775,-3.265917796236079,-0.8450876705621311,-0.25522584530504167,2.0579751212616517,-2.1027865774437497,10.230476145963653,-16.746390736036883,30.597147,25.593616972696534,0.0,30.597147000000007,0.8866957788587583,0.325324,0.177048,0.27674699,1.0,0.0,0.0,0.0,55.07813545846233
3.1944,5782.0103,5.36834227224737,3.26334887035897,-2.4021553721612126,-0.6914867752357405,-0.2662964908493254,1.5370691773136418,-1.455423477348448,9.873559111878288,-16.77998169096734,33.547924,28.43064559156571,0.0,33.547923999999995,0.8852925301895074,0.31568301,0.171138,0.295488,1.0,0.0,0.0,0.0,55.42491663594278
3.2127,5782.0303,5.156968840585744,3.9521247628666774,-1.5788114848216708,-0.4501544032607721,-0.3487309914908216,0.949037196560472,-0.7801661263657147,9.735171123399693,-16.67020389507536,36.244026,30.841240807524585,0.0,36.24402599999999,0.8828906108721397,0.310646,0.16358,0.31184101,1.0,0.0,0.0,0.0,56.01390693310333
3.238,5782.0503,4.7957303364098935,4.489771238412258,-0.8068289114189575,-0.13299842670647413,-0.49636410033859796,0.3060700798772958,-0.11387983215509978,9.729499991506119,-16.480491739544384,38.465416,32.71353463107275,0.0,38.465416000000005,0.8805034361366115,0.30840501,0.155517,0.32467601,1.0,0.0,0.0,0.0,56.593695262615384
3.2565,5782.0703,4.3344466740452985,4.787465475915781,-0.03372364473214873,0.2527240474102826,-0.6846646134778502,-0.3557002082044721,0.6515944702034844,9.819097907222048,-16.24097284596277,40.1017,33.9469713680579,0.0,40.101699999999994,0.8796809637691267,0.30783999,0.14424901,0.33254799,1.0,0.0,0.0,0.0,56.792195607945125
3.283,5782.0903,3.800709285890693,4.783820631882242,0.7888101512381027,0.6815778100649217,-0.8680441862014872,-0.9687644747902815,1.6192297701679697,10.023843871153915,-15.918445017316957,41.211693,34.51422656665058,0.0,41.211693,0.8809471785765022,0.30965301,0.12640201,0.334768,1.0,0.0,0.0,0.0,56.486334166112954
3.2979,5782.1103,3.223801986059444,4.437828534266382,1.6601290767467436,1.0864536762601216,-0.9862001276940888,-1.4705991872324387,2.7417695804185267,10.430548936311297,-15.41390672880358,42.085823,34.513099325524166,0.0,42.085823000000005,0.8823951041560123,0.31749699,0.101319,0.33212799,1.0,0.0,0.0,0.0,56.13470602584338
3.3161,5782.1303,2.6406750287392526,3.772445490515397,2.5122439790764517,1.3831961708447715,-0.9887511295420512,-1.8384099730675634,3.848282347351144,11.052435027001293,-14.6828956411811,43.083523,34.21369237997966,0.0,43.083523000000014,0.8814491756221683,0.333379,0.072127,0.326655,1.0,0.0,0.0,0.0,56.36465248657432
3.341,5782.1503,2.102740016197175,2.9651364507232203,3.2339200029585626,1.5321968368176926,-0.8860705371509239,-2.080648709324909,4.799489609538954,11.675050865607162,-13.884760257161762,43.991776,33.73693988409542,0.0,43.991776000000016,0.8787521793794083,0.35229701,0.04425,0.318941,1.0,0.0,0.0,0.0,57.015592030362775
3.354,5782.1703,1.643111995180278,2.2257544549547466,3.7726133948793823,1.574790247737983,-0.7339999946862032,-2.2292691012341783,5.545543620557503,12.067983368912136,-13.265714636420878,44.292828,33.05277263520066,0.0,44.292827999999986,0.876973281931314,0.36748499,0.021525,0.30888399,1.0,0.0,0.0,0.0,57.44123972166417
3.3802,5782.1902,1.2399299119947207,1.5732527662475562,4.148567019383329,1.6045488592216475,-0.5616364989779339,-2.3296781415253145,6.083788278797382,12.229716046068772,-12.90598471776584,44.047256,32.246117267672446,0.0,44.047256000000004,0.8765430732331184,0.37830201,0.003366,0.297571,1.0,0.0,0.0,0.0,57.54374559722632
3.3933,5782.2102,0.8508381386261803,0.9149041271627709,4.364586964181399,1.6945244044102088,-0.36631792558184917,-2.412391707294314,6.434166275809764,12.251806152029852,-12.770712183507914,43.616852,31.408798920978715,0.0,43.616851999999994,0.8762696185802061,0.387804,-0.013125,0.28563499,1.0,0.0,0.0,0.0,57.608814948438734
3.4138,5782.2302,0.5011348150578137,0.18384564628999378,4.37244067731395,1.8444860945098898,-0.13813272868167314,-2.4869524756269117,6.586253218325715,12.192939266523876,-12.856504145179182,43.051014,30.355554953830616,0.0,43.05101400000001,0.8751496479744364,0.399472,-0.029054,0.27146101,1.0,0.0,0.0,0.0,57.87461727108774
3.4397,5782.2502,0.2102645394207352,-0.6215426026651016,4.106933523809655,2.0059762333021376,0.13133149525545074,-2.543362646017993,6.5287918573870325,12.103596778928917,-13.168886939455529,42.405254,28.984984796435285,0.0,42.40525400000001,0.8723176034294274,0.41537699,-0.044617,0.25403401,1.0,0.0,0.0,0.0,58.54182563195462
3.4723,5782.2702,-0.0065659697320947785,-1.4067318622857439,3.530227356423234,2.1229088852453506,0.43750135505652366,-2.5715014400034932,6.247869341232347,12.013580926598724,-13.722843595844118,41.668835,27.302916817630827,0.0,41.668835,0.8677262258457905,0.43477899,-0.058345,0.233697,1.0,0.0,0.0,0.0,59.609044404059055
3.4925,5782.2902,-0.18675319451181993,-2.0187921229773425,2.668642672065511,2.1758207053335834,0.7574630740721162,-2.5700731949278923,5.79655520688193,11.901564706462395,-14.504527147424952,40.764439,25.486118908616614,0.0,40.76443900000001,0.8626123539606187,0.453904,-0.069207,0.21232399,1.0,0.0,0.0,0.0,60.77764908058717
3.5249,5782.3102,-0.36989123084485875,-2.3754801621028045,1.5939132371926057,2.1797981006032474,1.053194789996344,-2.5562240468685546,5.280762317624401,11.72089801291591,-15.440309566537067,39.31461,23.49447835535232,0.0,39.314610000000016,0.8586143759265737,0.46993899,-0.077003,0.189761,1.0,0.0,0.0,0.0,61.67728143891366
3.5267,5782.3302,-0.5718349589965519,-2.5130748999099177,0.38070402480896526,2.1548923996698672,1.2944507284749216,-2.5554714133275294,4.742597142034066,11.499524413029917,-16.382189111584168,37.098473,21.168869311697467,0.0,37.09847300000001,0.8556380883108464,0.48377901,-0.081156,0.16509099,1.0,0.0,0.0,0.0,62.33940064639537
3.5399,5782.3502,-0.8052627487315174,-2.4832697023372563,-0.884560674963188,2.1013025051711605,1.4605625640915962,-2.587753570672424,4.168829650987659,11.279977595146427,-17.192694025486762,34.13142,18.475587514234483,0.0,34.13141999999999,0.8527651840237849,0.49701199,-0.080902,0.13865601,1.0,0.0,0.0,0.0,62.97257600701131
3.564,5782.3702,-1.1116819845427328,-2.3327524208209462,-2.0973020234504025,2.0139875452409863,1.543867608713632,-2.650428781085862,3.6624800764741106,11.078085911975236,-17.78069942979868,30.503178,15.547372534546096,0.0,30.50317799999999,0.8492329996512141,0.51029003,-0.078981,0.110315,1.0,0.0,0.0,0.0,63.74331210434742
3.578,5782.3902,-1.4797163538323153,-2.0897794226757465,-3.1491103598508587,1.8789578806395237,1.5659727360820663,-2.728229814327424,3.2955872826605823,10.847107097414977,-18.187362228989937,26.356392,12.656088321810069,0.0,26.356392,0.8454795406673067,0.522008,-0.077685,0.081468,1.0,0.0,0.0,0.0,64.5532977060065
3.5924,5782.4102,-1.8553214258265749,-1.8031867309811829,-3.9781031228696815,1.6841904239014485,1.5714076524341616,-2.7945514877162267,3.079707425825319,10.549852454019117,-18.499783055864484,21.56225,9.843679867137546,0.0,21.562250000000006,0.8423591545000737,0.53068203,-0.078171,0.051932,1.0,0.0,0.0,0.0,65.2198291356227
3.6143,5782.4302,-2.1836579534200578,-1.5348484061494356,-4.58358676915945,1.4166888139220184,1.6222395135156955,-2.815218527105266,2.928075676916408,10.255658631745481,-18.752540212895806,15.788278,6.89853630981267,0.0,15.788277999999991,0.8395215259098483,0.537126,-0.079273,0.020373,1.0,0.0,0.0,0.0,65.82074324374267
3.6383,5782.4502,-2.467316698052237,-1.3100498722681324,-5.0056581641530755,1.075920913196412,1.76457542147301,-2.7605084093369983,2.746697085975671,10.038531369207632,-18.96215430961674,9.060561,3.8108556717326603,0.0,9.060561000000007,0.836633628775033,0.54191399,-0.078951,-0.011838,1.0,0.0,0.0,0.0,66.42734411527705
3.6533,5782.4702,-2.7733216522181996,-1.0804379229860253,-5.297146169985213,0.6894631961476848,1.9798962130403304,-2.6293517489106155,2.535908438702889,9.8330585497169,-19.19217329953499,1.451257,0.5998699399900024,0.0,1.4512569999999982,0.8350999081072873,0.54285502,-0.077292,-0.044074,1.0,0.0,0.0,0.0,66.7475145174369
3.6776,5782.4902,-3.143475015480208,-0.8113922020841948,-5.472982211110242,0.2577669816264097,2.2187570279000215,-2.440902189367674,2.0866618149608467,9.649800908724044,-19.478881924361175,-7.423707,-3.094354073855337,0.0,7.423707000000007,0.835510730976772,0.53956699,-0.069925,-0.07681,1.0,0.0,0.0,0.0,66.66188699619698
3.6966,5782.5102,-3.624672933968217,-0.48463462443679006,-5.509092499025594,-0.2055287534299311,2.408906237682632,-2.199763133308225,1.3212181555114446,9.52272573636556,-19.794109246494784,-17.108124,-7.37480825902758,0.0,17.108124000000004,0.8370874761843944,0.53290403,-0.055725,-0.11042,1.0,0.0,0.0,0.0,66.33233943492414
3.7122,5782.5302,-4.235897979478761,-0.07495129867701045,-5.359076953169851,-0.6611346729950297,2.48150845511968,-1.9077002333976432,0.38853412329594716,9.357804938421587,-20.11084579560249,-26.154251,-11.96237892128147,0.0,26.154250999999988,0.8393460326516591,0.52250499,-0.03898,-0.14480101,1.0,0.0,0.0,0.0,65.85774683789668
3.7358,5782.5502,-4.90820033288066,0.38842448677687136,-4.955790224085348,-1.1011412175391357,2.405267389256143,-1.5605932669767644,-0.6919526337871491,9.062021156243432,-20.40349008235708,-33.469872,-16.54705983462731,0.0,33.46987200000001,0.8426015772663139,0.50811601,-0.020249,-0.177287,1.0,0.0,0.0,0.0,65.16826386756513
3.7537,5782.5702,-5.542420994331069,0.881662118908936,-4.256822740349662,-1.4989457457385968,2.1983148761354263,-1.145192633592356,-1.7844009962396563,8.645531969988337,-20.630567998165247,-38.965084,-20.955526209084667,0.0,38.96508399999999,0.8463642136370606,0.49044001,-0.001654,-0.20768601,1.0,0.0,0.0,0.0,64.3632079715759
3.7734,5782.5901,-6.043200234068463,1.3410616080519395,-3.2519137541567016,-1.83197662470197,1.9051680846473795,-0.6459653405077206,-2.742580116259998,8.248258666276428,-20.741343399611935,-42.871284,-24.915950283175846,0.0,42.871284,0.8499174474643052,0.47173801,0.016169,-0.234184,1.0,0.0,0.0,0.0,63.59461669905509
3.7989,5782.6101,-6.338020266995119,1.7302618185400047,-1.9657619994483948,-2.0659820258748876,1.5697456846463564,-0.06895222837233358,-3.4169130189853414,7.9219579081133995,-20.74762140603523,-45.308445,-28.233425731345214,0.0,45.308445000000006,0.8539952412671981,0.45203599,0.032282,-0.25556499,1.0,0.0,0.0,0.0,62.70217997884721
3.8219,5782.6301,-6.368043388451602,2.045387142388555,-0.4500877959965379,-2.153830585815112,1.2340304906636272,0.5670528563204966,-3.7032050249212154,7.711762226365657,-20.67785040456071,-46.578918,-30.90011844814511,0.0,46.57891799999999,0.8590221736416586,0.43112299,0.045883,-0.27222899,1.0,0.0,0.0,0.0,61.586061491987444
3.8401,5782.6501,-6.076454695774617,2.255461185177574,1.2217357616170865,-2.0577689091171467,0.9113070970257919,1.226623657635967,-3.6636709449722336,7.652182631064516,-20.5655590294624,-46.792118,-32.84788135436493,0.0,46.792118000000016,0.8655255548888547,0.40912801,0.058902,-0.28286099,1.0,0.0,0.0,0.0,60.11445793958458
3.8567,5782.6701,-5.441849573144759,2.2905547281589875,2.920562188989056,-1.7616394432276667,0.5913240648523329,1.8444708333712545,-3.414662367840897,7.813251451488211,-20.448391360187372,-45.977718,-33.85336713040682,0.0,45.97771800000001,0.8732981041464134,0.38828599,0.073208,-0.285,1.0,0.0,0.0,0.0,58.31161543383057
3.875,5782.6901,-4.463696831903675,2.1047387616340583,4.474291796846845,-1.2805928757415408,0.27095351855036476,2.3403770592859874,-3.1261089244449085,8.23332126943866,-20.35431553891167,-44.35421,-33.89123280147618,0.0,44.354209999999995,0.8813499232680059,0.371196,0.08975,-0.27817401,1.0,0.0,0.0,0.0,56.38872989648195
3.8952,5782.7101,-3.2670640274935048,1.7636939045739686,5.671623095201106,-0.6763738948848791,-0.0170348751140329,2.648563276071758,-2.9260238019302722,8.77106220561393,-20.322577228057128,-41.737564,-32.78491296770135,0.0,41.73756399999999,0.8899818733029116,0.35816899,0.106797,-0.26123101,1.0,0.0,0.0,0.0,54.25806164182861
3.9151,5782.7301,-2.087034898612754,1.393344280566712,6.362845133780262,-0.05305938228337925,-0.21530364715798822,2.7690708181640167,-2.736497196478364,9.323479684333803,-20.33183455415375,-38.645027,-30.83211347630677,0.0,38.645027,0.8976885526822428,0.35072699,0.11955,-0.23844001,1.0,0.0,0.0,0.0,52.28823647069113
3.9388,5782.7501,-1.181361917447708,0.9980352820912239,6.5218993568899,0.4706644606634516,-0.31753789557158907,2.771786701711358,-2.4438315338111445,9.870757055998912,-20.291415153118873,-35.561974,-28.343204932280955,0.0,35.56197399999999,0.9029532560102654,0.35134399,0.125414,-0.21331701,1.0,0.0,0.0,0.0,50.90196698680667
3.9527,5782.7701,-0.49205032544574756,0.5222011996192917,6.230136675779104,0.8494418969016019,-0.3723862773987998,2.7328968205236954,-2.2551225368435777,10.413766026289,-20.0905106907464,-33.157909,-26.06359406223834,0.0,33.15790899999999,0.904256324869536,0.35955799,0.130119,-0.19001999,1.0,0.0,0.0,0.0,50.553383927998205
3.9742,5782.7901,-0.003424282109775856,0.06115571921324303,5.596339461109412,1.0837357912810028,-0.42645415283980626,2.6883134547125924,-2.3045377448494,10.756163489356265,-19.805084004434583,-30.993113,-23.967298467401097,0.0,30.993112999999994,0.9038159181622106,0.369481,0.13658001,-0.167172,1.0,0.0,0.0,0.0,50.67144734324212
3.9996,5782.8101,0.3196082289888329,-0.3550712916026173,4.751101975288929,1.2306509659396931,-0.5333170858858496,2.628659695488299,-2.610397662392083,10.843980528135136,-19.520007440128083,-28.643999,-21.902449374144364,0.0,28.643999000000008,0.9033619751677064,0.37710401,0.14578,-0.14310101,1.0,0.0,0.0,0.0,50.79287125970998
4.0159,5782.8301,0.510297503661838,-0.764788044451576,3.7829068210295347,1.364189410987973,-0.7257628386886699,2.531605285947961,-3.0381021430097,10.802504279222678,-19.271368650464304,-25.985415,-19.74380845136626,0.0,25.98541499999999,0.9032631841332956,0.38213101,0.15571199,-0.117666,1.0,0.0,0.0,0.0,50.81926069695439
4.0353,5782.8501,0.5732368945540856,-1.1918385597912247,2.710681597769737,1.514284272134506,-0.9914787251486377,2.4016976910232675,-3.3181512788188114,10.83879295940765,-19.05796456182768,-23.084425,-17.367589466033,0.0,23.08442500000001,0.9031746149841346,0.38710701,0.16099399,-0.092221,1.0,0.0,0.0,0.0,50.84290875392162
4.0521,5782.8701,0.647054861107019,-1.6264868793120932,1.5065153111687088,1.669921260226273,-1.2765721290969712,2.2552969856317886,-3.4253426626380805,11.152376714729304,-18.783484292090257,-20.26882,-14.928795942466973,0.0,20.268820000000005,0.9014775655006618,0.395733,0.161659,-0.067823,1.0,0.0,0.0,0.0,51.29405706238532
4.0806,5782.8901,0.7965723002693228,-1.9258205541960534,0.18704507120191316,1.7598399584734468,-1.4901519729888852,2.132137669960268,-3.332356870509416,11.688651341795602,-18.43449315063907,-17.260841,-12.290642426889068,0.0,17.260841,0.8984212586116714,0.407684,0.15731899,-0.043402,1.0,0.0,0.0,0.0,52.097363048343006
4.097,5782.9101,1.0630006445856044,-1.9746413674359755,-1.152346857947677,1.7104289913922552,-1.5576717963187505,2.0667824155394983,-3.121224135800113,12.289501988550244,-18.034228935834463,-13.723639,-9.377898220427017,0.0,13.723638999999991,0.8945693301708816,0.42066899,0.149911,-0.017607,1.0,0.0,0.0,0.0,53.093669808775275
4.1151,5782.9301,1.3955566365384273,-1.770466222499648,-2.371252972516264,1.4667555788994349,-1.4709131281814627,2.078964228164341,-2.807145245554854,12.814200178091438,-17.64489389173753,-9.58223,-6.27513848350048,0.0,9.58223000000001,0.8906754542128463,0.43248701,0.13992,0.008638,1.0,0.0,0.0,0.0,54.08350553165297
4.1527,5782.9501,1.7688745369454495,-1.406863669581346,-3.35646988519807,1.0470625213999936,-1.2836102405146348,2.149527847628547,-2.5157046257889246,13.135928751867022,-17.34452377668874,-5.414916,-3.431397635348057,0.0,5.414916000000005,0.8875154108096602,0.44063199,0.130808,0.03239,1.0,0.0,0.0,0.0,54.87464788813498
4.1576,5782.9701,2.21138159463645,-0.9938966901019466,-4.0595688429155246,0.5556728700450706,-1.0669883789609893,2.2321265609904315,-2.523828609687336,13.121309424473223,-17.220166612318963,-1.864394,-1.1707776546854554,0.0,1.8643940000000043,0.8859189403272287,0.442191,0.12942401,0.053518,1.0,0.0,0.0,0.0,55.270361220493804
4.1864,5782.9902,2.6657932110083777,-0.635701128477757,-4.437062305176336,0.0768714006386139,-0.8910370635550252,2.27425528967124,-2.6317406267453323,12.78280184804359,-17.3016069004438,1.84051,1.169393387409109,0.0,1.8405099999999948,0.8865264599930112,0.43726301,0.130987,0.075593,1.0,0.0,0.0,0.0,55.120085421158244
4.1961,5783.0102,3.1408573239702124,-0.3583456824402371,-4.472786199767887,-0.3030059610243686,-0.7792622675285867,2.20892862940705,-2.677279260145453,12.202853136961851,-17.537549832140762,6.001725,3.9121791493403477,0.0,6.001724999999993,0.8888195921811016,0.42733499,0.13198601,0.099821,1.0,0.0,0.0,0.0,54.549419739507904
4.2156,5783.0302,3.605248270412191,-0.13062780336328306,-4.194314962158089,-0.5264907490013122,-0.7170056318162453,1.999932691390383,-2.519686215700926,11.503393151417692,-17.84590551881022,10.412644,7.002486336378563,0.0,10.412644,0.8920542582410557,0.414588,0.129677,0.124659,1.0,0.0,0.0,0.0,53.73493998957891
4.2378,5783.0502,4.003201694075877,0.09008295599738281,-3.7061248668406,-0.5631382947860648,-0.689847193869889,1.6699946012486304,-2.236913406638066,10.818406330490724,-18.11905327875662,14.460435,10.01630623230543,0.0,14.46043499999999,0.894848199460523,0.401914,0.125949,0.14781301,1.0,0.0,0.0,0.0,53.022123691818955
4.2609,5783.0703,4.277724377732818,0.3048567358341292,-3.1347356445926957,-0.44058100052492216,-0.691267620799113,1.2900494340511734,-1.8683056651927656,10.258116797952649,-18.291868001146252,17.533298,12.413339836581255,0.0,17.533298000000002,0.8968128090426897,0.39194801,0.121387,0.165435,1.0,0.0,0.0,0.0,52.51552563821779
4.2759,5783.0903,4.383796802522756,0.5166710706534294,-2.543922610200025,-0.23562027343354613,-0.7143340764701266,0.9379115722098227,-1.3262386620154263,9.870559517951703,-18.359589658813917,19.841499,14.218207254911182,0.0,19.841499,0.898529022635051,0.385409,0.112994,0.17702501,1.0,0.0,0.0,0.0,52.06923511756233
4.2942,5783.1103,4.338909500822344,0.7758529144684148,-1.9541095315568153,-0.026676969372324527,-0.741329252264882,0.6627888934111803,-0.6405640412387315,9.66765379447224,-18.319807530886596,22.111704,15.901964218549976,0.0,22.111704000000003,0.8994798672953608,0.38213399,0.100224,0.186721,1.0,0.0,0.0,0.0,51.82043576666533
4.3146,5783.1304,4.227812645551769,1.1467028649845945,-1.3866472306457567,0.12329849330702003,-0.7389528751715191,0.46373937314373453,0.019332407871532897,9.60326189893172,-18.19414344926263,24.580803,17.666639872014898,0.0,24.580803000000003,0.8990528265301544,0.38111499,0.086587,0.19737799,1.0,0.0,0.0,0.0,51.93231306499068
4.3395,5783.1504,4.061585134684308,1.6160717122833788,-0.8299263077134587,0.16902596949123871,-0.6851117128772691,0.2974940955055325,0.6645717784529293,9.641979113239639,-18.009100937037015,27.260393,19.55097365152745,0.0,27.260392999999993,0.8976389499648508,0.381293,0.071904,0.209021,1.0,0.0,0.0,0.0,52.301134807783015
4.3672,5783.1704,3.835378628827226,2.0975444053203747,-0.29122810893379736,0.10949544893011161,-0.589619194331093,0.11012194275878662,1.2501114866562935,9.78167217909462,-17.773514944536466,29.910934,21.37347196043289,0.0,29.910933999999997,0.8952868098171892,0.38283199,0.057464,0.220452,1.0,0.0,0.0,0.0,52.90941318655674
4.3774,5783.1904,3.5706608885400866,2.5009448620081596,0.20267129482034285,-0.00876550248193994,-0.49235579825001224,-0.1299995817623985,1.6744775267463967,9.957135642319935,-17.53944883904014,31.99744,22.780450438675942,0.0,31.99744000000001,0.8927849695576198,0.384864,0.046506,0.22946,1.0,0.0,0.0,0.0,53.549363140637624
4.4119,5783.2105,3.264312298182054,2.768741483088135,0.6563022563529817,-0.10801487431804396,-0.44147982776762695,-0.41759671691139233,1.9824561440458828,10.059586370893927,-17.374594117215036,33.134537,23.602953499883203,0.0,33.134536999999995,0.8918789435596403,0.38495299,0.039006,0.234183,1.0,0.0,0.0,0.0,53.77937601395274
4.413,5783.2305,2.8851685123749,2.8590039200066197,1.1164324287527414,-0.10915128607591401,-0.46009732166349104,-0.7225130192614897,2.3273992210086623,10.07501456558656,-17.269821476690584,33.462238,23.975471720852035,0.0,33.46223800000001,0.8931910144600425,0.38241899,0.031312,0.23448899,1.0,0.0,0.0,0.0,53.44598310127912
4.437,5783.2505,2.417279058914245,2.737701859118253,1.6264141826034582,0.02905099099035502,-0.5276090295889805,-1.0090882755808708,2.7902246152277863,10.12553221992718,-17.129752738700567,33.552605,24.167381893508274,0.0,33.552605,0.8950917131064949,0.380207,0.020202,0.23204599,1.0,0.0,0.0,0.0,52.95957502403461
4.4648,5783.2705,1.9071634062401839,2.4524522043028374,2.1560577370848506,0.2852673083623868,-0.5955886116743999,-1.249874958542311,3.281977701325235,10.281667740656562,-16.910224377272574,33.736782,24.30554995913755,0.0,33.736782000000005,0.8959379342827379,0.38076901,0.006903,0.22860999,1.0,0.0,0.0,0.0,52.74168043533348
4.488,5783.2906,1.371106282624103,2.082200982891358,2.631292568412878,0.592965801477823,-0.6141689129859988,-1.4324826817772407,3.7918724506461756,10.532710225914771,-16.610651834014043,34.082024,24.423523745516377,0.0,34.08202399999999,0.8953699069402209,0.38459301,-0.008594,0.224337,1.0,0.0,0.0,0.0,52.88803445784581
4.497,5783.3106,0.8297202406126334,1.6892087424743005,2.9643525962878385,0.8690691756563909,-0.5521536529645734,-1.5571489247007841,4.295543704019218,10.854207255273517,-16.251638831669194,34.521488,24.461100640552395,0.0,34.521488000000005,0.8932862003817366,0.39187199,-0.02569,0.218669,1.0,0.0,0.0,0.0,53.42172171754428
4.5246,5783.3306,0.35389819543839085,1.301826683990818,3.097727569164224,1.0440818627423227,-0.40514043071340344,-1.6386428035533496,4.700758477935806,11.233652431500033,-15.877771679358316,34.871517,24.235242211460463,0.0,34.87151699999998,0.8896213576124731,0.40302199,-0.041819,0.21070901,1.0,0.0,0.0,0.0,54.34858928566746
4.5423,5783.3507,0.011374923991707586,0.9865673748246326,3.0279044186892357,1.0969357383235645,-0.19796527466635117,-1.6985946573683852,4.914150211831068,11.584028725307796,-15.601834001332588,34.875088,23.650816664393222,0.0,34.875088000000005,0.8855317627603541,0.41552299,-0.053718,0.20072,1.0,0.0,0.0,0.0,55.365937208809264
4.5588,5783.3707,-0.24293233025864236,0.7895024278002376,2.792185363588116,1.0710776155396358,0.031338897700421975,-1.7522022663565562,5.000276736248763,11.801677605648344,-15.504622517192775,34.47596,22.89757060343207,0.0,34.475959999999986,0.8826400891577947,0.42535999,-0.062311,0.19008601,1.0,0.0,0.0,0.0,56.07501126058345
4.5764,5783.3907,-0.4363867265724144,0.6280223860123852,2.4290056950421715,1.0321509817832197,0.25499910757904865,-1.8111460196901659,5.0156057324060495,11.911656550325466,-15.55643873594891,33.668907,21.9786190995952,0.0,33.66890699999999,0.8809081690126729,0.43291301,-0.069064,0.17837401,1.0,0.0,0.0,0.0,56.495779824978094
4.5931,5783.4107,-0.5595501930750526,0.4161524391967877,1.9548217968245964,1.0296535309752204,0.4483113492023836,-1.8754623365235008,4.932887780875254,11.974614615652701,-15.710553326501277,32.39954,20.75510094810444,0.0,32.39954,0.8796437402836672,0.44013801,-0.073483,0.164638,1.0,0.0,0.0,0.0,56.801164297360664
4.6141,5783.4308,-0.6432103479126177,0.1452261861574069,1.3709623813148824,1.088970524573032,0.5818149351178049,-1.9315060968203441,4.7756827113853415,12.002146059381882,-15.934434773184925,30.625364,19.193707114765207,0.0,30.62536399999999,0.8785526170844863,0.447606,-0.076277,0.148243,1.0,0.0,0.0,0.0,57.06348726867163
4.6365,5783.4508,-0.7236484589457908,-0.14861515673200731,0.6860897686471858,1.2037145003908487,0.6391152344053518,-1.9629853785423874,4.562365394896288,12.010713690374685,-16.193231802180005,28.551483,17.440109691022187,0.0,28.55148299999999,0.8770525238325467,0.45575199,-0.078339,0.130123,1.0,0.0,0.0,0.0,57.42234049142079
4.6527,5783.4708,-0.8085935314030079,-0.4041894478909036,-0.0694614444688213,1.3385862234221706,0.6247683533996141,-1.9591210938520134,4.327474733605382,12.017055454893153,-16.45217479918957,26.404453,15.646098760585836,0.0,26.40445299999999,0.8745702130780582,0.46503001,-0.080786,0.11112,1.0,0.0,0.0,0.0,58.011697539070454
4.6749,5783.4909,-0.8574706594466615,-0.5600310267863731,-0.8389981384069429,1.435679960710118,0.5681864182364268,-1.921620396779292,4.091013184240193,12.03830334336283,-16.688728309418003,24.285896,13.875892571178836,0.0,24.285896000000008,0.8707713510074501,0.47573301,-0.083906,0.091625,1.0,0.0,0.0,0.0,58.903200910975215
4.7041,5783.5109,-0.8249722892763878,-0.5878086626871926,-1.5480308865973065,1.4354395821553274,0.5248352329506595,-1.8614071037550708,3.8586412838303383,12.095998717333462,-16.889815370545698,22.434071,12.286411309213932,0.0,22.43407099999999,0.8655947948453363,0.48758301,-0.08737,0.073314,1.0,0.0,0.0,0.0,60.09861481573238
4.7166,5783.5309,-0.715151372491575,-0.5175670773325258,-2.1268143548224803,1.3078817076801177,0.5542519869978729,-1.7884935660228682,3.7082632533562165,12.19990750402492,-17.042984636370534,21.061241,11.024752636644195,0.0,21.061240999999995,0.8593520688885319,0.499742,-0.092318,0.057003,1.0,0.0,0.0,0.0,61.512178237446435
4.734,5783.551,-0.551795940924821,-0.40767443534666636,-2.5301697928211873,1.0593944872449652,0.6864115787975925,-1.7201679144115678,3.631897131599506,12.291210999778059,-17.20482266349864,19.694319,9.8973279801389,0.0,19.694319000000007,0.8536187325831595,0.50995302,-0.09779,0.041474,1.0,0.0,0.0,0.0,62.78505662075916
4.7562,5783.571,-0.3841353030239757,-0.34023218914882714,-2.7579931063642933,0.7363377332186481,0.9099729723326307,-1.6774428759688105,3.488091372904539,12.315836188367417,-17.441428370552703,17.544823,8.540509103330042,0.0,17.544823000000008,0.8499114141419327,0.51666301,-0.100303,0.02548,1.0,0.0,0.0,0.0,63.59592878979607
4.7768,5783.591,-0.2935951652306017,-0.368743555808134,-2.846311625053467,0.41380287489769635,1.1701416360890675,-1.6762601871101699,3.166618723667451,12.222608922188897,-17.79002251117977,14.123592,6.74453607366853,0.0,14.123592000000002,0.8490796526849996,0.51908302,-0.097688,0.00858,1.0,0.0,0.0,0.0,63.77658399387932
4.8027,5783.6111,-0.37112950531127686,-0.49646480343642096,-2.8394264298764034,0.16791713525008725,1.3986510724069237,-1.723016158231553,2.7305694748209044,11.978988923658921,-18.2302757067225,9.548947,4.545280183937371,0.0,9.548946999999998,0.8507611513303837,0.517353,-0.091933,-0.009983,1.0,0.0,0.0,0.0,63.41089370906939
4.819,5783.6311,-0.6672558163354667,-0.6936242827212675,-2.777243242190618,0.031861238668769935,1.553961752090862,-1.807267786555047,2.2523513078331288,11.640001017569896,-18.689002827264677,4.419053,2.1185641212906035,0.0,4.419052999999991,0.8533510043102891,0.51347703,-0.085092,-0.029879,1.0,0.0,0.0,0.0,62.84392894007904
4.8537,5783.6511,-1.1867909015068767,-0.9039002224227648,-2.6963760065096416,-0.008994825809075277,1.6301809680261765,-1.8956580658902578,1.7983287650890034,11.3006686067598,-19.0919531775614,-1.023409,-0.49472618103553667,0.0,1.0234089999999867,0.8550932413584846,0.50982398,-0.078744,-0.051908,1.0,0.0,0.0,0.0,62.459925573734004
4.8579,5783.6711,-1.9160715963989183,-1.0401237245506496,-2.623516543668325,0.00021470172147509958,1.6418709848355513,-1.9439247684950711,1.405822046161878,10.994022524893236,-19.429500611216174,-6.516311,-3.1755220462501215,0.0,6.516311000000002,0.855584359965398,0.50681502,-0.073714,-0.075367,1.0,0.0,0.0,0.0,62.351295137997624
4.8842,5783.6912,-2.8351589909147927,-1.0075498244310856,-2.568860490771792,0.017726224476286745,1.6048306331433149,-1.9108561392516261,1.1347850018155163,10.684006217014044,-19.738406826023166,-11.895444,-5.871538200123484,0.0,11.895443999999998,0.855340165880616,0.50323302,-0.071367,-0.100282,1.0,0.0,0.0,0.0,62.40532963539209
4.8974,5783.7112,-3.8377497296187837,-0.788134965196869,-2.4999788312064517,-0.011762791228998093,1.530979073343166,-1.766178805016229,0.7909459240447054,10.405013632318802,-20.02608969633993,-17.504131,-8.785095449553006,0.0,17.504131,0.8546900749321591,0.49911001,-0.067241,-0.12598699,1.0,0.0,0.0,0.0,62.548975102030106
4.92,5783.7312,-4.812178489244679,-0.4185177081906484,-2.3577150980698764,-0.11305582319304971,1.4219657356586626,-1.5042820352005277,0.24276269075864176,10.177442236849211,-20.2871075136497,-23.307095,-11.954493172396715,0.0,23.307095000000004,0.8540744859612304,0.494288,-0.05823,-0.15114699,1.0,0.0,0.0,0.0,62.68472419691256
4.9443,5783.7513,-5.708676482825881,0.062049691826847386,-2.1345354062601203,-0.265016927475681,1.2820670235857878,-1.140661895227585,-0.3723052697297984,9.941047150057424,-20.537576446867824,-28.311113,-14.959078185825962,0.0,28.311113000000006,0.8542516821372728,0.48783201,-0.047311,-0.173308,1.0,0.0,0.0,0.0,62.64567615221891
4.9579,5783.7713,-6.470053035379376,0.5856252958117816,-1.8546395003471314,-0.4449008358272375,1.1366011245343455,-0.6912070493259315,-0.9434624416111501,9.687778914550654,-20.77327814650574,-32.050999,-17.517539465169214,0.0,32.05099899999999,0.8553534481955865,0.48010999,-0.036652,-0.19110601,1.0,0.0,0.0,0.0,62.40239164859306
4.9803,5783.7913,-7.008116254629756,1.0612955856542832,-1.4999228194885745,-0.6416144738211785,1.012515609722551,-0.16044831345702057,-1.5267116863155792,9.476759430069272,-20.955468762654952,-34.938076,-19.74356459825813,0.0,34.938075999999995,0.856954992185809,0.472215,-0.024481,-0.20504101,1.0,0.0,0.0,0.0,62.047220634986225
5.0005,5783.8113,-7.2718617842119375,1.4490866037123662,-1.0459587920843028,-0.8371500046397703,0.9179280453256365,0.44900751061260247,-2.105377138513063,9.304619128135325,-21.073650003311972,-37.183331,-21.726757895801992,0.0,37.18333100000001,0.8590409507008383,0.463947,-0.010811,-0.216067,1.0,0.0,0.0,0.0,61.581858332415194
5.0167,5783.8314,-7.210273334424304,1.6955323901054373,-0.45336927941861127,-1.0077598172561568,0.8424595738479639,1.1265868118506335,-2.6894780268011207,9.149560141046994,-21.121342403709384,-38.74015,-23.437334130934616,0.0,38.74015,0.8620351836096946,0.454815,0.005015,-0.223637,1.0,0.0,0.0,0.0,60.90826610683136
5.034,5783.8514,-6.757389575555491,1.7593628072279794,0.3061021242174,-1.1188028106340733,0.7700395104759689,1.8326871731113146,-3.2823170419145296,8.961367828586562,-21.10396185135446,-39.376213,-24.752903871122353,0.0,39.37621300000001,0.8667408355577922,0.44380099,0.023518,-0.22638001,1.0,0.0,0.0,0.0,59.83583137464351
5.0562,5783.8714,-5.859058242102396,1.6054260720960007,1.2214619282276047,-1.1382984239742187,0.6865724971100128,2.492102260289081,-3.8420970568230874,8.755625092242694,-21.009644493760774,-38.839565,-25.403074552643126,0.0,38.83956499999999,0.8733144802002082,0.43136299,0.044788,-0.22190499,1.0,0.0,0.0,0.0,58.3077634898237
5.0762,5783.8915,-4.508685534110983,1.2666002769769418,2.242841425004695,-1.0481180387296805,0.5871491950469748,3.010504895247217,-4.271734520771057,8.619825591394292,-20.82407153137527,-37.161137,-25.217607695556293,0.0,37.161137,0.8809197676448065,0.41906899,0.067748,-0.209217,1.0,0.0,0.0,0.0,56.49297151834944
5.0965,5783.9115,-2.7889531156976406,0.8920027399829884,3.2965255458038882,-0.8401720730659489,0.48869082754928683,3.3087052638155274,-4.4956738126958395,8.603581337755054,-20.57259691394068,-34.645306,-24.324964466823005,0.0,34.645306000000005,0.8887340796366593,0.40713099,0.090507,-0.190275,1.0,0.0,0.0,0.0,54.570799090540326
5.1177,5783.9315,-0.9428467337456188,0.6416993333835235,4.288700739124838,-0.5227158353951908,0.40732170945661195,3.3558904109471612,-4.500403111201217,8.70549795237378,-20.306863932913704,-31.550228,-22.861387737828895,0.0,31.550228000000004,0.8962668608591416,0.39546499,0.111177,-0.167191,1.0,0.0,0.0,0.0,52.65675885495671
5.1341,5783.9515,0.708166783646226,0.5591643481435131,5.114910239593954,-0.11451274213502516,0.32627956290470106,3.189596573314492,-4.369113468474687,8.934794722536996,-20.04654781414554,-28.317604,-21.07215179811256,0.0,28.31760399999999,0.9024150409305686,0.38553599,0.129299,-0.142446,1.0,0.0,0.0,0.0,51.04529588032905
5.1535,5783.9716,1.949848738731264,0.5192702143750783,5.650004760100716,0.3592720700448242,0.1977895053935832,2.899200191478542,-4.234113704934735,9.337952029623825,-19.75593614559,-25.863775,-19.585033964185662,0.0,25.863775000000004,0.9051748265919904,0.38044199,0.145757,-0.12115,1.0,0.0,0.0,0.0,50.306320876212396
5.1762,5783.9916,2.6227090134103053,0.38831715031436786,5.792972080293563,0.8279809078397959,-0.012406587302160377,2.5815067783826313,-4.096869884174077,9.855482984875891,-19.443117121660016,-24.226931,-18.432090684768845,0.0,24.226931000000008,0.9046345577356306,0.381556,0.15892699,-0.103892,1.0,0.0,0.0,0.0,50.45178195899025
5.1947,5784.0116,2.7540532059094973,0.08635542805402174,5.509072977583294,1.2210709132199213,-0.2978007098373392,2.304675415032316,-3.9933585294301492,10.43526391378328,-19.084629385418474,-22.862862,-17.219349044399323,0.0,22.862862000000007,0.9014758353188064,0.38908699,0.168593,-0.08677,1.0,0.0,0.0,0.0,51.294515129804715
5.2153,5784.0317,2.52106720835792,-0.34610975544361544,4.821310245071938,1.4963777504596352,-0.5982455658892418,2.0926836088663627,-3.9252763300019224,11.001449226624837,-18.671781004676767,-21.214266,-15.607486739860532,0.0,21.21426600000001,0.8967993657789907,0.40103799,0.17450801,-0.066831,1.0,0.0,0.0,0.0,52.51900755862268
5.2359,5784.0517,2.136500697310899,-0.7630394316158347,3.8005886315202506,1.641985766118449,-0.8336224669775917,1.949495779987322,-3.8220629125481307,11.433808774339905,-18.26330152346427,-18.981625,-13.548207086990292,0.0,18.981625000000008,0.8923926657161072,0.41322401,0.17571899,-0.044767,1.0,0.0,0.0,0.0,53.649069413059486
5.2558,5784.0717,1.7149983069789119,-1.088285065178984,2.545037275800178,1.6541801062383925,-0.9591595453725729,1.8788466217104087,-3.5726873815670914,11.757672342075985,-17.89272946009463,-16.025843,-11.043509911088607,0.0,16.02584300000001,0.8889981098834012,0.42423701,0.170987,-0.021651,1.0,0.0,0.0,0.0,54.50476282425415
5.2745,5784.0917,1.3910712032025814,-1.307754384302017,1.1273513257034722,1.5476271221096716,-0.9827805242606352,1.861918902233794,-3.317854468847724,12.088881890326379,-17.514581326142913,-12.832808,-8.521733291293286,0.0,12.832808,0.8853081952908489,0.43475699,0.164969,0.000994,1.0,0.0,0.0,0.0,55.42105639387402
5.2962,5784.1118,1.1943069258322283,-1.3963869700959322,-0.378347508004353,1.3380255191752368,-0.9525995902242248,1.8833926577928755,-3.225094329794506,12.436517413545978,-17.129014182086912,-9.883072,-6.35167649816515,0.0,9.883071999999999,0.8807746236052103,0.44415501,0.162687,0.022256,1.0,0.0,0.0,0.0,56.52810514341718
5.3179,5784.1318,1.0249942921300823,-1.3570195741539188,-1.879218285323371,1.0294170340208122,-0.9275655928027553,1.9548653063055343,-3.2077567174219737,12.690382731210352,-16.823301541882604,-6.950373,-4.368755697234231,0.0,6.950373000000013,0.8769815617601318,0.450102,0.16281199,0.042471,1.0,0.0,0.0,0.0,57.439265244797696
5.3411,5784.1518,0.8652615707068853,-1.2802028071943647,-3.2882304972259986,0.6356581557961739,-0.9474322614863329,2.085962966150474,-3.126517183709082,12.7952090795412,-16.639806105652273,-3.710759,-2.307441174083451,0.0,3.710758999999996,0.8749501968025837,0.45194399,0.162297,0.062197,1.0,0.0,0.0,0.0,57.92183603031672
5.3583,5784.1718,0.8310148113602416,-1.265382095604564,-4.522345753959195,0.1923340076283526,-1.0143482938612616,2.2691190563271295,-2.99394455624449,12.76739207115821,-16.55203533023087,-0.111342,-0.0691304600877749,0.0,0.1113420000000076,0.8741777911003001,0.450629,0.161109,0.082405,1.0,0.0,0.0,0.0,58.104367331270026
5.3765,5784.1918,1.0525767656097462,-1.3298954171940949,-5.481526803091498,-0.25586053023065036,-1.0906769280202004,2.4845574686747662,-2.854630720207027,12.573018692066855,-16.581396240858517,3.886337,2.4405078114125844,0.0,3.8863369999999975,0.8747930161558218,0.445342,0.159961,0.10402,1.0,0.0,0.0,0.0,57.959022762809255
5.3983,5784.2118,1.5908184033563482,-1.4137380809333073,-6.061610164059274,-0.6665011808487402,-1.1156634443984115,2.6920562743011085,-2.6849691814171797,12.135290487861322,-16.787952420244267,8.356375,5.407911483510954,0.0,8.356375000000014,0.8777376162903126,0.433752,0.158466,0.127767,1.0,0.0,0.0,0.0,57.258707670176044
5.4214,5784.2317,2.4098496977079162,-1.4137295184735155,-6.198255135780975,-1.0009775215333234,-1.0528036443268252,2.82223178551407,-2.465777220988425,11.469087208043966,-17.140841916676663,13.208121,8.954317584817698,0.0,13.208121000000006,0.8824324672889932,0.41586301,0.156588,0.154438,1.0,0.0,0.0,0.0,56.12560563251263
5.4447,5784.2517,3.4030174022965496,-1.2137728549924482,-5.931978123418996,-1.2096458328469957,-0.9262177971689942,2.808827868385529,-2.350838341179234,10.715479430218947,-17.497774013785374,17.877226,12.760815598200447,0.0,17.877226000000007,0.8859004684169547,0.39558101,0.158225,0.183469,1.0,0.0,0.0,0.0,55.274924526980556
5.4709,5784.2717,4.380238676567369,-0.7574210696328878,-5.365288406025941,-1.293973611697562,-0.7729140214920127,2.6192835140256894,-2.27404127701587,9.964734162373535,-17.805392233753782,21.873087,16.405088988990098,0.0,21.873086999999998,0.887935794818747,0.375193,0.16226999,0.210876,1.0,0.0,0.0,0.0,54.7700099435772
5.5357,5784.2917,5.131826238654719,-0.10508513873916159,-4.563130694214671,-1.296888897552844,-0.6429759895339224,2.248137904601514,-1.9653528776373372,9.303231556274255,-18.05173783732962,25.417641,19.877441947029553,0.0,25.417641000000003,0.8901013831951616,0.355492,0.161984,0.23474699,1.0,0.0,0.0,0.0,54.228021175960045
5.5406,5784.3117,5.590898606534742,0.657638542088504,-3.613961467599955,-1.207168133366253,-0.5910679256415395,1.742375479481868,-1.5215584627883536,8.778824554488786,-18.210875196020922,28.4832,23.037122373105916,0.0,28.48320000000001,0.8920580372603342,0.33735701,0.15885501,0.255319,1.0,0.0,0.0,0.0,53.733981768392354
5.5421,5784.3317,5.781228255258223,1.425201987238787,-2.578539769990037,-1.0171237191672653,-0.6296502912804043,1.1637671353785282,-1.0046946677063726,8.399368030748978,-18.293453194207217,30.808794,25.58287290742598,0.0,30.808794000000006,0.8943240273477392,0.32111001,0.153843,0.27093399,1.0,0.0,0.0,0.0,53.15653034780766
5.5696,5784.3518,5.6825158495789765,2.068544618896343,-1.417633667623761,-0.7417536710549445,-0.7402098069318847,0.5521711906502333,-0.25270398962735063,8.274254066619086,-18.273486966328225,32.875217,27.709644442201554,0.0,32.87521699999999,0.8972249252301564,0.308191,0.14156701,0.28277999,1.0,0.0,0.0,0.0,52.40867974009385
5.5708,5784.3718,5.365074297532542,2.5518036979421175,-0.19673640088909572,-0.3831618074441583,-0.8791980991113489,-0.048133351182415185,0.5539953252012126,8.396771183305463,-18.147960242482274,34.72057,29.456708072103822,0.0,34.72057000000001,0.8996058908351479,0.299265,0.125609,0.29218501,1.0,0.0,0.0,0.0,51.78737678981235
5.5752,5784.3918,4.8970788287500095,2.8530756038821856,1.0022615789398266,0.028953692352538418,-1.003594343990521,-0.6095742210143001,1.3366371704541828,8.69708974594672,-17.943876545627447,36.129841,30.69336369300238,0.0,36.129841,0.9016983617249952,0.293823,0.108171,0.29817301,1.0,0.0,0.0,0.0,51.2355697025199
5.5969,5784.4118,4.336684978396113,2.939659859932981,2.109086082939399,0.44619154287725366,-1.0804925313524547,-1.11051896298814,2.075796341176605,9.154207930384716,-17.65743861579201,37.083076,31.386665445722265,0.0,37.083076000000005,0.903421533186452,0.29246601,0.089859,0.30036399,1.0,0.0,0.0,0.0,50.776955708468215
5.6155,5784.4319,3.673249915348317,2.748563991921322,3.0874613210354784,0.8105405823965871,-1.0741417593759883,-1.5222334314883803,2.910881364386155,9.776860025898939,-17.237241476999984,37.662605,31.5523425308193,0.0,37.662604999999985,0.9050023875820218,0.296085,0.067271,0.29795799,1.0,0.0,0.0,0.0,50.35279074313449
5.6353,5784.4519,2.929639794750442,2.2660709077320633,3.8661810694215006,1.0726382152048488,-0.9542238860912348,-1.8176110812305915,3.8457190877093996,10.54436464138622,-16.640862661263117,37.984116,31.2900936241417,0.0,37.984116,0.9057103801933596,0.305448,0.040309,0.291145,1.0,0.0,0.0,0.0,50.1617401821364
5.6566,5784.4719,2.236296635948384,1.6562382472284054,4.34302032187443,1.2085521101372154,-0.7292735794626428,-1.9940868956347444,4.665952777154407,11.284810818730154,-15.986977549725731,37.947514,30.679099047068647,0.0,37.94751400000001,0.9054527513540614,0.31763199,0.015515,0.281113,1.0,0.0,0.0,0.0,50.23133950821639
5.6754,5784.492,1.6460799880550683,1.0957753167929232,4.496742038967071,1.2515608011871926,-0.4452720526826909,-2.0787841967312013,5.279219288479711,11.853977454000749,-15.425653751512584,37.53244,29.8598783408989,0.0,37.53244000000001,0.9051495526306136,0.32861999,-0.003804,0.269627,1.0,0.0,0.0,0.0,50.313134359740985
5.6948,5784.512,1.1600469885788405,0.6410664045111503,4.360761087236302,1.2672135525680885,-0.15585550592801223,-2.1193501793720704,5.678551534479474,12.23049455888194,-15.0262659442504,36.794384,28.901668170767234,0.0,36.79438400000001,0.90526620278,0.33731401,-0.017571,0.257689,1.0,0.0,0.0,0.0,50.28168001519823
5.7166,5784.532,0.7790628298357336,0.22416622326855595,3.9801283328110237,1.3076334286822038,0.09916330730024625,-2.1593572615180756,5.877744027298518,12.48571660599226,-14.767306022220996,35.776051,27.71286895673868,0.0,35.776050999999995,0.9053182719180364,0.34614199,-0.026954,0.24465901,1.0,0.0,0.0,0.0,50.26763379628116
5.7383,5784.552,0.4776219685221883,-0.2173954080574747,3.4049903083309623,1.3964732576155443,0.29253739575937376,-2.2175666370047957,5.928721842722588,12.661259353273959,-14.61882363299219,34.438038,26.17428401651739,0.0,34.438038000000006,0.904882650277924,0.357169,-0.033981,0.229048,1.0,0.0,0.0,0.0,50.3850346780639
5.7552,5784.5721,0.21186559007652583,-0.6655937574983142,2.699653629786642,1.5346362632486548,0.4139827051212168,-2.2944916262671033,5.8623872605045175,12.738640473035813,-14.605253738655865,32.845318,24.37861089026227,0.0,32.84531799999999,0.9038546444470482,0.369968,-0.040222,0.21107499,1.0,0.0,0.0,0.0,50.66107597874818
5.7765,5784.5921,-0.03529091198050471,-1.062015374673157,1.936594557183291,1.7071424750196442,0.47579985562922644,-2.3867025210871753,5.67345784419212,12.675991016488833,-14.783996771279151,31.082729,22.483080163856197,0.0,31.082729,0.9024471091769533,0.38294199,-0.046083,0.191888,1.0,0.0,0.0,0.0,51.036766497340544
5.7989,5784.6121,-0.27309989409796387,-1.3744487027505619,1.168373796055814,1.8895208437280173,0.516040302329758,-2.484066074367989,5.393700378257019,12.473620131142258,-15.148509755479548,29.263987,20.61143656886514,0.0,29.263986999999986,0.9006092860556346,0.39558199,-0.052363,0.172267,1.0,0.0,0.0,0.0,51.523457802478745
5.816,5784.6322,-0.4699985715162318,-1.582426252019081,0.4100890055031048,2.032201248613495,0.5888596572871858,-2.5714128910259926,5.051569573784878,12.178738194109775,-15.643177651370731,27.286737,18.659430459743724,0.0,27.286736999999988,0.898123041946514,0.408672,-0.05862,0.15141299,1.0,0.0,0.0,0.0,52.17512828173996
5.8384,5784.6522,-0.638884855068768,-1.6726363121334744,-0.35225370006383905,2.0838326826946485,0.7494021198780476,-2.6155433133235864,4.789793438416833,11.885779517693829,-16.14598991157208,25.065102,16.55016964926672,0.0,25.065101999999996,0.8944565649993519,0.42332199,-0.066784,0.127616,1.0,0.0,0.0,0.0,53.12257522720178
5.8554,5784.6722,-0.7686183059245395,-1.6403419935971986,-1.129524359923911,2.002422203540812,1.047399056091661,-2.589933457518021,4.658235232670095,11.730472091128807,-16.550687621775985,22.810007,14.418802317492716,0.0,22.810006999999985,0.8887397435767008,0.44031101,-0.076568,0.102006,1.0,0.0,0.0,0.0,54.56938326420548
5.8752,5784.6922,-0.7857891218274633,-1.4613070521043752,-1.8887593573842665,1.7632110108440018,1.4728191507103876,-2.5221637466225184,4.471559930264247,11.69591282435163,-16.91939222079466,20.0509,12.066484631694129,0.0,20.050900000000013,0.8825928867556774,0.45676401,-0.081381,0.075984,1.0,0.0,0.0,0.0,56.086517469414346
5.8972,5784.7123,-0.7263672483017842,-1.1570485639042993,-2.5838889998181642,1.4003997242899686,1.9429678211106922,-2.469613745205269,4.075714816409349,11.628784943486608,-17.379517044262364,15.995186,9.23476798929081,0.0,15.99518599999999,0.8791934393517958,0.46758801,-0.076552,0.050201,1.0,0.0,0.0,0.0,56.90955791654843
5.9174,5784.7323,-0.7558910947276934,-0.8502733738594004,-3.191702792840423,0.9996541407300822,2.360964122946115,-2.4620766635107403,3.5145302898691066,11.477874096401898,-17.920677862422462,10.380322,5.84465630045453,0.0,10.380322000000007,0.8790393949004789,0.471852,-0.06405,0.023303,1.0,0.0,0.0,0.0,56.94659512140554
5.9437,5784.7523,-1.0610360913853658,-0.6529409706697544,-3.680584879848224,0.6537028181332192,2.660170355659492,-2.4777530048369742,2.987824044705916,11.298628585296767,-18.425483459632673,3.631067,2.02428779691585,0.0,3.6310670000000016,0.8800723988271646,0.47211999,-0.050264,-0.006987,1.0,0.0,0.0,0.0,56.697803834685324
5.9674,5784.7724,-1.7063766901839026,-0.586507571406576,-3.994470527492097,0.38319735145476297,2.818799410080237,-2.4672512280797707,2.4957745909721867,11.191281224641486,-18.79922489600861,-3.748057,-2.0811737945251148,0.0,3.7480569999999886,0.8799769909670478,0.47187901,-0.036763,-0.040239,1.0,0.0,0.0,0.0,56.72082403418837
5.9798,5784.7924,-2.6483261476775812,-0.5650032118473782,-4.072859898446822,0.16319653924209304,2.8201796491515645,-2.3942952400679816,1.9362824749716239,11.108000782465378,-19.064243932466038,-11.356732,-6.330369045233066,0.0,11.356731999999994,0.8788300932845665,0.47077799,-0.022362,-0.074335,1.0,0.0,0.0,0.0,56.99688257416469
5.9948,5784.8124,-3.774307586103116,-0.45768963412517527,-3.881352212270105,-0.01595770395677984,2.6503366454489945,-2.2453531045135584,1.2982751282013008,10.904467842666445,-19.31265208132152,-18.729353,-10.661528657370248,0.0,18.729353000000003,0.8780464718510405,0.46599701,-0.007679,-0.10873,1.0,0.0,0.0,0.0,57.18479807138388
6.0197,5784.8324,-4.913382950023916,-0.20958747869065064,-3.426129042054564,-0.1706047758255761,2.333813484859496,-1.9970323696972856,0.5429535607788369,10.625007964784977,-19.55680673075665,-25.448921,-14.975376967035439,0.0,25.448920999999984,0.8772670712539368,0.45842299,0.008043,-0.142078,1.0,0.0,0.0,0.0,57.37114224539012
6.0434,5784.8525,-5.911072508836609,0.15782179236766591,-2.7700406467741425,-0.3094559154577796,1.920613564115625,-1.6331371209169103,-0.26435718259195395,10.387850033809215,-19.76332950309801,-31.174725,-18.98046805857642,0.0,31.174724999999995,0.8754923346072198,0.45089,0.024138,-0.17213,1.0,0.0,0.0,0.0,57.793406167367685
6.0561,5784.8725,-6.637888303074243,0.6066402702995863,-1.998911942752497,-0.4382795144483035,1.4667863126621536,-1.1627301311824667,-1.0494781264491562,10.190950873231268,-19.944662778003362,-35.812225,-22.51336495983621,0.0,35.81222500000001,0.8730696329008586,0.44388199,0.039748,-0.197834,1.0,0.0,0.0,0.0,58.36533181719968
6.0817,5784.8925,-7.041073277460919,1.120149909578671,-1.233444373402996,-0.5508072271031653,1.0347603996872927,-0.6099260458062927,-1.6534708012444352,9.949512829777811,-20.146996198126075,-39.207405,-25.400520504198727,0.0,39.207404999999994,0.8711360081147145,0.43643299,0.051708,-0.21903101,1.0,0.0,0.0,0.0,58.818158985673236
6.0958,5784.9126,-7.0881501015658674,1.5901140757177075,-0.5330222445741271,-0.6549822665391761,0.6783365231517383,-0.005080297457630972,-2.1205973386874932,9.67651164624023,-20.355626127959706,-41.377438,-27.538102753657782,0.0,41.377437999999984,0.8703244414205544,0.428895,0.061704,-0.234045,1.0,0.0,0.0,0.0,59.00727281048122
6.1201,5784.9326,-6.768216359617112,1.8768469767232885,0.12367898163762803,-0.7485407916305741,0.4129851225154388,0.6014616325149464,-2.564020835965736,9.468521589586476,-20.506903182215623,-42.613232,-28.999968056895547,0.0,42.61323200000001,0.8702485562383887,0.422701,0.073308,-0.24211,1.0,0.0,0.0,0.0,59.02492761662629
6.137,5784.9526,-6.1168154204701635,1.9448533387309497,0.7687337526790365,-0.8123164713623197,0.2210190262356359,1.1444842072867099,-3.039805657057903,9.283075736329355,-20.606155024632358,-42.87838,-29.830214633287234,0.0,42.87837999999999,0.8716725257128045,0.41642699,0.087829,-0.243026,1.0,0.0,0.0,0.0,58.69283340102588
6.1617,5784.9726,-5.225773225876809,1.8993225283728639,1.3961345108747292,-0.8180866890041887,0.09145583902108745,1.5738682459417404,-3.46132473848406,8.993003623923189,-20.71418140527736,-42.10931,-30.075580385908815,0.0,42.109309999999994,0.8755901935740829,0.40740499,0.102636,-0.238388,1.0,0.0,0.0,0.0,57.77019605420318
6.1759,5784.9926,-4.2175731231116185,1.811961085566646,1.994946176541605,-0.7467867031285156,0.013306287739010436,1.878228829372691,-3.7319936552185,8.650722810128682,-20.819705896935123,-40.636921,-29.817193340681047,0.0,40.636921,0.881050988820874,0.39681199,0.115639,-0.230037,1.0,0.0,0.0,0.0,56.46119080072489
6.1975,5785.0126,-3.191996426400727,1.7053562006290495,2.552407350660527,-0.5977933916535196,-0.03581197526853219,2.085951164492132,-3.847608029945793,8.408388926730112,-20.8638055381965,-39.067944,-29.32564544121378,0.0,39.06794400000001,0.8860711067742474,0.38751099,0.126938,-0.22045401,1.0,0.0,0.0,0.0,55.23275675883124
6.216,5785.0326,-2.2079118928474664,1.5363548226049755,3.0429847543374553,-0.3874827284470771,-0.09018592446508156,2.243982724507329,-3.917867358057386,8.396970498850958,-20.78146448746113,-37.718285,-28.776068223418978,0.0,37.71828500000001,0.8892377261666309,0.381917,0.138927,-0.209988,1.0,0.0,0.0,0.0,54.444768689116785
6.2506,5785.0525,-1.3434872177804227,1.3398496470408094,3.4109819216720005,-0.14955832248019751,-0.15816473394439945,2.387853050255476,-3.942584716520922,8.526454706880148,-20.615282649222735,-36.320152,-28.046205427214993,0.0,36.32015200000001,0.8915570526807692,0.37854099,0.150564,-0.197897,1.0,0.0,0.0,0.0,53.86087553911619
6.2684,5785.0725,-0.6708556399404602,1.1137922045961774,3.619438227048658,0.08113450279865686,-0.2366135745483463,2.531407032834524,-3.8679526259190444,8.723289179824988,-20.413106513507444,-34.452347,-26.811555278473158,0.0,34.452347,0.8941627748999171,0.376508,0.159841,-0.18211401,1.0,0.0,0.0,0.0,53.197814877855876
6.2757,5785.0925,-0.16959240271306975,0.8118513568185186,3.654713785368651,0.2880975081145427,-0.3298254475890341,2.6677182809156483,-3.731876097394567,9.003461730664295,-20.170949796208767,-32.052872,-25.01288150530326,0.0,32.05287200000001,0.8968290630906983,0.37625301,0.16714901,-0.16184101,1.0,0.0,0.0,0.0,52.511315414169516
6.298,5785.1125,0.31146275999331063,0.4224222126128474,3.5076727642472356,0.48733037174795457,-0.4531887348007131,2.7729524092251685,-3.71213845215739,9.37855232261833,-19.858986032612336,-29.60914,-23.137040283585645,0.0,29.609139999999996,0.8982938921277379,0.377514,0.176099,-0.139787,1.0,0.0,0.0,0.0,52.13058929544249
6.3278,5785.1325,0.7826467188360611,0.009760279577940345,3.1788246613348434,0.6811781748469565,-0.6079158887897909,2.8240694219562785,-3.770043978100907,9.771622827583101,-19.522432944133897,-27.054586,-21.164895897548256,0.0,27.054586,0.8990461906563088,0.37915301,0.18546601,-0.116453,1.0,0.0,0.0,0.0,51.934049779317725
6.3424,5785.1525,1.201643765573022,-0.3599734314920253,2.696728285259441,0.86675530436778,-0.766320480670587,2.8118675766123444,-3.8013766080244675,10.128516520113456,-19.20595314158789,-24.067228,-18.818683107749973,0.0,24.067228,0.8998832326783625,0.380611,0.19266701,-0.090691,1.0,0.0,0.0,0.0,51.71455412765601
6.362,5785.1725,1.4575076608117024,-0.6604852212061312,2.105352540634275,1.0182323230469956,-0.8907382472400538,2.7516735090455913,-3.6251752369056183,10.486460984052796,-18.921816229200093,-20.327944,-15.755524841728095,0.0,20.327944000000002,0.9010856251965956,0.383192,0.19350301,-0.061361,1.0,0.0,0.0,0.0,51.397726435922905
6.3772,5785.1925,1.5780414246918,-0.8793724726480345,1.4168006728178888,1.1308398044273225,-0.9715257915769496,2.6696299317718677,-3.356805647303454,10.901157265459856,-18.607293188283656,-16.235468,-12.376474855318522,0.0,16.235467999999997,0.9012526656333838,0.38783601,0.19077,-0.030556,1.0,0.0,0.0,0.0,51.353567598767334
6.3981,5785.2125,1.6927823559145208,-0.979703929591965,0.6130590819201309,1.211871720432521,-1.0412920929529839,2.5924970180786056,-3.2741484855149032,11.33723920467127,-18.22272328424202,-12.969583,-9.731725696641206,0.0,12.969583,0.8990076509608024,0.39373001,0.19168299,-0.004422,1.0,0.0,0.0,0.0,51.94413516586302
6.4159,5785.2325,1.759214887149563,-0.9548485980606856,-0.271047486632666,1.2149547058231547,-1.1420382665719955,2.5569642021965624,-3.252616909419237,11.736529020169026,-17.82302854923282,-10.400279,-7.68198878599826,0.0,10.400279000000012,0.8955751316862699,0.40010199,0.19384199,0.016996,1.0,0.0,0.0,0.0,52.83520107512896
6.4409,5785.2525,1.8025627172924568,-0.8314849617497906,-1.1517734999988605,1.1050405977359994,-1.2620958700393783,2.5681487671943413,-3.180136435984738,12.069451117548049,-17.450235852674595,-7.164768,-5.195909480463885,0.0,7.164768000000009,0.8920955174986923,0.40615401,0.19366699,0.041202,1.0,0.0,0.0,0.0,53.72447729315337
6.4621,5785.2725,1.914964708597646,-0.6127066868146707,-1.9217648347164529,0.8728289531875163,-1.3367505703204505,2.5912531161334464,-2.9856556928098508,12.271276281041665,-17.171260344314895,-2.434275,-1.7342452156372166,0.0,2.4342750000000137,0.8896364469405129,0.40965301,0.188803,0.071308,1.0,0.0,0.0,0.0,54.34480305920933
6.4829,5785.2925,2.12816541578632,-0.31748177391675236,-2.486334677528509,0.5298593933560157,-1.3147674971901866,2.5711606284188107,-2.5917098189253265,12.300848318973248,-17.041479109993283,3.303546,2.3278118877314364,0.0,3.3035460000000114,0.889068248603559,0.408838,0.17836,0.102941,1.0,0.0,0.0,0.0,54.487208096223966
6.4974,5785.3125,2.4754465171654,-0.009655924047886177,-2.833019987463177,0.16644789395658538,-1.2140731524126003,2.4471123392695544,-2.3359952999363736,12.2052224949623,-16.986466993235087,8.61046,6.07174868444812,0.0,8.61045999999999,0.8882030594823461,0.40518999,0.171389,0.132447,1.0,0.0,0.0,0.0,54.70338898123682
6.5275,5785.3325,2.8458566107627226,0.25925372838484817,-2.9835665778422076,-0.14794342327414167,-1.1030742215110585,2.204231709187149,-2.291286509704461,11.981950512892105,-17.011281920538867,12.897366,9.212676763896583,0.0,12.897366000000005,0.8870196438811263,0.3989,0.170445,0.158188,1.0,0.0,0.0,0.0,54.99781341912552
6.5535,5785.3525,3.05822810994294,0.40421156625655286,-2.9434256115254147,-0.37866402392676696,-1.0564522031166006,1.8497231674217012,-2.1600848936437798,11.681715254255739,-17.117470489503823,16.736643,12.17799672085688,0.0,16.736643000000015,0.8868845280497455,0.39026499,0.168497,0.18093599,1.0,0.0,0.0,0.0,55.03133675063161
6.5613,5785.3725,3.0590647490832135,0.37601114346214803,-2.757290805803427,-0.4567277802718575,-1.1105231621901022,1.425477269999528,-1.9124668721998217,11.333867473123595,-17.274454828950454,20.49144,15.242691377361462,0.0,20.49144000000001,0.8876227507889147,0.37944201,0.16434599,0.20283,1.0,0.0,0.0,0.0,54.847947360788545
6.5806,5785.3926,2.920651592736398,0.1493745766140604,-2.509209721949885,-0.3505612824134896,-1.2481716226440929,1.0289334054761183,-1.554983277830972,10.948735383195935,-17.454455822772807,23.279663,17.714533760204446,0.0,23.279663,0.8897517074187944,0.36768299,0.158867,0.218889,1.0,0.0,0.0,0.0,54.31587376137531
6.5977,5785.4126,2.6906373483720945,-0.2674311663574547,-2.2432917362434077,-0.11639111774853908,-1.4222117348319188,0.7653384377341007,-0.9712646500932625,10.664165143167844,-17.55889626582367,25.449892,19.629733001928678,0.0,25.449892000000006,0.8927126951878414,0.358482,0.14804401,0.22942901,1.0,0.0,0.0,0.0,53.56774500001686
6.6192,5785.4326,2.435638616310771,-0.7736359655491389,-1.9989283790363128,0.1305156498258708,-1.5583657159581892,0.7065157106817588,-0.11630060387196361,10.586343926606075,-17.503263206244924,27.780943,21.4399140854742,0.0,27.780943000000008,0.8952143354348722,0.35390499,0.128961,0.238142,1.0,0.0,0.0,0.0,52.92805241838523
6.6376,5785.4527,2.2917722028268033,-1.1986175067869782,-1.8138662556881915,0.2761710907154127,-1.5920271464305231,0.8479995417308266,0.7746382183777376,10.707403640953787,-17.27445132222489,30.768093,23.5844333391535,0.0,30.768092999999993,0.8952309985746136,0.35348901,0.105943,0.24976601,1.0,0.0,0.0,0.0,52.92376746921988
6.6574,5785.4727,2.393239915822371,-1.3387284396920958,-1.6746998327936797,0.26701143617059553,-1.4984413548872157,1.110551611230732,1.3386300784722005,10.84340290152949,-17.02237792788198,34.226486,26.193565822578204,0.0,34.226485999999994,0.892509496637991,0.352649,0.088393,0.266931,1.0,0.0,0.0,0.0,53.61939411486343
6.6773,5785.4927,2.6725795640855985,-1.1222350225441695,-1.5245744382246453,0.10719027758503494,-1.3052121681783986,1.3767702356609548,1.5868899111432198,10.86650406588497,-16.87180358426214,37.723015,29.1238953468352,0.0,37.723015000000004,0.8888073220358166,0.34786901,0.077717,0.28804299,1.0,0.0,0.0,0.0,54.552487925519955
6.6995,5785.5127,2.9569193181983584,-0.6364202447869247,-1.3341410780224088,-0.1481678656838953,-1.0729860229668007,1.5419852703608428,1.7104627063526645,10.793986635839953,-16.814973709106308,41.012432,32.18091947400898,0.0,41.01243199999999,0.8851963358363498,0.33934501,0.070257,0.310381,1.0,0.0,0.0,0.0,55.44861571669885
6.7183,5785.5328,3.1419083484282795,-0.016013251523700145,-1.1172690024669265,-0.4064472077853671,-0.8651814572069487,1.5515049951137714,1.7906676898244638,10.675617124944134,-16.81589451267095,43.862278,35.08054583293366,0.0,43.862278,0.8819815184413332,0.32877401,0.064589,0.33142799,1.0,0.0,0.0,0.0,56.23535111574589
6.7447,5785.5528,3.2193370128665975,0.6564092315121259,-0.9072473667630554,-0.5706294558762004,-0.7298224626293907,1.4034278588664353,1.7694945155337187,10.508939564759332,-16.882426114461524,46.098999,37.61392606928017,0.0,46.09899899999999,0.879248056146512,0.317029,0.062691,0.34997901,1.0,0.0,0.0,0.0,56.89642098998005
6.7734,5785.5728,3.162801714249406,1.3025127949919248,-0.6978146497583069,-0.5922752854945489,-0.695108278940836,1.1192854306840747,1.6942872687031745,10.339293818949415,-16.978911453979027,47.939236,39.86455299842643,0.0,47.939235999999994,0.876715126095575,0.305159,0.062888,0.36646101,1.0,0.0,0.0,0.0,57.50277059691118
6.7821,5785.5929,2.9220546063494406,1.8103792511706582,-0.43622029612057744,-0.47735659586588575,-0.7542068248882354,0.7316172494007336,1.728815098789465,10.289010037414958,-17.00991846721316,49.743641,41.97321138106617,0.0,49.743641,0.8739662869290669,0.29527101,0.059514,0.381387,1.0,0.0,0.0,0.0,58.15425777601462
6.7979,5785.6129,2.525012445304923,2.1221929433264934,-0.09989844853868846,-0.2611781052589395,-0.8632820877233187,0.294618537565035,1.958036905685677,10.377078450421877,-16.94503153333367,51.295387,43.68771274911732,0.0,51.295387000000005,0.8719142185938361,0.28819501,0.050179,0.392672,1.0,0.0,0.0,0.0,58.63629645547388
6.8218,5785.6329,2.0801057352636665,2.2703575948241306,0.2854674203094092,0.004334490284131964,-0.9816190645504311,-0.1326149237274055,2.2836532787998696,10.53477934370085,-16.820357183313536,52.273575,44.744063284814715,0.0,52.273574999999994,0.8711807332970467,0.283988,0.037869,0.39869899,1.0,0.0,0.0,0.0,58.807720887626886
6.844,5785.6529,1.6521062537665276,2.3010142605587,0.7134438103643213,0.2608992498890503,-1.0806806616718674,-0.5193692120649286,2.6141337858079186,10.749333167574523,-16.647982750595506,52.875477,45.31217301931733,0.0,52.87547699999999,0.870938614796657,0.28298801,0.024404,0.40098399,1.0,0.0,0.0,0.0,58.864207099159195
6.862,5785.673,1.241021725000671,2.230134631261044,1.1985629761849452,0.46599022793615297,-1.1223577620964653,-0.8629315169409235,2.9481564495815102,11.046855912406075,-16.414822722501313,53.467007,45.729303861412816,0.0,53.467006999999995,0.8701084204437053,0.28515199,0.008994,0.401894,1.0,0.0,0.0,0.0,59.05751780452363
6.881,5785.693,0.8100525059885504,2.056877176868871,1.7344535094292102,0.6062182322064908,-1.06557121888895,-1.165119554677469,3.400582281780314,11.393090678017774,-16.12877204901808,53.9417,46.02410304888004,0.0,53.9417,0.8693969556261051,0.28870499,-0.010546,0.40085801,1.0,0.0,0.0,0.0,59.22272538745352
6.9049,5785.713,0.4237798121707401,1.8430241022585467,2.258093931056383,0.698456414763739,-0.8935709008710415,-1.4236611242917592,3.8491701001981014,11.662934184583431,-15.910571538417297,53.977612,46.030340967160875,0.0,53.97761199999999,0.8697735817190126,0.291417,-0.029234,0.39713401,1.0,0.0,0.0,0.0,59.1353222188488
6.9193,5785.733,0.12437299811062097,1.5688085968044714,2.7106756875812614,0.7790119870828296,-0.6162916244134573,-1.6425834719011598,4.223802996110823,11.86280228293073,-15.787439268490916,53.443668,45.54161004530499,0.0,53.443668,0.8715320305544254,0.294287,-0.04486,0.38963401,1.0,0.0,0.0,0.0,58.72567532264011
6.9399,5785.7531,-0.08093005950243626,1.2096710293449044,3.0379160747178062,0.8869222261197881,-0.26478766372937623,-1.8271432265488872,4.46375044463109,12.041776708513762,-15.744143837547519,52.496292,44.57942542901453,0.0,52.49629199999998,0.8740294318579896,0.298834,-0.056571,0.378907,1.0,0.0,0.0,0.0,58.13936699066886
6.9593,5785.7731,-0.24076446402595675,0.7459040673257253,3.1972082826834622,1.0507280658382767,0.12206459558096094,-1.9821179022324393,4.590431636124095,12.252042086098852,-15.729128966402683,51.348866,43.27707291255278,0.0,51.34886599999999,0.8764468720557795,0.306146,-0.065997,0.36573201,1.0,0.0,0.0,0.0,57.566644622812724
6.9771,5785.7931,-0.3595666540849196,0.23251740246774633,3.158199432539279,1.2763733909200126,0.4988882269198722,-2.11836228256918,4.587834195943328,12.457660052843853,-15.76725747096172,49.955841,41.600254304428255,0.0,49.95584099999999,0.8789091454804187,0.31589401,-0.072746,0.349911,1.0,0.0,0.0,0.0,56.97789402827056
6.996,5785.8132,-0.4320461613552178,-0.27961396790225246,2.9162169291225943,1.5559770337695973,0.832082373523827,-2.253419884099941,4.4414809200909975,12.633067246277392,-15.880521836652395,48.253696,39.48213406717191,0.0,48.25369599999999,0.8814091701334743,0.328217,-0.076656,0.33093101,1.0,0.0,0.0,0.0,56.37435846558785
7.0156,5785.8332,-0.46843718344426843,-0.7578960885851842,2.4894372332161634,1.8693970918631455,1.1132432204087637,-2.4034495400793268,4.154274610519962,12.783134236827964,-16.062966544709226,46.345112,37.009170744258334,0.0,46.345112,0.8833005646148653,0.34345299,-0.078469,0.30929399,1.0,0.0,0.0,0.0,55.91378343601562
7.0414,5785.8532,-0.4929859839695654,-1.1783793320732556,1.9094262852534651,2.1859850133211407,1.3578395671649044,-2.573615214021914,3.7981018712894277,12.913124119460797,-16.28991800006631,44.307816,34.30005062557522,0.0,44.307816,0.8841088363265464,0.361296,-0.080008,0.28533399,1.0,0.0,0.0,0.0,55.71589375564882
7.0586,5785.8733,-0.5169597076820809,-1.534574445589497,1.207277279096445,2.464936466407909,1.5986868350021728,-2.751596338017546,3.461056839086879,13.03248759618354,-16.52996165746355,42.204121,31.463500764266207,0.0,42.20412099999999,0.8834967133707289,0.38124499,-0.082607,0.25934899,1.0,0.0,0.0,0.0,55.8658194478775
7.076,5785.8933,-0.5145291873414655,-1.8446136617091144,0.4050952782517747,2.661359624716078,1.8631586312192188,-2.9136072210347974,3.183395509213627,13.150659138604572,-16.75362233038785,39.824944,28.32584781992642,0.0,39.824944000000016,0.8814784607426661,0.40356299,-0.085557,0.22981,1.0,0.0,0.0,0.0,56.35754646958119
7.097,5785.9133,-0.4964666745832047,-2.081528241932877,-0.47247851921930106,2.748880400466876,2.1475456067815344,-3.032682136218196,2.961367515855737,13.198371140821727,-16.991194618657993,36.827667,24.76358051672168,0.0,36.82766699999999,0.8786770658290791,0.42649999,-0.087046,0.19608,1.0,0.0,0.0,0.0,57.03362371458371
7.1153,5785.9333,-0.5198782151916619,-2.1826539111522667,-1.387129529485108,2.7259357857404334,2.4179631031376445,-3.0898362274140743,2.7731498650635498,13.074716794913455,-17.306277602982508,32.878365,20.805429957830743,0.0,32.878365,0.8760167174005642,0.44718701,-0.085661,0.158999,1.0,0.0,0.0,0.0,57.66893378475885
7.1354,5785.9533,-0.6301043945043705,-2.12255688729658,-2.2908071508988215,2.590923610587579,2.650261097451477,-3.072268890779723,2.550390994692285,12.818450688022235,-17.682948321830736,27.867353,16.507574232253532,0.0,27.86735300000001,0.8730002771082034,0.465902,-0.080346,0.119793,1.0,0.0,0.0,0.0,58.38162929300205
7.158,5785.9733,-0.8523426606345128,-1.8763082516703458,-3.107433722882533,2.3409454039439272,2.829082627871633,-2.9728428829818974,2.2540028221816173,12.499403155170008,-18.087408540930454,21.758858,12.005378412931307,0.0,21.758858000000004,0.8690283168863255,0.48303601,-0.071223,0.079958,1.0,0.0,0.0,0.0,59.30816149564883
7.1768,5785.9933,-1.2043395141111295,-1.4456079103755064,-3.7497313769680156,1.9997588880950783,2.9455761589132274,-2.7837075764627484,1.989126428784644,12.15371076038113,-18.47510540552701,14.72976,7.58057453027021,0.0,14.729759999999999,0.864034305938057,0.49799299,-0.061588,0.040677,1.0,0.0,0.0,0.0,60.45476423864896
7.2041,5786.0133,-1.6429909102602127,-0.8525122782203751,-4.148102396118509,1.5892932276605047,2.9898898502684226,-2.537723907014449,1.7831597021520182,11.726508602707796,-18.860554026533812,6.830815,3.331037362750461,0.0,6.830815000000001,0.8595642551386138,0.508322,-0.05245,0.002652,1.0,0.0,0.0,0.0,61.46461472975201
7.2202,5786.0333,-2.0703545971218427,-0.17474413503156327,-4.269413933317297,1.0961861137787523,2.964967515085793,-2.285398638476887,1.402794310705758,11.256716101888514,-19.23010469055435,-1.987117,-0.9408347788305557,0.0,1.987117000000012,0.8566922853039702,0.51331103,-0.038885,-0.032834,1.0,0.0,0.0,0.0,62.105605883449435
7.2502,5786.0533,-2.4175574195994645,0.4965999983866416,-4.117557927012859,0.5430740473794626,2.8662548590951733,-2.039814028734509,0.7915756135288265,10.8887824709782,-19.50415653401257,-11.501073,-5.419661088091242,0.0,11.501072999999991,0.8546776708706972,0.51444799,-0.019836,-0.066902,1.0,0.0,0.0,0.0,62.5517130467951
7.2636,5786.0733,-2.6540863177863825,1.111639322102448,-3.7572848668643557,-0.016584740304822966,2.7031761757944084,-1.798874915940238,0.17505542789704576,10.647166511101862,-19.673301896677245,-20.369036,-9.797613963447969,0.0,20.369035999999994,0.8531948900220624,0.51199597,-0.000662,-0.09959,1.0,0.0,0.0,0.0,62.878234973449175
7.2872,5786.0933,-2.7838122811749546,1.5963215367576615,-3.2900589567534917,-0.5610318427604997,2.5241927771628054,-1.5538975837036018,-0.33941658695901955,10.504081771127868,-19.780099841392122,-27.235395,-13.585282471289599,0.0,27.23539500000001,0.8524885144605996,0.50671399,0.016164,-0.12744799,1.0,0.0,0.0,0.0,63.0332511623525
7.2973,5786.1133,-2.8300940205289633,1.9239758134354368,-2.7872533624394684,-1.0480015607973094,2.3803111499990273,-1.2899639539598338,-0.6870445721480927,10.372125241393556,-19.89162275119372,-32.486546,-16.969321611435387,0.0,32.486546000000004,0.8527084510558341,0.49859801,0.029389,-0.153051,1.0,0.0,0.0,0.0,62.9850221325507
7.3157,5786.1333,-2.813257918694447,2.094280258800328,-2.2507578263596875,-1.4393915485587132,2.296154427417264,-0.9863813719335605,-0.9175531452728665,10.152214561722664,-20.03767428097251,-36.927681,-20.3853665758607,0.0,36.92768100000001,0.853678027215179,0.487203,0.041304,-0.179335,1.0,0.0,0.0,0.0,62.77201127593387
7.338,5786.1533,-2.7834819672791946,2.069958686396855,-1.639138501182412,-1.7154438663193186,2.2391401995642193,-0.6392324750217329,-1.111096710083368,9.817182035258046,-20.174322577898778,-40.432255,-23.687713879978492,0.0,40.432255,0.8552900430307954,0.47353899,0.056118,-0.20270801,1.0,0.0,0.0,0.0,62.41641545857887
7.3574,5786.1733,-2.7842848187118285,1.903363512771559,-0.9344740128509414,-1.8427198788372081,2.1535664766590252,-0.2979809167340769,-1.1351851120664818,9.302495298096193,-20.308289160716193,-42.712757,-26.615226720390687,0.0,42.71275700000001,0.8582900142887018,0.45713499,0.072273,-0.221681,1.0,0.0,0.0,0.0,61.74975088041576
7.3764,5786.1933,-2.7975482816904274,1.6903596549677435,-0.1394674517326191,-1.8139927040802912,1.9924859331724096,-0.010731597722468816,-0.9472118853829086,8.655501596435464,-20.448815128544616,-43.991295,-29.165805064308184,0.0,43.99129500000001,0.8626762493268375,0.43786901,0.08836,-0.237177,1.0,0.0,0.0,0.0,60.763173576716156
