AppTimestamp(s),SensorTimestamp(s),gyro_x,gyro_y,gyro_z
0.1024,5050.948,-0.64801,-2.47687,-2.93639
0.1076,5050.968,-0.98215,-1.46345,-3.03718
0.111,5050.988,-0.58325,-0.67543,-2.83926
0.1149,5051.008,0.23836,-0.5105,-2.36279
0.119,5051.028,0.82174,-1.10181,-1.82156
0.1222,5051.048,0.7411,-1.82019,-1.56561
0.1247,5051.068,0.34648,-2.08042,-1.58638
0.1446,5051.088,-0.01332,-2.23191,-1.82583
0.1736,5051.108,-0.10678,-2.34004,-1.93884
0.1847,5051.128,0.05693,-2.0682,-1.86676
0.246,5051.1479,0.32083,-1.98757,-1.6945
0.25,5051.1679,0.26218,-2.08531,-1.81545
0.2631,5051.1879,0.01723,-2.07431,-1.98222
0.2723,5051.2079,-0.10983,-2.17694,-1.92113
0.3029,5051.2279,-0.13121,-2.31133,-1.82461
0.3057,5051.2479,-0.01393,-2.32049,-1.77758
0.3237,5051.2679,0.22553,-2.07248,-1.72016
0.3401,5051.2879,0.42162,-1.6968,-1.59676
0.3637,5051.3079,0.20659,-1.7872,-1.38662
0.3889,5051.3279,0.02578,-1.56607,-1.38174
0.4059,5051.3479,0.02456,-1.55019,-1.49352
0.4219,5051.3679,0.14245,-1.60883,-1.44038
0.4426,5051.3879,0.0661,-1.34066,-1.1606
0.4601,5051.4079,0.13573,-1.15985,-0.8344
0.4967,5051.4279,0.21881,-1.2472,-0.76049
0.5032,5051.4479,0.13085,-1.32478,-0.86555
0.534,5051.4679,-0.11106,-1.54591,-0.91442
0.5459,5051.4879,-0.03287,-1.84157,-0.91442
0.5618,5051.5079,0.54196,-0.83303,-0.43978
0.5812,5051.5279,1.07402,-0.07495,0.78195
0.6004,5051.5479,1.2023,-0.44391,0.76668
0.6222,5051.5678,1.25423,-1.55569,-0.31944
0.6869,5051.5878,1.27683,-2.85683,-0.94558
0.689,5051.6078,1.3709,-0.7976,-0.23636
0.6983,5051.6278,1.32936,2.0698,1.36471
0.7004,5051.6478,0.8083,4.02945,2.55835
0.7191,5051.6678,0.44056,4.10703,2.89676
0.7417,5051.6878,0.39841,3.22678,2.30911
0.759,5051.7078,0.46194,1.22008,1.49239
0.7871,5051.7278,0.48148,-0.3028,1.26331
0.8008,5051.7478,0.42895,-0.90939,1.55469
0.8202,5051.7678,0.04655,-0.25271,2.0104
0.8443,5051.7878,-0.25461,2.46014,2.65059
0.8631,5051.8078,-1.03407,3.30069,2.49604
0.8817,5051.8278,-2.07438,2.83277,1.95786
0.9023,5051.8478,-2.29918,1.83706,1.78743
0.9236,5051.8679,-1.63272,0.60128,1.6451
0.9431,5051.8879,-0.65656,-0.31746,1.38182
0.9678,5051.9079,-0.08662,-0.34984,0.94505
0.9891,5051.928,-0.03409,0.32333,0.34274
1.0123,5051.948,-0.52034,0.45039,-0.17955
1.0279,5051.968,-1.08661,-0.04746,-0.26935
1.0471,5051.988,-1.23749,-0.59235,-0.06593
1.0668,5052.0081,-0.95405,-1.32539,-0.40069
1.0874,5052.0281,-0.3157,-1.97718,-1.26873
1.1052,5052.0481,0.33182,-2.50192,-1.92541
1.1267,5052.0682,0.57495,-2.68701,-2.34874
1.1508,5052.0882,0.39779,-2.36936,-2.93394
1.164,5052.1082,0.49798,-1.51965,-3.49105
1.1846,5052.1282,0.66413,-1.07188,-3.66454
1.201,5052.1483,0.68185,-1.30157,-3.87895
1.223,5052.1683,0.72461,-1.72184,-4.15873
1.2416,5052.1883,0.86327,-2.1354,-4.31878
1.2627,5052.2084,1.00561,-2.18121,-4.13735
1.2848,5052.2284,1.26095,-1.9723,-3.73784
1.3067,5052.2484,1.5224,-1.77743,-3.38904
1.3252,5052.2684,1.46742,-1.69008,-3.08666
1.3469,5052.2885,1.04226,-1.98818,-2.56315
1.3617,5052.3085,0.45644,-1.67603,-2.18502
1.383,5052.3285,-0.34318,-1.10365,-1.87959
1.4052,5052.3486,-1.26987,-0.48667,-1.51979
1.4253,5052.3686,-1.93693,-0.1116,-1.52162
1.4495,5052.3886,-2.01634,-0.12626,-1.76964
1.4657,5052.4086,-1.84408,-0.43536,-1.69022
1.4832,5052.4286,-1.48428,-0.81043,-0.97062
1.5008,5052.4486,-1.00475,-0.39565,0.00676
1.5235,5052.4686,-0.68893,0.18161,0.61091
1.5427,5052.4886,-0.6535,0.743,0.87541
1.5637,5052.5086,-0.61197,1.11624,1.30424
1.5857,5052.5286,-0.11533,1.31171,1.49239
1.6007,5052.5486,0.10702,1.58538,1.57791
1.6217,5052.5686,-0.07013,1.67884,1.77522
1.644,5052.5886,0.02395,1.97634,1.81492
1.6786,5052.6086,0.23225,2.27261,1.98108
1.6878,5052.6286,0.24202,2.4522,2.59988
1.7047,5052.6486,0.35748,2.79062,3.48136
1.7227,5052.6686,0.71056,3.02947,4.12216
1.7452,5052.6886,0.54257,2.66173,4.53022
1.7654,5052.7086,0.20904,2.06491,4.86925
1.7823,5052.7286,0.19621,1.50597,4.93522
1.8023,5052.7486,0.34831,1.41067,4.59558
1.8339,5052.7686,0.03983,1.20237,4.17958
1.8436,5052.7886,-0.31631,0.88228,4.09956
1.8648,5052.8085,-0.10617,0.75277,3.99082
1.8833,5052.8285,0.18033,1.09119,3.47892
1.9013,5052.8485,-0.21063,1.19015,3.02382
1.9221,5052.8685,-0.63273,0.97879,2.91753
1.9538,5052.8885,-0.54111,0.72895,2.62676
1.9661,5052.9086,-0.43848,0.3832,2.05438
1.9839,5052.9286,-0.38106,0.07655,1.75506
2.0062,5052.9486,-0.22773,-0.31502,1.56569
2.0306,5052.9686,-0.08906,-0.69253,1.35311
2.053,5052.9887,-0.21551,-0.90573,0.9872
2.0652,5053.0087,-0.33952,-1.32844,0.60602
2.082,5053.0287,-0.09334,-1.86051,0.23889
2.1328,5053.0488,0.15528,-1.99246,-0.24858
2.1398,5053.0688,0.13757,-1.78293,-0.76782
2.1457,5053.0888,0.10458,-1.60028,-1.17038
2.173,5053.1088,0.30861,-1.77743,-1.48619
2.191,5053.1289,0.4656,-1.92709,-1.94618
2.2064,5053.1489,0.40879,-1.79698,-2.48068
2.2206,5053.1689,0.31472,-1.56118,-3.01275
2.2497,5053.189,0.26279,-1.52148,-3.58879
2.265,5053.209,0.22431,-1.48605,-4.00479
2.2826,5053.229,0.1956,-1.35166,-4.42262
2.3038,5053.249,0.04288,-1.06944,-4.66941
2.3262,5053.2691,-0.13305,-0.95276,-4.75799
2.3485,5053.2891,-0.12694,-0.93627,-4.73111
2.3718,5053.3091,-0.11839,-0.91489,-4.67247
2.382,5053.3292,-0.18253,-0.96987,-4.64376
2.4114,5053.3492,-0.24545,-1.04928,-4.73416
2.4247,5053.3692,-0.33769,-0.9717,-5.02677
2.4418,5053.3892,-0.68405,-0.96315,-5.44032
2.4618,5053.4093,-1.14281,-1.1177,-5.76042
2.4834,5053.4293,-1.43419,-1.04439,-5.86793
2.506,5053.4493,-1.80254,-0.5502,-5.24729
2.5279,5053.4694,-2.31261,-0.0609,-3.85635
2.5549,5053.4894,-2.6211,0.53836,-2.57292
2.5793,5053.5094,-2.77443,0.62022,-1.76292
2.5911,5053.5294,-2.93631,0.07899,-1.3292
2.6624,5053.5494,-2.83796,-0.5502,-1.02927
2.6667,5053.5694,-2.43906,-0.88923,-0.58517
2.6694,5053.5894,-1.55453,-0.66382,0.23645
2.6707,5053.6094,-0.82271,-0.16108,0.69215
2.6869,5053.6293,-0.29248,0.50721,1.05623
2.7002,5053.6493,-0.19597,0.84135,1.40931
2.7222,5053.6693,-0.2992,1.15839,1.61395
2.7406,5053.6893,-0.38411,1.47359,1.68847
2.7631,5053.7093,-0.42871,1.8395,1.752
2.7831,5053.7293,-0.48857,2.06613,1.88334
2.8025,5053.7493,-0.57165,1.81629,2.00857
2.8225,5053.7693,-0.57348,1.33737,2.0892
2.8457,5053.7893,-0.49773,1.06493,1.98474
2.8637,5053.8093,-0.49468,1.08508,1.9713
2.8915,5053.8293,-0.46475,1.36547,2.53391
2.9075,5053.8494,-0.44337,1.575,3.37446
2.9333,5053.8694,-0.51789,1.04904,4.25655
2.9545,5053.8894,-0.43298,0.83768,4.4447
2.9739,5053.9094,-0.19597,0.81691,4.07268
2.989,5053.9295,0.09969,0.97085,4.24556
3.0036,5053.9495,0.23836,0.76071,4.95477
3.0251,5053.9695,0.27623,0.06555,5.82892
3.0442,5053.9896,0.35259,-0.6907,6.33655
3.0646,5054.0096,0.63603,-0.6455,6.24797
3.0945,5054.0296,0.73927,0.03806,5.52715
3.1182,5054.0496,0.28051,0.52126,5.14964
3.1268,5054.0697,-0.46536,0.47849,5.51799
3.144,5054.0897,-1.25765,0.04661,6.00668
3.1626,5054.1097,-1.52948,-0.82509,5.77761
3.1857,5054.1298,-0.96077,-0.77744,5.12154
3.2043,5054.1498,-0.21796,-0.25027,4.25533
3.2228,5054.1698,0.20965,0.20177,3.79962
3.2458,5054.1898,-0.26194,0.56218,4.06535
3.2649,5054.2099,-1.58141,0.11381,4.24678
3.2886,5054.2299,-2.67119,-0.66749,3.83078
3.3027,5054.2499,-2.77932,-1.16962,3.15088
3.3241,5054.27,-2.30773,-1.36754,2.74222
3.348,5054.29,-1.89356,-0.90512,2.44717
3.3681,5054.31,-1.82087,-0.88129,2.08187
3.3926,5054.33,-1.72557,-0.36328,1.38732
3.409,5054.3501,-1.88073,0.03562,0.25538
3.432,5054.3701,-2.08171,0.51515,-0.77942
3.4512,5054.3901,-1.99496,0.79553,-1.52651
3.4635,5054.4102,-1.70236,0.53836,-2.07201
3.4851,5054.4302,-1.4067,0.16573,-2.51
3.5047,5054.4501,-1.16113,-0.05174,-2.74335
3.5232,5054.4701,-0.91557,-0.34556,-2.92967
3.5441,5054.4901,-0.85937,-0.64672,-3.18379
3.5661,5054.5101,-0.96566,-0.63023,-3.59307
3.584,5054.5301,-0.90152,-0.46163,-3.94309
3.6038,5054.5501,-0.59486,-0.41826,-4.22959
3.6251,5054.5701,-0.18375,-0.40054,-4.4214
3.6506,5054.5901,0.24935,-0.46835,-4.53869
3.6711,5054.6101,0.53952,-0.51355,-4.77021
3.6852,5054.6301,0.50897,-0.55142,-5.17826
3.7049,5054.6501,0.2011,-0.5447,-5.32854
3.7258,5054.6701,-0.23567,-0.49339,-5.31693
3.7465,5054.6901,-0.82332,-0.71819,-5.3548
3.7634,5054.7101,-1.345,-0.99064,-5.38046
3.7836,5054.7301,-1.41709,-0.93077,-5.44216
3.808,5054.7501,-1.17824,-0.59602,-5.44827
3.8253,5054.7701,-1.12754,-0.42131,-5.30471
3.8527,5054.7901,-1.24421,-0.51294,-4.88749
3.8755,5054.8101,-1.15991,-0.24233,-4.4214
3.8844,5054.8301,-0.93206,0.44978,-4.31694
3.9116,5054.85,-0.79767,0.79187,-4.31816
3.9259,5054.87,-0.73292,0.60372,-4.08481
3.9432,5054.89,-0.61319,0.59761,-3.6621
3.9805,5054.91,-0.58203,0.6587,-3.26809
3.9944,5054.93,-0.65778,0.73017,-3.1789
4.0045,5054.95,-0.73047,0.67519,-3.5387
4.0225,5054.97,-0.79889,0.68497,-3.7916
4.0448,5054.99,-0.97299,0.68008,-3.7971
4.0623,5055.01,-1.39571,0.56585,-3.54664
4.0815,5055.03,-1.89906,0.01668,-2.791
4.1083,5055.05,-2.02917,-0.2973,-1.77819
4.1427,5055.07,-1.97969,-0.25577,-1.15266
4.1499,5055.09,-1.95892,-0.40054,-0.59433
4.1673,5055.11,-1.89845,-0.46407,0.1216
4.184,5055.13,-1.83797,-0.44025,0.73064
4.2052,5055.1501,-1.72985,-0.0945,1.02996
4.234,5055.1701,-1.63883,0.29279,1.44962
4.2423,5055.1901,-1.48978,0.49377,2.18938
4.2634,5055.2102,-1.13853,0.39786,2.8705
4.2843,5055.2302,-0.76529,0.53775,2.94991
4.3048,5055.2502,-0.37556,0.62693,2.89493
4.3228,5055.2702,-0.02615,0.76499,3.14783
4.3479,5055.2903,-0.01087,0.52553,3.62247
4.3641,5055.3103,-0.07929,-0.02364,3.96089
4.3831,5055.3303,0.17727,0.08021,3.61453
4.4069,5055.3504,0.63664,0.22499,2.97251
4.4242,5055.3704,0.74538,0.6532,2.96335
4.4451,5055.3904,0.3923,0.85906,3.39645
4.4654,5055.4104,0.12413,0.39664,3.9499
4.486,5055.4305,0.55173,-0.24049,4.38728
4.509,5055.4505,1.21635,-0.52821,4.31703
4.5322,5055.4705,1.77041,-0.64244,3.92546
4.562,5055.4906,1.94634,-0.71758,3.58949
4.5658,5055.5106,1.71971,-0.81532,3.72571
4.6219,5055.5306,1.27316,-0.98697,4.1747
4.6234,5055.5506,0.93047,-0.95765,4.46913
4.6246,5055.5707,0.5389,-0.66382,4.36712
4.6443,5055.5907,0.13268,0.01912,3.98166
4.6619,5055.6107,0.00195,0.38748,3.86621
4.6829,5055.6308,-0.11289,0.19139,4.15209
4.7039,5055.6508,-0.06952,-0.13543,4.41415
4.7227,5055.6708,0.14795,0.50965,4.02931
4.744,5055.6908,-0.24728,0.66603,3.27306
4.7659,5055.7108,-0.96871,0.17489,2.6738
4.7832,5055.7308,-1.44274,-0.35106,2.57667
4.8033,5055.7508,-1.72374,-0.89717,2.92425
4.826,5055.7708,-1.65654,-1.24598,3.29871
4.8452,5055.7908,-1.03835,-1.21788,3.17593
4.8646,5055.8108,-0.74636,-1.40786,2.72084
4.8862,5055.8308,-1.30346,-1.40297,2.31705
4.9046,5055.8508,-1.92777,-0.80799,1.92305
4.9304,5055.8708,-1.97542,-0.45124,1.493
4.9457,5055.8908,-1.50933,-0.59724,1.11792
4.9626,5055.9108,-0.99742,-0.61923,0.61213
4.9827,5055.9308,-0.70543,-0.41459,-0.05555
5.0075,5055.9508,-0.65289,-0.27348,-0.78248
5.0289,5055.9708,-0.71276,-0.09816,-1.33164
5.0451,5055.9908,-0.62663,0.17489,-1.75497
5.0661,5056.0108,-0.35479,0.30012,-2.10195
5.0853,5056.0308,-0.05363,0.14802,-2.30292
5.1252,5056.0508,0.31533,-0.06029,-2.4819
5.1286,5056.0708,0.50409,-0.21667,-2.73908
5.1462,5056.0907,0.62015,-0.21911,-3.0549
5.1688,5056.1107,0.66474,-0.13543,-3.37804
5.1855,5056.1307,0.60854,-0.07006,-3.61262
5.2057,5056.1507,0.50347,0.0124,-3.758
5.2224,5056.1707,0.41673,0.13091,-3.79404
5.2443,5056.1907,0.21881,0.28118,-3.83558
5.2663,5056.2107,-0.0799,0.46383,-3.97791
5.2833,5056.2307,-0.24667,0.62449,-4.1459
5.3047,5056.2507,-0.08968,0.65259,-4.44278
5.3231,5056.2707,0.12596,0.56035,-4.71584
5.3448,5056.2907,0.18155,0.29401,-4.77143
5.3676,5056.3107,0.08259,0.2934,-4.83923
5.3845,5056.3307,-0.11778,0.02645,-5.0341
5.4052,5056.3507,0.02272,-0.3193,-5.08114
5.4313,5056.3707,0.54196,0.08388,-5.2253
5.4468,5056.3907,0.51936,0.68924,-5.27478
5.4661,5056.4107,-0.18619,1.49742,-4.6743
5.4882,5056.4307,-0.38472,1.48948,-4.04938
5.5049,5056.4507,-0.27843,1.09608,-3.45379
5.5283,5056.4707,-0.18192,0.72345,-3.06284
5.5479,5056.4906,-0.27049,0.32578,-2.77329
5.5634,5056.5106,-0.6193,0.07716,-2.27116
5.5834,5056.5306,-1.06584,-0.1061,-1.52651
5.6054,5056.5506,-1.3334,-0.14398,-0.99506
5.6242,5056.5706,-1.1648,-0.09511,-0.62243
5.6497,5056.5906,-0.88869,-0.18796,0.02692
5.668,5056.6106,-0.69138,-0.26187,0.78256
5.6838,5056.6306,-0.48002,0.00935,1.25598
5.7079,5056.6506,-0.35235,0.14557,1.26575
5.7304,5056.6706,-0.3218,0.23354,1.1729
5.7476,5056.6906,-0.3945,0.31784,1.19184
5.7684,5056.7106,-0.73719,0.50293,1.3977
5.7982,5056.7306,-1.27353,0.85479,1.67809
5.8099,5056.7506,-1.54048,1.28972,1.86013
5.827,5056.7706,-1.28086,1.68618,2.2187
5.8493,5056.7906,-0.5857,1.89081,2.79597
5.8679,5056.8106,-0.30348,1.59943,3.39706
5.8908,5056.8306,-0.29187,1.00323,4.07512
5.9115,5056.8506,-0.10128,0.62755,4.11116
5.9268,5056.8706,0.3306,0.74056,3.71532
5.9488,5056.8906,0.44361,0.99895,3.61453
5.9661,5056.9105,0.13146,0.91038,3.99877
5.9852,5056.9305,-0.21796,0.4058,4.64262
6.0048,5056.9505,-0.44948,-0.14276,5.0464
6.0304,5056.9705,-0.62235,-0.64611,5.09588
6.0528,5056.9905,-0.72436,-0.68704,4.83993
6.0688,5057.0105,-0.78851,-0.45185,4.40988
6.0861,5057.0305,-0.93145,-0.24172,4.13682
6.1096,5057.0505,-1.04385,-0.47446,4.10933
6.1377,5057.0705,-0.66145,-0.48973,3.92424
6.1497,5057.0905,-0.0463,-0.29608,3.42577
6.1682,5057.1105,0.11069,-0.39199,3.04582
6.1881,5057.1305,-0.21429,-0.40482,3.13378
6.2083,5057.1505,-1.19229,-0.25027,3.43677
6.2212,5057.1705,-2.02795,-0.08228,3.56627
6.2424,5057.1905,-2.10003,-0.27592,3.36285
6.2664,5057.2105,-1.73657,-0.90023,2.99389
6.2827,5057.2305,-1.39021,-1.11342,2.7135
6.3096,5057.2505,-1.39632,-0.75668,2.4545
6.3336,5057.2705,-1.54109,-0.5557,2.00063
6.344,5057.2905,-1.51666,-0.74873,1.36716
6.3652,5057.3104,-1.25215,-0.92955,0.68299
6.3843,5057.3304,-0.79034,-0.5667,-0.08181
6.4024,5057.3504,-0.45009,-0.43658,-0.97979
6.4246,5057.3704,-0.31936,-0.60396,-1.64868
6.4492,5057.3904,-0.34196,-0.52638,-2.26016
6.4716,5057.4104,-0.55882,-0.40726,-2.79772
6.4842,5057.4304,-0.73597,-0.359,-3.07872
6.5053,5057.4504,-0.63151,-0.64916,-3.11965
6.5281,5057.4704,-0.28027,-0.95032,-3.19417
6.5462,5057.4904,0.2518,-1.03095,-3.52465
6.5773,5057.5104,0.68673,-1.02729,-3.91866
6.5946,5057.5304,0.61038,-0.62412,-4.40246
6.6423,5057.5504,0.22431,-0.23622,-4.48249
6.6438,5057.5704,-0.06952,0.14924,-4.25341
6.6453,5057.5904,-0.19536,0.13885,-4.02984
6.6618,5057.6104,-0.06096,-0.06579,-3.94248
6.6833,5057.6304,0.24141,-0.2521,-3.84169
6.7018,5057.6504,0.45216,-0.3535,-3.57169
6.7295,5057.6704,0.43384,-0.20812,-3.22716
6.7447,5057.6904,0.17605,-0.00959,-2.96021
6.7635,5057.7104,-0.04814,0.12175,-2.73602
6.7829,5057.7303,-0.11167,0.09854,-2.58331
6.8052,5057.7503,-0.02126,0.19139,-2.61691
6.829,5057.7703,0.15711,0.32456,-2.84231
6.846,5057.7903,0.2854,0.60433,-3.15386
6.867,5057.8103,0.16017,0.96658,-3.48922
6.8851,5057.8303,-0.14954,1.1364,-3.86429
6.906,5057.8503,-0.21612,1.13029,-4.03472
6.9259,5057.8703,0.23958,1.27567,-4.13857
6.946,5057.8903,0.56578,1.40334,-4.3426
6.9639,5057.9103,0.2127,0.77843,-4.40185
6.9887,5057.9303,-0.14649,0.15962,-4.33527
7.0062,5057.9503,-0.37006,-0.15314,-4.03167
7.0272,5057.9703,-0.59242,-0.49889,-3.32307
7.0496,5057.9903,-0.75674,-0.80921,-2.46297
7.0745,5058.0103,-0.79339,-0.65894,-1.7116
7.1001,5058.0303,-1.01086,-0.39382,-1.13861
7.1392,5058.0503,-1.35661,-0.12932,-0.62915
7.148,5058.0703,-1.59607,0.07593,-0.27302
7.1502,5058.0903,-1.68831,0.30928,0.01409
7.1681,5058.1103,-1.79582,0.3496,0.28287
7.1855,5058.1303,-1.81048,0.30562,0.55104
7.2089,5058.1503,-1.58813,0.462,0.92245
7.2252,5058.1704,-1.3108,0.61655,1.41114
7.245,5058.1904,-1.01208,0.38992,1.88762
7.2631,5058.2104,-0.68649,0.09182,1.8925
7.2848,5058.2305,-0.29554,-0.02425,1.81309
7.303,5058.2505,-0.13305,0.30012,1.91938
7.3232,5058.2705,-0.69138,0.75583,2.18083
7.3475,5058.2905,-1.38166,0.8951,2.50398
7.3634,5058.3106,-1.5081,1.06493,2.4771
7.3851,5058.3306,-1.30774,0.95863,2.48565
7.4106,5058.3506,-1.09516,0.50293,2.78131
7.4241,5058.3707,-1.02247,-0.3871,3.50213
7.4478,5058.3907,-0.60097,-0.63267,3.98105
7.4673,5058.4107,0.13512,0.17123,3.56627
7.4852,5058.4307,0.42528,0.87983,3.29566
7.5045,5058.4508,-0.01943,1.21153,3.50274
7.5298,5058.4708,-0.73292,0.75155,3.86621
7.5456,5058.4908,-0.91251,-0.13604,4.14782
7.5651,5058.5109,-0.08112,-0.33335,3.94196
7.5898,5058.5309,1.22246,-0.1342,3.2303
7.6136,5058.5509,1.68733,-0.05357,2.49604
7.6347,5058.5709,0.76554,-0.07861,2.49665
7.6463,5058.591,-0.12755,-0.41276,2.99634
7.6661,5058.611,-0.53805,-1.28874,3.76725
7.6857,5058.631,-0.08906,-1.5789,4.0623
7.7056,5058.6511,0.57678,-0.98941,3.686
7.7241,5058.6711,0.46132,-0.72063,3.32742
7.7476,5058.6911,-0.28637,-0.7188,3.42455
7.7667,5058.7111,-0.76102,-0.76339,3.39706
7.7865,5058.7311,-0.81783,-0.80127,3.1741
7.8036,5058.7511,-0.97543,-0.80982,3.06109
7.8443,5058.7711,-1.20695,-0.95398,3.11545
7.8475,5058.7911,-1.34195,-0.72613,3.30299
7.8682,5058.8111,-1.75428,-0.82815,3.37874
7.8881,5058.8311,-2.07132,-1.44573,3.07758
7.9033,5058.8511,-1.59546,-1.61311,2.29751
7.9302,5058.8711,-0.92595,-0.92894,1.35433
7.9475,5058.8911,-0.80805,0.04967,0.96948
7.964,5058.9111,-1.14159,0.44306,0.74285
7.9837,5058.9311,-1.34073,-0.00837,0.37756
8.0052,5058.951,-0.94061,-0.80799,0.23645
8.0296,5058.971,-0.21735,-1.08471,-0.16734
8.0471,5058.991,0.0099,-1.01018,-0.96696
8.0691,5059.011,-0.21185,-0.75118,-1.7226
8.0952,5059.031,-0.38472,-0.34801,-2.27177
8.1246,5059.051,-0.46536,0.21582,-2.7012
8.1324,5059.071,-0.41954,0.41374,-2.937
8.1488,5059.091,-0.09762,0.26286,-2.97426
8.1698,5059.111,0.47904,0.18467,-2.93456
8.1895,5059.131,0.86205,0.13091,-3.05734
8.2072,5059.151,0.89321,0.00263,-3.2858
8.2236,5059.171,0.83456,-0.13054,-3.52037
8.2447,5059.191,0.90848,-0.23439,-3.73906
8.2632,5059.211,0.99461,-0.15375,-4.02678
8.2852,5059.231,0.86144,-0.06518,-4.28762
8.3084,5059.251,0.52852,0.02951,-4.39636
8.3312,5059.271,0.18827,0.27019,-4.31633
8.3623,5059.291,-0.00049,0.44306,-4.18622
8.3776,5059.311,0.04899,0.54935,-4.11414
8.3925,5059.331,0.17361,0.39358,-4.1178
8.4118,5059.3509,0.30067,0.19322,-4.09703
8.4286,5059.3709,0.2072,0.18833,-4.23325
8.4493,5059.3909,-0.14893,0.35815,-4.47516
8.4633,5059.4109,-0.42015,0.39725,-4.50204
8.4847,5059.4309,-0.47452,0.24881,-4.52464
8.5086,5059.4509,-0.58875,0.01363,-4.9217
8.5296,5059.4709,-0.94,0.14374,-5.39084
8.5514,5059.4909,-1.48856,0.19261,-5.45804
8.5761,5059.5109,-1.84713,-0.35045,-5.09091
8.588,5059.5309,-1.78849,-0.67848,-4.4831
8.6105,5059.5509,-1.76161,-0.9326,-3.42264
8.6674,5059.5709,-1.74329,-1.31073,-2.01459
8.671,5059.5909,-1.32301,-1.5618,-0.77209
8.6744,5059.6109,-0.69321,-1.3767,-0.06471
8.6859,5059.6309,-0.28271,-0.99736,0.26149
8.7081,5059.6509,-0.26316,-0.61862,0.54188
8.726,5059.6709,-0.72314,-0.34678,1.32928
8.7421,5059.6909,-0.93145,0.17428,2.00857
8.7628,5059.7109,-0.75308,0.8499,2.23642
8.7845,5059.7309,-0.48002,1.16389,2.47954
8.8029,5059.7509,-0.34563,1.00384,3.03115
8.8224,5059.7708,-0.19108,0.58051,3.79596
8.8537,5059.7908,0.12474,0.39236,4.00182
8.8634,5059.8108,0.61282,0.38686,3.95234
8.8866,5059.8309,0.93963,0.79798,3.85888
8.9071,5059.8509,0.75454,0.72406,4.11483
8.9282,5059.8709,0.37947,0.13519,4.71898
8.9474,5059.891,0.41795,-0.61129,5.24921
8.9693,5059.911,0.96468,-0.5893,5.18018
8.9852,5059.931,1.39106,0.01729,4.88635
9.0046,5059.951,0.93841,0.36671,4.78984
9.0275,5059.9711,0.01845,0.19444,4.98959
9.051,5059.9911,-0.1923,-0.44574,4.95538
9.0746,5060.0111,0.09725,-0.4995,4.51372
9.0966,5060.0311,0.23347,-0.73896,4.0568
9.1282,5060.0512,0.16567,-1.03584,3.98533
9.1327,5060.0712,0.06548,-1.40664,4.34268
9.1692,5060.0912,0.04655,-0.85136,4.62246
9.1736,5060.1113,0.01539,0.51515,4.08551
9.1907,5060.1313,-0.27843,1.07103,3.21503
9.2085,5060.1513,-0.51789,0.91771,2.73122
9.225,5060.1713,-0.6193,0.25675,2.59072
9.2456,5060.1914,-1.06034,-0.01936,2.75688
9.2651,5060.2114,-1.45007,-0.25027,3.24129
9.2838,5060.2314,-1.07195,-0.62473,3.33842
9.3036,5060.2515,-0.44276,-1.23376,2.85767
9.3255,5060.2715,-0.53255,-1.57096,2.03544
9.3439,5060.2915,-1.05668,-1.33822,1.2737
9.3639,5060.3115,-1.19595,-0.64672,0.54493
9.3877,5060.3316,-0.93695,-0.14153,-0.29684
9.4056,5060.3516,-0.55515,0.11442,-1.3347
9.4288,5060.3716,-0.26194,0.27324,-2.03109
9.4626,5060.3917,-0.03592,0.38198,-2.69326
9.4802,5060.4117,-0.14343,0.35266,-3.23816
9.4938,5060.4317,-0.31508,0.26164,-3.57108
9.5081,5060.4517,-0.25583,0.21338,-3.91683
9.5248,5060.4717,-0.03348,0.08571,-4.21615
9.5475,5060.4917,0.0722,-0.21667,-4.34993
9.5718,5060.5117,0.06487,-0.69681,-4.35298
9.5893,5060.5317,0.28417,-0.90695,-4.26258
9.6144,5060.5517,0.48209,-1.18917,-4.01273
9.6308,5060.5717,0.37214,-1.47627,-3.88934
9.645,5060.5916,0.01356,-1.64854,-4.03778
9.6659,5060.6116,0.01906,-1.24537,-4.5057
9.6897,5060.6316,0.21759,-0.85686,-5.12084
9.7072,5060.6516,0.10947,-0.61801,-5.37985
9.7367,5060.6716,-0.40122,-0.69315,-5.09885
9.7558,5060.6916,-0.77812,-0.45552,-4.82824
9.7726,5060.7116,-0.53744,-0.05723,-4.90399
9.7857,5060.7316,0.10641,0.40153,-5.03593
9.8069,5060.7516,0.3251,0.45223,-4.46538
9.8307,5060.7716,0.02639,0.15779,-3.1056
9.8495,5060.7916,-0.19597,0.00813,-2.11111
9.8739,5060.8116,0.22492,-0.21239,-2.0714
9.8851,5060.8316,0.73805,-0.48362,-2.20274
9.904,5060.8516,0.41856,-1.23682,-1.86126
9.9254,5060.8716,0.07404,-1.02118,-1.19115
9.9445,5060.8916,-0.38167,-0.07312,-0.7165
9.9632,5060.9116,-1.07134,0.83341,-0.47827
9.9876,5060.9316,-1.75551,0.46506,-0.1655
10.0076,5060.9516,-1.96198,-0.37305,0.19857
10.0229,5060.9716,-1.91983,-0.9827,0.75996
10.0451,5060.9915,-2.17212,0.00691,1.53637
10.0654,5061.0115,-1.73412,-0.65283,1.50216
10.0861,5061.0315,-1.61134,-0.52516,1.24987
10.1064,5061.0515,-2.19288,0.48033,1.34761
10.1417,5061.0715,-2.90821,1.13334,1.41236
10.1474,5061.0915,-3.0542,0.47788,1.73001
10.1677,5061.1116,-2.88316,-0.16169,1.76239
10.1856,5061.1316,-2.85812,-0.10977,1.41908
10.2092,5061.1516,-2.9638,-0.34678,0.90351
10.2286,5061.1716,-3.41217,-1.60028,1.13869
10.2493,5061.1917,-4.07618,-2.37669,1.10632
10.2823,5061.2117,-4.27166,-2.32843,1.50033
10.29,5061.2317,-3.6388,-1.83607,2.10142
10.306,5061.2518,-2.39569,-0.99064,2.36348
10.3308,5061.2718,-0.58997,1.27201,2.04949
10.3502,5061.2918,0.80158,1.41923,1.03546
10.3653,5061.3118,1.65618,0.38503,0.27982
10.3862,5061.3319,1.96833,-1.39442,-0.54607
10.4074,5061.3519,2.96832,-1.74078,-0.90221
10.4294,5061.3719,4.3165,-2.86233,-0.61571
10.4475,5061.392,3.1473,0.18833,-0.48926
10.4696,5061.412,1.21635,2.29276,0.15276
10.4892,5061.4321,0.79364,3.21639,-0.31089
10.5104,5061.4521,1.33364,3.54687,-0.19421
10.5345,5061.4722,2.34218,2.75336,-0.1374
10.5495,5061.4923,3.8333,0.87311,-0.55646
10.5759,5061.5123,4.84367,-0.87885,-1.16732
10.6,5061.5324,4.53274,-1.09326,-0.99628
10.6071,5061.5524,3.344,0.57501,-0.55829
10.6455,5061.5725,2.59569,2.31659,-0.26141
10.647,5061.5926,2.33974,2.50229,0.29265
10.6661,5061.6126,2.63417,1.33859,0.92367
10.6852,5061.6327,3.44235,0.53592,1.63044
10.7067,5061.6528,4.3507,0.53347,2.46672
10.7286,5061.6728,4.57306,0.66786,2.92181
10.748,5061.6929,4.23342,-1.05294,2.61088
10.7732,5061.7129,3.87179,-1.72123,2.27307
10.7875,5061.7329,2.75268,-0.89595,2.21748
10.8103,5061.753,1.5841,-0.51111,2.179
10.8308,5061.773,1.30188,0.55058,2.32011
10.8475,5061.793,1.41916,1.93541,2.10081
10.8671,5061.813,1.0221,2.2781,2.31094
10.8895,5061.8331,0.48881,1.71427,2.1399
10.9066,5061.8531,0.54501,1.04049,0.95116
10.928,5061.8731,0.47904,0.77599,1.2065
10.951,5061.8932,-1.03285,0.44673,1.90167
10.9682,5061.9132,-2.64004,0.85173,1.92243
10.9869,5061.9332,-3.81718,0.2372,2.08615
11.0111,5061.9532,-4.41216,-0.80799,2.62676
11.0299,5061.9733,-4.51784,-1.31745,3.34758
11.054,5061.9933,-4.10673,-1.68824,3.99815
11.07,5062.0133,-3.67851,-1.67603,4.4563
11.0883,5062.0333,-3.30894,-2.07065,4.62673
11.1054,5062.0533,-2.68463,-2.90692,4.66766
11.1298,5062.0733,-2.08904,-3.21113,4.79778
11.1522,5062.0933,-1.37249,-3.31925,4.75746
11.1679,5062.1133,-0.4,-3.87697,4.32375
11.1878,5062.1333,0.63359,-4.26121,4.44103
11.2077,5062.1533,1.04104,-4.13904,4.9511
11.2252,5062.1733,0.983,-4.42798,4.96393
11.2464,5062.1933,1.14855,-4.52755,4.85581
11.2649,5062.2133,1.39106,-3.84643,4.99936
11.2883,5062.2332,1.5169,-3.49946,5.05556
11.3102,5062.2532,2.09417,-3.65095,5.25654
11.3247,5062.2732,2.79605,-4.04924,5.60351
11.347,5062.2932,3.44174,-4.26182,5.73973
11.3743,5062.3132,4.12774,-4.54099,5.67926
11.3875,5062.3332,4.69218,-4.51472,5.59373
11.4086,5062.3532,4.88399,-3.96922,5.35794
11.4278,5062.3732,4.61704,-3.05353,4.80999
11.4488,5062.3932,3.94265,-1.80492,4.03481
11.4753,5062.4132,3.60789,-0.92772,2.97862
11.4898,5062.4332,3.84307,-1.74628,1.66159
11.5066,5062.4532,3.89989,-1.95519,1.09593
11.5263,5062.4732,3.42891,-1.36449,-0.14229
11.5523,5062.4932,2.16625,0.44734,-1.43916
11.5689,5062.5132,0.74293,1.97573,-2.39822
11.5872,5062.5332,0.31777,2.68494,-3.05367
11.609,5062.5532,0.32755,3.34101,-3.54664
11.6278,5062.5732,0.72888,2.88469,-4.38597
11.6474,5062.5932,0.96895,1.92808,-5.3994
11.6694,5062.6132,0.7411,0.87556,-6.03347
11.6866,5062.6332,0.64825,-0.64733,-6.65228
11.7124,5062.6531,0.64642,-1.60822,-6.95955
11.7292,5062.6731,0.45094,-1.20566,-6.98154
11.7468,5062.6931,0.06732,-0.36328,-7.27353
11.7672,5062.7131,-0.32669,0.24453,-7.69197
11.7919,5062.7331,-0.54355,-0.08411,-7.6993
11.8219,5062.7531,-0.50323,-1.01751,-7.47023
11.8344,5062.7731,-0.59853,-1.46406,-7.12509
11.8494,5062.7931,-1.07744,-1.02912,-6.49407
11.8665,5062.8131,-1.71213,-0.65833,-6.41343
11.8871,5062.8331,-2.42868,-0.33518,-6.4342
11.923,5062.8531,-2.86239,0.03073,-6.61441
11.9433,5062.8731,-3.57161,1.71122,-6.27843
11.9508,5062.8931,-4.19286,3.7845,-5.98033
11.9739,5062.9131,-3.99066,4.1895,-6.08295
11.9885,5062.9331,-3.20936,4.12658,-5.95467
12.0068,5062.9531,-2.65531,2.93662,-5.85755
12.0272,5062.9731,-2.59911,1.03316,-6.07135
12.0467,5062.9931,-2.95402,0.06372,-5.86854
12.0751,5063.0131,-3.71272,1.32027,-5.38229
12.0981,5063.033,-4.23867,3.44425,-4.6914
12.1203,5063.053,-4.89963,3.5035,-4.04205
12.1359,5063.073,-5.59601,1.56889,-2.94616
12.1567,5063.093,-5.08961,-0.67054,-2.34324
12.1677,5063.113,-3.62292,-2.33576,-2.20335
12.1921,5063.1331,-1.51971,-1.98329,-2.01276
12.2074,5063.1531,-0.43237,-1.19283,-2.16487
12.2256,5063.1731,0.32327,-2.11035,-2.13493
12.2506,5063.1931,1.23407,-3.57521,-1.88387
12.2738,5063.2132,2.06668,-3.43349,-1.54545
12.286,5063.2332,2.6244,-1.94603,-1.26384
12.3057,5063.2532,2.80277,-1.07921,-1.26323
12.3323,5063.2733,2.85286,-1.32661,-1.48558
12.3487,5063.2933,3.40142,-1.58195,-1.38601
12.3681,5063.3133,3.99701,-1.55569,-0.97551
12.3963,5063.3333,4.38247,-1.14641,-0.61999
12.4079,5063.3534,4.26396,-0.87824,-0.3396
12.4271,5063.3734,3.53642,-1.58867,-0.24675
12.4506,5063.3934,3.24504,-1.98513,-0.24614
12.4705,5063.4135,3.95059,-1.53919,-0.00912
12.4886,5063.4335,5.15644,-1.71146,0.71292
12.5102,5063.4535,6.16742,-2.42495,1.48811
12.5276,5063.4735,6.4307,-3.93867,1.55653
12.5553,5063.4936,5.68361,-5.80975,1.07333
12.5724,5063.5136,4.26518,-6.72849,0.5883
12.5913,5063.5336,2.81621,-6.77309,0.17353
12.6439,5063.5537,1.97138,-6.42612,-0.45261
12.6454,5063.5737,1.77041,-5.8965,-1.31332
12.6472,5063.5937,1.83027,-5.72912,-1.89486
12.6663,5063.6137,2.01537,-5.83846,-1.99871
12.687,5063.6338,2.35195,-5.45728,-2.25588
12.7056,5063.6538,2.89013,-5.46889,-2.22168
12.7276,5063.6738,3.49366,-5.31556,-2.27604
12.7546,5063.6939,3.92004,-5.9924,-2.78001
12.7671,5063.7139,4.11369,-6.59716,-4.0109
12.787,5063.7339,4.14545,-7.01132,-5.14894
12.8086,5063.7539,3.95364,-7.38212,-5.93024
12.8276,5063.7739,3.83086,-7.57271,-6.58386
12.851,5063.7939,3.81131,-7.99421,-7.02124
12.8726,5063.8139,3.77221,-7.55927,-7.50199
12.8873,5063.8339,3.6085,-6.35709,-7.78544
12.9105,5063.8539,3.41852,-5.02296,-7.31996
12.9307,5063.8738,3.4002,-3.45914,-6.18436
12.9505,5063.8938,3.16929,-2.03583,-4.6633
12.9693,5063.9138,2.61096,-0.48179,-3.56619
12.9922,5063.9338,2.28964,1.42595,-2.89057
13.015,5063.9538,2.12777,2.76374,-2.35607
13.0341,5063.9738,1.98666,3.22311,-2.15082
13.0542,5063.9938,1.84677,3.47723,-2.49595
13.0724,5064.0138,1.68244,4.16568,-2.55643
13.1169,5064.0338,1.22674,5.17971,-1.66212
13.1291,5064.0538,0.70323,5.6623,-1.53628
13.1518,5064.0738,0.78692,4.57496,-2.45564
13.1574,5064.0938,0.93108,3.56031,-2.53505
13.189,5064.1139,0.01112,4.89505,-2.0824
13.1904,5064.1339,-1.2888,5.37458,-1.83194
13.2075,5064.1539,-2.35476,5.58899,-2.02437
13.2296,5064.1739,-3.00411,6.66167,-2.10744
13.2476,5064.194,-3.27412,7.53582,-1.97305
13.2674,5064.214,-3.15316,6.5957,-2.52772
13.2903,5064.234,-3.03588,4.79853,-3.27542
13.307,5064.2541,-3.42744,3.19074,-3.63949
13.3293,5064.2741,-4.37367,3.00137,-3.27297
13.3521,5064.2941,-5.74812,3.59391,-2.53994
13.3764,5064.3141,-6.74139,4.18584,-2.53566
13.3922,5064.3342,-7.10668,3.90667,-2.85698
13.4096,5064.3542,-7.17388,3.29092,-2.7965
13.4281,5064.3742,-7.15128,2.13883,-2.79161
13.4554,5064.3943,-6.90449,1.45954,-2.85026
13.4699,5064.4143,-6.18306,2.03192,-2.84354
13.4916,5064.4343,-5.37794,3.62873,-2.53627
13.5127,5064.4543,-4.7854,4.4705,-1.99749
13.5333,5064.4744,-4.49768,3.64033,-2.16609
13.5523,5064.4944,-4.23623,2.34102,-3.01641
13.5733,5064.5144,-3.64369,2.45037,-3.76716
13.5948,5064.5345,-3.09147,4.55297,-3.56069
13.6079,5064.5545,-2.88011,6.42954,-2.85453
13.6372,5064.5745,-2.22221,7.42037,-2.60286
13.6509,5064.5945,-1.96137,6.78629,-3.12637
13.6683,5064.6146,-2.02856,5.2127,-4.58206
13.6918,5064.6346,-1.58935,4.45889,-5.01211
13.7108,5064.6546,-0.52278,5.63542,-4.06771
13.7292,5064.6747,0.31716,6.22307,-3.09582
13.7497,5064.6946,0.63176,5.72583,-2.44281
13.7802,5064.7146,0.8083,5.54257,-1.76597
13.7934,5064.7346,0.50714,6.14916,-0.93641
13.8087,5064.7546,-0.39755,6.41061,-0.04272
13.832,5064.7746,-0.85204,5.71178,0.59441
13.8472,5064.7946,-0.27416,4.70141,0.74346
13.8668,5064.8146,0.26279,3.73624,0.81494
13.8903,5064.8346,0.24141,3.37338,1.04829
13.9078,5064.8546,-0.01637,3.34345,1.12892
13.9286,5064.8746,-0.06219,2.52795,1.13259
13.9478,5064.8946,0.2463,1.42411,1.01774
13.967,5064.9146,0.37031,0.50049,0.82837
13.987,5064.9346,0.18827,-0.18307,0.61579
14.0087,5064.9546,-0.04997,-0.58624,0.47774
14.0269,5064.9746,-0.31508,-1.81775,0.58586
14.0502,5064.9946,-0.108,-3.62774,0.62862
14.0747,5065.0146,0.21148,-4.98142,0.69826
14.09,5065.0347,0.22553,-5.83907,1.18023
14.1228,5065.0547,0.11313,-6.36869,1.73123
14.1329,5065.0747,0.10336,-6.79508,1.97191
14.1555,5065.0947,0.21087,-6.44811,2.35676
14.1767,5065.1148,0.26035,-6.38458,2.96579
14.1985,5065.1348,0.34282,-6.94535,3.25229
14.2173,5065.1548,0.12291,-6.59227,3.31826
14.232,5065.1749,-0.46475,-5.68086,4.22601
14.2494,5065.1949,-0.51606,-5.30029,4.76174
14.2716,5065.2149,0.14856,-6.18666,4.30481
14.2872,5065.2349,1.39961,-6.63686,3.63347
14.3124,5065.255,2.50406,-5.74989,3.48869
14.3272,5065.275,2.71358,-5.31373,3.82589
14.347,5065.295,2.63539,-5.38154,4.0794
14.3696,5065.3151,2.85347,-5.46278,4.16736
14.3884,5065.3351,2.99458,-5.75661,3.88209
14.4122,5065.3551,3.01047,-5.94536,3.33109
14.4353,5065.3751,3.11187,-6.26851,3.13195
14.4483,5065.3952,3.52665,-6.81279,3.08064
14.4681,5065.4152,4.20043,-7.01988,2.71167
14.4896,5065.4352,4.64148,-6.77309,2.16739
14.5069,5065.4553,4.4631,-6.93191,1.763
14.5276,5065.4753,4.35315,-7.83844,1.43557
14.5544,5065.4953,5.01105,-7.3754,1.16191
14.5716,5065.5153,5.43927,-7.12739,1.63472
14.5889,5065.5354,5.11367,-7.51407,1.81553
14.6119,5065.5554,3.72335,-8.12676,0.77645
14.6629,5065.5754,2.60729,-7.25567,0.44964
14.6699,5065.5954,1.67817,-5.45056,0.6445
14.6735,5065.6154,0.79669,-4.59413,0.0874
14.6901,5065.6354,0.28051,-4.84153,-0.37625
14.7125,5065.6554,-0.13549,-4.85925,-0.87411
14.7291,5065.6754,-0.80805,-4.43714,-0.98895
14.7473,5065.6954,-1.38471,-3.6534,-0.58211
14.7683,5065.7154,-1.48795,-3.63813,-0.13862
14.7914,5065.7354,-1.41892,-3.96372,0.12283
14.8115,5065.7554,-1.66265,-3.80611,0.3855
14.8321,5065.7754,-2.26252,-3.65157,0.66222
14.862,5065.7954,-2.79764,-3.68944,1.00064
14.8705,5065.8154,-3.32115,-4.10666,1.37204
14.8922,5065.8354,-3.56428,-4.15797,1.3299
14.9095,5065.8554,-3.13728,-3.17509,1.54981
14.9304,5065.8754,-2.39508,-2.169,1.72146
14.9512,5065.8954,-1.6315,-2.44327,1.62006
14.9697,5065.9153,-0.94855,-2.61615,1.22116
14.9873,5065.9353,-0.90579,-2.55262,1.15458
15.0132,5065.9553,-1.07134,-3.05353,1.50766
15.0327,5065.9753,-1.31751,-2.41273,2.5162
15.0496,5065.9953,-1.6034,-1.61616,3.60476
15.0688,5066.0153,-2.05727,-1.72673,3.82284
15.0914,5066.0353,-2.64309,-2.05782,3.59132
15.1307,5066.0553,-2.81475,-2.04682,3.55467
15.1382,5066.0753,-2.45067,-1.54042,3.7086
15.1592,5066.0953,-0.80561,-0.49767,3.7306
15.17,5066.1154,-0.60586,-0.29425,3.82223
15.2078,5066.1354,-1.11959,-0.46407,3.87965
15.2153,5066.1555,-1.49528,-0.46163,3.67806
15.23,5066.1755,-1.49772,-0.5105,3.78924
15.2509,5066.1956,-1.98519,-0.66932,4.00121
15.2712,5066.2157,-2.34621,-0.22889,4.383
15.2893,5066.2357,-2.44273,0.32822,4.85886
15.31,5066.2558,-2.53191,0.13397,4.69515
15.3308,5066.2759,-2.83857,0.18528,4.33535
15.354,5066.2959,-3.26679,0.97024,4.72997
15.3777,5066.316,-3.70111,2.09973,4.92728
15.4003,5066.336,-4.56304,2.46075,4.63468
15.4194,5066.3561,-5.2075,2.78085,4.59253
15.438,5066.3762,-5.68642,2.79001,3.55161
15.4637,5066.3962,-5.67482,2.52245,2.59439
15.4772,5066.4163,-5.34312,2.30743,2.87477
15.4899,5066.4364,-5.04501,2.54994,4.50151
15.5115,5066.4564,-4.96805,2.69227,6.10136
15.5308,5066.4765,-5.32785,1.96229,5.69331
15.5561,5066.4965,-4.59603,0.92382,4.248
15.5746,5066.5166,-3.08108,0.732,3.03299
15.5935,5066.5367,-2.56307,1.37952,3.38485
15.611,5066.5567,-2.68891,1.44122,4.44897
15.6317,5066.5768,-3.20936,0.34044,4.71165
15.6496,5066.5968,-3.59238,-0.4262,3.50335
15.671,5066.6169,-3.29977,-0.9045,2.74955
15.6918,5066.637,-2.89233,-1.35471,2.80575
15.7109,5066.6571,-2.75122,-1.59417,3.15638
15.7341,5066.6772,-2.71212,-2.03461,2.36287
15.7556,5066.6972,-3.02855,-1.93748,0.99148
15.7733,5066.7173,-3.3462,-2.49581,-0.29684
15.7934,5066.7373,-3.13301,-2.70472,0.2847
15.8156,5066.7573,-2.1263,-2.6919,2.18938
15.8348,5066.7774,-1.28819,-2.38035,3.00122
15.858,5066.7974,-2.0084,-1.97291,2.40441
15.8787,5066.8174,-2.09759,-2.31255,1.27247
15.8929,5066.8375,-2.14096,-2.59171,1.08311
15.9121,5066.8575,-2.37248,-2.9057,1.63166
15.9322,5066.8775,-2.51237,-2.24719,2.32805
15.9605,5066.8975,-2.88194,-1.93442,2.70923
15.9728,5066.9176,-2.93448,-1.58867,2.3928
15.9946,5066.9376,-2.98457,-1.39992,2.16678
16.0113,5066.9576,-2.71579,-1.13358,1.50949
16.0364,5066.9777,-2.38103,-1.23926,0.86869
16.0521,5066.9977,-1.72435,-0.84159,0.72147
16.0696,5067.0177,-1.45679,-0.40482,0.98109
16.0939,5067.0377,-1.58141,-0.6571,0.82899
16.1278,5067.0578,-1.54842,-0.88007,0.02081
16.1379,5067.0778,-0.62357,-0.8257,-0.69757
16.1525,5067.0979,0.42773,-0.44086,-0.62976
16.1717,5067.1179,1.55111,-0.04013,0.62862
16.1922,5067.138,2.1693,0.38686,1.11609
16.213,5067.1581,2.55232,0.42291,0.64023
16.2341,5067.1781,2.93044,-0.04257,-0.36281
16.2529,5067.1982,3.17784,-0.37916,-1.46665
16.2759,5067.2183,3.14669,-0.62412,-2.23084
16.2964,5067.2383,3.31468,-0.89717,-2.37195
16.312,5067.2583,3.69036,-0.68826,-2.21068
16.3332,5067.2784,3.89378,-0.34617,-2.0036
16.355,5067.2984,3.81803,-0.17024,-1.79163
16.3727,5067.3185,3.76305,-0.37733,-1.68534
16.3923,5067.3386,3.62622,-0.93322,-1.78979
16.4156,5067.3586,3.76305,-1.61616,-1.95228
16.4332,5067.3787,4.24075,-2.293,-2.14715
16.4561,5067.3987,4.86505,-3.06147,-2.67799
16.4743,5067.4188,5.27189,-4.85253,-3.93637
16.4926,5067.4389,5.26578,-5.62161,-5.23568
16.5138,5067.4589,5.49058,-5.48599,-6.27599
16.5357,5067.479,5.7392,-5.21905,-6.46352
16.5575,5067.4991,5.91208,-4.96737,-6.06402
16.6023,5067.5191,6.00554,-4.76578,-5.74331
16.6037,5067.5392,5.79357,-4.19096,-5.42444
16.6117,5067.5592,5.57366,-4.04191,-4.98279
16.6321,5067.5793,5.60481,-3.75175,-4.75188
16.6534,5067.5994,6.35679,-3.86292,-4.52342
16.6727,5067.6194,7.62739,-3.89469,-4.39452
16.6925,5067.6395,8.19244,-4.70409,-4.73294
16.7179,5067.6596,8.00673,-5.42185,-5.77325
16.7378,5067.6796,8.4435,-5.08099,-7.07867
16.76,5067.6996,9.60659,-4.33451,-7.47573
16.7797,5067.7196,9.69639,-2.89898,-6.63029
16.7944,5067.7397,8.01406,-1.07738,-5.22041
16.8151,5067.7597,5.55044,0.28852,-4.23692
16.8373,5067.7797,2.92372,1.39174,-3.60284
16.854,5067.7998,1.33608,1.81751,-2.99747
16.8747,5067.8198,0.5951,2.677,-2.16181
16.8944,5067.8398,0.51508,4.54319,-1.41106
16.9125,5067.8598,0.29212,5.23164,-1.33103
16.937,5067.8799,-0.37984,5.40451,-2.18136
16.9605,5067.8999,-1.76039,5.86205,-2.56865
16.9766,5067.9199,-2.69685,6.0392,-2.40982
16.9965,5067.9399,-2.86911,5.42162,-2.58453
17.0187,5067.9598,-3.39507,5.30189,-2.61324
17.0436,5067.9798,-4.14277,5.70933,-2.58514
17.0634,5067.9998,-4.61497,4.88589,-2.69387
17.08,5068.0198,-5.04868,4.5157,-2.57537
17.1092,5068.0398,-5.66199,4.69591,-2.12699
17.12,5068.0598,-5.80127,4.62383,-1.94373
17.1351,5068.0798,-5.69559,4.05633,-2.23023
17.1515,5068.0998,-5.59357,3.16508,-2.53627
17.1852,5068.1198,-5.13664,3.50167,-2.99259
17.2021,5068.1398,-5.09999,3.35139,-3.36766
17.2126,5068.1598,-5.31746,2.90363,-3.38415
17.2325,5068.1798,-5.3254,1.62631,-3.62605
17.2546,5068.1998,-5.01875,0.80653,-3.63888
17.2717,5068.2198,-4.55205,1.55789,-3.60162
17.294,5068.2398,-4.21546,3.16264,-4.29006
17.3153,5068.2598,-4.14521,2.40822,-4.34199
17.3376,5068.2798,-3.69622,1.72832,-4.02006
17.3572,5068.2998,-3.21547,0.57807,-3.82764
17.3759,5068.3198,-2.93936,-0.23194,-3.69081
17.3952,5068.3398,-3.28511,-0.29242,-3.39026
17.4148,5068.3597,-3.90881,1.01972,-2.93761
17.4351,5068.3797,-4.41094,2.20297,-2.03353
17.4533,5068.3997,-4.61924,3.00809,-1.2675
17.4718,5068.4197,-4.96927,2.58537,-1.25284
17.4938,5068.4397,-5.23377,1.4962,-1.94129
17.5117,5068.4597,-5.24049,0.80775,-2.66333
17.5321,5068.4797,-5.01081,0.83402,-2.67127
17.5555,5068.4997,-4.83915,1.06676,-1.93701
17.5761,5068.5197,-4.94422,1.48276,-0.50881
17.5969,5068.5397,-5.28142,1.61043,0.43192
17.6147,5068.5597,-5.81165,0.73567,0.5822
17.6334,5068.5797,-5.2918,0.28974,0.01226
17.6635,5068.5997,-3.8465,-0.61801,-0.56501
17.6761,5068.6197,-1.99008,-1.51293,-0.72933
17.6934,5068.6397,-0.58081,-1.56852,-0.67496
17.7133,5068.6597,0.13207,-0.91611,-0.13679
17.7342,5068.6797,0.45827,-0.31746,0.56998
17.7522,5068.6997,0.81807,-0.27715,0.82654
17.7726,5068.7197,1.44176,-0.57891,0.44353
17.7936,5068.7397,1.95123,-1.04317,-0.1374
17.821,5068.7597,2.20657,-1.08166,-0.32494
17.8375,5068.7796,2.33851,-1.15435,-0.03722
17.8602,5068.7996,2.32019,-1.05172,0.52294
17.8805,5068.8196,2.32263,-0.97781,0.90168
17.8954,5068.8396,2.34157,-1.15129,0.84426
17.915,5068.8596,2.39594,-1.72429,0.53699
17.933,5068.8796,2.523,-2.34615,0.28654
17.9582,5068.8996,2.81438,-2.84095,0.38733
17.9879,5068.9196,2.91578,-2.02789,0.38061
18.0104,5068.9396,2.80583,-1.68153,0.18636
18.0145,5068.9596,2.50345,-1.46833,0.37145
18.0343,5068.9796,2.36356,-1.70901,0.88946
18.0532,5068.9996,2.36906,-2.56667,1.22177
18.0802,5069.0196,2.49184,-2.844,1.24926
18.0957,5069.0396,2.47413,-3.15249,0.84548
18.1144,5069.0596,2.35989,-3.6589,0.38305
18.1332,5069.0796,2.42465,-4.84275,-0.06104
18.1646,5069.0996,2.67877,-5.74744,-0.27607
18.1935,5069.1196,2.67021,-6.19093,0.02264
18.1949,5069.1396,2.73985,-5.71079,-0.00729
18.2143,5069.1596,2.63662,-5.26058,-0.5198
18.2325,5069.1796,2.8266,-4.97103,-0.58211
18.2516,5069.1995,3.35377,-4.60757,-0.1093
18.2805,5069.2195,3.90538,-4.40354,0.31891
18.2941,5069.2395,4.11919,-4.74013,0.29692
18.3124,5069.2595,4.34521,-4.67049,-0.38664
18.3439,5069.2795,4.82046,-4.82687,-1.32798
18.3535,5069.2995,5.01533,-5.43407,-1.66457
18.3807,5069.3195,5.16193,-5.68941,-1.88814
18.3965,5069.3395,5.24623,-5.72057,-1.90891
18.4138,5069.3595,4.83817,-5.98507,-1.96694
18.4341,5069.3795,4.33177,-5.59351,-2.00604
18.4564,5069.3995,3.86934,-4.94232,-1.94618
18.4741,5069.4195,3.24443,-4.14576,-1.67984
18.4923,5069.4395,2.39655,-3.52573,-1.2559
18.5148,5069.4595,1.61403,-3.2264,-1.138
18.5327,5069.4795,0.65375,-3.03032,-1.19603
18.5616,5069.4995,-0.44214,-2.99611,-0.92175
18.5846,5069.5195,-1.27353,-2.44755,-0.733
18.6075,5069.5395,-1.92777,-2.39929,-0.66519
18.6182,5069.5595,-2.3401,-2.47198,-0.61754
18.6754,5069.5795,-2.65959,-2.5007,-0.81119
18.678,5069.5995,-3.06337,-2.67235,-0.90221
18.6811,5069.6194,-3.65713,-2.98267,-0.70673
18.6937,5069.6394,-3.84161,-2.6473,-0.6487
18.7115,5069.6594,-3.7396,-2.48848,-0.61449
18.7307,5069.6794,-3.73715,-2.41212,-0.38541
18.7528,5069.6994,-3.46471,-2.07492,0.21079
18.7751,5069.7194,-3.48425,-2.14029,0.64634
18.792,5069.7394,-3.47998,-1.98635,0.26699
18.8157,5069.7594,-3.28328,-2.22336,-0.317
18.8321,5069.7794,-2.94364,-2.07798,-0.25102
18.8584,5069.7994,-2.36209,-1.83058,0.22851
18.879,5069.8194,-2.35721,-0.68459,0.19796
18.8931,5069.8394,-3.05909,-0.6174,-0.306
18.9127,5069.8594,-3.57527,-0.81654,-0.56257
18.938,5069.8794,-3.95584,-0.64122,-0.76232
18.9547,5069.8994,-4.2405,-0.78722,-0.7556
18.9781,5069.9194,-4.3187,-0.98331,-0.2327
18.9958,5069.9394,-4.20813,-1.37426,0.65183
19.0141,5069.9594,-4.07313,-1.20994,1.35372
19.0338,5069.9794,-4.02792,-1.20994,1.57668
19.0559,5069.9994,-3.83489,-1.24415,1.43619
19.0775,5070.0193,-3.42133,-1.04134,0.90718
19.1083,5070.0393,-3.3798,-0.5948,0.40138
19.1271,5070.0593,-3.60154,-0.80677,0.34762
19.1382,5070.0793,-3.84833,-1.41336,0.88885
19.1559,5070.0993,-4.05358,-1.3596,1.34822
19.1738,5070.1193,-4.07863,-0.95398,1.23521
19.1968,5070.1393,-3.98577,-1.19833,0.69215
19.2113,5070.1593,-3.82389,-1.5398,0.40321
19.233,5070.1793,-3.72188,-1.26614,0.47468
19.2511,5070.1993,-3.73471,-1.13358,0.5541
19.2704,5070.2193,-3.54656,-1.28507,0.33235
19.2923,5070.2393,-3.04871,-0.99736,0.0092
19.3113,5070.2593,-2.40486,-0.84953,-0.22109
19.3325,5070.2793,-1.72679,-0.91,-0.0812
19.3581,5070.2993,-1.02796,-1.10487,0.37878
19.3723,5070.3193,-0.25583,-1.0841,0.32319
19.3924,5070.3393,0.38008,-0.73774,-0.21865
19.4161,5070.3593,0.89809,-0.8593,-0.96207
19.4332,5070.3793,1.81073,-0.31013,-1.70977
19.4555,5070.3992,2.53033,0.58845,-1.61631
19.4763,5070.4192,3.14974,1.10646,-1.29194
19.4926,5070.4392,3.77283,2.26283,-0.80386
19.5109,5070.4592,4.36475,3.03252,-0.12885
19.5328,5070.4792,4.73249,2.06491,0.19735
19.551,5070.4992,4.96035,2.10034,0.00065
19.5712,5070.5192,5.13872,1.66235,-0.20887
19.595,5070.5392,5.50829,1.39235,-0.47888
19.6208,5070.5592,5.87481,1.40701,-1.21986
19.6354,5070.5792,6.06968,1.57011,-1.93762
19.6548,5070.5992,6.17902,1.53896,-2.12577
19.6725,5070.6192,6.24561,1.57805,-1.80629
19.6942,5070.6392,6.27615,1.56095,-1.13861
19.7171,5070.6592,6.35312,1.68679,-0.99445
19.733,5070.6792,6.53394,1.37586,-1.45076
19.7633,5070.6992,6.71781,1.13334,-2.16975
19.7762,5070.7192,6.9029,1.62265,-2.4477
19.7939,5070.7392,6.96276,1.66541,-2.24367
19.8201,5070.7592,6.77584,0.92626,-2.20824
19.8399,5070.7792,6.52477,0.66053,-2.47946
19.855,5070.7992,6.27004,1.07653,-2.89974
19.8747,5070.8192,5.80945,1.04843,-2.93089
19.8945,5070.8391,4.9298,1.49742,-2.41532
19.9123,5070.8591,4.08925,1.69412,-1.79163
19.9353,5070.8791,3.06789,2.59148,-0.91442
19.9545,5070.8991,2.14059,3.17119,-0.25652
19.98,5070.9191,1.3147,3.7454,-0.97123
19.9937,5070.9391,0.45216,3.73257,-1.34692
20.0147,5070.9591,-0.26988,4.3752,-1.27056
20.0498,5070.9791,-0.8331,4.78632,-1.23207
20.0529,5070.9991,-1.15808,4.9427,-0.84784
20.0723,5071.0191,-1.29003,5.41001,-0.97123
20.0912,5071.0391,-1.36822,5.59632,-1.30843
20.1163,5071.0591,-1.25643,4.76249,-1.56744
20.1521,5071.0791,-0.86242,5.0832,-1.45199
20.1544,5071.0991,-0.79034,6.84799,-1.03354
20.1719,5071.1191,-1.02919,8.75633,-0.39641
20.193,5071.1391,-1.55636,7.03735,-0.83012
20.2138,5071.1591,-1.72435,5.19987,-2.40616
20.2326,5071.1791,-1.59729,4.02029,-2.87958
20.253,5071.1991,-1.4012,3.95432,-2.51978
20.2737,5071.2191,-1.30102,4.8529,-2.14104
20.2921,5071.239,-1.6144,5.45338,-2.2455
20.3145,5071.259,-2.48854,5.1901,-2.45564
20.3371,5071.279,-2.49587,3.79855,-2.57781
20.3617,5071.299,-1.70053,2.38439,-2.52039
20.3802,5071.319,-1.13792,1.73138,-2.59064
20.3924,5071.339,-1.22039,1.35203,-2.57109
20.4158,5071.359,-1.66693,1.63547,-2.89179
20.4404,5071.379,-2.46105,2.34774,-3.49044
20.452,5071.3991,-3.20814,2.67517,-3.67126
20.4733,5071.4191,-3.51419,2.5646,-3.36155
20.4982,5071.4391,-3.0481,2.27933,-2.88446
20.5143,5071.4592,-2.50992,1.80835,-2.49046
20.5351,5071.4792,-2.37981,2.4131,-2.75618
20.5592,5071.4992,-2.60461,3.47662,-2.69326
20.5806,5071.5192,-2.80986,4.30984,-2.34996
20.5922,5071.5393,-2.82208,4.21394,-2.14837
20.6403,5071.5593,-2.84956,2.68433,-2.39455
20.6455,5071.5793,-2.75794,1.50353,-2.98281
20.6521,5071.5994,-2.39081,1.47237,-3.75678
20.6749,5071.6194,-1.94854,2.13883,-3.93943
20.6904,5071.6394,-1.66449,3.2732,-3.38171
20.7118,5071.6594,-1.81659,4.43385,-2.56987
20.7365,5071.6795,-2.07071,5.11924,-2.32919
20.7517,5071.6995,-2.14829,4.64704,-2.85331
20.7729,5071.7195,-2.10187,4.39292,-3.38537
20.7948,5071.7396,-2.21304,3.41553,-3.31696
20.8139,5071.7596,-1.60584,3.19013,-2.65356
20.8332,5071.7796,-1.19229,3.17485,-1.68167
20.8561,5071.7996,-1.43724,3.80221,-0.70795
20.876,5071.8197,-1.85447,3.69287,-0.56623
20.8971,5071.8397,-2.24542,2.28604,-1.03537
20.9242,5071.8597,-2.28635,1.08142,-1.70061
20.948,5071.8798,-2.04017,0.63304,-1.61631
20.9583,5071.8998,-1.8844,0.93664,-1.04515
20.9743,5071.9198,-1.84591,0.78026,-0.69146
20.9915,5071.9398,-1.54476,0.13336,-0.86678
21.0156,5071.9599,-1.11654,-0.56364,-1.02927
21.0335,5071.9799,-0.93572,-1.38342,-1.04271
21.0522,5071.9999,-0.71154,-1.80553,-0.88877
21.0724,5072.0199,-0.12633,-2.53796,-0.72322
21.0976,5072.0399,0.46866,-3.4005,-0.54852
21.113,5072.0598,0.35748,-4.86352,-0.50698
21.14,5072.0798,0.22859,-6.12496,-0.36281
21.164,5072.0998,0.93902,-5.95819,-0.01218
21.1831,5072.1198,1.72459,-5.17201,0.52477
21.1943,5072.1398,2.0789,-4.55504,0.61213
21.216,5072.1598,2.12166,-4.40843,0.02997
21.2321,5072.1798,2.28537,-4.46402,-0.57784
21.2525,5072.1998,2.36112,-4.52816,-0.452
21.2749,5072.2198,2.32019,-5.19278,-0.2217
21.2932,5072.2398,2.33363,-5.70407,-0.16367
21.314,5072.2598,2.51017,-6.20071,-0.31822
21.3378,5072.2798,2.6525,-6.63442,-0.83135
21.3557,5072.2998,2.45519,-6.62526,-1.23574
21.3766,5072.3198,1.99399,-6.77187,-1.45137
21.4005,5072.3398,1.78874,-6.46032,-1.38174
21.4181,5072.3598,1.94878,-5.8464,-1.20703
21.4419,5072.3798,2.33118,-5.31006,-1.37502
21.4613,5072.3998,2.18274,-5.4976,-1.53262
21.4854,5072.4198,1.82783,-5.85068,-1.5711
21.5006,5072.4398,2.47535,-6.0431,-1.5088
21.5167,5072.4597,3.63721,-6.33326,-1.36097
21.5382,5072.4797,4.24564,-6.1329,-1.58821
21.5556,5072.4997,4.1314,-6.85861,-2.45014
21.5777,5072.5197,4.24014,-7.40533,-3.23266
21.5935,5072.5397,4.93652,-6.51164,-3.19662
21.6131,5072.5597,5.57793,-5.78349,-2.71648
21.6374,5072.5797,6.17841,-5.36321,-2.68166
21.654,5072.5997,6.45819,-4.0303,-3.08849
21.6735,5072.6197,6.11183,-3.89041,-2.80811
21.6951,5072.6397,5.36474,-3.29787,-3.08544
21.7133,5072.6597,5.10024,-1.15313,-3.19662
21.7415,5072.6797,5.38123,0.31295,-2.17097
21.7577,5072.6997,5.73859,-0.21606,-2.20946
21.7761,5072.7197,5.19125,-0.4824,-3.44585
21.8022,5072.7397,3.98968,0.13702,-4.21065
21.8191,5072.7597,2.80949,1.09119,-3.769
21.8356,5072.7797,1.89258,2.00749,-3.08055
21.8598,5072.7997,1.44909,3.06368,-3.02496
21.8766,5072.8197,1.41794,2.80528,-2.79039
21.8941,5072.8397,1.69466,2.35446,-2.78245
21.9137,5072.8597,1.02088,2.81322,-3.01458
21.9376,5072.8796,-0.27294,4.57496,-3.04573
21.9617,5072.8996,-1.49894,5.28295,-3.1453
21.973,5072.9196,-2.06582,5.58105,-4.44217
21.9957,5072.9396,-2.7109,5.72705,-4.90826
22.0141,5072.9596,-3.36086,5.72644,-4.89665
22.0313,5072.9796,-3.70966,5.27684,-4.98279
22.0538,5072.9996,-3.93752,4.78876,-5.20697
22.0718,5073.0196,-4.07985,4.45095,-5.09152
22.0974,5073.0396,-4.20935,3.41492,-4.98034
22.1244,5073.0596,-4.06763,1.74726,-5.36519
22.1409,5073.0796,-3.71883,0.45956,-5.05914
22.1516,5073.0996,-3.83917,-0.03036,-4.41896
22.1861,5073.1196,-3.93568,1.4907,-4.24425
22.1921,5073.1396,-4.13788,1.54873,-4.32488
22.2129,5073.1596,-3.8581,1.08264,-4.38047
22.234,5073.1796,-3.66812,0.97696,-4.1178
22.2534,5073.1997,-3.71821,0.50721,-4.10314
22.2732,5073.2197,-3.77747,-0.82631,-4.11719
22.2944,5073.2397,-3.74998,-0.79577,-4.27113
22.3124,5073.2598,-3.85199,-0.00592,-4.32488
22.3322,5073.2798,-3.9931,0.73384,-3.68225
22.3545,5073.2998,-3.98639,1.68434,-2.88324
22.3761,5073.3198,-4.0658,2.0081,-2.34018
22.3935,5073.3399,-4.29121,1.76498,-2.15387
22.4143,5073.3599,-4.46714,1.49559,-2.39516
22.4328,5073.3799,-4.43537,1.62936,-2.83987
22.455,5073.3999,-4.45981,2.26589,-2.89851
22.4837,5073.42,-4.72492,2.22862,-2.62485
22.4947,5073.44,-4.69682,1.22131,-2.25344
22.5188,5073.46,-3.95034,0.74789,-2.21007
22.5353,5073.4801,-3.07253,0.6758,-1.91502
22.5523,5073.5001,-2.54108,0.47116,-1.20397
22.5755,5073.5201,-2.053,0.18833,-0.53935
22.632,5073.5401,-1.43114,-0.21606,-0.19299
22.6334,5073.5602,-0.77873,-0.7298,-0.2046
22.6348,5073.5802,-0.13366,-1.05417,-0.55951
22.6544,5073.6002,0.28356,-0.53493,-0.58822
22.6719,5073.6203,0.64703,0.14191,-0.15634
22.6915,5073.6403,0.88954,0.39786,0.42032
22.7197,5073.6603,1.15527,0.22743,0.62251
22.7338,5073.6804,1.28233,-0.07067,0.51072
22.7556,5073.7004,1.0221,-0.28142,0.11672
22.7798,5073.7204,0.66963,-0.44697,-0.13007
22.794,5073.7404,0.54074,-0.86846,-0.1991
22.8146,5073.7605,0.61771,-1.34005,-0.31944
22.84,5073.7805,0.53463,-1.65587,-0.43001
22.8593,5073.8005,0.21454,-2.72794,-0.54913
22.8773,5073.8206,0.21209,-3.31498,-0.75499
22.8992,5073.8406,0.46743,-3.03459,-0.62487
22.9157,5073.8606,0.4039,-2.62348,-0.03356
22.9388,5073.8806,0.30922,-2.33515,0.71781
22.9608,5073.9007,0.432,-2.55323,0.91206
22.9772,5073.9207,0.55051,-2.8214,0.79417
22.9975,5073.9408,0.55418,-2.698,0.55104
23.0193,5073.9608,0.66596,-3.16959,0.40443
23.0414,5073.9809,0.713,-3.90874,0.28287
23.0629,5074.001,0.68857,-4.39804,-0.1881
23.0797,5074.021,0.45461,-4.35345,-0.93397
23.1055,5074.0411,0.38313,-4.4689,-1.18748
23.1234,5074.0612,0.69834,-4.7383,-1.19848
23.137,5074.0812,1.12472,-5.46706,-1.13189
23.1565,5074.1013,1.31043,-5.74683,-1.38601
23.1928,5074.1213,1.12656,-5.9417,-1.93884
23.1986,5074.1414,0.93291,-6.50492,-2.65478
23.2169,5074.1615,0.98545,-6.97223,-3.51976
23.2339,5074.1815,1.39351,-7.47375,-3.78427
23.2556,5074.2016,2.23467,-7.87081,-3.92232
23.2743,5074.2216,3.20777,-8.11882,-4.83496
23.2976,5074.2417,3.52665,-7.93495,-6.21918
23.3156,5074.2618,3.57613,-7.04492,-7.09394
23.3342,5074.2818,3.84063,-5.91665,-6.8331
23.3604,5074.3019,4.32627,-4.02175,-5.8716
23.3826,5074.322,4.87605,-1.89411,-5.00539
23.3989,5074.342,4.72883,-1.06394,-4.16789
23.4167,5074.362,4.1705,-0.17635,-3.85207
23.4386,5074.3821,3.77771,1.19932,-4.56434
23.4565,5074.4021,3.74473,1.28484,-5.12145
23.4772,5074.4221,3.69219,0.94886,-5.43788
23.5008,5074.4422,3.99946,0.52431,-6.00415
23.5206,5074.4622,4.54129,0.07166,-6.07318
23.5401,5074.4822,4.71722,0.37526,-4.46538
23.5626,5074.5022,4.32932,1.89509,-2.87774
23.5825,5074.5222,2.99764,1.96229,-1.87959
23.5973,5074.5422,1.45826,1.88898,-2.22839
23.6229,5074.5622,-0.19963,3.04107,-2.51733
23.636,5074.5822,-1.45985,4.26403,-2.11233
23.6543,5074.6022,-2.74205,5.29944,-1.48009
23.6765,5074.6222,-3.55939,5.76614,-1.35608
23.6941,5074.6422,-3.50563,5.48148,-2.09889
23.7144,5074.6622,-3.63697,5.2127,-2.26199
23.7354,5074.6822,-4.37306,5.49248,-1.73359
23.7544,5074.7022,-4.87886,5.15772,-1.62547
23.7785,5074.7222,-4.73469,4.31778,-2.3353
23.7976,5074.7422,-4.98943,3.86819,-2.62057
23.8153,5074.7622,-5.78844,4.24387,-2.72503
23.8388,5074.7822,-6.27346,3.70386,-2.94494
23.8566,5074.8022,-5.72735,2.96777,-3.34078
23.8742,5074.8222,-5.10854,3.06123,-3.45868
23.8953,5074.8422,-5.15986,3.19013,-3.56985
23.9183,5074.8622,-5.2802,2.43448,-4.0616
23.9366,5074.8822,-4.75852,1.43511,-4.13552
23.9626,5074.9022,-4.13116,1.35325,-3.88262
23.9824,5074.9221,-3.9815,2.14982,-3.58696
23.996,5074.9421,-3.89964,1.80529,-3.00419
24.0168,5074.9621,-3.4421,1.8395,-2.32735
24.0383,5074.9821,-2.86423,2.88347,-2.02376
24.0543,5075.0021,-3.0371,2.54016,-1.92602
24.0767,5075.0221,-3.37308,1.79491,-2.20152
24.1122,5075.0421,-3.45799,1.75581,-2.42143
24.1382,5075.0621,-3.58138,2.06797,-2.20824
24.142,5075.0821,-3.92408,2.82666,-1.72077
24.1708,5075.1021,-4.68827,2.65684,-1.39395
24.1773,5075.1222,-5.06884,1.75887,-1.5259
24.1967,5075.1422,-4.52944,1.23841,-1.73359
24.2177,5075.1622,-3.96867,1.159,-1.46542
24.2355,5075.1823,-3.80251,1.14739,-0.81974
24.2554,5075.2023,-3.87765,1.12051,-0.06349
24.2767,5075.2223,-4.04075,0.81997,0.61152
24.2951,5075.2423,-3.57283,0.50049,0.84365
24.3157,5075.2624,-2.91126,-0.36755,0.76423
24.3371,5075.2824,-1.93388,-1.18978,0.31769
24.3608,5075.3024,-0.93023,-1.36326,-0.37931
24.3777,5075.3224,-0.21429,-1.71024,-0.51247
24.4008,5075.3425,0.45522,-1.50498,-0.02623
24.4183,5075.3625,1.09601,-1.17206,0.64389
24.4437,5075.3825,1.69711,-0.7298,0.70926
24.4581,5075.4026,2.12043,-0.78172,0.1888
24.475,5075.4226,2.5682,-1.08837,0.00737
24.4955,5075.4426,3.01352,-1.3822,0.24317
24.5187,5075.4626,3.53398,-1.76033,0.48201
24.5411,5075.4827,3.76244,-2.13784,0.48018
24.5556,5075.5027,3.68547,-2.28811,0.29753
24.5785,5075.5227,3.7826,-2.46588,0.25538
24.5975,5075.5428,3.94998,-3.01504,0.20407
24.6189,5075.5628,4.16928,-3.56177,0.14298
24.6509,5075.5828,4.09475,-4.2661,0.07273
24.6612,5075.6028,3.73556,-4.75357,-0.27302
24.6747,5075.6229,3.7209,-4.52022,-0.98345
24.6956,5075.6429,3.69036,-4.55687,-1.53628
24.7139,5075.6629,3.53398,-4.08161,-1.4642
24.7374,5075.683,3.2487,-3.48541,-0.83074
24.7579,5075.703,2.88768,-3.62774,-0.43367
24.7767,5075.723,2.91884,-3.09446,-0.9639
24.7959,5075.7429,2.95793,-3.07369,-1.54667
24.8183,5075.7629,2.94816,-3.99854,-1.61753
24.8372,5075.7829,3.08133,-4.82015,-2.00726
24.8588,5075.8029,3.25848,-4.8452,-2.45442
24.8814,5075.8229,3.46434,-4.77678,-2.88813
24.8989,5075.8429,3.76,-4.47013,-3.46601
24.9157,5075.8629,4.0526,-4.18424,-3.72501
24.9397,5075.8829,4.2603,-4.47257,-3.05856
24.9573,5075.9029,4.52663,-4.81465,-2.83559
24.9785,5075.9229,5.02938,-5.09504,-3.36094
24.9989,5075.9429,5.1491,-5.45423,-4.13246
25.0185,5075.9629,4.73188,-5.11398,-4.38597
25.0396,5075.9829,4.30428,-4.34978,-3.75556
25.0586,5076.0029,3.55902,-3.70899,-3.09216
25.0752,5076.0229,2.366,-3.04131,-2.65478
25.1067,5076.0429,1.02149,-2.45305,-2.37134
25.1278,5076.0629,-0.09456,-1.82997,-2.01704
25.1375,5076.0829,-0.68649,-1.64548,-1.38357
25.175,5076.1029,-0.83676,-1.2698,-0.90098
25.1803,5076.1229,-0.96138,-0.92833,-0.57478
25.1941,5076.1428,-1.16297,-0.84342,-0.33227
25.2149,5076.1628,-1.5863,-1.26125,-0.37014
25.2365,5076.1828,-2.1825,-1.36876,-0.4856
25.2547,5076.2028,-2.2613,-1.43596,-0.05799
25.2741,5076.2228,-2.23198,-1.36204,-0.00057
25.2972,5076.2428,-2.36332,-1.13419,0.39894
25.3182,5076.2628,-2.33033,-1.27774,0.43864
25.3388,5076.2828,-2.29795,-1.44573,0.14543
25.359,5076.3028,-2.43662,-1.52698,0.35862
25.3787,5076.3228,-2.34377,-0.90206,1.01163
25.4027,5076.3428,-2.10675,-0.5447,1.57668
25.4205,5076.3628,-2.13607,-0.80371,1.59623
25.4412,5076.3828,-1.99313,-1.04745,1.51377
25.4567,5076.4028,-1.92594,-1.02729,1.63105
25.4804,5076.4228,-1.88073,-1.09937,1.54797
25.4954,5076.4428,-1.63089,-1.21788,1.37632
25.5157,5076.4628,-1.39265,-1.19528,1.19917
25.5385,5076.4828,-1.79888,-0.95521,0.75996
25.5589,5076.5028,-2.19411,-1.18734,0.49667
25.5856,5076.5228,-2.33522,-1.24048,0.8638
25.5994,5076.5427,-2.35049,-0.71514,1.6842
25.6176,5076.5627,-2.46533,0.0851,2.54124
25.6362,5076.5827,-2.5759,-0.03463,2.83507
25.6578,5076.6027,-2.56979,-0.32296,2.438
25.6776,5076.6227,-2.57345,-0.58747,1.99879
25.7006,5076.6427,-2.84407,-0.505,1.94748
25.7207,5076.6627,-3.32665,-0.5893,2.2859
25.7365,5076.6827,-3.82451,-0.55631,2.8821
25.7596,5076.7027,-4.26494,-0.37,3.47892
25.782,5076.7227,-4.72248,-0.12321,4.07024
25.8001,5076.7427,-4.90635,0.00141,4.36895
25.8181,5076.7627,-4.90452,0.1413,4.40804
25.8409,5076.7827,-4.73286,0.35327,3.78435
25.8607,5076.8027,-4.4989,0.45956,3.3036
25.8777,5076.8227,-4.30159,0.53469,3.51679
25.8976,5076.8427,-4.06702,0.06311,4.06718
25.9188,5076.8627,-3.30466,0.07655,3.75747
25.9371,5076.8827,-2.35843,0.89938,3.61209
25.9587,5076.9027,-1.38654,0.79614,3.39279
25.9782,5076.9227,-0.98032,0.77049,2.89921
25.9967,5076.9427,-0.98765,0.89083,2.72206
26.0185,5076.9626,-1.1538,0.75033,3.10263
26.0532,5076.9826,-1.55209,0.98368,4.22601
26.0586,5077.0026,-1.93143,1.16083,5.47645
26.084,5077.0226,-1.91983,2.07163,6.57478
26.0963,5077.0426,-1.52704,1.68495,6.71345
26.1192,5077.0626,-1.08783,0.76377,5.42147
26.1359,5077.0826,-0.48368,-0.01997,3.31521
26.1566,5077.1026,0.10458,0.42107,1.98963
26.1766,5077.1226,0.3697,0.33616,1.13747
26.1969,5077.1426,0.23347,-0.24721,0.64267
26.2223,5077.1626,0.03738,-0.36572,0.81005
26.2373,5077.1826,-0.11778,-0.51783,1.46001
26.2566,5077.2026,0.00012,0.06372,2.16556
26.2751,5077.2226,0.36175,1.39785,2.83995
26.2955,5077.2426,0.35015,1.63181,3.35614
26.3171,5077.2626,-0.28943,0.32883,3.00916
26.336,5077.2826,-0.87158,-0.50194,2.20343
26.3634,5077.3026,-1.06828,-0.26859,1.47345
26.3896,5077.3226,-1.04568,0.50049,1.0715
26.3993,5077.3426,-0.93756,0.73567,1.38304
26.4166,5077.3627,-0.80989,0.54386,1.80759
26.4434,5077.3827,-0.6816,-0.02364,2.51009
26.4558,5077.4027,-0.48063,-0.06884,2.83079
26.4766,5077.4227,-0.28515,0.14191,2.13563
26.4969,5077.4428,-0.11167,-0.12687,1.20222
26.5151,5077.4628,0.07953,0.0851,0.73797
26.5377,5077.4828,0.14245,0.1303,1.29019
26.5627,5077.5029,0.30128,0.11625,2.12463
26.5771,5077.5229,0.64886,-0.0664,1.9432
26.6217,5077.5429,1.00622,-0.54532,1.16741
26.6254,5077.5629,1.16565,-0.81654,0.75996
26.6397,5077.583,1.07952,-1.03462,0.69276
26.6561,5077.603,0.82845,-1.09815,0.53333
26.6762,5077.623,0.43811,-1.45673,0.00798
26.6952,5077.6431,0.03433,-1.81103,-0.58517
26.7147,5077.6631,-0.42076,-1.81164,-0.91076
26.7376,5077.6831,-0.70665,-1.55874,-1.44954
26.7569,5077.7031,-0.71093,-1.326,-1.82156
26.7771,5077.7232,-0.39144,-1.29363,-1.92113
26.7997,5077.7432,0.03005,-1.39686,-1.94923
26.8187,5077.7632,0.43017,-1.09265,-2.50512
26.8397,5077.7833,0.50775,-1.03951,-3.10071
26.864,5077.8033,0.45766,-1.34616,-3.18073
26.8845,5077.8233,0.42589,-1.09021,-2.97426
26.9023,5077.8433,0.38497,-0.5667,-2.57231
26.9213,5077.8634,0.10458,-0.34373,-2.02986
26.9378,5077.8834,-0.14588,0.10709,-1.80751
26.9672,5077.9035,-0.36579,0.94397,-1.88509
26.9803,5077.9235,-0.61563,1.45221,-1.66396
26.9971,5077.9435,-0.85081,1.56095,-1.02194
27.0169,5077.9635,-0.95955,1.20542,-0.67008
27.0405,5077.9836,-0.93878,0.82119,-0.75926
27.0591,5078.0036,-0.75674,0.5744,-0.84295
27.079,5078.0236,-0.46169,0.41252,-0.58761
27.1042,5078.0437,-0.13121,0.79309,-0.35609
27.124,5078.0637,0.20049,1.16327,0.08556
27.1572,5078.0837,0.14429,0.43085,0.7569
27.1617,5078.1038,-0.01882,-0.20567,1.20284
27.1854,5078.1239,-0.15198,-0.03585,1.1558
27.2004,5078.1439,-0.34013,0.15229,1.02813
27.2229,5078.164,-0.66267,0.45345,1.22727
27.2412,5078.1841,-1.32607,0.40824,1.52537
27.2629,5078.2041,-2.44151,0.10464,1.24254
27.2805,5078.2242,-3.54717,0.181,0.94444
27.2981,5078.2442,-3.80862,0.20177,1.15274
27.3194,5078.2643,-3.11651,-0.08228,1.9261
27.3387,5078.2844,-2.13974,-0.08656,2.51375
27.3633,5078.3044,-1.71336,0.64343,1.87662
27.3789,5078.3245,-1.74207,0.55974,0.81127
27.4015,5078.3446,-1.36028,0.54752,0.6048
27.4179,5078.3647,-0.8948,0.43757,0.51806
27.4409,5078.3848,-0.51728,0.10403,-0.44894
27.465,5078.4049,-0.0402,-0.69803,-1.45443
27.4896,5078.425,0.65741,-1.05111,-1.82706
27.5066,5078.4451,0.97445,-1.04989,-1.75375
27.529,5078.4652,1.01782,-1.1293,-1.70244
27.5424,5078.4854,1.00561,-1.53003,-1.80751
27.5605,5078.5055,1.40022,-2.12746,-2.2962
27.5841,5078.5256,1.83211,-2.39257,-2.72442
27.6018,5078.5457,2.02697,-2.53246,-2.79589
27.6279,5078.5658,0.58594,-2.19099,-2.42876
27.6468,5078.5859,-0.29065,-1.21299,-1.81606
27.671,5078.6059,-0.15748,-0.30952,-1.28888
27.6841,5078.626,0.58411,0.15168,-0.78309
27.7024,5078.6461,1.07402,0.597,-0.44956
27.7207,5078.6662,1.23346,1.16755,0.01043
27.7481,5078.6863,1.04348,1.16083,0.49729
27.7635,5078.7064,0.64031,0.98796,0.56815
27.7827,5078.7264,0.3477,0.99895,0.62068
27.8012,5078.7465,0.31533,1.46626,0.96826
27.8226,5078.7665,0.32693,2.3117,1.40198
27.8452,5078.7866,0.24447,2.57682,1.48078
27.8655,5078.8067,0.12168,2.60064,1.38243
27.8829,5078.8267,0.11435,2.8572,1.34883
27.9011,5078.8468,0.28662,2.04781,0.9817
27.9193,5078.8669,0.49065,0.09609,0.33846
27.9428,5078.8869,0.94024,-0.48667,-0.00607
27.9652,5078.907,1.20963,0.15962,0.1552
27.9857,5078.927,0.91398,1.04171,0.55837
28.0035,5078.9471,0.23714,1.43755,0.89924
28.0225,5078.9671,0.01417,1.72466,0.84792
28.0396,5078.9871,0.16017,2.21396,0.8467
28.062,5079.0071,0.52669,2.7613,1.0153
28.0795,5079.0271,0.40818,2.947,1.00736
28.1001,5079.0471,-0.35052,3.28237,0.58647
28.1215,5079.0671,-0.80866,3.98669,0.47407
28.14,5079.0871,-0.80561,3.45891,0.52477
28.1616,5079.1071,-0.00477,2.10462,0.21873
28.1912,5079.1271,1.24323,0.51026,0.02875
28.2035,5079.1471,1.84982,-0.25943,0.11061
28.2326,5079.1671,1.64763,-0.10122,0.37267
28.2445,5079.1871,1.30126,0.05455,0.4307
28.2638,5079.2071,1.23712,0.24881,0.42398
28.2815,5079.2271,1.04776,0.16023,0.2676
28.3025,5079.2471,0.93047,-0.73896,-0.00362
28.3274,5079.2671,1.01294,-2.56484,-0.39397
28.3439,5079.2871,1.27622,-4.1934,-0.77637
28.369,5079.3071,1.42466,-4.71447,-0.84234
28.3821,5079.3271,0.87488,-5.38092,-0.70978
28.402,5079.3471,0.24141,-6.11641,-0.83379
28.4215,5079.3671,-0.22101,-6.31738,-0.61571
28.4394,5079.3871,-0.24361,-6.05471,-0.47521
28.4608,5079.4071,-0.11778,-5.00646,-0.36342
28.4823,5079.427,-0.09762,-4.24533,0.58281
28.5006,5079.447,-0.17153,-3.81283,1.2346
28.5207,5079.467,-0.39694,-3.44387,0.26088
28.5411,5079.487,-0.63884,-3.03765,-0.84479
28.5703,5079.507,-0.70726,-2.90081,-0.84051
28.5904,5079.527,-0.4678,-3.5972,-0.37931
28.6022,5079.547,-0.05791,-5.00097,-0.51003
28.6459,5079.567,0.42773,-5.45545,-1.67556
28.6477,5079.587,0.54196,-3.98327,-2.18686
28.6616,5079.607,0.14429,-2.51169,-1.18259
28.682,5079.627,-0.38656,-2.44999,-0.16856
28.6985,5079.647,-0.39022,-3.09323,-0.2779
28.7218,5079.667,0.17116,-3.09385,-1.36341
28.7396,5079.687,0.68429,-2.2197,-2.36401
28.7602,5079.707,0.67391,-1.15252,-2.21434
28.7855,5079.727,0.4656,0.83524,-0.95169
28.7999,5079.747,0.14917,3.24877,0.60785
28.8196,5079.767,-0.55149,4.64704,1.38854
28.8417,5079.787,-1.41892,5.16139,1.44229
28.8621,5079.807,-2.29856,4.98912,1.26759
28.8821,5079.827,-2.25153,4.33916,0.91145
28.9058,5079.8469,-1.37127,4.31412,0.52966
28.9238,5079.8669,-0.44153,5.14367,0.6781
28.9451,5079.8869,-0.08784,5.72033,1.25537
28.9654,5079.9069,-0.38045,4.78754,1.41053
28.9825,5079.9269,-0.62296,3.6495,0.71353
29.0023,5079.9469,-0.48002,3.21884,-0.02928
29.0235,5079.9669,-0.34746,4.12841,0.22362
29.0427,5079.9869,-0.43787,5.59021,1.38793
29.0625,5080.0069,-0.42687,6.53034,1.79232
29.0829,5080.0269,-0.88624,5.82662,0.90046
29.1006,5080.0469,-1.41159,4.88405,-0.05371
29.1324,5080.0669,-1.67304,4.34649,-0.07204
29.1437,5080.0869,-1.35356,3.10583,0.11855
29.1624,5080.1069,-0.30959,2.4748,0.24194
29.1819,5080.1269,0.3306,1.85355,0.34946
29.2044,5080.1469,0.42284,0.92565,0.26271
29.2283,5080.167,0.52547,-0.16414,0.33235
29.242,5080.187,0.43567,-1.1519,0.51867
29.2636,5080.207,0.59083,-2.45977,0.57792
29.2818,5080.2271,0.98239,-2.76031,0.27127
29.3079,5080.2471,0.99461,-3.43898,0.16559
29.3405,5080.2671,0.76676,-3.76213,0.54982
29.3547,5080.2871,1.11373,-3.89164,0.65978
29.3638,5080.3072,1.37029,-3.58193,0.26699
29.3835,5080.3272,1.33425,-3.27894,0.0031
29.4051,5080.3472,1.17359,-3.73892,-0.12763
29.4244,5080.3672,1.21758,-4.60818,-0.36037
29.4412,5080.3873,1.36724,-4.62956,-0.45627
29.4601,5080.4073,0.78447,-4.61612,-0.50698
29.4816,5080.4273,0.00928,-4.00831,-0.59128
29.505,5080.4474,-0.44764,-3.39256,-0.71895
29.5218,5080.4674,-0.44214,-2.844,-1.11173
29.5417,5080.4874,-0.40488,-1.72978,-1.34386
29.5693,5080.5074,-0.31264,-0.86846,-0.99384
29.5847,5080.5275,-0.07807,-0.04441,-0.11358
29.6004,5080.5475,0.27807,1.48215,0.74713
29.6232,5080.5675,0.55662,3.71364,1.4484
29.6412,5080.5876,0.62504,5.63664,1.94565
29.6666,5080.6076,-0.09212,5.56334,1.99268
29.6876,5080.6276,-1.51544,2.5591,0.94933
29.7132,5080.6476,-1.2772,1.57622,0.40566
29.7291,5080.6677,-0.39389,1.59821,0.92428
29.7427,5080.6877,-0.23323,1.07775,1.29202
29.7612,5080.7077,-0.48307,0.93848,1.42153
29.7827,5080.7277,-1.09333,1.54384,1.44046
29.803,5080.7477,-1.68526,1.87432,1.45329
29.8236,5080.7677,-1.94671,1.82484,1.52598
29.841,5080.7877,-1.98153,1.82301,1.74284
29.8635,5080.8077,-2.14463,2.0417,2.23764
29.8855,5080.8277,-2.19533,2.66478,2.77642
29.9039,5080.8477,-1.94793,3.26709,3.28344
29.9239,5080.8677,-1.8899,2.33125,3.69883
29.9539,5080.8877,-1.491,-0.01508,4.29015
29.9678,5080.9077,-0.99192,-2.0847,5.20522
29.9908,5080.9277,-1.06584,-2.79452,5.8784
30.0031,5080.9477,-1.37188,-2.49031,5.96331
30.0238,5080.9677,-1.18496,-2.1244,5.64199
30.0423,5080.9877,-0.6364,-1.88189,5.02685
30.0616,5081.0077,-0.18741,-1.50987,4.24861
30.0816,5081.0277,-0.26622,-0.86785,3.43433
30.1026,5081.0477,-0.48918,-0.5386,2.37875
30.1267,5081.0676,-0.28637,-0.41703,1.16985
30.1442,5081.0876,0.26646,-0.41948,0.00493
30.1629,5081.1076,0.89565,-0.74018,-1.4361
30.1819,5081.1276,1.41366,-0.88862,-2.35423
30.2007,5081.1476,1.81317,-1.31806,-3.21311
30.2252,5081.1676,2.15648,-1.35593,-4.1178
30.2423,5081.1876,1.99582,-0.96009,-4.79097
30.2626,5081.2076,1.38679,-0.98636,-5.06586
30.2886,5081.2276,0.90726,-1.02179,-5.23691
30.3022,5081.2476,0.73377,-0.99491,-5.30838
30.3264,5081.2676,0.56578,-0.84953,-5.09457
30.3555,5081.2876,0.34465,-0.95521,-5.37374
30.3603,5081.3076,0.59083,-1.21788,-5.68223
30.385,5081.3276,0.6116,-0.80493,-4.6914
30.405,5081.3477,0.15772,0.12053,-3.54786
30.4218,5081.3677,-0.39144,0.52064,-2.74885
30.4406,5081.3877,-0.69565,1.35997,-2.27665
30.4628,5081.4078,-1.01636,2.00382,-1.91746
30.48,5081.4278,-1.42136,1.79674,-1.65174
30.5043,5081.4478,-1.8227,1.82484,-1.33164
30.5244,5081.4678,-1.9632,2.15715,-1.28705
30.5408,5081.4879,-1.83064,1.53468,-1.12395
30.5611,5081.5079,-2.06277,0.73384,-1.31698
30.5825,5081.5279,-2.08415,-0.29364,-1.57171
30.6347,5081.548,-1.39265,-0.27592,-1.64135
30.637,5081.568,-0.56126,0.80897,-1.3292
30.6495,5081.588,-0.30042,0.00752,-0.79775
30.6602,5081.608,-0.30348,-2.03216,0.01348
30.6804,5081.6281,0.32327,-1.40358,0.40443
30.7031,5081.6481,0.88893,-0.92283,0.69521
30.7228,5081.6681,0.76248,-0.49034,0.77034
30.7416,5081.6882,0.24202,-1.29729,1.1332
30.7652,5081.7082,0.25852,-1.41336,1.32379
30.7895,5081.7282,0.57495,-1.25453,0.5431
30.8065,5081.7482,0.82235,-1.3932,-0.29378
30.8272,5081.7683,0.83151,-1.56974,-0.38786
30.8435,5081.7883,0.53952,-1.34921,-0.19055
30.8677,5081.8083,0.2011,-1.10365,0.03303
30.8954,5081.8284,-0.15259,-0.5502,-0.17406
30.9058,5081.8484,-0.35174,-0.0273,-0.46483
30.9217,5081.8684,-0.33524,0.15718,-0.36403
30.9441,5081.8884,0.0099,0.05455,-0.23331
30.9648,5081.9084,0.62687,0.19872,-0.13191
30.9963,5081.9284,1.05081,2.32147,-0.43551
31.0082,5081.9484,0.90542,2.65134,-0.4856
31.0239,5081.9684,0.26218,0.48705,-0.025
31.0435,5081.9884,-0.10556,-0.43841,0.66588
31.0676,5082.0084,-0.0744,-0.60335,1.15397
31.0865,5082.0284,0.18155,-0.40604,1.43802
31.1081,5082.0484,0.20659,0.0124,1.30974
31.1306,5082.0684,-0.05791,0.00568,0.61396
31.148,5082.0884,-0.29187,0.13519,-0.13618
31.1632,5082.1084,-0.30226,0.39236,-0.40069
31.1826,5082.1284,-0.08723,0.25675,-0.25102
31.2011,5082.1484,0.10519,0.37709,0.19796
31.2218,5082.1684,0.15956,0.22987,0.60297
31.2453,5082.1884,0.14795,-0.10549,0.56204
31.2632,5082.2084,0.13024,0.03501,0.17841
31.284,5082.2284,0.07281,-0.00714,-0.0134
31.3073,5082.2484,0.05021,0.25919,0.04097
31.3349,5082.2684,0.04655,0.38259,0.12527
31.3542,5082.2883,0.27929,0.37159,0.20651
31.3664,5082.3083,0.59449,0.10648,0.18636
31.3883,5082.3283,0.859,-0.00837,0.05197
31.4137,5082.3483,0.76431,-0.03036,-0.06838
31.4275,5082.3683,0.48942,0.17001,-0.02989
31.4404,5082.3883,0.27318,0.25614,0.08617
31.4628,5082.4083,0.13024,0.15535,0.09595
31.4821,5082.4283,0.01661,0.18589,-0.09525
31.5005,5082.4483,-0.05791,0.22254,-0.32799
31.5204,5082.4683,-0.11716,0.01668,-0.45689
31.5458,5082.4883,-0.18864,-0.27348,-0.45444
31.5646,5082.5083,-0.18314,-0.40237,-0.37198
31.5871,5082.5283,-0.09823,-0.1507,-0.38114
31.6081,5082.5483,-0.14588,0.02768,-0.3396
31.6265,5082.5683,-0.20879,-0.04013,-0.21926
31.6458,5082.5883,-0.03225,-0.09938,-0.24186
31.6704,5082.6083,0.18888,-0.11954,-0.37014
31.6822,5082.6283,0.14245,-0.21301,-0.4184
31.7006,5082.6483,-0.03103,-0.09511,-0.33777
31.7256,5082.6683,-0.13977,0.23232,-0.20582
31.744,5082.6882,-0.26927,0.38931,-0.19238
31.7656,5082.7082,-0.39266,0.33738,-0.28768
31.7877,5082.7282,-0.15809,0.26347,-0.30967
31.8055,5082.7482,0.01051,0.00874,-0.4184
31.8251,5082.7682,0.01417,-0.36694,-0.33532
31.8479,5082.7882,-0.15993,-0.31685,-0.24186
31.866,5082.8082,-0.41954,-0.13298,-0.15329
31.8839,5082.8282,-0.50506,0.04173,-0.08914
31.9267,5082.8482,-0.39816,0.06738,-0.07693
31.9408,5082.8682,-0.26133,-0.04624,0.09778
31.9448,5082.8882,-0.23567,-0.35717,0.37145
31.9685,5082.9082,-0.13916,-0.52027,0.46063
31.9816,5082.9282,0.06182,-0.50194,0.40749
32.0007,5082.9482,0.16078,-0.49034,0.3629
32.0242,5082.9682,0.04227,-0.31685,0.44903
32.0409,5082.9882,0.00806,-0.18735,0.46124
32.0673,5083.0082,0.07892,-0.28448,0.39649
32.0834,5083.0282,0.11924,-0.41826,0.18574
32.1014,5083.0482,-0.0011,-0.55387,-0.08059
32.128,5083.0682,-0.03775,-0.54043,-0.27179
32.1461,5083.0882,-0.02492,-0.18063,-0.35426
32.1643,5083.1081,0.01112,0.27385,-0.2724
32.1913,5083.1281,-0.03958,0.50415,-0.22048
32.2025,5083.1481,-0.19413,0.44368,-0.22231
32.2267,5083.1681,-0.18436,0.15962,-0.17406
32.2412,5083.1881,-0.00538,-0.05785,-0.14596
32.2624,5083.2081,0.21454,-0.10122,-0.09831
32.2818,5083.2281,0.39291,-0.09266,0.07151
32.303,5083.2481,0.30739,-0.07984,0.26394
32.3249,5083.2681,0.173,-0.02058,0.43253
32.341,5083.2881,0.01539,0.09121,0.48507
32.371,5083.3081,-0.06585,0.08998,0.47529
32.3887,5083.3281,0.03128,0.01302,0.4533
32.4072,5083.3481,0.26035,-0.08839,0.46369
32.4218,5083.3681,0.45155,-0.13604,0.52111
32.4459,5083.3882,0.3196,-0.29975,0.5712
32.464,5083.4082,0.09114,-0.37488,0.40993
32.4852,5083.4282,-0.14343,-0.28448,0.06724
32.503,5083.4483,-0.27965,-0.23377,-0.12519
32.5219,5083.4683,-0.22407,-0.15681,-0.11175
32.5421,5083.4883,-0.15809,-0.06212,-0.12274
32.5727,5083.5083,-0.42932,-0.04502,-0.30295
32.5892,5083.5284,-0.76713,-0.07312,-0.45505
32.6242,5083.5484,-0.60464,0.02157,-0.45322
32.6279,5083.5684,0.00623,0.21032,-0.26324
32.6409,5083.5885,0.19315,0.34655,-0.16367
32.6618,5083.6085,0.14551,0.338,-0.14901
32.6819,5083.6285,0.06976,0.25309,-0.15267
32.7053,5083.6485,-0.03409,0.11625,-0.1093
32.7211,5083.6686,-0.26072,-0.03036,-0.08181
32.744,5083.6886,-0.64068,-0.05235,-0.1484
32.7624,5083.7086,-0.64495,0.04661,-0.25286
32.7822,5083.7287,-0.31753,0.10037,-0.2834
32.8055,5083.7487,0.00806,0.09121,-0.19421
32.8246,5083.7687,0.16994,0.20483,-0.07693
32.844,5083.7887,0.25913,0.31967,-0.036
32.8654,5083.8088,0.22675,0.19444,-0.06899
32.8865,5083.8288,-0.0292,0.08571,-0.13496
32.9062,5083.8488,-0.14832,0.14496,-0.22109
32.9334,5083.8689,-0.03592,0.20666,-0.28829
32.9511,5083.8889,0.18949,0.39725,-0.31394
32.9665,5083.9089,0.22614,0.51515,-0.26019
32.9843,5083.9289,0.09236,0.62571,-0.19971
33.0027,5083.9489,-0.12572,0.64098,-0.22842
33.0248,5083.9689,-0.19963,0.66236,-0.27424
33.0482,5083.9889,-0.21857,0.56768,-0.26935
33.0656,5084.0089,-0.11167,0.29707,-0.13007
33.0829,5084.0289,0.10275,0.00935,0.12221
33.1051,5084.0489,0.13696,-0.27776,0.24866
33.1299,5084.0689,-0.11961,-0.2857,0.23706
33.1533,5084.0889,-0.23506,-0.16719,0.21751
33.1685,5084.1089,-0.16115,-0.06151,0.16253
33.1916,5084.1289,0.01845,0.01118,0.10145
33.2016,5084.1489,0.24386,-0.07861,0.1155
33.2254,5084.1689,0.44972,-0.22339,0.13688
33.2419,5084.1889,0.53157,-0.3193,0.04158
33.2676,5084.2089,0.41001,-0.28081,-0.12763
33.2866,5084.2289,0.14795,-0.25515,-0.24003
33.3033,5084.2489,0.0722,-0.15314,-0.2046
33.3242,5084.2689,0.22431,-0.09816,-0.15267
33.346,5084.2889,0.34831,0.0289,-0.09648
33.3641,5084.3089,0.22736,0.02157,0.06235
33.3939,5084.3288,0.04044,-0.05174,0.13138
33.4047,5084.3488,0.05815,-0.0719,0.18513
33.4208,5084.3688,0.07465,-0.07678,0.18086
33.4409,5084.3888,0.06304,0.01973,0.1888
33.4628,5084.4088,0.13146,0.1248,0.26394
33.4827,5084.4288,0.24264,0.1584,0.40199
33.5015,5084.4488,0.21392,0.00019,0.4252
33.5244,5084.4688,0.09725,-0.06212,0.34579
33.5431,5084.4888,0.10824,-0.05296,0.23584
33.5649,5084.5088,0.20171,-0.01936,0.19857
33.5898,5084.5288,0.32144,-0.03891,0.21934
33.6018,5084.5488,0.47537,-0.01692,0.29142
33.6224,5084.5688,0.55112,-0.11404,0.32075
33.655,5084.5888,0.50286,-0.11099,0.29631
33.6673,5084.6088,0.37947,-0.10366,0.19735
33.6821,5084.6288,0.24264,-0.12809,0.11427
33.7078,5084.6488,0.17055,-0.10366,0.07457
33.7371,5084.6688,0.17544,-0.05785,0.05624
33.7512,5084.6888,0.13268,0.08632,0.00371
33.7649,5084.7088,0.11558,0.17612,0.01043
33.7846,5084.7288,0.08809,0.07716,0.03425
33.8023,5084.7487,0.07465,0.01485,0.0428
33.823,5084.7687,0.07831,0.01912,0.05319
33.8421,5084.7887,-0.04386,0.03317,0.05258
33.8632,5084.8087,-0.13488,0.0796,0.08129
33.884,5084.8287,-0.16115,0.09793,0.0593
33.9091,5084.8487,-0.11594,0.04478,-0.01279
33.9231,5084.8687,0.00745,-0.03769,-0.08059
33.9438,5084.8887,0.03066,-0.05051,-0.047
33.9664,5084.9087,-0.01943,0.00691,0.07518
33.9943,5084.9287,0.03861,-0.00103,0.07518
34.0135,5084.9487,0.08686,0.04111,-0.01645
34.0288,5084.9687,0.08992,0.03562,-0.07326
34.05,5084.9887,0.08686,0.046,-0.07265
34.0666,5085.0087,0.0777,0.00752,-0.02989
34.0837,5085.0287,0.02944,-0.04135,-0.02867
34.1068,5085.0487,-0.01454,0.0686,-0.01156
34.1241,5085.0687,-0.03348,0.10892,-0.01767
34.1423,5085.0887,-0.03531,0.11869,-0.03111
34.1639,5085.1087,-0.04875,-0.00103,-0.00179
34.1856,5085.1287,-0.02737,-0.02058,0.03669
34.2046,5085.1487,0.00623,-0.02486,0.0709
34.2218,5085.1686,0.01661,-0.00226,0.06418
34.2449,5085.1886,-0.00232,0.05516,0.04463
34.274,5085.2086,-0.06035,0.05883,0.01043
34.2839,5085.2286,-0.16359,0.04722,-0.06654
34.3052,5085.2486,-0.15137,0.02951,-0.08914
34.3287,5085.2686,-0.02676,-0.0047,-0.04883
34.3433,5085.2886,-0.00721,-0.02242,-0.01523
34.3756,5085.3086,-0.10373,-0.01325,-0.02378
34.3868,5085.3287,-0.09578,0.02218,-0.0305
34.4026,5085.3487,-0.02248,-0.00959,-0.00301
34.4236,5085.3687,-0.02309,-0.0664,-0.01584
34.4418,5085.3888,-0.01698,-0.02913,-0.03966
34.4634,5085.4088,0.03066,0.04234,-0.02806
34.4832,5085.4288,0.06426,-0.01692,0.01592
34.5032,5085.4488,0.01173,-0.11771,0.00065
34.5249,5085.4689,-0.12877,-0.089,-0.05005
34.5434,5085.4889,-0.18131,-0.03097,-0.07204
34.5619,5085.5089,-0.09334,-0.01081,-0.04577
34.6025,5085.529,-0.01271,0.00996,-0.04211
34.6046,5085.549,-0.07807,0.03684,-0.02623
34.6222,5085.569,-0.15443,0.00202,-0.00729
34.6417,5085.589,-0.04997,-0.04624,0.00065
34.6648,5085.6091,0.09419,-0.04318,-0.01951
34.6829,5085.6291,0.20049,-0.05357,0.01715
34.7013,5085.6491,0.1846,-0.04563,0.05197
34.7231,5085.6692,0.13268,0.04478,0.08312
34.7436,5085.6892,0.16689,0.08265,0.11794
34.7649,5085.7092,0.22309,0.08815,0.16803
34.7898,5085.7292,0.13757,0.01912,0.19796
34.807,5085.7493,-0.02492,-0.01631,0.16192
34.8257,5085.7693,-0.1416,-0.0383,0.09228
34.8446,5085.7893,-0.27355,-0.04013,-0.04822
34.8641,5085.8094,-0.22895,0.14802,-0.13985
34.8855,5085.8294,-0.10739,0.11136,-0.07021
34.9093,5085.8494,0.02517,0.05639,0.02325
34.9273,5085.8694,0.14856,0.00507,0.08984
34.9507,5085.8895,0.17605,-0.04441,0.12283
34.967,5085.9095,0.07465,-0.0383,0.03303
34.9847,5085.9295,0.01417,0.07471,-0.03966
35.0041,5085.9495,0.02639,0.12236,-0.05494
35.029,5085.9695,0.02578,0.11747,-0.0531
35.0451,5085.9894,0.02761,0.11747,-0.03783
35.064,5086.0094,-0.07563,0.08265,-0.02623
35.0846,5086.0294,-0.08296,0.07166,0.0147
35.1022,5086.0494,0.00745,0.00813,0.01226
35.1271,5086.0694,0.02822,0.00752,-0.01462
35.1503,5086.0894,0.04349,0.04539,-0.01218
35.1633,5086.1094,0.05021,0.00996,-0.01218
35.1853,5086.1294,0.0496,-0.00775,-0.01584
35.2202,5086.1494,0.0606,-0.02547,0.00493
35.2322,5086.1694,0.02272,-0.02669,-0.00851
35.2418,5086.1894,0.00134,0.01973,-0.03111
35.2638,5086.2094,0.00806,0.02096,-0.0189
35.2835,5086.2294,0.03189,0.00568,-0.047
35.3058,5086.2494,0.07159,-0.01081,-0.06227
35.3273,5086.2694,0.03005,-0.01936,-0.05677
35.3491,5086.2894,0.00806,0.04478,-0.04455
35.3629,5086.3094,-0.03531,0.05394,-0.07387
35.3859,5086.3294,-0.04386,0.06066,-0.08609
35.4055,5086.3494,0.01906,0.04234,-0.06776
35.421,5086.3694,0.05938,0.0515,-0.03661
35.4431,5086.3893,0.0441,0.05211,0.01165
35.4613,5086.4093,0.01661,0.0289,0.03364
35.4834,5086.4293,-0.01393,0.01179,0.04463
35.5034,5086.4493,-0.0066,-0.03463,0.05258
35.5212,5086.4693,-0.02309,0.00874,0.06052
35.5458,5086.4893,0.00318,0.04661,0.06235
35.565,5086.5093,0.02517,0.06799,0.03425
35.5821,5086.5293,0.01478,0.03378,0.03425
35.6022,5086.5493,0.04288,-0.00653,0.04097
35.6249,5086.5693,0.07526,-0.0102,0.01409
35.6433,5086.5893,0.05754,-0.00042,0.00493
35.6645,5086.6093,-0.07501,0.01546,-0.02928
35.6849,5086.6293,-0.12755,0.04356,-0.02989
35.7039,5086.6493,-0.0854,0.03256,-0.00118
35.7261,5086.6693,-0.03225,-0.00837,0.03669
35.7516,5086.6893,-0.06158,-0.03158,0.04158
35.7671,5086.7094,-0.10617,0.04967,0.03547
35.7979,5086.7294,-0.12083,0.06799,0.0202
35.8072,5086.7494,-0.11045,0.04845,0.01715
35.824,5086.7695,-0.10556,0.01302,0.02692
35.8439,5086.7895,-0.05669,-0.00775,0.02753
35.8653,5086.8095,-0.00293,0.00263,0.02692
35.8877,5086.8295,0.01051,0.04173,0.04097
35.9128,5086.8496,0.02028,0.0234,0.07518
35.9467,5086.8696,0.07709,-0.0218,0.07701
35.956,5086.8896,-0.01882,-0.05174,-0.00301
35.9777,5086.9097,-0.08662,0.03073,-0.0415
35.9931,5086.9297,-0.05547,0.06433,-0.06471
36.0148,5086.9497,-0.03714,0.10403,-0.10136
36.0232,5086.9697,-0.02553,0.11014,-0.08792
36.0447,5086.9898,-0.00171,0.04845,-0.0531
36.0652,5087.0098,0.00501,0.03195,-0.036
36.0831,5087.0298,0.06304,0.04783,-0.02867
36.1054,5087.0499,0.14856,0.03623,-0.00973
36.1249,5087.0699,0.13512,0.03867,0.00065
36.1434,5087.0899,0.07404,0.01546,0.01592
36.1651,5087.1099,0.02333,0.03378,0.02387
36.1946,5087.13,0.01356,0.02706,0.06174
36.2124,5087.15,-0.03103,-0.03646,0.06601
36.2301,5087.17,-0.06463,-0.06029,0.05807
36.251,5087.1901,-0.0744,-0.07434,0.05685
36.2704,5087.2101,-0.0744,-0.05174,0.10878
36.2879,5087.2301,-0.05119,-0.09572,0.18025
36.3049,5087.2501,-0.04203,-0.13359,0.19857
36.3257,5087.2701,-0.04142,-0.13909,0.21629
36.3514,5087.2901,-0.06219,-0.12748,0.24133
36.3755,5087.3101,-0.09395,-0.06456,0.30853
36.383,5087.3301,-0.07868,-0.0328,0.36595
36.4067,5087.3501,-0.02492,-0.0835,0.3745
36.423,5087.3701,0.02944,-0.13176,0.38122
36.4435,5087.3901,0.05815,-0.12076,0.34152
36.465,5087.4101,0.09297,-0.07739,0.31342
36.4935,5087.4301,0.19621,-0.089,0.3128
36.5188,5087.4501,0.28662,-0.14398,0.30975
36.5396,5087.4701,0.22187,-0.16963,0.23034
36.5432,5087.4901,0.17972,-0.11343,0.14543
36.569,5087.5101,0.173,0.02706,0.05563
36.5869,5087.5301,0.12657,0.23232,4e-05
36.6258,5087.5501,0.04166,0.26347,-0.07387
36.6317,5087.5701,0.04716,0.17795,-0.12641
36.6451,5087.5901,0.11496,0.05394,-0.12274
36.6623,5087.61,0.08564,0.02096,-0.08487
36.6812,5087.63,0.03861,0.04845,-0.07509
36.7031,5087.65,0.06732,0.11198,-0.10808
36.7256,5087.67,0.09358,0.10281,-0.12335
36.7423,5087.69,0.08076,-0.00714,-0.12763
36.7667,5087.71,0.01906,-0.10977,-0.12885
36.7857,5087.73,-0.08173,-0.089,-0.12641
36.8053,5087.75,-0.15504,-0.00959,-0.12213
36.8302,5087.77,-0.15137,0.01607,-0.10808
36.8494,5087.79,-0.12633,-0.00042,-0.10625
36.8667,5087.81,-0.11472,-0.06395,-0.17467
36.8898,5087.83,-0.13854,-0.089,-0.27912
36.9029,5087.85,-0.12877,-0.02608,-0.3225
36.9233,5087.87,-0.12205,0.05639,-0.29501
36.9447,5087.89,-0.07257,0.07349,-0.21254
36.963,5087.91,-0.02615,0.03989,-0.18688
36.9833,5087.93,0.05021,0.02401,-0.13985
37.0059,5087.95,0.12962,0.00385,-0.09037
37.0241,5087.97,0.12046,0.02951,-0.02867
37.0459,5087.99,0.07587,0.04906,0.02814
37.0681,5088.01,0.04105,0.08265,0.0428
37.0833,5088.0299,0.02944,0.08082,0.03608
37.1054,5088.0499,0.0099,-0.00165,0.02814
37.1315,5088.0699,0.00073,-0.02547,0.05563
37.1492,5088.0899,-0.02492,-0.05051,0.05807
37.1716,5088.1099,-0.01026,-0.02058,0.05991
37.1912,5088.1299,0.04533,0.01118,0.03547
37.2031,5088.1499,0.11985,0.03378,0.01043
37.224,5088.1699,0.19499,0.00813,0.03303
37.2445,5088.1899,0.19804,0.02462,0.0373
37.2632,5088.2099,0.13329,-0.00837,0.02997
37.2884,5088.2299,0.03189,0.01179,0.01348
37.3092,5088.2499,-0.01393,0.02096,0.0092
37.3431,5088.2699,-0.03531,0.02523,0.00432
37.364,5088.2899,0.0099,0.02523,0.03242
37.3743,5088.3099,0.08992,0.00141,0.07945
37.4051,5088.3299,0.13146,0.01363,0.11305
37.4079,5088.3499,0.11985,-0.01753,0.12221
37.428,5088.3699,0.07465,0.0008,0.10328
37.4437,5088.3899,-0.01332,0.06005,0.09045
37.4636,5088.41,-0.03348,0.10281,0.0935
37.4849,5088.43,-0.00293,0.0344,0.09961
37.504,5088.45,0.05754,-0.06395,0.09228
37.5242,5088.47,0.02456,-0.05907,0.04219
37.5493,5088.4901,-0.07624,0.03562,-0.0079
37.5665,5088.5101,-0.09456,0.08571,-0.01828
37.5878,5088.5301,-0.01271,0.07288,-0.03111
37.6117,5088.5502,0.09847,0.00691,-0.04211
37.6438,5088.5702,0.03677,0.00324,-0.04577
37.6598,5088.5902,-0.00599,0.06005,-0.00362
37.6706,5088.6102,-0.00354,0.09059,0.01043
37.684,5088.6303,0.016,0.05944,0.0373
37.7069,5088.6503,0.07037,0.00813,0.0593
37.7277,5088.6703,0.08381,-0.00531,0.0819
37.7453,5088.6904,0.02272,-0.00898,0.0819
37.7666,5088.7104,-0.03225,0.03501,0.09717
37.7881,5088.7304,-0.03164,0.02279,0.09289
37.8064,5088.7504,-0.00171,0.04295,0.06601
37.8247,5088.7705,0.027,0.02401,0.06174
37.8498,5088.7905,0.05388,-0.01081,0.0654
37.8676,5088.8105,0.02333,0.00019,0.03914
37.8882,5088.8306,-0.03958,0.05333,-0.01767
37.9162,5088.8506,-0.12388,0.0625,-0.02073
37.9392,5088.8706,-0.08235,0.01424,0.01592
37.9504,5088.8907,0.07892,-0.00653,0.06296
37.9772,5088.9107,0.06854,-0.04135,0.07579
37.991,5088.9308,-0.02798,-0.03646,0.0593
38.014,5088.9509,-0.06891,0.00263,0.0092
38.0276,5088.9709,-0.06524,0.00813,-0.0079
38.0448,5088.9909,-0.04753,-0.00409,-0.01156
38.0709,5089.0109,0.01295,-0.00837,-0.00179
38.0882,5089.031,0.08381,-0.02058,-0.00057
38.1056,5089.051,0.09969,-0.02242,-0.03233
38.1271,5089.071,0.00257,-0.02058,-0.04211
38.1483,5089.0911,-0.11411,0.01973,-0.00851
38.164,5089.1111,-0.10922,0.04478,0.0031
38.1909,5089.1311,-0.0292,0.03195,0.01715
38.2065,5089.1511,0.04105,-0.01203,0.06601
38.2281,5089.1712,0.07587,-0.02913,0.12466
38.2432,5089.1912,0.03128,-0.00837,0.13565
38.2657,5089.2112,-0.05791,0.03195,0.11061
38.2927,5089.2313,-0.05852,0.03501,0.07396
38.3134,5089.2513,0.03494,-0.01264,0.05807
38.3322,5089.2713,0.11558,-0.06273,0.02936
38.3442,5089.2913,0.11008,-0.04502,0.01287
38.3679,5089.3114,0.01539,0.00385,-0.04089
38.3991,5089.3314,-0.05608,0.02462,-0.11724
38.4115,5089.3514,-0.03287,0.03562,-0.16734
38.4266,5089.3715,0.00195,0.04722,-0.17467
38.4468,5089.3915,-0.00171,0.0124,-0.15512
38.4638,5089.4115,-0.00843,-0.04807,-0.13801
38.4869,5089.4315,0.01051,-0.0719,-0.10869
38.5058,5089.4516,0.00623,-0.0102,-0.07082
38.5258,5089.4716,-0.01332,-0.00287,-0.036
38.5451,5089.4917,0.00257,-0.00287,-0.02561
38.568,5089.5117,-0.00232,-0.02669,-0.02317
38.5859,5089.5317,-0.01637,-0.0499,-0.0079
38.6283,5089.5517,-0.00965,-0.0328,0.02081
38.631,5089.5718,-0.01637,-0.00348,0.0428
38.6433,5089.5918,-0.06035,0.01973,0.06052
38.664,5089.6118,-0.03897,0.01424,0.05502
38.6871,5089.6319,0.02944,-0.01814,0.0428
38.7057,5089.6519,0.10214,-0.02303,0.05441
38.7251,5089.6719,0.10336,0.03378,0.05502
38.7468,5089.6919,0.0441,0.06616,0.04525
38.7652,5089.712,0.01723,0.06921,0.04097
38.7901,5089.732,0.00806,0.02706,0.02142
38.8101,5089.752,0.027,0.01485,0.02448
38.831,5089.7721,0.06854,0.00141,0.02753
38.8482,5089.7921,0.08014,0.00935,0.00859
38.8713,5089.8121,0.01295,0.03684,-0.02867
38.8898,5089.8321,-0.07685,0.046,-0.04883
38.9094,5089.8522,-0.11594,0.00385,-0.05188
38.9358,5089.8722,-0.06035,-0.03158,-0.03539
38.9549,5089.8922,0.0496,-0.03341,-0.02439
38.9683,5089.9123,0.05754,-0.02669,-0.02623
38.9885,5089.9323,-0.0347,0.00141,-0.02012
39.0048,5089.9523,-0.10617,0.01118,-0.01645
39.0249,5089.9723,-0.09212,-0.03158,-0.03356
39.0484,5089.9924,0.00562,-0.03463,-0.04944
39.0692,5090.0124,0.06304,-0.04074,-0.05188
39.0872,5090.0324,-0.00049,-0.03158,0.00126
39.1106,5090.0525,-0.09517,-0.03585,0.03853
39.1304,5090.0724,-0.14465,-0.04746,0.0147
39.1516,5090.0924,-0.14832,-0.04318,0.00982
39.1752,5090.1124,-0.06096,-0.07067,0.05991
39.1942,5090.1324,0.05266,-0.11588,0.14909
39.2106,5090.1524,0.06243,-0.13359,0.2114
39.2285,5090.1724,0.05999,-0.08167,0.21812
39.245,5090.1924,0.03128,-0.0218,0.1778
39.2672,5090.2124,0.00195,0.02523,0.12771
39.2868,5090.2324,0.03861,-0.00409,0.09228
39.3074,5090.2524,0.13634,0.05639,0.03853
39.328,5090.2724,0.1394,0.02157,0.01837
39.3484,5090.2924,0.10702,-0.01081,0.04158
39.3803,5090.3124,0.08381,-0.02425,0.01837
39.3853,5090.3324,0.02333,0.00324,-0.02806
39.4094,5090.3524,0.027,0.05211,-0.07204
39.4248,5090.3724,0.09297,0.10159,-0.09098
39.4468,5090.3924,0.1394,0.08632,-0.08914
39.47,5090.4124,0.11069,0.02829,-0.10747
39.4849,5090.4324,0.05571,-0.01203,-0.16489
39.507,5090.4524,-0.01332,0.04295,-0.21071
39.528,5090.4724,-0.03958,0.10648,-0.19971
39.5453,5090.4923,-0.03348,0.06677,-0.1991
39.5668,5090.5123,-0.04325,-0.0102,-0.20399
39.5898,5090.5323,-0.04508,-0.05479,-0.19544
39.6079,5090.5523,-0.0909,-0.03708,-0.19727
39.6276,5090.5723,-0.1416,0.01546,-0.18261
39.6506,5090.5923,-0.11716,0.02157,-0.14718
39.6673,5090.6123,-0.03164,-0.02975,-0.10136
39.6895,5090.6323,-0.01393,-0.09266,-0.0977
39.7121,5090.6523,-0.108,-0.10305,-0.10319
39.7306,5090.6723,-0.16115,-0.02669,-0.07937
39.748,5090.6923,-0.14282,0.04478,-0.03539
39.7718,5090.7123,-0.05974,0.04661,-0.01279
39.7855,5090.7323,0.00134,0.01546,0.00126
39.8056,5090.7523,0.00928,-0.06945,0.02997
39.8281,5090.7723,0.016,-0.07373,0.08495
39.8504,5090.7923,0.02395,-0.02486,0.11122
39.8758,5090.8123,0.07404,0.01668,0.11733
39.8939,5090.8323,0.14978,0.03562,0.11366
39.9093,5090.8523,0.16933,-0.0383,0.10022
39.9291,5090.8723,0.12352,-0.05235,0.07457
39.9501,5090.8922,0.04655,-0.0328,0.00432
39.9676,5090.9122,-0.02859,0.04295,-0.05738
39.9901,5090.9322,-0.08357,0.0796,-0.05433
40.0166,5090.9522,-0.04997,0.05883,-0.03233
40.0282,5090.9722,-0.01332,-0.0047,-0.03111
40.0452,5090.9922,-0.02309,-0.01936,-0.03478
40.0671,5091.0122,-0.03225,-0.00165,-0.00851
40.0854,5091.0322,-0.04203,0.02706,0.0092
40.1111,5091.0522,-0.05486,0.05455,0.06357
40.1367,5091.0722,-0.01026,0.01179,0.10816
40.1482,5091.0923,0.04716,-0.03585,0.13871
40.1705,5091.1123,0.02761,-0.10671,0.08984
40.189,5091.1323,-0.03042,-0.07739,0.02325
40.2068,5091.1524,-0.0799,0.00385,0.01287
40.2325,5091.1724,-0.0799,0.06311,0.04586
40.2486,5091.1924,-0.01393,0.01118,0.04341
40.2652,5091.2124,0.05876,-0.02913,0.01715
40.2853,5091.2325,0.07648,-0.03402,-0.01095
40.3087,5091.2525,0.03861,0.00691,-0.00912
40.3258,5091.2725,-0.00415,0.046,-0.00362
40.3461,5091.2925,-0.00477,0.06433,-0.02317
40.374,5091.3126,-0.03592,0.05822,-0.05738
40.4029,5091.3326,-0.02859,0.00935,-0.04577
40.4077,5091.3526,0.01967,-0.00348,-0.00301
40.4267,5091.3727,0.06854,0.02096,0.03975
40.4458,5091.3927,0.04655,0.07593,0.04891
40.4653,5091.4127,-0.01148,0.05272,0.03792
40.493,5091.4327,-0.04936,0.03684,0.01776
40.5086,5091.4528,-0.01271,0.00935,0.01898
40.5263,5091.4728,0.03189,0.0124,0.0312
40.5476,5091.4928,0.01723,-0.01203,0.05197
40.57,5091.5129,-0.03103,-0.04441,0.04463
40.5924,5091.5329,-0.04875,-0.01753,0.02387
40.6441,5091.5529,-0.02309,-0.00898,0.00187
40.6467,5091.5729,-0.01148,0.00141,-0.01156
40.649,5091.593,-0.00843,-0.01264,-0.03356
40.6668,5091.613,0.016,-0.02058,-0.0305
40.6844,5091.633,0.04777,-0.00103,-0.03172
40.7046,5091.6531,0.02395,0.01485,-0.04944
40.7304,5091.6731,-0.03409,0.00691,-0.05677
40.7473,5091.6931,-0.08173,0.03928,-0.05494
40.7682,5091.713,-0.06463,0.02951,-0.03233
40.7875,5091.733,-0.02798,-0.00165,0.01165
40.8051,5091.753,-0.04997,-0.04135,0.01959
40.8284,5091.773,-0.13305,-0.04868,0.00676
40.8492,5091.793,-0.15504,-0.04563,-0.00423
40.8672,5091.813,-0.11778,-0.07739,-0.00546
40.8878,5091.833,-0.08173,-0.09205,-0.00668
40.9113,5091.853,-0.11716,-0.07556,-0.03783
40.9307,5091.873,-0.15321,-0.03097,-0.10136
40.9538,5091.893,-0.14526,-0.02119,-0.11541
40.9805,5091.913,-0.11472,-0.05296,-0.10075
40.9879,5091.933,-0.04875,-0.08533,-0.05494
41.0103,5091.953,0.01906,-0.09816,-0.02561
41.0368,5091.973,0.01784,-0.07556,0.00432
41.0502,5091.993,-0.07929,-0.08045,0.03242
41.0697,5092.013,-0.08784,-0.01081,0.03486
41.0902,5092.033,-0.04325,0.05211,4e-05
41.1078,5092.053,-0.02431,-0.00226,0.00187
41.1272,5092.073,-0.06341,-0.09694,-0.00668
41.1587,5092.093,-0.08173,-0.04257,-0.05127
41.1661,5092.1129,-0.12205,0.11992,-0.11053
41.1928,5092.1329,-0.10128,0.08021,-0.09281
41.2298,5092.1529,0.02761,0.02706,-0.0305
41.2381,5092.1729,0.08076,-0.05418,-0.01951
41.2492,5092.1929,-0.00782,-0.0554,-0.04761
41.268,5092.2129,-0.0628,-0.00103,-0.11786
41.2868,5092.2329,-0.0237,0.0344,-0.14718
41.3084,5092.2529,-0.00843,0.01607,-0.07876
41.3329,5092.2729,0.04838,-0.02547,0.00737
41.3493,5092.2929,0.12413,0.03501,0.00615
41.3916,5092.3129,0.09053,0.02645,-0.0134
41.395,5092.3329,-0.03531,-0.04013,-0.06104
41.4105,5092.3529,-0.04508,-0.02669,-0.06838
41.4259,5092.3729,0.0722,0.03684,-0.05921
41.4464,5092.3929,0.14001,0.04111,-0.02561
41.4648,5092.4129,0.13268,0.00568,0.01165
41.4891,5092.4329,0.06793,-0.03891,-0.00912
41.5104,5092.4529,0.00928,-0.02791,-0.08731
41.5345,5092.4729,-0.01637,-0.01753,-0.15512
41.5492,5092.4929,0.027,0.02462,-0.16184
41.5676,5092.5128,0.08564,-0.00409,-0.09098
41.5858,5092.5328,0.0722,-0.03524,-0.02378
41.6067,5092.5528,0.02333,-0.0328,-0.00607
41.6323,5092.5728,-0.01026,0.01302,-0.03905
41.6498,5092.5928,0.01051,0.00446,-0.03661
41.6687,5092.6128,0.08014,-0.00409,-0.02134
41.6912,5092.6328,0.10336,-0.01386,-0.00668
41.7156,5092.6528,0.05449,0.00019,-0.03356
41.7309,5092.6728,-0.01698,0.03256,-0.05616
41.748,5092.6928,-0.06585,0.057,-0.05921
41.7681,5092.7128,-0.06035,0.06677,-0.04944
41.7871,5092.7328,0.01173,0.0289,-0.0415
41.8106,5092.7528,0.038,-0.02852,-0.03172
41.8275,5092.7728,-0.02492,-0.02791,-0.05249
41.8462,5092.7928,-0.1025,0.03501,-0.06349
41.8717,5092.8128,-0.03653,0.03562,-0.02317
41.8859,5092.8328,0.05266,-0.00287,0.02264
41.907,5092.8528,0.09297,-0.0218,0.04586
41.9281,5092.8728,0.08748,0.01607,0.03303
41.9466,5092.8928,0.02761,-0.02119,-0.00851
41.9689,5092.9128,-0.00965,-0.0218,-0.02928
42.0006,5092.9327,0.00684,-0.01447,-0.07143
42.0081,5092.9527,0.05938,0.05578,-0.08914
42.0288,5092.9727,0.08503,0.04173,-0.02317
42.0495,5092.9927,0.11619,0.03806,0.0257
42.0689,5093.0127,0.08198,-0.00409,0.03486
42.0874,5093.0327,-0.0066,-0.01936,0.02692
42.1083,5093.0527,-0.09456,-0.01631,0.0031
42.1313,5093.0727,-0.06646,0.0124,-0.00607
42.1487,5093.0927,0.02211,-0.0047,0.01348
42.169,5093.1127,0.06976,-0.04868,0.03975
42.1859,5093.1327,0.05999,-0.09938,0.03669
42.2051,5093.1527,0.05693,-0.08595,0.01165
42.2315,5093.1727,0.03494,-0.02303,-0.02134
42.247,5093.1927,0.00562,0.05639,-0.03478
42.2727,5093.2127,0.01539,0.00202,-0.01828
42.2884,5093.2327,0.05571,-0.0554,-0.00362
42.3111,5093.2527,0.06121,-0.06518,-0.02134
42.3404,5093.2727,-0.02065,-0.03158,-0.04761
42.3546,5093.2927,-0.0683,0.02829,-0.02684
42.3669,5093.3127,-0.00477,0.0124,0.01531
42.3951,5093.3327,0.08014,-0.05479,0.02448
42.4135,5093.3526,0.06243,-0.07434,0.00798
42.4248,5093.3726,-0.02553,-0.02608,-0.0189
42.4443,5093.3926,-0.08479,0.00996,-0.036
42.4664,5093.4126,-0.05669,-0.00103,-0.0079
42.4845,5093.4326,0.0441,0.06555,0.02142
42.5049,5093.4526,0.11558,0.05639,0.00126
42.5272,5093.4726,0.06304,-0.00165,-0.036
42.5526,5093.4926,0.01234,-0.10733,-0.07693
42.5799,5093.5126,0.04655,-0.2069,-0.1429
42.5885,5093.5326,0.04227,-0.23011,-0.18139
42.6374,5093.5526,-0.03836,-0.12443,-0.14473
42.6409,5093.5726,-0.04936,-0.05051,-0.09709
42.6543,5093.5926,-0.03225,-0.01386,-0.10808
42.6637,5093.6126,-0.01271,0.00446,-0.1203
42.6842,5093.6326,-0.04753,-0.03891,-0.09525
42.7064,5093.6526,-0.10556,-0.12321,-0.09892
42.7272,5093.6726,-0.13671,-0.17391,-0.10869
42.7462,5093.6926,-0.19108,-0.12015,-0.08059
42.7666,5093.7126,-0.26499,-0.00531,-0.0696
42.7843,5093.7326,-0.20879,0.0405,-0.04333
42.805,5093.7525,-0.10373,-0.02058,-0.01156
42.8278,5093.7725,-0.05486,-0.08289,-0.01034
42.8467,5093.7925,-0.06891,-0.07373,-0.01218
42.867,5093.8125,-0.09884,-0.05357,-0.00362
42.8862,5093.8325,-0.08784,0.0289,0.00065
42.9076,5093.8525,-0.00782,0.07593,-0.01034
42.9258,5093.8725,0.06182,-0.00409,-0.00729
42.952,5093.8925,-0.02065,-0.06823,0.00798
42.9672,5093.9125,-0.18558,0.01485,-0.00912
42.9871,5093.9325,-0.17092,0.10403,-0.07143
43.0109,5093.9525,-0.06707,0.04845,-0.03295
43.0292,5093.9725,-0.0402,-0.03158,0.02509
43.0497,5093.9925,-0.03653,-0.00042,0.0312
43.0702,5094.0125,-0.08723,0.0179,-0.00973
43.0889,5094.0325,-0.14893,0.01668,-0.05677
43.1172,5094.0525,-0.13427,0.01912,-0.08487
43.1337,5094.0725,-0.12205,0.03256,-0.06227
43.1483,5094.0925,-0.08662,0.06188,-0.00301
43.1674,5094.1125,-0.02004,0.06494,0.01715
43.1873,5094.1325,0.01051,0.03378,-0.00118
43.205,5094.1525,-0.00354,0.00752,-0.02012
43.2278,5094.1724,-0.02676,0.00691,-0.04455
43.2507,5094.1924,-0.03592,0.06494,-0.01401
43.2673,5094.2124,0.00073,0.13824,0.01959
43.2892,5094.2324,0.06976,0.07655,0.03669
43.3192,5094.2524,0.08014,0.0405,0.03364
43.3352,5094.2724,0.01234,0.03562,0.02081
43.3545,5094.2924,-0.04203,0.04783,0.02387
43.3986,5094.3124,0.016,0.057,0.03425
43.4057,5094.3324,0.09114,0.03073,0.05868
43.4086,5094.3524,0.10824,-0.01325,0.07151
43.4281,5094.3724,0.04655,-0.03524,0.04769
43.4449,5094.3924,-0.0463,0.02279,0.01287
43.4666,5094.4124,-0.0909,0.04845,-0.00912
43.4881,5094.4324,-0.03775,0.06372,0.01653
43.5081,5094.4524,0.06976,0.0063,0.0373
43.5291,5094.4724,0.09786,-0.05968,0.01592
43.5498,5094.4925,0.01906,0.00202,-0.00973
43.5697,5094.5125,-0.04814,0.02584,-0.01401
43.5919,5094.5325,-0.03531,0.05516,-0.02623
43.6116,5094.5526,-0.00232,0.06188,-0.04822
43.6309,5094.5726,-0.03164,0.03623,-0.0641
43.6509,5094.5926,-0.04386,0.03989,-0.09953
43.6723,5094.6126,-0.06219,-0.00165,-0.11663
43.702,5094.6327,-0.14465,-0.03708,-0.14962
43.7123,5094.6527,-0.13427,0.00507,-0.16184
43.7291,5094.6727,0.00501,0.07471,-0.06104
43.7475,5094.6928,0.12596,0.04356,0.0147
43.7713,5094.7128,0.12779,-0.00959,0.04891
43.8004,5094.7328,0.08625,-0.05846,0.03303
43.8071,5094.7528,0.06243,-0.07312,0.02997
43.8301,5094.7729,0.04166,-0.06029,-0.00362
43.8493,5094.7929,0.05388,-0.03524,-0.00485
43.8661,5094.8129,0.09114,-0.01936,0.00554
43.8872,5094.8329,0.08564,-0.03646,-0.01279
43.914,5094.853,0.05205,-0.07984,-0.04394
43.9309,5094.873,0.05754,-0.09511,-0.04638
43.9559,5094.893,0.07159,-0.06762,-0.03844
43.9733,5094.9131,0.03066,0.03501,-0.01462
43.9866,5094.9331,0.03433,0.08815,-0.00301
44.0093,5094.9531,0.05571,0.0179,0.02142
44.0283,5094.9732,0.09053,-0.05296,0.02631
44.0458,5094.9932,-0.03714,-0.0719,-0.00851
44.0653,5095.0132,-0.10556,0.02462,-0.03295
44.0893,5095.0332,-0.07501,0.0625,0.00126
44.1093,5095.0533,-0.00171,0.01485,0.02081
44.129,5095.0733,0.06732,-0.04563,0.03853
44.1511,5095.0933,0.10641,-0.0157,0.04708
44.1669,5095.1134,0.09969,0.02401,0.03425
44.1901,5095.1334,0.02395,0.04111,0.00248
44.211,5095.1534,-0.03836,0.04967,-0.01584
44.2292,5095.1734,-0.0066,0.01179,-0.02073
44.2461,5095.1935,0.05205,0.00507,-0.00179
44.2744,5095.2135,0.00318,-0.03952,0.00187
44.287,5095.2335,-0.07807,0.02706,0.01898
44.3071,5095.2535,-0.04936,0.05883,0.01226
44.329,5095.2736,0.05327,-0.00042,0.02203
44.3464,5095.2936,0.00684,-0.07984,-0.00912
44.3668,5095.3136,-0.03164,-0.00714,-0.03295
44.391,5095.3337,0.02028,0.06433,-0.01584
44.4074,5095.3538,0.03677,0.01118,0.0312
44.428,5095.3738,0.00928,-0.05418,0.05746
44.4484,5095.3939,0.02822,-0.04807,0.05624
44.4729,5095.4139,-0.0011,-0.03158,0.03425
44.4894,5095.434,-0.07013,-0.02608,0.02203
44.5087,5095.4541,-0.05241,-0.03891,0.02814
44.5265,5095.4741,0.00745,-0.03158,0.04952
44.5523,5095.4942,-0.01698,-0.06395,0.03425
44.5734,5095.5143,-0.10373,-0.07006,-0.02684
44.617,5095.5343,-0.15993,-0.02242,-0.0586
44.6188,5095.5544,-0.11167,0.01302,-0.03172
44.6308,5095.5744,0.06671,-0.02303,0.01348
44.6466,5095.5945,0.05205,-0.0383,0.01776
44.6667,5095.6146,-0.03958,0.01179,-0.02561
44.6946,5095.6346,-0.11961,0.03378,-0.03111
44.7093,5095.6547,-0.04264,0.01424,0.00493
44.7361,5095.6747,0.14551,-0.01142,0.07212
44.7513,5095.6947,0.20293,-0.11466,0.10328
44.7697,5095.7147,0.05388,-0.08656,0.05013
44.7878,5095.7348,-0.08173,-0.01264,-0.00301
44.8111,5095.7548,-0.07868,0.03989,-0.00851
44.8286,5095.7748,-0.02004,0.00874,-0.01584
44.8487,5095.7949,0.05815,-0.02547,-0.00118
44.8734,5095.8149,0.08259,-0.05907,-0.0189
44.8931,5095.8349,-0.01576,0.0124,-0.05005
44.9294,5095.8549,-0.06463,0.04295,-0.06349
44.9366,5095.875,-0.00477,0.03562,-0.02684
44.9514,5095.895,0.03983,0.01607,0.01409
44.9699,5095.915,0.07465,-0.02119,0.01959
44.9935,5095.935,0.0606,-0.04196,0.00798
45.0105,5095.955,0.00257,-0.03952,0.00248
45.0288,5095.975,-0.03775,-0.0047,-0.01951
45.0528,5095.995,-0.04508,0.02462,-0.02317
45.0702,5096.015,-0.02431,-0.00837,0.01592
45.0922,5096.035,0.01356,-0.02608,0.04036
45.1132,5096.055,0.03738,-0.02975,0.03181
45.1496,5096.075,0.03433,-0.01936,0.02325
45.1536,5096.095,0.02395,0.00813,0.02631
45.1707,5096.115,0.01845,0.00202,0.02814
45.1889,5096.135,0.04655,0.01485,0.00982
45.2103,5096.155,0.06976,0.00996,0.01531
45.2405,5096.175,0.04471,-0.00287,0.02387
45.2501,5096.195,-0.01637,-0.00898,0.00432
45.2676,5096.2149,-0.04875,-0.00103,-0.0415
45.2915,5096.2349,-0.03897,0.01607,-0.04944
45.309,5096.2549,-0.02004,0.00324,0.00065
45.3294,5096.2749,-0.00293,-0.01814,0.05258
45.3501,5096.2949,0.03555,-0.03646,0.03853
45.3768,5096.3149,0.01784,-0.01753,-0.00423
45.391,5096.3349,-0.04081,0.00324,-0.02928
45.4108,5096.3549,-0.05302,0.02645,-0.02745
45.4268,5096.3749,-0.01026,0.01302,0.00493
45.4499,5096.3949,0.05082,-0.00775,0.00982
45.4682,5096.4149,0.04166,-0.03036,-0.00851
45.4872,5096.4349,0.00867,-0.00775,-0.01767
45.5112,5096.4549,0.00562,0.02584,-0.00607
45.5305,5096.4749,-0.0011,0.04722,-0.00607
45.5494,5096.4949,-0.0011,0.03134,-0.00851
45.5719,5096.5149,0.01906,-0.00103,0.00065
45.5957,5096.5349,0.03494,-0.04013,-0.0024
45.6133,5096.5549,0.027,-0.02791,-0.01218
45.6306,5096.5749,0.00745,0.00507,0.01165
45.6546,5096.5949,-0.00782,0.00446,0.01409
45.6863,5096.6148,-0.0066,-0.00531,-0.03233
45.699,5096.6348,0.01417,0.01118,-0.05555
45.712,5096.6549,0.05021,-0.01325,-0.00362
45.7339,5096.6749,0.0722,-0.0273,0.00615
45.7493,5096.6949,0.09114,0.03928,-0.00301
45.7735,5096.715,0.04288,0.02768,-0.05066
45.7896,5096.735,-0.0237,-0.01814,-0.07082
45.8105,5096.755,-0.03653,-0.04135,-0.03783
45.832,5096.775,0.00501,0.00568,-0.01706
45.8516,5096.7951,0.04716,0.03623,-0.00973
45.8769,5096.8151,0.01723,0.00568,0.00371
45.8964,5096.8351,-0.05486,-0.00898,-0.01828
45.9159,5096.8552,-0.06768,-0.02913,-0.03417
45.9386,5096.8752,-0.02798,-0.01753,-0.00973
45.9564,5096.8952,0.00745,-0.02242,0.01715
45.9712,5096.9152,0.07343,0.00141,0.02936
45.9925,5096.9353,0.06243,-0.0218,0.00798
46.0123,5096.9553,-0.04142,0.00691,-0.01034
46.0347,5096.9754,-0.02431,0.02462,-0.0024
46.0581,5096.9955,0.0441,0.03623,0.03914
46.0742,5097.0155,0.05754,0.00324,0.03975
46.0918,5097.0356,0.02028,-0.01692,0.00859
46.1101,5097.0556,0.00012,-0.00837,-0.0079
46.1341,5097.0757,0.00195,0.00385,-0.01095
46.1496,5097.0958,-0.01271,0.02584,0.01165
46.1772,5097.1158,0.00928,0.05822,0.03181
46.1938,5097.1359,0.07404,0.04722,0.02814
46.2136,5097.156,0.04899,-0.02242,0.01348
46.2335,5097.176,-0.02676,-0.04563,0.01043
46.2507,5097.1961,-0.04753,-0.00348,0.01165
46.2681,5097.2161,-0.00477,0.03623,0.02875
46.2901,5097.2362,0.06487,0.02584,0.03792
46.3104,5097.2562,0.09969,0.00935,0.05197
46.3306,5097.2763,0.06182,-0.01814,0.0538
46.3629,5097.2963,0.00073,-0.02425,-0.00179
46.3719,5097.3163,-0.01637,0.03501,-0.02806
46.3909,5097.3363,0.01845,0.03012,0.0092
46.4095,5097.3564,0.09175,0.01179,0.04525
46.4305,5097.3764,0.05021,-0.04196,0.02081
46.4481,5097.3964,-0.03531,0.01302,-0.03111
46.4724,5097.4165,-0.07379,0.01485,-0.03783
46.4913,5097.4365,-0.03592,0.03073,0.00432
46.5083,5097.4565,0.04716,-0.00226,0.06052
46.5294,5097.4765,0.07343,-0.02425,0.05441
46.5515,5097.4966,0.00684,-0.02425,-0.00668
46.575,5097.5166,-0.0402,-0.00226,-0.02317
46.588,5097.5366,-0.02859,-0.0047,-0.00729
46.6188,5097.5566,-0.02065,0.00568,-0.0024
46.6313,5097.5766,-0.0066,0.0124,-0.01401
46.648,5097.5966,0.05449,0.00691,0.00126
46.6704,5097.6166,0.09175,-0.04502,0.00493
46.6895,5097.6366,0.01967,-0.07373,-0.02073
46.708,5097.6566,-0.07624,0.02768,-0.02684
46.7306,5097.6766,-0.06646,0.05516,-0.03478
46.7483,5097.6966,0.02089,0.00752,-0.02134
46.7703,5097.7166,0.09053,-0.06701,0.00248
46.7926,5097.7366,0.07709,-0.04685,0.02081
46.8114,5097.7566,-0.01271,0.00935,0.01531
46.8322,5097.7766,-0.05547,0.06066,-0.01279
46.8529,5097.7966,0.01539,0.01485,-0.01401
46.8704,5097.8166,0.06365,0.00324,0.00982
46.8919,5097.8365,0.06243,-0.03036,0.02509
46.9179,5097.8565,0.03311,0.00141,0.01348
46.9341,5097.8765,-0.03103,0.05761,4e-05
46.954,5097.8965,-0.03348,0.0515,-0.00729
46.9756,5097.9165,0.00501,-0.01631,-0.01462
46.9935,5097.9365,0.04349,-0.04013,-0.00546
47.0198,5097.9565,0.0496,0.0063,0.0147
47.0392,5097.9765,0.01356,0.03745,0.01776
47.051,5097.9965,-0.07196,0.0344,-0.02439
47.0733,5098.0165,-0.0683,-0.02425,-0.05616
47.0918,5098.0365,-0.04569,-0.01631,0.00615
47.1106,5098.0565,-0.01515,0.00141,0.0373
47.1305,5098.0765,0.02822,0.0179,0.04463
47.1533,5098.0965,0.06182,0.00691,0.02875
47.1731,5098.1165,0.00257,0.0063,-0.01156
47.1916,5098.1365,-0.03103,-0.00165,-0.0079
47.2297,5098.1565,0.01417,-0.00226,0.0257
47.2447,5098.1765,0.08564,-0.00775,0.03242
47.2584,5098.1965,0.05815,0.01363,-0.00485
47.2846,5098.2165,0.00257,-0.00165,-0.02745
47.2934,5098.2365,-0.00293,-0.0047,-0.02745
47.3131,5098.2564,0.01539,-0.00775,-0.0305
47.3361,5098.2764,0.03433,0.01851,-0.03417
47.3517,5098.2964,0.05021,0.06494,-0.01523
47.3746,5098.3164,0.07831,0.05394,0.00432
47.3942,5098.3364,0.0887,-0.02975,0.01531
47.409,5098.3564,0.00501,-0.06945,-0.02623
47.4298,5098.3764,-0.12511,-0.05785,-0.05249
47.4508,5098.3964,-0.13305,0.02401,-0.07448
47.4708,5098.4164,-0.03225,0.0234,-0.0812
47.4905,5098.4364,0.04227,-0.0328,-0.07143
47.5139,5098.4564,0.03555,-0.0328,-0.05494
47.5304,5098.4764,0.00134,-0.0157,-0.05371
47.5597,5098.4964,-0.00843,-0.01997,-0.07143
47.5739,5098.5164,-0.03592,-0.00653,-0.07265
47.5916,5098.5364,-0.01637,-0.01508,-0.06288
47.611,5098.5564,0.02639,-0.05174,-0.03905
47.6347,5098.5764,0.09053,-0.0383,-0.04089
47.6529,5098.5964,0.07159,-0.03341,-0.05677
47.6791,5098.6164,0.01906,-0.00775,-0.05555
47.6923,5098.6364,-0.03042,0.01546,-0.05555
47.7095,5098.6564,-0.03653,0.03317,-0.03172
47.73,5098.6764,0.04471,0.00874,-0.02684
47.7541,5098.6964,0.11619,-0.04746,-0.04333
47.7731,5098.7163,0.05082,-0.10244,-0.04883
47.7946,5098.7363,-0.03225,-0.03646,-0.07571
47.8218,5098.7563,-0.04814,0.03256,-0.0586
47.8426,5098.7763,-0.04325,0.04356,-0.02623
47.859,5098.7963,0.02211,-0.02425,-0.00118
47.8718,5098.8163,0.08931,-0.09328,0.01592
47.8909,5098.8363,0.08137,-0.10061,0.0031
47.9158,5098.8563,-0.02187,-0.03585,-0.04761
47.942,5098.8763,-0.07318,0.05455,-0.06227
47.9518,5098.8963,-0.04081,0.06921,-0.0134
47.9728,5098.9163,0.03555,-0.0102,0.01898
47.9938,5098.9363,0.06548,-0.07373,0.01653
48.0104,5098.9563,0.0044,-0.05723,-0.02684
48.0352,5098.9763,-0.07135,0.02401,-0.05677
48.061,5098.9963,-0.09334,0.07105,-0.03172
48.0818,5099.0163,-0.03409,0.04111,-0.0079
48.0944,5099.0363,0.07953,-0.0328,0.00248
48.114,5099.0563,0.11924,-0.03585,0.01409
48.1302,5099.0763,0.04349,-0.00775,0.00554
48.1533,5099.0963,-0.0799,0.05333,-0.02989
48.1734,5099.1162,-0.10861,0.04906,-0.03417
48.194,5099.1362,-0.04569,0.02584,-0.00607
48.2107,5099.1562,0.05143,0.03684,0.00798
48.2316,5099.1762,0.09419,-0.01631,-0.00118
48.249,5099.1962,0.07281,-0.04502,-0.00912
48.2715,5099.2162,-0.01148,-0.01692,-0.03417
48.2934,5099.2362,-0.04386,0.04417,-0.04883
48.3146,5099.2562,-0.00782,0.06799,-0.03661
48.3422,5099.2762,0.06671,0.01546,-0.03966
48.3585,5099.2962,0.09358,-0.07251,-0.06288
48.3799,5099.3162,0.04227,-0.08289,-0.06227
48.394,5099.3362,-0.05119,-0.02303,-0.0586
48.4135,5099.3562,-0.05608,0.057,-0.05555
48.4297,5099.3762,-0.00049,0.02279,-0.04455
48.4494,5099.3963,0.038,-0.07067,-0.01218
48.4707,5099.4163,0.04471,-0.08228,-0.00485
48.4898,5099.4363,-0.01271,0.0008,-0.03111
48.5102,5099.4564,-0.12938,0.03073,-0.0305
48.5307,5099.4764,-0.12083,0.01729,-0.01951
48.5498,5099.4964,-0.01698,-0.01081,-0.00973
48.5765,5099.5164,0.05571,-0.0218,4e-05
48.6076,5099.5365,0.03189,-0.05601,-0.0079
48.6157,5099.5565,-0.04142,-0.03891,-0.00607
48.6726,5099.5766,-0.05119,-0.00714,-0.00912
48.6747,5099.5966,0.01173,-0.03219,4e-05
48.6774,5099.6167,0.03983,0.01607,0.01531
48.694,5099.6367,0.00745,0.00568,0.02387
48.7108,5099.6568,-0.03531,-0.04196,0.00065
48.7296,5099.6769,-0.03348,-0.00959,0.02875
48.749,5099.6969,0.03189,0.00324,0.0092
48.772,5099.717,0.07892,-0.02852,0.02264
48.79,5099.7371,0.09419,-0.05785,0.04525
48.8119,5099.7571,0.10519,-0.00653,0.0031
48.8317,5099.7772,0.10886,0.08815,-0.036
48.8508,5099.7972,0.04288,0.07044,-0.0305
48.8732,5099.8173,-0.05119,0.05639,-0.03295
48.8941,5099.8374,-0.07685,0.05455,-0.06043
48.9119,5099.8574,-0.09456,-0.01997,-0.03356
48.934,5099.8775,-0.11961,-0.09877,-0.00851
48.9589,5099.8976,-0.12083,-0.0499,-0.04516
48.9782,5099.9176,-0.07868,-0.01264,-0.03233
48.9913,5099.9377,-0.02309,-0.07006,0.06357
49.0129,5099.9577,0.04227,-0.11649,0.16131
49.0317,5099.9777,0.07404,-0.12076,0.10878
49.055,5099.9978,0.14856,-0.00837,0.04891
49.0769,5100.0178,0.22553,0.1022,0.05441
49.0954,5100.0378,0.20293,0.09182,0.07518
49.1152,5100.0578,0.10091,0.05944,0.07151
49.1385,5100.0779,0.02028,0.02157,0.02814
49.1531,5100.0979,0.00867,0.03806,0.00554
49.1735,5100.1179,0.038,0.08388,-0.01645
49.1994,5100.138,0.01478,0.09121,-0.0079
49.2169,5100.158,0.02395,0.03623,0.01043
49.2368,5100.178,0.04166,0.01485,0.03058
49.2565,5100.198,0.0441,0.01912,0.04097
49.2741,5100.218,0.0441,0.01179,0.04586
49.2917,5100.238,0.07159,0.04967,0.02936
49.3115,5100.258,0.08809,0.04661,0.01837
49.3327,5100.278,0.04471,0.03867,-0.0079
49.3506,5100.2979,0.00318,0.04661,-0.02378
49.3746,5100.3179,0.01661,0.02951,-0.02684
49.4035,5100.3379,0.0722,0.00202,-0.025
49.4112,5100.3579,0.11252,-0.06151,-0.00912
49.4315,5100.3779,0.11191,-0.07739,-0.01095
49.4519,5100.3979,0.04166,-0.02547,-0.02745
49.4722,5100.4179,-0.0518,0.0344,-0.03722
49.4924,5100.4379,-0.07501,0.03623,-0.02989
49.5097,5100.4579,-0.00904,-0.01142,0.00493
49.5307,5100.4779,0.07831,-0.02852,0.01837
49.553,5100.4979,-0.00171,-0.01203,0.00859
49.571,5100.5179,-0.05608,0.05639,0.02936
49.6025,5100.5379,-0.03042,0.04661,0.03058
49.6221,5100.5579,-0.01454,-0.00165,0.02448
49.6373,5100.5779,0.0044,-0.0102,0.01776
49.6558,5100.5979,0.01906,0.01424,0.02875
49.6753,5100.6179,0.04594,0.01179,0.0312
49.6922,5100.6379,0.01295,-0.01447,0.02387
49.7129,5100.6579,-0.03592,0.01668,0.01348
49.7351,5100.6779,-0.05363,0.04906,0.02814
49.7534,5100.6978,-0.02065,0.0234,0.03486
49.7756,5100.7178,0.027,-0.01997,0.01165
49.7966,5100.7378,0.05388,0.0008,0.00982
49.8139,5100.7578,0.06793,0.00446,0.02203
49.835,5100.7778,0.02456,-0.01508,0.0092
49.8557,5100.7978,-0.02615,0.00263,-0.025
49.8802,5100.8178,-0.03409,0.05272,-0.03722
49.894,5100.8378,0.01967,0.03195,-0.01584
49.9175,5100.8578,0.07159,-0.0047,0.0031
49.938,5100.8778,0.05388,-0.03463,-0.0415
49.9604,5100.8978,-0.03042,0.01302,-0.09342
49.9844,5100.9178,-0.09578,0.09487,-0.10564
49.9924,5100.9378,-0.0518,0.04356,-0.06288
50.0124,5100.9578,0.02639,-0.01081,-0.01462
50.0332,5100.9778,0.08625,-0.10183,0.02081
50.0501,5100.9978,0.04166,-0.09205,0.03058
50.0732,5101.0178,-0.05852,-0.02364,0.03181
50.0984,5101.0378,-0.09578,-0.03463,0.05685
50.1104,5101.0578,-0.03042,-0.10916,0.07579
50.132,5101.0778,0.07587,-0.14153,0.06174
50.152,5101.0978,0.16444,-0.03097,0.03242
50.1695,5101.1178,0.09603,0.00446,0.02387
50.2086,5101.1377,-0.00171,-0.11771,0.02203
50.2215,5101.1577,0.00073,-0.24599,-0.03783
50.2416,5101.1777,0.14367,-0.31135,-0.10564
50.2523,5101.1977,0.24874,-0.17513,-0.13618
50.274,5101.2177,0.18521,-0.03952,-0.11724
50.2927,5101.2377,-0.02126,0.0515,-0.0641
50.3246,5101.2577,-0.07624,0.0405,-0.05127
50.3356,5101.2777,-0.10311,-0.04685,-0.08426
50.3513,5101.2977,-0.10128,-0.00042,-0.02745
50.3784,5101.3177,-0.02065,0.02096,0.09534
50.4011,5101.3377,0.09419,-0.06823,0.1271
50.4112,5101.3577,0.04471,-0.14031,0.06235
50.4297,5101.3777,-0.04203,-0.04074,0.03058
50.4515,5101.3977,-0.07318,0.01546,0.0538
50.4704,5101.4177,-0.02553,0.03562,0.08251
50.4912,5101.4377,-0.0011,-0.01142,0.02631
50.5166,5101.4577,0.01051,-0.05296,-0.06593
50.5312,5101.4777,0.01845,-0.05662,-0.0867
50.5509,5101.4977,0.01356,0.02706,-0.06349
50.581,5101.5176,0.00134,0.09304,-0.07571
50.5959,5101.5376,0.01539,0.0796,-0.047
50.6259,5101.5576,0.08076,-0.02242,0.02692
50.6352,5101.5776,0.12779,-0.07128,0.07457
50.6513,5101.5976,0.10397,-0.02791,0.04708
50.6713,5101.6176,-0.02553,0.06311,-0.01095
50.6918,5101.6376,-0.06463,0.08815,-0.01279
50.715,5101.6576,-0.02126,0.01485,-0.01706
50.736,5101.6776,0.04838,-0.04624,-0.03417
50.7526,5101.6976,0.07037,-0.01386,0.00248
50.7694,5101.7176,0.03861,0.01118,0.03975
50.7906,5101.7376,-0.00599,0.05639,0.01653
50.8118,5101.7576,-0.04814,0.03928,-0.03356
50.8308,5101.7776,-0.02431,0.0008,-0.05005
50.8505,5101.7976,0.01539,-0.04135,-0.02623
50.8747,5101.8176,0.03005,-0.0273,0.00065
50.8924,5101.8376,0.01723,0.03073,0.00065
50.9203,5101.8576,-0.02676,0.02829,-0.01767
50.9398,5101.8776,-0.04814,-0.00898,-0.01767
50.954,5101.8976,-0.00782,-0.04135,-0.01279
50.9748,5101.9176,0.02822,-0.01386,-0.00851
50.9966,5101.9375,0.0099,-0.00103,0.01653
51.0191,5101.9575,-0.02676,0.04356,0.03364
51.0388,5101.9775,0.00134,0.0063,0.01531
51.0535,5101.9975,0.06426,-0.01081,0.01287
51.0717,5102.0175,0.05571,-0.01631,0.04647
51.0951,5102.0376,0.01417,0.00996,0.06846
51.1176,5102.0576,0.02639,0.01363,0.03425
51.1367,5102.0776,0.06243,0.02096,0.00065
51.1554,5102.0976,0.02456,-0.0383,0.02936
51.1783,5102.1177,-0.03225,0.00935,0.04891
51.2057,5102.1377,-0.03287,0.05578,0.01776
51.2157,5102.1577,0.00318,0.01973,0.00371
51.2349,5102.1778,0.03433,-0.07006,-0.02989
51.2532,5102.1978,0.03616,-0.0499,-0.02867
51.2754,5102.2178,0.02211,-0.00103,-0.00546
51.2937,5102.2378,-0.01026,0.0234,-0.01095
51.313,5102.2579,-0.00599,0.00202,-0.01095
51.3372,5102.2779,0.03494,-0.01631,-0.00973
51.354,5102.2979,0.0777,-0.01264,0.02142
51.3868,5102.318,0.04777,-0.00775,0.04341
51.3932,5102.338,-0.00538,-0.01081,0.01592
51.4161,5102.358,-0.02492,0.0124,-0.00118
51.4311,5102.378,0.00134,-0.01203,0.00371
51.4508,5102.3981,0.03555,-0.00898,0.0031
51.4725,5102.4181,0.02761,-0.00898,-0.00118
51.4909,5102.4381,0.02639,0.01057,0.00554
51.5159,5102.4582,0.01478,-0.00348,0.00859
51.5357,5102.4782,0.01784,-0.02364,-0.01034
51.5521,5102.4982,0.01784,-0.00898,-0.01523
51.5731,5102.5182,-0.00599,0.02035,-0.02561
51.5937,5102.5383,-0.02615,-0.00165,-0.03111
51.6122,5102.5583,-0.00599,-0.04685,-0.00912
51.6353,5102.5783,0.01234,0.02462,-0.01095
51.6556,5102.5984,-0.02248,0.05028,0.00065
51.6733,5102.6184,-0.0292,0.03073,0.02081
51.6948,5102.6384,-0.00904,0.00446,0.01776
51.7178,5102.6584,-0.02187,0.00202,-0.02195
51.7342,5102.6784,-0.03348,0.0063,-0.03783
51.7555,5102.6984,-0.0237,-0.03646,-0.01828
51.7737,5102.7184,-0.00721,-0.04746,0.0147
51.7955,5102.7384,-0.00843,-0.03463,0.01043
51.8128,5102.7583,-0.03653,0.03256,-0.01523
51.8342,5102.7783,-0.0628,0.0179,-0.0305
51.8525,5102.7983,-0.03897,-0.03585,-0.02195
51.8731,5102.8183,0.02089,-0.05357,-0.00485
51.8966,5102.8383,0.0606,0.00202,0.01348
51.9159,5102.8583,0.01906,0.03134,0.02081
51.9337,5102.8783,0.0044,0.0405,-0.00485
51.9621,5102.8983,0.03555,-0.00775,-0.02134
51.9796,5102.9183,0.05754,-0.03097,-0.02684
51.9918,5102.9383,0.04349,0.02523,-0.02928
52.0158,5102.9583,-0.00538,0.03684,-0.0305
52.0335,5102.9783,-0.0292,0.01668,-0.02256
52.0599,5102.9983,-0.03042,-0.04746,-0.02684
52.0748,5103.0183,-0.01943,-0.0609,-0.00057
52.0918,5103.0383,-0.01576,-0.00531,0.03181
52.125,5103.0583,-0.00599,0.00324,0.04647
52.1349,5103.0783,-0.04569,-0.05907,0.02753
52.1543,5103.0983,-0.06463,-0.04807,0.01592
52.173,5103.1183,-0.04569,0.00996,0.01043
52.1958,5103.1383,-0.03958,0.03134,-0.00362
52.2106,5103.1583,-0.00843,0.02706,-0.0024
52.2306,5103.1782,0.03311,-0.01081,-0.04455
52.2522,5103.1982,0.04227,-0.02547,-0.05494
52.2727,5103.2182,-0.0066,-0.01814,-0.04455
52.2904,5103.2382,-0.0573,0.01668,-0.02439
52.3132,5103.2582,-0.0292,0.06433,0.00187
52.3316,5103.2782,0.016,0.04661,0.04586
52.3515,5103.2982,0.04105,-0.04441,0.07762
52.3731,5103.3182,0.01478,-0.08411,0.05258
52.3939,5103.3382,-0.02248,-0.03097,0.01715
52.4112,5103.3582,-0.04386,0.03806,0.00737
52.4322,5103.3782,-0.05058,0.03928,0.03058
52.4517,5103.3982,0.02395,-0.02913,0.01959
52.4721,5103.4182,0.08625,-0.01753,-0.00118
52.492,5103.4382,0.04716,-0.00837,-0.01218
52.51,5103.4582,-0.03775,0.01546,-0.03356
52.5315,5103.4782,-0.08662,0.00813,-0.04883
52.5516,5103.4982,-0.04569,0.01546,-0.036
52.5763,5103.5182,0.03861,0.01057,-0.01951
52.5942,5103.5382,0.09786,-0.00287,0.01653
52.6352,5103.5582,0.05388,-0.01508,0.02997
52.6378,5103.5782,-0.03348,-0.04929,0.02814
52.6517,5103.5981,-0.03287,-0.02547,0.01409
52.6721,5103.6181,-0.01637,-0.01386,-0.00301
52.6901,5103.6381,0.01845,0.00263,0.0092
52.7121,5103.6581,0.06548,-0.01386,-0.00057
52.7355,5103.6781,0.01356,-0.04135,-0.02561
52.757,5103.6981,-0.03836,-0.02486,-0.04944
52.7735,5103.7181,-0.02737,-0.01386,-0.04883
52.7957,5103.7381,0.027,0.01363,-0.03966
52.8117,5103.7581,0.04838,-0.01325,-0.02256
52.8316,5103.7781,-0.00049,-0.05296,-0.01462
52.8532,5103.7981,-0.05913,-0.03646,-0.02745
52.8709,5103.8181,-0.05791,-0.01325,-0.02439
52.8945,5103.8381,-0.02431,0.03134,0.01776
52.9164,5103.8581,0.02089,0.01118,0.05685
52.9389,5103.8781,0.0496,-0.02364,0.05746
52.9551,5103.8981,0.01539,-0.01875,0.04769
52.9768,5103.9181,-0.02065,-0.00226,0.02387
52.995,5103.9381,-0.05058,0.00324,-0.01401
53.013,5103.9581,-0.00599,0.00752,-0.01156
53.0369,5103.9781,0.09297,0.01912,0.02387
53.0614,5103.998,0.10886,-0.0102,0.04402
53.073,5104.018,-0.00171,-0.01142,0.00615
53.0936,5104.038,-0.05791,-0.02975,-0.047
53.1132,5104.058,-0.02126,0.00385,-0.02195
53.1325,5104.078,0.02578,0.0008,0.01592
53.1537,5104.098,0.0496,-0.00348,0.05807
53.1835,5104.118,0.02822,0.0063,0.0593
53.195,5104.138,-0.0066,-0.02364,0.01409
53.2155,5104.158,-0.03714,-0.02486,-0.01645
53.2345,5104.178,-0.02492,0.01668,-0.01095
53.2541,5104.198,0.00867,0.02645,0.02264
53.2736,5104.2181,0.01295,0.00324,0.03608
53.2933,5104.2381,0.00562,0.03012,0.03608
53.3194,5104.2581,-0.00782,0.0289,-0.00301
53.3517,5104.2781,-0.00599,-0.00714,-0.01828
53.3561,5104.2982,0.00073,-0.02669,0.01043
53.3744,5104.3182,0.00379,0.00996,0.04769
53.3951,5104.3382,0.02578,0.03012,0.03486
53.4133,5104.3583,0.00318,0.00568,-0.00301
53.4316,5104.3783,-0.02553,-0.01386,-0.01095
53.4523,5104.3983,-0.01637,-0.00592,0.00371
53.4726,5104.4183,0.02089,0.04722,0.01104
53.491,5104.4384,0.04227,0.00568,0.00065
53.5132,5104.4584,0.01234,-0.0273,-0.02073
53.5326,5104.4784,-0.01698,0.00446,-0.0305
53.5521,5104.4985,-0.02004,0.02706,-0.01951
53.5792,5104.5185,-0.0121,0.02523,0.00859
53.6018,5104.5385,0.01661,0.0124,0.02814
53.6135,5104.5585,0.05021,-0.00531,0.01531
53.6349,5104.5786,0.02883,-0.00592,0.02264
53.651,5104.5986,-0.01148,-0.0102,0.03242
53.675,5104.6186,-0.0347,0.00752,0.03547
53.6953,5104.6387,-0.01148,0.04722,0.02692
53.7358,5104.6587,0.01845,0.02768,0.01287
53.7426,5104.6787,0.038,-0.01997,-0.00546
53.7559,5104.6987,-0.00232,-0.03585,-0.01645
53.7745,5104.7188,-0.03592,0.01302,-0.02806
53.7911,5104.7388,-0.00843,0.05516,-0.03844
53.8126,5104.7588,0.03372,0.02218,-0.02989
53.8311,5104.7789,0.03128,-0.03036,0.02081
53.8523,5104.7988,0.02395,-0.03891,0.02142
53.8773,5104.8188,-0.02309,0.00263,-0.04394
53.8957,5104.8388,-0.0463,0.0234,-0.02073
53.9173,5104.8588,0.00195,-0.01386,0.03425
53.9389,5104.8788,0.05143,-0.03402,0.05502
53.9576,5104.8988,0.01723,-0.03036,0.0031
53.976,5104.9188,-0.02798,0.00263,-0.01645
53.9983,5104.9388,-0.02737,-0.00103,-0.01279
54.037,5104.9588,-0.00049,0.0063,-0.00485
54.0406,5104.9788,0.03616,0.00935,-0.00973
54.0628,5104.9988,0.03677,0.00324,-0.0189
54.0752,5105.0188,-0.00843,-0.02425,-0.036
54.0917,5105.0388,-0.01576,-0.00165,-0.03966
54.1145,5105.0588,-0.01271,0.03256,-0.03356
54.1346,5105.0788,-0.02187,0.06921,-0.00851
54.157,5105.0988,0.0044,0.01729,0.01348
54.1739,5105.1188,0.0661,-0.02242,0.03914
54.1992,5105.1388,0.0722,-0.02608,0.0257
54.2132,5105.1588,0.00073,0.00324,0.00676
54.2334,5105.1788,-0.02248,0.0405,0.00676
54.253,5105.1988,0.02578,0.01668,0.02509
54.2739,5105.2187,0.0496,-0.02913,0.02692
54.294,5105.2387,0.02089,-0.02852,-0.01095
54.3155,5105.2587,-0.00415,-0.00775,-0.0305
54.3407,5105.2787,-0.01087,0.05944,-0.0134
54.3567,5105.2987,-0.00538,0.06188,-0.00301
54.3769,5105.3187,0.03066,0.0179,0.03303
54.3931,5105.3387,0.06182,-0.02364,0.03792
54.4142,5105.3587,0.02456,-0.03891,0.00187
54.4308,5105.3787,-0.00965,-0.00531,-0.03966
54.4504,5105.3987,-0.02859,0.02645,-0.01401
54.4744,5105.4187,-0.0237,0.03867,0.01776
54.4904,5105.4387,0.03311,0.01851,0.02875
54.5113,5105.4587,0.10763,0.0008,0.0257
54.5323,5105.4787,0.09114,-0.05235,0.00126
54.5553,5105.4987,-0.00538,-0.03708,-0.00973
54.5748,5105.5187,-0.04936,0.03378,-0.02623
54.5967,5105.5387,-0.01087,0.05944,-0.02073
54.615,5105.5587,0.05693,0.03317,0.03058
54.6551,5105.5787,0.03189,-0.01814,0.03669
54.6598,5105.5987,-0.03958,-0.03402,-0.00973
54.6719,5105.6186,-0.05852,-0.01081,-0.03478
54.6923,5105.6386,-0.01454,0.03256,0.01348
54.7155,5105.6586,-0.00171,0.03256,0.03792
54.7289,5105.6786,0.01173,0.02523,0.02692
54.75,5105.6986,0.03983,-0.00837,0.0257
54.7726,5105.7186,0.02944,-0.04135,0.04036
54.7911,5105.7386,-0.01271,-0.0273,0.02081
54.8116,5105.7586,-0.04264,0.02157,-0.00851
54.838,5105.7786,-0.01943,0.05394,-0.0024
54.8538,5105.7986,0.02456,0.02523,0.03425
54.8741,5105.8186,0.06426,-0.00103,0.06174
54.8937,5105.8386,0.04166,-0.0218,0.04463
54.9154,5105.8586,-0.01026,0.02706,0.02936
54.9357,5105.8786,-0.02859,0.02462,0.02936
54.9552,5105.8986,-0.0292,0.01607,0.03303
54.9745,5105.9186,-0.00293,-0.00898,0.00982
54.996,5105.9386,0.06732,0.01302,-0.00301
55.0179,5105.9586,0.06548,-0.01081,-0.0024
55.0353,5105.9786,0.05449,-0.02425,0.01715
55.0552,5105.9986,0.02578,-0.00165,0.02387
55.0838,5106.0186,-0.01271,0.02645,-0.02256
55.0991,5106.0385,-0.04142,0.00874,-0.02439
55.114,5106.0585,-0.0011,0.01424,0.01104
55.1352,5106.0785,0.06243,0.00141,0.04097
55.1521,5106.0985,0.05327,-0.01508,0.04036
55.1765,5106.1185,-0.02676,0.02584,0.01959
55.1939,5106.1385,-0.02737,0.04783,0.01165
55.2132,5106.1585,0.00562,0.00385,0.00371
55.2302,5106.1785,0.04471,-0.03463,-0.01523
55.2524,5106.1985,0.05082,-0.01814,-0.00668
55.2705,5106.2185,0.02639,0.05578,-0.00118
55.2908,5106.2385,0.01112,0.06311,0.01409
55.3111,5106.2585,-0.02187,-0.01203,0.01592
55.3296,5106.2785,-0.0463,-0.03891,0.01043
55.3603,5106.2985,-0.01271,-0.00287,0.00371
55.3797,5106.3185,0.04288,0.0289,0.02264
55.3921,5106.3385,0.04533,0.0008,0.04097
55.4127,5106.3585,0.04044,-0.01692,0.05624
55.4361,5106.3786,0.01295,-0.01508,0.05807
55.4511,5106.3986,-0.01454,-0.00837,0.03853
55.4727,5106.4186,-0.0121,-0.01814,0.01348
55.4938,5106.4387,0.00318,-0.03646,0.02631
55.5112,5106.4587,0.00806,-0.02303,0.0257
55.5353,5106.4787,0.01356,-0.00103,0.02387
55.5593,5106.4987,0.02333,-0.01997,0.01898
55.5766,5106.5188,0.01906,-0.04441,-0.0024
55.5961,5106.5388,0.01112,-0.05296,-0.06043
55.6175,5106.5588,0.00623,-0.00287,-0.06593
55.6323,5106.5789,-0.00721,0.03562,-0.03233
55.6533,5106.5989,-0.00477,0.04783,0.01043
55.679,5106.6189,0.05205,0.00507,0.01837
55.703,5106.6389,0.03616,-0.05113,-0.00423
55.7203,5106.659,-0.01637,-0.05907,-0.03295
55.7379,5106.679,-0.02187,0.01729,-0.02928
55.7526,5106.6991,-0.01698,0.0515,-0.00301
55.7728,5106.7192,-0.00843,0.02096,0.00982
55.7951,5106.7392,0.03372,-0.05968,0.00554
55.813,5106.7593,0.04716,-0.07678,-0.02073
55.8332,5106.7793,0.00867,-0.03402,-0.04089
55.8545,5106.7994,-0.05425,0.03867,-0.03905
55.8729,5106.8195,-0.05669,0.07899,-0.01828
55.8931,5106.8395,0.00867,0.01546,0.02936
55.914,5106.8596,0.08137,-0.078,0.08678
55.9321,5106.8796,0.05571,-0.0664,0.05197
55.9556,5106.8997,-0.03775,-0.01631,-0.02134
55.975,5106.9198,-0.0683,-0.00042,-0.03111
55.9926,5106.9398,-0.04142,-0.01997,-0.00485
