AppTimestamp(s),SensorTimestamp(s),acc_x,acc_y,acc_z,gyro_x,gyro_y,gyro_z,mag_x,mag_y,mag_z
45.0117,5095.955,-0.03449941728677199,0.17111620170084926,-0.1444851371234573,-0.010743643575306116,-0.005124168663168191,-0.036912058150064514,-0.11944180180050606,0.16857297295816945,0.20827419932393654
45.0267,5095.975,-0.048837302322857594,0.11514448668933128,-0.09998303839322481,-0.04909372666082332,0.0071824951713141275,0.004313080450053886,-0.11944180180050606,0.16857297295816945,0.20827419932393654
45.0493,5095.995,-0.056494195798843294,0.06747386107330057,-0.054881035372260106,-0.05372120197701451,0.005616498784927664,0.034361724804098645,-0.11944180180050606,0.16857297295816945,0.20827419932393654
45.0748,5096.015,-0.061908841319820794,0.023283183150305364,-0.010404001957026315,-0.033093137071160704,-0.025751385853401428,-0.006114192128768499,-0.11944180180050606,0.16857297295816945,0.20827419932393654
45.0994,5096.035,-0.06462001567810949,-0.01704473504803211,0.03005708976717049,0.004762524959374122,-0.043297523345228066,-0.03069419439377732,-0.12951295482474323,0.1836718646637357,0.10993501412278561
45.1104,5096.055,-0.053241843429272094,-0.04145051591902593,0.06186741189412858,0.02726730560719086,-0.03193644503456224,-0.034986576903826,-0.22863172893512235,0.1736007116394987,0.11853969282788619
45.1503,5096.075,-0.04247227813930209,-0.055442326007958426,0.07997928621175418,0.024554015298885914,-0.025394555796791386,-0.02313879479477301,-0.22863172893512235,0.1736007116394987,0.11853969282788619
45.1516,5096.095,-0.01240571225221019,-0.038441127258275226,0.08181057451300479,0.017297349680967383,-0.033599805877722475,0.004298821268199726,-0.22002705023002175,0.07526152643834917,0.10255957523269942
45.1729,5096.115,0.01719498000812731,-0.011612033393443633,0.06691305653646538,0.011387935275418985,-0.03503078410002646,-0.0015288817708018958,-0.22002705023002175,0.07526152643834917,0.10255957523269942
45.1867,5096.135,0.04216254525411341,0.024044054844873375,0.039033322270050186,0.038956062594670736,-0.016122239177189378,0.011597678517810545,-0.11083712309540547,0.07023378775701992,0.19229408172874976
45.2114,5096.155,0.05543969071274361,0.05344803657737518,0.004789823780935287,0.0619414475437146,-0.018445210023404896,0.003914437978044731,-0.20135121850068402,-0.03817655046836662,0.18491864283866358
45.2388,5096.175,0.05747965957562061,0.07985723867765507,-0.027642829200143715,0.036556626193211594,-0.027448680303370547,-0.007914905533783047,-0.11230359741454206,-0.013006505738563346,0.07797477893241206
45.2464,5096.195,0.05241024784018651,0.10410176152910328,-0.05106618000492913,-0.026282683170036108,-0.013452287580539707,-0.005543579006638831,-0.20135121850068402,-0.03817655046836662,0.18491864283866358
45.2743,5096.2149,0.04619252268714811,0.12478647107869148,-0.06105980477956083,-0.06151934934422716,0.027145325838786573,0.012382671063678713,-0.3176793500212645,0.1484306669096954,0.22548355673413772
45.2925,5096.2349,0.033102974756511305,0.12958963901417997,-0.05683487426682313,-0.05078657755827252,0.03335650542787642,0.02962595549277428,-0.23723640764022294,0.27193989684064834,0.13451981042307298
45.306,5096.2549,0.01569943449060721,0.12011193785156668,-0.04103701635057391,-0.029005438988802455,-0.012057935366067186,0.007375731449162189,-0.22716525461598577,0.25684100513508207,0.23285899562422394
45.3303,5096.2749,-0.00543864758971739,0.10055695017725177,-0.018433915968371614,-0.009731019603539705,-0.05817415691192718,-0.02341992194046679,-0.21856057591088518,0.15850181993393242,0.21687887802903713
45.3484,5096.2949,-0.01920725926543149,0.07837850279785917,0.005914356135070187,0.025355892082027376,-0.03771600474697955,-0.04250153451291634,-0.22716525461598577,0.25684100513508207,0.23285899562422394
45.3776,5096.3149,-0.02454074690272269,0.05895567351663207,0.02809276294212608,0.006029065840266272,-0.00030799055542403436,-0.015528939871963557,-0.22716525461598577,0.25684100513508207,0.23285899562422394
45.3895,5096.3349,-0.02052156502821629,0.042066446520007975,0.045764773358116885,-0.05216778870796483,0.015283204281502842,0.013945772412450987,-0.23576993332108634,0.3551801903362315,0.2488391132194107
45.4095,5096.3549,-0.01239129906490179,0.02759758719195618,0.05787066850618458,-0.061775210789613386,0.008749456643200586,0.03752849241553866,-0.23576993332108634,0.3551801903362315,0.2488391132194107
45.4252,5096.3749,-0.00900717129286569,0.007853745059845985,0.06389773779106778,-0.017958383866458674,-0.016758565335710365,0.015467817151401787,-0.23576993332108634,0.3551801903362315,0.2488391132194107
45.4503,5096.3949,-0.01088974672451249,-0.016323825401134834,0.06365861963645758,0.04091235366570636,-0.012279851417596532,-0.010994397118357048,-0.23576993332108634,0.3551801903362315,0.2488391132194107
45.4716,5096.4149,-0.014023235138679091,-0.03514284419785632,0.057439850353913684,0.027978748651770694,0.00823706302738255,-0.02951154276775201,-0.24437461202618693,0.45351937553738114,0.2648192308145975
45.4855,5096.4349,-0.01442892248181019,-0.03976665179811442,0.046280663208168385,-0.0032316357978506454,0.010508599594483572,-0.0029745907172403045,-0.3434933861365663,0.4434482225131441,0.2734239095196981
45.5143,5096.4549,-0.00885019307666819,-0.032721664703408926,0.03203393460232968,-0.001873715377584327,-0.00627763377998864,0.02846629065128973,-0.3348887074314657,0.34510903731199444,0.2574437919245113
45.5316,5096.4749,-0.00517690957882899,-0.017640539156838914,0.01751769311436538,-0.0063812844812199355,-0.010182558309867388,0.05006944285627826,-0.32628402872636514,0.24676985211084504,0.24146367432932453
45.5466,5096.4949,-0.00368651051328419,-0.002111424358014813,0.0060749628706663755,-0.00819053774187323,-0.005385378188115453,0.03484309511565827,-0.2458410863453235,0.37027908204179777,0.15049992801825976
45.5784,5096.5149,-0.00362313260849089,0.0049658140338216805,0.0008437960300767822,0.009319963454220917,-0.007475391857762837,-0.0001877811326212242,-0.23723640764022294,0.27193989684064834,0.13451981042307298
45.5929,5096.5349,-0.00338093156486739,0.007984062173478385,0.004021809206679883,0.020859761249966895,0.0030269190479973855,-0.03951743193798747,-0.22863172893512235,0.1736007116394987,0.11853969282788619
45.6143,5096.5549,-0.0010526997990060898,0.002281121348621573,0.015720635513428186,0.013378887907805708,0.009999757244125222,-0.025254316516412745,-0.23723640764022294,0.27193989684064834,0.13451981042307298
45.6386,5096.5749,0.00751777080797351,-0.006693424383296731,0.033839259123758986,-0.0006268712279545936,-0.020382995490042737,0.00505209942684053,-0.13958410784898004,0.19877075636930142,0.01159582892163816
45.6513,5096.5949,0.022161785124535812,-0.01598934849855102,0.05402771473287308,-0.015613787907652896,-0.024228233436347828,0.005376249966059819,-0.13958410784898004,0.19877075636930142,0.01159582892163816
45.6822,5096.6148,0.04263796475205311,-0.02231292367450502,0.07053300443935988,-0.01938278236888192,0.023018846120555287,0.003081505079390987,-0.12237475043877888,0.002092385967002374,-0.020364406268735397
45.6999,5096.6348,0.05695262888185511,-0.027594068886566236,0.07757064690180798,0.0008669137522161819,0.0454551761651484,0.021221028257613527,-0.12237475043877888,0.002092385967002374,-0.020364406268735397
45.71,5096.6549,0.0640655214884466,-0.025573257865592613,0.07114612792100389,0.038597346909334494,0.0017059400837962533,-0.014202835959526055,-0.12237475043877888,0.002092385967002374,-0.020364406268735397
45.7279,5096.6749,0.0651367718484276,-0.021666009808862435,0.05008125265890728,0.05981924544578992,-0.0035657574756943053,-0.03147291781658893,-0.13244590346301607,0.01719127767256863,-0.11870359146988634
45.7475,5096.6949,0.0625294554258244,-0.008899247008665734,0.016996508612491176,0.08450952637644556,-0.0027032538260443844,0.0338353643153095,-0.12384122475791547,-0.081147907528581,-0.13468370906507313
45.777,5096.715,0.06023045604140141,0.012875232444685386,-0.022639836716081524,0.0314064228369846,0.04104650091065224,0.03419516280916419,-0.016117771942435525,-0.16941593970549348,-0.1592685053653605
45.7877,5096.735,0.045870665436519506,0.04344475895997847,-0.061836804045425714,-0.0409361625083596,0.06108461914315733,-0.0019132650609569098,-0.006046618918198349,-0.18451483141105976,-0.060929320164209565
45.8076,5096.755,0.02930604609956101,0.07033167033020958,-0.09421848890349552,-0.05315193233883399,0.030854845777150374,-0.02890565046293143,-0.006046618918198349,-0.18451483141105976,-0.060929320164209565
45.83,5096.775,0.009988251530724909,0.08300640442715188,-0.11482291819498902,-0.005454338539034381,0.007512345208011962,0.010449814378550122,-0.014651297623298934,-0.08617564620991022,-0.04494920256902279
45.8526,5096.7951,-0.00855896735629669,0.08099202544281098,-0.12068398844898842,0.04003168494647876,-6.363748356681612e-05,0.035694220763574216,-0.12237475043877888,0.002092385967002374,-0.020364406268735397
45.8783,5096.8151,-0.023396167487265487,0.07231769477545118,-0.11087710106240892,0.008445167424303356,-0.011682008658705032,0.006079252216266536,-0.12237475043877888,0.002092385967002374,-0.020364406268735397
45.8935,5096.8351,-0.036285887623943594,0.06079760519031427,-0.08664208229220483,-0.06637815671247382,0.004895981475891261,0.001379868403466597,-0.11230359741454206,-0.013006505738563346,0.07797477893241206
45.9113,5096.8552,-0.047190964385130596,0.04626945912823037,-0.05155598686577392,-0.08248180433404868,0.02227338286531829,-0.01479311691869596,-0.11230359741454206,-0.013006505738563346,0.07797477893241206
45.9392,5096.8752,-0.058974927544305694,0.026621050524170672,-0.011375978077296914,-0.039860413785890045,0.0004860623149337838,-0.010707369621551195,-0.12090827611964264,0.08533267946258619,0.09395489652759884
45.9573,5096.8952,-0.0696423060897725,-0.0033898553766517348,0.026947832731984186,-0.002922173865536821,-0.021640965346245856,-0.02286024905269075,-0.021789502009263297,0.09540383248682321,0.08535021782249824
45.9675,5096.9152,-0.0758544808692882,-0.026841035474681613,0.05736206092004148,0.06592698032805988,-0.030601298987351012,-0.007054560587254489,-0.021789502009263297,0.09540383248682321,0.08535021782249824
45.9882,5096.9353,-0.078486358591881,-0.04107796526539942,0.07581709032649868,0.05084672025184224,-0.007179755259149432,-0.0255160216730293,-0.03039418071436388,0.19374301768797275,0.10133033541768502
46.0102,5096.9553,-0.0738718981622015,-0.036865488613539915,0.08133106666765469,-0.05077307576730259,-0.0039578007546370005,0.014580674776905913,-0.011718348985026123,0.08030494078125697,0.18368940302364917
46.0317,5096.9754,-0.06448599618816028,-0.021834733289962938,0.07512212588325938,-0.03134704082723933,-0.012716771498217067,0.029255462612528958,-0.011718348985026123,0.08030494078125697,0.18368940302364917
46.0588,5096.9955,-0.05438150874780869,-0.007512804260744438,0.060048346628396886,0.041203756941883815,-0.04843017457391025,0.028148040463182516,-0.020323027690126706,0.17864412598240648,0.19966952061883594
46.0754,5097.0155,-0.044504026153002696,0.006620212386367369,0.03997036122429668,0.0512553353397241,-0.04269535626351357,-0.005548004269972876,-0.13811763352984383,0.28201104986488534,0.12591513171797242
46.0905,5097.0356,-0.03570685666037329,0.021280239485369973,0.01867035206630309,0.009612117772001263,-0.012761441203823977,-0.01718767607834395,-0.03039418071436388,0.19374301768797275,0.10133033541768502
46.1077,5097.0556,-0.029116288222534988,0.037207715625723475,-0.0007694552473761218,-0.010928055023550015,0.00013339074533350346,-0.0044098511252510806,0.06872459339601547,0.20381417071220978,0.09272565671258443
46.1322,5097.0757,-0.02450345795807319,0.05372251790345657,-0.01629788216019562,-0.008145929258273878,0.0014719534278919307,0.007937125272679252,0.07732927210111606,0.10547498551106026,0.07674553911739765
46.1482,5097.0958,-0.02440017173416739,0.06243056395277277,-0.026836509678608414,-0.01851743760547302,-0.02554937974697499,0.02721185142006757,0.1764480462114954,0.1155461385352973,0.06814086041229706
46.1782,5097.1158,-0.026231222806062188,0.05631994500673658,-0.03170026674493301,0.008274523397595606,-0.04804893406775929,0.05394031903375852,0.1764480462114954,0.1155461385352973,0.06814086041229706
46.1945,5097.1359,-0.03155077006970179,0.04527356201927968,-0.030104892388307214,0.07104022297033394,-0.03625692918476894,0.03813708904795228,0.18505272491659597,0.01720695333414777,0.05216074281711027
46.2142,5097.156,-0.03598796106384619,0.02999710896774417,-0.021489619919219216,0.03793597319143753,-0.013848360283095608,-0.025848162271046183,0.08593395080621664,0.007135800309910732,0.060765421522210865
46.2323,5097.176,-0.034098975839523094,0.017254207438803376,-0.006133206684629022,-0.03974645551460574,-0.014973460785458215,-0.04166724945046609,0.18505272491659597,0.01720695333414777,0.05216074281711027
46.251,5097.1961,-0.02361942304623699,0.005459843233577177,0.013780696588545277,-0.05598345681741339,-0.02462916018194236,0.0013749514442065465,0.08593395080621664,0.007135800309910732,0.060765421522210865
46.2684,5097.2161,-0.0063459855294087895,-0.009649645496428133,0.03411589115560048,-0.008129614083318481,-0.04313450571445546,0.03401348116450508,0.07732927210111606,0.10547498551106026,0.07674553911739765
46.2877,5097.2362,0.01211980098054791,-0.02698746484696432,0.050040930841624885,0.06063935644518913,-0.04356988318311389,0.01633836478839497,0.07732927210111606,0.10547498551106026,0.07674553911739765
46.311,5097.2562,0.02677880599149791,-0.04020254081615762,0.057821315478143384,0.09470073781479314,-0.05138995597858823,-0.005119122498514361,0.07732927210111606,0.10547498551106026,0.07674553911739765
46.3312,5097.2763,0.040433149042196706,-0.03333313081631273,0.05615061769754318,0.05455336371313309,-0.052852823388187725,-0.0291864088366807,0.06872459339601547,0.20381417071220978,0.09272565671258443
46.3637,5097.2963,0.05222615466960131,-0.010742322735512816,0.045671324952843484,-0.011396983732843898,-0.0034159954341650015,-0.021054987460360653,0.1678433675063948,0.2138853237364468,0.08412097800748383
46.3705,5097.3163,0.05827462295439901,0.016446418926159473,0.028596660424953776,-0.02463857791938581,0.011747938126314018,0.04289019064066833,0.1678433675063948,0.2138853237364468,0.08412097800748383
46.3894,5097.3363,0.05565656688350001,0.03342960300248628,0.008008259115530686,0.012588203128483539,-0.020648130992192794,0.029131063543249503,0.18651919923573257,0.10044724682973104,0.16648004561344798
46.4087,5097.3564,0.04220928878568791,0.03654336080760208,-0.01261854012949322,0.08649820887523765,-0.045949625240811205,-0.0009625709880247745,-0.020323027690126706,0.17864412598240648,0.19966952061883594
46.4308,5097.3764,0.02405785432373991,0.03233498680277898,-0.030027804391393423,0.03780804188373211,-0.01798343105217657,-0.04633995875928022,-0.011718348985026123,0.08030494078125697,0.18368940302364917
46.4484,5097.3964,0.009220169207832009,0.02965438025382698,-0.04167148675299473,-0.045888762986426926,0.016160053178212556,0.0233825235483348,-0.0031136702799255387,-0.018034244419892567,0.1677092854284624
46.4728,5097.4165,0.00094986530466111,0.02949285845994598,-0.04632131686142521,-0.0844235995727401,0.018616757021791542,0.029567074905635093,-0.0031136702799255387,-0.018034244419892567,0.1677092854284624
46.4887,5097.4365,-0.00640673398058599,0.01894268181928288,-0.04443386801272131,-0.04166114864269072,-0.02141696789305832,0.035189126123584824,-0.011718348985026123,0.08030494078125697,0.18368940302364917
46.5087,5097.4565,-0.012258403333195191,0.0015539432452100765,-0.03748201832563533,0.04220008493778309,-0.06333535166990199,-0.013382564230966953,-0.03039418071436388,0.19374301768797275,0.10133033541768502
46.5301,5097.4765,-0.01423479792879789,-0.016350059048791027,-0.027389237503435318,0.06549819447766836,-0.05136088926859073,-0.03629141496746375,-0.011718348985026123,0.08030494078125697,0.18368940302364917
46.5491,5097.4966,-0.00733086350418779,-0.022631520487585932,-0.015891310153114013,-0.005761595423379142,0.002008138171952094,-0.020799305578837666,-0.011718348985026123,0.08030494078125697,0.18368940302364917
46.5753,5097.5166,0.00661385687841621,-0.013870925379558835,-0.004727451882498818,-0.05159133173334291,0.010166553142966583,0.0075082435012207354,-0.004580144599062117,-0.10127453791547594,0.05338998263212466
46.5871,5097.5366,0.02179649524548731,-0.0023870879286142233,0.004125522575582685,-0.038962955214549296,-0.003912035643246235,0.0015721215105348476,0.005491008425175056,-0.1163734296210422,0.1517291678332756
46.618,5097.5566,0.03809854962390011,0.014397673909284286,0.009169174356431178,-0.029626770077589952,-0.009488437208495784,0.01031508969482455,0.01409568713027564,-0.21471261482219173,0.13574905023808884
46.6305,5097.5766,0.044838081205831104,0.019655161815233274,0.00948834016335419,-0.016022804029515114,0.0023290936706489448,0.017569817235076352,0.012629212811139053,-0.297952908317775,0.021429747441751107
46.6473,5097.5966,0.04394833188630091,0.016687942917550574,0.005845631279722277,0.04528988321175382,-0.0057059033724246155,0.004474233789802274,-0.06781372956990254,-0.4214621382487278,0.11239349375281586
46.672,5097.6166,0.035217252163945806,0.008618693820034384,0.0004545842916151843,0.07730738038827203,0.0022784146102243605,-0.050385878686418514,0.021233891516239636,-0.3962920935189245,0.005449629846564327
46.688,5097.6366,0.02662487939166491,0.011449239649960585,-0.0036372498724638186,0.0007631794205234012,0.024587854241637293,-0.06831630817210713,0.11028151260238217,-0.37112204878912175,-0.10149423405968372
46.7109,5097.6566,0.02034736512128061,0.021981861577749284,-0.004255924569447622,-0.08461422641574422,0.005625349513267272,0.04063859207150652,0.0025580597869022353,-0.28285401661220927,-0.07690943775939635
46.7292,5097.6766,0.01074172417455891,0.02562588727155128,-0.0009816811307036127,-0.07283606894587379,0.010269264143319377,0.0680894839244814,0.0025580597869022353,-0.28285401661220927,-0.07690943775939635
46.747,5097.6966,-0.00573331803939409,0.016644087939779867,0.005079928994495483,0.0101027517567615,0.01304274182748759,0.011576781440955294,0.093072155192181,-0.1744436783868227,-0.06953399886931017
46.7671,5097.7166,-0.028684329357221088,-0.0025571070504010196,0.01210973344138258,0.07367267016582073,0.007885102866810807,-0.071514175550867,-0.024722450647536108,-0.07107675450434396,-0.14328838777017372
46.7898,5097.7366,-0.05062090089869059,-0.01972052056755133,0.01868850813098498,0.06395868898171687,-0.014537969314859477,-0.05346168255154748,0.093072155192181,-0.1744436783868227,-0.06953399886931017
46.8141,5097.7566,-0.06082709802533429,-0.023610326358779715,0.024105710306857084,-0.019863239498563025,-0.02665878668308922,0.010410847476414175,-0.006046618918198349,-0.18451483141105976,-0.060929320164209565
46.8302,5097.7766,-0.05972951359265109,-0.020822643915618416,0.02754785682801998,-0.05949683340755844,-0.011079142008855888,0.06903845706167251,-0.014651297623298934,-0.08617564620991022,-0.04494920256902279
46.8506,5097.7966,-0.05201648531119849,-0.020215161490260924,0.027903836057296183,0.00602015764645109,0.004173817373892299,0.0180869584252529,0.08446747648708042,-0.07610449318567318,-0.05355388127412339
46.8714,5097.8166,-0.04441850095400409,-0.026480010434937723,0.023903959700875582,0.054736112101431665,-0.012647090683028628,-0.0012909009426151183,0.07586279778197982,0.02223469201547645,-0.03757376367893659
46.8936,5097.8365,-0.03603906633141409,-0.03235300139637082,0.014671158323648889,0.05145689007941026,-0.022713124717069672,-0.03666805404678416,0.07586279778197982,0.02223469201547645,-0.03757376367893659
46.9142,5097.8565,-0.02162317892094539,-0.02524186160149053,-1.8922428992915186e-05,0.02459586762838499,-0.019045725276780837,-0.001047511459242272,0.07586279778197982,0.02223469201547645,-0.03757376367893659
46.9306,5097.8765,-0.00254781730659359,-0.004860307356003124,-0.01993441277555902,-0.03447539490435658,-0.020774153474020084,0.0618858793500484,0.07586279778197982,0.02223469201547645,-0.03757376367893659
46.9505,5097.8965,0.01573381100981741,0.021435825298394884,-0.044107088382846604,-0.038149875268925625,-0.012890092164659542,0.05725951238226031,0.07586279778197982,0.02223469201547645,-0.03757376367893659
46.9772,5097.9165,0.02533315193867541,0.04170310916796778,-0.07041496000226061,-0.007459030928659649,0.008433115375157885,-0.011564887316505222,-0.023255976328399527,0.012163538991239413,-0.02896908497383599
46.9905,5097.9365,0.02409177723516741,0.05360877950441957,-0.0952093809743765,0.029071113268028248,0.006897181698724828,-0.03976414036886086,-0.13958410784898004,0.19877075636930142,0.01159582892163816
47.0164,5097.9565,0.01472848683854331,0.05139245032619527,-0.11374946491961282,0.04153800994227395,-0.019323066006940354,0.0021474057439615753,-0.031860655033500114,0.11050272419238893,-0.012988967378649213
47.0313,5097.9765,0.00369052610409951,0.047435285288884674,-0.12090957523881263,0.009216071088319174,-0.030665193390314375,0.0353921965410252,-0.023255976328399527,0.012163538991239413,-0.02896908497383599
47.0519,5097.9965,-0.00688215715219949,0.039443716896460174,-0.11305864592383971,-0.07948434677231629,0.002632439302662414,0.046487192187363385,-0.004580144599062117,-0.10127453791547594,0.05338998263212466
47.0799,5098.0165,-0.01783392793412139,0.029061960676158377,-0.08952657787759072,-0.08449703731320189,0.04309890262706918,-0.006426787813726666,-0.004580144599062117,-0.10127453791547594,0.05338998263212466
47.0898,5098.0365,-0.03177694429574489,-0.0029235121046692347,-0.05376219468038132,-0.055925057635572546,-0.01709800797440905,-0.010521385637539519,-0.006046618918198349,-0.18451483141105976,-0.060929320164209565
47.1115,5098.0565,-0.04362881325212859,-0.03666447657273553,-0.011868133566555222,-0.02118921828972908,-0.04733045764119145,-0.0007013575273342207,-0.006046618918198349,-0.18451483141105976,-0.060929320164209565
47.129,5098.0765,-0.044927287918612294,-0.06577777366037163,0.028874160813522287,0.02409005012472296,-0.052660668092071955,0.010611582338206025,-0.006046618918198349,-0.18451483141105976,-0.060929320164209565
47.1542,5098.0965,-0.03490490776414689,-0.08187428510037512,0.06250983384016139,0.05492071553007677,-0.032001129867544054,-0.0005494234861984459,0.0025580597869022353,-0.28285401661220927,-0.07690943775939635
47.1748,5098.1165,-0.014870167296631789,-0.07792573136990152,0.08581197687161408,-0.007337138149796833,0.0017643407595828455,0.01039056501946643,-0.08795603561837653,-0.39126435483759586,-0.08428487664948253
47.1929,5098.1365,0.00882014778122971,-0.06419355288065853,0.09780552672138888,-0.04112677167570443,-0.004018418944330369,0.004878899536905003,0.01116273849200282,-0.3811932018133588,-0.09288955535458313
47.2257,5098.1565,0.030134436297880613,-0.05686232797786292,0.09888453382023739,0.006504652233652952,-0.032416120765557534,-0.004979603779510234,0.0025580597869022353,-0.28285401661220927,-0.07690943775939635
47.2411,5098.1765,0.051452671995368605,-0.056029953618801615,0.08975580479193788,0.07737016819829315,-0.03099773179001699,-0.017602052819985285,0.0025580597869022353,-0.28285401661220927,-0.07690943775939635
47.26,5098.1965,0.06907681525485121,-0.06495599924305542,0.07015794297950928,0.04906866595854079,-0.0003434204785613394,0.011744080979778755,-0.007513093237334938,-0.267755124906643,-0.1752486229605473
47.2875,5098.2165,0.0820468773247365,-0.07539090979358712,0.03935549739779248,-0.00950507826146416,0.01859079917863801,0.0051118404818502215,-0.007513093237334938,-0.267755124906643,-0.1752486229605473
47.2913,5098.2365,0.0839433390821343,-0.07369565086414692,-0.002736886430336219,-0.01526378100477425,0.018497401959324734,0.002585752661995692,0.09160568087304442,-0.257683971882406,-0.1838533016656479
47.3141,5098.2564,0.0839303118081089,-0.05728597772227523,-0.05440348780977042,0.0023251655445024346,0.023802298539019783,-0.0015025760387606,0.09160568087304442,-0.257683971882406,-0.1838533016656479
47.3324,5098.2764,0.07918011197937891,-0.02463453249630501,-0.11004247761608743,0.02342715443669572,0.025353854056810822,0.023278038164058573,0.08300100216794383,-0.15934478668125646,-0.1678731840704611
47.3525,5098.2964,0.0731754670337425,0.020551118167701082,-0.15991922412659001,0.045472978261323245,0.0013172960610676292,0.06454386460205395,0.07439632346284325,-0.061005601480106926,-0.1518930664752743
47.3724,5098.3164,0.06462716654418611,0.07335735347622037,-0.19165818713947083,0.07389974164052092,-0.01341714255833424,0.048184526523935234,0.07439632346284325,-0.061005601480106926,-0.1518930664752743
47.3926,5098.3364,0.055196717177660407,0.12625857753298678,-0.19420074204794732,0.0767152884942959,-0.010541963744334127,-0.036765778612077804,0.07439632346284325,-0.061005601480106926,-0.1518930664752743
47.4082,5098.3564,0.050832696825998606,0.16882564598639208,-0.1623121233515444,-0.013809844843401385,0.027873845829349146,-0.0619670386795949,0.18211977627832315,-0.1492736336570194,-0.17647786277556168
47.4275,5098.3764,0.054489566059840205,0.18725756191243237,-0.09940637638924202,-0.1438745285929748,0.038841660110188136,-0.035166906384688626,0.19072445498342375,-0.24761281885816894,-0.1924579803707485
47.4511,5098.3964,0.06733266457448361,0.17085919076496367,-0.01735188082784972,-0.1453924822389501,0.047306844635620134,0.049530789969338955,0.18211977627832315,-0.1492736336570194,-0.17647786277556168
47.4711,5098.4164,0.07758750700411411,0.10725000748101748,0.06689477472872128,-0.04612042637811841,0.06415906336897226,0.0413312687072671,0.18211977627832315,-0.1492736336570194,-0.17647786277556168
47.4886,5098.4364,0.078481810039389,0.014602123457140986,0.1364597026375925,0.02292357319880334,0.0705419253470095,-0.02190881743586965,0.18211977627832315,-0.1492736336570194,-0.17647786277556168
47.5147,5098.4564,0.07287435360236731,-0.08349366753840132,0.18016466881041418,0.017681703097056932,0.05364901222411121,-0.023965704418333195,0.18211977627832315,-0.1492736336570194,-0.17647786277556168
47.5278,5098.4764,0.058607484424244405,-0.1533580529041539,0.19588019038629548,-0.01439882481088654,0.0464121883148938,-0.004402598610342502,0.18211977627832315,-0.1492736336570194,-0.17647786277556168
47.5503,5098.4964,0.045891770773999405,-0.18822799077590294,0.18853892801544128,-0.026037516342149337,0.06349866295789719,-0.004929327871076166,0.16491041886812197,0.04740473674527975,-0.14451762758518813
47.5747,5098.5164,0.03275678635102781,-0.1897573083601575,0.16680143931275068,-0.052036681458837365,0.059900550005760396,0.010847842230651765,0.06579164475774266,0.03733358372104271,-0.13591294888008754
47.5877,5098.5364,0.011895852967931109,-0.1744678183614268,0.13881122256466008,-0.03267936759434216,0.05355267726867232,-0.0008036302799434347,0.06579164475774266,0.03733358372104271,-0.13591294888008754
47.6119,5098.5564,-0.00916581531807659,-0.15315090361174152,0.11026939936260369,0.008062230451996184,0.039960128167662645,-0.04434219821191888,0.047115813028404896,0.15077166062775849,-0.2182720164860517
47.6315,5098.5764,-0.02900596019843799,-0.1276114343660993,0.08383880034331848,0.07283224904467706,0.04619991567988136,-0.03635041847858446,0.047115813028404896,0.15077166062775849,-0.2182720164860517
47.6497,5098.5964,-0.041590184838635295,-0.09699143837082291,0.05962825122902838,0.053185209632686435,0.059170366102631225,-0.027374263501386536,0.05572049173350548,0.05243247542660897,-0.2342521340812385
47.6796,5098.6164,-0.03947413031324459,-0.06323142413809832,0.036474140150427985,0.003807352538725658,0.04880587574789724,0.0021846517103564977,0.05572049173350548,0.05243247542660897,-0.2342521340812385
47.6932,5098.6364,-0.03641013463632269,-0.03044943518791693,0.013185493507939988,-0.04289910227416459,0.04031821646664288,0.029266771618827077,0.047115813028404896,0.15077166062775849,-0.2182720164860517
47.7077,5098.6564,-0.03023957637726799,-0.00957158096791122,-0.010520913652312919,-0.0451211632362909,0.013594627462372319,0.0434003251638993,0.037044660004168076,0.1658705523333242,-0.31661120168719914
47.7278,5098.6764,-0.02574897502275659,-0.008831284500775222,-0.03364530060417292,0.033362454487969005,0.02066613918511617,0.011605791500589631,0.03851113432330431,0.24911084582890802,-0.20229189889086494
47.7513,5098.6964,-0.02744121116451189,-0.026583641115823314,-0.05410014232810523,0.09713365470397581,0.05256670814503848,-0.04717633352941601,0.03851113432330431,0.24911084582890802,-0.20229189889086494
47.7742,5098.7163,-0.030664720183368188,-0.045113703048937526,-0.06923679476742381,0.026329334806514823,0.05969322125887816,-0.09473943261574852,0.047115813028404896,0.15077166062775849,-0.2182720164860517
47.7999,5098.7363,-0.02847522210215659,-0.05298887464211832,-0.07711758526398463,-0.05167662171751667,0.06779843867638098,-0.018411876010116773,0.047115813028404896,0.15077166062775849,-0.2182720164860517
47.8117,5098.7563,-0.02945325480270569,-0.05867758376252141,-0.07777505964766393,-0.05900322457988483,0.038951042817731346,0.048094914941420666,0.1548392658438848,0.062503628450846,-0.24285681278633908
47.841,5098.7763,-0.024916907017135788,-0.058172162286595025,-0.0726307138532011,-0.050263155196380145,0.005950249863392168,0.05331869245930575,0.1548392658438848,0.062503628450846,-0.24285681278633908
47.8527,5098.7963,-0.030210689769578088,-0.06513475971072202,-0.06452050312614721,0.009847098712056305,-0.0018626519473101363,-0.0229921464848418,0.2711673973644649,-0.12410358892721617,-0.2834217266818132
47.8733,5098.8163,-0.04205653891922429,-0.07702426825013783,-0.05572744189741591,0.07097419804017253,-0.0014880728400671842,-0.09939063022779987,0.27977207606956545,-0.2224427741283657,-0.29940184427699995
47.8889,5098.8363,-0.04580590885612889,-0.07690355312199654,-0.047108014253734204,0.061262832049137954,0.011426109914613758,-0.1038670299381562,0.38749552888504546,-0.3107108063052782,-0.3239866405772874
47.9177,5098.8563,-0.03840884127368599,-0.06400647139572452,-0.03881547671557181,-0.03890874421527819,0.04111841007936981,-0.023195585674226683,0.4147760393194838,-0.5224880684131435,-0.25760769056651
47.9382,5098.8763,-0.02557023322717049,-0.045661025683159134,-0.030697637566476324,-0.08192371077557126,0.03671802791129062,0.072460783630654,0.5311041708400643,-0.7090952857912056,-0.2981726044619841
47.9494,5098.8963,-0.02347071203604659,-0.03909120066746513,-0.022826779048360613,-0.044157426079505686,-0.010293797186601623,0.07628249021553367,0.5311041708400643,-0.7090952857912056,-0.2981726044619841
47.9746,5098.9163,-0.03177297757012389,-0.04723323412548691,-0.015313735800825817,0.026318362179344853,-0.02245566300203646,-0.013553551489235463,0.6302229449504436,-0.6990241327669686,-0.30677728316708475
47.9945,5098.9363,-0.04707410891585509,-0.062409092730003835,-0.008550926604513912,0.049375593126008616,-0.007439730963908044,-0.0782123033028803,0.5311041708400643,-0.7090952857912056,-0.2981726044619841
48.0111,5098.9563,-0.05688062282379779,-0.07090794532709893,-0.0030847429858379127,-0.013236263006014045,0.02656719625920814,-0.04980002299058268,0.6488987766797815,-0.8124622096736843,-0.22441821556112057
48.0361,5098.9763,-0.05372885639942349,-0.06245370118203042,0.00024487329401137736,-0.08271231001417277,0.0361048763524508,0.041391624382184314,0.657503455384882,-0.9108013948748339,-0.24039833315630735
48.0573,5098.9963,-0.04605934189523089,-0.04948428759028861,3.9372376178584134e-05,-0.09761558604281638,0.0021537452512348453,0.0855395264904624,0.657503455384882,-0.9108013948748339,-0.24039833315630735
48.0828,5099.0163,-0.04136749949991629,-0.043007375401386716,-0.004140904707672213,-0.03985338113031828,-0.010782882320172063,0.047192038297292634,0.7666933825194981,-0.9158291335561626,-0.15066382666026049
48.0989,5099.0363,-0.04543221506992649,-0.04637505962744792,-0.010694370041023013,0.06621494646327049,0.0016119451816705892,-0.036925825635992685,0.8744168353349776,-1.0040971657330753,-0.17524862296054783
48.115,5099.0563,-0.05021905414380589,-0.051519520057776935,-0.01562749433733082,0.10626684469292505,-0.0053454631572385876,-0.045197380351224364,0.8744168353349776,-1.0040971657330753,-0.17524862296054783
48.1285,5099.0763,-0.04861149542654189,-0.04857303701879431,-0.013885389012229118,0.03327866727483726,-0.008809149807663907,-0.00967972513619918,0.8744168353349776,-1.0040971657330753,-0.17524862296054783
48.1554,5099.0963,-0.03398868377850499,-0.03274070218046152,-0.001817372335280218,-0.08592116549797288,0.0043832247387375674,0.06666491790286126,0.7752980612245988,-1.0141683187573123,-0.1666439442554473
48.1695,5099.1162,-0.01833163731536779,-0.02726620484421932,0.020123907494132787,-0.11517648402777597,0.0063454365079159865,0.06562018698408054,0.865812156629877,-0.9057579805319256,-0.15926850536536102
48.1928,5099.1362,0.00352097953350181,-0.030226957965281936,0.04789455493004418,-0.05273155837361993,-0.01144514239672466,0.03288135129487684,0.8672786309490137,-0.8225176870363423,-0.04494920256902331
48.2094,5099.1562,0.02260665139007251,-0.05121213914709502,0.07436220965005949,0.045849379233113115,-0.017141572187959433,0.033096591186485856,0.865812156629877,-0.9057579805319256,-0.15926850536536102
48.2324,5099.1762,0.04205058952566261,-0.08105855556446223,0.09250968814444928,0.08209156064094209,0.004197783151137971,-0.02138626759050703,0.8486027992196759,-0.7090796101296265,-0.12730827017498747
48.2467,5099.1962,0.0678976389869428,-0.09200653772531012,0.09805134370037429,0.057325327213699574,0.014187593748195379,-0.046510946017548724,0.8486027992196759,-0.7090796101296265,-0.12730827017498747
48.2725,5099.2162,0.10079537018169611,-0.08719644070011173,0.08941489636014638,-0.0255473654997562,0.02608979618768989,-0.007621731837902132,0.7408793464041964,-0.620811577952714,-0.10272347387470014
48.2903,5099.2362,0.1318112185542248,-0.07380928927606434,0.06804162408861608,-0.05275100307235835,0.028021368446000165,0.05758255660564608,0.8385316461954391,-0.6939807184240608,-0.22564745537613493
48.3115,5099.2562,0.15451649741368753,-0.06621866049334782,0.037270639856643285,-0.013578156494841112,0.016037407560088885,0.07595305394510982,0.8299269674903385,-0.5956415332229112,-0.20966733778094815
48.3444,5099.2762,0.16119015125670802,-0.07983387732480762,0.0013804337714976855,0.05474224646548728,0.034474230870621646,0.018369806506687698,0.8299269674903385,-0.5956415332229112,-0.20966733778094815
48.3568,5099.2962,0.1441647403176599,-0.08586503984065222,-0.03440202196465622,0.07051786135820051,0.07329720352532751,-0.06674066857722173,0.8213222887852379,-0.49730234802176176,-0.19368722018576137
48.3769,5099.3162,0.1179010812554828,-0.09036866455854711,-0.06675746377980682,0.01866712121835022,0.06909709083790223,-0.07263069407484457,0.7308081933799596,-0.6057126862471482,-0.20106265907584758
48.3924,5099.3362,0.0903147963838395,-0.08281128550582081,-0.09299879408313882,-0.06762490115642476,0.047037346549616284,-0.006309395411392791,0.8213222887852379,-0.49730234802176176,-0.19368722018576137
48.4126,5099.3562,0.0676032199690893,-0.06651742374932293,-0.1119405682366604,-0.06414942274461984,0.03146187898613153,0.07232482970711342,0.8198558144661012,-0.580542641517345,-0.3080065229820991
48.4306,5099.3762,0.04406120595847341,-0.05217285341620531,-0.12317243501613931,-0.011548123008690436,0.03140845343265259,0.03214184062216419,0.7207370403557224,-0.590613794541582,-0.29940184427699856
48.4486,5099.3963,0.020494066559346012,-0.04026809969818562,-0.12610689581963572,0.019975528026783675,0.017563870170091336,-0.06825066676598535,0.8198558144661012,-0.580542641517345,-0.3080065229820991
48.471,5099.4163,0.0006883042826891102,-0.026171772359578516,-0.11982427359340023,0.026087859852560076,0.012784363589789597,-0.08141656272867827,0.7207370403557224,-0.590613794541582,-0.29940184427699856
48.488,5099.4363,-0.008485427007262191,-0.0034006677123218365,-0.10380832404491291,-0.024718614937042985,0.020281218328110296,0.009420817729401591,0.7121323616506219,-0.4922746093404325,-0.28342172668181176
48.5127,5099.4564,-0.00749250493205689,0.027759384004632973,-0.07932863993131392,-0.1372937040513672,0.003412236777530024,0.04879533578801587,0.7207370403557224,-0.590613794541582,-0.29940184427699856
48.529,5099.4764,-0.00890192258072179,0.03906234167423428,-0.05032603415610773,-0.12922695764169667,-0.004504865047275968,0.03308663434398424,0.8385316461954391,-0.6939807184240608,-0.22564745537613493
48.5483,5099.4964,-0.015999991594274388,0.03199977624227328,-0.02203189804502191,-0.02828056715051959,0.0005792436249858194,-0.0050454910335950105,0.8385316461954391,-0.6939807184240608,-0.22564745537613493
48.5738,5099.5164,-0.03224587735520249,0.008672319522119387,0.00037375121070548634,0.04350272714243977,-4.840543740688655e-05,-0.023668965926988708,0.8385316461954391,-0.6939807184240608,-0.22564745537613493
48.6019,5099.5365,-0.05401166785979599,-0.014541430734430427,0.01435987818392949,0.015764082210570955,0.01052610806966527,-0.05399234537968917,0.9376504203058185,-0.6839095653998237,-0.23425213408123552
48.6136,5099.5565,-0.0718375338644941,-0.027646658838966026,0.02144214663609538,-0.05502025830230021,-0.0012385717832357269,-0.03116069090357529,0.9477215733300552,-0.6990084571053895,-0.13591294888008806
48.67,5099.5766,-0.0910604658200704,-0.024615556757017737,0.026942669137585987,-0.06176699991758972,-0.004020096179926956,0.0014097389309714501,0.9391168946249546,-0.6006692719042399,-0.11993283128490129
48.6738,5099.5966,-0.10292960302249049,-0.03861215819795821,0.03775211218551328,-0.0011361025105232558,-0.0029089236892580203,-0.030102069574884913,0.9477215733300552,-0.6990084571053895,-0.13591294888008806
48.678,5099.6167,-0.10667452610946619,-0.060840810925298416,0.060743428054786386,0.03289054590225896,-0.022382048406769123,0.01249834253027158,0.9477215733300552,-0.6990084571053895,-0.13591294888008806
48.6944,5099.6367,-0.098964991487786,-0.09573779027171692,0.09847377170218469,0.000486054543256544,-0.03249214716102716,0.0036991980864357187,0.9477215733300552,-0.6990084571053895,-0.13591294888008806
48.7099,5099.6568,-0.07275588863899159,-0.1390220831355974,0.14681355624499617,-0.048693036962412506,-0.00677110138195233,-0.03575964582348854,0.9491880476491918,-0.6157681636098062,-0.021593646083750348
48.7291,5099.6769,-0.02749357149312609,-0.1859430633361365,0.19369400017610658,-0.04120121644611378,-0.03910762156822355,-0.008575130238427263,0.9391168946249546,-0.6006692719042399,-0.11993283128490129
48.7485,5099.6969,0.032090462873080705,-0.22911128047908133,0.2211445480708583,0.023202640436003598,-0.015235985935279183,0.001541021743214986,0.8486027992196759,-0.7090796101296265,-0.12730827017498747
48.7723,5099.717,0.09432022653213401,-0.255048562629686,0.2106716739294643,0.06777607051758279,-0.018920901153327233,-0.03588601167647202,0.9391168946249546,-0.6006692719042399,-0.11993283128490129
48.7886,5099.7371,0.15468610999398552,-0.2338744650998775,0.1508456307248412,0.08190315599745224,-0.035189020923263634,-0.06965593372250976,0.9491880476491918,-0.6157681636098062,-0.021593646083750348
48.8125,5099.7571,0.19855950870908212,-0.16449556793416084,0.04212465276972708,0.0943478648074325,-0.00037997875160951584,-0.013399158968469662,0.9305122159198541,-0.5023300867030904,-0.10395271368971451
48.8303,5099.7772,0.21644774845221673,-0.031022154098438615,-0.09876127650505531,0.1041564621269367,0.024144623311199525,0.08564081585121958,0.9305122159198541,-0.5023300867030904,-0.10395271368971451
48.8515,5099.7972,0.19941208455334433,0.13866186523830568,-0.24322365979466234,0.03744755109709663,0.014765035080800456,0.07302340669398608,0.8500692735388125,-0.6258393166340432,-0.012988967378649753
48.8759,5099.8173,0.14177238386512303,0.3112549206816707,-0.35668549418488593,-0.0574192913367174,0.009821805752960875,0.06769268531219477,0.8313934418094747,-0.5124012397273274,-0.09534803498461392
48.8949,5099.8374,0.04367894480153601,0.4382326980919363,-0.4084407184582787,-0.08540304369724833,0.034538975587599954,0.07248254117537975,0.8399981205145752,-0.610740424928477,-0.1113281525798007
48.9098,5099.8574,-0.0715362739022611,0.4778698523100249,-0.3804290277356127,-0.10814992465779741,0.017583329422446517,-0.0035697886356702638,0.8399981205145752,-0.610740424928477,-0.1113281525798007
48.9298,5099.8775,-0.17682450211998527,0.4196471167861312,-0.27271902176963214,-0.13875977413991847,0.0023244663609732212,-0.0829086140161427,0.8313934418094747,-0.5124012397273274,-0.09534803498461392
48.9554,5099.8976,-0.2525442009003523,0.26940619143726885,-0.10341373435197132,-0.13820086544653987,0.030864081293788717,-0.02888856402950273,0.8227887631043741,-0.4140620545261779,-0.07936791738942714
48.9797,5099.9176,-0.2947718752312915,0.04927667576159338,0.09454665943757909,-0.09156581026431987,0.016866307782703226,0.0020754952147832265,0.9118363841905167,-0.3888920097963751,-0.18631178129567516
48.9894,5099.9377,-0.2957237660946348,-0.1970674947609887,0.2807781743892722,-0.033996652924685476,-0.06317263324168981,-0.07449913859366639,0.9204410628956173,-0.4872311949975247,-0.20229189889086197
49.0111,5099.9577,-0.2844173006953924,-0.40700462086572375,0.4170691169163835,0.034521554451070476,-0.14569643182175773,-0.14140100722174942,0.9290457416007178,-0.5855703801986742,-0.21827201648604874
49.0295,5099.9777,-0.24298884443985969,-0.5418627405850301,0.47856172629271543,0.061061513028013686,-0.0901945298439661,-0.13993944108169737,1.0281645157110972,-0.5754992271744371,-0.22687669519114934
49.0562,5099.9978,-0.18777711647284218,-0.5959292908465165,0.45685111537882994,0.1410921712382646,-0.04078348081826211,-0.026260941000928004,1.038235668735334,-0.5905981188800029,-0.12853750999000188
49.0784,5100.0178,-0.12210939388611519,-0.5503740740541274,0.3668310488036145,0.22899282289870296,-0.05513521408041447,0.07497076840893185,1.0468403474404346,-0.6889373040811524,-0.14451762758518866
49.0918,5100.0378,-0.0717704972084383,-0.4150100253124217,0.23802344576227658,0.20733378603289082,-0.07626907847113304,0.06338874794788496,1.0367691944161979,-0.6738384123755867,-0.2428568127863361
49.1173,5100.0578,-0.04593233975372249,-0.2620723619850559,0.10313698394014598,0.10263598162775674,-0.07804559955531519,0.04091148331043972,1.0453738731212983,-0.7721775975767362,-0.2588369303815229
49.1318,5100.0779,-0.03875665041571219,-0.11098850837784943,-0.006213994192004413,0.01517071925787726,-0.037798315328121085,0.0175389633157195,0.9462550990109191,-0.7822487506009733,-0.2502322516764223
49.1509,5100.0979,-0.039004303246366195,-0.011275210002564734,-0.07223520370398473,0.003379105330006184,-0.019232727581023044,0.03836560472956345,0.9548597777160196,-0.8805879358021228,-0.2662123692716091
49.1772,5100.1179,-0.03341221846183159,0.02131991350569798,-0.09105057419781232,0.035173075245034206,-0.0015723837527718974,0.08441489498370575,0.9634644564211202,-0.9789271210032724,-0.2821924868667959
49.1921,5100.138,-0.02786468837306499,-0.0015152474956364181,-0.07195374026244253,0.013631611442566818,-0.01342565458171601,0.09225486359988588,0.8643456823107408,-0.9889982740275095,-0.27358780816169526
49.2146,5100.158,-0.012263477968956191,-0.059101370453720437,-0.03227456482603791,0.018760920702408014,-0.022226331837043978,0.034469774983838415,0.8729503610158414,-1.0873374592286589,-0.28956792575688206
49.2378,5100.178,0.01097014208362921,-0.12169061696046571,0.009201294197374588,0.035895485839852075,-0.03702993340783321,0.008700974893729186,0.8901597184260426,-1.2840158296309583,-0.3215281609472556
49.2574,5100.198,0.04498789122260831,-0.16800678353762785,0.037552417342673686,0.039638048279740205,-0.047646361292268936,0.011029769723273916,0.90883555015538,-1.3974539065376732,-0.23916909334129494
49.275,5100.218,0.0880499688951835,-0.18877186896439294,0.044736819477715885,0.039320601551743044,-0.051348398686587166,0.0030400796976250166,0.7910409443156637,-1.294086982655195,-0.3129234822421551
49.2924,5100.238,0.13277100395264851,-0.18314912658277585,0.030362058570840483,0.06896353333392569,-0.03807333334010315,0.04056225627899413,0.7019933232295211,-1.319257027384998,-0.20597961833590703
49.3095,5100.258,0.17029273918340102,-0.1540815167196318,0.00029824425144978073,0.08406429958990608,-0.02514209055130738,0.037889520149208385,0.6919221702052843,-1.3041581356794323,-0.3043188035370545
49.3307,5100.278,0.19476063898416573,-0.11016024924164655,-0.03644577622881892,0.0380064767348692,-0.002478400779457472,0.03801207535876532,0.7192026806397224,-1.515935397787297,-0.2379398535262806
49.349,5100.2979,0.19900044869770991,-0.059748872611639636,-0.07074200028200503,-0.0037243235814168633,0.007756459978097494,0.05193137240408052,0.6014080748000056,-1.4125684739048188,-0.31169424242714067
49.3754,5100.3179,0.18434711458647624,-0.02037322985176962,-0.09623476920946702,0.00760185744608646,0.014700105378059495,0.034448754983001664,0.6114792278242424,-1.4276673656103844,-0.2133550572259932
49.4055,5100.3379,0.146440449483891,-0.006820213220530336,-0.10988361229281052,0.060091750095857384,0.022639903666391816,0.0023379379152887957,0.6028745491191418,-1.329328180409235,-0.19737493963080643
49.4119,5100.3579,0.0967785646016107,0.008854014898092177,-0.11167826671314743,0.0950246592792345,0.020676655856367743,-0.06614399557101372,0.5942698704140412,-1.2309889952080852,-0.18139482203561966
49.4304,5100.3779,0.04037171634758361,0.0024972587245186695,-0.10456189124819593,0.09266327003660899,0.024812532914944823,-0.08141533348886325,0.6933886445244206,-1.2209178421838482,-0.18999950074072025
49.4486,5100.3979,-0.01006969667480449,-0.0018803554634619357,-0.09172554252634091,0.026841501887909833,0.02612416890007809,-0.02167612233888742,0.6933886445244206,-1.2209178421838482,-0.18999950074072025
49.4703,5100.4179,-0.05054463635990649,-0.0014600079719355175,-0.07668174271812092,-0.060605982189528236,0.01727970121365609,0.04680273804787757,0.6948551188435572,-1.1376775486882649,-0.07568019794438251
49.493,5100.4379,-0.08511055536660599,-0.002991786818506925,-0.06276870483018052,-0.08279642461111986,0.007457614603274553,0.04942814844478526,0.7939738929539366,-1.1276063956640279,-0.0842848766494831
49.5085,5100.4579,-0.11798215460068569,-0.014639610483107635,-0.052545268193885525,-0.01921052462143558,-0.012945528135974332,-0.008671256791961391,0.68478396581932,-1.1225786569826988,-0.17401938314553345
49.5291,5100.4779,-0.14518320985528108,-0.030822380477772027,-0.04689296811314522,0.06680402621480169,-0.014783251978685992,-0.03515117211505643,0.68478396581932,-1.1225786569826988,-0.17401938314553345
49.5513,5100.4979,-0.16122783791773518,-0.04262500476213352,-0.044941983289089216,-0.011691621271985943,-0.015714423558255877,-0.010486721074756114,0.7839027399296994,-1.1125075039584615,-0.18262406185063404
49.5733,5100.5179,-0.16294194779664367,-0.04444493856388562,-0.044693094989656124,-0.05690462408956678,-0.0519458199287606,0.058156242827313305,0.8916261927451788,-1.2007755361353742,-0.20720885815092138
49.6079,5100.5379,-0.15276768075317188,-0.03564894870431612,-0.04404685306160552,-0.03235072833841162,-0.04908462851339104,0.046135752524250784,0.8830215140400782,-1.1024363509342245,-0.1912287405557346
49.6181,5100.5579,-0.13573868664901137,-0.03880323429683222,-0.04182661334652801,-0.021995890860191318,-0.03419991397876591,-0.001714374058887564,0.9907449668555582,-1.1907043831111372,-0.21581353685602198
49.6341,5100.5779,-0.1142403636209268,-0.04697380826517142,-0.036891076097188225,-0.004662113036240509,-0.02439308910963227,-0.010678236637935351,0.973535609445357,-0.9940260127088382,-0.18385330166564842
49.6543,5100.5979,-0.08968384783063749,-0.062337059518807136,-0.028790349152738023,0.013275743237155175,-0.037414303662725794,0.010338199403346826,0.9821402881504576,-1.0923651979099875,-0.1998334192608352
49.6761,5100.6179,-0.06146264238854039,-0.07982855291152702,-0.017311494893199914,0.03988294109720627,-0.036746564920452675,0.005224438848905548,0.9806738138313215,-1.1756054914055716,-0.31415272205716943
49.693,5100.6379,-0.02876779428547719,-0.09254981373734752,-0.0027928450554742107,0.003908249784943641,-0.02889580706602257,-0.01658940506037645,0.989278492536422,-1.273944676606721,-0.33013283965235624
49.7091,5100.6579,0.00595075168268431,-0.10068381914563101,0.013215119740051087,-0.042287957073208815,-0.028303442972851593,0.0199086918311042,1.0079543242657594,-1.3873827535134362,-0.24777377204639553
49.7326,5100.6779,0.04006877233970361,-0.10299763405775245,0.02800870233648889,-0.055319406720741295,-0.04939258985819478,0.05093212335845535,1.01655900297086,-1.485721938714586,-0.26375388964158236
49.7498,5100.6978,0.07010980584209281,-0.1099171686288781,0.037986575956325985,-0.024636058476174675,-0.04880514122467041,0.02178660149650166,1.01655900297086,-1.485721938714586,-0.26375388964158236
49.7782,5100.7178,0.0912573917937948,-0.12304923573230284,0.04050429836745698,0.0162290323933556,-0.014633322590730661,-0.021254247234374482,0.9073690758362438,-1.4806942000332572,-0.35348839613762917
49.7984,5100.7378,0.1045716397256536,-0.13532612838122873,0.03519866957660128,0.04480647173705623,-0.013262629375880776,-0.0028496999520348392,0.9073690758362438,-1.4806942000332572,-0.35348839613762917
49.811,5100.7578,0.11206930778785831,-0.13621230819744332,0.02443839537884218,0.060151894970144386,-0.02440746632545955,-0.0024106154901117043,0.8987643971311432,-1.3823550148321075,-0.3375082785424424
49.8312,5100.7778,0.1143224430854666,-0.1283513148880326,0.01206983324006898,0.01409219905967257,-0.01320808449149606,-0.015843994036551737,0.7996456230207644,-1.3924261678563445,-0.32890359983734185
49.8529,5100.7978,0.1148024196763633,-0.10965236131142911,0.002127727710744487,-0.03733013020825277,0.012642821427650743,0.011400508451482234,0.7809697912914265,-1.278988090949629,-0.41126266744330603
49.8825,5100.8178,0.1130161156228729,-0.08922892533212942,-0.003246766763464415,-0.041207012060539845,0.01629718545378877,0.06329458817805486,0.7809697912914265,-1.278988090949629,-0.41126266744330603
49.8902,5100.8378,0.0955187899012338,-0.07568282757331263,-0.004134633789778824,0.011827142725216514,0.0038225593308588873,0.03482711499806308,0.6919221702052843,-1.3041581356794323,-0.3043188035370545
49.922,5100.8578,0.07210391590715311,-0.07960562904111401,-0.002927854544172312,0.061228258806688605,-0.0040401958859650165,-0.008708379834374827,0.6818510171810471,-1.289059243973866,-0.40265798873820546
49.9303,5100.8778,0.04184945101983751,-0.07052576751549314,-0.001711521018242415,0.03682234110911143,0.042554577800631224,-0.029490276918952268,0.6904556958861477,-1.3873984291750154,-0.4186381063333922
49.9615,5100.8978,0.02729979239043781,-0.05393596732711323,-0.0029064147852565225,-0.04640343023357756,0.07792767885993403,0.032918966033216264,0.6904556958861477,-1.3873984291750154,-0.4186381063333922
49.9855,5100.9178,0.008423825434016308,-0.03448496011596772,-0.007210409016331021,-0.10399571397954674,0.07100377881386738,0.12098637749214272,0.6919221702052843,-1.3041581356794323,-0.3043188035370545
49.9955,5100.9378,-0.02909564073815809,-0.03252618924670991,-0.013928145113821622,-0.061891425128236935,0.04113047765604121,0.0599111055872278,0.6919221702052843,-1.3041581356794323,-0.3043188035370545
50.0106,5100.9578,-0.066596610013841,-0.04320517712645472,-0.02012152075933782,0.014286476392472472,0.00975588884793363,-0.007995912437592501,0.6919221702052843,-1.3041581356794323,-0.3043188035370545
50.0312,5100.9778,-0.10112999657859889,-0.06664108064219781,-0.02148637073016632,0.06750084875750209,-0.0053140810381191545,-0.10831675514452671,0.6919221702052843,-1.3041581356794323,-0.3043188035370545
50.0481,5100.9978,-0.11605107244177329,-0.08430236031613023,-0.012603892926172824,0.025129423256942687,-0.020889218174583116,-0.0964236140862997,0.7910409443156637,-1.294086982655195,-0.3129234822421551
50.0688,5101.0178,-0.11005167350934439,-0.08919431931118701,0.01054399832362278,-0.06717225131488197,-0.042517223068015635,-0.020726165809844304,0.7910409443156637,-1.294086982655195,-0.3129234822421551
50.0971,5101.0378,-0.08997654482254629,-0.08152891567297171,0.048663064682194786,-0.10305611471801575,-0.0692344984607725,-0.03232896042376493,0.7996456230207644,-1.3924261678563445,-0.32890359983734185
50.1087,5101.0578,-0.03882274240913029,-0.09053893250049333,0.09774197723130798,-0.04414838816168967,-0.07002423053307053,-0.1142718074283638,0.7910409443156637,-1.294086982655195,-0.3129234822421551
50.1326,5101.0778,0.01350063874140111,-0.11352931656513424,0.15013646703675887,0.0567359672482203,-0.04061543521775576,-0.15300490815150355,0.90883555015538,-1.3974539065376732,-0.23916909334129494
50.1501,5101.0978,0.07949415508396661,-0.131208193211482,0.1961476478120861,0.15313724046504418,-0.019555700552885774,-0.04721689844331147,0.90883555015538,-1.3974539065376732,-0.23916909334129494
50.1731,5101.1178,0.13555298806082342,-0.1390703576735043,0.22484663507913857,0.0881625965833348,-0.023386913333350096,-0.005122564369996406,0.9174402288604806,-1.495793091738823,-0.25514921093648174
50.2015,5101.1377,0.16098562006752482,-0.1307078972801727,0.22647953689606617,-0.02117834697003412,-0.012974701294848184,-0.11655929980012407,0.8987643971311432,-1.3823550148321075,-0.3375082785424424
50.2192,5101.1577,0.15940594962414192,-0.12018676158486422,0.193317241279837,-0.03682988465410533,0.06550572938025144,-0.23335306234408432,0.9174402288604806,-1.495793091738823,-0.25514921093648174
50.2388,5101.1777,0.1235444901125032,-0.12560233893578063,0.12341735049030118,0.09243315281270073,0.1564538726167533,-0.2990909637913303,0.9174402288604806,-1.495793091738823,-0.25514921093648174
50.2508,5101.1977,0.0694992241299778,-0.12603648331988662,0.023837958317677682,0.20766830454355417,0.17650070997842818,-0.16929393371220355,1.0079543242657594,-1.3873827535134362,-0.24777377204639553
50.2708,5101.2177,0.00446877792242991,-0.13401367516089122,-0.09050499679622731,0.15998536411414416,0.13100145774311456,-0.033496246552102614,1.01655900297086,-1.485721938714586,-0.26375388964158236
50.2905,5101.2377,-0.060292305810831094,-0.11933582192368433,-0.19808464945202112,-0.03092587904500492,0.04420709384767528,0.06528632545032263,0.9073690758362438,-1.4806942000332572,-0.35348839613762917
50.3254,5101.2577,-0.10284986091979519,-0.07482187691679032,-0.2783480837663589,-0.0854252276056931,0.027713934541254547,0.057149618342798025,0.9159737545413443,-1.5790333852344067,-0.369468513732816
50.3332,5101.2777,-0.14612162852194108,-0.05593610657487971,-0.3187381744214889,-0.12369427788063574,0.07063879482631323,-0.02116574196769347,0.9159737545413443,-1.5790333852344067,-0.369468513732816
50.3497,5101.2977,-0.1597177059427511,-0.038804281952895536,-0.31310808904416054,-0.11231604999289489,0.007946190394989389,0.01525737129507132,1.0064878499466232,-1.4706230470090202,-0.3620930748427298
50.3791,5101.3177,-0.15568899017502877,-0.03611256087891293,-0.26552542550407343,-0.019677684929121225,-0.10791226747670984,0.00972235025602464,1.0064878499466232,-1.4706230470090202,-0.3620930748427298
50.4,5101.3377,-0.1220109213704759,-0.041803623266956524,-0.18563305518493353,0.08790069983366126,-0.11411237905136676,-0.09294326739804948,1.0064878499466232,-1.4706230470090202,-0.3620930748427298
50.4102,5101.3577,-0.05355379492707729,-0.04000290784528551,-0.086411791499302,0.026025913842422928,-0.044537682008642936,-0.14922143092487086,1.0064878499466232,-1.4706230470090202,-0.3620930748427298
50.432,5101.3777,0.018274083571284412,-0.032636036867083135,0.01765605772637148,-0.05265557017929769,-0.037065007474693025,-0.03876452255129117,1.0150925286517238,-1.5689622322101695,-0.37807319243791654
50.4518,5101.3977,0.09205772028542751,-0.024706970018451818,0.11311676986932859,-0.07587307391973526,-0.07152210758397791,0.015471873642791342,1.0064878499466232,-1.4706230470090202,-0.3620930748427298
50.4695,5101.4177,0.1483676980132561,-0.028072313456476733,0.1882733707739007,-0.024142230350218983,-0.0980003198070211,0.02660903221478454,0.9978831712415226,-1.3722838618078705,-0.346112957247543
50.4953,5101.4377,0.17189857135664122,-0.04542247587233203,0.23470744437434338,-0.00950081364992096,-0.03317079638185569,-0.012771017422997313,1.0064878499466232,-1.4706230470090202,-0.3620930748427298
50.5152,5101.4577,0.1633878591135189,-0.07328384307077973,0.24809451236007218,-0.010113636579558771,0.06497860852829071,-0.03988005768341672,1.0064878499466232,-1.4706230470090202,-0.3620930748427298
50.5294,5101.4777,0.12650512034858213,-0.09796062730610663,0.22951211097631719,-0.004399401882931123,0.0867559262811176,-0.04084341292644349,1.0064878499466232,-1.4706230470090202,-0.3620930748427298
50.549,5101.4977,0.0762038868974679,-0.11269761741238724,0.18502751184594998,0.001178376841206721,0.05080416943382794,0.03815860074471502,0.9978831712415226,-1.3722838618078705,-0.346112957247543
50.582,5101.5176,0.03177019852833781,-0.11525779870877181,0.12447941658343138,-0.005340482327453324,0.05162827421851418,0.1060470572483286,0.989278492536422,-1.273944676606721,-0.33013283965235624
50.5941,5101.5376,-0.03279336766076399,-0.10741622295051881,0.05906134997713658,0.009702545724831884,0.02683938219239752,0.08703342163764935,0.989278492536422,-1.273944676606721,-0.33013283965235624
50.6246,5101.5576,-0.09044690817512509,-0.10922109477420491,-0.0017906259566714128,0.07058247654427054,-0.023865541458330003,-0.03072959650044974,1.0797925879417007,-1.1655343383813344,-0.32275740076227005
50.6338,5101.5776,-0.11612276405006779,-0.08740467019316442,-0.04925035335953462,0.11637740004372012,-0.05861038145203952,-0.09043942881884673,1.0984684196710381,-1.2789724152880497,-0.24039833315630937
50.6519,5101.5976,-0.11471474020163189,-0.06857672512114663,-0.07956760179887143,0.09476974094120724,-0.04052427742332076,-0.04134715540263636,1.0984684196710381,-1.2789724152880497,-0.24039833315630937
50.6723,5101.6176,-0.0797374299080353,-0.044992956740095735,-0.09172958970089731,-0.02941560310164323,-0.010243202647886841,0.06857749213104211,1.0984684196710381,-1.2789724152880497,-0.24039833315630937
50.6905,5101.6376,-0.026858047392063288,-0.026547514630815727,-0.08879905019406772,-0.06580755314970643,-0.016152344955736107,0.09686008764285574,0.9978831712415226,-1.3722838618078705,-0.346112957247543
50.7106,5101.6576,0.02530225815389541,-0.02438889697916602,-0.07599243764149252,-0.030569315765508476,0.0034820849391444877,0.02172796675732546,1.1156777770812392,-1.475650785690349,-0.2723585683466829
50.7372,5101.6776,0.0629229065440329,-0.044386228923015913,-0.05899106633704712,0.030832270616010526,0.03654538343607014,-0.04160554161175239,1.2234012298967192,-1.5639188178672612,-0.2969433646469703
50.7498,5101.6976,0.08794632056467151,-0.06659816080385614,-0.042279224298079704,0.05904314313755024,-0.0021703025243837307,-0.01751219538950774,1.2234012298967192,-1.5639188178672612,-0.2969433646469703
50.7712,5101.7176,0.10328131912818221,-0.08677914521358412,-0.028927180896071214,0.03329180095075373,-0.04580067753242358,0.00388899271387394,1.221934755577583,-1.6471591113628452,-0.41126266744330453
50.791,5101.7376,0.1155676591572097,-0.08999407837040552,-0.019921151482354113,-0.008360010415542211,-0.03428426191761278,0.05589640835139089,1.2305394342826836,-1.745498296563995,-0.42724278503849134
50.8104,5101.7576,0.1221463776130523,-0.07978021558118462,-0.015216492880647414,-0.05617183154889892,0.013312265320749465,0.05070188674110315,1.2305394342826836,-1.745498296563995,-0.42724278503849134
50.8315,5101.7776,0.1183624000948765,-0.06449300699391061,-0.01403303202467071,-0.03784611888059303,0.03773840625439652,0.013445594731721635,1.2406105873069204,-1.7605971882695606,-0.3289035998373439
50.8511,5101.7976,0.1014070048014551,-0.050850880235490226,-0.014992905169736212,-0.0006913220909334122,0.02467644294400089,-0.035226893287661314,1.2406105873069204,-1.7605971882695606,-0.3289035998373439
50.8723,5101.8176,0.0754972924030797,-0.03881529898833164,-0.016177412646742717,0.017567424829484528,-0.0024020932893469883,-0.026967139274653766,1.2578199447171214,-1.9572755586718593,-0.3608638350277174
50.8899,5101.8376,0.04582058335327921,-0.025620964200600727,-0.015344689436004422,0.010704688088498655,-0.01245510196379415,0.031202209707567215,1.2578199447171214,-1.9572755586718593,-0.3608638350277174
50.9171,5101.8576,0.01593255978120171,-0.013172326846497134,-0.010571239585923514,-0.03471977391522299,0.0014987495073103911,0.03551548929447113,1.266424623422222,-2.055614743873009,-0.3768439526229042
50.9412,5101.8776,-0.01723924336365019,-0.00999953778766513,-0.0010121478856305183,-0.059664886552155225,0.0049728939293929774,0.0007041552771531998,1.2563534703979853,-2.0405158521674434,-0.47518313782405164
50.951,5101.8976,-0.05262262529913679,-0.023387994666606515,0.012596044332381276,-0.02254032074398692,0.009122141836040975,-0.03537747516500058,1.374148076237702,-2.1438827760499217,-0.4014287489231916
50.9804,5101.9176,-0.08628398336732139,-0.04807621513049323,0.02804574028509388,0.016318925660334826,0.004392182929506696,-0.012129108391596815,1.374148076237702,-2.1438827760499217,-0.4014287489231916
50.9934,5101.9375,-0.1093530975845396,-0.07707745529689222,0.04204450886448508,0.001607106724080149,-0.024014172084725498,-0.0019372352373496714,1.3655433975326015,-2.045543590848772,-0.38544863132800483
51.0201,5101.9575,-0.12074472955318509,-0.10449687033143293,0.05093502838355208,-0.028766848204834883,-0.051264687182839386,0.042332484536596326,1.3655433975326015,-2.045543590848772,-0.38544863132800483
51.04,5101.9775,-0.12003561841702089,-0.12542291347934112,0.05180638240308758,-0.006244221903293968,-0.024783273486164156,0.006202544969712479,1.2578199447171214,-1.9572755586718593,-0.3608638350277174
51.054,5101.9975,-0.10782427017412499,-0.13477131866200434,0.043606083632182185,0.05418818232410525,-0.013463607513583815,-0.01564743859013094,1.2764957764464593,-2.070713635578575,-0.2785047674217533
51.0729,5102.0175,-0.0875646096088623,-0.13241339294010654,0.02764263324695518,0.048050785766248584,-0.046536218280936195,-0.025689713258890825,1.1687723236309793,-1.9824456034016626,-0.25391997112146586
51.0919,5102.0376,-0.05843128061233469,-0.11707809278830031,0.007710577359792886,0.011414707747515728,-0.07631104092398924,0.00020434636836837348,1.1500964919016416,-1.869007526494947,-0.33627903872743004
51.1141,5102.0576,-0.02392351371389269,-0.09445307927675403,-0.01118562910920172,0.02095297267477866,-0.0419926400927085,0.008228700956800667,1.2592864190362583,-1.8740352651762762,-0.2465445322313797
51.133,5102.0776,0.012464112035317412,-0.06750093992747352,-0.02398119958580512,0.05452242233592212,-0.006427779077205211,0.017705156538709438,1.249215266012021,-1.8589363734707098,-0.34488371743253066
51.1522,5102.0976,0.04491062030212091,-0.04179062061906583,-0.027204608533402924,0.01348838055439301,-0.029527301574015372,-0.04189994454744832,1.2578199447171214,-1.9572755586718593,-0.3608638350277174
51.1804,5102.1177,0.06952429026678031,-0.020086138586739133,-0.019940795210107914,-0.036339875914817334,-0.06166865621161138,0.0067228821834080695,1.2578199447171214,-1.9572755586718593,-0.3608638350277174
51.2122,5102.1377,0.08610584975428631,-0.008391848378713734,-0.0042996352747962235,-0.034958733381787274,-0.038108856589097885,0.057412921511174116,1.2678910977413587,-1.9723744503774256,-0.2625246498265665
51.2165,5102.1577,0.0917008415145126,-0.015690832887188616,0.01528407082084518,-0.0040660233382996255,-0.015218399943242365,0.021104865095094683,1.2678910977413587,-1.9723744503774256,-0.2625246498265665
51.2358,5102.1778,0.0838152109134001,-0.036617052678615536,0.03364509482357438,0.014875414451707284,0.03451802531382147,-0.06450492720167358,1.2678910977413587,-1.9723744503774256,-0.2625246498265665
51.2539,5102.1978,0.06481184526668561,-0.061715193015611014,0.04629402149487098,0.01882460954781564,0.030458652786868868,-0.04503217052008644,1.2764957764464593,-2.070713635578575,-0.2785047674217533
51.2788,5102.2178,0.04038188875997371,-0.08292155645957391,0.05061419338907818,0.011817340195705838,-0.0011596974747333714,0.0005261613519391201,1.2764957764464593,-2.070713635578575,-0.2785047674217533
51.2913,5102.2378,0.01457261978529311,-0.09489955942414352,0.04634706314610748,-0.018279421160912843,-0.0027095676848055716,0.028213067249396772,1.2764957764464593,-2.070713635578575,-0.2785047674217533
51.3155,5102.2579,-0.00681605986167909,-0.10170192606685272,0.03515631880092018,-0.016200262022981523,0.0009486135959793695,0.006820729672683201,1.3655433975326015,-2.045543590848772,-0.38544863132800483
51.3344,5102.2779,-0.024183530260968387,-0.1067156707320003,0.02020853064681888,0.02262798695125628,0.0066386253189758175,-0.01492169540334646,1.473266850348081,-2.1338116230256845,-0.41003342762829215
51.3569,5102.2979,-0.03529570858548709,-0.11165645842171604,0.0052840376663457755,0.06806114349348279,-0.020241735163612787,-0.019969814551665965,1.473266850348081,-2.1338116230256845,-0.41003342762829215
51.385,5102.318,-0.038402248433401995,-0.11271002911776931,-0.006192567346366223,0.04077954263238308,-0.045619153893901886,-0.01609967591807472,1.4818715290531816,-2.232150808226834,-0.42601354522347895
51.3939,5102.338,-0.02653449660985209,-0.10299442265526385,-0.012283192131843215,-0.014575689265857297,-0.023476503628297545,-0.010142533926552089,1.4818715290531816,-2.232150808226834,-0.42601354522347895
51.4148,5102.358,-0.010344581215012489,-0.09127338420202322,-0.013739746021239022,-0.03307738316867219,-0.012132859024698765,0.017095945286388314,1.4904762077582823,-2.330489993427984,-0.44199366281866576
51.4298,5102.378,0.006674660279866109,-0.08233033946789131,-0.013046369579495412,-0.009088406982428283,-0.01060830115320055,-0.009969334036616567,1.4904762077582823,-2.330489993427984,-0.44199366281866576
51.4513,5102.3981,0.01952001053350981,-0.07653614895950933,-0.013232985879579523,0.025074807267870574,-0.007023606870901816,-0.009816170755665777,1.3827527549428027,-2.2422219612510714,-0.4174088665183784
51.4753,5102.4181,0.02585774466516311,-0.07094437527302014,-0.016339542259594317,0.016836496354928156,-0.0036143392944170344,-0.008449010233406795,1.374148076237702,-2.1438827760499217,-0.4014287489231916
51.4918,5102.4381,0.026471060446559412,-0.05912586188346142,-0.022306261643006614,0.018174392136002627,-0.013297433935268136,0.009807413651223616,1.4818715290531816,-2.232150808226834,-0.42601354522347895
51.5143,5102.4582,0.021505204136010612,-0.04596915811196303,-0.02922744156659042,0.005514148162387862,-0.01534464566538509,-0.0034976322585289136,1.4818715290531816,-2.232150808226834,-0.42601354522347895
51.5318,5102.4782,0.01341551346489461,-0.033139388576526235,-0.03407231230994362,0.004887972521603744,0.006623075943576288,-0.020561078902687883,1.4904762077582823,-2.330489993427984,-0.44199366281866576
51.5501,5102.4982,0.00340011607965531,-0.025726066559942334,-0.03447022178506243,0.005943634766277473,0.00921836457587652,-0.005363126601794725,1.4818715290531816,-2.232150808226834,-0.42601354522347895
51.5769,5102.5182,-0.0062916866972343895,-0.02545319445839664,-0.030037795299046613,-0.015615665571806624,0.012597511296837638,0.0271889875595083,1.372681601918566,-2.2271230695455055,-0.5157480517195259
51.5919,5102.5383,-0.01788660341086179,-0.03309905750232062,-0.022959337388473222,-0.03828692142657176,0.019297578208439206,0.008167976509938946,1.374148076237702,-2.1438827760499217,-0.4014287489231916
51.61,5102.5583,-0.026554139454192188,-0.045458629167646536,-0.017204563672992612,-0.02096456888562282,0.006527834883308457,-0.041530066287110506,1.266424623422222,-2.055614743873009,-0.3768439526229042
51.6333,5102.5783,-0.02951561216504519,-0.057890074302234334,-0.01687510387252042,0.004244289854928559,-0.0006176935801359085,0.02746814792149806,1.158701170606742,-1.9673467116960963,-0.3522591563226168
51.6533,5102.5984,-0.026486351363523588,-0.06610153905413824,-0.024361089681491713,-0.02668646669449461,-0.019406190158156835,0.05384443832818739,1.266424623422222,-2.055614743873009,-0.3768439526229042
51.6742,5102.6184,-0.01748281529610959,-0.06704840173457344,-0.03912532782379011,-0.03358145550400216,-0.03695631804949915,0.03197577032315576,1.2578199447171214,-1.9572755586718593,-0.3608638350277174
51.6914,5102.6384,-0.00452779675792729,-0.06238997007006172,-0.05770399542555213,-0.01650724524332233,-0.027960149600125706,0.0048947567305186925,1.2678910977413587,-1.9723744503774256,-0.2625246498265665
51.715,5102.6584,0.010388376783255309,-0.053393395197387034,-0.07461227312575003,-0.032886838009270815,0.01016662486785698,0.00994496558652372,1.2678910977413587,-1.9723744503774256,-0.2625246498265665
51.7319,5102.6784,0.01980603951373671,-0.04842026448414402,-0.08416004391043891,-0.04532990531241848,0.023967394046687386,0.01769052858491076,1.2592864190362583,-1.8740352651762762,-0.2465445322313797
51.7611,5102.6984,0.019778576921064512,-0.048087536523642116,-0.08183446026637531,-0.03826029955073997,0.012183328198933066,-0.02832495757431864,1.2678910977413587,-1.9723744503774256,-0.2625246498265665
51.7743,5102.7184,0.01416321019012291,-0.05742855551475623,-0.06575014859703501,-0.020185617495662334,-0.016927323859097104,-0.04583142224780878,1.2764957764464593,-2.070713635578575,-0.2785047674217533
51.7908,5102.7384,0.005557186017906809,-0.07172208935471733,-0.03666418004821312,-0.020470157387507147,-0.014788296523727831,-0.032427176684984585,1.2678910977413587,-1.9723744503774256,-0.2625246498265665
51.8106,5102.7583,-0.0004787632993323897,-0.08726211120508803,0.0021623598025716784,-0.04376368575126767,-0.0025294009378932867,0.04016533474272598,1.2678910977413587,-1.9723744503774256,-0.2625246498265665
51.835,5102.7783,-0.00252473635540559,-0.1026461680936486,0.04558644636083968,-0.0725925531816863,0.012054798266891162,0.03044942324485241,1.2592864190362583,-1.8740352651762762,-0.2465445322313797
51.8533,5102.7983,-0.00424547195442259,-0.1240564235244562,0.08711672086793568,-0.05365009403242423,0.014162407989610309,-0.025824683790579412,1.1515629662207783,-1.785767232999364,-0.22195973593109233
51.8776,5102.8183,-0.00339122869766029,-0.1470598127309046,0.12015874178608278,0.005369195892726187,0.006050523130748323,-0.05113374818987326,1.242077061626057,-1.6773568947739772,-0.21458429704100615
51.898,5102.8383,0.00534091763330711,-0.16356934607526705,0.13884626743750197,0.0519050526647761,-0.01636926854982203,-0.002813068605547411,1.3483340401224004,-1.8488652204464728,-0.3534883961376312
51.9127,5102.8583,0.02276376752751691,-0.1643495715501699,0.13904710690812788,0.014314698915114723,-0.032188082839406315,0.02842302140980123,1.3483340401224004,-1.8488652204464728,-0.3534883961376312
51.9347,5102.8783,0.044101244499292806,-0.15165797111143983,0.11894393427863428,-0.0015015563081755773,-0.009813737430374338,0.0427928348473192,1.3382628870981637,-1.8337663287409072,-0.4518275813387787
51.9599,5102.8983,0.06211506207187471,-0.129165382483746,0.08009804283975408,0.023095698974542105,0.016824773624280673,-0.004701058037427987,1.2391441129877843,-1.8438374817651442,-0.4432229026336781
51.9804,5102.9183,0.0702503667315011,-0.09919941930605841,0.027707557215051887,0.04208013834040614,0.027954038014406053,-0.028548679220651255,1.2406105873069204,-1.7605971882695606,-0.3289035998373439
51.9948,5102.9383,0.06553244428973881,-0.06362609524335283,-0.030099407333541314,0.03360398441711461,0.020452939994880685,0.028316815089783978,1.3210535296879624,-1.6370879583386082,-0.41986734614840515
52.0117,5102.9583,0.04988301510044581,-0.02925729767065402,-0.08385231470779642,-0.013771076704716046,0.014977924244373856,0.044134058409481376,1.3225200040070986,-1.5538476648430242,-0.3055480433520709
52.0343,5102.9783,0.025489941625200113,0.00011236485207757885,-0.1244710652941027,-0.03872830165830959,0.007814780856871435,0.02508969180342676,1.3311246827121992,-1.6521868500441739,-0.32152816094725767
52.0566,5102.9983,-0.00574579523153949,0.016651553144574283,-0.1453639710528115,-0.04676546850078015,0.021585259056535,-0.03719613547131434,1.4216387781174775,-1.5437765118187872,-0.31415272205717143
52.0765,5103.0183,-0.03570484299916169,0.014935644146699567,-0.14366482234495093,-0.034965429096677,-0.0011123341332152565,-0.055556553044294965,1.313915325301998,-1.4555084796418747,-0.2895679257568841
52.0897,5103.0383,-0.054076233796805595,-0.00329924138188023,-0.12056750525512991,-0.022943021155941143,-0.04097842488448214,-0.006379953776774601,1.3053106465968973,-1.3571692944407252,-0.2735878081616973
52.1226,5103.0583,-0.06700982073306579,-0.027017462202685638,-0.08093070971382263,-0.011136587443617075,-0.055701953025328606,-0.0011553157910190255,1.313915325301998,-1.4555084796418747,-0.2895679257568841
52.1331,5103.0783,-0.05555202880254629,-0.057309658477257136,-0.03235764600695781,-0.058391802361585796,-0.031666639677114784,-0.05598777037140199,1.296705967891797,-1.2588301092395757,-0.25760769056651056
52.1532,5103.0983,-0.036250295428891494,-0.07939861176322924,0.016288661449541386,-0.07705607454308773,-0.02381781474566408,-0.04168544219972831,1.3053106465968973,-1.3571692944407252,-0.2735878081616973
52.1734,5103.1183,-0.01055109816732019,-0.09605787856805162,0.05612241235500158,-0.052911085487527175,-0.025273403952070447,0.014628369281728474,1.3053106465968973,-1.3571692944407252,-0.2735878081616973
52.1967,5103.1383,0.01326117178728431,-0.10828612131665202,0.08019851955488698,-0.04591067323086775,-0.014069544028178074,0.03737274773097635,1.2162630255107552,-1.3823393391705285,-0.1666439442554458
52.2091,5103.1583,0.02264144747399861,-0.11952962591990682,0.08505172502989358,-0.015361243364719728,-0.01148588535558404,0.030288515753067034,1.2076583468056548,-1.284000153969379,-0.15066382666025904
52.2293,5103.1782,0.01656236346692701,-0.1282607771655991,0.07170310301571059,0.018371877676253357,0.03986558846186642,-0.0037912976503358567,1.1100060470144115,-1.2108310134980322,-0.027739845158824175
52.2507,5103.1982,-0.00433083958016409,-0.13046543147452275,0.04531005465704898,0.025080700233951,0.05321904494532195,-0.017335676552071688,1.2005201424196903,-1.1024206752726455,-0.020364406268738
52.2734,5103.2182,-0.03127921119932009,-0.12348403981998471,0.01361092201081568,-0.021726403039654826,0.03697308235795989,-0.007582642011784676,1.2005201424196903,-1.1024206752726455,-0.020364406268738
52.2908,5103.2382,-0.05794178178234169,-0.113282666268775,-0.015405636313156612,-0.06673814280362948,0.006784393946241867,0.02780004267155194,1.1100060470144115,-1.2108310134980322,-0.027739845158824175
52.3092,5103.2582,-0.07684174562534339,-0.10644434388910964,-0.03529086419495392,-0.031827274234604574,-0.023404103985471617,0.06804437082327038,1.2005201424196903,-1.1024206752726455,-0.020364406268738
52.3303,5103.2782,-0.08682360839851559,-0.10796991310670365,-0.042388708480368825,0.014975001509765808,-0.059435826778275865,0.03969969870079856,1.0827255365799735,-0.9990537513901674,-0.09411879516959808
52.3495,5103.2982,-0.0840819227654495,-0.11464897821937295,-0.03596428623207293,0.033370336898495216,-0.07440251693518338,-0.05703938503314678,1.0927966896042103,-1.014152643095733,0.004220390031549382
52.3716,5103.3182,-0.06695469536120649,-0.11889513779326075,-0.018062313396880816,0.0011789756413192918,-0.04642981685317288,-0.08981817101633847,1.101401368309311,-1.1124918282968825,-0.01175972756363738
52.3928,5103.3382,-0.03195940355596549,-0.11362869255776922,0.006941508518131578,-0.0334495065403456,-0.0233643062055741,-0.028692869050952436,1.0927966896042103,-1.014152643095733,0.004220390031549382
52.4117,5103.3582,0.011778603529074911,-0.10278786238664442,0.03286656865608038,-0.04853052108987271,-0.026322711353835793,0.042593206301360875,1.0927966896042103,-1.014152643095733,0.004220390031549382
52.431,5103.3782,0.049686220948778705,-0.09400020968584152,0.05353198787498998,-0.05307128871574064,-0.050008224201059236,0.0406621934759548,1.0927966896042103,-1.014152643095733,0.004220390031549382
52.4521,5103.3982,0.0712867960818376,-0.09440580592622272,0.06453077140161559,0.012966603655153905,-0.021365565582711313,-0.031268495235352044,1.1732396319852523,-0.8906434131647807,-0.08674335627951188
52.4734,5103.4182,0.07495935091705401,-0.10163379570217304,0.06453187054174028,0.07409866190968227,0.0035823400798214557,-0.021902794160776066,1.2809630848007323,-0.9789114453416933,-0.11132815257979928
52.4908,5103.4382,0.0655526759175441,-0.10422931149364492,0.055483811396237585,0.035329136069394085,0.009079778254543803,-0.007773542955056403,1.2723584060956317,-0.8805722601405437,-0.09534803498461247
52.5088,5103.4582,0.04728109300730211,-0.10073600109284492,0.04124047366015098,-0.048272339569203765,0.017955214124233527,0.02638346670872938,1.2723584060956317,-0.8805722601405437,-0.09534803498461247
52.5288,5103.4782,0.02452860927006091,-0.09550255435058744,0.02593903114155588,-0.09876383443189155,0.029156583983522413,0.025820474873452796,1.270891931776495,-0.9638125536361271,-0.20966733778095023
52.5528,5103.4982,0.00103767760178391,-0.09905132724558893,0.012536446983975588,-0.056352324393972336,0.01955504069301715,0.027456593067236922,1.270891931776495,-0.9638125536361271,-0.20966733778095023
52.5771,5103.5182,-0.02176770401529559,-0.11890903206182332,0.002526307742843778,0.028131234316663277,0.012567226857181589,0.012758941371054613,1.270891931776495,-0.9638125536361271,-0.20966733778095023
52.5918,5103.5382,-0.036289007286617596,-0.13694114130679744,-0.0029955187889377233,0.08860667121592379,-0.014877766277224192,-0.0113153516340573,1.2622872530713944,-0.8654733684349775,-0.19368722018576343
52.6342,5103.5582,-0.04604738704800199,-0.1580666581826576,-0.004036480187995614,0.044941015395885166,-0.030680271191068524,-0.021685956257407525,1.1717731576661157,-0.9738837066603641,-0.20106265907584964
52.6368,5103.5782,-0.02214463397984449,-0.15334435238086733,0.00012137057663758055,-0.045251952736836985,-0.032513492531386814,-0.047518308045952994,1.270891931776495,-0.9638125536361271,-0.20966733778095023
52.6498,5103.5981,0.01242735580763061,-0.14021130999854983,0.007542088479982986,-0.04345733692245705,-0.022231958981443287,-0.02190119614901654,1.161702004641879,-0.9587848149547984,-0.29940184427699706
52.6705,5103.6181,0.052136782499821906,-0.12710125524143265,0.015465768889038181,-0.02740487838670275,-0.00550719939006382,-0.009171188624727739,1.1530973259367783,-0.8604456297536487,-0.28342172668181026
52.6888,5103.6381,0.0873372918890886,-0.12155125571662842,0.020505068951397185,0.00981964316212078,-0.016497445662332688,0.002097621531453493,1.2622872530713944,-0.8654733684349775,-0.19368722018576343
52.71,5103.6581,0.10817968208543571,-0.11985305390622794,0.019982840425686682,0.05393379238304712,0.0003365632413661391,-0.016604033014175127,1.1717731576661157,-0.9738837066603641,-0.20106265907584964
52.7335,5103.6781,0.111050987658769,-0.11416823732546102,0.012698604061849389,-0.002451846649181729,0.023882437895410225,-0.035168504396448134,1.270891931776495,-0.9638125536361271,-0.20966733778095023
52.7544,5103.6981,0.0959213185928356,-0.10435465598223612,-0.0007895911345595225,-0.05430407596901942,0.03959791583641245,-0.010676761550157347,1.181844310690353,-0.9889825983659304,-0.10272347387469868
52.777,5103.7181,0.0647184430046494,-0.09862304176799383,-0.01812855403875381,-0.042250607321521555,0.03844398843643682,-0.0009025840850520904,1.181844310690353,-0.9889825983659304,-0.10272347387469868
52.791,5103.7381,0.01687537685057821,-0.102698791014072,-0.035367534536283024,0.015197879165912129,0.03075128572290898,0.019987117331302106,1.2005201424196903,-1.1024206752726455,-0.020364406268738
52.8096,5103.7581,-0.037586202338693996,-0.11596240798537402,-0.04788901150197261,0.035153747196368504,0.02014707966055044,-0.011018736066694339,1.2005201424196903,-1.1024206752726455,-0.020364406268738
52.8348,5103.7781,-0.08962611472983689,-0.13101224953355203,-0.05149129361067961,-0.016601641088113378,0.013412945768914804,-0.047132941363945996,1.2005201424196903,-1.1024206752726455,-0.020364406268738
52.8516,5103.7981,-0.12765214324262347,-0.14480718941487172,-0.04398035068266132,-0.07416713025530507,0.017632821965391298,-0.023810943125622874,1.1919154637145897,-1.004081490071496,-0.004384288673551239
52.8718,5103.8181,-0.14546267219054818,-0.15746658285958323,-0.02611558187382132,-0.07035706342585696,0.011242058200269937,-0.0015803869190510072,1.1100060470144115,-1.2108310134980322,-0.027739845158824175
52.8914,5103.8381,-0.14378708230544177,-0.17501881801012972,-0.0016703180768139203,-0.02893555611706233,-0.03355659675738285,0.032642264150856554,1.1186107257195121,-1.3091701986991817,-0.04371996275401097
52.9133,5103.8581,-0.1273163876613768,-0.19571737688608384,0.02427293408407008,0.017199354236966724,-0.06440128651771496,0.0026811416716408243,1.2364053315592292,-1.4125371225816605,0.030034426146852627
52.9404,5103.8781,-0.10163069909508739,-0.21216163901084253,0.047034808317531686,0.04220206734111839,-0.056852293422305425,-0.03412844458896447,1.2364053315592292,-1.4125371225816605,0.030034426146852627
52.952,5103.8981,-0.05718151329970189,-0.20891917583201605,0.06375527831134388,0.00794533699135451,-0.05142823228214678,-0.024814740358563594,1.2550811632885668,-1.5259751994883763,0.11239349375281675
52.9784,5103.9181,-0.01142272900632349,-0.18774667436907513,0.07232470386080758,-0.02816597053188445,-0.03412328915941582,-0.001691018502402291,1.2636858419936674,-1.6243143846895258,0.09641337615762999
52.9918,5103.9381,0.031152199212376313,-0.16444612093598313,0.07184396149398219,-0.06053775850028002,-0.0007171409491806518,0.012346285565154292,1.2550811632885668,-1.5259751994883763,0.11239349375281675
53.0186,5103.9581,0.05936357482777851,-0.1471925796638299,0.06316961944797198,-0.015698837146749602,0.0007180435819002504,0.012326863576077065,1.1372865574488498,-1.4226082756058975,0.03863910485195319
53.0336,5103.9781,0.06595162433115931,-0.13608328164339203,0.048675761145947086,0.08660599312891035,-0.025908588139927732,0.009557263348868198,1.2536146889694304,-1.6092154929839595,-0.0019258090435209322
53.0539,5103.998,0.05280740714298231,-0.13228472772595581,0.03137394281692138,0.10113694702742107,-0.03969663269433613,-0.02386306289377947,1.2521482146502938,-1.6924557864795429,-0.11624511183985871
53.0739,5104.018,0.029802798896918312,-0.12414879815100602,0.014490434108612185,-0.011840141398942551,-0.013407050678751782,-0.009496937175706543,1.134353608810577,-1.5890888625970645,-0.18999950074071875
53.0902,5104.038,0.00395106564731981,-0.11419855725097602,-0.00015713817088101878,-0.07396432153007931,0.03596786510566825,-0.01419324788896895,1.1429582875156776,-1.6874280477982142,-0.20597961833590556
53.1116,5104.058,-0.02106037905636389,-0.10829061461293363,-0.012356710143175312,-0.032097911386853965,0.009951749183092967,0.011692084135603643,1.1429582875156776,-1.6874280477982142,-0.20597961833590556
53.1336,5104.078,-0.045508711525988794,-0.11353107399310883,-0.023106532270271124,0.0174789816130508,-0.022091313672961504,-0.0014065724092079688,1.1515629662207783,-1.785767232999364,-0.22195973593109233
53.1521,5104.098,-0.0648363884119588,-0.12477402546950764,-0.03317529811692521,0.04428490033090569,-0.06049609901987455,-0.014400743569743357,1.2592864190362583,-1.8740352651762762,-0.2465445322313797
53.1847,5104.118,-0.08058536259402689,-0.13954272791889652,-0.042497318462871525,0.024184102739949722,-0.06533555512323493,-0.003140046396341223,1.2506817403311576,-1.7756960799751267,-0.23056441463619295
53.1961,5104.138,-0.0757243848923241,-0.14733227583709294,-0.04943724510283182,-0.017234532863316877,-0.01986257680018808,-0.02236203815566543,1.242077061626057,-1.6773568947739772,-0.21458429704100615
53.2123,5104.158,-0.06327334783053289,-0.15581738083089144,-0.052660428202390724,-0.050256143420060115,0.0072786867054489114,-0.01605357942501169,1.2334723829209564,-1.5790177095728275,-0.19860417944581935
53.2326,5104.178,-0.04856379861831879,-0.16851548775509914,-0.05124294891599171,-0.03348701492872317,-0.0031713531955446825,0.022866119902047267,1.3225200040070986,-1.5538476648430242,-0.3055480433520709
53.2516,5104.198,-0.03758005302653179,-0.18686100417106102,-0.04548790544104653,0.0036812445224644655,-0.0342957469234034,0.024215825218933052,1.3239864783262352,-1.470607371347441,-0.1912287405557332
53.2721,5104.2181,-0.030906563478307288,-0.2048703160513026,-0.03667468852461331,0.0067424822554288015,-0.04357703530013868,-0.0011247077196251713,1.3239864783262352,-1.470607371347441,-0.1912287405557332
53.2913,5104.2381,-0.02538836299438219,-0.21507704938416364,-0.026545611016148718,0.002184202046052916,-0.04837383290727141,0.025939588211527705,1.3239864783262352,-1.470607371347441,-0.1912287405557332
53.313,5104.2581,-0.019434512241992188,-0.2143924718402552,-0.01666911269646612,-0.014623798167101567,-0.011102401899791593,0.032142946937997706,1.3239864783262352,-1.470607371347441,-0.1912287405557332
53.3427,5104.2781,-0.014212999511633191,-0.20463366857391244,-0.007947554688455219,-0.01775350258908551,0.009539934351453483,-0.0010157970720149055,1.2248677042158558,-1.480678524371678,-0.1826240618506326
53.3539,5104.2982,-0.01017364731962119,-0.19284710329734464,-0.0006188594992856122,-0.010591228128871987,-0.015064630908129664,-0.025407233949400525,1.2162630255107552,-1.3823393391705285,-0.1666439442554458
53.376,5104.3182,-0.00825320689788879,-0.1828369178273941,0.005655212325087783,-0.0006610127721910325,-0.05693137784162629,0.0044165824424781085,1.226334178534992,-1.3974382308760942,-0.06830475905429835
53.3926,5104.3382,-0.00307896110186529,-0.17485530716581524,0.011274515699108187,0.022061569826503147,-0.0451437503981312,0.024399842419240706,1.2177294998298915,-1.2990990456749447,-0.052324641459111594
53.4124,5104.3583,0.00465079776162831,-0.16965542040846351,0.016177828725527782,-0.0060592547471876885,-0.006488612413093086,0.00836207347672972,1.2177294998298915,-1.2990990456749447,-0.052324641459111594
53.4319,5104.3783,0.013397212741437611,-0.1681515324191172,0.019746570415745887,-0.03716736958439847,0.0013784142978873414,-0.007114178718282694,1.2076583468056548,-1.284000153969379,-0.15066382666025904
53.4514,5104.3983,0.01982454268186291,-0.1729502501934603,0.020931697683348183,-0.026026994427595568,-0.013314444637003015,-0.0024369212221530146,1.0999348939901747,-1.1957321217924664,-0.12607903035997164
53.4736,5104.4183,0.02144901385452881,-0.18510645973602044,0.018805136685322688,0.01688719447209517,-0.02479374634775435,0.045443075888490184,1.0999348939901747,-1.1957321217924664,-0.12607903035997164
53.4895,5104.4384,0.017077550834240812,-0.19884447928198815,0.013309967371922277,0.03300120529316625,-0.006151012874280904,0.004413632266922065,1.0913302152850741,-1.0973929365913169,-0.11009891276478484
53.5119,5104.4584,0.007695467678885311,-0.21090216382521063,0.005309491332372282,-0.0018261903726141436,0.016839223306066405,-0.022026701534129518,1.0913302152850741,-1.0973929365913169,-0.11009891276478484
53.5331,5104.4784,-0.00630468190759369,-0.215634224305101,-0.0033776168698643194,-0.028529893850767988,0.018698691627824646,0.01328997297114082,0.9922114411746948,-1.1074640896155539,-0.10149423405968425
53.5556,5104.4985,-0.02375087513753229,-0.21506098045091174,-0.010923938197845123,-0.02834119356537747,0.004170688366218731,0.034021717071265674,0.9922114411746948,-1.1074640896155539,-0.10149423405968425
53.5806,5104.5185,-0.04318784002020269,-0.21457890212422862,-0.015934693005929923,-0.018237550285223635,-0.022386663406968012,0.02704848544865216,0.973535609445357,-0.9940260127088382,-0.18385330166564842
53.5949,5104.5385,-0.061159912898608795,-0.21530200219973464,-0.017439827325122018,0.010609535515703808,-0.03678335827471018,0.008837051741251278,0.9821402881504576,-1.0923651979099875,-0.1998334192608352
53.6116,5104.5585,-0.0714496322850894,-0.2151929697664879,-0.014923935639780617,0.04102586213833445,-0.0181085196762033,-0.00941974091532364,1.0898637409659375,-1.1806332300869002,-0.22441821556112257
53.6331,5104.5786,-0.07034833057801969,-0.2108236949876722,-0.008408725846667714,0.020403557149171397,-0.027377891228625488,-0.009351272257627337,1.1990536681005541,-1.1856609687682294,-0.13468370906507224
53.653,5104.5986,-0.05352686281817319,-0.19954311576920633,0.0013250086825383756,-0.019140728466800993,-0.04040891276036963,-0.011654498899019759,1.0984684196710381,-1.2789724152880497,-0.24039833315630937
53.6758,5104.6186,-0.02398425837422729,-0.18662867353145893,0.01228246240019329,-0.040109056798830686,-0.04842230325145884,0.007281817527295099,1.0898637409659375,-1.1806332300869002,-0.22441821556112257
53.6931,5104.6387,0.01155663544266191,-0.1813004068141025,0.021696662083611082,-0.013831129729064622,-0.04367004119164243,0.04569076771121559,1.0984684196710381,-1.2789724152880497,-0.24039833315630937
53.7328,5104.6587,0.04196729907008521,-0.1878816584399803,0.027028858843267778,0.012658258703169346,-0.02388876613145917,0.0261451171085981,1.0984684196710381,-1.2789724152880497,-0.24039833315630937
53.7438,5104.6787,0.0634745817973642,-0.1945146402507172,0.027129766079445283,0.025659837019054606,0.003300338829852101,-0.019466563771399086,1.0898637409659375,-1.1806332300869002,-0.22441821556112257
53.754,5104.6987,0.0715318467526336,-0.2015766311555934,0.021816558192920277,-0.016849805992189704,0.012444830386929952,-0.029857205003734053,1.081259062260837,-1.0822940448857505,-0.2084380979659358
53.7759,5104.7188,0.07004292046235681,-0.20568794894212913,0.012366433774601782,-0.046230944807994674,0.01309927399612965,0.02294761850178272,1.081259062260837,-1.0822940448857505,-0.2084380979659358
53.7897,5104.7388,0.05349052736537211,-0.21045584833502953,0.0007904139396558846,-0.015632375570227376,0.019712768421646203,0.06368106117589538,1.0898637409659375,-1.1806332300869002,-0.22441821556112257
53.8115,5104.7588,0.02795486584028441,-0.2166546008726132,-0.010623709077448418,0.023560421479190206,0.020529373571159505,0.02625562576796788,1.188982515076317,-1.1705620770626632,-0.2330228942662232
53.8294,5104.7789,-0.00339421523267309,-0.21906677776261915,-0.01961738825624372,0.020213111695448822,-0.0216413717575103,-0.03330374759707133,1.1990536681005541,-1.1856609687682294,-0.13468370906507224
53.8528,5104.7988,-0.03033899778579309,-0.21464297292015475,-0.024623561998410814,0.012139110509686864,-0.021688501063087992,-0.04117850370001638,1.1904489893954535,-1.0873217835670799,-0.11870359146988545
53.88,5104.8188,-0.044532355268898094,-0.2010639959365397,-0.024857880141260516,-0.035926821867221216,0.03157644038729012,0.014163839555634532,1.181844310690353,-0.9889825983659304,-0.10272347387469868
53.8969,5104.8388,-0.04860963363083439,-0.18872755219699042,-0.02086450808604781,-0.05484336492765237,0.0032783610779318273,0.03287704895552429,1.181844310690353,-0.9889825983659304,-0.10272347387469868
53.9186,5104.8588,-0.047512267680860296,-0.18171211903810572,-0.013624820903430923,-0.006040215684160789,-0.040303344561971925,-0.016701757579468762,1.0827255365799735,-0.9990537513901674,-0.09411879516959808
53.9399,5104.8788,-0.04347565818604059,-0.18109180700373004,-0.004390887353956721,0.04276060106301807,-0.05270125024401608,-0.04410360276382457,0.9750020837644936,-0.9107857192132548,-0.06953399886931068
53.9543,5104.8988,-0.03268562312266289,-0.1804539389812608,0.005702437758450779,0.004763035334267217,-0.005640499058292019,-0.02926471141289712,1.0741208578748729,-0.9007145661890178,-0.07813867757441127
53.9836,5104.9188,-0.02005415363904449,-0.17756757138102672,0.01529926407262898,-0.03840830374518662,0.004050518992608917,0.010191674017397106,1.0741208578748729,-0.9007145661890178,-0.07813867757441127
53.9994,5104.9388,-0.00874867469886989,-0.17754435936429555,0.022841798935612084,-0.03785735218319369,0.0010653582841184074,0.005955098994950082,1.0741208578748729,-0.9007145661890178,-0.07813867757441127
54.0354,5104.9588,-0.00122842533531069,-0.18290348135007792,0.02704279428161238,-0.009792798696462187,-0.0051423958499559426,0.009581602297205475,1.0569115004646719,-0.7040361957867187,-0.04617844238403772
54.0415,5104.9788,-0.00830925805136149,-0.1931875858062376,0.027146188656039877,0.02642149386142213,0.0028871177742232626,0.010207162439066287,0.9663974050593931,-0.8124465340121053,-0.0535538812741239
54.0609,5104.9988,-0.02263336648686309,-0.21039572339559184,0.022957014177165683,0.025621721896456836,0.012888797373826607,0.005611526466653563,0.9750020837644936,-0.9107857192132548,-0.06953399886931068
54.0779,5105.0188,-0.040628874377407594,-0.22508941243223943,0.015410274758223985,-0.023419924026369547,0.029303322206128146,-0.014800000661660043,1.0741208578748729,-0.9007145661890178,-0.07813867757441127
54.0923,5105.0388,-0.05807148803682939,-0.2352818451491164,0.005701543410843279,-0.02872418082578946,0.028751971342355718,0.008640250446867464,0.9663974050593931,-0.8124465340121053,-0.0535538812741239
54.115,5105.0588,-0.0675121017661548,-0.23858236510254935,-0.004788494418122319,-0.021730831364820267,0.017895120359850684,0.04104485583036876,0.9663974050593931,-0.8124465340121053,-0.0535538812741239
54.1325,5105.0788,-0.0753363556453225,-0.2400537274829578,-0.015200221931490523,-0.02496356147432044,-0.013195106960147342,0.07387133631838298,1.0569115004646719,-0.7040361957867187,-0.04617844238403772
54.1552,5105.0988,-0.07939829482328849,-0.2399754584447156,-0.02456126274761622,-0.0022618333184560545,-0.024334857312883176,0.017039154406934653,1.0741208578748729,-0.9007145661890178,-0.07813867757441127
54.1746,5105.1188,-0.07736062038111999,-0.23424020405825532,-0.03160339484689911,0.057103155997452235,-0.03735902092326362,-0.031420920972413814,1.0741208578748729,-0.9007145661890178,-0.07813867757441127
54.1975,5105.1388,-0.06623562454032689,-0.22129608439275553,-0.03492559962517591,0.06162432819953278,-0.022975274661326952,-0.03339729274699393,1.0741208578748729,-0.9007145661890178,-0.07813867757441127
54.2108,5105.1588,-0.04353105071249969,-0.19764002383997745,-0.03313343586110873,-0.007892723737195038,-0.01597468109872339,0.0046121544970468865,1.0741208578748729,-0.9007145661890178,-0.07813867757441127
54.2318,5105.1788,-0.01825186169308819,-0.1738010063743147,-0.026081173499625215,-0.027145679591383344,-0.023938042765142716,0.04325048083044906,1.0741208578748729,-0.9007145661890178,-0.07813867757441127
54.2562,5105.1988,0.0005331573039732101,-0.15793976338816781,-0.014627143094984113,0.019867329750557366,-0.03350672095875081,0.012744313417255954,1.0741208578748729,-0.9007145661890178,-0.07813867757441127
54.2793,5105.2187,0.00919327435613761,-0.15279437986119435,-0.0007116110547617238,0.039021292163550055,-0.02599057710723878,-0.034646937942937536,1.0827255365799735,-0.9990537513901674,-0.09411879516959808
54.292,5105.2387,0.012822898133013811,-0.1511334998569089,0.013173107802440576,0.007367134324286427,0.008266941055774153,-0.02552499512367891,1.0741208578748729,-0.9007145661890178,-0.07813867757441127
54.3137,5105.2587,0.014250392179211011,-0.1522553156330196,0.024395601091682984,-0.017042642916665674,0.021834395238083868,0.00017877818021605488,1.0827255365799735,-0.9990537513901674,-0.09411879516959808
54.339,5105.2787,0.01627824470901001,-0.1529098004980924,0.03139848251057458,-0.015465216761326095,-0.005803332251511255,0.06409851101707426,1.1904489893954535,-1.0873217835670799,-0.11870359146988545
54.3552,5105.2987,0.01046731768694711,-0.15823292178439494,0.033934288462265684,-0.008883833811414943,-0.01583628025049589,0.06436525605693237,1.181844310690353,-0.9889825983659304,-0.10272347387469868
54.3775,5105.3187,-0.0007639005647693898,-0.17163189891192984,0.03332761006055628,0.025510405483224547,-0.04100758647494721,0.01225532181884324,1.1904489893954535,-1.0873217835670799,-0.11870359146988545
54.3919,5105.3387,-0.012025690779483289,-0.18721252142119602,0.03216083890515948,0.05263302731843008,-0.03640612173443904,-0.03205742134862826,1.1904489893954535,-1.0873217835670799,-0.11870359146988545
54.413,5105.3587,-0.02077061953054099,-0.2053932483921321,0.032703885369290184,0.011061520344913013,-0.00240175632281541,-0.03810687925025848,1.1990536681005541,-1.1856609687682294,-0.13468370906507224
54.4295,5105.3787,-0.02169646232422619,-0.21855738726024473,0.036160979160498784,-0.02303662792833236,0.029919938228560317,0.0045152903996237455,1.209124821124791,-1.2007598604737952,-0.036344523863924796
54.4509,5105.3987,-0.01670656504410819,-0.22634571087898062,0.04127762104844168,-0.03640402545648221,-0.0020069471640128084,0.033278641603089486,1.209124821124791,-1.2007598604737952,-0.036344523863924796
54.4749,5105.4187,-0.011979587839924689,-0.23396963873738305,0.04453694886364238,-0.027592716078312443,-0.034601911485953,0.039798037885999706,1.2996389165300697,-1.0923495222484085,-0.028969084973838592
54.4889,5105.4387,-0.011344840465111791,-0.23993366891918813,0.04195780645765948,0.027631969233798386,-0.03664402933864817,0.01332832525336928,1.2981724422109335,-1.1755898157439924,-0.14328838777017283
54.5118,5105.4587,-0.015377302055526489,-0.24528962336787793,0.030630072744756084,0.09944923579975506,-0.023465647235295924,-0.010012357430142067,1.2981724422109335,-1.1755898157439924,-0.14328838777017283
54.5328,5105.4787,-0.01718761403781819,-0.2334678745936237,0.011035180016958884,0.07564874864104497,0.006932777435676694,-0.05695518210581831,1.289567763505833,-1.0772506305428426,-0.12730827017498603
54.5523,5105.4987,-0.01444472529809589,-0.2039019309142935,-0.014026438970946423,-0.019428481253182667,0.005713976226849514,-0.03187733771572867,1.1904489893954535,-1.0873217835670799,-0.11870359146988545
54.5729,5105.5187,-0.009784698487356691,-0.16817838945550553,-0.040114365378589006,-0.057304271060294704,0.006811574022415645,0.04422686601551497,1.291034237824969,-0.994010337047259,-0.012988967378651833
54.5948,5105.5387,-0.00948943358657759,-0.14150946464128275,-0.06218986549914832,-0.016095939710409967,0.0014049300237330047,0.06526985363680145,1.1904489893954535,-1.0873217835670799,-0.11870359146988545
54.6134,5105.5587,-0.01861596889221199,-0.13051495103625263,-0.07581804449263202,0.05287595788054722,-0.03825818530149192,0.025402779184310924,1.1904489893954535,-1.0873217835670799,-0.11870359146988545
54.6555,5105.5787,-0.03786533443821679,-0.13560457976254162,-0.07860260025983862,0.023414854095453873,-0.03904128490042518,-0.023876830379707635,1.209124821124791,-1.2007598604737952,-0.036344523863924796
54.6586,5105.5987,-0.04877026425467009,-0.1423321098419202,-0.07040672829939112,-0.05301892471639071,0.0018076158063701294,-0.025925358531429087,1.209124821124791,-1.2007598604737952,-0.036344523863924796
54.6729,5105.6186,-0.05552110974187449,-0.15010130667072893,-0.054020868104594305,-0.07160997793159883,0.021029652551605715,0.002531911958098062,1.2177294998298915,-1.2990990456749447,-0.052324641459111594
54.6914,5105.6386,-0.05474888038460239,-0.15864044319099854,-0.03369116106823561,-0.01949706406816089,-0.028547934459113602,0.03368527413389624,1.2177294998298915,-1.2990990456749447,-0.052324641459111594
54.7148,5105.6586,-0.04941179332620499,-0.1704410380156536,-0.013798261941016313,-0.004677141874272651,-0.05128990238926494,0.028675753115768185,1.2177294998298915,-1.2990990456749447,-0.052324641459111594
54.7284,5105.6786,-0.04324897815735039,-0.18310517743391572,0.002707812614269778,0.006959691191924685,-0.03801228028866305,0.022068834958028954,1.209124821124791,-1.2007598604737952,-0.036344523863924796
54.7502,5105.6986,-0.041198560847971695,-0.19645754348806624,0.014611204145674683,0.03132318222059539,-0.028909320616328227,-0.013196088551029283,1.316848273940271,-1.2890278926507077,-0.06092932016421219
54.7729,5105.7186,-0.04076494734459019,-0.20420708865384132,0.022392041506822488,0.018964721221301356,-0.03939262348153929,-0.04707701095236283,1.3239864783262352,-1.470607371347441,-0.1912287405557332
54.7897,5105.7386,-0.037630803861034894,-0.20590419026394144,0.026973354882849784,-0.023081059753165364,-0.02653369805906249,-0.026509370367542407,1.3426623100555726,-1.5840454482541562,-0.10886967294977251
54.8185,5105.7586,-0.03318914853018189,-0.20158211535376733,0.029235845400749888,-0.05034842815779273,-0.00809377343474971,0.028809740255604746,1.334057631350472,-1.4857062630530067,-0.09288955535458575
54.8337,5105.7786,-0.032714996117586194,-0.20309737657834984,0.029511186754704988,-0.023557182583946533,-0.016652294278706264,0.0576686033926971,1.3426623100555726,-1.5840454482541562,-0.10886967294977251
54.851,5105.7986,-0.035575695515460096,-0.20748352003509432,0.02884945877680388,0.020307352859370215,-0.0439284136308977,0.019793512060437356,1.3512669887606732,-1.6823846334553059,-0.1248497905449593
54.8726,5105.8186,-0.04039277884904929,-0.21368720203691813,0.028614790348260477,0.05937824757305828,-0.06299863893018996,-0.013839349746226295,1.2521482146502938,-1.6924557864795429,-0.11624511183985871
54.8917,5105.8386,-0.03895130936553539,-0.2128289455399668,0.030624659895884684,0.03341336561453584,-0.04531284511850478,-0.029585543004615866,1.262219367674531,-1.7075546781851092,-0.017905926638707728
54.91,5105.8586,-0.02818447538192339,-0.20355202515431894,0.03571765022324378,-0.014442270974199721,-0.04290271267581267,0.025370696025139056,1.3613381417849104,-1.697483525160872,-0.02651060534380835
54.9312,5105.8786,-0.010946818867276688,-0.188993813044831,0.04295235581866988,-0.03285647840242363,-0.04438034206753951,0.024548457512875942,1.2536146889694304,-1.6092154929839595,-0.0019258090435209322
54.9526,5105.8986,0.007319825333699109,-0.17751088918958044,0.04941709759460238,-0.03400639479959202,-0.04675986895704364,0.015606475402535416,1.3426623100555726,-1.5840454482541562,-0.10886967294977251
54.9755,5105.9186,0.019993147343455912,-0.17591077092169524,0.051368792436690285,-0.012487862600820606,-0.017507379800145474,-0.007578954292339623,1.2349388572400926,-1.495777416077244,-0.08428487664948515
55.0019,5105.9386,0.02192963848073041,-0.18665134195532854,0.04593990912152148,0.058254749599188575,-0.0011372335145360016,0.01006112874904258,1.2349388572400926,-1.495777416077244,-0.08428487664948515
55.0141,5105.9586,0.014162014400611312,-0.1918253228067436,0.033207562603093585,0.054083496929983016,0.0016756541335274106,-0.013312251713548147,1.226334178534992,-1.3974382308760942,-0.06830475905429835
55.0368,5105.9786,-0.00404349187801729,-0.2000615324693876,0.01514936700038809,0.04351899537564204,-0.0166271852454329,-0.028707497004751104,1.3254529526453713,-1.3873670778518572,-0.07690943775939894
55.0515,5105.9986,-0.02422847475654599,-0.1983542613135916,-0.0035251289067147196,0.01791631032101249,-0.029539356049666524,-0.005086301795453481,1.1272154044246125,-1.4075093839003312,-0.059700080349197736
55.088,5106.0186,-0.039626281814145896,-0.18965137487287184,-0.01836545185662991,-0.021399664157040088,0.00800035227093432,0.033278518679107985,1.1286818787437494,-1.324269090404748,0.05461922244713995
55.0955,5106.0385,-0.05737839919112879,-0.1895574308844127,-0.02682842000802342,-0.05179773102502569,0.009582545047912651,0.01862548838821069,1.0194919516091328,-1.3192413517234187,-0.03511528404891038
55.112,5106.0585,-0.0706919522826745,-0.19439134848494924,-0.027977720995595923,-0.008230490222170598,-0.022028778413288392,0.014902981456402686,1.0194919516091328,-1.3192413517234187,-0.03511528404891038
55.1334,5106.0785,-0.08027434469170179,-0.20483636193540591,-0.02330453522893841,0.05602291837358034,-0.043126305221870546,-0.007963337582494609,1.1272154044246125,-1.4075093839003312,-0.059700080349197736
55.1529,5106.0985,-0.08071546227736899,-0.21061626056123925,-0.015292454371789013,0.0452304169912718,-0.0409591465669158,-0.023293801935446317,1.1171442514003758,-1.3924104921947655,-0.1580392655503452
55.1785,5106.1185,-0.07149046788599789,-0.20676474618143295,-0.007106798158096617,-0.03176041387879632,-0.034772508051851565,0.027151987441076372,1.1085395726952754,-1.294071306993616,-0.14205914795515842
55.1918,5106.1385,-0.055840443731497595,-0.19715393968441444,-0.0019232676107034108,-0.030833603340024895,-0.03034605706638211,0.0500980841439681,1.2162630255107552,-1.3823393391705285,-0.1666439442554458
55.2116,5106.1585,-0.040767243589908596,-0.1873337295261799,-0.0019359954633365178,-0.003246824350255212,-0.012574959806607094,0.005278648324747678,1.2162630255107552,-1.3823393391705285,-0.1666439442554458
55.2289,5106.1785,-0.03061138665922309,-0.18293699293307072,-0.007662701044515011,0.029993598619019585,0.015797349115966697,-0.032899204773950114,1.1257489301054764,-1.490749677395915,-0.17401938314553198
55.2513,5106.1985,-0.025413833977476888,-0.18601180088099092,-0.017574709027990215,0.03844618888014653,0.005514888988801454,-0.018575119057550667,1.1257489301054764,-1.490749677395915,-0.17401938314553198
55.2713,5106.2185,-0.02528520183402869,-0.18900861966927882,-0.028265872634606018,0.02214932600927743,-0.013515249629837295,0.055340423183059886,1.2248677042158558,-1.480678524371678,-0.1826240618506326
55.2895,5106.2385,-0.03135859750444559,-0.19057948049642323,-0.036067802240494024,0.009066039157567951,-0.031176257038871818,0.06142245593978798,1.1257489301054764,-1.490749677395915,-0.17401938314553198
55.3099,5106.2585,-0.04333260840326019,-0.19211782928846202,-0.03841916350962152,-0.03104324318355453,-0.024953030283186326,-0.009923360467535027,1.1257489301054764,-1.490749677395915,-0.17401938314553198
55.3282,5106.2785,-0.058068301511596795,-0.19823518428446243,-0.03503983486445281,-0.05843748249254512,-0.01795600960900817,-0.0333775019859722,1.2334723829209564,-1.5790177095728275,-0.19860417944581935
55.363,5106.2985,-0.07394299790691439,-0.20887484630646283,-0.027816778828649524,-0.02209207712791646,-0.013406356633335703,0.0002474926858753647,1.3325911570313358,-1.5689465565485905,-0.20720885815091994
55.3804,5106.3185,-0.08424893387324259,-0.2235521838350137,-0.01988411470263282,0.03783652039471902,-0.03122032832059828,0.0236814746713463,1.3325911570313358,-1.5689465565485905,-0.20720885815091994
55.3909,5106.3385,-0.0891147099724603,-0.23123100475178174,-0.013670900304042624,0.03901217396725764,-0.04475636914961112,-0.007091806553649421,1.3325911570313358,-1.5689465565485905,-0.20720885815091994
55.4114,5106.3585,-0.09293280907117059,-0.2334591039623989,-0.010474263609861714,0.03369459203563415,-0.05758971850248555,-0.026536905339398727,1.3239864783262352,-1.470607371347441,-0.1912287405557332
55.4324,5106.3786,-0.09016984849729609,-0.224195150197282,-0.009256942560071812,0.006789615868640197,-0.06243570516541176,-0.02265447430765734,1.2162630255107552,-1.3823393391705285,-0.1666439442554458
55.4499,5106.3986,-0.07670565857924509,-0.208385834690857,-0.008185527647457724,-0.02146371498535341,-0.04700192397691338,-0.010567973826528557,1.226334178534992,-1.3974382308760942,-0.06830475905429835
55.4731,5106.4186,-0.056698595619197996,-0.1927053513583413,-0.005469806623116816,-0.022184640563155816,-0.020647060230600235,-0.016382646923491034,1.2349388572400926,-1.495777416077244,-0.08428487664948515
55.4944,5106.4387,-0.030542345809726288,-0.1840838522042508,-0.00018081755741611305,-0.00778034683526568,-0.028958988549344606,-0.037763429645943467,1.2349388572400926,-1.495777416077244,-0.08428487664948515
55.5102,5106.4587,-0.00154530548987689,-0.18448563192295145,0.007377148440917886,-0.0016432833476252525,-0.02989542840809235,-0.02487890667690735,1.226334178534992,-1.3974382308760942,-0.06830475905429835
55.5423,5106.4787,0.01928351974259521,-0.19651326147377682,0.015554155806560083,0.005866437273474411,-0.030863664077802798,-0.0034251071094430624,1.2450100102643298,-1.51087630778281,0.014054308551665829
55.5603,5106.4987,0.03851525819683381,-0.21367642180417143,0.022115849484838884,0.013222096332588555,-0.02221119618196442,-0.02210979814562448,1.226334178534992,-1.3974382308760942,-0.06830475905429835
55.5782,5106.5188,0.05004167063069401,-0.2348656577902489,0.024437085470807682,0.0046886545718013255,0.002073852512746771,-0.0423599260862267,1.2177294998298915,-1.2990990456749447,-0.052324641459111594
55.5928,5106.5388,0.053542027463688406,-0.2546084185441073,0.02059141367295468,-0.009035754728704926,0.059631387375675325,-0.040811452691253115,1.1286818787437494,-1.324269090404748,0.05461922244713995
55.6139,5106.5588,0.052102076825609606,-0.26872694095512173,0.009823004697883483,-0.009311279561642676,0.05698452832353534,0.00974632043241739,1.1286818787437494,-1.324269090404748,0.05461922244713995
55.6305,5106.5789,0.041672871543782006,-0.27449795124278087,-0.0069431901835720206,-0.01586528395813502,0.01677743571201926,0.04338422212232261,1.0194919516091328,-1.3192413517234187,-0.03511528404891038
55.6539,5106.5989,0.02647869649048691,-0.27301071561393486,-0.02720556774028572,-0.008537737471281412,-0.026870238423450515,0.04834838419127665,0.9304443305229905,-1.344411396453222,0.07182857985734115
55.6745,5106.6189,0.0072111768925400095,-0.26422757120329965,-0.04699824895822183,0.04415833643425732,-0.022499654486750273,0.00014054882196911587,0.9304443305229905,-1.344411396453222,0.07182857985734115
55.6923,5106.6389,-0.00803716115726719,-0.24750996490003943,-0.061862466869513716,0.020803717841144105,0.006610272291686379,-0.050147283238324236,0.9304443305229905,-1.344411396453222,0.07182857985734115
55.722,5106.659,-0.01495752255257169,-0.2255435289359218,-0.06826033266539461,-0.03453428747326742,0.030761761599246762,-0.048845887046168525,0.9304443305229905,-1.344411396453222,0.07182857985734115
55.7359,5106.679,-0.01585016240610389,-0.20452426386119413,-0.06476274673200633,-0.031979695891553694,0.015069286379661307,0.02613270178646645,0.9304443305229905,-1.344411396453222,0.07182857985734115
55.7543,5106.6991,-0.01619683672392849,-0.1909854020439817,-0.05242937963809732,-0.02142699729213474,-0.015437269042269632,0.05515579136284472,1.0381677833384704,-1.4326794286301345,0.04724378355705381
55.7712,5106.7192,-0.02523266007498909,-0.19256179502746693,-0.03450359283372101,-0.014924091961434897,-0.022581901393124982,0.022337055085665084,1.0381677833384704,-1.4326794286301345,0.04724378355705381
55.7937,5106.7392,-0.04512870632724729,-0.2100921139026183,-0.015190666362530414,0.018364813278766913,-0.0019522469954314184,-0.059906586901667815,1.0482389363627076,-1.4477783203357009,0.14558296875820473
55.8117,5106.7593,-0.06500737963994899,-0.2313639914595604,0.0018149577340263873,0.02770376025622743,0.027816930405019816,-0.07368107949677434,1.0482389363627076,-1.4477783203357009,0.14558296875820473
55.8316,5106.7793,-0.0758506641545976,-0.24663530874382303,0.013737190322114082,-0.007875334092642069,0.037309437249242704,-0.025097711363979917,1.0381677833384704,-1.4326794286301345,0.04724378355705381
55.8532,5106.7994,-0.07296141587828049,-0.24916741849456134,0.018963484883639886,-0.06276181954140095,0.018187842377915646,0.05150507203623354,1.046772462043571,-1.5310186138312842,0.03126366596186701
55.8756,5106.8195,-0.06345239586897738,-0.24289889718741173,0.01662672822473399,-0.05933243696327244,-0.008570815657838723,0.08804631524522119,1.046772462043571,-1.5310186138312842,0.03126366596186701
55.8946,5106.8395,-0.05534506845290369,-0.23401741964952974,0.007136087277373485,0.0031526592140835755,-0.039244771970478945,0.012334484862930161,1.1458912361539504,-1.520947460807047,0.022658987256766395
55.9129,5106.8596,-0.04681369350704189,-0.2203131878410355,-0.007253433255730718,0.07074031488834612,-0.07427797967633666,-0.09500470256782859,1.2536146889694304,-1.6092154929839595,-0.0019258090435209322
55.9334,5106.8796,-0.035001628255276696,-0.19824064526079002,-0.02312149151543992,0.04347940254518879,-0.0443818386116814,-0.07582671759388192,1.3441287843747092,-1.500805154758573,0.005449629846565208
55.9508,5106.8997,-0.01688681992732459,-0.16648379816894762,-0.03686563917259661,-0.05042045314724058,0.010735083587511384,-0.00681166279980766,1.3355241056696086,-1.4024659695574233,0.021429747441752005
55.9733,5106.9198,-0.002819493542704597,-0.13308010843237414,-0.04594235014961112,-0.07994160953189851,0.014866870840744834,0.013004420562112982,1.3269194269645082,-1.304126784356274,0.037409865036938765
55.9913,5106.9398,-0.00486449132234929,-0.11677633255981243,-0.04940362859235173,-0.05300780483930748,-0.005298039931723959,-0.01273020666113884,1.3355241056696086,-1.4024659695574233,0.021429747441752005
56.0152,5106.9598,-0.026848858086432788,-0.12227385489106393,-0.04743605376327792,-0.01826693612047929,-0.04068511100404619,-0.05153657007725346,1.3355241056696086,-1.4024659695574233,0.021429747441752005
56.0369,5106.9799,-0.056268605243563495,-0.14780763218008333,-0.041308521804659215,0.021987065047400167,-0.04838369577981143,-0.051258393107115705,1.3269194269645082,-1.304126784356274,0.037409865036938765
56.0511,5106.9999,-0.07711772863095799,-0.18196540799843294,-0.032384305211602515,-0.017972972626423427,0.005623877635315361,-0.06495691868165436,1.2278006528541288,-1.314197937380511,0.046014543742039386
56.0758,5107.0199,-0.08824555314220399,-0.21536699648940025,-0.02197562850403431,-0.05539507382013044,0.029825034134824072,-0.02759343696040359,1.2177294998298915,-1.2990990456749447,-0.052324641459111594
56.1036,5107.0399,-0.0894681365510177,-0.2454624072547916,-0.011419667919840712,-0.07251415819497584,0.018281712704485767,-0.004010594033334419,1.1100060470144115,-1.2108310134980322,-0.027739845158824175
56.1122,5107.06,-0.08699358625060939,-0.28290011797483894,-0.0025315640582025123,-0.038103940751417854,-0.01765077236474834,0.002476227394477919,1.1100060470144115,-1.2108310134980322,-0.027739845158824175
56.1348,5107.08,-0.08396204549826039,-0.31516776924427603,0.004150701107803578,0.0010570341761478755,-0.04706477153692809,-0.020958123362937515,1.101401368309311,-1.1124918282968825,-0.01175972756363738
56.1529,5107.1,-0.074654418417722,-0.337649378340502,0.008538087222905583,0.028603811999311595,-0.053240803801656286,0.005097827147959073,1.101401368309311,-1.1124918282968825,-0.01175972756363738
56.1713,5107.1201,-0.05934423127538539,-0.34465945277282717,0.011346758582129787,0.0030153723897276318,-0.0002643511206967285,0.020814764498751286,1.101401368309311,-1.1124918282968825,-0.01175972756363738
56.1941,5107.1401,-0.03985302782551589,-0.3359355859277702,0.013501015686845086,-0.04140489923725228,0.043438753187645104,0.014685283085163627,1.1904489893954535,-1.0873217835670799,-0.11870359146988545
56.2129,5107.1601,-0.02349189313546769,-0.32107288990153526,0.015311756474630678,-0.046965547134407024,0.01918901486941367,0.00034570894709500585,1.0913302152850741,-1.0973929365913169,-0.11009891276478484
56.2344,5107.1801,-0.010399818913588089,-0.3075987277629828,0.016720422503384277,-0.004339854022275506,-0.0298060492692323,0.015171324508020325,1.1100060470144115,-1.2108310134980322,-0.027739845158824175
56.2532,5107.2002,0.0018737448403077098,-0.29567366606132073,0.017485876171077386,0.05020560804774839,-0.05424133006950538,0.061121660957053965,1.0194919516091328,-1.3192413517234187,-0.03511528404891038
56.275,5107.2202,0.01740866525005081,-0.2802028479798684,0.017395247920562476,0.040733015100493764,-0.03572026781516674,0.037601509260550524,1.0194919516091328,-1.3192413517234187,-0.03511528404891038
56.2909,5107.2402,0.035179204453443705,-0.2564222123342531,0.01635351165650578,-0.03116677222859589,0.005420158803000693,0.017114138035650525,1.0280966303142334,-1.4175805369245682,-0.05109540164409714
56.3108,5107.2602,0.05295162889572911,-0.2281762849193846,0.014209810885304486,-0.08090050556839366,0.023841396972118126,0.03373026431112576,1.0180254772899966,-1.4024816452190025,-0.1494345868452446
56.3317,5107.2802,0.0633352265466696,-0.20629683781827743,0.011037267292811487,-0.03508509230946118,0.007862388298603968,0.04584466853605537,1.0180254772899966,-1.4024816452190025,-0.1494345868452446
56.3512,5107.3003,0.061753157644081305,-0.19650321276609353,0.007693776703932578,0.06197929863754236,-0.003966365381436445,0.014207723417030554,1.0180254772899966,-1.4024816452190025,-0.1494345868452446
56.3764,5107.3203,0.05049713315623581,-0.1980839394935214,0.005699210568570187,0.037819467166733976,0.004593137142087819,-0.00560577854127856,1.0180254772899966,-1.4024816452190025,-0.1494345868452446
56.3961,5107.3403,0.03402726167238441,-0.19939326030366342,0.006971736447667076,-0.01885522679961066,0.00523535390031234,0.009611718672673327,1.0266301559950972,-1.5008208304201522,-0.16541470444043138
56.413,5107.3604,0.01636991800945341,-0.2020710105504708,0.012132974032077179,-0.04543981709342943,0.04308495725824106,0.003238110231823813,1.01655900297086,-1.485721938714586,-0.26375388964158236
56.4349,5107.3804,0.0019068080450156105,-0.207110202582891,0.020121172328598683,-0.07259512364426764,0.05187560355353492,-0.008159032561044914,1.0266301559950972,-1.5008208304201522,-0.16541470444043138
56.4544,5107.4004,-0.01267677328041589,-0.22305268910041384,0.027674687871218587,-0.05427284130393224,0.026869519663987585,0.010347418701959422,1.0352348347001978,-1.5991600156213015,-0.18139482203561816
56.4758,5107.4204,-0.02653887514280699,-0.24817221764467653,0.030813979831518887,0.015962453053764585,-0.016772415852547597,0.030000873636353672,1.0352348347001978,-1.5991600156213015,-0.18139482203561816
56.4986,5107.4405,-0.038817356735751894,-0.27500808829215817,0.026406820582653687,0.06775696744661246,-0.027909723199380367,-0.011180995722276228,1.1358200831297132,-1.505848569101481,-0.07568019794438453
56.5144,5107.4605,-0.04584671501409039,-0.28608441379828886,0.013996672077982886,0.06039230791896072,0.010052099973782248,-0.02322754590941705,1.1530294405399144,-1.7025269395037799,-0.10764043313475809
56.5356,5107.4805,-0.048063986293089896,-0.2820764437971435,-0.0049954655523073155,-0.012758097117293438,0.044563871816686904,-0.030317309466493934,1.0453059877244346,-1.6142589073268674,-0.0830556368344707
56.558,5107.5006,-0.04678270145734379,-0.2631563524181888,-0.02723800134430332,-0.05282461008405927,0.029761162865439214,0.016235969111804256,1.1358200831297132,-1.505848569101481,-0.07568019794438453
56.5813,5107.5206,-0.04617251454749719,-0.23977894806545433,-0.049145077925766806,-0.03641688546839473,0.011580024400701664,0.049033070768239644,1.1444247618348138,-1.6041877543026302,-0.0916603155395713
56.5922,5107.5406,-0.05397257370085659,-0.22434868718068482,-0.0673543233826844,-0.021566813323719795,0.0004991998901310104,0.029662709763243214,1.1358200831297132,-1.505848569101481,-0.07568019794438453
56.6293,5107.5606,-0.06133500176868159,-0.2190730990556938,-0.07853215058102272,0.004210936651826572,-0.0013122284018274835,0.005003544454147459,1.1358200831297132,-1.505848569101481,-0.07568019794438453
56.6447,5107.5807,-0.0706188469250636,-0.2185453984582897,-0.07979570956366402,0.006183861292309488,0.009677204278367752,-0.023326376790544206,1.1358200831297132,-1.505848569101481,-0.07568019794438453
56.6545,5107.6007,-0.0752160687793773,-0.22283271223693493,-0.06945839783605692,-0.012267856126088201,0.00863540334576991,-0.038365142535393006,1.1372865574488498,-1.4226082756058975,0.03863910485195319
56.6741,5107.6207,-0.0750636262614792,-0.22988329021106932,-0.047563176044313926,-0.03244438269846646,-0.0034028643984785603,-0.0362862521602407,1.0381677833384704,-1.4326794286301345,0.04724378355705381
56.6936,5107.6408,-0.06726820674302489,-0.23917549092097343,-0.016655590861319416,-0.0510797673015634,-0.018927040363084874,0.014794931276662919,1.1372865574488498,-1.4226082756058975,0.03863910485195319
56.7127,5107.6608,-0.05476166771544459,-0.2527679574726803,0.018071662828985077,-0.05897918563109353,-0.013783688025597733,0.03627380733635349,1.1473577104730868,-1.4377071673114636,0.13697829005310416
56.7319,5107.6808,-0.04286493380552319,-0.27122308902116665,0.04990924096847638,-0.03733177901725774,-0.02320119218372112,0.033231192946229934,1.1387530317679864,-1.3393679821103144,0.15295840764829094
56.7536,5107.7008,-0.03605549722997129,-0.29158202373795983,0.07238144128568857,0.015688549372521808,-0.021582088066915892,0.021216357146316485,1.1301483530628857,-1.2410287969091647,0.16893852524347772
56.7772,5107.7209,-0.035471158351769894,-0.3069489552167345,0.08094731445821038,0.04267628644524443,-0.014477654612317406,-0.00033688792218246533,1.1286818787437494,-1.324269090404748,0.05461922244713995
