AppTimestamp(s),SensorTimestamp(s),gyro_x,gyro_y,gyro_z
0.08,5519.808,0.0022,0.00192,-0.00344
0.088,5519.824,0.00206,0.00206,-0.00357
0.09,5519.832,0.00206,0.00165,-0.00289
0.09,5519.84,0.00275,0.00234,-0.0033
0.091,5519.848,0.0033,0.00234,-0.0033
0.092,5519.863,0.00289,0.00124,-0.00247
0.092,5519.871,0.00261,0.00041,-0.00069
0.093,5519.879,0.00234,-0.00082,0.0011
0.093,5519.887,0.00316,-0.0011,0.00206
0.094,5519.903,0.00302,-0.00082,0.00206
0.097,5519.911,0.00234,-0.00165,0.0033
0.102,5519.919,0.00179,-0.00261,0.00481
0.112,5519.926,0.00082,-0.00412,0.00632
0.118,5519.934,-0.00027,-0.00577,0.00811
0.127,5519.942,-0.00137,-0.00632,0.0924
0.134,5519.95,-0.0011,-0.0066,0.10409
0.144,5519.958,-0.00069,-0.00591,0.10257
0.15,5519.966,-0.00055,-0.00399,0.08731
0.168,5519.982,-0.00151,-0.00344,0.00825
0.175,5519.989,-0.0022,-0.00289,0.08731
0.184,5519.997,-0.0022,-0.00247,0.00839
0.198,5520.013,-0.00179,-0.00179,0.00756
0.221,5520.021,-0.00137,-0.00055,0.00674
0.222,5520.029,-0.00096,0.00041,0.00591
0.223,5520.037,-0.00027,0.00082,0.00522
0.228,5520.044,0.00041,0.00124,0.00481
0.237,5520.053,0.00096,0.00137,0.0044
0.244,5520.06,0.00192,0.00192,0.00399
0.256,5520.068,0.00316,0.00247,0.00371
0.264,5520.076,0.00412,0.00206,0.00344
0.27,5520.084,0.0044,0.00151,0.0033
0.277,5520.092,0.00412,0.00014,0.00371
0.285,5520.1,0.00371,-0.00165,0.00399
0.292,5520.108,0.00316,-0.00357,0.00399
0.308,5520.123,0.00289,-0.00385,0.00357
0.317,5520.131,0.0022,-0.00357,0.00124
0.325,5520.139,0.00192,-0.00302,-0.00124
0.332,5520.147,0.00096,-0.00344,-0.00234
0.355,5520.163,-0.00014,-0.00385,-0.00261
0.363,5520.179,-0.00069,-0.00371,-0.00357
0.372,5520.186,-0.00137,-0.0033,-0.00454
0.379,5520.194,-0.00151,-0.00192,-0.00536
0.388,5520.202,-0.00206,-0.00055,-0.00577
0.395,5520.21,-0.00247,0.0011,-0.0066
0.403,5520.218,-0.0033,0.00206,-0.00784
0.418,5520.233,-0.00371,0.0022,-0.00729
0.429,5520.242,-0.0044,0.00206,-0.00674
0.434,5520.249,-0.00467,0.00261,-0.00742
0.445,5520.257,-0.00385,0.00385,-0.00784
0.459,5520.273,-0.0033,0.00426,-0.00742
0.467,5520.281,-0.00151,0.00481,-0.00687
0.475,5520.289,-0.00027,0.00495,-0.00674
0.482,5520.297,0.00124,0.00467,-0.00632
0.491,5520.304,0.00192,0.00399,-0.0055
0.499,5520.312,0.00234,0.0033,-0.00412
0.51,5520.32,0.00247,0.00275,-0.00261
0.519,5520.328,0.00234,0.00165,-0.00041
0.521,5520.336,0.00261,0.00027,0.00179
0.529,5520.344,0.0022,-0.00096,0.00234
0.538,5520.352,0.00192,-0.00151,0.00289
0.545,5520.36,0.0011,-0.0022,0.00357
0.552,5520.368,0.00082,-0.00206,0.00371
0.57,5520.383,0.00041,-0.00137,0.00316
0.576,5520.391,0.00082,-0.00055,0.00206
0.586,5520.399,0.00137,0,0.00165
0.592,5520.407,0.00151,0.00082,0.00069
0.61,5520.423,0.00151,0.00137,-0.00041
0.616,5520.431,0.0011,0.0022,-0.00124
0.625,5520.439,0.00137,0.00247,-0.0011
0.64,5520.454,0.00124,0.00234,-0.00165
0.649,5520.462,0.00124,0.00247,-0.00261
0.654,5520.47,0.00137,0.00234,-0.00371
0.664,5520.478,0.00165,0.00247,-0.00426
0.67,5520.486,0.00179,0.00179,-0.00385
0.687,5520.502,0.00206,0.00165,-0.00371
0.695,5520.509,0.00247,0.00082,-0.00385
0.702,5520.517,0.00289,-0.00027,-0.00302
0.717,5520.533,0.00316,-0.00179,-0.00206
0.727,5520.541,0.00261,-0.00371,-0.00096
0.734,5520.549,0.00206,-0.00454,-0.00014
0.743,5520.557,0.00137,-0.0055,0.0011
0.751,5520.564,0.00082,-0.00687,0.00275
0.76,5520.572,0.00055,-0.07769,0.00399
0.765,5520.58,0.00041,-0.08071,0.00509
0.777,5520.588,0.00041,-0.07865,0.00536
0.781,5520.596,0.00082,-0.07411,0.0055
0.792,5520.604,0.00179,-0.00605,0.00509
0.797,5520.612,0.00247,-0.00522,0.00481
0.806,5520.62,0.0033,-0.00316,0.00357
0.812,5520.628,0.00467,-0.00124,0.00275
0.828,5520.643,0.00495,0.00014,0.00165
0.847,5520.659,0.00509,0.00124,0.00151
0.854,5520.667,0.0044,0.0022,0.00096
0.868,5520.683,0.00454,0.00371,-0.00014
0.876,5520.691,0.0044,0.00426,-0.00069
0.884,5520.699,0.0033,0.0044,-0.00027
0.891,5520.706,0.00206,0.00426,-0.00027
0.899,5520.714,0.00069,0.00467,-0.00151
0.909,5520.722,-0.00069,0.00481,-0.00206
0.916,5520.73,-0.00137,0.0044,-0.00261
0.923,5520.738,-0.00179,0.00509,-0.00302
0.938,5520.753,-0.00206,0.00536,-0.00371
0.949,5520.762,-0.00179,0.00536,-0.00426
0.954,5520.769,-0.00179,0.00495,-0.00385
0.965,5520.777,-0.00234,0.00481,-0.00357
0.97,5520.785,-0.00096,0.00467,-0.00357
0.98,5520.793,-0,0.00495,-0.00426
0.985,5520.801,0.00206,0.00591,-0.00467
1.001,5520.809,0.00302,0.00412,-0.00357
1.011,5520.824,0.00261,0.00302,-0.00261
1.02,5520.832,0.00275,0.00124,-0.00124
1.028,5520.84,0.00275,-0.00014,-0.00041
1.035,5520.848,0.00302,-0.00192,0.0011
1.041,5520.856,0.00302,-0.00357,0.00179
1.05,5520.864,0.0033,-0.00481,0.00247
1.058,5520.872,0.00275,-0.00495,0.00247
1.065,5520.88,0.00247,-0.00509,0.00247
1.073,5520.888,0.00124,-0.00536,0.00385
1.089,5520.903,0.00069,-0.0044,0.00385
1.096,5520.911,0.00055,-0.00371,0.00357
1.106,5520.919,0.00014,-0.00206,0.00165
1.111,5520.927,-0.00027,0.00027,0.00041
1.129,5520.943,-0.0011,0.00179,-0.00055
1.136,5520.951,-0.00192,0.0044,-0.00302
1.144,5520.958,-0.0011,0.07975,-0.00605
1.152,5520.966,-0.00055,0.10189,-0.00715
1.159,5520.974,-0.00055,0.1221,-0.00811
1.168,5520.982,-0.00055,0.13104,-0.09089
1.175,5520.99,-0.00014,0.14864,-0.09735
1.183,5520.998,-0,0.16239,-0.10546
1.2,5521.013,0.00055,0.15538,-0.09309
1.217,5521.022,0.00124,0.14534,-0.09212
1.218,5521.029,0.00179,0.14245,-0.09708
1.221,5521.037,0.00302,0.13145,-0.00825
1.238,5521.053,0.00289,0.1078,-0.00619
1.246,5521.061,0.00275,0.09281,-0.0055
1.254,5521.069,0.00316,0.00687,-0.00412
1.263,5521.077,0.00371,0.00481,-0.00385
1.269,5521.084,0.0033,0.0022,-0.00302
1.278,5521.092,0.00316,-0.00055,-0.00179
1.287,5521.1,0.00302,-0.00179,-0.00124
1.294,5521.108,0.00316,-0.00275,-0.00069
1.302,5521.116,0.00344,-0.00344,-0.00069
1.309,5521.124,0.00275,-0.0044,-0.00096
1.318,5521.132,0.00261,-0.00536,-0.00096
1.325,5521.14,0.0022,-0.00605,-0.00151
1.332,5521.148,0.00179,-0.00646,-0.00165
1.35,5521.163,0.00151,-0.00646,-0.00137
1.358,5521.171,0.00192,-0.00577,-0.00275
1.364,5521.179,0.0022,-0.00481,-0.00426
1.373,5521.187,0.00275,-0.00344,-0.0055
1.388,5521.203,0.00275,-0.00247,-0.0055
1.396,5521.211,0.00289,-0.00151,-0.0055
1.404,5521.218,0.00316,-0.00041,-0.00632
1.422,5521.234,0.00261,0.00027,-0.00674
1.427,5521.242,0.00206,0.00082,-0.00715
1.437,5521.25,0.00137,0.00151,-0.00811
1.443,5521.258,0.00124,0.00261,-0.08883
1.46,5521.273,0.00137,0.0033,-0.00839
1.468,5521.281,0.00206,0.00495,-0.00866
1.477,5521.29,0.00151,0.00536,-0.08786
1.49,5521.304,0.00082,0.00536,-0.0935
1.501,5521.313,-0.00082,0.0044,-0.09845
1.505,5521.321,-0.00247,0.00316,-0.00852
1.52,5521.329,-0.0033,0.00179,-0.00784
1.522,5521.337,-0.0044,-0.00027,-0.00632
1.533,5521.344,-0.00536,-0.00192,-0.00564
1.543,5521.352,-0.00632,-0.0044,-0.00412
1.548,5521.36,-0.06999,-0.0066,-0.00275
1.557,5521.368,-0.0066,-0.09006,-0.00151
1.562,5521.376,-0.00536,-0.10312,-0.00082
1.569,5521.384,-0.00344,-0.10972,-0.00027
1.585,5521.4,-0.00206,-0.11041,0.00041
1.593,5521.408,-0.00124,-0.11894,0.00082
1.61,5521.423,-0.00082,-0.11564,0.0011
1.615,5521.431,-0.0011,-0.11454,0.00151
1.627,5521.439,-0.00165,-0.11234,0.00206
1.631,5521.447,-0.00261,-0.10161,0.00055
1.649,5521.463,-0.0033,-0.0792,-0.0011
1.658,5521.471,-0.00591,-0.00481,-0.0033
1.664,5521.478,-0.08635,-0.00165,-0.0055
1.672,5521.486,-0.10986,0.00192,-0.00797
1.682,5521.494,-0.1232,0.00564,-0.10876
1.688,5521.502,-0.12925,0.10945,-0.14616
1.696,5521.51,-0.14025,0.14534,-0.17284
1.703,5521.518,-0.14795,0.176,-0.19305
1.721,5521.533,-0.14369,0.18631,-0.19883
1.726,5521.541,-0.14231,0.19745,-0.20144
1.736,5521.549,-0.14437,0.1936,-0.19938
1.742,5521.557,-0.13324,0.16321,-0.17325
1.759,5521.573,-0.11935,0.12925,-0.14437
1.771,5521.581,-0.10037,0.08484,-0.10863
1.775,5521.589,-0.08154,0.00344,-0.00591
1.783,5521.597,-0.00619,-0.00316,0.00014
1.792,5521.604,-0.00426,-0.08924,0.00412
1.797,5521.612,-0.00151,-0.13599,0.00729
1.807,5521.62,-0.00014,-0.16349,0.08992
1.813,5521.628,0.00192,-0.19855,0.12237
1.821,5521.636,0.00371,-0.22729,0.14644
1.829,5521.644,0.00522,-0.23939,0.15428
1.846,5521.66,0.00577,-0.24159,0.15716
1.852,5521.667,0.00509,-0.242,0.16087
1.87,5521.683,0.00467,-0.22935,0.14795
1.876,5521.691,0.00412,-0.21147,0.13461
1.884,5521.699,0.0044,-0.18755,0.12169
1.892,5521.707,0.00426,-0.1496,0.09996
1.9,5521.714,0.0044,-0.11701,0.00852
1.909,5521.723,0.00412,-0.08484,0.00715
1.916,5521.731,0.00385,-0.00564,0.00577
1.924,5521.738,0.00357,-0.00344,0.00481
1.932,5521.746,0.00371,-0.00261,0.00454
1.942,5521.754,0.00412,-0.00151,0.00357
1.948,5521.762,0.00399,-0.00137,0.00247
1.961,5521.77,0.00344,-0.0011,0.00082
1.964,5521.778,0.00234,-0.00165,0.00041
1.978,5521.793,0.00179,-0.00302,0.00096
1.987,5521.801,0.00206,-0.0044,0.00179
1.994,5521.81,0.0022,-0.00591,0.00247
2.009,5521.824,0.0022,-0.00646,0.00234
2.02,5521.833,0.00206,-0.00674,0.00206
2.026,5521.841,0.0022,-0.07315,0.00192
2.036,5521.849,0.00234,-0.07301,0.00206
2.042,5521.857,0.00275,-0.07164,0.00247
2.054,5521.864,0.00371,-0.00687,0.00344
2.059,5521.872,0.00509,-0.00646,0.00399
2.067,5521.88,0.00564,-0.00646,0.00412
2.073,5521.888,0.00509,-0.07026,0.00399
2.081,5521.896,0.00495,-0.0715,0.00344
2.089,5521.904,0.00495,-0.07219,0.00371
2.104,5521.92,0.00454,-0.0726,0.00385
2.113,5521.927,0.00412,-0.00674,0.00316
2.129,5521.943,0.00344,-0.00577,0.00247
2.136,5521.951,0.00192,-0.00481,0.00206
2.144,5521.959,0.00027,-0.00426,0.00165
2.153,5521.967,-0.00192,-0.00385,0.00069
2.16,5521.974,-0.00385,-0.00371,-0.00027
2.17,5521.983,-0.00522,-0.00289,-0.00192
2.176,5521.99,-0.00632,-0.00192,-0.0033
2.185,5521.998,-0.07026,-0.00137,-0.00385
2.191,5522.006,-0.07384,-0.00192,-0.0033
2.202,5522.014,-0.07315,-0.00289,-0.00206
2.22,5522.022,-0.00687,-0.00399,-0.00096
2.221,5522.03,-0.00564,-0.00509,-0.00014
2.224,5522.038,-0.0044,-0.00577,-0.00041
2.238,5522.053,-0.00289,-0.00564,-0.00014
2.246,5522.061,-0.00137,-0.00522,0.00055
2.256,5522.069,0,-0.00481,0.00192
2.261,5522.077,0.00137,-0.00467,0.0033
2.278,5522.093,0.00206,-0.0044,0.00344
2.286,5522.101,0.00344,-0.00302,0.00289
2.293,5522.109,0.0044,-0.00082,0.00192
2.302,5522.117,0.00495,0.00069,0.00137
2.313,5522.125,0.00467,0.00151,0.00151
2.318,5522.132,0.00371,0.00206,0.00234
2.326,5522.14,0.00261,0.00247,0.00261
2.333,5522.148,0.00165,0.00344,0.00192
2.342,5522.156,0.00137,0.00495,0.00096
2.357,5522.172,0.00069,0.00564,0.00014
2.366,5522.18,0.00027,0.00687,-0.00069
2.372,5522.187,-0.00027,0.07728,-0.00165
2.389,5522.203,-0.00151,0.07617,-0.00206
2.396,5522.211,-0.00192,0.08181,-0.00275
2.404,5522.219,-0.00165,0.09432,-0.00357
2.42,5522.234,-0.00096,0.10615,-0.0044
2.432,5522.243,0.00041,0.121,-0.00495
2.444,5522.258,0.0011,0.12072,-0.00522
2.452,5522.266,0.0011,0.1276,-0.0066
2.461,5522.274,0.00179,0.14465,-0.00784
2.469,5522.282,0.00289,0.1606,-0.00866
2.476,5522.29,0.00344,0.17394,-0.08979
2.484,5522.298,0.00371,0.19099,-0.09955
2.498,5522.313,0.00302,0.18837,-0.10216
2.51,5522.321,0.00247,0.1925,-0.11688
2.514,5522.329,0.00247,0.21203,-0.13997
2.529,5522.337,0.0022,0.22083,-0.15565
2.538,5522.353,0.00234,0.21739,-0.14671
2.546,5522.361,0.00247,0.20969,-0.13626
2.554,5522.369,0.00165,0.19951,-0.13228
2.562,5522.377,0.00055,0.17421,-0.11591
2.571,5522.385,-0.00096,0.15207,-0.11124
2.579,5522.392,-0.00096,0.13709,-0.10752
2.585,5522.4,-0.00027,0.13585,-0.11412
2.593,5522.408,0.00014,0.12801,-0.10917
2.601,5522.416,0.00014,0.10821,-0.09116
2.619,5522.432,0.00069,0.08401,-0.00715
2.624,5522.44,0.00082,0.08003,-0.00632
2.64,5522.455,0.00137,0.00632,-0.00495
2.648,5522.463,0.00206,0.00412,-0.00371
2.656,5522.471,0.0022,0.00179,-0.00302
2.664,5522.479,0.00247,-0.00069,-0.00151
2.672,5522.487,0.00234,-0.00289,0.00096
2.679,5522.494,0.00234,-0.00495,0.00344
2.689,5522.503,0.00289,-0.07384,0.00632
2.696,5522.51,0.0033,-0.09199,0.00839
2.704,5522.518,0.00357,-0.10175,0.09323
2.717,5522.526,0.00344,-0.11688,0.09749
2.748,5522.534,0.0033,-0.12719,0.10863
2.749,5522.542,0.00261,-0.1386,0.12361
2.751,5522.55,0.00261,-0.13723,0.12939
2.752,5522.558,0.0022,-0.1287,0.13159
2.762,5522.573,0.00165,-0.1232,0.12403
2.766,5522.581,0.0011,-0.1177,0.12375
2.776,5522.589,0,-0.11261,0.11385
2.781,5522.597,-0.00082,-0.10697,0.10354
2.799,5522.613,-0.0011,-0.1001,0.09625
2.805,5522.621,-0.00151,-0.08979,0.08924
2.815,5522.629,-0.00165,-0.07741,0.0077
2.822,5522.636,-0.00206,-0.00619,0.00632
2.833,5522.644,-0.00234,-0.00454,0.00564
2.838,5522.652,-0.00179,-0.00412,0.00536
2.849,5522.66,-0.00192,-0.00344,0.00454
2.854,5522.668,-0.00151,-0.0033,0.0033
2.864,5522.676,-0.00096,-0.00275,0.00302
2.877,5522.692,-0.00041,-0.00247,0.00275
2.885,5522.7,0,-0.00316,0.00344
2.892,5522.707,0.00082,-0.00357,0.00385
2.908,5522.723,0.00124,-0.00385,0.00426
2.923,5522.739,0.00179,-0.00385,0.00426
2.933,5522.747,0.00234,-0.0044,0.00399
2.939,5522.755,0.00247,-0.0044,0.00399
2.949,5522.763,0.00289,-0.0044,0.0044
2.955,5522.77,0.00275,-0.00412,0.0044
2.965,5522.778,0.00261,-0.00344,0.00454
2.971,5522.786,0.00275,-0.00344,0.00467
2.98,5522.794,0.00206,-0.00234,0.00357
2.987,5522.802,0.00165,-0.00124,0.00261
2.996,5522.81,0.00165,-0.00041,0.00179
3.002,5522.818,0.00137,-0,0.00179
3.019,5522.833,0.00055,0.00027,0.00179
3.029,5522.841,-0.00041,0.00096,0.00082
3.034,5522.849,-0.00137,0.00124,0.00014
3.043,5522.857,-0.00192,0.0022,-0.00041
3.06,5522.873,-0.00247,0.00261,-0.00137
3.065,5522.881,-0.00289,0.00385,-0.00247
3.075,5522.889,-0.00302,0.0044,-0.00261
3.082,5522.896,-0.00454,0.00467,-0.00289
3.091,5522.904,-0.00564,0.00454,-0.00357
3.098,5522.912,-0.00591,0.0044,-0.00371
3.106,5522.92,-0.00577,0.00481,-0.00399
3.112,5522.928,-0.00495,0.00495,-0.00357
3.123,5522.936,-0.00412,0.00454,-0.00316
3.137,5522.952,-0.00385,0.0033,-0.00247
3.144,5522.959,-0.00316,0.00206,-0.00137
3.153,5522.967,-0.0022,0.00082,-0.00069
3.17,5522.983,-0.00151,-0.00014,-0
3.175,5522.991,0.00041,-0.00151,0.00151
3.188,5522.999,0.00137,-0.00289,0.00385
3.191,5523.007,0.00206,-0.00371,0.00454
3.203,5523.015,0.00234,-0.00509,0.00467
3.223,5523.023,0.0022,-0.00605,0.00522
3.224,5523.03,0.00316,-0.00646,0.00564
3.225,5523.038,0.0044,-0.00646,0.00577
3.232,5523.046,0.00454,-0.00605,0.00591
3.238,5523.054,0.00385,-0.00632,0.00591
3.248,5523.062,0.0033,-0.00687,0.00577
3.257,5523.07,0.00247,-0.00632,0.0044
3.272,5523.085,0.00261,-0.00467,0.00261
3.278,5523.093,0.00289,-0.00261,0.0011
3.287,5523.101,0.0033,-0.00055,0.00055
3.295,5523.109,0.00302,0.0011,-0.00055
3.303,5523.117,0.00165,0.00234,-0.00137
3.317,5523.133,0.00096,0.0033,-0.00192
3.329,5523.141,0.00179,0.00399,-0.00234
3.333,5523.149,0.00247,0.00509,-0.0022
3.346,5523.156,0.00289,0.00605,-0.00261
3.349,5523.164,0.00357,0.00619,-0.00234
3.358,5523.172,0.00302,0.00536,-0.0022
3.365,5523.18,0.00275,0.00412,-0.00179
3.376,5523.188,0.00275,0.00275,-0.00069
3.38,5523.196,0.00344,0.00179,0.00069
3.397,5523.212,0.00399,0.0011,0.00124
3.405,5523.219,0.00385,0.00027,0.00206
3.412,5523.227,0.00302,-0.00041,0.00151
3.428,5523.243,0.00275,-0.00124,0.00151
3.436,5523.251,0.00357,-0.00137,0.00234
3.443,5523.259,0.00467,-0.0011,0.00302
3.454,5523.267,0.0055,-0.0011,0.0033
3.459,5523.275,0.0055,-0.0011,0.00357
3.47,5523.283,0.00591,-0.00082,0.00302
3.475,5523.29,0.00674,-0.00027,0.00275
3.485,5523.298,0.07439,0.00041,0.00302
3.49,5523.306,0.08429,0.00165,0.00261
3.503,5523.314,0.09295,0.00275,0.00247
3.507,5523.322,0.09639,0.00344,0.0022
3.517,5523.33,0.0913,0.00385,0.00069
3.522,5523.338,0.08071,0.00357,-0.00014
3.54,5523.353,0.07604,0.00357,-0.00027
3.549,5523.361,0.07452,0.00357,-0.00069
3.56,5523.37,0.00646,0.0033,-0.00096
3.571,5523.384,0.00522,0.00261,-0.00124
3.582,5523.393,0.00385,0.00151,-0.00165
3.585,5523.401,0.00234,0.00041,-0.00179
3.595,5523.409,0.0011,-0.00027,-0.00137
3.601,5523.416,-0.00014,-0.0011,-0.00082
3.614,5523.424,-0.00137,-0.0022,0.00027
3.617,5523.432,-0.00234,-0.00289,0.0011
3.628,5523.44,-0.00302,-0.00344,0.00179
3.632,5523.448,-0.00344,-0.00399,0.0022
3.643,5523.456,-0.00344,-0.00399,0.0022
3.657,5523.472,-0.00316,-0.00357,0.00206
3.665,5523.479,-0.00302,-0.00247,0.00124
3.673,5523.487,-0.00261,-0.00179,0.00055
3.692,5523.503,-0.00206,-0.00165,0.00055
3.695,5523.511,-0.00124,-0.00096,-0.00041
3.706,5523.519,-0.00014,0.00027,-0.00041
3.711,5523.527,0.00069,0.00151,-0.00096
3.722,5523.534,0.00165,0.00247,-0.00179
3.727,5523.543,0.00192,0.00302,-0.00151
3.737,5523.55,0.00234,0.00357,-0.0011
3.743,5523.558,0.00302,0.00399,-0.00082
3.754,5523.566,0.00371,0.00426,-0.00096
3.759,5523.574,0.00426,0.00467,-0.00069
3.771,5523.582,0.00481,0.00577,-0.00124
3.774,5523.59,0.00509,0.00674,-0.00151
3.79,5523.598,0.00467,0.0066,-0.00316
3.799,5523.613,0.0044,0.00605,-0.00385
3.808,5523.621,0.00399,0.00674,-0.00509
3.815,5523.629,0.00371,0.07769,-0.00674
3.823,5523.637,0.00344,0.0814,-0.00742
3.838,5523.653,0.00289,0.07576,-0.00742
3.847,5523.661,0.00247,0.00674,-0.00729
3.853,5523.669,0.00192,0.00605,-0.00729
3.863,5523.676,0.00137,0.00495,-0.00701
3.869,5523.684,0.00096,0.00357,-0.00674
3.879,5523.692,0.00082,0.00275,-0.00619
3.885,5523.7,0.00069,0.00234,-0.00619
3.894,5523.708,0.00069,0.0011,-0.00522
3.909,5523.723,0.00069,-0.00027,-0.00412
3.917,5523.732,0.00027,-0.00165,-0.00426
3.924,5523.739,0.00027,-0.00192,-0.00481
3.932,5523.747,0.00041,-0.00192,-0.0044
3.948,5523.763,0.00014,-0.0022,-0.00412
3.958,5523.771,-0.00069,-0.00275,-0.00426
3.963,5523.779,-0.00165,-0.00275,-0.00467
3.973,5523.787,-0.00179,-0.00192,-0.00412
3.98,5523.794,-0.0022,-0.00124,-0.00357
3.991,5523.802,-0.00247,0.00014,-0.00357
3.995,5523.81,-0.00247,0.00151,-0.00385
4.005,5523.818,-0.00192,0.00289,-0.00399
4.011,5523.826,-0.00192,0.00399,-0.00467
4.023,5523.834,-0.00247,0.00467,-0.00522
4.027,5523.842,-0.00247,0.00509,-0.00564
4.043,5523.85,-0.00206,0.00577,-0.00495
4.044,5523.858,-0.00096,0.00605,-0.00385
4.061,5523.873,-0.00027,0.00536,-0.00344
4.067,5523.881,0.00041,0.00454,-0.00261
4.075,5523.889,0.00096,0.00316,-0.00165
4.082,5523.897,0.00179,0.00165,-0.00082
4.1,5523.913,0.00192,0.00082,0.00014
4.108,5523.921,0.00179,-0.00069,0.00179
4.116,5523.929,0.0022,-0.00165,0.00316
4.121,5523.936,0.00234,-0.0022,0.00412
4.131,5523.944,0.00302,-0.00247,0.00467
4.138,5523.952,0.00261,-0.00234,0.00454
4.146,5523.96,0.00275,-0.00247,0.00481
4.152,5523.968,0.00275,-0.00234,0.00481
4.168,5523.983,0.00261,-0.00179,0.00426
4.177,5523.992,0.0022,-0.00137,0.00371
4.185,5523.999,0.00165,-0.00137,0.00357
4.193,5524.007,0.00124,-0.00082,0.00357
4.223,5524.023,0.00096,-0.00041,0.00289
4.224,5524.031,0.00082,-0,0.00275
4.227,5524.039,0.00027,0.00027,0.00247
4.23,5524.047,0.00027,-0.00014,0.00302
4.243,5524.054,0.00014,0,0.00357
4.247,5524.062,-0,0,0.00344
4.256,5524.07,0,0,0.00385
4.262,5524.078,-0.00027,0.00014,0.00454
4.273,5524.086,0.00014,-0,0.00481
4.28,5524.094,0.00055,-0.00027,0.00481
4.29,5524.102,0.00055,-0.00041,0.00454
4.294,5524.11,0.00096,-0.00027,0.00412
4.308,5524.118,0.0011,-0.00041,0.00371
4.319,5524.133,0.00096,-0.00041,0.00289
4.327,5524.141,0.00096,-0.00027,0.00165
4.335,5524.149,0.00069,-0,0.00041
4.342,5524.157,0.00069,0.00041,-0.00082
4.36,5524.173,0.00082,0.00055,-0.00165
4.368,5524.181,0.00124,0.00124,-0.00247
4.373,5524.189,0.00165,0.00192,-0.00289
4.383,5524.196,0.00206,0.0022,-0.00261
4.39,5524.204,0.0022,0.00192,-0.00247
4.399,5524.212,0.00206,0.00137,-0.00234
4.404,5524.22,0.00206,0.0011,-0.00261
4.414,5524.228,0.00179,0.00096,-0.00261
4.429,5524.243,0.00206,0.00082,-0.00206
4.438,5524.252,0.00179,0,-0.00165
4.445,5524.259,0.0011,-0.00069,-0.0022
4.453,5524.267,0.00069,-0.00179,-0.00151
4.468,5524.283,0.00027,-0.00247,-0.0011
4.478,5524.291,0.00069,-0.00302,-0.00055
4.483,5524.299,0.00069,-0.00316,-0.00055
4.493,5524.307,0.00055,-0.0033,-0.00014
4.5,5524.314,0.00027,-0.00344,0.00082
4.511,5524.322,-0.0011,-0.00357,0.00137
4.525,5524.338,-0.00179,-0.00426,0.00151
4.531,5524.346,-0.00192,-0.00454,0.00247
4.541,5524.354,-0.00165,-0.00385,0.00371
4.548,5524.362,-0.00137,-0.00275,0.00385
4.556,5524.37,-0.00137,-0.00261,0.0033
4.563,5524.378,-0.00192,-0.00261,0.00247
4.578,5524.393,-0.00206,-0.00275,0.00261
4.59,5524.401,-0.00151,-0.0022,0.00234
4.594,5524.409,-0.00082,-0.00179,0.00192
4.604,5524.417,0.00069,-0.0022,0.00234
4.611,5524.425,0.00096,-0.00247,0.00289
4.62,5524.433,0.00137,-0.00261,0.00302
4.625,5524.441,0.00179,-0.00302,0.00316
4.635,5524.449,0.00192,-0.00371,0.00385
4.641,5524.456,0.00289,-0.00426,0.00467
4.649,5524.464,0.00371,-0.0033,0.00454
4.657,5524.472,0.00344,-0.00275,0.00426
4.666,5524.48,0.00261,-0.00302,0.00454
4.673,5524.488,0.00165,-0.0033,0.00412
4.689,5524.503,0.00124,-0.00247,0.00302
4.698,5524.512,0.00082,-0.00151,0.00275
4.705,5524.519,0.00082,0.00027,0.00151
4.713,5524.527,0.00096,0.00192,-0.00041
4.732,5524.543,0.00082,0.00302,-0.00179
4.735,5524.551,-0.00027,0.00454,-0.00234
4.747,5524.559,-0.00124,0.00467,-0.00206
4.751,5524.567,-0.00137,0.00522,-0.00261
4.762,5524.574,-0.00124,0.00605,-0.0033
4.767,5524.582,-0.00082,0.00687,-0.00357
4.777,5524.59,-0.00014,0.0737,-0.00371
4.783,5524.598,0.00082,0.07604,-0.0044
4.797,5524.606,0.00179,0.07095,-0.0044
4.799,5524.614,0.00247,0.00605,-0.00344
4.809,5524.622,0.00316,0.0055,-0.00344
4.814,5524.63,0.00412,0.00454,-0.00385
4.824,5524.638,0.00467,0.00371,-0.00357
4.838,5524.653,0.00495,0.00247,-0.00275
4.847,5524.661,0.00522,0.00137,-0.00206
4.855,5524.669,0.00522,0.00041,-0.00179
4.862,5524.677,0.00509,-0.00055,-0.00055
4.878,5524.693,0.00467,-0.00096,-0.00027
4.888,5524.701,0.00371,-0.00137,0.00041
4.894,5524.708,0.00289,-0.00151,0.00027
4.905,5524.716,0.00179,-0.00165,0.00014
4.909,5524.724,0.00055,-0.00192,-0.00014
4.918,5524.732,-0.00041,-0.0022,-0.00027
4.926,5524.74,-0.00124,-0.00206,-0.00055
4.935,5524.748,-0.00206,-0.00137,-0.00124
4.949,5524.763,-0.0022,-0.00082,-0.00151
4.958,5524.771,-0.00302,-0.00014,-0.00289
4.965,5524.779,-0.00316,0,-0.0033
4.973,5524.787,-0.00371,0.00014,-0.00289
4.989,5524.803,-0.00399,-0.00014,-0.00247
5.007,5524.819,-0.00399,-0.00027,-0.00179
5.012,5524.827,-0.00385,-0.00041,-0.00096
5.021,5524.835,-0.0033,-0.00041,-0.00082
5.029,5524.842,-0.00234,-0.00055,-0.00096
5.037,5524.85,-0.00179,-0.0011,-0.00027
5.047,5524.858,-0.00096,-0.00179,0.00069
5.054,5524.866,0,-0.00192,0.00082
5.059,5524.874,0.00082,-0.00165,0.00082
5.067,5524.882,0.00165,-0.0011,0.00014
5.074,5524.89,0.0022,-0.00082,0.00055
5.083,5524.898,0.0022,-0.00082,0.0011
5.098,5524.913,0.00275,-0.00069,0.00096
5.108,5524.921,0.00275,0,0.00055
5.114,5524.929,0.00289,0.00124,-0.00014
5.123,5524.937,0.00302,0.00275,-0.00069
5.128,5524.945,0.00275,0.00426,-0.00165
5.14,5524.953,0.00247,0.00481,-0.00165
5.153,5524.968,0.00179,0.00467,-0.00165
5.161,5524.976,0.00151,0.00481,-0.00151
5.17,5524.984,0.00124,0.00536,-0.00234
5.182,5524.992,0.00096,0.00605,-0.00344
5.185,5525,0.00055,0.00577,-0.00371
5.193,5525.008,-0.00027,0.00509,-0.00302
5.221,5525.023,-0.00124,0.00385,-0.00179
5.223,5525.031,-0.00192,0.0022,-0.00082
5.223,5525.039,-0.00234,0.00124,-0
5.24,5525.047,-0.00192,0.00041,0.00082
5.249,5525.063,-0.00179,0,0.00096
5.256,5525.071,-0.00192,-0.00096,0.00151
5.264,5525.079,-0.0022,-0.00179,0.00179
5.272,5525.087,-0.00275,-0.00192,0.00137
5.28,5525.094,-0.00316,-0.00179,0.00165
5.288,5525.102,-0.00344,-0.00179,0.0022
5.297,5525.11,-0.00344,-0.00165,0.00275
5.304,5525.118,-0.00289,-0.00096,0.00261
5.312,5525.126,-0.00275,-0.00069,0.0022
5.319,5525.134,-0.00302,-0.00041,0.00192
5.334,5525.15,-0.00275,-0.00055,0.00234
5.344,5525.157,-0.00179,-0.00027,0.00179
5.366,5525.173,-0.00124,0,0.00179
5.372,5525.181,-0.00014,-0.00027,0.00234
5.374,5525.189,0.00014,-0.00055,0.00247
5.382,5525.197,0.00096,-0.00082,0.00192
5.389,5525.204,0.00151,-0.00082,0.00096
5.4,5525.213,0.00179,-0.00137,0.00096
5.406,5525.22,0.00234,-0.00234,0.00151
5.413,5525.228,0.00302,-0.00261,0.00165
5.421,5525.236,0.00344,-0.0022,0.00192
5.429,5525.245,0.00289,-0.00192,0.00206
5.444,5525.26,0.00247,-0.00192,0.00261
5.454,5525.268,0.00165,-0.00179,0.00302
5.459,5525.276,0.00151,-0.00069,0.00179
5.48,5525.291,0.00151,0.00055,0.0011
5.487,5525.299,0.00165,0.0022,-0.00055
5.493,5525.307,0.00137,0.00412,-0.00247
5.507,5525.323,0.00069,0.00522,-0.00316
5.52,5525.331,-0.00041,0.00619,-0.00357
5.523,5525.339,-0.00124,0.00687,-0.00467
5.534,5525.347,-0.00096,0.07975,-0.0055
5.54,5525.354,-0.00069,0.09295,-0.0066
5.554,5525.362,0,0.1001,-0.00742
5.556,5525.37,0.00055,0.09446,-0.00674
5.569,5525.378,0.00041,0.08621,-0.00564
5.58,5525.394,0.00027,0.07604,-0.00426
5.596,5525.41,0.00055,0.00605,-0.00247
5.603,5525.417,0.00041,0.00509,-0.00165
5.62,5525.433,0.00055,0.00399,-0.00096
5.629,5525.441,0.00069,0.00275,-0.00055
5.636,5525.449,0.00041,0.00137,-0.00027
5.649,5525.464,0.00041,-0.00014,0.00055
5.66,5525.473,0.00069,-0.00137,0.00137
5.667,5525.48,0.0011,-0.00206,0.0022
5.674,5525.488,0.00124,-0.0022,0.00247
5.68,5525.496,0.00069,-0.00344,0.0033
5.689,5525.504,0.00014,-0.00454,0.00385
5.697,5525.512,-0.00014,-0.00509,0.00357
5.705,5525.52,-0.00041,-0.0055,0.00371
5.712,5525.528,-0.00069,-0.00564,0.00412
5.729,5525.543,-0.00069,-0.00577,0.00495
5.737,5525.551,-0.00151,-0.00605,0.00591
5.745,5525.559,-0.00206,-0.00577,0.0066
5.752,5525.567,-0.00234,-0.00605,0.00715
5.772,5525.583,-0.00261,-0.00605,0.00687
5.784,5525.599,-0.00234,-0.00536,0.00605
5.792,5525.606,-0.00247,-0.00481,0.00522
5.803,5525.614,-0.00261,-0.00399,0.00412
5.809,5525.622,-0.00247,-0.00302,0.00275
5.82,5525.63,-0.00247,-0.00261,0.00261
5.823,5525.638,-0.0022,-0.00247,0.00289
5.832,5525.646,-0.00151,-0.0022,0.00206
5.849,5525.662,-0.00096,-0.00165,0.00096
5.854,5525.67,-0.00014,-0.00027,-0.00082
5.864,5525.677,0.0011,0.00082,-0.00179
5.883,5525.693,0.00206,0.00137,-0.00179
5.887,5525.701,0.00399,0.00247,-0.00165
5.894,5525.709,0.00591,0.00357,-0.00124
5.902,5525.717,0.00674,0.0044,-0.00151
5.909,5525.725,0.07288,0.00564,-0.00247
5.92,5525.733,0.07659,0.0066,-0.00371
5.926,5525.74,0.07741,0.07164,-0.00454
5.934,5525.748,0.07645,0.07026,-0.00495
5.941,5525.756,0.00687,0.00605,-0.00509
5.949,5525.764,0.00605,0.00522,-0.00481
5.958,5525.772,0.00522,0.00495,-0.00495
5.965,5525.78,0.00357,0.00412,-0.00509
5.973,5525.788,0.00165,0.00234,-0.00426
5.991,5525.803,0.00041,0.00096,-0.0033
5.996,5525.811,-0.00096,-0.0011,-0.00261
6.006,5525.819,-0.00234,-0.00234,-0.00247
6.012,5525.827,-0.00371,-0.00302,-0.00192
6.029,5525.843,-0.0044,-0.0033,-0.00137
6.036,5525.851,-0.00536,-0.0033,-0.00055
6.045,5525.859,-0.0066,-0.00371,0
6.056,5525.866,-0.07095,-0.00426,0
6.06,5525.874,-0.07425,-0.00426,0.00027
6.068,5525.882,-0.07205,-0.00344,0
6.075,5525.89,-0.0066,-0.00247,0.00014
6.083,5525.898,-0.00564,-0.00192,0.00014
6.09,5525.906,-0.00481,-0.00124,-0.00027
6.106,5525.922,-0.00371,-0.00096,-0.00027
6.117,5525.93,-0.00316,-0.00041,-0.00041
6.131,5525.944,-0.00179,0.00014,-0.00055
6.139,5525.953,-0.00014,0.00082,-0.00055
6.148,5525.961,0.0011,0.00082,0.00041
6.154,5525.969,0.0022,0.00082,0.00082
6.162,5525.977,0.0033,0.00027,0.00137
6.171,5525.984,0.00385,-0.00124,0.00302
6.177,5525.992,0.00481,-0.0022,0.00509
6.185,5526,0.0055,-0.00261,0.0066
6.194,5526.008,0.00619,-0.00261,0.00632
6.217,5526.016,0.00674,-0.00247,0.00591
6.217,5526.024,0.00619,-0.00289,0.00605
6.218,5526.032,0.00522,-0.00289,0.00577
6.224,5526.04,0.00454,-0.0022,0.00481
6.234,5526.048,0.00426,-0.0011,0.0033
6.248,5526.063,0.00357,-0.00014,0.0022
6.257,5526.071,0.00247,0.00165,-0.00069
6.263,5526.079,0.00082,0.00344,-0.00289
6.273,5526.087,-0.00082,0.00467,-0.00426
6.287,5526.103,-0.00165,0.00509,-0.00426
6.296,5526.111,-0.00261,0.00509,-0.00454
6.304,5526.118,-0.00261,0.00577,-0.00522
6.315,5526.126,-0.00234,0.00619,-0.00536
6.32,5526.134,-0.00179,0.00619,-0.00522
6.327,5526.142,-0.00179,0.00509,-0.00399
6.336,5526.15,-0.00179,0.00399,-0.00289
6.343,5526.158,-0.0011,0.00247,-0.00179
6.358,5526.173,-0.00069,0.00137,-0.00151
6.37,5526.182,0.00014,-0.00014,-0.00055
6.374,5526.189,0,-0.0011,0.00082
6.384,5526.197,0.00027,-0.00165,0.00234
6.398,5526.213,0.00041,-0.00234,0.00316
6.417,5526.229,0.00055,-0.00302,0.00344
6.421,5526.237,0.00069,-0.00357,0.00412
6.431,5526.244,0.00055,-0.00344,0.0044
6.437,5526.252,0.00027,-0.00275,0.00426
6.448,5526.26,0.00014,-0.0022,0.00467
6.452,5526.268,-0.00027,-0.00192,0.00495
6.463,5526.276,-0.0011,-0.00137,0.00481
6.469,5526.284,-0.00124,-0.00055,0.00454
6.478,5526.292,-0.00179,-0.00055,0.00454
6.484,5526.3,-0.00247,0,0.00454
6.494,5526.308,-0.00261,0.00014,0.0044
6.51,5526.323,-0.00316,0.00041,0.00399
6.517,5526.331,-0.00289,0.00069,0.00371
6.525,5526.339,-0.00302,0.00027,0.00371
6.533,5526.347,-0.00316,-0,0.00357
6.547,5526.363,-0.00302,-0.00041,0.00371
6.561,5526.371,-0.00275,-0.0011,0.00426
6.564,5526.378,-0.00247,-0.00206,0.00454
6.573,5526.386,-0.00206,-0.00275,0.00399
6.58,5526.394,-0.00192,-0.00316,0.00344
6.589,5526.402,-0.00206,-0.00371,0.00357
6.595,5526.41,-0.0022,-0.00467,0.00412
6.604,5526.418,-0.00234,-0.00536,0.00399
6.618,5526.433,-0.00234,-0.00495,0.00344
6.628,5526.441,-0.00192,-0.00495,0.0033
6.635,5526.449,-0.00179,-0.00509,0.00344
6.642,5526.457,-0.00165,-0.00454,0.00344
6.658,5526.473,-0.00151,-0.00385,0.00289
6.666,5526.481,-0.00124,-0.00316,0.00289
6.673,5526.489,-0.00069,-0.00302,0.00247
6.685,5526.497,-0.00027,-0.00234,0.00179
6.69,5526.504,0.00014,-0.00137,0.00096
6.699,5526.512,0.00014,-0.00096,0.00069
6.705,5526.52,0.00069,-0.00069,0.00014
6.717,5526.528,0.00082,-0.00014,-0
6.743,5526.544,0.00151,0.00055,-0.00027
6.744,5526.552,0.00234,0.0011,-0.00082
6.75,5526.56,0.00192,0.00082,-0.00082
6.752,5526.568,0.00192,0.00069,-0.00082
6.768,5526.583,0.00151,0.00055,-0.00014
6.777,5526.591,0.00096,-0.00014,0.00096
6.783,5526.599,0.00014,-0.00041,0.00082
6.794,5526.607,-0.00055,-0.00027,0.00014
6.799,5526.615,-0.00137,-0.00041,0.00027
6.81,5526.623,-0.0022,-0.00014,-0.00055
6.815,5526.631,-0.00261,-0.00027,-0.00137
6.828,5526.638,-0.00302,-0.00041,-0.0022
6.831,5526.646,-0.00275,-0,-0.00275
6.839,5526.654,-0.00302,0.00014,-0.00289
6.847,5526.662,-0.00302,-0.00014,-0.00234
6.856,5526.67,-0.00357,-0.00069,-0.00179
6.864,5526.678,-0.00316,-0.0011,-0.00096
6.879,5526.693,-0.0022,-0.00096,-0.00027
6.887,5526.701,-0.00124,-0.00096,0.00027
6.894,5526.709,-0.00041,-0.00069,0.00027
6.902,5526.717,0.00014,-0.00041,-0.00014
6.919,5526.733,0.00041,-0.00082,0.00014
6.928,5526.741,0.00041,-0.00124,-0
6.936,5526.749,0.00069,-0.00179,0.00014
6.944,5526.757,0.00055,-0.00179,-0.0011
6.949,5526.764,0.00082,-0.00082,-0.00289
6.957,5526.772,0.00041,-0.00014,-0.00385
6.967,5526.78,-0.00014,0.00027,-0.00385
6.972,5526.788,-0.00069,0.00096,-0.00426
6.983,5526.796,-0.0011,0.00179,-0.00426
6.99,5526.804,-0.00165,0.0022,-0.00357
7.007,5526.82,-0.0022,0.00275,-0.00385
7.015,5526.827,-0.00275,0.00344,-0.0044
7.031,5526.843,-0.00289,0.00412,-0.00426
7.036,5526.851,-0.00247,0.00509,-0.00412
7.045,5526.859,-0.0022,0.0055,-0.00357
7.051,5526.867,-0.00124,0.0055,-0.00371
7.066,5526.874,-0.00069,0.00454,-0.00316
7.067,5526.883,-0.00069,0.0033,-0.00234
7.084,5526.898,-0.00041,0.0022,-0.00151
7.094,5526.906,-0.00014,0.00096,-0.00055
7.1,5526.914,0.00041,0.00041,0.00055
7.11,5526.922,0.0011,-0.00055,0.00234
7.116,5526.93,0.00124,-0.00124,0.00275
7.123,5526.938,0.00069,-0.00234,0.00316
7.139,5526.953,0.00069,-0.00275,0.00344
7.146,5526.961,0.00082,-0.00275,0.00399
7.156,5526.969,0.00027,-0.00234,0.00371
7.161,5526.977,0.00027,-0.00206,0.00316
7.179,5526.993,0.00014,-0.0022,0.00275
7.189,5527.001,-0,-0.00179,0.00179
7.197,5527.009,-0.00014,-0.00096,0.00082
7.202,5527.017,-0.00014,0.00055,-0.00069
7.225,5527.025,0.00014,0.00206,-0.00316
7.226,5527.032,0.00014,0.00289,-0.00426
7.227,5527.04,0.00027,0.00344,-0.00454
7.233,5527.048,-0.00014,0.00371,-0.00454
7.247,5527.056,0.00014,0.00412,-0.00577
7.249,5527.064,0.00041,0.00467,-0.00687
7.266,5527.08,0.00055,0.00481,-0.00701
7.272,5527.087,0.00027,0.0044,-0.00632
7.289,5527.103,0.00014,0.00357,-0.00577
7.296,5527.111,0.00027,0.00247,-0.00509
7.305,5527.119,0.00014,0.00137,-0.00275
7.313,5527.127,0.00055,0.00069,-0.00082
7.32,5527.134,0.00069,0.00014,-0
7.328,5527.143,0.00096,-0.00041,0.00014
7.336,5527.15,0.0011,-0.00096,0.00082
7.343,5527.158,0.00124,-0.0011,0.00137
7.363,5527.174,0.00124,-0.00137,0.00206
7.368,5527.182,0.00137,-0.00137,0.00261
7.376,5527.19,0.00165,-0.00192,0.0033
7.382,5527.198,0.00137,-0.00247,0.00426
7.398,5527.213,0.00165,-0.00261,0.00454
7.409,5527.221,0.00247,-0.00289,0.00481
7.414,5527.229,0.00316,-0.00261,0.00467
7.422,5527.237,0.00316,-0.00275,0.00467
7.439,5527.253,0.00275,-0.00261,0.0055
7.445,5527.261,0.00234,-0.00289,0.00619
7.456,5527.269,0.00192,-0.00275,0.00619
7.461,5527.276,0.00165,-0.00234,0.00591
7.471,5527.284,0.00124,-0.00151,0.0055
7.477,5527.292,0.00096,-0.00041,0.0044
7.486,5527.3,0.00096,0,0.00371
7.492,5527.308,0.00014,0.00137,0.00151
7.508,5527.323,-0.00069,0.00151,0.00096
7.518,5527.332,-0.00055,0.00261,0.00014
7.525,5527.34,-0.00027,0.00371,-0.00027
7.533,5527.347,-0.00027,0.00399,0.00014
7.552,5527.363,-0.00014,0.00399,-0.00027
7.569,5527.379,0.00014,0.00371,-0.00069
7.572,5527.387,0.00082,0.00357,-0.00069
7.579,5527.394,0.00179,0.00344,-0.0011
7.589,5527.403,0.00234,0.00344,-0.00165
7.596,5527.41,0.00289,0.00261,-0.0011
7.604,5527.418,0.00344,0.00247,-0.00179
7.612,5527.426,0.00357,0.00165,-0.00206
7.62,5527.434,0.00344,0.00069,-0.00261
7.627,5527.442,0.00316,0,-0.00316
7.635,5527.45,0.00316,-0.00055,-0.0033
7.643,5527.458,0.00344,-0.00055,-0.00385
7.66,5527.473,0.00275,-0.00082,-0.00426
7.666,5527.481,0.00179,-0.00124,-0.00454
7.676,5527.489,0.00055,-0.00124,-0.00481
7.681,5527.497,-0.00041,-0.00055,-0.00454
7.699,5527.513,-0.00069,-0.00027,-0.00371
7.708,5527.521,-0.00124,0.00027,-0.0033
7.715,5527.529,-0.00165,0.00082,-0.00344
7.725,5527.536,-0.00165,0.00151,-0.00399
7.729,5527.544,-0.00179,0.00261,-0.00399
7.738,5527.552,-0.00165,0.00316,-0.00385
7.745,5527.56,-0.0011,0.00371,-0.00385
7.753,5527.568,-0.00027,0.00399,-0.00289
7.77,5527.583,0.00027,0.00385,-0.0022
7.776,5527.592,0.0011,0.00357,-0.00234
7.786,5527.599,0.00137,0.00357,-0.00261
7.792,5527.607,0.00234,0.00302,-0.00192
7.809,5527.623,0.00302,0.00247,-0.00096
7.817,5527.631,0.00344,0.0022,-0
7.824,5527.639,0.00385,0.00151,0.00055
7.832,5527.647,0.00357,0.00082,0.00096
7.839,5527.654,0.00344,0.00055,0.00137
7.848,5527.662,0.0033,0.00082,0.00192
7.856,5527.67,0.00344,0.00124,0.0022
7.867,5527.678,0.00316,0.00137,0.00261
7.872,5527.686,0.00234,0.00124,0.0022
7.879,5527.694,0.00151,0.0011,0.00165
7.887,5527.702,0.00096,0.00151,0.0011
7.895,5527.71,0.00069,0.00206,0.00014
7.903,5527.718,0.00027,0.00261,-0.00041
7.918,5527.733,0.00041,0.00261,-0.00027
7.927,5527.741,0,0.00261,-0.00069
7.934,5527.749,-0.00069,0.00247,-0.0011
7.943,5527.757,-0.00082,0.00206,-0.0011
7.958,5527.773,-0.0011,0.00165,-0.00082
7.967,5527.781,-0.00069,0.00179,0.00041
7.974,5527.789,-0.00027,0.00165,0.0011
7.982,5527.797,0.00027,0.0011,0.00137
7.989,5527.804,0.00069,0.00014,0.00192
7.998,5527.812,0.00096,-0.00069,0.00247
8.006,5527.82,0.00192,-0.00096,0.0033
8.013,5527.828,0.00247,-0.00124,0.00399
8.03,5527.843,0.00289,-0.0011,0.00371
8.038,5527.852,0.00302,-0.00151,0.00344
8.044,5527.859,0.00344,-0.00124,0.00302
8.056,5527.867,0.00371,-0.0011,0.00261
8.07,5527.883,0.00357,-0.00082,0.00234
8.076,5527.891,0.00357,-0.00055,0.0022
8.085,5527.899,0.00385,-0.00014,0.0022
8.092,5527.907,0.00412,0.00014,0.00234
8.099,5527.914,0.00344,0.00027,0.00165
8.108,5527.922,0.00275,0.00014,0.0011
8.116,5527.93,0.00179,-0.00027,0.00069
8.123,5527.938,0.00055,-0.00082,0.00069
8.132,5527.946,-0.00069,-0.00151,0.00082
8.139,5527.954,-0.00179,-0.0022,0.00041
8.147,5527.962,-0.00234,-0.0022,0.00014
8.155,5527.97,-0.00289,-0.0022,0.00014
8.163,5527.978,-0.00344,-0.00206,0.00027
8.18,5527.993,-0.00399,-0.00206,0
8.186,5528.001,-0.00467,-0.00165,-0.00041
8.199,5528.01,-0.00481,-0.00165,-0.00096
8.222,5528.024,-0.0044,-0.00137,-0.00082
8.223,5528.033,-0.00357,-0.00041,-0.00082
8.226,5528.041,-0.00302,0.00027,-0.00124
8.242,5528.049,-0.0022,0.00082,-0.00179
8.243,5528.056,-0.00137,0.00041,-0.00151
8.249,5528.064,-0.00027,0.00041,-0.00096
8.258,5528.072,0.00069,0.00069,-0.00069
8.265,5528.08,0.00165,0.00096,-0.00165
8.274,5528.088,0.00261,0.00096,-0.00137
8.291,5528.103,0.00316,0.00096,-0.00082
8.296,5528.112,0.00357,0.00055,-0.00014
8.306,5528.119,0.00399,0.00014,0.00151
8.313,5528.127,0.00412,-0.00027,0.00247
8.329,5528.143,0.00412,-0.00069,0.00316
8.336,5528.151,0.00399,-0.00041,0.00289
8.344,5528.159,0.00275,0.00027,0.00165
8.352,5528.167,0.00137,0.00069,0.00027
8.359,5528.174,0.00014,0.00137,0
8.37,5528.182,-0.00082,0.00192,-0.00014
8.376,5528.19,-0.00137,0.00316,-0.00069
8.383,5528.198,-0.00206,0.00426,-0.00124
8.392,5528.206,-0.00247,0.00522,-0.00247
8.4,5528.214,-0.00247,0.00605,-0.00357
8.408,5528.222,-0.00261,0.00687,-0.00412
8.415,5528.23,-0.00275,0.07232,-0.00467
8.423,5528.238,-0.00247,0.07246,-0.00495
8.438,5528.253,-0.00192,0.0066,-0.0044
8.448,5528.261,-0.00151,0.00564,-0.00316
8.454,5528.269,-0.00082,0.00454,-0.00151
8.464,5528.277,-0.00027,0.00302,-0.00055
8.479,5528.293,0.00041,0.0022,-0.00055
8.492,5528.301,0.00096,0.00124,-0.00137
8.494,5528.308,0.00151,0.00014,-0.00124
8.504,5528.316,0.00165,-0.00124,-0.00027
8.51,5528.324,0.00179,-0.00234,0.00082
8.517,5528.332,0.00151,-0.00316,0.00206
8.525,5528.34,0.00137,-0.0033,0.00261
8.533,5528.348,0.00124,-0.00316,0.00192
8.548,5528.363,0.00082,-0.00261,0.00055
8.557,5528.372,0.00069,-0.00192,-0.00069
8.563,5528.379,0.00069,-0.00165,-0.00165
8.574,5528.387,-0,-0.00096,-0.00192
8.594,5528.403,-0.00027,-0.00041,-0.00165
8.597,5528.411,-0.00055,0.00082,-0.0022
8.604,5528.419,-0.00055,0.00165,-0.0022
8.612,5528.427,-0.00014,0.00192,-0.0022
8.619,5528.434,0.00014,0.00165,-0.00151
8.628,5528.442,0.00041,0.00137,-0.00124
8.636,5528.45,0.00041,0.00165,-0.00096
8.644,5528.458,0.00055,0.00137,0.00041
8.652,5528.466,0.00055,0.00151,0.00151
8.661,5528.474,0.00069,0.00096,0.00316
8.668,5528.482,0.00055,0.00069,0.00385
8.679,5528.49,0.00027,-0.00041,0.00454
8.686,5528.498,0,-0.00165,0.00467
8.7,5528.513,-0.00014,-0.0022,0.00454
8.705,5528.521,-0.00014,-0.0022,0.00357
8.716,5528.53,-0.00014,-0.00247,0.00371
8.731,5528.544,-0.00014,-0.00289,0.00399
8.739,5528.553,0,-0.00316,0.00385
8.746,5528.561,-0.00014,-0.00344,0.00399
8.756,5528.568,-0,-0.00261,0.00234
8.761,5528.576,-0,-0.00206,0.00082
8.769,5528.584,0.00027,-0.00165,0.00014
8.777,5528.592,0.00055,-0.00124,-0.00041
8.785,5528.6,0.00069,-0.00124,0.00014
8.793,5528.608,0.00096,-0.00096,-0.00027
8.81,5528.623,0.00082,-0.00069,-0.0011
8.816,5528.632,0.00082,-0.00041,-0.00179
8.828,5528.639,0.00041,-0.00027,-0.00261
8.832,5528.647,-0.00041,-0.00014,-0.00302
8.852,5528.663,-0.00027,-0.00069,-0.00261
8.856,5528.671,-0,-0.00041,-0.00316
8.864,5528.679,0.00027,0.00027,-0.00399
8.872,5528.687,0.00027,0.00069,-0.00426
8.879,5528.694,-0,0.00069,-0.00467
8.888,5528.702,-0.00124,0.00027,-0.00426
8.895,5528.71,-0.00192,-0.00027,-0.00385
8.903,5528.718,-0.0022,-0.00041,-0.00344
8.912,5528.726,-0.00206,-0.00027,-0.00344
8.919,5528.734,-0.00137,-0.00014,-0.00399
8.929,5528.742,-0.00165,0.00014,-0.00344
8.935,5528.75,-0.00165,-0.00041,-0.00179
8.943,5528.758,-0.00151,-0.00082,-0.00137
8.958,5528.773,-0.00137,-0.00082,-0.0011
8.969,5528.781,-0.00055,-0.00124,-0.00055
8.973,5528.789,0,-0.00124,-0.00014
8.983,5528.797,0.00055,-0.00165,0.00055
9.001,5528.813,0.0011,-0.00192,0.00069
9.006,5528.821,0.00151,-0.00261,0.00096
9.015,5528.828,0.00192,-0.00344,0.00192
9.022,5528.836,0.00289,-0.00467,0.00289
9.029,5528.844,0.00344,-0.00509,0.00412
9.038,5528.852,0.00357,-0.00522,0.00536
9.045,5528.86,0.00357,-0.00536,0.00564
9.053,5528.868,0.00289,-0.00481,0.00495
9.068,5528.883,0.00302,-0.0044,0.00495
9.079,5528.891,0.00302,-0.00289,0.00399
9.084,5528.899,0.00261,-0.00179,0.00344
9.097,5528.907,0.00261,-0.00055,0.00302
9.109,5528.923,0.00234,0.00027,0.00247
9.116,5528.931,0.00151,0.00206,0.00096
9.124,5528.939,0.00027,0.00344,-0.00096
9.132,5528.947,-0.0011,0.00399,-0.0022
9.139,5528.954,-0.00165,0.00467,-0.00289
9.148,5528.962,-0.00165,0.00536,-0.00357
9.162,5528.978,-0.00165,0.00577,-0.00426
9.173,5528.986,-0.00151,0.00564,-0.00426
9.18,5528.994,-0.00151,0.00495,-0.00357
9.189,5529.002,-0.00192,0.00385,-0.00289
9.194,5529.01,-0.00179,0.00275,-0.00234
9.221,5529.018,-0.00165,0.00137,-0.00151
9.221,5529.033,-0.00137,-0,-0.00041
9.226,5529.041,-0.00082,-0.00151,0.00096
9.235,5529.049,-0.00082,-0.00289,0.00234
9.242,5529.057,-0.00082,-0.00399,0.00399
9.259,5529.073,-0.00069,-0.0044,0.0044
9.266,5529.081,0,-0.00495,0.00481
9.272,5529.088,0.00041,-0.0044,0.0044
9.282,5529.096,0.00069,-0.00399,0.00454
9.288,5529.104,0.00069,-0.00357,0.00522
9.298,5529.112,0.00041,-0.00302,0.00522
9.304,5529.12,0.00041,-0.00206,0.0055
9.316,5529.128,0.00069,-0.00069,0.00522
9.327,5529.143,0.0011,0.00027,0.0044
9.337,5529.151,0.00137,0.00082,0.00357
9.347,5529.16,0.00137,0.00096,0.00385
9.36,5529.174,0.00096,0.0011,0.00412
9.372,5529.183,0.00069,0.00082,0.00454
9.375,5529.191,0.00041,0.00096,0.00426
9.382,5529.199,0.00014,0.00151,0.00344
9.392,5529.207,-0.00014,0.00082,0.00371
9.399,5529.215,-0.00082,-0.00041,0.00344
9.409,5529.222,-0.00124,-0.00151,0.00316
9.414,5529.23,-0.00165,-0.00234,0.0033
9.425,5529.238,-0.00179,-0.00206,0.00316
9.43,5529.246,-0.00151,-0.0022,0.00261
9.439,5529.254,-0.00165,-0.00261,0.00206
9.447,5529.262,-0.00192,-0.00302,0.00151
9.457,5529.27,-0.00165,-0.00344,0.00137
9.462,5529.278,-0.00165,-0.00371,0.0011
9.479,5529.293,-0.0011,-0.00316,0.00027
9.487,5529.301,-0.00014,-0.00206,-0.00041
9.498,5529.309,0.00055,-0.00124,-0.00124
9.502,5529.317,0.00124,-0.00055,-0.00082
9.521,5529.333,0.00137,-0.00082,-0.00055
9.525,5529.341,0.00151,-0.00082,-0.00041
9.535,5529.348,0.00192,-0.00014,-0.00082
9.542,5529.356,0.00234,0.00014,-0.00124
9.55,5529.364,0.00247,0.00027,-0.00165
9.557,5529.372,0.00234,0.00014,-0.00192
9.566,5529.38,0.00192,-0.00055,-0.00165
9.572,5529.388,0.00151,-0.00137,-0.00124
9.589,5529.403,0.0011,-0.00137,-0.00096
9.599,5529.411,0.00055,-0.00096,-0.00165
9.605,5529.419,0.00014,-0.00027,-0.00247
9.615,5529.427,-0.00096,-0.00014,-0.00206
9.628,5529.443,-0.00192,-0,-0.00192
9.644,5529.459,-0.00275,-0.00027,-0.00137
9.652,5529.467,-0.00357,-0.00027,-0.00137
9.66,5529.474,-0.00371,0.00069,-0.00165
9.668,5529.482,-0.00371,0.00206,-0.00234
9.675,5529.49,-0.00385,0.00289,-0.00289
9.683,5529.498,-0.00399,0.00275,-0.00275
9.692,5529.506,-0.00371,0.00234,-0.00302
9.699,5529.514,-0.00344,0.00165,-0.00275
9.707,5529.522,-0.00234,0.00192,-0.00316
9.715,5529.53,-0.00124,0.00165,-0.00302
9.723,5529.538,-0.00055,0.0011,-0.00234
9.741,5529.553,0.00014,0.00069,-0.00124
9.747,5529.561,0.00096,-0.00069,0.00027
9.756,5529.569,0.00192,-0.00179,0.00124
9.764,5529.577,0.00275,-0.00302,0.00275
9.772,5529.585,0.00289,-0.00289,0.00261
9.78,5529.593,0.00275,-0.00289,0.00289
9.787,5529.601,0.00247,-0.00275,0.0033
9.796,5529.608,0.00165,-0.00289,0.00275
9.803,5529.616,0.00055,-0.00234,0.00247
9.809,5529.624,-0.00027,-0.00124,0.00124
9.819,5529.632,-0.00082,-0.00014,-0.00014
9.824,5529.64,-0.00165,0.00124,-0.00206
9.834,5529.648,-0.00302,0.0022,-0.00357
9.85,5529.663,-0.00399,0.0033,-0.00467
9.857,5529.671,-0.00481,0.00357,-0.00467
9.865,5529.679,-0.00536,0.0044,-0.00536
9.872,5529.687,-0.0055,0.00509,-0.00632
9.888,5529.703,-0.00522,0.00536,-0.00591
9.896,5529.711,-0.00495,0.00495,-0.00591
9.903,5529.719,-0.00426,0.00412,-0.00619
9.913,5529.727,-0.00344,0.0033,-0.00577
9.92,5529.734,-0.00261,0.00165,-0.00385
9.928,5529.742,-0.00124,0.00027,-0.00234
9.935,5529.75,-0.00027,-0.00082,-0.00151
9.945,5529.758,0.00082,-0.00179,-0.00137
9.959,5529.774,0.00165,-0.00275,-0.00027
9.967,5529.782,0.00206,-0.00399,0.00151
9.976,5529.79,0.0022,-0.00467,0.00275
9.99,5529.805,0.00247,-0.00495,0.0033
9.997,5529.813,0.00206,-0.00495,0.00426
10.007,5529.821,0.00179,-0.00495,0.00481
10.013,5529.829,0.0011,-0.00426,0.00481
10.024,5529.837,0.00027,-0.00371,0.0044
10.029,5529.845,-0.00055,-0.00302,0.00357
10.038,5529.853,-0.00165,-0.00234,0.00275
10.046,5529.861,-0.0022,-0.00192,0.00247
10.055,5529.868,-0.00289,-0.00082,0.00179
10.06,5529.876,-0.0033,0,0.00055
10.069,5529.884,-0.00385,0.00041,0.00069
10.077,5529.892,-0.0044,0.00069,0.0011
10.086,5529.9,-0.00467,0.00137,0.00165
10.094,5529.908,-0.00426,0.00206,0.00082
10.109,5529.923,-0.00371,0.00234,0.00082
10.117,5529.931,-0.00316,0.00206,0.00179
10.125,5529.939,-0.00261,0.00151,0.00316
10.132,5529.947,-0.00192,0.0011,0.00302
10.148,5529.963,-0.00124,0.00055,0.00302
10.155,5529.971,-0.00055,-0.00014,0.0033
10.165,5529.979,0.00027,-0.00041,0.00302
10.17,5529.987,0.0011,-0.00055,0.00289
10.179,5529.994,0.00151,-0.00096,0.0033
10.186,5530.002,0.00179,-0.00137,0.00426
10.213,5530.01,0.00165,-0.00165,0.00522
10.214,5530.018,0.00137,-0.00165,0.00577
10.218,5530.026,0.00124,-0.00179,0.00632
10.22,5530.034,0.00069,-0.00192,0.00646
10.234,5530.05,0.00055,-0.00206,0.00646
10.243,5530.057,0.00014,-0.0022,0.00729
10.258,5530.073,-0.00041,-0.0022,0.00742
10.265,5530.081,-0.0011,-0.00192,0.00687
10.28,5530.089,-0.00192,-0.00151,0.00467
10.289,5530.104,-0.00234,-0.00151,0.00385
10.298,5530.113,-0.00247,-0.00151,0.0022
10.305,5530.12,-0.00261,-0.00096,0.00041
10.314,5530.128,-0.00302,-0.00082,-0.00041
10.321,5530.136,-0.0033,-0.00096,-0.00041
10.329,5530.144,-0.00371,-0.00124,-0.00096
10.337,5530.152,-0.00371,-0.00124,-0.00192
10.345,5530.16,-0.0033,-0.00124,-0.00206
10.354,5530.168,-0.00302,-0.00137,-0.0022
10.372,5530.183,-0.00261,-0.00165,-0.00192
10.376,5530.191,-0.00289,-0.00096,-0.0033
10.386,5530.199,-0.00316,-0.00027,-0.00399
10.392,5530.207,-0.00371,0,-0.0044
10.409,5530.223,-0.0033,0.00041,-0.00495
10.416,5530.231,-0.00302,0.00124,-0.00495
10.424,5530.239,-0.00302,0.00206,-0.00481
10.432,5530.247,-0.00316,0.00275,-0.00522
10.441,5530.254,-0.00357,0.00247,-0.00605
10.448,5530.262,-0.00316,0.00192,-0.00619
10.456,5530.27,-0.00289,0.0022,-0.00646
10.464,5530.278,-0.00261,0.00179,-0.00509
10.483,5530.294,-0.00179,0.00124,-0.00399
10.495,5530.31,-0.00124,0.00069,-0.00316
10.503,5530.317,-0.00082,0.00027,-0.00247
10.518,5530.333,-0.00027,0.00014,-0.00247
10.527,5530.341,0.00055,-0.00041,-0.00234
10.533,5530.349,0.0011,-0.00124,-0.00137
10.544,5530.357,0.00192,-0.00124,-0
10.549,5530.364,0.00179,-0.00096,0.00082
10.559,5530.373,0.00151,-0.00151,0.0022
10.565,5530.38,0.00124,-0.00179,0.00302
10.577,5530.388,0.0011,-0.00165,0.00302
10.581,5530.396,0.00151,-0.00069,0.00192
10.589,5530.404,0.00124,0.00069,0.00055
10.597,5530.412,0.00082,0.00137,0.00014
10.607,5530.42,0.00014,0.00192,-0.00027
10.62,5530.435,-0.00041,0.00261,-0.00096
10.628,5530.443,-0.0011,0.00371,-0.00124
10.638,5530.451,-0.00165,0.00412,-0.00151
10.645,5530.459,-0.00165,0.00412,-0.00124
10.652,5530.467,-0.00165,0.00399,-0.0022
10.668,5530.483,-0.00151,0.00385,-0.0022
10.675,5530.491,-0.00192,0.00234,-0.00055
10.685,5530.499,-0.00192,0.00082,0.0011
10.701,5530.514,-0.00165,-0.00014,0.00179
10.709,5530.522,-0.0011,-0.00082,0.00289
10.72,5530.53,-0.00096,-0.00165,0.00344
10.758,5530.538,-0.00096,-0.00289,0.00302
10.759,5530.546,-0.00082,-0.00426,0.00316
10.76,5530.554,-0.00082,-0.00481,0.00302
10.761,5530.57,-0.00041,-0.00467,0.00275
10.769,5530.585,-0.00041,-0.00454,0.0022
10.778,5530.593,-0.00027,-0.00399,0.00124
10.786,5530.601,-0.00055,-0.00357,0.00069
10.794,5530.609,-0.00096,-0.0033,0.00041
10.803,5530.617,-0.00165,-0.0033,0.00027
10.809,5530.624,-0.00165,-0.00261,0.00027
10.818,5530.633,-0.00151,-0.00179,0.00055
10.827,5530.64,-0.0011,-0.00096,0.00082
10.834,5530.648,-0.00082,-0.00041,0.0011
10.843,5530.656,-0.0011,-0.00055,0.00137
10.849,5530.665,-0.0011,-0.00069,0.0022
10.864,5530.68,-0.0011,-0.00069,0.00247
10.875,5530.688,-0.00096,-0.00069,0.00261
10.889,5530.703,-0.00055,-0.0011,0.0033
10.897,5530.711,-0.00027,-0.00124,0.0033
10.905,5530.719,-0.00027,-0.00179,0.00316
10.913,5530.727,-0.00014,-0.00289,0.00357
10.928,5530.743,-0.00014,-0.00289,0.00289
10.936,5530.751,0.00027,-0.00302,0.00206
10.943,5530.759,0.00027,-0.00289,0.00261
10.953,5530.767,-0,-0.0033,0.00302
10.959,5530.774,0.00014,-0.0033,0.00344
10.969,5530.782,0.00041,-0.00302,0.00302
10.975,5530.79,0.00041,-0.00247,0.00206
10.984,5530.798,0.00055,-0.00151,0.00124
10.991,5530.806,0.00096,-0.00014,-0.00014
11.008,5530.822,0.0011,0.00082,-0.00124
11.015,5530.83,0.00124,0.00124,-0.00261
11.023,5530.837,0.0011,0.00234,-0.00399
11.042,5530.853,0.0011,0.00275,-0.00426
11.048,5530.861,0.00137,0.0033,-0.00577
11.053,5530.869,0.0011,0.00385,-0.00687
11.065,5530.877,0.00069,0.00399,-0.00742
11.069,5530.884,0.00014,0.00385,-0.0077
11.08,5530.893,0.00055,0.00344,-0.00756
11.085,5530.9,0.00069,0.00302,-0.00619
11.095,5530.908,0.00069,0.00289,-0.00495
11.1,5530.916,0.00041,0.00247,-0.00357
11.111,5530.924,-0,0.00151,-0.00234
11.117,5530.932,-0.00055,0.00041,-0.0022
11.125,5530.94,-0.00124,-0.00096,-0.00082
11.132,5530.948,-0.00179,-0.00206,0.00082
11.148,5530.963,-0.00151,-0.0022,0.00165
11.156,5530.971,-0.00137,-0.00275,0.00261
11.164,5530.979,-0.00192,-0.0033,0.00302
11.172,5530.987,-0.00261,-0.00344,0.00275
11.187,5531.003,-0.00302,-0.00344,0.00234
11.195,5531.011,-0.00344,-0.00316,0.00302
11.22,5531.019,-0.00357,-0.00247,0.0033
11.22,5531.026,-0.00357,-0.00137,0.00289
11.221,5531.034,-0.00289,0.00027,0.0022
11.226,5531.042,-0.0022,0.00151,0.00096
11.239,5531.051,-0.00234,0.00179,0.00082
11.251,5531.066,-0.00179,0.00192,0.00096
11.267,5531.082,-0.00137,0.00234,0.00096
11.273,5531.09,-0.00082,0.00247,0.0011
11.283,5531.097,-0.00014,0.00247,0.00124
11.297,5531.113,0.00014,0.00234,0.00069
11.305,5531.121,0.00069,0.00179,0.00069
11.314,5531.129,0.00096,0.00137,0.0011
11.324,5531.137,0.0011,0.00055,0.00137
11.329,5531.144,0.00137,-0.00027,0.00206
11.338,5531.153,0.00137,-0.00082,0.00289
11.345,5531.16,0.00124,-0.0011,0.00357
11.355,5531.168,0.00069,-0.0011,0.00371
11.363,5531.176,0,-0.00151,0.00385
11.368,5531.184,-0.00096,-0.00192,0.00371
11.377,5531.192,-0.00151,-0.00179,0.00357
11.388,5531.2,-0.00206,-0.00096,0.00302
11.392,5531.208,-0.00261,0,0.00234
11.41,5531.223,-0.00275,0.00069,0.00192
11.416,5531.231,-0.00302,0.00179,0.00137
11.426,5531.239,-0.00289,0.00247,0.00027
11.431,5531.247,-0.00247,0.0033,-0.00069
11.449,5531.263,-0.00234,0.0033,-0.00096
11.456,5531.271,-0.00192,0.00344,-0.00124
11.465,5531.279,-0.00137,0.00344,-0.00137
11.472,5531.286,-0.00055,0.0033,-0.00096
11.48,5531.294,0.00055,0.0022,0
11.488,5531.302,0.00165,0.00124,0.00096
11.496,5531.31,0.00206,0.0011,0.00124
11.503,5531.318,0.00247,0.00041,0.00096
11.512,5531.326,0.00261,0.00041,0.00055
11.527,5531.342,0.00234,0,0.00069
11.537,5531.35,0.00275,-0.00014,0.00041
11.544,5531.357,0.00247,0,0.00055
11.559,5531.373,0.00247,0.00014,0.00055
11.567,5531.381,0.00179,0.00027,-0.00055
11.575,5531.389,0.00069,0.0011,-0.00192
11.582,5531.397,0.00027,0.00165,-0.00289
11.589,5531.404,-0.00014,0.00247,-0.0044
11.597,5531.413,-0.00069,0.00316,-0.00509
11.606,5531.42,-0.00096,0.00344,-0.00467
11.614,5531.428,-0.00124,0.00385,-0.00495
11.621,5531.436,-0.00165,0.00412,-0.00509
11.628,5531.444,-0.00179,0.00385,-0.00481
11.637,5531.452,-0.00165,0.00371,-0.00454
11.645,5531.46,-0.00137,0.00289,-0.00357
11.652,5531.468,-0.00082,0.0022,-0.00234
11.667,5531.483,-0.00082,0.00151,-0.00137
11.677,5531.491,-0.00055,0.00055,-0.00014
11.683,5531.499,-0.00082,-0.00041,0.00165
11.693,5531.507,-0.00069,-0.00151,0.00316
11.709,5531.523,-0.00041,-0.00192,0.00316
11.725,5531.539,-0.00027,-0.00192,0.00357
11.731,5531.547,-0.00014,-0.00192,0.0033
11.743,5531.554,0.00014,-0.00192,0.00344
11.747,5531.562,0.00041,-0.00165,0.00371
11.757,5531.57,0.00055,-0.0011,0.00357
11.762,5531.578,0.00069,-0.00082,0.0033
11.78,5531.594,0.00069,-0.00069,0.00344
11.794,5531.61,0.00096,-0.00041,0.00289
11.805,5531.617,0.00082,0.0011,0.00096
11.819,5531.633,0.00069,0.00137,0.00082
11.827,5531.641,0.00041,0.00192,0.00055
11.835,5531.649,0.00027,0.00234,-0.00014
11.842,5531.657,0.00027,0.00289,-0.00055
11.851,5531.664,0.00041,0.00357,-0.0011
11.858,5531.673,0.00041,0.00316,-0.0011
11.867,5531.68,0.00055,0.00289,-0.00165
11.876,5531.688,0.00041,0.00247,-0.00179
11.882,5531.696,0.00014,0.00192,-0.00261
11.889,5531.704,-0,0.00027,-0.00247
11.898,5531.712,-0.00055,-0.00069,-0.00192
11.905,5531.72,-0.00041,-0.00124,-0.0022
11.913,5531.728,-0.00027,-0.00137,-0.0022
11.931,5531.743,-0.00055,-0.00151,-0.0022
11.936,5531.751,-0.00096,-0.00192,-0.0022
11.946,5531.759,-0.00069,-0.00096,-0.00316
11.952,5531.767,-0.00055,-0.00014,-0.00357
11.97,5531.783,-0.00027,0.00055,-0.00399
11.976,5531.791,0.00027,0.00137,-0.0044
11.985,5531.799,0.00041,0.0022,-0.0044
11.991,5531.806,0.00069,0.00316,-0.00536
11.999,5531.815,0.00082,0.0033,-0.0055
12.014,5531.83,0.0011,0.0033,-0.00536
12.024,5531.838,0.00179,0.0033,-0.00522
12.03,5531.846,0.00206,0.00357,-0.0055
12.047,5531.862,0.00192,0.00302,-0.00509
12.055,5531.869,0.00179,0.00247,-0.00509
12.062,5531.877,0.00137,0.00247,-0.00495
12.078,5531.893,0.0011,0.00165,-0.00357
12.087,5531.901,0.00124,0.0011,-0.00234
12.093,5531.909,0.0011,0.00014,-0.0011
12.105,5531.917,0.00096,-0.00041,0.00014
12.109,5531.925,0.00055,-0.00055,0.00082
12.125,5531.94,-0.00027,-0.00069,0.00069
12.134,5531.948,-0.00069,-0.0011,0.00027
12.141,5531.956,-0.00096,-0.00082,0.00096
12.149,5531.964,-0.0011,-0.00041,0.00206
12.157,5531.972,-0.00069,0.00041,0.00289
12.165,5531.98,-0.00027,0.00151,0.00289
12.173,5531.988,0.00014,0.00234,0.00261
12.188,5532.003,0.00055,0.0033,0.00179
12.201,5532.011,0.00096,0.0044,0.00096
12.203,5532.019,0.00137,0.0044,0.00082
12.214,5532.027,0.00165,0.00467,0.00027
12.233,5532.043,0.00165,0.00454,0.00082
12.236,5532.051,0.00179,0.00385,0.00082
12.244,5532.059,0.00192,0.00316,0.00055
12.254,5532.066,0.0022,0.00206,0.00027
12.259,5532.074,0.00234,0.00069,0.00082
12.268,5532.082,0.00234,-0,0.0011
12.276,5532.09,0.0022,-0.00096,0.00137
12.283,5532.098,0.00206,-0.00165,0.00179
12.298,5532.113,0.00165,-0.00192,0.00151
12.309,5532.122,0.00124,-0.00247,0.0022
12.314,5532.129,0.0011,-0.00206,0.00261
12.324,5532.137,0.00082,-0.00206,0.00179
12.339,5532.153,0.00041,-0.00192,0.00124
12.347,5532.161,0,-0.00137,-0
12.355,5532.169,-0,-0.00041,-0.00124
12.371,5532.184,0,0.00027,-0.00206
12.377,5532.193,0.00082,0.0011,-0.00275
12.389,5532.2,0.00096,0.00165,-0.00275
12.393,5532.208,0.0011,0.00192,-0.00247
12.402,5532.216,0.00179,0.00234,-0.00247
12.408,5532.224,0.00192,0.0022,-0.0022
12.418,5532.232,0.0022,0.00206,-0.00082
12.424,5532.24,0.00261,0.00192,0
12.434,5532.248,0.00247,0.00151,0.00096
12.449,5532.263,0.00247,0.00096,0.00124
12.458,5532.271,0.0022,0.00041,0.00151
12.465,5532.279,0.00206,0.00027,0.00206
12.473,5532.287,0.0022,-0.00027,0.00179
12.488,5532.303,0.0022,-0.00027,0.00165
12.505,5532.319,0.00192,-0.00096,0.00192
12.52,5532.334,0.00179,-0.0011,0.00124
12.529,5532.342,0.00165,-0.00082,0.00014
12.536,5532.35,0.00179,-0.00055,-0.00055
12.545,5532.358,0.00179,-0,-0.0011
12.558,5532.373,0.00151,0.00014,-0.00124
12.567,5532.382,0.00165,0.00027,-0.00027
12.575,5532.389,0.00151,0.00014,0.00041
12.583,5532.397,0.00165,-0.00014,0.00041
12.598,5532.413,0.00179,0.00014,0.00014
12.608,5532.421,0.00151,0.00082,-0.00082
12.616,5532.429,0.00124,0.00069,-0.0011
12.623,5532.437,0.00082,-0,-0.00082
12.633,5532.444,0,-0.00041,-0.00082
12.639,5532.453,-0.00014,-0.00069,-0.00069
12.645,5532.46,0.00014,-0.00069,-0.00027
12.654,5532.468,0.00014,-0.00027,-0.00124
12.661,5532.476,-0.00014,0,-0.00206
12.672,5532.484,-0.00082,0.00069,-0.00192
12.677,5532.492,-0.00124,0.00069,-0.00165
12.686,5532.5,-0.0011,0.00041,-0.0011
12.692,5532.508,-0.00137,0.00151,-0.00082
12.713,5532.523,-0.00096,0.00247,-0.00027
12.717,5532.531,-0.00082,0.0033,0.00014
12.725,5532.539,-0.0011,0.00316,0.00027
12.732,5532.547,-0.00082,0.00247,-0.00014
12.75,5532.563,-0.00055,0.0022,-0.00027
12.755,5532.571,0.00027,0.00247,-0.00041
12.765,5532.579,0.0011,0.0022,-0.00014
12.781,5532.594,0.00151,0.00206,0.00014
12.788,5532.602,0.00179,0.00192,0.0011
12.796,5532.61,0.00261,0.00069,0.00234
12.804,5532.618,0.00275,-0,0.00261
12.811,5532.626,0.00289,-0.00179,0.00275
12.832,5532.642,0.00344,-0.00179,0.00316
12.836,5532.65,0.00344,-0.00151,0.0033
12.849,5532.664,0.0033,-0.00165,0.00357
12.858,5532.673,0.00247,-0.00192,0.00385
12.869,5532.681,0.00151,-0.00206,0.00316
12.874,5532.689,0.00151,-0.00192,0.00247
12.883,5532.697,0.00151,-0.00124,0.00137
12.889,5532.704,0.00137,-0.00027,0.00041
12.899,5532.712,0.00151,0.00014,-0.00069
12.905,5532.72,0.00137,0.0011,-0.00192
12.914,5532.728,0.00096,0.00124,-0.00206
12.922,5532.736,0.00041,0.00165,-0.00192
12.93,5532.744,-0.00014,0.00234,-0.00247
12.937,5532.752,-0.00014,0.00275,-0.00275
12.945,5532.76,0.00014,0.00302,-0.00247
12.953,5532.768,-0.00027,0.00302,-0.00275
12.97,5532.783,-0.00069,0.0022,-0.00261
12.976,5532.791,-0.00096,0.00137,-0.00247
12.985,5532.799,-0.00124,0.00055,-0.00137
12.991,5532.807,-0.00124,0.00014,0
13.009,5532.823,-0.0011,-0.00014,0.00014
13.016,5532.831,-0.0011,-0.00082,0.00014
13.025,5532.839,-0.00096,-0.00179,0.00055
13.032,5532.846,-0.0011,-0.0022,0.00041
13.041,5532.854,-0.0011,-0.00234,-0.00041
13.048,5532.862,-0.00069,-0.00206,-0.00082
13.057,5532.87,-0.00055,-0.00261,-0.00014
13.064,5532.878,-0,-0.00247,-0.00014
13.082,5532.893,0.00027,-0.00179,-0.00069
13.086,5532.902,0.00055,-0.00124,-0.00137
13.098,5532.909,0.00055,-0.00096,-0.00151
13.102,5532.917,0.00096,-0.00027,-0.00082
13.12,5532.933,0.0011,0.00014,-0.00027
13.133,5532.949,0.00124,0,0.00069
13.143,5532.957,0.00151,0.00014,0.00137
13.148,5532.964,0.00179,0.00069,0.00096
13.158,5532.972,0.00206,0.00179,-0.00055
13.164,5532.98,0.00151,0.00247,-0.0011
13.174,5532.988,0.0011,0.00247,-0.00151
13.18,5532.996,0.00069,0.00206,-0.0022
13.189,5533.004,0.00055,0.00137,-0.00206
13.197,5533.012,0.00055,0.00137,-0.00302
13.206,5533.02,0.00041,0.00069,-0.00275
13.228,5533.028,-0,-0.00014,-0.0022
13.229,5533.043,-0.00041,-0.00082,-0.00137
13.236,5533.051,-0.00041,-0.00192,0.00082
13.249,5533.059,-0.00041,-0.00261,0.00179
13.252,5533.067,0.00027,-0.00316,0.00247
13.269,5533.083,0.00055,-0.0033,0.00289
13.275,5533.091,0.00082,-0.00316,0.00371
13.285,5533.099,0.0011,-0.00275,0.00371
13.291,5533.106,0.00082,-0.00302,0.00357
13.301,5533.114,0.00069,-0.00275,0.00247
13.307,5533.122,0.00124,-0.00179,0.00082
13.316,5533.13,0.00137,-0.00096,-0.00069
13.322,5533.138,0.00151,-0.00014,-0.00165
13.339,5533.153,0.0011,-0,-0.00137
13.347,5533.162,0.00069,0.00069,-0.00192
13.355,5533.169,0.00041,0.00137,-0.00247
13.362,5533.177,-0,0.00151,-0.00206
13.382,5533.193,-0.00014,0.00165,-0.0022
13.386,5533.201,-0.00014,0.00179,-0.00247
13.397,5533.209,-0.00014,0.00247,-0.00275
13.401,5533.217,-0.00014,0.00275,-0.0022
13.41,5533.224,-0.00014,0.0022,-0.00165
13.418,5533.232,-0.00055,0.0022,-0.00206
13.427,5533.24,-0.00082,0.0033,-0.0033
13.432,5533.248,-0.0011,0.00316,-0.00357
13.449,5533.264,-0.0011,0.00289,-0.00316
13.458,5533.272,-0.00041,0.0033,-0.00385
13.465,5533.28,-0.00055,0.00371,-0.0044
13.472,5533.288,-0.00014,0.00412,-0.00412
13.491,5533.303,0.00027,0.00344,-0.00302
13.498,5533.311,0.00096,0.00302,-0.00289
13.506,5533.319,0.00151,0.00275,-0.0022
13.517,5533.327,0.00151,0.00234,-0.00206
13.528,5533.343,0.00206,0.0011,-0.00096
13.536,5533.351,0.00261,0.00027,0.00014
13.545,5533.359,0.00289,-0.00069,0.0011
13.56,5533.374,0.00247,-0.00137,0.00151
13.57,5533.382,0.00206,-0.00234,0.00234
13.575,5533.39,0.00192,-0.00426,0.00426
13.584,5533.398,0.00165,-0.00509,0.00481
13.599,5533.413,0.00096,-0.00536,0.00522
13.608,5533.422,0.00027,-0.00619,0.00536
13.614,5533.429,-0,-0.00564,0.00509
13.623,5533.437,-0.00027,-0.00522,0.00509
13.631,5533.445,-0.00124,-0.00467,0.00509
13.639,5533.453,-0.0022,-0.00412,0.0044
13.647,5533.461,-0.00289,-0.00344,0.00357
13.654,5533.469,-0.00289,-0.0022,0.00344
13.661,5533.477,-0.00357,-0,0.00124
13.67,5533.484,-0.00454,0.00137,-0.0011
13.678,5533.492,-0.00467,0.00247,-0.00192
13.685,5533.5,-0.00454,0.00426,-0.00247
13.693,5533.508,-0.00412,0.00426,-0.00151
13.701,5533.516,-0.00399,0.00454,-0.00234
13.709,5533.525,-0.00302,0.00467,-0.00316
13.728,5533.54,-0.00206,0.00481,-0.0033
13.732,5533.548,-0.00137,0.00454,-0.00289
13.749,5533.563,-0.00055,0.00371,-0.00302
13.757,5533.571,0.00027,0.00275,-0.0022
13.765,5533.579,0.00151,0.00192,-0.00014
13.772,5533.587,0.00206,0.0011,0.00055
13.791,5533.603,0.00206,0.00014,0.00069
13.804,5533.618,0.00192,-0.00069,0.00055
13.815,5533.626,0.00234,-0.00137,0.00096
13.82,5533.634,0.00261,-0.00206,0.00151
13.827,5533.642,0.00247,-0.00206,0.00137
13.836,5533.65,0.00247,-0.00261,0.00206
13.844,5533.658,0.00192,-0.00275,0.0011
13.858,5533.673,0.00165,-0.00261,0.00082
13.869,5533.681,0.00124,-0.00275,0.0011
13.874,5533.689,0.00096,-0.00247,0.00192
13.884,5533.697,0.00137,-0.0022,0.00206
13.898,5533.713,0.00096,-0.00192,0.00151
13.907,5533.721,0.00027,-0.00151,0.00179
13.915,5533.729,-0.00055,-0.00124,0.00206
13.922,5533.737,-0.00082,-0.00082,0.00206
13.929,5533.745,-0.00055,-0.00014,0.00151
13.938,5533.752,-0.00027,0.00082,0.00192
13.946,5533.76,-0.00041,0.00137,0.00165
13.954,5533.768,-0.00055,0.00179,0.00041
13.961,5533.776,-0.00082,0.00124,0.00014
13.97,5533.784,-0.00137,0.00124,0.00041
13.978,5533.792,-0.00082,0.00151,0.00069
13.985,5533.8,-0.00082,0.00165,0.00055
13.993,5533.808,-0.00055,0.00179,0.00041
14.012,5533.823,-0.00041,0.00179,0.00069
14.015,5533.831,-0.00082,0.00192,0.00041
14.028,5533.839,-0.00096,0.00137,0.00124
14.031,5533.847,-0.0011,0.00082,0.00179
14.048,5533.863,-0.00096,0.00096,0.00179
14.055,5533.871,-0.00069,0.00137,0.00027
14.064,5533.878,-0.00014,0.00124,-0.00069
14.079,5533.894,-0.00027,0.00082,-0.00082
14.088,5533.902,-0,0,-0.0011
14.094,5533.91,-0,-0.00055,-0.00151
14.104,5533.918,-0.00014,-0.00082,-0.00137
14.119,5533.933,0.00041,-0.00137,-0.00082
14.126,5533.941,0.00069,-0.00137,-0.0011
14.136,5533.949,0.00165,-0.00082,-0.00179
14.143,5533.957,0.00206,-0.00055,-0.00192
14.157,5533.973,0.00192,-0.00055,-0.0011
14.168,5533.981,0.0011,-0.00041,-0.0011
14.175,5533.989,0.00069,0,-0.00165
14.183,5533.997,0.00014,0.00041,-0.00151
14.188,5534.005,0,0.00082,-0.00137
14.212,5534.02,0.00027,0.0011,-0.00192
14.213,5534.028,0,0.00151,-0.0022
14.226,5534.036,-0.00027,0.00124,-0.0022
14.229,5534.044,-0.0011,0.00096,-0.00192
14.237,5534.052,-0.00137,0.00082,-0.00165
14.246,5534.06,-0.00069,0.00041,-0.00069
14.253,5534.068,-0.00055,-0,0.00041
14.269,5534.083,-0.00014,-0.00069,0.00165
14.285,5534.099,0.00014,-0.00082,0.00192
14.293,5534.107,0.00041,-0.00096,0.00206
14.301,5534.115,0.00069,-0.00151,0.00261
14.309,5534.123,0.00151,-0.00206,0.00247
14.317,5534.131,0.00234,-0.00261,0.00261
14.324,5534.138,0.00316,-0.00289,0.00344
14.332,5534.146,0.0033,-0.00344,0.00399
14.34,5534.154,0.00247,-0.00357,0.00275
14.348,5534.162,0.00234,-0.0033,0.00179
14.356,5534.17,0.00206,-0.0033,0.00124
14.363,5534.178,0.00206,-0.00289,0.00069
14.381,5534.193,0.00192,-0.00261,0.00082
14.389,5534.201,0.0011,-0.00179,0.00069
14.393,5534.209,0.00055,-0.0011,0.00069
14.405,5534.217,-0.00041,-0.00014,0.00027
14.418,5534.233,-0.00137,0.00027,-0.00082
14.427,5534.241,-0.00179,0.00069,-0.00192
14.436,5534.249,-0.00165,0.00151,-0.0022
14.442,5534.257,-0.00192,0.00165,-0.00261
14.449,5534.264,-0.00192,0.00206,-0.00302
14.458,5534.272,-0.00192,0.00192,-0.00234
14.465,5534.28,-0.0022,0.00165,-0.00165
14.473,5534.288,-0.00179,0.00096,-0.00096
14.481,5534.296,-0.00192,0,0
14.49,5534.304,-0.00124,-0.00027,-0.00027
14.506,5534.32,-0.00082,-0.00055,0.00014
14.514,5534.327,-0.00069,-0.00055,0.0011
14.529,5534.343,-0.00055,-0.00096,0.00165
14.537,5534.351,-0.00027,-0.00124,0.00234
14.545,5534.359,-0.00014,-0.00179,0.00289
14.552,5534.367,0.00014,-0.00192,0.00275
14.561,5534.374,-0.00014,-0.00151,0.00137
14.569,5534.383,-0.00027,-0.00124,0.00082
14.576,5534.39,0,-0.00082,0
14.585,5534.398,0,-0.00096,0.00014
14.592,5534.406,-0.00014,-0.00082,0.00055
14.6,5534.414,0.00027,-0.00069,0.0011
14.611,5534.422,0.00014,-0.00027,0.00096
14.615,5534.43,0.00027,0.00055,0.00124
14.623,5534.438,0,0.00151,0.00041
14.644,5534.453,-0.00014,0.00179,0.00027
14.646,5534.461,-0,0.00165,0.00082
14.656,5534.469,0.00014,0.00179,0.0011
14.661,5534.477,0,0.00192,0.00082
14.68,5534.493,-0.00014,0.00192,0.00151
14.686,5534.501,-0.00027,0.00151,0.0011
14.694,5534.509,-0.00027,0.00069,0.00055
14.702,5534.517,-0.00027,-0.00041,0.00082
14.716,5534.524,-0.00041,-0.00137,0.0011
14.741,5534.532,-0.00027,-0.00206,0.00151
14.742,5534.54,-0.00027,-0.00247,0.00124
14.743,5534.548,-0,-0.00289,0.00151
14.744,5534.556,0.00014,-0.00371,0.00137
14.749,5534.564,-0.00014,-0.00412,0.0011
14.758,5534.572,-0.00027,-0.00426,-0
14.765,5534.58,-0.00014,-0.00385,-0.00096
14.773,5534.587,-0.00014,-0.00275,-0.00179
14.788,5534.603,-0.00027,-0.0022,-0.00234
14.797,5534.611,-0.00069,-0.00206,-0.00344
14.803,5534.619,-0.00096,-0.00151,-0.00385
14.813,5534.627,-0.0011,-0.00096,-0.00426
14.819,5534.634,-0.00124,-0.00027,-0.00564
14.828,5534.643,-0.00151,0.00082,-0.00674
14.835,5534.65,-0.00165,0.00137,-0.00619
14.845,5534.658,-0.00192,0.00151,-0.00591
14.851,5534.666,-0.00247,0.00179,-0.00564
14.86,5534.674,-0.00289,0.00179,-0.00536
14.867,5534.682,-0.00302,0.0022,-0.00522
14.876,5534.69,-0.00275,0.00275,-0.00454
14.883,5534.698,-0.0022,0.00289,-0.00412
14.899,5534.713,-0.00179,0.00275,-0.00344
14.907,5534.721,-0.00151,0.00234,-0.00316
14.916,5534.73,-0.0011,0.00261,-0.00261
14.931,5534.744,-0.00096,0.00289,-0.00234
14.94,5534.753,-0.00041,0.0033,-0.00137
14.945,5534.761,-0,0.0033,-0.00041
14.955,5534.769,0.00041,0.00357,-0.00027
14.961,5534.776,0.00082,0.0033,-0
14.97,5534.784,0.0011,0.00289,0.00069
14.977,5534.792,0.00124,0.00261,0.00082
14.988,5534.8,0.00137,0.00206,0.00124
14.992,5534.808,0.00151,0.00165,0.00247
15.002,5534.816,0.00165,0.00041,0.00426
15.018,5534.832,0.00165,-0.00041,0.00454
15.024,5534.84,0.00165,-0.00137,0.00454
15.033,5534.847,0.00165,-0.00206,0.00495
15.05,5534.863,0.00137,-0.00289,0.0055
15.055,5534.871,0.00096,-0.0044,0.00605
15.065,5534.879,0.00069,-0.00509,0.00605
15.073,5534.887,0.00027,-0.00564,0.00591
15.083,5534.895,-0,-0.00522,0.00646
15.096,5534.91,-0.00055,-0.00509,0.00646
15.105,5534.918,-0.00124,-0.0044,0.00564
15.112,5534.926,-0.00137,-0.00316,0.00454
15.12,5534.934,-0.00165,-0.00179,0.0033
15.127,5534.942,-0.00192,-0.00069,0.00165
15.135,5534.95,-0.00247,0.00027,0.00082
15.144,5534.958,-0.00275,0.00234,-0.00082
15.16,5534.973,-0.00275,0.00357,-0.00192
15.166,5534.981,-0.00261,0.0044,-0.00275
15.176,5534.989,-0.00247,0.00509,-0.00412
15.181,5534.997,-0.00179,0.00536,-0.00481
15.2,5535.013,-0.00165,0.00536,-0.00577
15.206,5535.021,-0.00192,0.00467,-0.00577
15.229,5535.029,-0.00192,0.00357,-0.00481
15.23,5535.036,-0.00179,0.00261,-0.00385
15.231,5535.044,-0.0011,0.00151,-0.0033
15.239,5535.052,-0.00069,0.00014,-0.00151
15.245,5535.06,-0.00096,-0.0011,-0.00069
15.253,5535.068,-0.0011,-0.00234,0.00041
15.262,5535.076,-0.00137,-0.00316,0.00069
15.276,5535.092,-0.00165,-0.00357,0.00055
15.286,5535.099,-0.00165,-0.00399,0.00096
15.292,5535.107,-0.00192,-0.0044,0.00165
15.309,5535.123,-0.00206,-0.00426,0.00151
15.317,5535.131,-0.00302,-0.00412,0.00179
15.324,5535.139,-0.00371,-0.00399,0.00151
15.332,5535.147,-0.00399,-0.00275,0.00055
15.343,5535.155,-0.00426,-0.00151,0.00041
15.348,5535.163,-0.00344,-0.00206,0.00151
15.359,5535.17,-0.00385,-0.00206,0.00247
15.364,5535.178,-0.00454,-0.00165,0.00302
15.372,5535.186,-0.00467,-0.00179,0.00357
15.379,5535.194,-0.0044,-0.00165,0.00357
15.387,5535.202,-0.00454,-0.00151,0.00344
15.398,5535.21,-0.0044,-0.00124,0.00247
15.403,5535.218,-0.00412,-0.00124,0.0022
15.418,5535.233,-0.00371,-0.00165,0.00192
15.427,5535.241,-0.00357,-0.0022,0.00192
15.434,5535.25,-0.00399,-0.0011,0.00082
15.453,5535.264,-0.00385,-0.00082,-0
15.458,5535.273,-0.00371,-0.00096,-0.00082
15.47,5535.281,-0.00399,-0.0011,-0.00151
15.474,5535.289,-0.00371,-0.00137,-0.0011
15.482,5535.296,-0.0044,0,-0.00234
15.489,5535.304,-0.00385,0.00082,-0.00316
15.498,5535.312,-0.00316,0.00096,-0.00371
15.506,5535.32,-0.00344,0.00179,-0.00522
15.513,5535.328,-0.00289,0.00247,-0.00591
15.522,5535.336,-0.00206,0.00275,-0.00577
15.539,5535.352,-0.00151,0.00275,-0.00564
15.546,5535.359,-0.00055,0.00302,-0.00591
15.556,5535.367,0.00014,0.00316,-0.00646
15.559,5535.375,-0.00014,0.00344,-0.00701
15.571,5535.383,0.00055,0.00151,-0.00577
15.575,5535.391,0.00082,0.00041,-0.00412
15.586,5535.399,0.0011,0,-0.00344
15.591,5535.407,0.00206,-0.00055,-0.00192
15.602,5535.414,0.00275,-0.00082,-0.00137
15.607,5535.423,0.00261,-0.00069,-0.00179
15.619,5535.43,0.00275,-0.00041,-0.0011
15.623,5535.438,0.00275,-0.00027,0
15.633,5535.446,0.00289,0.00027,0.00055
15.639,5535.455,0.00302,0.0011,-0.00014
15.655,5535.47,0.00302,0.00165,-0.00041
15.667,5535.478,0.00261,0.00275,-0.00069
15.68,5535.493,0.0022,0.00316,-0.00041
15.688,5535.501,0.00151,0.00289,0.00027
15.696,5535.509,0.00096,0.00234,0.00041
15.702,5535.517,0.00041,0.00234,0
15.713,5535.525,0,0.00234,-0.00096
15.72,5535.533,-0.00014,0.00206,-0.0011
15.726,5535.541,-0.00082,0.00151,-0.00055
15.733,5535.549,-0.00165,0.00055,0.00041
15.743,5535.556,-0.00179,0.00014,0.00082
15.749,5535.564,-0.00247,-0.00124,0.00069
15.758,5535.572,-0.00371,-0.00179,0.00041
15.764,5535.58,-0.00495,-0.00261,-0.00041
15.775,5535.588,-0.00646,-0.0033,-0.00069
15.789,5535.603,-0.06985,-0.00316,-0.00069
15.797,5535.612,-0.08071,-0.00275,-0.00096
15.805,5535.619,-0.09199,-0.00192,-0.00124
15.812,5535.627,-0.09556,-0.00069,-0.00179
15.829,5535.643,-0.0869,0.00027,-0.0022
15.838,5535.651,-0.07906,0.00124,-0.00275
15.843,5535.659,-0.00674,0.00247,-0.00289
15.854,5535.667,-0.00536,0.00371,-0.00302
15.86,5535.674,-0.00344,0.00454,-0.00261
15.868,5535.682,-0.00096,0.00536,-0.0022
15.885,5535.698,0.00027,0.00536,-0.00192
15.891,5535.706,0.00275,0.00495,-0.00096
15.9,5535.714,0.00564,0.00426,-0.00124
15.908,5535.722,0.08209,0.00371,-0.00165
15.916,5535.73,0.10244,0.0033,-0.00137
15.923,5535.738,0.11468,0.00247,-0.00069
15.938,5535.753,0.1166,0.00151,-0
15.948,5535.761,0.12375,0.00027,0.00096
15.953,5535.769,0.12072,0.00014,0.00137
15.964,5535.777,0.10972,0.00082,0.00055
15.978,5535.793,0.10519,0.00206,-0.00055
15.986,5535.801,0.10409,0.00192,-0.00124
15.994,5535.809,0.09941,0.00275,-0.0022
16.002,5535.816,0.08126,0.00385,-0.00371
16.011,5535.824,0.00646,0.00399,-0.00426
16.018,5535.832,0.00522,0.00399,-0.00536
16.025,5535.84,0.00495,0.00481,-0.00646
16.033,5535.848,0.00495,0.00646,-0.00811
16.049,5535.863,0.00467,0.07274,-0.09391
16.059,5535.872,0.00495,0.07879,-0.10601
16.064,5535.88,0.0055,0.07397,-0.1089
16.08,5535.894,0.00467,0.08277,-0.11344
16.089,5535.903,0.00399,0.08525,-0.10464
16.096,5535.911,0.00371,0.07645,-0.00866
16.104,5535.919,0.00275,0.0066,-0.00797
16.112,5535.927,0.00124,0.00454,-0.00715
16.12,5535.934,-0.00124,0.00536,-0.00825
16.128,5535.942,-0.0033,0.00467,-0.00839
16.135,5535.95,-0.0033,0.00357,-0.00797
16.143,5535.958,-0.00467,0.00275,-0.00756
16.152,5535.966,-0.00687,0.00261,-0.00756
16.159,5535.974,-0.08484,0.00082,-0.00756
16.169,5535.982,-0.10106,-0.0022,-0.00715
16.175,5535.99,-0.09859,-0.00344,-0.00742
16.182,5535.998,-0.08443,-0.00344,-0.00742
16.199,5536.013,-0.00632,-0.00124,-0.00784
16.205,5536.021,-0.00234,-0.00426,-0.00577
16.227,5536.029,0.00027,-0.00646,-0.00454
16.228,5536.037,0.0033,-0.07219,-0.00385
16.238,5536.053,0.00646,-0.08346,-0.00206
16.246,5536.061,0.11743,-0.09666,-0.00027
16.253,5536.069,0.1639,-0.0946,0.00027
16.262,5536.076,0.1958,-0.08869,0.00041
16.27,5536.084,0.20735,-0.08443,0.00014
16.278,5536.092,0.21519,-0.08057,-0.00014
16.285,5536.1,0.22179,-0.07645,-0.00055
16.293,5536.108,0.22027,-0.00357,-0.00302
16.309,5536.123,0.21643,-0.00055,-0.0044
16.317,5536.132,0.20199,0.00247,-0.00674
16.325,5536.139,0.18535,0.00495,-0.09749
16.332,5536.147,0.13557,0.07494,-0.13035
16.349,5536.163,0.09708,0.08621,-0.1375
16.364,5536.179,0.07164,0.10464,-0.14355
16.373,5536.187,0.00454,0.11124,-0.14616
16.381,5536.194,0.00014,0.10863,-0.15538
16.389,5536.202,-0.00412,0.08924,-0.15166
16.396,5536.21,-0.07879,0.00302,-0.11701
16.404,5536.218,-0.1034,-0.00137,-0.09254
16.411,5536.226,-0.11797,-0.00591,-0.00577
16.42,5536.235,-0.11,-0.10409,-0.00179
16.435,5536.25,-0.09089,-0.14795,0.00275
16.443,5536.258,-0.07837,-0.21037,0.00742
16.458,5536.273,-0.07769,-0.25245,0.10092
16.468,5536.281,-0.07232,-0.31776,0.13709
16.473,5536.289,-0.00399,-0.3773,0.17971
16.488,5536.297,0.00124,-0.42061,0.21684
16.498,5536.313,0.0055,-0.40453,0.21698
16.508,5536.321,0.12389,-0.41841,0.23787
16.514,5536.328,0.19058,-0.42625,0.2497
16.521,5536.336,0.26359,-0.42267,0.2596
16.529,5536.344,0.35021,-0.41181,0.26606
16.538,5536.352,0.44509,-0.35351,0.24338
16.546,5536.36,0.54299,-0.3113,0.22523
16.553,5536.368,0.6413,-0.24681,0.20089
16.568,5536.383,0.67086,-0.18095,0.17215
16.578,5536.392,0.70386,-0.10477,0.12939
16.584,5536.399,0.75116,-0.00605,0.10423
16.594,5536.407,0.75584,0.00179,0.00509
16.608,5536.423,0.71541,0.0066,0.00124
16.616,5536.431,0.67265,0.12801,-0.00344
16.624,5536.439,0.61242,0.17889,-0.00839
16.632,5536.447,0.53006,0.2079,-0.12183
16.64,5536.454,0.44344,0.23622,-0.15125
16.648,5536.462,0.3476,0.26001,-0.17545
16.656,5536.47,0.29342,0.27555,-0.19484
16.664,5536.478,0.20721,0.27143,-0.20446
16.672,5536.486,0.09721,0.25025,-0.20721
16.68,5536.494,0.00055,0.20474,-0.18879
16.688,5536.502,-0.00536,0.17298,-0.17669
16.695,5536.51,-0.11688,0.12829,-0.15689
16.713,5536.525,-0.16294,0.07961,-0.1276
16.72,5536.533,-0.19979,0.00261,-0.09488
16.725,5536.541,-0.21354,-0.00385,-0.00495
16.736,5536.549,-0.20336,-0.08869,-0.00096
16.742,5536.557,-0.17586,-0.13447,0.00234
16.76,5536.573,-0.13833,-0.15895,0.00495
16.766,5536.581,-0.07796,-0.19126,0.00797
16.774,5536.588,-0.00234,-0.20639,0.09914
16.782,5536.596,0.00385,-0.20735,0.11014
16.791,5536.604,0.0913,-0.21464,0.12403
16.798,5536.612,0.13668,-0.20873,0.13159
16.805,5536.62,0.19594,-0.18865,0.13406
16.813,5536.628,0.23513,-0.15428,0.12004
16.828,5536.643,0.24516,-0.1221,0.09721
16.836,5536.652,0.26634,-0.07452,0.00715
16.848,5536.659,0.29384,-0.00302,0.00467
16.851,5536.667,0.31611,0.00247,0.00192
16.868,5536.683,0.3223,0.00701,-0.00027
16.878,5536.691,0.35282,0.12004,-0.00261
16.884,5536.699,0.37936,0.14988,-0.00412
16.896,5536.707,0.37744,0.16087,-0.00495
16.899,5536.715,0.35888,0.14437,-0.00426
16.915,5536.73,0.33358,0.12444,-0.00371
16.925,5536.738,0.32491,0.08525,-0.00179
16.931,5536.746,0.29425,0.00426,0.00027
16.939,5536.754,0.25479,-0.0033,0.00481
16.947,5536.762,0.19511,-0.10931,0.09254
16.956,5536.77,0.13984,-0.17669,0.13379
16.962,5536.778,0.00522,-0.26455,0.18287
16.979,5536.793,-0.00165,-0.30951,0.20212
16.986,5536.801,-0.0066,-0.3641,0.23141
17,5536.81,-0.10959,-0.38954,0.24283
17.012,5536.824,-0.13599,-0.40219,0.25328
17.021,5536.833,-0.17751,-0.41869,0.27871
17.028,5536.841,-0.2123,-0.42914,0.29618
17.035,5536.848,-0.23953,-0.40095,0.2783
17.041,5536.856,-0.2695,-0.33976,0.23609
17.049,5536.865,-0.31157,-0.27926,0.18549
17.066,5536.88,-0.35516,-0.22316,0.13461
17.074,5536.888,-0.48482,-0.17779,0.00866
17.088,5536.903,-0.53102,-0.08608,0.00165
17.098,5536.911,-0.60899,0.00454,-0.09157
17.104,5536.919,-0.68159,0.1672,-0.19553
17.114,5536.927,-0.73411,0.31446,-0.3245
17.129,5536.943,-0.7403,0.39215,-0.39201
17.136,5536.951,-0.79076,0.4807,-0.46695
17.144,5536.959,-0.81895,0.54244,-0.52154
17.152,5536.967,-0.82624,0.5852,-0.56609
17.16,5536.974,-0.82885,0.62535,-0.60583
17.168,5536.982,-0.75598,0.62961,-0.61036
17.177,5536.99,-0.74058,0.5918,-0.59194
17.183,5536.998,-0.67292,0.51837,-0.5379
17.194,5537.006,-0.58286,0.42928,-0.47135
17.2,5537.014,-0.44509,0.34732,-0.39476
17.219,5537.03,-0.37895,0.31006,-0.3586
17.228,5537.037,-0.26812,0.21285,-0.27417
17.239,5537.053,-0.18123,0.13255,-0.20652
17.246,5537.061,-0.09281,0.00674,-0.14108
17.254,5537.069,-0.00192,0.00192,-0.00784
17.262,5537.077,0.00371,-0.00041,-0.00426
17.27,5537.084,0.00674,-0.00027,-0.00357
17.28,5537.093,0.07205,-0.00014,-0.00289
17.286,5537.101,0.00412,0.00234,-0.0044
17.293,5537.108,-0.0044,0.00522,-0.00742
17.301,5537.116,-0.11206,0.08264,-0.10904
17.309,5537.124,-0.20515,0.13681,-0.1793
17.317,5537.132,-0.28366,0.16803,-0.2321
17.327,5537.14,-0.35076,0.21175,-0.28105
17.339,5537.155,-0.37496,0.24076,-0.3146
17.35,5537.163,-0.39449,0.26964,-0.3443
17.359,5537.171,-0.40026,0.2717,-0.34994
17.366,5537.179,-0.38252,0.24997,-0.33069
17.371,5537.187,-0.34581,0.19401,-0.28476
17.389,5537.203,-0.29095,0.13447,-0.22935
17.396,5537.211,-0.19525,0.07343,-0.16142
17.404,5537.219,-0.08236,0.00165,-0.00811
17.412,5537.227,0.00275,-0.00385,0.00014
17.419,5537.234,0.13365,-0.1309,0.10065
17.429,5537.242,0.20157,-0.2035,0.16569
17.436,5537.25,0.2706,-0.23994,0.209
17.445,5537.258,0.33165,-0.25245,0.23361
17.452,5537.266,0.36768,-0.24516,0.22976
17.459,5537.274,0.36933,-0.22275,0.21753
17.476,5537.29,0.3421,-0.1947,0.18892
17.489,5537.305,0.27486,-0.13736,0.12375
17.5,5537.313,0.19374,-0.0044,0.00302
17.507,5537.321,0.11811,0.00467,-0.00577
17.514,5537.329,0.00206,0.18755,-0.19456
17.523,5537.337,-0.09226,0.32395,-0.33674
17.536,5537.344,-0.19869,0.41291,-0.44743
17.542,5537.353,-0.29452,0.4873,-0.53859
17.546,5537.36,-0.3685,0.55743,-0.61848
17.554,5537.368,-0.41662,0.64006,-0.70194
17.561,5537.376,-0.43766,0.6908,-0.75694
17.569,5537.384,-0.43244,0.70208,-0.76643
17.577,5537.392,-0.38885,0.68021,-0.73659
17.586,5537.4,-0.31721,0.66027,-0.69781
17.593,5537.408,-0.20996,0.6237,-0.62975
17.609,5537.423,-0.10024,0.54972,-0.52525
17.619,5537.431,0.00591,0.4708,-0.40343
17.623,5537.439,0.21574,0.39201,-0.27954
17.637,5537.447,0.35392,0.33014,-0.16844
17.649,5537.463,0.43904,0.25107,-0.00715
17.661,5537.471,0.54986,0.17655,0.00302
17.664,5537.479,0.62975,0.12444,0.10656
17.672,5537.487,0.68214,0.07054,0.17146
17.681,5537.495,0.70276,0.00316,0.20433
17.696,5537.51,0.67774,-0.00014,0.22206
17.702,5537.518,0.69369,0.00055,0.22935
17.712,5537.526,0.6435,0.00316,0.20075
17.728,5537.542,0.55743,0.0044,0.16335
17.735,5537.55,0.48098,0.00412,0.13887
17.743,5537.557,0.44633,0.00344,0.13764
17.76,5537.573,0.36506,0.0033,0.11564
17.768,5537.581,0.29879,0.0011,0.10986
17.776,5537.589,0.23458,-0.00165,0.10684
17.781,5537.597,0.176,-0.07315,0.12898
17.792,5537.604,0.14534,-0.15826,0.18246
17.797,5537.613,0.09226,-0.24269,0.22797
17.807,5537.62,0.00646,-0.3333,0.29452
17.813,5537.628,0.07068,-0.40411,0.36135
17.822,5537.636,0.00687,-0.46805,0.41896
17.829,5537.645,0.07068,-0.51824,0.46104
17.846,5537.66,0.0781,-0.53446,0.47726
17.853,5537.668,0.10079,-0.54904,0.50627
17.871,5537.683,0.12306,-0.52236,0.49913
17.877,5537.691,0.15868,-0.5005,0.50724
17.887,5537.699,0.18081,-0.46777,0.4994
17.9,5537.707,0.20267,-0.42983,0.48208
17.909,5537.723,0.20735,-0.3817,0.44633
17.916,5537.731,0.23279,-0.33591,0.42171
17.924,5537.739,0.26867,-0.275,0.38087
17.933,5537.746,0.31598,-0.20941,0.3377
17.941,5537.754,0.3718,-0.16431,0.31446
17.948,5537.762,0.40961,-0.09708,0.25836
17.958,5537.77,0.43643,-0.00591,0.22894
17.973,5537.786,0.42818,-0.00165,0.18287
17.988,5537.802,0.42666,0.00385,0.12788
17.996,5537.809,0.44853,0.09405,0.00797
18.003,5537.817,0.47121,0.12636,0.00564
18.018,5537.833,0.43285,0.14946,0.00124
18.034,5537.841,0.39504,0.17339,-0.00344
18.035,5537.849,0.3619,0.20047,-0.00756
18.045,5537.857,0.31488,0.22041,-0.11137
18.049,5537.865,0.25602,0.24296,-0.16156
18.059,5537.873,0.20776,0.25273,-0.20116
18.066,5537.88,0.17243,0.26978,-0.23732
18.081,5537.888,0.12746,0.26359,-0.253
18.081,5537.896,0.00577,0.23265,-0.26441
18.088,5537.904,0.00014,0.21505,-0.29081
18.096,5537.912,-0.00069,0.21876,-0.31144
18.107,5537.92,-0.00247,0.19387,-0.30291
18.113,5537.928,-0.00632,0.13805,-0.27995
18.128,5537.943,-0.08195,0.08759,-0.24076
18.136,5537.951,-0.07329,0.00275,-0.17779
18.144,5537.959,-0.00371,-0.00082,-0.13283
18.155,5537.967,0.00234,-0.00302,-0.09556
18.173,5537.983,0.00632,-0.00357,-0.00701
18.175,5537.991,0.09776,-0.00261,-0.00564
18.187,5537.999,0.10972,-0.00165,-0.00522
18.19,5538.006,0.00316,-0.00234,-0.00591
18.2,5538.014,-0.00632,-0.00467,-0.00577
18.207,5538.022,-0.15262,-0.00289,-0.09281
18.222,5538.03,-0.26386,0.00041,-0.15056
18.222,5538.038,-0.40837,0.00344,-0.2156
18.232,5538.046,-0.58382,0.00357,-0.25891
18.247,5538.062,-0.71087,0.00344,-0.28655
18.254,5538.069,-0.86322,0.00522,-0.3553
18.263,5538.077,-1.00458,0.00687,-0.4103
18.279,5538.093,-1.06645,0.00605,-0.41113
18.289,5538.101,-1.11994,0.00522,-0.41071
18.296,5538.109,-1.16352,0.07054,-0.43065
18.305,5538.117,-1.1924,0.00687,-0.42405
18.31,5538.125,-1.1726,0.00426,-0.39545
18.325,5538.14,-1.07924,0.00371,-0.36245
18.334,5538.148,-0.9614,0.00454,-0.31653
18.341,5538.156,-0.88633,0.00687,-0.28738
18.351,5538.164,-0.75542,0.07452,-0.22866
18.357,5538.172,-0.64996,0.00481,-0.15936
18.365,5538.18,-0.60803,0.00082,-0.11192
18.373,5538.188,-0.49968,-0.00179,-0.00605
18.393,5538.203,-0.35695,-0.00124,-0.00247
18.397,5538.211,-0.24351,-0.00192,0.00096
18.406,5538.219,-0.18535,-0.0022,0.00179
18.411,5538.227,-0.18837,-0.00385,0.00192
18.429,5538.243,-0.18714,-0.0044,0.00041
18.444,5538.259,-0.21629,-0.07837,-0.0011
18.453,5538.266,-0.30401,-0.1375,-0.00206
18.458,5538.274,-0.3817,-0.18521,-0.00275
18.468,5538.282,-0.47712,-0.23265,-0.00412
18.475,5538.29,-0.56045,-0.25547,-0.00701
18.484,5538.298,-0.6523,-0.31336,-0.00784
18.49,5538.306,-0.69671,-0.37922,-0.00564
18.507,5538.322,-0.66839,-0.40095,-0.00247
18.515,5538.329,-0.62576,-0.41346,-0.00027
18.523,5538.337,-0.58713,-0.42749,0.00124
18.538,5538.353,-0.54299,-0.4312,0.00289
18.548,5538.361,-0.40975,-0.41566,0.00687
18.554,5538.369,-0.23884,-0.35833,0.00825
18.563,5538.377,-0.00467,-0.27858,0.09914
18.569,5538.384,0.14795,-0.23471,0.14754
18.578,5538.392,0.3355,-0.14327,0.16225
18.584,5538.4,0.51893,-0.00426,0.16844
18.594,5538.408,0.65794,0.00082,0.18081
18.603,5538.416,0.79255,0.00426,0.20955
18.609,5538.424,0.91754,0.00632,0.26111
18.617,5538.432,1.03042,0.1243,0.26015
18.626,5538.44,1.08749,0.23292,0.2002
18.632,5538.448,1.10385,0.286,0.16266
18.649,5538.463,1.0626,0.31735,0.12279
18.658,5538.471,1.0329,0.35571,0.0077
18.665,5538.479,0.98409,0.32175,0.00852
18.672,5538.487,0.9141,0.28655,0.00839
18.688,5538.503,0.80424,0.24695,0.00784
18.695,5538.511,0.70977,0.20639,0.08965
18.705,5538.519,0.59373,0.1683,0.00839
18.711,5538.526,0.48482,0.00564,0.14259
18.721,5538.534,0.37414,-0.08566,0.22027
18.753,5538.542,0.26029,-0.17957,0.26373
18.754,5538.55,0.20487,-0.23141,0.28875
18.755,5538.558,0.12526,-0.27074,0.29879
18.76,5538.573,0.07975,-0.28462,0.29494
18.767,5538.582,0.00467,-0.32601,0.31488
18.775,5538.589,0.00454,-0.32959,0.32491
18.783,5538.597,0.00495,-0.32945,0.32491
18.8,5538.613,0.00467,-0.30154,0.29054
18.805,5538.621,0.08772,-0.23237,0.24159
18.816,5538.629,0.15015,-0.17119,0.20749
18.821,5538.637,0.22495,-0.11605,0.19071
18.83,5538.644,0.29686,-0.0066,0.18191
18.837,5538.652,0.3729,-0.00302,0.18961
18.846,5538.66,0.44069,0.00082,0.18466
18.852,5538.668,0.5071,0.08924,0.1441
18.863,5538.676,0.57544,0.14176,0.12072
18.869,5538.684,0.62645,0.18975,0.09391
18.88,5538.692,0.68406,0.20969,0.10148
18.884,5538.7,0.66137,0.18824,0.11619
18.901,5538.708,0.63085,0.15029,0.1452
18.908,5538.723,0.59235,0.11646,0.16046
18.925,5538.739,0.55261,0.07397,0.18026
18.931,5538.747,0.52085,0.00137,0.2211
18.949,5538.763,0.4642,-0.00371,0.24447
18.957,5538.771,0.40631,-0.11316,0.29631
18.964,5538.778,0.34829,-0.1892,0.34141
18.972,5538.786,0.28806,-0.27129,0.39243
18.979,5538.794,0.24131,-0.35337,0.44495
18.987,5538.802,0.2343,-0.407,0.48978
18.995,5538.81,0.22784,-0.44481,0.52965
19.004,5538.818,0.22261,-0.50779,0.58492
19.021,5538.833,0.19539,-0.53955,0.59868
19.026,5538.842,0.14919,-0.59648,0.62439
19.037,5538.849,0.12444,-0.64694,0.66467
19.043,5538.857,0.07631,-0.65422,0.66385
19.06,5538.873,0.00261,-0.62673,0.62466
19.068,5538.881,-0.00605,-0.59317,0.57076
19.076,5538.889,-0.14589,-0.53941,0.50146
19.089,5538.904,-0.19869,-0.4598,0.41181
19.101,5538.912,-0.25424,-0.3564,0.30002
19.105,5538.92,-0.2948,-0.23306,0.18081
19.114,5538.928,-0.30566,-0.13406,0.09377
19.12,5538.936,-0.29947,0.00289,-0.00467
19.129,5538.944,-0.29741,0.18535,-0.18659
19.137,5538.952,-0.28724,0.3223,-0.31309
19.146,5538.96,-0.29397,0.41814,-0.39847
19.152,5538.968,-0.27747,0.52855,-0.49651
19.17,5538.983,-0.26015,0.57104,-0.53433
19.177,5538.991,-0.31323,0.59482,-0.57393
19.184,5538.999,-0.36658,0.5852,-0.58933
19.194,5539.007,-0.43202,0.55633,-0.58864
19.21,5539.023,-0.45801,0.5027,-0.55206
19.229,5539.038,-0.48496,0.43147,-0.50036
19.233,5539.046,-0.56471,0.3234,-0.4334
19.238,5539.054,-0.64295,0.19759,-0.35571
19.253,5539.062,-0.70359,0.0715,-0.26812
19.256,5539.07,-0.75432,-0.00646,-0.16486
19.263,5539.078,-0.79901,-0.1595,-0.09694
19.278,5539.093,-0.7348,-0.21258,-0.00275
19.288,5539.101,-0.6842,-0.28078,0.00536
19.294,5539.109,-0.59414,-0.35365,0.14011
19.304,5539.117,-0.51769,-0.38239,0.17902
19.318,5539.133,-0.44082,-0.34664,0.1683
19.328,5539.141,-0.29535,-0.29136,0.15428
19.334,5539.149,-0.18012,-0.24819,0.14877
19.342,5539.157,-0.08979,-0.23224,0.16156
19.349,5539.165,-0.00247,-0.19883,0.15194
19.358,5539.172,-0.0011,-0.17022,0.13434
19.366,5539.18,-0.09185,-0.18755,0.12183
19.373,5539.188,-0.16582,-0.17201,0.00825
19.381,5539.196,-0.23953,-0.07205,-0.00261
19.389,5539.204,-0.33303,0.0825,-0.18507
19.399,5539.212,-0.44701,0.20006,-0.32423
19.405,5539.22,-0.6578,0.26579,-0.44633
19.413,5539.228,-0.8283,0.38142,-0.6072
19.429,5539.243,-0.92331,0.49143,-0.74071
19.435,5539.251,-1.08845,0.63882,-0.93747
19.445,5539.259,-1.22925,0.72091,-1.08625
19.451,5539.267,-1.31216,0.88014,-1.27628
19.468,5539.283,-1.25991,0.98257,-1.36372
19.476,5539.291,-1.24506,1.11416,-1.48995
19.484,5539.298,-1.18938,1.16751,-1.51855
19.492,5539.306,-1.08336,1.2034,-1.50411
19.499,5539.314,-0.87093,1.29085,-1.49105
19.508,5539.322,-0.6501,1.33141,-1.43138
19.515,5539.33,-0.51521,1.3189,-1.39095
19.523,5539.338,-0.31061,1.15968,-1.2111
19.531,5539.346,-0.09157,1.04019,-1.056
19.547,5539.361,0.1111,0.87051,-0.83284
19.557,5539.37,0.25176,0.69877,-0.65106
19.569,5539.384,0.3861,0.45334,-0.38693
19.581,5539.393,0.51274,0.16266,-0.09996
19.585,5539.401,0.60417,-0.13764,0.17022
19.594,5539.409,0.6633,-0.42254,0.40398
19.602,5539.417,0.69657,-0.66921,0.60088
19.609,5539.424,0.75103,-0.80822,0.74415
19.618,5539.432,0.81991,-0.83297,0.80644
19.626,5539.44,0.88756,-0.80259,0.8272
19.634,5539.448,0.93885,-0.7865,0.82844
19.642,5539.456,0.9306,-0.70111,0.76271
19.653,5539.464,0.92716,-0.63442,0.70262
19.658,5539.472,0.87436,-0.50916,0.57681
19.665,5539.48,0.82115,-0.37331,0.44371
19.673,5539.488,0.76202,-0.2321,0.31749
19.688,5539.503,0.68021,-0.11839,0.20597
19.701,5539.511,0.62233,0.00069,0.0946
19.703,5539.519,0.5709,0.10381,0.00137
19.714,5539.527,0.5236,0.17298,-0.00454
19.719,5539.535,0.4741,0.2178,-0.09405
19.732,5539.543,0.42969,0.23815,-0.12348
19.735,5539.551,0.39366,0.24379,-0.14327
19.745,5539.558,0.35406,0.2299,-0.14616
19.75,5539.566,0.31006,0.19649,-0.13695
19.761,5539.574,0.2618,0.14795,-0.11536
19.767,5539.582,0.23898,0.10574,-0.0935
19.777,5539.59,0.20199,0.0033,-0.00522
19.782,5539.598,0.17064,-0.00426,-0.00151
19.799,5539.613,0.14451,-0.09419,0.00179
19.807,5539.621,0.13241,-0.16142,0.00687
19.815,5539.629,0.12719,-0.23774,0.12292
19.823,5539.637,0.12911,-0.30319,0.17229
19.841,5539.653,0.12774,-0.32931,0.198
19.854,5539.669,0.13516,-0.33894,0.21491
19.862,5539.677,0.18411,-0.35475,0.24461
19.869,5539.684,0.23774,-0.35434,0.2618
19.878,5539.692,0.28793,-0.34787,0.27184
19.886,5539.7,0.33454,-0.32849,0.2684
19.893,5539.708,0.37524,-0.31336,0.25479
19.902,5539.716,0.4081,-0.26936,0.21794
19.909,5539.724,0.43986,-0.20446,0.17531
19.924,5539.74,0.43794,-0.13365,0.1276
19.934,5539.747,0.45595,-0.07948,0.00784
19.949,5539.763,0.44137,-0.00357,0.0033
19.956,5539.771,0.40315,0.00412,-0.00632
19.965,5539.779,0.37001,0.11935,-0.15785
19.972,5539.787,0.34224,0.19965,-0.24681
19.98,5539.794,0.31501,0.27775,-0.31446
19.988,5539.803,0.27981,0.33289,-0.36259
19.996,5539.81,0.24393,0.37579,-0.41085
20.003,5539.818,0.20254,0.40301,-0.44853
20.012,5539.826,0.18342,0.41745,-0.48043
20.019,5539.835,0.15015,0.41168,-0.49019
20.036,5539.85,0.14341,0.40067,-0.47795
20.045,5539.858,0.13296,0.35901,-0.44069
20.059,5539.873,0.11743,0.29838,-0.3762
20.068,5539.881,0.12017,0.21698,-0.30209
20.075,5539.889,0.13324,0.12911,-0.22357
20.082,5539.897,0.16019,0.00481,-0.14988
20.099,5539.913,0.1672,-0.00014,-0.09185
20.109,5539.921,0.19167,-0.00577,-0.00344
20.119,5539.929,0.22357,-0.12155,0.00247
20.123,5539.937,0.2607,-0.19167,0.09529
20.129,5539.944,0.3102,-0.24654,0.15593
20.139,5539.952,0.36451,-0.297,0.23141
20.145,5539.96,0.40466,-0.34526,0.2871
20.155,5539.968,0.39504,-0.37964,0.32024
20.17,5539.984,0.33358,-0.37648,0.30154
20.187,5540,0.24571,-0.36149,0.26702
20.191,5540.007,0.11797,-0.36162,0.21972
20.211,5540.023,0.00096,-0.32313,0.16596
20.227,5540.031,-0.18315,-0.25066,0.00646
20.228,5540.039,-0.37235,-0.16363,-0.00509
20.239,5540.047,-0.56554,-0.07411,-0.18274
20.24,5540.054,-0.76189,0.00137,-0.31515
20.248,5540.063,-0.92359,0.11344,-0.44715
20.256,5540.07,-1.04954,0.22495,-0.57393
20.263,5540.078,-1.12544,0.3135,-0.67567
20.272,5540.086,-1.18099,0.40535,-0.76766
20.279,5540.094,-1.16724,0.50174,-0.83036
20.288,5540.102,-1.1649,0.58465,-0.89636
20.295,5540.11,-1.04844,0.65546,-0.90819
20.303,5540.118,-0.88976,0.70909,-0.88234
20.318,5540.133,-0.73507,0.68819,-0.80589
20.329,5540.141,-0.56182,0.67856,-0.7282
20.334,5540.149,-0.41401,0.61779,-0.6182
20.344,5540.157,-0.27198,0.50023,-0.47218
20.358,5540.173,-0.16995,0.40067,-0.34829
20.367,5540.181,-0.07769,0.24929,-0.19167
20.374,5540.189,-0.00137,0.00646,-0.00289
20.382,5540.197,0.00014,-0.13846,0.11412
20.389,5540.205,-0.00344,-0.34485,0.24351
20.406,5540.22,-0.10037,-0.49692,0.32313
20.412,5540.228,-0.23856,-0.64928,0.37317
20.423,5540.236,-0.41305,-0.81386,0.40659
20.437,5540.252,-0.52319,-0.86446,0.38734
20.445,5540.26,-0.70661,-0.94724,0.36272
20.453,5540.267,-0.8569,-1.078,0.39944
20.471,5540.283,-0.91217,-1.06755,0.36644
20.478,5540.291,-0.99055,-1.1,0.36396
20.486,5540.299,-0.98972,-1.10949,0.40288
20.494,5540.307,-0.9515,-1.06837,0.40521
20.5,5540.314,-0.89402,-1.06356,0.43821
20.507,5540.323,-0.75845,-0.9603,0.43271
20.524,5540.338,-0.60019,-0.82362,0.4114
20.532,5540.346,-0.45733,-0.72476,0.4059
20.54,5540.355,-0.22055,-0.53831,0.37881
20.554,5540.37,-0.00027,-0.33701,0.32271
20.564,5540.378,0.2112,-0.18026,0.29604
20.579,5540.393,0.39971,0.00014,0.23004
20.587,5540.401,0.59799,0.19883,0.15153
20.594,5540.409,0.78485,0.3443,0.10931
20.602,5540.417,0.94187,0.49995,0.00454
20.609,5540.425,1.06356,0.63346,-0.00165
20.62,5540.433,1.16793,0.70744,-0.00261
20.627,5540.441,1.21,0.73824,-0.00234
20.634,5540.449,1.21234,0.74883,-0.00234
20.641,5540.456,1.22347,0.74621,-0.00041
20.649,5540.464,1.15335,0.67815,0.00481
20.658,5540.472,1.11664,0.63429,0.09323
20.666,5540.48,0.99907,0.54876,0.12224
20.674,5540.488,0.85333,0.43986,0.16899
20.691,5540.503,0.68668,0.32794,0.18906
20.697,5540.512,0.53364,0.19058,0.23966
20.706,5540.519,0.37125,0.07123,0.26991
20.712,5540.527,0.21849,-0.0022,0.27582
20.73,5540.543,0.10945,-0.09075,0.27404
20.74,5540.551,-0.0022,-0.15757,0.25946
20.744,5540.559,-0.13489,-0.20776,0.23086
20.752,5540.567,-0.21766,-0.22344,0.2057
20.76,5540.574,-0.27404,-0.22206,0.18631
20.768,5540.582,-0.29755,-0.1925,0.15015
20.776,5540.59,-0.30924,-0.15249,0.12636
20.783,5540.598,-0.30924,-0.07521,0.00687
20.802,5540.614,-0.27019,-0.00055,0.00137
20.808,5540.622,-0.2024,0.09103,-0.00467
20.817,5540.63,-0.14218,0.18879,-0.10505
20.822,5540.638,-0.00536,0.28311,-0.14919
20.84,5540.653,-0.00055,0.33797,-0.18727
20.846,5540.661,0.00577,0.37139,-0.20295
20.854,5540.669,0.11179,0.39256,-0.21739
20.862,5540.677,0.14877,0.39696,-0.23155
20.881,5540.693,0.18109,0.36836,-0.209
20.885,5540.701,0.21972,0.30484,-0.14121
20.898,5540.709,0.24489,0.26799,-0.09254
20.901,5540.716,0.25451,0.19924,-0.00261
20.91,5540.724,0.2805,0.099,0.00715
20.917,5540.732,0.31845,0.0022,0.1529
20.926,5540.74,0.38294,-0.00247,0.22371
20.932,5540.748,0.40755,-0.08168,0.27321
20.95,5540.763,0.39243,-0.12334,0.30195
20.958,5540.772,0.38087,-0.18246,0.35695
20.968,5540.779,0.39187,-0.23732,0.38981
20.975,5540.787,0.4147,-0.27679,0.4169
20.996,5540.803,0.40961,-0.2882,0.42281
21.005,5540.819,0.40081,-0.30608,0.43038
21.012,5540.827,0.3927,-0.29686,0.4202
21.02,5540.834,0.3795,-0.28572,0.41236
21.028,5540.842,0.3762,-0.27624,0.40288
21.036,5540.85,0.38926,-0.27253,0.39806
21.043,5540.858,0.42529,-0.29989,0.43175
21.052,5540.866,0.42144,-0.3047,0.43808
21.061,5540.874,0.40219,-0.31817,0.45279
21.068,5540.882,0.36891,-0.34512,0.45554
21.076,5540.89,0.34732,-0.39641,0.4741
21.083,5540.898,0.33742,-0.41016,0.4796
21.101,5540.913,0.30057,-0.41896,0.4631
21.111,5540.921,0.24819,-0.46021,0.45746
21.117,5540.929,0.1397,-0.51384,0.44069
21.121,5540.937,0.00027,-0.5753,0.44082
21.14,5540.953,-0.099,-0.57557,0.40191
21.146,5540.961,-0.21959,-0.62384,0.38418
21.154,5540.968,-0.34787,-0.63058,0.34595
21.161,5540.976,-0.49486,-0.58919,0.2574
21.169,5540.984,-0.63456,-0.5324,0.15675
21.178,5540.992,-0.80094,-0.47506,0.00426
21.186,5541,-0.95288,-0.43161,-0.00577
21.193,5541.008,-1.07635,-0.36589,-0.17105
21.222,5541.023,-1.08639,-0.26056,-0.26331
21.222,5541.031,-1.04019,-0.12059,-0.38349
21.226,5541.039,-0.97171,-0.00481,-0.44578
21.232,5541.047,-0.85635,0.08786,-0.53955
21.249,5541.063,-0.72641,0.19594,-0.5951
21.257,5541.071,-0.54794,0.30731,-0.64185
21.264,5541.079,-0.35021,0.42955,-0.68722
21.272,5541.087,-0.12059,0.55055,-0.72078
21.279,5541.095,0.00619,0.63552,-0.7315
21.287,5541.102,0.1991,0.6941,-0.71816
21.296,5541.11,0.24021,0.71376,-0.71087
21.304,5541.118,0.24915,0.69809,-0.67801
21.312,5541.126,0.21422,0.67389,-0.6479
21.319,5541.134,0.17738,0.64584,-0.61339
21.329,5541.142,0.10656,0.62989,-0.61944
21.335,5541.15,-0.00371,0.53267,-0.56554
21.343,5541.158,-0.23815,0.42048,-0.52759
21.357,5541.173,-0.39518,0.2772,-0.45086
21.367,5541.181,-0.59496,0.16376,-0.43271
21.373,5541.189,-0.76656,0.00674,-0.42859
21.383,5541.197,-0.90777,0.00027,-0.43629
21.399,5541.213,-0.96195,-0.00495,-0.41003
21.408,5541.221,-1.09519,-0.11192,-0.41607
21.413,5541.228,-1.20835,-0.17572,-0.41058
21.429,5541.244,-1.21206,-0.22701,-0.37372
21.437,5541.252,-1.19006,-0.27734,-0.3344
21.446,5541.26,-1.0813,-0.34018,-0.24007
21.452,5541.268,-1.00114,-0.36355,-0.18686
21.469,5541.283,-0.825,-0.3421,-0.11481
21.476,5541.291,-0.59812,-0.27445,-0.00591
21.485,5541.299,-0.36919,-0.23581,0.00179
21.492,5541.307,-0.20295,-0.19553,0.00729
21.51,5541.323,-0.00014,-0.10519,0.09831
21.515,5541.331,0.23774,-0.00137,0.14506
21.525,5541.339,0.38871,0.00399,0.19443
21.53,5541.347,0.55206,0.1254,0.22096
21.539,5541.354,0.68709,0.2123,0.22193
21.546,5541.362,0.78334,0.25974,0.23966
21.556,5541.37,0.8415,0.26359,0.2827
21.562,5541.378,0.83765,0.25025,0.32106
21.58,5541.394,0.7601,0.22523,0.31267
21.588,5541.402,0.65931,0.2211,0.26936
21.596,5541.41,0.60459,0.20996,0.26304
21.603,5541.417,0.48702,0.15015,0.25919
21.619,5541.433,0.40178,0.1199,0.23485
21.626,5541.441,0.3311,0.10148,0.21615
21.636,5541.45,0.26249,0.08937,0.19883
21.65,5541.465,0.19896,0.0847,0.16404
21.661,5541.473,0.19044,0.12691,0.1034
21.666,5541.481,0.21092,0.16913,0.00509
21.674,5541.488,0.30731,0.2475,0.00275
21.681,5541.496,0.41649,0.3003,0.00096
21.689,5541.504,0.52896,0.34581,-0.00082
21.698,5541.512,0.67292,0.42116,-0.00357
21.705,5541.52,0.78787,0.46915,-0.00495
21.713,5541.528,0.91905,0.52085,-0.0066
21.731,5541.543,0.93885,0.51879,-0.00729
21.737,5541.551,0.98959,0.49115,-0.00385
21.746,5541.559,0.99536,0.40164,0.00234
21.751,5541.567,0.95026,0.28958,0.00756
21.772,5541.583,0.85951,0.17353,0.12059
21.776,5541.591,0.75749,0.00055,0.21615
21.784,5541.599,0.57393,-0.19167,0.30718
21.792,5541.607,0.34801,-0.38074,0.37469
21.8,5541.614,0.13228,-0.5544,0.43587
21.808,5541.622,-0.08566,-0.71486,0.48524
21.816,5541.63,-0.18604,-0.78623,0.4961
21.823,5541.638,-0.29342,-0.80025,0.46503
21.832,5541.646,-0.37826,-0.75405,0.39325
21.84,5541.654,-0.41511,-0.66756,0.30965
21.856,5541.67,-0.4312,-0.61999,0.26098
21.862,5541.677,-0.41552,-0.48441,0.15317
21.88,5541.693,-0.34512,-0.33234,0.00591
21.888,5541.701,-0.2596,-0.17738,-0.00316
21.895,5541.709,-0.17669,-0.00577,-0.10161
21.907,5541.717,-0.12004,0.00316,-0.1573
21.922,5541.724,-0.09268,0.07576,-0.18851
21.923,5541.733,-0.00467,0.0055,-0.15854
21.926,5541.74,0.00151,-0.00302,-0.00715
21.933,5541.748,0.00536,-0.1397,0.00275
21.942,5541.756,0.08016,-0.20763,0.00839
21.949,5541.764,0.00701,-0.30649,0.15785
21.957,5541.772,0.07535,-0.38679,0.21175
21.966,5541.78,0.09295,-0.46448,0.26345
21.973,5541.788,0.1122,-0.49803,0.28187
21.988,5541.803,0.14699,-0.4455,0.24434
21.999,5541.811,0.22866,-0.33426,0.16706
22.004,5541.819,0.32189,-0.15606,0.00275
22.021,5541.827,0.39889,0.00687,-0.15661
22.028,5541.843,0.41305,0.20735,-0.26469
22.037,5541.851,0.5236,0.4213,-0.41442
22.044,5541.859,0.63195,0.6303,-0.5511
22.052,5541.867,0.69162,0.83517,-0.69451
22.059,5541.874,0.71046,1.0065,-0.83284
22.068,5541.882,0.69217,1.11073,-0.92537
22.075,5541.89,0.64859,1.09684,-0.9427
22.083,5541.898,0.55825,0.9856,-0.8833
22.092,5541.906,0.4191,0.81304,-0.78389
22.109,5541.922,0.28861,0.63332,-0.65271
22.12,5541.93,0.25066,0.51673,-0.57021
22.13,5541.945,0.14726,0.30374,-0.41291
22.138,5541.953,0.07659,0.00426,-0.22509
22.146,5541.961,0.00481,-0.23347,-0.00165
22.154,5541.969,0.00302,-0.48634,0.19731
22.162,5541.977,0.00316,-0.68778,0.38473
22.17,5541.984,0.00344,-0.84989,0.54725
22.18,5541.993,0.00481,-0.95205,0.66357
22.186,5542,0.00646,-0.99055,0.72366
22.194,5542.008,0.09543,-1.01172,0.76574
22.202,5542.016,0.14575,-0.97034,0.7634
22.22,5542.024,0.20763,-0.8404,0.68049
22.22,5542.032,0.27596,-0.60899,0.51714
22.225,5542.04,0.36534,-0.35502,0.34018
22.239,5542.048,0.45237,-0.10986,0.16858
22.248,5542.063,0.50215,0.00674,0.00399
22.256,5542.071,0.52003,0.23787,-0.09419
22.266,5542.079,0.473,0.35131,-0.19951
22.271,5542.087,0.37895,0.40411,-0.26318
22.289,5542.103,0.27803,0.42158,-0.3113
22.295,5542.111,0.07191,0.39325,-0.35475
22.304,5542.119,-0.12815,0.32024,-0.35599
22.312,5542.126,-0.31171,0.21574,-0.31529
22.32,5542.134,-0.46667,0.09474,-0.24049
22.327,5542.142,-0.59111,0.00055,-0.19099
22.335,5542.15,-0.68324,-0.00027,-0.20969
22.343,5542.158,-0.74016,-0.00412,-0.18026
22.358,5542.173,-0.71417,-0.00687,-0.14658
22.367,5542.182,-0.70455,-0.11949,-0.1067
22.376,5542.19,-0.7557,-0.20006,-0.00619
22.385,5542.197,-0.75144,-0.2629,-0
22.408,5542.213,-0.69286,-0.29549,0.00495
22.411,5542.221,-0.65807,-0.31982,0.00852
22.418,5542.229,-0.63058,-0.28174,0.00687
22.422,5542.237,-0.55371,-0.24324,0.00742
22.432,5542.244,-0.4598,-0.22674,0.10546
22.438,5542.253,-0.37867,-0.19387,0.10106
22.446,5542.26,-0.34898,-0.15716,0.00811
22.453,5542.268,-0.30291,-0.07961,0.00412
22.462,5542.276,-0.24681,0.0022,-0.00151
22.469,5542.284,-0.18549,0.0902,-0.00564
22.478,5542.292,-0.19731,0.10257,-0.00632
22.485,5542.3,-0.22605,0.12004,-0.09268
22.493,5542.308,-0.27514,0.10037,-0.10216
22.508,5542.323,-0.34485,0.00426,-0.09089
22.519,5542.331,-0.46324,-0.00344,-0.00756
22.524,5542.339,-0.56994,-0.12155,-0.00577
22.535,5542.347,-0.67059,-0.21917,-0.00179
22.548,5542.363,-0.68406,-0.29081,0.0033
22.556,5542.371,-0.7293,-0.4103,0.11756
22.564,5542.379,-0.76409,-0.49143,0.16899
22.572,5542.386,-0.7821,-0.55605,0.20597
22.58,5542.394,-0.78567,-0.64199,0.26964
22.588,5542.402,-0.78595,-0.74855,0.3498
22.596,5542.41,-0.79805,-0.83573,0.4125
22.603,5542.418,-0.7601,-0.86927,0.44839
22.612,5542.426,-0.70249,-0.85676,0.4642
22.631,5542.442,-0.5929,-0.76849,0.4312
22.634,5542.449,-0.51012,-0.68681,0.38211
22.644,5542.457,-0.3344,-0.50009,0.26427
22.659,5542.473,-0.19717,-0.36204,0.18727
22.668,5542.481,-0.00289,-0.17779,0.00756
22.674,5542.489,0.14135,0.00082,-0.00247
22.686,5542.497,0.31171,0.21189,-0.13791
22.689,5542.505,0.46159,0.40178,-0.25575
22.7,5542.513,0.59551,0.5511,-0.34306
22.706,5542.52,0.70304,0.67554,-0.41539
22.718,5542.528,0.7766,0.74484,-0.46049
22.749,5542.536,0.82555,0.79943,-0.49115
22.75,5542.544,0.82844,0.79887,-0.48455
22.751,5542.552,0.85704,0.79365,-0.47493
22.751,5542.56,0.82101,0.70606,-0.39861
22.752,5542.568,0.73631,0.58534,-0.31639
22.771,5542.583,0.62617,0.46599,-0.2464
22.777,5542.591,0.52181,0.35173,-0.17847
22.786,5542.6,0.45196,0.27156,-0.12911
22.799,5542.614,0.39792,0.20694,-0.00866
22.809,5542.623,0.37785,0.15331,-0.00412
22.816,5542.631,0.37139,0.1034,-0
22.824,5542.639,0.37579,0.00619,0.00412
22.832,5542.646,0.38363,0.00399,0.00742
22.84,5542.654,0.4026,0.00289,0.09268
22.848,5542.662,0.4378,0.00591,0.00715
22.856,5542.67,0.47726,0.07604,0.0066
22.864,5542.678,0.51796,0.10381,0.00564
22.881,5542.693,0.5192,0.1199,0.00454
22.887,5542.702,0.52704,0.13736,0.0033
22.897,5542.709,0.50669,0.13901,0.0033
22.908,5542.717,0.47052,0.12444,0.00454
22.918,5542.733,0.40136,0.08951,0.00564
22.926,5542.741,0.3256,0.00467,0.0066
22.934,5542.749,0.24475,0.00124,0.00605
22.942,5542.757,0.17971,-0.00247,0.00687
22.951,5542.764,0.12774,-0.00481,0.00729
22.957,5542.773,0.08731,-0.07356,0.00839
22.966,5542.78,0.07466,-0.08992,0.09501
22.973,5542.788,0.00591,-0.09652,0.10216
22.981,5542.796,0.00522,-0.10505,0.10656
22.989,5542.804,0.0055,-0.10972,0.10395
22.997,5542.812,0.08676,-0.10203,0.10546
23.005,5542.82,0.12513,-0.07975,0.09845
23.013,5542.828,0.17738,-0.00481,0.09364
23.029,5542.843,0.21422,-0.00206,0.09254
23.038,5542.851,0.24736,0.00124,0.08731
23.044,5542.859,0.2596,0.00646,0.00605
23.053,5542.867,0.25369,0.08924,0.00467
23.069,5542.883,0.22687,0.07109,0.00536
23.089,5542.899,0.18081,0.00522,0.0055
23.092,5542.906,0.10945,0.00151,0.00742
23.1,5542.914,0.00316,-0.0022,0.0968
23.107,5542.922,-0.00467,-0.00632,0.12966
23.116,5542.93,-0.12774,-0.11261,0.16349
23.122,5542.938,-0.18494,-0.15551,0.1914
23.133,5542.946,-0.24723,-0.20075,0.21574
23.153,5542.962,-0.27156,-0.23471,0.23031
23.156,5542.969,-0.30044,-0.24447,0.22976
23.163,5542.977,-0.30731,-0.22096,0.21285
23.179,5542.993,-0.28806,-0.18906,0.19635
23.185,5543.001,-0.23403,-0.121,0.16858
23.197,5543.009,-0.16074,-0.0066,0.15015
23.201,5543.017,-0.07397,0.00041,0.11784
23.214,5543.025,0.00316,0.10051,0.0066
23.218,5543.033,0.14506,0.19305,0.00192
23.233,5543.04,0.2651,0.27404,-0.0022
23.234,5543.048,0.36671,0.3212,-0.00247
23.242,5543.056,0.48854,0.36272,-0.00137
23.249,5543.064,0.6083,0.40026,-0.00069
23.258,5543.072,0.72518,0.43464,0.00027
23.264,5543.08,0.81331,0.4543,-0.00014
23.275,5543.088,0.82816,0.4532,-0.00137
23.289,5543.103,0.73618,0.40343,-0.00151
23.298,5543.111,0.51686,0.25451,0.00412
23.304,5543.119,0.21931,0.00509,0.13393
23.313,5543.127,-0.12086,-0.15483,0.22839
23.328,5543.143,-0.35076,-0.2695,0.26249
23.336,5543.151,-0.71637,-0.42735,0.3047
23.343,5543.159,-1.05311,-0.55096,0.32862
23.354,5543.166,-1.36042,-0.6336,0.31281
23.359,5543.174,-1.60462,-0.67018,0.27596
23.368,5543.182,-1.76179,-0.61792,0.19167
23.374,5543.19,-1.79644,-0.48565,0.0077
23.385,5543.198,-1.7127,-0.26675,-0.09075
23.399,5543.213,-1.52529,-0.00426,-0.2409
23.408,5543.222,-1.32866,0.22894,-0.43519
23.417,5543.23,-1.23956,0.40205,-0.58382
23.431,5543.244,-0.97048,0.57063,-0.68846
23.437,5543.253,-0.71968,0.7645,-0.80878
23.446,5543.261,-0.50339,0.94476,-0.90626
23.453,5543.269,-0.31831,1.08103,-0.96195
23.463,5543.277,-0.13997,1.16517,-0.96979
23.468,5543.285,0.00041,1.19886,-0.94504
23.48,5543.293,0.11715,1.19364,-0.89416
23.485,5543.3,0.16404,1.20766,-0.88234
23.495,5543.308,0.19786,1.13561,-0.83504
23.501,5543.316,0.17655,1.03675,-0.78347
23.51,5543.324,0.07012,0.93046,-0.75886
23.517,5543.332,-0.08525,0.7216,-0.67911
23.527,5543.34,-0.27913,0.45829,-0.57915
23.534,5543.348,-0.49349,0.19676,-0.49913
23.549,5543.363,-0.65642,-0.00124,-0.42171
23.556,5543.371,-0.85181,-0.22316,-0.3597
23.564,5543.379,-0.98739,-0.39174,-0.29384
23.572,5543.387,-1.06782,-0.51411,-0.24269
23.588,5543.403,-1.05297,-0.55564,-0.18452
23.595,5543.411,-0.98519,-0.54134,-0.12595
23.605,5543.419,-0.86996,-0.46186,-0.1045
23.611,5543.427,-0.72009,-0.3432,-0.09281
23.621,5543.434,-0.54918,-0.209,-0.00866
23.629,5543.442,-0.38184,-0.088,-0.00701
23.636,5543.45,-0.28407,-0.00467,-0.0044
23.642,5543.458,-0.13778,-0.00041,0.00014
23.66,5543.473,-0.00234,0.00357,0.00275
23.668,5543.482,0.09597,0.0055,0.00784
23.676,5543.489,0.18397,0.00399,0.14479
23.683,5543.497,0.2937,0.00247,0.20914
23.7,5543.513,0.33963,0.00014,0.24104
23.705,5543.521,0.42721,-0.00041,0.27981
23.721,5543.529,0.51109,0.00027,0.31584
23.73,5543.544,0.55193,0.00055,0.33797
23.742,5543.553,0.60734,0.0044,0.34677
23.745,5543.56,0.65134,0.08717,0.34238
23.754,5543.568,0.69052,0.10711,0.35626
23.762,5543.576,0.70758,0.13654,0.35227
23.769,5543.584,0.7095,0.16459,0.32216
23.779,5543.592,0.67444,0.1705,0.2904
23.786,5543.6,0.67182,0.16225,0.3025
23.794,5543.608,0.59716,0.11577,0.30979
23.809,5543.623,0.5148,0.00632,0.30346
23.816,5543.631,0.48867,0,0.33674
23.828,5543.639,0.45513,-0.07191,0.37345
23.832,5543.647,0.44564,-0.12774,0.4114
23.848,5543.663,0.42267,-0.15111,0.40659
23.856,5543.671,0.44289,-0.18686,0.43312
23.864,5543.679,0.45746,-0.24131,0.48153
23.872,5543.686,0.47286,-0.29645,0.52195
23.881,5543.695,0.4862,-0.34746,0.55784
23.895,5543.71,0.48647,-0.36479,0.56031
23.912,5543.718,0.50751,-0.41649,0.61146
23.919,5543.733,0.50641,-0.41044,0.59895
23.928,5543.742,0.5115,-0.43161,0.60527
23.935,5543.749,0.51095,-0.45334,0.6116
23.942,5543.757,0.52539,-0.47754,0.63222
23.96,5543.773,0.46764,-0.46035,0.58259
23.967,5543.781,0.42886,-0.42928,0.53048
23.973,5543.789,0.37359,-0.38225,0.4653
23.984,5543.797,0.3212,-0.34141,0.39916
23.989,5543.805,0.28614,-0.33193,0.37029
24,5543.813,0.24764,-0.27995,0.30621
24.004,5543.82,0.23801,-0.24654,0.27541
24.015,5543.828,0.22701,-0.17132,0.2068
24.02,5543.836,0.21615,-0.08497,0.12499
24.032,5543.844,0.22,0.00027,0.00426
24.037,5543.852,0.25726,0.00687,-0.00137
24.046,5543.861,0.25438,0.13709,-0.00866
24.059,5543.875,0.2431,0.1672,-0.1144
24.069,5543.883,0.23114,0.2167,-0.15799
24.077,5543.891,0.22481,0.27156,-0.20707
24.085,5543.899,0.20625,0.31886,-0.26359
24.092,5543.907,0.18054,0.35324,-0.31034
24.099,5543.915,0.13956,0.36424,-0.3421
24.109,5543.923,0.08883,0.35241,-0.36135
24.116,5543.931,0.00206,0.31735,-0.36878
24.124,5543.939,-0.00577,0.27225,-0.36479
24.132,5543.946,-0.11523,0.2189,-0.3509
24.139,5543.954,-0.1375,0.19071,-0.34829
24.147,5543.962,-0.13956,0.15414,-0.3234
24.156,5543.97,-0.12457,0.13172,-0.30855
24.164,5543.978,-0.09969,0.12183,-0.30181
24.172,5543.986,-0.07026,0.11701,-0.30016
24.189,5544.002,-0.00371,0.1232,-0.29507
24.196,5544.01,0.00206,0.15702,-0.30786
24.226,5544.024,0.00564,0.15702,-0.28229
24.226,5544.033,0.10615,0.16239,-0.26414
24.227,5544.041,0.15634,0.1716,-0.25369
24.234,5544.049,0.20982,0.18205,-0.25561
24.246,5544.057,0.25932,0.18892,-0.25176
24.249,5544.064,0.30319,0.18535,-0.2409
24.259,5544.072,0.33784,0.1617,-0.20804
24.266,5544.08,0.3553,0.11976,-0.1749
24.276,5544.088,0.35035,0.0066,-0.14382
24.283,5544.096,0.30374,-0.00234,-0.08731
24.289,5544.104,0.27459,-0.08429,-0.00619
24.297,5544.112,0.22921,-0.15428,-0.00289
24.306,5544.12,0.18961,-0.22467,0.00234
24.313,5544.128,0.14781,-0.2992,0.00784
24.33,5544.143,0.12348,-0.33784,0.10766
24.336,5544.151,0.13901,-0.37689,0.13874
24.345,5544.159,0.15153,-0.40975,0.16775
24.352,5544.167,0.12306,-0.45389,0.19277
24.368,5544.183,0.00591,-0.46351,0.18521
24.376,5544.191,-0.00646,-0.47479,0.14382
24.384,5544.199,-0.17531,-0.45471,0.00784
24.392,5544.206,-0.2651,-0.38912,-0.00151
24.4,5544.214,-0.33784,-0.27692,-0.14094
24.408,5544.222,-0.40301,-0.12815,-0.2882
24.416,5544.23,-0.47383,0.00041,-0.43257
24.425,5544.238,-0.57159,0.14795,-0.57585
24.44,5544.253,-0.63236,0.24654,-0.66495
24.447,5544.262,-0.65753,0.40384,-0.78691
24.456,5544.269,-0.64034,0.5379,-0.89416
24.462,5544.277,-0.57626,0.68255,-0.98986
24.479,5544.293,-0.4851,0.75501,-0.99371
24.496,5544.301,-0.40741,0.84122,-1.01997
24.499,5544.309,-0.30704,0.89994,-1.012
24.502,5544.317,-0.14204,0.93885,-0.95947
24.511,5544.324,0.00192,0.9427,-0.87615
24.518,5544.332,0.14822,0.90915,-0.78017
24.525,5544.34,0.21299,0.87257,-0.73067
24.535,5544.348,0.23856,0.74346,-0.62219
24.541,5544.356,0.22619,0.55577,-0.47891
24.549,5544.364,0.20433,0.31941,-0.2992
24.557,5544.372,0.10917,0.07645,-0.16816
24.565,5544.38,-0.00165,-0.24929,0.00137
24.574,5544.388,-0.19951,-0.59276,0.18769
24.588,5544.403,-0.37262,-0.82005,0.28641
24.597,5544.411,-0.60101,-1.0901,0.3828
24.605,5544.419,-0.80107,-1.29209,0.44275
24.614,5544.427,-0.94696,-1.39535,0.46406
24.629,5544.443,-0.9878,-1.37294,0.43918
24.637,5544.451,-1.02217,-1.29291,0.36259
24.644,5544.459,-1.023,-1.16036,0.27555
24.663,5544.475,-0.95562,-0.97322,0.17683
24.679,5544.49,-0.86144,-0.76216,0.00784
24.691,5544.505,-0.73439,-0.53487,-0.00289
24.698,5544.513,-0.67499,-0.40865,-0.10615
24.707,5544.522,-0.5324,-0.19401,-0.18535
24.714,5544.529,-0.3674,0.0011,-0.24819
24.724,5544.537,-0.19883,0.18012,-0.286
24.738,5544.553,-0.11041,0.23953,-0.28325
24.747,5544.561,0.00495,0.32079,-0.2607
24.757,5544.569,0.19236,0.38321,-0.24544
24.764,5544.577,0.29122,0.42295,-0.22921
24.769,5544.584,0.37867,0.44234,-0.20336
24.778,5544.592,0.42818,0.41965,-0.16101
24.787,5544.6,0.45815,0.3652,-0.09584
24.793,5544.608,0.46544,0.28971,-0.00412
24.801,5544.616,0.49019,0.2189,0.00124
24.809,5544.624,0.52099,0.17435,0.00509
24.817,5544.632,0.57681,0.17751,0.00729
24.825,5544.64,0.594,0.1529,0.09364
24.832,5544.648,0.61298,0.13681,0.10519
24.849,5544.663,0.59991,0.1089,0.12403
24.855,5544.671,0.61187,0.09364,0.13819
24.866,5544.679,0.61614,0.08786,0.14575
24.871,5544.687,0.60857,0.00674,0.15194
24.888,5544.703,0.58011,0.00687,0.13461
24.896,5544.711,0.50875,0.00206,0.13145
24.904,5544.719,0.41071,-0.00577,0.14658
24.917,5544.726,0.31721,-0.14066,0.15661
24.92,5544.734,0.23884,-0.21203,0.17559
24.928,5544.742,0.17298,-0.2728,0.19759
24.935,5544.75,0.14603,-0.30525,0.20721
24.943,5544.758,0.09364,-0.32697,0.20556
24.96,5544.773,0.00591,-0.3135,0.18136
24.967,5544.782,0.00165,-0.27459,0.13544
24.976,5544.789,-0.00234,-0.25341,0.10629
24.981,5544.797,-0.00591,-0.18274,0.0044
25,5544.813,-0.07054,-0.11839,-0.00041
25.007,5544.821,-0.08731,-0.00206,-0.00742
25.016,5544.829,-0.10532,0.07824,-0.14396
25.027,5544.837,-0.1155,0.16184,-0.20226
25.03,5544.844,-0.1144,0.24461,-0.25589
25.04,5544.852,-0.1067,0.31309,-0.29865
25.046,5544.86,-0.08772,0.35819,-0.31226
25.056,5544.868,-0.00481,0.39586,-0.30896
25.061,5544.876,-0.00014,0.41759,-0.29659
25.069,5544.884,0.00371,0.40672,-0.26551
25.078,5544.892,0.00605,0.39504,-0.2497
25.085,5544.9,0.088,0.34334,-0.19841
25.093,5544.908,0.11055,0.27486,-0.14644
25.107,5544.923,0.11509,0.21629,-0.09872
25.117,5544.931,0.12306,0.15317,-0.00536
25.123,5544.939,0.13021,0.08649,-0.00137
25.134,5544.947,0.12265,0.00179,0.00206
25.148,5544.963,0.10697,-0.00357,0.00454
25.166,5544.979,0.07892,-0.08401,0.0066
25.17,5544.986,0.00206,-0.16679,0.10931
25.18,5544.994,-0.00412,-0.23279,0.13805
25.187,5545.002,-0.10175,-0.28091,0.15249
25.196,5545.01,-0.14465,-0.30827,0.17077
25.22,5545.018,-0.1639,-0.31034,0.18123
25.221,5545.033,-0.17449,-0.29714,0.17449
25.226,5545.042,-0.17407,-0.26812,0.17655
25.241,5545.049,-0.16651,-0.24076,0.17243
25.243,5545.057,-0.15056,-0.2376,0.18411
25.258,5545.073,-0.13283,-0.22591,0.1848
25.265,5545.081,-0.08772,-0.19607,0.1837
25.28,5545.089,-0.00454,-0.17916,0.19209
25.281,5545.097,-0,-0.17284,0.21422
25.292,5545.104,0.00399,-0.16775,0.23581
25.297,5545.112,0.07714,-0.17847,0.25259
25.306,5545.12,0.10436,-0.19291,0.27143
25.312,5545.128,0.12829,-0.20144,0.28339
25.322,5545.136,0.14603,-0.19511,0.29439
25.328,5545.144,0.15923,-0.18191,0.29989
25.339,5545.152,0.1738,-0.1914,0.31872
25.344,5545.16,0.16926,-0.18411,0.31212
25.354,5545.168,0.15978,-0.17545,0.30319
25.369,5545.183,0.154,-0.15854,0.28036
25.378,5545.191,0.13778,-0.15414,0.2563
25.385,5545.199,0.12732,-0.13585,0.23595
25.392,5545.207,0.11839,-0.10574,0.22124
25.433,5545.223,0.10037,-0.07631,0.18686
25.435,5545.231,0.1067,-0.00165,0.14052
25.435,5545.238,0.11797,0.00495,0.09556
25.436,5545.246,0.12801,0.13076,0.0044
25.443,5545.254,0.14355,0.20955,-0.00027
25.448,5545.262,0.15483,0.27734,-0.00399
25.454,5545.27,0.14726,0.32134,-0.00632
25.464,5545.278,0.12031,0.35833,-0.09006
25.478,5545.293,0.08003,0.35998,-0.11041
25.487,5545.301,0.00124,0.34719,-0.12898
25.495,5545.309,-0.00481,0.34031,-0.13723
25.502,5545.317,-0.11743,0.3168,-0.13901
25.518,5545.333,-0.15359,0.28779,-0.13447
25.528,5545.341,-0.17435,0.29219,-0.1353
25.536,5545.349,-0.17366,0.2926,-0.12334
25.544,5545.357,-0.17641,0.27527,-0.1034
25.549,5545.365,-0.17765,0.2475,-0.00811
25.56,5545.372,-0.17435,0.20845,-0.00495
25.565,5545.38,-0.17407,0.16816,-0.00137
25.574,5545.388,-0.15331,0.11509,0.00289
25.58,5545.396,-0.13269,0.00385,0.00852
25.589,5545.404,-0.12375,-0.00536,0.14149
25.597,5545.412,-0.14932,-0.13241,0.18274
25.605,5545.42,-0.16184,-0.22674,0.2387
25.612,5545.428,-0.16871,-0.29714,0.28146
25.628,5545.443,-0.15647,-0.32285,0.29232
25.643,5545.459,-0.13819,-0.32409,0.28531
25.653,5545.467,-0.13585,-0.32326,0.27266
25.668,5545.483,-0.13612,-0.30374,0.25135
25.676,5545.491,-0.176,-0.28256,0.23141
25.684,5545.498,-0.22083,-0.24214,0.20295
25.692,5545.506,-0.26427,-0.19099,0.16995
25.701,5545.514,-0.30181,-0.12939,0.12444
25.708,5545.522,-0.35654,-0.00632,0.00619
25.716,5545.53,-0.40562,0.0011,-0.00027
25.724,5545.538,-0.44811,0.09199,-0.00509
25.738,5545.553,-0.45842,0.14273,-0.0077
25.749,5545.561,-0.43079,0.25424,-0.11632
25.754,5545.569,-0.40246,0.37634,-0.1562
25.765,5545.577,-0.32945,0.49747,-0.19566
25.778,5545.593,-0.26043,0.55495,-0.22096
25.789,5545.601,-0.19539,0.62783,-0.25094
25.796,5545.609,-0.12732,0.6644,-0.24255
25.803,5545.617,-0.00632,0.66866,-0.22041
25.809,5545.624,-0.00261,0.63552,-0.18796
25.818,5545.632,-0.0011,0.55853,-0.14754
25.826,5545.64,-0.00344,0.49101,-0.11303
25.834,5545.648,-0.0066,0.3696,-0.00632
25.842,5545.656,-0.08277,0.23073,0.00069
25.849,5545.664,-0.10175,0.09776,0.00784
25.865,5545.68,-0.10739,0.00426,0.10808
25.874,5545.687,-0.13049,-0.06985,0.16101
25.889,5545.703,-0.15098,-0.14108,0.18026
25.897,5545.711,-0.18892,-0.22963,0.2123
25.905,5545.719,-0.22495,-0.30401,0.23911
25.919,5545.727,-0.25479,-0.35723,0.25726
25.92,5545.735,-0.28023,-0.38995,0.27033
25.928,5545.743,-0.30773,-0.39421,0.26414
25.943,5545.758,-0.31735,-0.36795,0.22866
25.953,5545.766,-0.33151,-0.31914,0.18452
25.958,5545.774,-0.33303,-0.26812,0.165
25.969,5545.782,-0.2948,-0.16775,0.13778
25.974,5545.79,-0.2585,-0.08401,0.1144
25.984,5545.798,-0.2079,0.00316,0.00687
25.999,5545.813,-0.1474,0.121,0.0033
26.008,5545.821,-0.00687,0.21986,0.00041
26.015,5545.829,0.00192,0.31488,-0.00192
26.023,5545.837,0.10794,0.37565,-0.00206
26.039,5545.853,0.14341,0.38431,-0.00151
26.049,5545.861,0.19731,0.36987,-0.00027
26.054,5545.869,0.24131,0.33481,0.00151
26.063,5545.877,0.27431,0.28627,0.00357
26.069,5545.884,0.30731,0.23513,0.00632
26.08,5545.892,0.35173,0.17669,0.09735
26.084,5545.9,0.39696,0.14066,0.12375
26.094,5545.908,0.42652,0.08828,0.14589
26.101,5545.916,0.44302,0.00357,0.16087
26.11,5545.924,0.44729,-0.00082,0.17201
26.116,5545.932,0.46626,-0.00344,0.19635
26.127,5545.94,0.43931,-0.00674,0.20996
26.131,5545.947,0.39751,-0.09735,0.21629
26.148,5545.963,0.35063,-0.11192,0.20529
26.156,5545.971,0.29342,-0.13956,0.21092
26.164,5545.979,0.23513,-0.14492,0.20391
26.172,5545.987,0.17091,-0.13379,0.18219
26.182,5545.994,0.10134,-0.12416,0.16637
26.188,5546.003,0.00289,-0.11825,0.15111
26.197,5546.01,-0.00454,-0.11344,0.13365
26.219,5546.018,-0.1188,-0.11069,0.11179
26.219,5546.026,-0.16404,-0.1001,0.09763
26.22,5546.034,-0.20034,-0.09171,0.09089
26.228,5546.042,-0.23237,-0.09817,0.09543
26.236,5546.05,-0.2464,-0.08745,0.09625
26.243,5546.058,-0.25369,-0.09103,0.10436
26.25,5546.066,-0.24502,-0.09955,0.12183
26.267,5546.081,-0.22784,-0.10299,0.12526
26.277,5546.09,-0.1991,-0.11137,0.13819
26.293,5546.105,-0.16266,-0.10986,0.13833
26.301,5546.113,-0.10972,-0.10863,0.14451
26.308,5546.121,-0.00467,-0.10024,0.15015
26.315,5546.129,0.00275,-0.08717,0.15757
26.321,5546.137,0.1067,-0.07769,0.16129
26.33,5546.144,0.17146,-0.07397,0.154
26.338,5546.152,0.22083,-0.07026,0.14905
26.348,5546.16,0.24764,-0.07356,0.15565
26.354,5546.168,0.26634,-0.0869,0.16858
26.362,5546.176,0.26867,-0.09295,0.17229
26.379,5546.192,0.25685,-0.0979,0.17022
26.384,5546.2,0.22894,-0.10532,0.16418
26.394,5546.207,0.18563,-0.10532,0.1529
26.412,5546.223,0.1463,-0.09446,0.12375
26.416,5546.231,0.1034,-0.07356,0.08841
26.425,5546.239,0.00619,-0.00467,0.00522
26.432,5546.247,0.0022,-0.00179,0.0022
26.439,5546.254,-0.00137,0.00041,-0.00165
26.448,5546.263,-0.0055,0.00302,-0.00481
26.456,5546.27,-0.09226,0.00564,-0.00784
26.464,5546.278,-0.1177,0.07191,-0.08841
26.472,5546.286,-0.13778,0.09432,-0.09983
26.481,5546.294,-0.14781,0.11041,-0.11028
26.488,5546.302,-0.16651,0.12348,-0.11839
26.496,5546.31,-0.1771,0.12554,-0.11028
26.504,5546.318,-0.16225,0.12485,-0.09914
26.521,5546.333,-0.15207,0.10972,-0.09006
26.527,5546.341,-0.12856,0.09336,-0.00852
26.537,5546.349,-0.11646,0.00522,-0.00729
26.544,5546.357,-0.10904,-0.00055,-0.00591
26.56,5546.373,-0.09116,-0.00385,-0.00481
26.573,5546.389,-0.00674,-0.00646,-0.00385
26.583,5546.396,-0.0055,-0.12691,-0.0022
26.589,5546.404,-0.00454,-0.20391,0.00151
26.599,5546.412,-0.00481,-0.2805,0.00481
26.605,5546.42,-0.07219,-0.35709,0.00742
26.615,5546.428,-0.0836,-0.41649,0.09543
26.629,5546.443,-0.0946,-0.44192,0.1188
26.637,5546.452,-0.08003,-0.44798,0.13887
26.645,5546.459,-0.00509,-0.43079,0.15194
26.652,5546.467,-0.00344,-0.42584,0.14726
26.668,5546.483,-0.00234,-0.40769,0.14066
26.678,5546.491,-0.00027,-0.35998,0.12705
26.683,5546.499,0.00206,-0.29783,0.09584
26.693,5546.507,0.00495,-0.22234,0.00591
26.7,5546.514,0.0814,-0.1463,0.00261
26.71,5546.522,0.09405,-0.0869,0.00027
26.719,5546.53,0.09597,-0.00495,-0.00165
26.726,5546.538,0.09432,0.0011,-0.00481
26.73,5546.546,0.09996,0.07068,-0.00756
26.74,5546.555,0.11784,0.13475,-0.09254
26.755,5546.57,0.13035,0.16967,-0.10546
26.763,5546.578,0.1353,0.2167,-0.12375
26.811,5546.593,0.12691,0.22756,-0.12155
26.816,5546.601,0.11206,0.23581,-0.12045
26.816,5546.609,0.09501,0.24338,-0.12072
26.818,5546.617,0.08979,0.2662,-0.13393
26.818,5546.633,0.08525,0.26881,-0.14149
26.826,5546.641,0.07961,0.27033,-0.154
26.834,5546.649,0.00646,0.26565,-0.15964
26.841,5546.656,0.00495,0.25066,-0.1573
26.849,5546.664,0.00509,0.25286,-0.16087
26.858,5546.672,0.00591,0.24186,-0.15056
26.865,5546.68,0.07741,0.2464,-0.14575
26.873,5546.688,0.09006,0.23691,-0.14011
26.88,5546.696,0.09488,0.20749,-0.12664
26.897,5546.712,0.09157,0.16885,-0.10395
26.904,5546.719,0.10244,0.1485,-0.09075
26.913,5546.727,0.1199,0.12292,-0.0066
26.919,5546.735,0.13228,0.09309,-0.00467
26.93,5546.743,0.13283,0.00591,-0.00302
26.936,5546.751,0.10904,0.00082,-0.00082
26.945,5546.759,0.07645,-0.00467,0.00137
26.951,5546.767,0.00426,-0.09061,0.00206
26.961,5546.774,0.00137,-0.13255,0.00275
26.967,5546.782,-0.00137,-0.15895,0.00371
26.976,5546.79,-0.00357,-0.17916,0.0044
26.983,5546.798,-0.00674,-0.19731,0.00509
27,5546.814,-0.0946,-0.20694,0.0055
27.008,5546.822,-0.1221,-0.21477,0.00564
27.016,5546.83,-0.14341,-0.21092,0.00564
27.023,5546.838,-0.15015,-0.19016,0.00536
27.041,5546.853,-0.1441,-0.16211,0.00426
27.045,5546.861,-0.14946,-0.13929,0.00357
27.056,5546.869,-0.14754,-0.11495,0.0033
27.061,5546.877,-0.14341,-0.09845,0.0033
27.084,5546.893,-0.12622,-0.08112,0.00316
27.085,5546.901,-0.10477,-0.07384,0.00357
27.096,5546.908,-0.08717,-0.07343,0.00371
27.102,5546.916,-0.00591,-0.00605,0.0033
27.114,5546.924,-0.00289,-0.00509,0.00316
27.119,5546.932,0.00014,-0.00467,0.00371
27.125,5546.94,0.00275,-0.00522,0.00509
27.133,5546.948,0.00454,-0.0044,0.00564
27.148,5546.963,0.00632,-0.00399,0.00564
27.157,5546.971,0.0781,-0.00289,0.00481
27.165,5546.979,0.0814,-0.00192,0.00399
27.172,5546.987,0.07961,-0.00055,0.00275
27.189,5547.003,0.06985,0.00014,0.00179
27.214,5547.019,0.0055,0.00069,0.00165
27.216,5547.027,0.00426,0.00247,0.00027
27.218,5547.035,0.00289,0.00536,-0.00234
27.237,5547.049,0.00096,0.08346,-0.00481
27.244,5547.058,0.00041,0.11399,-0.00674
27.252,5547.066,-0.00124,0.15015,-0.08855
27.259,5547.074,-0.00261,0.18452,-0.10615
27.268,5547.082,-0.00412,0.21698,-0.12416
27.275,5547.09,-0.00605,0.2552,-0.14685
27.283,5547.097,-0.00591,0.27981,-0.15538
27.298,5547.113,-0.00605,0.28848,-0.15812
27.308,5547.121,-0.0055,0.28971,-0.16252
27.313,5547.129,-0.00509,0.27266,-0.15593
