AppTimestamp(s),SensorTimestamp(s),gyro_x,gyro_y,gyro_z
0.0436,16828.9764,0.11908,-0.50361,0.1124
0.0455,16828.9964,-0.01409,-0.58852,0.12889
0.0476,16829.0164,-0.21384,-0.34967,0.1912
0.0543,16829.0364,-0.33723,-0.33745,0.07025
0.075,16829.0564,-0.45513,-0.41381,-0.011
0.0946,16829.0764,-0.44291,-0.71191,-0.13134
0.1325,16829.0964,-0.20773,-0.96909,-0.13989
0.1342,16829.1164,-0.12832,-0.79743,0.02382
0.1535,16829.1364,-0.61151,-0.61173,0.19548
0.1727,16829.1563,-1.41846,-0.57691,0.28711
0.1983,16829.1763,-2.1289,-0.95931,0.35797
0.2157,16829.1963,-2.27123,-2.25496,0.40806
0.2341,16829.2163,-2.29445,-4.16269,0.46304
0.2561,16829.2363,-0.97375,-1.18472,0.50518
0.2763,16829.2563,-0.16619,0.10237,0.02138
0.292,16829.2763,0.48499,0.04923,-0.14478
0.3133,16829.2963,0.60045,-0.03813,0.02688
0.3426,16829.3163,0.26569,0.33939,0.37324
0.3535,16829.3363,0.12519,0.59778,0.25717
0.3728,16829.3563,0.37137,0.41086,-0.17043
0.3961,16829.3763,0.63893,0.06205,-0.29077
0.4142,16829.3963,0.81364,-0.18718,-0.0617
0.4335,16829.4163,0.71284,-0.12609,0.11057
0.4547,16829.4363,0.31761,-0.14992,0.1295
0.473,16829.4563,0.10015,0.03151,0.28466
0.4939,16829.4763,0.36954,0.31007,0.09896
0.5231,16829.4963,0.47216,0.22516,-0.0617
0.5437,16829.5163,0.27669,-0.29652,-0.33292
0.5598,16829.5363,-0.01958,-0.12243,-0.45326
0.5741,16829.5563,-0.00737,0.26486,-0.1515
0.592,16829.5762,1.16183,-0.85608,0.27794
0.6141,16829.5962,0.81669,-0.53476,0.05192
0.6355,16829.6162,0.10931,0.04739,0.13011
0.6534,16829.6362,0.03234,0.05839,0.02627
0.6932,16829.6562,0.12214,0.28441,-0.26573
0.6945,16829.6762,0.00424,0.3345,-0.37446
0.7111,16829.6962,-0.26882,0.03945,-0.15577
0.7312,16829.7162,-0.12221,-0.1603,-0.2419
0.7532,16829.7362,0.10564,-0.29225,0.04581
0.7746,16829.7562,0.25836,-0.46451,0.54
0.7946,16829.7762,-0.01897,-0.14014,-0.14722
0.8156,16829.7962,0.20888,-0.48223,-0.15638
0.8326,16829.8162,0.30234,-0.64349,0.00916
0.8525,16829.8362,0.27424,-0.59157,0.14172
0.8737,16829.8562,0.3225,-0.76017,0.64874
0.8924,16829.8762,0.55768,-0.61295,0.87659
0.9225,16829.8962,0.57662,-0.51338,0.57482
0.9354,16829.9162,0.12702,-0.01125,0.09224
0.954,16829.9362,-0.20162,0.00952,-0.09407
0.9743,16829.9562,-0.08067,0.00891,-0.03665
1.0006,16829.9761,0.03356,0.11337,0.08796
1.0147,16829.9961,0.06838,0.34366,0.13195
1.0387,16830.0161,0.0751,0.59229,-0.00122
1.0664,16830.0361,-0.00187,0.39009,-0.15821
1.0792,16830.0561,-0.03791,0.1097,-0.18509
1.0931,16830.0761,-0.08678,0.25692,-0.04276
1.1144,16830.0961,-0.07456,0.20439,-0.04032
1.1344,16830.1161,0.12336,0.07977,-0.15088
1.158,16830.1361,0.00607,0.13658,-0.19059
1.1787,16830.1561,-0.25416,0.15979,-0.10751
1.2321,16830.1761,-0.14115,0.03029,-0.03665
1.2367,16830.1961,-0.01164,0.01013,0.07025
1.242,16830.2161,-0.06479,0.04984,0.09285
1.26,16830.2361,-0.14481,0.14941,0.05131
1.2716,16830.2561,-0.12832,0.25081,0.01038
1.2952,16830.2761,-0.1613,0.23432,0.0226
1.312,16830.2961,-0.14053,0.07305,0.05131
1.3352,16830.3161,-0.0373,-0.00086,0.07819
1.3566,16830.3361,0.0018,0.01624,0.09163
1.3735,16830.3562,-0.03608,0.07122,0.07636
1.3935,16830.3762,-0.13748,0.05778,-0.00733
1.4161,16830.3962,-0.15397,-0.03446,0.01283
1.4342,16830.4162,-0.03058,-0.087,0.05314
1.4537,16830.4363,0.1142,-0.15175,0.05009
1.4804,16830.4563,0.10137,-0.11143,0.02749
1.4996,16830.4763,0.01829,-0.0308,-0.00061
1.5222,16830.4964,0.00363,-0.08394,-0.01222
1.5425,16830.5164,-0.02019,-0.0986,-0.01894
1.5639,16830.5364,-0.07884,-0.08822,-0.01466
1.5801,16830.5564,-0.09594,-0.05767,-0.00183
1.5968,16830.5765,-0.07945,-0.03874,-0
1.6145,16830.5965,-0.05379,-0.04668,-0.02627
1.6339,16830.6165,-0.04157,-0.13281,-0.05254
1.6569,16830.6366,-0.07823,-0.19207,-0.07025
1.6799,16830.6566,-0.13809,-0.14625,-0.0226
1.7002,16830.6767,-0.24133,-0.22016,0.03482
1.7367,16830.6968,-0.4087,-0.37166,0.09896
1.7423,16830.7168,-0.65122,-0.45413,0.19303
1.7564,16830.7369,-0.85769,-0.60257,0.24862
1.777,16830.757,-0.84364,-1.12486,0.4557
1.7952,16830.777,-0.67504,-1.89027,0.86743
1.8287,16830.7971,-0.19979,-3.03564,1.22662
1.843,16830.8171,0.77271,-4.99286,1.02381
1.8592,16830.8372,1.88509,-6.89142,0.78313
1.8747,16830.8573,1.99749,-7.32575,1.03053
1.8961,16830.8773,1.88998,-6.81079,1.43859
1.9145,16830.8974,1.75865,-6.57561,1.5742
1.9388,16830.9174,1.64441,-6.37402,1.73669
1.9606,16830.9374,1.73299,-6.36669,1.86925
1.9815,16830.9575,2.05614,-6.58782,1.94683
1.9962,16830.9775,2.24489,-6.50719,1.90223
2.0147,16830.9975,2.78123,-6.03621,1.86131
2.0372,16831.0176,3.09339,-6.02888,2.19728
2.0541,16831.0376,3.85636,-5.68313,2.89428
2.0807,16831.0576,4.31634,-4.34412,3.1655
2.0944,16831.0776,4.34261,-2.49564,2.58762
2.1133,16831.0977,4.16484,-1.4083,2.17651
2.1422,16831.1177,4.48127,-1.51764,2.42941
2.1562,16831.1377,5.41162,-2.2348,2.78554
2.1763,16831.1578,6.93145,-2.47853,2.93276
2.1994,16831.1778,8.12508,-1.91898,2.46545
2.2142,16831.1978,8.37126,-1.06072,1.37078
2.2374,16831.2178,6.84532,-0.55248,0.23579
2.2617,16831.2378,5.43728,-0.20917,-0.44654
2.2773,16831.2578,4.9272,-0.56164,-1.04519
2.294,16831.2778,4.71768,-0.8799,-1.90468
2.3155,16831.2978,4.32123,-0.44008,-2.67009
2.3348,16831.3178,3.43547,0.65948,-3.20338
2.3566,16831.3378,2.58209,1.35098,-3.5925
2.3765,16831.3578,2.47824,0.94537,-4.18198
2.3929,16831.3778,2.58759,0.60511,-4.85027
2.4137,16831.3978,2.42632,0.73706,-5.38233
2.4365,16831.4178,2.31026,1.0651,-6.24793
2.4544,16831.4378,2.19725,1.72605,-6.96875
2.4729,16831.4578,2.12883,2.48719,-7.61749
2.4954,16831.4778,2.12822,2.99665,-8.11779
2.5127,16831.4978,2.04453,3.4322,-8.25829
2.5351,16831.5178,1.73727,3.69059,-7.9162
2.5605,16831.5378,1.33104,3.92028,-7.50692
2.5739,16831.5578,0.65176,4.21411,-6.95653
2.5942,16831.5778,0.11725,4.27947,-6.53931
2.6177,16831.5978,-0.099,4.08766,-6.34139
2.6363,16831.6177,-0.6671,3.90012,-6.15141
2.676,16831.6377,-1.36593,3.52138,-5.95105
2.6769,16831.6577,-2.08797,3.19213,-5.81666
2.6946,16831.6777,-2.74649,2.81156,-5.8527
2.7138,16831.6977,-3.37812,2.06936,-5.96021
2.7349,16831.7177,-3.63835,1.16833,-6.19662
2.7537,16831.7377,-3.66278,0.32289,-6.34261
2.774,16831.7577,-3.74953,-0.15847,-6.03413
2.7991,16831.7777,-4.03847,-0.47062,-5.90707
2.8144,16831.7977,-3.86742,-0.98924,-5.78795
2.8341,16831.8177,-3.76785,-1.64898,-5.92051
2.8576,16831.8377,-3.70249,-2.03688,-5.86675
2.8825,16831.8577,-3.33292,-2.19082,-5.66639
2.8937,16831.8777,-3.19853,-2.15661,-5.51306
2.9151,16831.8977,-3.34574,-2.30199,-5.82704
2.9335,16831.9177,-3.35796,-2.76442,-6.30841
2.9537,16831.9377,-3.1747,-3.04236,-6.18196
2.9759,16831.9577,-3.31764,-2.74304,-5.7739
2.9941,16831.9777,-3.03115,-1.97213,-5.50817
3.0164,16831.9977,-2.19793,-1.43701,-5.67738
3.0368,16832.0177,-0.91939,-1.41868,-5.9987
3.054,16832.0376,-0.11305,-1.27391,-6.29008
3.0744,16832.0576,0.55707,-1.54696,-6.42203
3.0954,16832.0776,0.94253,-1.77176,-6.72563
3.116,16832.0976,0.92726,-1.4816,-6.7183
3.1445,16832.1176,1.32737,-1.13097,-6.7861
3.1854,16832.1376,1.91258,-1.28735,-6.86246
3.1892,16832.1576,2.33591,-1.51276,-7.23509
3.1979,16832.1776,2.61141,-1.51337,-7.20821
3.2214,16832.1976,2.7458,-1.31178,-6.6902
3.2395,16832.2176,3.04085,-1.7235,-6.37499
3.2536,16832.2376,3.40859,-2.44616,-6.19906
3.2755,16832.2577,3.75434,-2.50114,-5.49412
3.2941,16832.2777,3.81237,-1.96968,-4.37563
3.316,16832.2977,4.09887,-1.57873,-3.53141
3.3364,16832.3177,4.80747,-1.6838,-2.8222
3.3565,16832.3378,5.65169,-1.86278,-2.16246
3.3857,16832.3578,6.78607,-2.05581,-1.73852
3.4187,16832.3779,8.0304,-2.24152,-1.08917
3.4242,16832.3979,8.76527,-1.92753,0.1069
3.4393,16832.418,8.14158,-0.34051,1.42637
3.4593,16832.4381,7.41037,1.35953,2.13864
3.4765,16832.4581,7.76345,0.80487,1.78556
3.5008,16832.4782,9.20143,-0.20673,1.07757
3.533,16832.4982,9.6779,-1.28185,0.40622
3.542,16832.5183,8.76344,-1.52436,-0.18082
3.5612,16832.5384,8.05422,-1.39547,-0.43738
3.5822,16832.5584,7.33401,-0.69114,-0.7367
3.6024,16832.5785,6.52401,0.17812,-1.26755
3.6279,16832.5985,6.13244,0.75355,-2.09282
3.6511,16832.6186,5.93269,1.11335,-2.86618
3.6695,16832.6387,5.59305,1.19032,-3.15329
3.6839,16832.6588,5.26196,1.52386,-3.48865
3.7066,16832.6789,4.47211,2.28499,-3.85517
3.7192,16832.699,4.13491,2.36318,-3.86128
3.7389,16832.7192,4.05672,1.80363,-3.9242
3.7642,16832.7393,4.15018,1.29295,-4.17282
3.7835,16832.7594,3.98097,1.33388,-4.42144
3.8118,16832.7795,3.74274,1.65336,-4.72382
3.8229,16832.7997,3.72869,1.83906,-5.15204
3.8492,16832.8198,3.58208,1.82318,-5.67677
3.8644,16832.8399,3.04696,2.10357,-6.1001
3.8835,16832.86,2.39395,2.38395,-6.36155
3.9036,16832.8802,1.91869,2.64724,-6.53565
3.9209,16832.9003,1.41778,2.8983,-6.51488
3.9411,16832.9204,0.60533,3.16403,-6.57596
3.9595,16832.9406,0.09892,3.27948,-6.47884
3.9794,16832.9607,-0.27126,3.71259,-6.50694
4.0009,16832.9808,-0.81615,4.31734,-6.56863
4.0197,16833.0009,-1.3134,4.67164,-6.56802
4.0412,16833.021,-1.81064,4.4835,-6.22227
4.0878,16833.0411,-2.04094,4.0675,-5.91073
4.0998,16833.0612,-2.55773,3.43159,-5.98831
4.103,16833.0813,-3.08918,2.87448,-5.9651
4.1304,16833.1014,-3.39095,1.99422,-6.04207
4.1383,16833.1214,-3.57238,0.82503,-6.21372
4.1645,16833.1415,-3.66278,-0.09616,-6.18135
4.1862,16833.1617,-4.01342,-0.3234,-6.31207
4.2056,16833.1818,-4.14842,-0.1377,-6.48372
4.2197,16833.2019,-3.88941,-0.73085,-6.3756
4.2406,16833.2221,-3.21135,-2.14806,-5.80627
4.2612,16833.2422,-2.65424,-1.87866,-5.0653
4.2848,16833.2623,-2.24558,-1.27513,-4.79529
4.3017,16833.2823,-2.26268,-1.60805,-5.34813
4.3193,16833.3024,-2.61637,-2.50419,-5.67799
4.3391,16833.3225,-3.394,-2.96478,-5.49962
4.3634,16833.3425,-3.67256,-3.112,-5.105
4.3803,16833.3626,-3.15149,-2.14806,-5.08729
4.3995,16833.3827,-1.94564,-1.44067,-5.04453
4.4346,16833.4027,-0.7685,-1.3637,-5.04697
4.4561,16833.4228,-0.08983,-1.54269,-5.71342
4.47,16833.4428,0.48072,-1.64348,-6.33162
4.4852,16833.4628,1.23208,-1.99106,-6.44157
4.5103,16833.4829,1.58821,-1.94219,-6.36216
4.5229,16833.503,1.56256,-1.61599,-6.30108
4.5441,16833.523,1.68351,-1.70762,-6.56436
4.5645,16833.5431,2.0934,-1.76321,-6.90705
4.5801,16833.5631,2.50879,-1.72167,-6.9938
4.6041,16833.5832,3.34751,-1.98862,-6.92966
4.6207,16833.6033,3.73907,-1.84751,-6.57841
4.6417,16833.6233,3.44219,-1.42174,-5.95105
4.7025,16833.6434,3.22167,-1.32766,-5.1441
4.7094,16833.6634,3.4031,-1.5885,-4.30843
4.7116,16833.6835,3.76778,-1.50115,-3.73422
4.7309,16833.7036,4.37865,-0.85913,-3.41413
4.7402,16833.7236,4.62544,0.40047,-2.83686
4.7593,16833.7437,4.75127,0.81831,-2.33534
4.7813,16833.7637,5.38169,-0.42847,-1.85825
4.8011,16833.7838,6.19841,-1.33683,-1.13499
4.8215,16833.8038,6.60953,-0.19451,-0.42638
4.8443,16833.8238,7.14709,1.23675,0.44349
4.862,16833.8438,7.99375,1.02295,1.28282
4.8818,16833.8639,8.05178,0.14574,1.76051
4.9076,16833.8839,7.96076,0.28807,1.51128
4.9226,16833.9039,7.98764,1.28134,0.98716
4.945,16833.9239,7.88318,1.98017,0.67317
4.9744,16833.944,7.76406,2.10357,0.54856
4.9943,16833.964,7.46596,1.41634,0.56933
5.007,16833.984,7.40487,0.47866,0.75503
5.0231,16834.0041,7.75795,0.0981,0.70311
5.041,16834.0241,7.60035,0.49638,0.10629
5.062,16834.0441,6.96566,1.45116,-0.83628
5.0841,16834.0641,6.07868,2.48841,-2.0916
5.1015,16834.0841,5.12757,2.94045,-3.09281
5.1228,16834.1041,4.16973,2.66068,-3.77209
5.1468,16834.1241,3.40615,2.32103,-4.32004
5.1626,16834.1441,3.02008,2.03576,-4.80568
5.1851,16834.1641,2.90646,2.01316,-5.19236
5.2123,16834.1841,2.81422,2.16282,-5.44525
5.2385,16834.2041,2.74703,2.31431,-5.61263
5.247,16834.2241,2.78368,2.52079,-5.77634
5.2616,16834.2441,2.76841,2.48291,-5.93395
5.2858,16834.2641,2.49535,2.3754,-6.14592
5.3007,16834.2841,1.87227,2.2123,-6.22166
5.3249,16834.3041,1.14717,2.06264,-6.13859
5.3408,16834.3241,0.55463,2.11395,-5.88691
5.3641,16834.3441,0.01035,2.39067,-5.59247
5.3898,16834.3641,-0.39099,2.48169,-5.26627
5.4126,16834.3841,-0.63045,2.39128,-5.14226
5.4442,16834.4041,-1.00552,2.18176,-5.05125
5.4521,16834.4241,-1.51315,2.18115,-5.04025
5.4665,16834.4441,-2.05743,2.51529,-5.07812
5.4831,16834.4641,-2.68723,2.84394,-5.28765
5.5064,16834.484,-3.22724,3.16525,-5.47091
5.53,16834.504,-3.52717,3.12188,-5.54849
5.5409,16834.524,-3.91202,2.59226,-5.51184
5.5627,16834.544,-4.20829,1.63564,-5.4593
5.5814,16834.564,-4.18507,0.39009,-5.60286
5.6047,16834.584,-3.88514,-0.44313,-5.55704
5.6285,16834.604,-3.75625,-0.53781,-5.62973
5.6452,16834.624,-3.74036,-0.30202,-5.51489
5.6646,16834.644,-3.80756,-0.55431,-5.3805
5.7077,16834.664,-3.83321,-0.87013,-5.47457
5.7118,16834.684,-3.686,-1.01246,-5.56804
5.7239,16834.704,-3.41722,-1.1725,-5.54177
5.7418,16834.724,-3.09834,-1.68502,-5.26016
5.7636,16834.744,-3.07513,-2.2293,-4.99566
5.797,16834.764,-2.97495,-3.00327,-4.75009
5.8122,16834.784,-2.89737,-3.12055,-4.80323
5.8279,16834.804,-2.65119,-2.73571,-4.99688
5.8426,16834.824,-1.66159,-3.02953,-4.99688
5.8635,16834.844,-0.57425,-3.50479,-5.15998
5.8816,16834.864,0.20644,-3.34352,-5.67799
5.9018,16834.8839,0.66581,-2.88537,-6.12392
5.9279,16834.9039,1.15755,-3.04542,-6.38599
5.9465,16834.9239,1.89792,-3.51273,-6.92477
5.965,16834.9439,2.33775,-3.48707,-7.4886
5.9905,16834.9639,2.63218,-3.29282,-7.63521
6.0202,16834.9839,2.83316,-3.37773,-7.35604
6.033,16835.0039,2.95105,-3.61596,-6.73296
6.0441,16835.0239,2.72565,-3.3087,-5.61324
6.0672,16835.0439,2.48558,-2.76198,-4.72749
6.0815,16835.0639,2.44281,-2.6508,-4.06287
6.1029,16835.0839,2.89913,-3.49807,-3.91565
6.1236,16835.1039,4.05733,-4.56647,-3.56806
6.1475,16835.1239,5.61748,-4.65993,-2.89
6.1668,16835.1439,6.25461,-3.36123,-2.16613
6.1946,16835.1639,6.3212,-2.28794,-1.57664
6.2065,16835.1839,6.94,-2.3307,-0.8601
6.2289,16835.2039,7.58813,-3.34841,-0.2193
6.2463,16835.2239,7.67304,-3.32641,0.24557
6.259,16835.2439,7.33523,-1.84568,0.34575
6.2824,16835.2639,6.81356,-0.07295,-0.15638
6.3033,16835.2838,6.48369,0.61367,-0.52718
6.322,16835.3038,6.13366,0.78043,-0.48747
6.3429,16835.3238,5.86794,0.55686,-0.3989
6.3613,16835.3438,6.12878,-0.09555,-0.33781
6.3845,16835.3638,6.79523,-0.88845,-0.64996
6.4134,16835.3838,7.28514,-0.95504,-1.11605
6.4256,16835.4038,7.16602,-0.07111,-1.71348
6.4426,16835.4238,6.64373,1.03272,-2.08977
6.4618,16835.4438,6.04692,1.67413,-2.62672
6.4808,16835.4638,5.49836,1.47132,-3.20155
6.5012,16835.4838,4.84107,1.03333,-3.70307
6.5264,16835.5038,4.07627,0.74867,-4.13922
6.554,16835.5238,3.36705,0.7334,-4.48558
6.5693,16835.5438,2.9651,0.70774,-4.79713
6.584,16835.5638,3.00909,0.67475,-5.10989
6.605,16835.5838,3.09766,0.77677,-5.40005
6.6221,16835.6038,2.99748,1.15795,-5.75008
6.6462,16835.6238,2.68166,1.71139,-6.08361
6.6601,16835.6438,2.2736,2.43282,-6.42386
6.6948,16835.6638,2.18808,2.59165,-6.76839
6.7028,16835.6837,2.05614,2.6112,-7.0671
6.7191,16835.7037,1.8124,2.80056,-7.30228
6.7387,16835.7237,1.09647,3.42304,-7.27968
6.7616,16835.7437,0.14779,4.29291,-6.99991
6.7798,16835.7637,-0.44902,4.64171,-6.32429
6.8072,16835.7837,-0.66282,4.45234,-5.89668
6.8278,16835.8037,-0.97192,3.64234,-5.53994
6.8418,16835.8237,-1.39281,2.76391,-5.28215
6.8607,16835.8437,-1.91998,2.32348,-5.22779
6.8829,16835.8637,-2.45877,2.16832,-5.24672
6.901,16835.8837,-3.04398,2.20802,-5.29865
6.9257,16835.9037,-3.4276,1.97956,-5.36706
6.9578,16835.9237,-3.3659,1.31922,-5.48924
6.9646,16835.9437,-3.2645,0.49577,-5.74397
6.9841,16835.9637,-3.25839,-0.06928,-5.80811
7.0047,16835.9837,-3.52045,-0.19756,-5.67616
7.0251,16836.0037,-3.61575,-0.39121,-5.53627
7.0414,16836.0237,-3.25534,-1.20854,-5.32675
7.0666,16836.0437,-2.83201,-1.94891,-5.22412
7.0841,16836.0637,-2.65363,-2.25801,-4.9981
7.1013,16836.0837,-2.86927,-2.29344,-4.74337
7.127,16836.1037,-3.20402,-2.49319,-4.58271
7.1438,16836.1236,-3.34758,-3.10284,-4.52651
7.1624,16836.1436,-3.22479,-3.87742,-4.67678
7.1858,16836.1636,-3.00244,-4.15597,-4.89486
7.208,16836.1836,-2.5901,-4.23294,-5.10867
7.2256,16836.2036,-1.88883,-4.13887,-5.24245
7.2447,16836.2236,-1.31889,-3.55427,-5.32797
7.2596,16836.2436,-0.89801,-2.81817,-5.20335
7.2794,16836.2636,-0.46796,-2.6282,-5.03597
7.3009,16836.2836,-0.14542,-2.94585,-5.15692
7.3214,16836.3036,0.28524,-2.81817,-5.4758
7.3407,16836.3236,0.84785,-2.26473,-5.81788
7.3619,16836.3436,1.61082,-2.03382,-6.10743
7.3796,16836.3636,2.08546,-2.25251,-6.03535
7.3989,16836.3836,2.58515,-2.76747,-6.00603
7.4232,16836.4036,3.11416,-3.32947,-6.35605
7.4407,16836.4236,3.38905,-3.5671,-6.44219
7.4599,16836.4436,3.50816,-3.56465,-5.93517
7.4869,16836.4636,3.66943,-3.34474,-4.99382
7.5061,16836.4836,3.86491,-3.30626,-4.05431
7.5228,16836.5036,4.62299,-3.60802,-3.22781
7.5448,16836.5235,4.98585,-3.61169,-2.26509
7.5612,16836.5435,4.84962,-2.94951,-1.27549
7.584,16836.5635,5.15383,-3.18103,-0.76603
7.6074,16836.5835,6.00294,-3.06069,-0.31032
7.623,16836.6035,6.27294,-2.09308,0.41172
7.6419,16836.6235,6.16482,-0.86402,1.248
7.666,16836.6435,6.13488,-0.627,1.61391
7.6854,16836.6635,6.19536,-0.80843,1.64506
7.7167,16836.6835,6.4281,-0.70886,0.93401
7.7281,16836.7035,6.32242,-0.34967,0.20953
7.7431,16836.7235,6.08968,0.1769,0.10201
7.7623,16836.7435,5.83739,0.45423,0.26023
7.7973,16836.7635,5.84717,0.27647,0.0336
7.8129,16836.7835,6.15077,-0.0986,-0.4386
7.8266,16836.8035,6.25278,-0.34478,-0.88576
7.8484,16836.8235,6.0683,-0.00209,-1.25289
7.869,16836.8435,5.60771,0.97041,-1.43614
7.8801,16836.8635,4.8484,1.90381,-1.72447
7.9023,16836.8835,4.43546,1.65153,-2.14108
7.92,16836.9035,4.51731,1.16467,-2.55708
7.9403,16836.9235,4.38476,0.88428,-2.89245
7.9674,16836.9434,4.23265,0.86779,-3.21804
7.9856,16836.9634,4.13491,0.93681,-3.69024
8.0045,16836.9834,4.17279,1.0767,-4.17343
8.0432,16837.0034,4.13613,1.22148,-4.71099
8.052,16837.0234,3.97548,1.60632,-5.10561
8.0647,16837.0434,3.88751,1.9704,-5.30659
8.0836,16837.0634,3.84719,2.22024,-5.31453
8.1031,16837.0834,3.6004,2.41877,-5.41105
8.1246,16837.1034,3.31208,2.41633,-5.69021
8.1446,16837.1234,2.79895,2.30332,-5.95105
8.1608,16837.1434,2.15449,2.49269,-6.05978
8.1876,16837.1634,1.52346,3.04002,-5.93883
8.2077,16837.1834,0.94558,3.32408,-5.802
8.221,16837.2034,0.70185,3.38577,-5.802
8.2465,16837.2234,0.43551,3.5562,-5.74152
8.2613,16837.2434,-0.13931,3.74252,-5.73786
8.281,16837.2634,-0.69092,3.57697,-5.70548
8.301,16837.2834,-0.99513,3.48657,-5.30842
8.3225,16837.3034,-1.63288,2.84455,-5.31758
8.3405,16837.3235,-1.9377,1.8806,-5.82766
8.366,16837.3435,-2.21137,1.12435,-6.20273
8.3901,16837.3635,-2.64142,0.76394,-6.43363
8.4042,16837.3835,-3.05986,0.83174,-6.41592
8.4239,16837.4036,-3.57909,0.28013,-6.44707
8.4435,16837.4236,-3.54794,-1.07904,-6.5051
8.4606,16837.4436,-3.43554,-2.18959,-6.53626
8.4802,16837.4637,-3.61086,-2.81756,-6.60101
8.5023,16837.4837,-3.80267,-2.93119,-6.32612
8.5213,16837.5037,-4.12215,-3.77723,-5.77512
8.5467,16837.5237,-4.77334,-4.95559,-5.34385
8.5642,16837.5438,-5.43185,-4.90367,-5.19541
8.5832,16837.5638,-5.10931,-4.15353,-5.33652
8.6115,16837.5838,-3.61391,-3.66422,-5.22229
8.6282,16837.6039,-1.7239,-3.27632,-4.91624
8.648,16837.6239,-0.66954,-2.42356,-5.09217
8.6674,16837.6439,-0.73307,-2.26534,-5.43976
8.7093,16837.6639,-0.87113,-2.81329,-5.62424
8.7107,16837.684,-0.5376,-3.10528,-5.60958
8.7207,16837.704,-0.23094,-2.46998,-5.96327
8.7411,16837.724,-0.19307,-1.95502,-6.53565
8.7603,16837.7441,0.46544,-2.06986,-6.62361
8.7809,16837.7641,1.10563,-1.92142,-6.41164
8.8036,16837.7841,1.20154,-2.0381,-6.31574
8.8216,16837.8041,1.52407,-2.05765,-6.39026
8.8429,16837.8242,1.52346,-1.71251,-6.15936
8.8635,16837.8442,1.70245,-1.70029,-6.07933
8.885,16837.8642,2.23695,-1.91348,-5.72259
8.9065,16837.8842,2.73114,-2.24213,-4.98527
8.9235,16837.9042,3.27787,-2.36858,-4.16427
8.9412,16837.9242,3.60773,-2.38202,-3.2663
8.9637,16837.9442,4.29374,-1.82979,-2.07328
8.9862,16837.9642,5.20881,-2.61903,-1.2877
9.0067,16837.9842,6.63579,-3.83465,-0.58704
9.0272,16838.0043,7.18863,-3.95805,-0.00977
9.0517,16838.0243,7.1532,-3.91407,0.35369
9.0664,16838.0443,6.96138,-2.94218,0.68906
9.0827,16838.0643,6.59242,-1.63798,0.9725
9.1032,16838.0844,6.69749,-0.91594,1.10383
9.1219,16838.1044,6.7372,-0.78827,1.20157
9.1439,16838.1244,6.60769,-1.10164,0.86132
9.1687,16838.1445,6.546,-1.33683,0.35247
9.1885,16838.1645,6.60708,-1.27696,0.03726
9.2126,16838.1845,6.81905,-0.64838,-0.20342
9.23,16838.2045,7.0805,0.00647,-0.7367
9.2403,16838.2246,7.1813,0.8177,-1.34451
9.2629,16838.2446,6.83432,1.42062,-1.97554
9.2845,16838.2646,6.35602,1.03028,-2.65421
9.3016,16838.2846,6.0347,0.54953,-3.19483
9.3217,16838.3047,5.53135,0.84518,-3.61938
9.3439,16838.3247,4.8484,1.40596,-4.12762
9.3604,16838.3447,4.42141,1.97406,-4.60715
9.3812,16838.3648,4.19783,2.17259,-4.86371
9.4053,16838.3848,4.16851,1.89099,-4.92846
9.4234,16838.4048,4.2467,1.41573,-5.0433
9.4419,16838.4248,4.19111,1.21415,-5.37684
9.4638,16838.4449,3.926,1.7456,-5.7513
9.4813,16838.4649,3.61384,2.29538,-6.0494
9.5018,16838.4849,3.40859,2.39739,-6.35117
9.5329,16838.505,3.06223,2.37907,-6.50694
9.5431,16838.525,2.45015,2.67839,-6.61201
9.5662,16838.545,1.74765,3.05285,-6.51366
9.5841,16838.565,1.08364,3.54765,-6.38049
9.6121,16838.585,0.57418,3.73702,-6.26015
9.6302,16838.605,0.16245,3.62645,-6.19723
9.6489,16838.625,-0.52904,3.43342,-5.99137
9.6677,16838.645,-1.16007,2.97344,-5.72075
9.6888,16838.665,-1.6005,2.84821,-5.2229
9.7118,16838.685,-1.85401,2.39678,-4.86676
9.7214,16838.705,-1.98962,1.69123,-5.01704
9.7419,16838.725,-2.44105,1.44261,-5.48801
9.7632,16838.745,-3.14477,1.59594,-5.92356
9.7852,16838.765,-3.67195,1.41451,-6.13981
9.8035,16838.785,-3.64812,0.60878,-6.06467
9.8255,16838.805,-3.67011,-0.34295,-6.16974
9.8426,16838.825,-3.97127,-1.13402,-6.42569
9.8637,16838.845,-4.14415,-1.62943,-6.43791
9.8886,16838.865,-4.11482,-2.0155,-6.22227
9.9065,16838.885,-3.80511,-2.24579,-5.78489
9.931,16838.905,-3.61453,-2.42661,-5.39028
9.9502,16838.925,-3.76785,-2.40645,-5.30659
9.9641,16838.945,-3.76113,-2.81512,-5.23206
9.9881,16838.9649,-4.04641,-2.60987,-5.21129
10.0063,16838.9849,-3.56199,-1.88355,-4.83744
10.0229,16839.0049,-2.37813,-1.60744,-4.78918
10.0456,16839.0249,-1.06722,-1.51031,-5.25344
10.0667,16839.0449,-0.31097,-1.56407,-5.88202
10.0878,16839.0649,0.18017,-1.75099,-6.38782
10.1039,16839.0849,0.43062,-2.10957,-6.44768
10.1247,16839.1049,0.69818,-2.2855,-6.22899
10.1484,16839.1249,1.08303,-2.67279,-6.26565
10.1645,16839.1449,1.77819,-3.10528,-6.77266
10.1855,16839.1649,2.45748,-3.13521,-7.36398
10.205,16839.1849,3.35667,-2.98372,-7.81419
10.2376,16839.2049,4.38353,-2.60254,-8.09335
10.2422,16839.2249,4.94919,-2.40706,-7.65659
10.2615,16839.2449,4.67675,-2.8982,-6.86613
10.2861,16839.2649,3.73968,-2.44433,-5.82949
10.305,16839.2849,3.35239,-1.95136,-4.81484
10.3223,16839.3049,4.06711,-2.06803,-3.89304
10.3417,16839.3249,5.18071,-2.50541,-3.05188
10.3667,16839.3449,6.07319,-2.63675,-2.6029
10.3839,16839.3649,6.50812,-2.5048,-2.37443
10.4026,16839.3848,6.37007,-1.47488,-1.9114
10.4278,16839.4048,6.66634,-0.9025,-1.6866
10.4477,16839.4248,7.40671,-1.08149,-1.43614
10.4695,16839.4448,7.71153,-0.80171,-1.10078
10.4905,16839.4648,7.3951,-0.48528,-1.12888
10.5022,16839.4848,6.7091,0.16101,-1.12644
10.5237,16839.5048,6.1862,0.73584,-1.17775
10.5442,16839.5248,5.9559,0.98629,-1.34879
10.5623,16839.5448,6.16298,1.05899,-1.50395
10.5829,16839.5648,6.49774,1.21903,-1.2932
10.6037,16839.5848,6.53011,1.58677,-0.77641
10.6234,16839.6048,6.19964,1.57334,-0.49786
10.6435,16839.6248,5.82395,1.17322,-0.76603
10.6641,16839.6448,5.45988,1.1103,-1.68965
10.6807,16839.6648,4.63765,2.00888,-2.46484
10.7183,16839.6848,3.85697,3.08095,-2.80509
10.7264,16839.7048,3.74213,3.00215,-2.90833
10.7408,16839.7248,3.96815,2.26239,-3.04028
10.7595,16839.7448,3.98891,1.79752,-3.33899
10.7835,16839.7648,3.72258,1.99178,-3.72689
10.8033,16839.7848,3.36705,2.26178,-4.13556
10.8219,16839.8047,3.26382,2.36563,-4.56011
10.8482,16839.8247,3.15875,2.53362,-4.92235
10.8635,16839.8447,2.93029,2.75841,-5.29926
10.8839,16839.8647,2.61569,3.15364,-5.75802
10.9075,16839.8847,2.34141,3.33812,-6.05856
10.9229,16839.9047,2.28032,3.13959,-6.21433
10.9445,16839.9247,2.03109,3.18052,-6.21433
10.9637,16839.9447,1.55584,3.50917,-5.93456
10.9854,16839.9647,1.18932,3.61424,-5.57109
11.0036,16839.9847,0.97979,3.30636,-5.48557
11.0281,16840.0047,0.62854,3.00581,-5.66089
11.0421,16840.0247,0.14413,2.93251,-5.67677
11.0613,16840.0447,-0.35861,2.96366,-5.50634
11.0846,16840.0647,-0.88274,2.92396,-5.41776
11.1042,16840.0847,-1.34821,2.41877,-5.50329
11.1234,16840.1047,-1.85462,1.72911,-5.656
11.1484,16840.1247,-2.33415,1.20254,-5.71892
11.1629,16840.1447,-2.68662,1.18849,-5.64562
11.1854,16840.1647,-2.9664,1.19399,-5.71648
11.2179,16840.1847,-3.08674,0.97713,-5.90951
11.2238,16840.2047,-3.34941,0.57701,-5.89668
11.2485,16840.2246,-3.56993,-0.12792,-5.77879
11.2615,16840.2446,-3.62491,-0.56103,-5.62057
11.2807,16840.2646,-3.62613,-0.66854,-5.37867
11.3008,16840.2846,-3.59742,-1.65203,-5.30903
11.3225,16840.3046,-3.48808,-2.38874,-5.39394
11.3419,16840.3246,-3.58398,-2.46265,-5.24122
11.3614,16840.3446,-3.48869,-2.3246,-4.63891
11.3834,16840.3646,-3.36529,-2.97333,-4.21802
11.4043,16840.3846,-3.22724,-3.99287,-4.16427
11.4369,16840.4046,-3.15149,-3.97943,-4.45138
11.4518,16840.4246,-2.77825,-3.4999,-4.38479
11.4631,16840.4446,-2.16128,-3.65506,-4.11235
11.4824,16840.4646,-1.42824,-4.2024,-4.00483
11.5118,16840.4846,-0.8864,-3.89757,-4.46848
11.5315,16840.5046,-0.73002,-3.16026,-5.14349
11.5425,16840.5246,-0.22728,-3.20119,-5.68655
11.5633,16840.5446,0.85823,-4.10466,-6.06406
11.5824,16840.5646,1.94924,-4.74179,-6.5442
11.6041,16840.5846,2.53322,-4.57869,-6.904
11.6319,16840.6046,2.37623,-4.68559,-7.01579
11.645,16840.6245,2.54788,-5.14618,-6.83558
11.6659,16840.6445,2.62852,-4.97636,-6.16119
11.6883,16840.6645,2.58087,-4.75828,-5.50634
11.7059,16840.6845,2.52956,-4.72163,-4.99443
11.7309,16840.7045,2.64929,-4.89023,-4.46176
11.7508,16840.7245,2.98221,-4.87435,-3.97062
11.7706,16840.7445,3.31024,-4.72285,-3.5192
11.7836,16840.7645,3.67065,-4.45102,-2.9462
11.8051,16840.7845,4.16179,-3.92445,-2.28341
11.8214,16840.8045,4.36399,-3.28549,-1.55343
11.8415,16840.8245,4.58573,-2.78946,-0.73365
11.8657,16840.8445,4.84535,-1.97701,-0.16005
11.8856,16840.8645,5.163,-1.12913,-0.07086
11.9051,16840.8845,5.42445,-0.69786,-0.14172
11.9265,16840.9045,5.71705,-0.94282,-0.31826
11.9465,16840.9245,5.67185,-1.03384,-0.32987
11.9654,16840.9445,5.59244,-0.357,-0.35369
11.9872,16840.9645,5.72255,0.43041,-0.77091
12.0065,16840.9845,5.63092,0.81892,-1.19302
12.0374,16841.0045,5.33404,0.65154,-1.35185
12.0452,16841.0245,5.56556,0.02296,-1.5797
12.0624,16841.0444,6.06769,-0.25376,-1.9731
12.0815,16841.0644,6.23751,0.43041,-2.40925
12.1045,16841.0844,5.92169,1.83417,-2.81731
12.1233,16841.1044,5.34626,2.79384,-3.34082
12.1424,16841.1244,4.69324,2.94351,-3.63221
12.164,16841.1444,4.29618,2.75719,-3.7666
12.1833,16841.1644,3.90645,2.35463,-3.83257
12.2069,16841.1844,3.76412,1.7566,-3.92053
12.228,16841.2044,3.88812,1.17872,-4.16671
12.2412,16841.2244,3.77694,1.01134,-4.42144
12.2602,16841.2444,3.40371,1.49148,-4.8857
12.2847,16841.2644,3.02253,1.98628,-5.15815
12.2996,16841.2844,2.76108,2.2575,-5.2907
12.3212,16841.3044,2.51856,2.50552,-5.4312
12.342,16841.3244,2.35729,2.71749,-5.66211
12.3601,16841.3444,2.12944,2.59409,-5.73786
12.3793,16841.3644,1.88387,2.34303,-5.63157
12.408,16841.3844,1.56011,2.37479,-5.57781
12.427,16841.4044,0.98224,2.66617,-5.46297
12.4417,16841.4243,0.43795,2.84516,-5.34568
12.4752,16841.4443,-0.00614,2.82622,-5.36279
12.4833,16841.4643,-0.32318,2.74253,-5.50878
12.5083,16841.4843,-0.60907,2.82866,-5.60713
12.5393,16841.5043,-1.10509,3.11699,-5.58025
12.5428,16841.5243,-1.60172,3.30819,-5.38722
12.5605,16841.5443,-1.92426,3.00215,-5.31392
12.5828,16841.5643,-2.19732,2.57027,-5.40555
12.6019,16841.5843,-2.45266,1.89465,-5.4367
12.6362,16841.6043,-2.48626,1.36503,-5.19724
12.6456,16841.6243,-2.52657,0.7395,-4.90342
12.6961,16841.6443,-2.35798,0.27525,-4.51246
12.6984,16841.6643,-2.16677,-0.15908,-4.03538
12.7023,16841.6843,-2.09652,-0.42725,-3.80875
12.7198,16841.7043,-2.50642,-0.16702,-4.13495
12.7391,16841.7243,-3.18936,0.00647,-4.81179
12.7635,16841.7443,-3.45387,-0.39487,-5.33102
12.7813,16841.7643,-3.45937,-0.78583,-5.50878
12.8099,16841.7843,-3.32681,-1.16945,-5.59492
12.8224,16841.8043,-3.42638,-1.88966,-5.93822
12.8415,16841.8243,-3.54,-2.52496,-6.00053
12.8617,16841.8442,-3.52595,-3.37528,-5.68838
12.8832,16841.8642,-3.19792,-4.71064,-5.49351
12.9031,16841.8842,-3.18509,-4.55486,-5.33835
12.9231,16841.9042,-3.1411,-3.69477,-5.30048
12.9436,16841.9242,-2.14051,-3.41866,-5.06163
12.9645,16841.9442,-0.87052,-3.31847,-4.70244
12.9814,16841.9642,0.14169,-2.65446,-4.56316
13.0068,16841.9842,0.99873,-2.59399,-4.63891
13.025,16842.0042,2.06102,-3.47424,-4.94312
13.046,16842.0242,2.74886,-3.90429,-5.84842
13.0748,16842.0442,3.20334,-4.18651,-6.99319
13.0894,16842.0642,3.353,-3.93423,-7.52525
13.1024,16842.0842,2.8466,-3.21096,-6.86979
13.1246,16842.1043,2.31087,-2.68623,-6.02252
13.1442,16842.1243,2.29499,-2.54817,-5.47641
13.1619,16842.1443,2.36768,-2.59582,-4.98466
13.1843,16842.1643,2.3634,-2.59521,-4.60348
13.2074,16842.1844,2.48741,-2.2012,-4.05248
13.2217,16842.2044,2.75619,-1.90493,-3.5027
13.2447,16842.2244,3.76473,-1.84079,-2.9627
13.2628,16842.2444,4.71584,-1.99534,-2.5186
13.2812,16842.2645,5.48859,-2.01061,-2.19362
13.3023,16842.2845,6.31509,-1.90004,-1.68843
13.3241,16842.3045,7.13731,-1.69724,-1.10567
13.3411,16842.3246,7.64678,-1.00329,-0.29627
13.3631,16842.3446,7.89906,0.43285,0.34575
13.3836,16842.3646,7.79644,1.27401,0.7532
13.4034,16842.3846,7.53499,1.24164,0.91874
13.4298,16842.4047,7.41831,0.96491,1.04947
13.4472,16842.4247,7.6535,0.61367,0.81795
13.4657,16842.4447,7.75979,0.35283,0.22113
13.4864,16842.4648,7.59546,0.64177,-0.32437
13.507,16842.4848,6.89969,1.51897,-0.69455
13.5274,16842.5048,5.9052,2.17992,-0.8772
13.5483,16842.5248,5.02922,2.2795,-1.03175
13.5646,16842.5449,4.64315,1.77981,-1.39583
13.5911,16842.5649,4.56313,1.0767,-1.94011
13.6114,16842.5849,4.55213,0.79265,-2.35428
13.623,16842.605,4.66148,0.93987,-2.5583
13.6419,16842.625,4.77327,1.35831,-2.73668
13.6633,16842.645,4.76655,1.71322,-3.0586
13.6815,16842.665,4.44034,2.10234,-3.56868
13.7058,16842.685,3.91439,2.2575,-4.15327
13.7278,16842.705,3.40126,2.47864,-4.88509
13.7565,16842.7251,2.9028,2.72604,-5.43426
13.7659,16842.7451,2.47275,2.7914,-5.72136
13.7887,16842.7652,2.23879,2.69977,-5.96327
13.8042,16842.7852,1.96817,2.82622,-6.23266
13.8254,16842.8053,1.46115,3.4829,-6.48861
13.8554,16842.8253,0.84968,4.06628,-6.67859
13.8661,16842.8454,0.4404,4.36194,-6.72807
13.8839,16842.8655,0.17345,4.35399,-6.79038
13.9051,16842.8855,-0.38488,4.21411,-6.91316
13.9255,16842.9056,-0.99636,4.17745,-6.83558
13.9484,16842.9256,-1.65915,4.30512,-6.78671
13.9714,16842.9457,-1.94198,4.12431,-6.56619
13.9886,16842.9658,-1.70191,3.17625,-6.29069
14.0036,16842.9858,-1.5889,1.84639,-5.95471
14.0287,16843.0059,-1.69641,0.66559,-5.71526
14.0451,16843.026,-2.03299,0.12375,-5.7232
14.071,16843.046,-2.52657,0.07183,-6.04818
14.0858,16843.0661,-2.76787,-0.24582,-6.59185
14.1088,16843.0861,-3.04031,-1.27757,-6.9883
14.1271,16843.1062,-3.56627,-1.49076,-7.08909
14.1531,16843.1263,-3.64934,-1.51825,-6.9321
14.1648,16843.1463,-3.18692,-2.34353,-6.82153
14.1877,16843.1665,-3.0397,-2.72044,-6.47395
14.2204,16843.1866,-3.26816,-3.20119,-5.92051
14.2295,16843.2067,-3.58581,-3.25494,-5.42571
14.2471,16843.2268,-3.56993,-2.53901,-5.44403
14.2675,16843.247,-2.88882,-2.77053,-5.79956
14.2845,16843.2671,-1.64693,-3.46814,-5.97732
14.3063,16843.2872,-0.68848,-3.47791,-5.92417
14.3283,16843.3074,-0.18696,-2.90736,-6.2687
14.345,16843.3275,0.47888,-3.39117,-6.8026
14.3665,16843.3475,1.17771,-3.54999,-7.4324
14.3869,16843.3676,2.30293,-3.70759,-7.88444
14.4073,16843.3877,3.47884,-4.10649,-8.54356
14.4283,16843.4077,3.74579,-4.16086,-8.88687
14.4497,16843.4278,3.27481,-4.03074,-8.42811
14.4662,16843.4479,2.68227,-3.60436,-7.53686
14.4863,16843.4679,2.15204,-3.06191,-6.76472
14.513,16843.488,2.44404,-3.43576,-6.41775
14.5281,16843.508,2.69693,-3.7925,-6.1392
14.5568,16843.5281,2.80506,-3.55915,-5.43609
14.5684,16843.5482,2.81361,-3.24578,-4.51246
14.5914,16843.5682,3.17646,-2.71921,-3.37381
14.6068,16843.5883,3.92844,-1.4419,-2.02991
14.6374,16843.6083,4.15385,-1.09981,-0.94379
14.6476,16843.6284,4.55458,-0.76567,-0.0336
14.6901,16843.6485,5.45316,-0.09921,0.58765
14.6933,16843.6685,6.96444,-0.10532,0.85765
14.7063,16843.6886,8.00719,-0.03202,0.89003
14.7245,16843.7087,8.58262,0.25753,1.11666
14.7462,16843.7287,9.02855,0.59351,1.52716
14.7645,16843.7488,8.78176,0.67109,1.8106
14.785,16843.7688,7.94976,1.21964,1.3665
14.8071,16843.7888,6.90335,0.37237,0.60109
14.8264,16843.8088,5.92536,-1.03323,-0.48442
14.8468,16843.8288,5.69934,-1.61721,-1.394
14.8694,16843.8488,5.56006,-1.03139,-1.923
14.8902,16843.8688,5.1294,0.66864,-2.68781
14.9108,16843.8887,4.55824,2.15121,-2.94193
14.9296,16843.9087,4.22227,2.8366,-3.12763
14.9475,16843.9287,4.50021,2.71688,-3.15451
14.9651,16843.9487,4.82275,2.56966,-3.20888
14.987,16843.9687,4.76166,2.61425,-3.19727
15.0054,16843.9887,4.84229,2.72543,-3.15084
15.0257,16844.0087,5.12329,2.5269,-3.36404
15.057,16844.0287,5.02861,2.4035,-3.79103
15.0727,16844.0487,4.90582,2.68511,-4.26506
15.0882,16844.0687,4.57657,3.33568,-4.87715
15.1096,16844.0887,4.34077,3.81949,-5.4874
15.1255,16844.1087,4.11475,4.09926,-5.93761
15.1487,16844.1287,3.66699,4.43952,-6.16119
15.1701,16844.1487,3.25527,4.48533,-6.1056
15.1963,16844.1687,2.92418,4.05711,-6.07628
15.214,16844.1887,2.47763,3.68326,-6.12881
15.2294,16844.2087,1.76842,3.5055,-6.24732
15.2437,16844.2287,0.7947,3.2129,-6.46723
15.2641,16844.2487,-0.57547,2.49024,-6.53198
15.2864,16844.2687,-1.39708,1.40596,-6.6456
15.3041,16844.2886,-1.7801,0.86107,-6.82459
15.3257,16844.3086,-2.19121,1.12496,-7.42507
15.3538,16844.3286,-2.73732,1.75904,-8.31266
15.3766,16844.3486,-3.49785,1.88488,-8.66451
15.3861,16844.3686,-3.96211,1.10663,-8.59732
15.4114,16844.3886,-4.26388,0.16835,-8.46659
15.4297,16844.4086,-4.5858,-0.38937,-8.20148
15.4449,16844.4286,-4.56076,-0.77727,-7.69751
15.4667,16844.4486,-3.69088,-1.69418,-7.05
15.4852,16844.4686,-3.06475,-2.53046,-6.36949
15.5055,16844.4886,-3.63957,-2.99044,-5.81605
15.5311,16844.5086,-3.6524,-3.81816,-5.49534
15.5445,16844.5286,-3.4447,-4.18896,-5.97793
15.566,16844.5486,-2.43556,-3.49196,-6.36399
15.5863,16844.5686,-0.36228,-2.6624,-6.31451
15.6087,16844.5886,0.72751,-2.13401,-6.44402
15.6307,16844.6086,1.39029,-2.59521,-7.27663
15.6501,16844.6286,1.82279,-2.76259,-7.97485
15.6714,16844.6486,2.52895,-2.90492,-8.30777
15.6983,16844.6687,3.08728,-3.17187,-8.62786
15.7118,16844.6887,3.18929,-2.977,-8.81845
15.7281,16844.7087,3.34384,-2.83406,-8.65963
15.7467,16844.7287,3.67371,-3.08207,-8.07869
15.7686,16844.7488,3.77756,-3.34963,-7.37925
15.7874,16844.7688,3.91133,-3.43454,-6.68287
15.8058,16844.7888,3.69875,-3.02343,-6.17463
15.8285,16844.8089,3.85025,-2.56833,-5.28704
15.8463,16844.8289,4.52464,-2.07475,-4.13311
15.868,16844.8489,5.34931,-1.45167,-2.79227
15.8894,16844.8689,6.11961,-0.88601,-1.53449
15.9072,16844.889,6.91618,-0.49322,-0.23702
15.934,16844.909,7.64189,0.23126,0.81123
15.9516,16844.929,7.20023,1.14756,0.9896
15.9682,16844.9491,7.57653,0.56174,0.66279
15.9885,16844.9691,8.35843,-0.31546,0.20525
16.008,16844.9891,7.65655,-0.23727,-0.73182
16.0265,16845.0091,6.54478,-0.33379,-1.30053
16.0466,16845.0292,5.35786,-0.22078,-1.00915
16.0785,16845.0492,4.37804,0.50493,-0.93462
16.0982,16845.0692,4.18745,1.08525,-1.32863
16.1149,16845.0893,4.42568,1.5544,-1.81855
16.1325,16845.1093,4.7922,1.74255,-1.73119
16.1489,16845.1293,4.47272,1.87999,-1.18264
16.1664,16845.1493,4.25953,1.77798,-1.20768
16.2076,16845.1694,4.48127,1.88915,-1.42576
16.2147,16845.1894,4.64254,2.3754,-1.66766
16.227,16845.2094,4.63582,2.81522,-1.81732
16.248,16845.2295,4.8594,2.91968,-1.94011
16.2662,16845.2495,5.15445,2.80545,-2.08366
16.2874,16845.2695,5.27601,2.65212,-2.35428
16.3093,16845.2895,5.22347,2.47558,-2.68842
16.338,16845.3096,4.99745,2.21108,-3.19055
16.3495,16845.3296,4.32672,1.96307,-3.78187
16.3696,16845.3496,3.23999,1.92886,-4.37929
16.3863,16845.3697,2.44037,1.91481,-4.82034
16.4067,16845.3897,1.92114,2.00644,-5.04575
16.4282,16845.4097,1.70794,2.25567,-5.11661
16.4481,16845.4298,1.79163,2.39922,-5.30109
16.4731,16845.4498,1.53812,2.45359,-5.63218
16.492,16845.4699,1.05554,2.65579,-5.86675
16.5103,16845.49,0.42513,3.106,-5.94067
16.5281,16845.51,-0.13443,3.33385,-5.79284
16.553,16845.5301,-0.42581,3.12982,-5.63584
16.5714,16845.5501,-0.61823,2.67411,-5.5827
16.6193,16845.5702,-0.92733,2.62036,-5.86736
16.6261,16845.5903,-1.63899,2.99543,-6.12454
16.6324,16845.6103,-2.41662,3.4603,-6.29375
16.6547,16845.6304,-3.18936,3.79017,-6.39209
16.676,16845.6505,-3.80817,3.43831,-6.15569
16.7083,16845.6705,-3.99937,2.34547,-6.00175
16.7099,16845.6906,-3.88392,1.14634,-6.0439
16.7309,16845.7106,-4.00059,0.73278,-6.1789
16.7463,16845.7307,-4.17225,0.79631,-6.13675
16.7659,16845.7508,-4.26876,0.621,-5.98526
16.7907,16845.7708,-4.30602,-0.39426,-6.14836
16.8097,16845.7909,-3.93218,-1.49565,-6.10193
16.8294,16845.8109,-3.38728,-1.61111,-5.83193
16.8529,16845.831,-3.0733,-1.36248,-5.18564
16.871,16845.851,-2.99205,-1.56224,-4.56072
16.8897,16845.871,-3.03054,-2.06498,-4.19237
16.9096,16845.8911,-3.71776,-1.76565,-4.59737
16.9283,16845.9111,-3.97677,-1.51886,-4.66884
16.9495,16845.9311,-3.405,-1.92937,-4.44343
16.9712,16845.9511,-2.51375,-2.38996,-4.48803
17.0028,16845.9712,-1.31217,-2.50786,-5.10317
17.0152,16845.9912,-0.17047,-3.23112,-6.07017
17.0351,16846.0112,0.72812,-3.81694,-6.52832
17.0477,16846.0312,1.4074,-4.53532,-6.62911
17.0689,16846.0512,2.15388,-5.22315,-6.59307
17.0901,16846.0712,2.59859,-4.81265,-6.50083
17.1101,16846.0912,2.4587,-4.31541,-6.83619
17.132,16846.1112,3.05368,-4.3319,-7.57412
17.1561,16846.1312,3.35239,-4.13581,-7.00296
17.1682,16846.1512,3.15203,-3.90124,-5.89668
17.2009,16846.1712,3.83375,-4.25615,-5.1276
17.2185,16846.1912,4.92965,-4.51149,-4.41289
17.229,16846.2112,5.59366,-4.39115,-3.63098
17.2475,16846.2312,6.25584,-4.17552,-2.78371
17.2705,16846.2512,6.96138,-4.32457,-1.99386
17.2865,16846.2712,7.72985,-4.09,-1.02503
17.3064,16846.2912,7.69442,-2.76931,-0.82223
17.3312,16846.3112,7.27476,-1.5885,-0.43677
17.3522,16846.3311,7.18313,-1.1047,0.36774
17.3715,16846.3511,7.06523,-0.42725,0.90408
17.391,16846.3711,6.85509,-0.13709,0.38179
17.4096,16846.3911,5.85633,-0.36922,-0.3207
17.4363,16846.4112,5.23813,-0.32951,-0.21319
17.4592,16846.4312,5.43911,-0.26781,-0.18693
17.4808,16846.4512,5.96323,-0.12609,-0.64324
17.4896,16846.4712,6.22529,0.60145,-1.15148
17.5234,16846.4913,5.98705,2.04004,-1.51311
17.5292,16846.5113,5.36092,3.08156,-1.8668
17.5486,16846.5313,4.98829,3.1231,-2.05556
17.5718,16846.5514,5.0732,2.48108,-2.23821
17.5878,16846.5714,4.9382,1.74988,-2.59679
17.6077,16846.5914,4.62116,1.76148,-2.98041
17.6295,16846.6114,4.35177,1.84517,-3.46177
17.6476,16846.6315,4.12269,1.85311,-4.0311
17.6709,16846.6515,3.77694,1.91114,-4.61142
17.6947,16846.6715,3.39638,2.128,-4.96023
17.7185,16846.6916,3.14164,2.60814,-5.16303
17.7396,16846.7117,2.89669,3.22512,-5.18441
17.7533,16846.7317,2.86309,3.56781,-5.19419
17.7765,16846.7518,2.62669,3.44503,-5.09828
17.7894,16846.7718,2.15265,3.16342,-5.0543
17.8115,16846.7919,1.59616,2.87142,-4.98649
17.8328,16846.812,1.12396,2.96244,-5.07324
17.8525,16846.832,0.72934,3.44319,-5.20824
17.8762,16846.8521,0.52897,3.74985,-5.37378
17.8945,16846.8722,0.463,3.58308,-5.39211
17.9145,16846.8922,0.16612,3.1848,-5.27238
17.9414,16846.9123,-0.37633,2.8366,-5.11294
17.9618,16846.9323,-0.90473,2.4878,-4.99871
17.9744,16846.9524,-1.54919,2.30576,-5.17769
17.9979,16846.9725,-2.45083,2.37296,-5.67921
18.0115,16846.9925,-3.23273,2.3583,-6.20212
18.048,16847.0126,-3.57971,1.87816,-6.82947
18.0615,16847.0326,-3.57482,0.9924,-7.35665
18.0748,16847.0526,-4.17102,-0.01064,-8.03716
18.0933,16847.0726,-4.89795,-1.06133,-8.71583
18.1173,16847.0927,-4.77883,-2.48403,-8.3713
18.1318,16847.1127,-3.99632,-4.06006,-7.14773
18.1568,16847.1327,-3.22052,-4.17613,-6.06956
18.1859,16847.1528,-2.95051,-3.40644,-5.32125
18.1926,16847.1728,-2.90898,-2.90003,-4.64868
18.212,16847.1928,-2.6909,-3.40155,-3.98162
18.2315,16847.2128,-2.74343,-3.50662,-3.88755
18.2497,16847.2329,-2.80391,-2.41623,-4.00544
18.2693,16847.2529,-1.92854,-2.15905,-3.78981
18.291,16847.2729,-0.64816,-2.32154,-3.98101
18.3203,16847.2929,0.18139,-2.51824,-4.7226
18.3337,16847.3129,0.69635,-2.85666,-5.29193
18.3518,16847.333,1.26812,-3.70026,-5.71953
18.3699,16847.353,2.20152,-4.28547,-6.11721
18.3896,16847.373,3.06406,-4.04052,-6.19234
18.4116,16847.3931,4.45256,-4.39482,-5.73541
18.4346,16847.4131,5.84289,-4.49561,-5.45747
18.4755,16847.4331,6.1471,-4.29647,-5.25222
18.4872,16847.4531,5.04449,-4.15963,-5.16364
18.5004,16847.4732,4.37742,-4.24455,-4.36891
18.5119,16847.4932,5.6694,-5.80958,-3.60044
18.5331,16847.5132,7.30775,-6.98061,-2.78127
18.5542,16847.5333,7.76284,-7.41982,-1.88147
18.581,16847.5533,7.98031,-7.57987,-1.13071
18.5988,16847.5733,7.76284,-6.50719,-0.37202
18.6108,16847.5933,6.67733,-3.01976,0.31704
18.6311,16847.6134,5.56983,0.0254,0.37751
18.6556,16847.6334,5.07748,0.84213,0.1576
18.6709,16847.6534,5.39635,-0.38937,0.32498
18.7139,16847.6735,5.88443,-1.93303,0.45876
18.7161,16847.6935,5.96323,-2.48831,-0.07086
18.7325,16847.7135,5.76042,-1.92509,-0.65363
18.7496,16847.7335,5.60649,-0.75773,-1.41965
18.7705,16847.7536,5.59916,0.14025,-2.59618
18.7903,16847.7736,5.433,1.50492,-3.04333
18.8111,16847.7936,4.71035,3.39127,-2.99813
18.8419,16847.8137,4.24548,4.1689,-3.08365
18.8548,16847.8337,4.34322,3.53727,-3.54852
18.8712,16847.8537,4.40308,2.80667,-4.25651
18.8926,16847.8737,4.05122,3.01314,-4.99138
18.9105,16847.8938,3.62423,3.85431,-5.82643
18.9389,16847.9138,3.53932,4.39798,-7.06282
18.9566,16847.9338,3.36033,4.74434,-8.01028
18.9832,16847.9538,2.81422,5.11758,-8.45499
18.9971,16847.9738,2.23084,5.65025,-8.27845
19.022,16847.9937,1.8515,5.80541,-7.86672
19.0329,16848.0137,1.46054,5.43706,-7.57473
19.0534,16848.0337,0.8845,4.82864,-7.41163
19.0798,16848.0537,0.15635,4.57635,-7.54907
19.0984,16848.0737,-0.88884,4.41447,-7.19294
19.1114,16848.0937,-1.76788,3.69548,-6.31024
19.133,16848.1137,-2.12035,2.22635,-5.78245
19.1502,16848.1337,-2.30972,0.52204,-5.68227
19.1791,16848.1537,-2.11302,-0.86646,-5.44831
19.2017,16848.1737,-1.77277,-1.24886,-4.91502
19.2212,16848.1937,-1.71535,-1.03567,-3.99811
19.2305,16848.2137,-1.53025,-0.05767,-3.06105
19.2562,16848.2337,-1.01285,0.15674,-2.3952
19.2705,16848.2537,-0.52538,-0.34356,-2.04701
19.2902,16848.2737,-0.59868,-0.83408,-2.13925
19.3118,16848.2937,-0.94871,-0.92327,-1.94072
19.3328,16848.3137,-0.89984,-0.80721,-1.3323
19.3577,16848.3337,-0.61579,-0.52071,-0.87109
19.3745,16848.3537,-0.24072,-0.69053,-0.89553
19.3912,16848.3737,0.01401,-1.22993,-0.8491
19.4106,16848.3937,-0.06357,-1.23542,-0.61514
19.4332,16848.4136,-0.32379,-0.8292,-0.5455
19.4503,16848.4336,-0.56142,-0.38815,-0.70738
19.4704,16848.4536,-0.41726,-0.55003,-0.76603
19.4998,16848.4736,-0.0147,-0.81332,-0.49786
19.5163,16848.4936,0.21377,-0.69236,-0.18265
19.5334,16848.5136,0.15024,-0.21711,-0.03054
19.5521,16848.5336,-0.20101,-0.00148,-0.37874
19.5703,16848.5536,-0.29325,-0.222,-0.59437
19.5906,16848.5736,-0.11793,-0.25743,-0.3708
19.6204,16848.5936,0.13313,-0.16213,-0.04887
19.635,16848.6136,0.23454,0.01257,0.14416
19.6525,16848.6336,0.14963,0.05534,-0.00244
19.6728,16848.6536,-0.00492,-0.01186,-0.20831
19.6911,16848.6736,-0.07151,0.08893,-0.08919
19.711,16848.6936,-0.03852,0.17751,0.03543
19.7398,16848.7136,-0.10449,0.19583,-0.00916
19.7517,16848.7336,-0.22117,0.16712,-0.15272
19.7745,16848.7536,-0.24072,-0.00758,-0.16127
19.7954,16848.7736,-0.14481,-0.05767,-0.04704
19.8138,16848.7936,-0.12038,0.03273,0.01038
19.834,16848.8135,-0.18696,0.14513,-0.03849
19.8566,16848.8335,-0.28653,0.26242,-0.15516
19.8814,16848.8535,-0.3244,0.25692,-0.16371
19.9077,16848.8735,-0.2621,0.23065,-0.12462
19.9243,16848.8935,-0.2456,0.34,-0.12278
19.9302,16848.9135,-0.35312,0.42491,-0.16555
19.9504,16848.9335,-0.42642,0.46339,-0.22663
19.9733,16848.9535,-0.5095,0.60878,-0.18998
19.9987,16848.9735,-0.77889,1.09747,-0.0788
20.0144,16848.9935,-1.336,1.86899,-0.02077
20.0384,16849.0135,-1.67014,1.99178,-0.12828
20.0549,16849.0335,-1.48444,1.40962,-0.31399
20.0742,16849.0535,-1.44595,1.10175,-0.60476
20.0999,16849.0735,-1.6115,0.98568,-0.83505
20.1125,16849.0935,-1.90655,0.79204,-1.16248
20.1303,16849.1135,-2.35003,0.36077,-1.65545
20.1566,16849.1335,-2.73549,-0.23666,-2.21622
20.1839,16849.1535,-3.00244,-0.92633,-2.73057
20.1972,16849.1735,-3.0788,-1.26902,-3.01523
20.2166,16849.1935,-3.2816,-1.36187,-3.10442
20.2304,16849.2134,-3.51679,-1.43151,-3.23453
20.2489,16849.2334,-3.34697,-1.69785,-3.23942
20.2743,16849.2534,-3.02565,-2.25068,-3.22109
20.2897,16849.2734,-2.67318,-2.56161,-3.44589
20.3094,16849.2934,-2.62615,-1.66303,-3.69146
20.3343,16849.3134,-2.33721,-1.34782,-3.3732
20.3498,16849.3334,-1.65609,-1.96113,-3.15023
20.3709,16849.3534,-0.92122,-2.50114,-3.29745
20.3954,16849.3734,-0.77217,-2.86216,-3.81241
20.411,16849.3934,-0.86624,-3.13582,-4.23574
20.4308,16849.4134,-0.94627,-2.60193,-4.36524
20.4535,16849.4334,-0.63167,-1.77176,-4.34997
20.4729,16849.4534,0.20827,-1.46572,-4.38296
20.497,16849.4734,0.67741,-1.49993,-4.5314
20.5134,16849.4934,0.79348,-2.03688,-4.80507
20.5309,16849.5134,1.16733,-1.64287,-4.99321
20.5498,16849.5334,1.89853,-1.10592,-4.95839
20.5716,16849.5534,2.59675,-1.19572,-4.70183
20.5898,16849.5734,2.68533,-1.41013,-4.5595
20.6095,16849.5934,2.87653,-1.99045,-4.27178
20.6381,16849.6134,3.64133,-2.14744,-3.84051
20.6543,16849.6333,4.37987,-1.52131,-2.8503
20.7081,16849.6533,5.62054,-2.21281,-2.10443
20.7131,16849.6733,6.79951,-4.04174,-1.75379
20.7154,16849.6933,7.57714,-6.07653,-1.4563
20.734,16849.7133,7.64433,-7.10278,-1.02259
20.7503,16849.7333,7.01881,-6.56705,0.16249
20.7705,16849.7533,6.12145,-4.58724,1.43553
20.789,16849.7733,5.39024,-2.55428,2.34511
20.812,16849.7933,4.96447,-1.69846,2.52593
20.83,16849.8133,5.00723,-2.17127,2.00058
20.85,16849.8333,5.39635,-2.65996,1.63101
20.8733,16849.8533,5.78791,-2.75281,1.36589
20.8928,16849.8733,5.7818,-1.96602,1.13315
20.918,16849.8933,5.6578,-1.27635,0.96944
20.9335,16849.9133,5.45194,-1.23664,0.68661
20.9505,16849.9333,5.36703,-1.7455,0.11057
20.9708,16849.9533,5.28456,-1.99167,-0.53512
20.9925,16849.9733,5.1966,-1.68807,-1.26694
21.0111,16849.9933,5.04877,-0.83836,-1.98287
21.0305,16850.0133,4.79281,0.18423,-2.45751
21.0514,16850.0332,4.48494,0.87023,-2.73057
21.0796,16850.0532,4.32428,0.83846,-2.89123
21.0972,16850.0732,4.31084,0.59778,-3.19971
21.1146,16850.0932,4.34199,0.72668,-3.6713
21.1297,16850.1132,4.29374,1.33449,-4.26934
21.1505,16850.1332,4.13674,1.9985,-4.81912
21.1817,16850.1532,3.99441,2.37968,-5.20274
21.191,16850.1732,3.8026,2.43466,-5.52039
21.2193,16850.1932,3.54482,2.37479,-5.62424
21.2341,16850.2132,3.21739,2.31981,-5.60286
21.2492,16850.2332,2.90402,2.44015,-5.57109
21.2687,16850.2532,2.57843,2.59715,-5.62912
21.2909,16850.2732,2.19969,2.76025,-5.62301
21.3143,16850.2932,1.79591,3.04247,-5.43853
21.331,16850.3132,1.30661,3.34118,-5.16731
21.3661,16850.3332,0.95353,3.57942,-5.07568
21.376,16850.3532,0.49232,3.73763,-5.02803
21.3904,16850.3732,-0.18452,3.88913,-5.0824
21.4136,16850.3932,-0.94443,3.7694,-5.04514
21.4348,16850.4132,-1.5388,3.36439,-4.94434
21.4547,16850.4331,-2.05438,2.75169,-5.00054
21.4735,16850.4531,-2.52474,2.04248,-4.95656
21.4932,16850.4731,-3.2138,1.62465,-5.18075
21.5147,16850.4931,-3.84482,1.39618,-5.66639
21.5358,16850.5131,-4.2486,1.39191,-6.09521
21.551,16850.5331,-4.41903,1.26057,-6.04634
21.5706,16850.5531,-4.43186,0.47378,-6.00725
21.5924,16850.5731,-4.40132,-0.01369,-6.12454
21.6111,16850.5931,-4.20034,-0.38571,-5.95838
21.6336,16850.6131,-3.88269,-0.8628,-5.68105
21.6533,16850.6331,-3.72265,-1.06682,-5.66211
21.6699,16850.6531,-3.53084,-1.55185,-5.64195
21.692,16850.6731,-3.35491,-2.14622,-5.26383
21.7148,16850.6931,-3.54977,-2.38935,-4.94862
21.7302,16850.7131,-3.30237,-1.89088,-4.91747
21.7536,16850.7331,-2.42089,-1.24886,-4.9926
21.7729,16850.7531,-1.18878,-1.14257,-5.2846
21.8003,16850.7731,-0.40993,-0.98436,-5.71342
21.8124,16850.7931,-0.0373,-1.1383,-6.36827
21.8334,16850.8131,0.32922,-1.28002,-6.87223
21.8512,16850.8331,0.99384,-1.65997,-7.22654
21.8739,16850.853,1.86799,-2.01122,-7.97973
21.9,16850.873,2.58637,-1.81941,-8.81967
21.9158,16850.893,3.21434,-1.77482,-9.12511
21.9362,16850.913,3.58635,-1.36798,-8.65902
21.9576,16850.933,3.75984,-1.71617,-8.4501
21.9717,16850.953,3.53015,-1.9764,-8.32426
21.9905,16850.973,3.45135,-2.08269,-8.15688
22.0171,16850.993,3.6395,-2.5439,-7.46722
22.0331,16851.013,3.25588,-2.22258,-6.67615
22.0494,16851.033,3.30597,-2.44005,-5.79284
22.0714,16851.053,3.46357,-2.34964,-4.6609
22.0899,16851.073,3.79527,-2.11568,-3.32616
22.1098,16851.093,3.29008,-0.65266,-2.03907
22.1327,16851.113,2.59797,-0.30874,-1.11666
22.1786,16851.133,3.08239,-0.56042,-0.38668
22.182,16851.153,4.68347,-0.00025,-0.10751
22.1935,16851.173,6.56738,-0.31851,-0.26328
22.2232,16851.193,7.14281,-2.43333,-0.35003
22.2337,16851.2131,6.08846,-2.83894,-0.0452
22.2526,16851.2331,6.1752,-0.3344,-0.40989
22.2699,16851.2531,7.39693,0.86901,0.07452
22.2905,16851.2731,7.86485,1.71322,1.06718
22.3115,16851.2932,7.84592,0.60511,1.20401
22.3301,16851.3132,7.89234,-2.0045,0.56322
22.3574,16851.3332,7.45619,-3.11811,0.23763
22.372,16851.3533,6.12633,-1.89149,-0.00855
22.3912,16851.3733,5.43483,-0.4358,-1.15576
22.4139,16851.3933,5.94735,0.57029,-2.49477
22.4397,16851.4133,6.62052,2.01499,-3.44039
22.4499,16851.4334,6.8441,4.33689,-4.12578
22.4719,16851.4534,7.21062,6.31609,-4.64563
22.4924,16851.4734,7.50139,7.73452,-4.9138
22.5136,16851.4935,7.4287,7.90679,-5.3469
22.5349,16851.5135,7.00415,7.07234,-6.1392
22.5652,16851.5335,5.80502,6.64901,-6.70974
22.5812,16851.5535,4.70546,6.09557,-6.98158
22.5992,16851.5736,4.00663,4.78588,-7.54968
22.6163,16851.5936,3.1783,4.11453,-7.75799
22.6377,16851.6136,2.47275,4.51954,-7.48799
22.6509,16851.6337,2.3634,4.20128,-6.93699
22.6913,16851.6537,2.40189,2.76697,-6.18623
22.6944,16851.6737,1.55645,1.33815,-5.81299
22.7099,16851.6937,0.69513,0.71873,-5.95838
22.7307,16851.7138,0.16551,1.28501,-6.19051
22.749,16851.7338,0.21621,2.74559,-5.92417
22.7689,16851.7538,0.71223,3.18419,-5.31392
22.7928,16851.7738,0.73056,2.50979,-5.58636
22.8159,16851.7938,-0.23155,2.42549,-6.67431
22.832,16851.8138,-1.58584,2.86654,-7.45561
22.8574,16851.8338,-2.71167,2.35341,-7.35787
22.8701,16851.8538,-3.02687,1.71383,-7.02434
22.891,16851.8738,-3.31581,2.1054,-6.59001
22.9144,16851.8938,-3.54733,1.94657,-6.33223
22.9314,16851.9138,-3.36651,1.04249,-5.8246
22.9509,16851.9338,-2.87171,-0.88418,-5.03597
22.9727,16851.9538,-2.69884,-3.16637,-4.04149
23.0031,16851.9738,-2.15028,-4.78455,-3.74155
23.0288,16851.9938,-0.5095,-5.16695,-3.82157
23.0393,16852.0138,1.13068,-5.82974,-4.56683
23.0504,16852.0338,1.7055,-6.41678,-5.62424
23.0735,16852.0538,1.81912,-6.44549,-6.33406
23.0924,16852.0738,1.99444,-5.83341,-6.88079
23.1118,16852.0937,2.54972,-5.25064,-7.34504
23.1321,16852.1137,2.66578,-5.58539,-7.45011
23.1513,16852.1337,1.9474,-5.63487,-7.18317
23.1723,16852.1537,1.34204,-5.09487,-6.91255
23.2018,16852.1737,1.81118,-5.11686,-6.65843
23.2148,16852.1937,1.96451,-4.82242,-6.59857
23.232,16852.2137,2.28216,-4.50783,-6.56986
23.2526,16852.2337,2.14899,-4.44674,-6.45318
23.271,16852.2537,2.3072,-4.5622,-6.50877
23.2896,16852.2737,2.51856,-4.01853,-6.4318
23.309,16852.2937,2.23268,-3.43209,-5.90157
23.3376,16852.3137,1.92358,-2.11324,-4.7
23.3525,16852.3338,2.2675,-1.41868,-3.50637
23.3716,16852.3538,2.59553,-0.85608,-2.40864
23.3937,16852.3738,3.01886,-0.52865,-1.72081
23.4127,16852.3938,3.47823,-0.37227,-1.62612
23.4356,16852.4139,4.5674,0.08282,-1.92728
23.4596,16852.4339,5.63031,-0.35822,-2.39276
23.4731,16852.4539,6.00905,-0.48956,-2.31579
23.4926,16852.474,5.72622,-0.15114,-2.31885
23.519,16852.494,5.45133,0.64849,-2.01341
23.5337,16852.514,6.55821,1.34915,-2.26998
23.5527,16852.534,8.1147,-1.3692,-2.51554
23.5743,16852.5541,8.21122,-3.69721,-1.32008
23.5961,16852.5741,7.89112,-2.91225,-0.45143
23.6135,16852.5941,7.17641,-0.35272,-0.32498
23.6334,16852.6142,6.28394,0.55563,-0.93829
23.6552,16852.6342,5.58327,0.50982,-0.75503
23.6717,16852.6542,5.88993,-1.64226,-0.3598
23.696,16852.6742,5.77997,-2.88781,-0.04459
23.722,16852.6943,5.70972,-2.6563,-0.15821
23.7347,16852.7143,5.14101,-1.66181,-0.52046
23.7531,16852.7343,4.15568,-0.56714,-0.58826
23.7729,16852.7544,3.88873,-0.51949,-0.67195
23.7912,16852.7744,4.1905,-1.15173,-1.16248
23.8128,16852.7944,4.1514,-0.79865,-2.15269
23.8306,16852.8144,3.97059,0.28136,-3.32372
23.8519,16852.8345,4.00174,1.0541,-3.8906
23.8718,16852.8545,4.17034,0.93926,-4.43488
23.8911,16852.8745,3.84475,1.27768,-5.01704
23.9114,16852.8945,3.57963,2.04614,-5.42998
23.9343,16852.9145,3.51916,2.32409,-5.87164
23.9542,16852.9345,3.66943,2.27888,-6.12148
23.9733,16852.9545,3.82642,2.00522,-6.35911
23.9951,16852.9745,3.8869,1.77736,-6.37438
24.0117,16852.9945,3.88323,1.26485,-6.13736
24.0351,16853.0145,3.26382,0.57029,-5.66394
24.0551,16853.0345,2.26444,0.42063,-5.12944
24.0748,16853.0545,1.57844,0.15796,-4.62792
24.0936,16853.0745,1.27362,-0.05279,-4.26873
24.1143,16853.0945,1.24308,-0.24765,-4.32493
24.1346,16853.1145,0.91504,0.14513,-4.58271
24.151,16853.1345,0.58578,0.84641,-4.8912
24.1734,16853.1545,0.14291,1.16772,-5.41593
24.2036,16853.1745,-0.2175,1.037,-6.13125
24.2107,16853.1945,-0.52904,1.0822,-6.43913
24.2344,16853.2145,-0.38122,1.99056,-5.98465
24.2512,16853.2345,0.20094,1.85311,-5.45991
24.2703,16853.2545,0.20277,1.32288,-5.31575
24.2935,16853.2745,-0.76362,0.77982,-5.50695
24.3125,16853.2945,-1.35493,0.6045,-5.74213
24.3319,16853.3144,-1.64326,0.86046,-5.98037
24.3647,16853.3344,-1.64754,1.59655,-6.06039
24.3762,16853.3544,-1.68541,2.40167,-6.04573
24.3958,16853.3744,-1.52842,2.5104,-6.46967
24.419,16853.3944,-0.66282,2.33753,-6.70547
24.4325,16853.4144,-0.56509,2.08158,-6.49411
24.4527,16853.4344,-1.7691,2.05653,-5.65722
24.4724,16853.4544,-2.46488,1.33021,-5.12211
24.4912,16853.4744,-2.12768,1.59655,-5.54971
24.5122,16853.4944,-2.34759,3.35767,-5.84598
24.5345,16853.5144,-3.06414,3.7975,-4.81851
24.5533,16853.5344,-3.27305,2.54705,-4.01339
24.5716,16853.5544,-2.74221,1.85861,-3.5418
24.5918,16853.5744,-2.11852,1.93924,-3.45994
24.6108,16853.5944,-1.66403,1.32471,-3.79592
24.6321,16853.6144,-1.63532,0.78288,-3.91443
24.6572,16853.6344,-2.06965,1.1891,-3.76476
24.7116,16853.6544,-1.93709,1.23003,-3.76843
24.7139,16853.6744,-1.58706,0.96308,-4.13983
24.7155,16853.6944,-1.29874,0.92887,-4.1887
24.7311,16853.7144,-1.11731,0.70285,-3.96207
24.7549,16853.7343,-1.29507,0.27219,-3.94314
24.7714,16853.7543,-1.30912,-0.40587,-4.19481
24.7956,16853.7743,-1.19733,-0.16152,-4.10685
24.8118,16853.7943,-0.56325,-0.73512,-4.15999
24.8326,16853.8143,-0.36167,-1.1218,-4.33531
24.8505,16853.8343,-0.30364,-1.56224,-4.43427
24.872,16853.8543,0.43062,-2.06192,-4.64441
24.8966,16853.8743,1.19543,-2.10591,-5.51428
24.9145,16853.8943,1.97917,-3.00815,-6.67615
24.9328,16853.9143,2.49107,-3.78823,-7.20149
24.9565,16853.9343,2.76902,-4.63183,-7.16667
24.9729,16853.9543,3.2742,-5.8951,-7.44889
24.9951,16853.9743,3.375,-5.21826,-7.52953
25.0137,16853.9943,3.42264,-6.09547,-7.54296
25.0321,16854.0143,4.35421,-7.33125,-7.76349
25.052,16854.0343,4.8875,-6.1144,-7.52097
25.0781,16854.0543,3.66699,-5.40519,-6.77694
25.0931,16854.0743,3.39821,-5.56951,-5.80078
25.1116,16854.0943,3.99136,-5.60677,-5.06957
25.1324,16854.1143,4.44096,-4.3038,-4.0928
25.1632,16854.1342,3.90645,-3.89391,-3.43612
25.1728,16854.1542,3.63645,-2.76381,-3.03234
25.1995,16854.1742,5.54601,-2.70516,-3.09159
25.2124,16854.1942,5.76531,-2.6398,-2.7831
25.2354,16854.2142,4.75677,-2.12118,-1.99692
25.2541,16854.2342,5.22408,-1.40219,-1.43614
25.2705,16854.2542,6.96872,-1.10225,-0.90469
25.2898,16854.2742,7.76773,-1.96785,-0.08858
25.3123,16854.2942,6.67489,-2.61415,0.21136
25.3321,16854.3142,6.28271,-3.20669,0.13256
25.3504,16854.3342,6.31998,-3.00693,0.28955
25.3727,16854.3542,5.75004,-2.34475,0.60598
25.391,16854.3742,5.36153,-1.98068,0.73059
25.4159,16854.3942,5.59427,-2.52496,0.26511
25.4397,16854.4142,5.4666,-3.85481,-0.1124
25.4526,16854.4342,4.94614,-4.41925,-0.63958
25.4717,16854.4542,4.32672,-4.19995,-0.82467
25.4957,16854.4742,4.23387,-3.29221,-1.22295
25.5144,16854.4942,4.26197,-2.64041,-1.68721
25.5331,16854.5142,4.37071,-2.44127,-2.17407
25.5522,16854.5342,4.53014,-1.78337,-2.08244
25.5708,16854.5541,4.09643,-0.25987,-1.87108
25.596,16854.5741,3.73418,1.1384,-2.02624
25.6156,16854.5941,3.82704,2.409,-2.67315
25.6315,16854.6141,3.92172,3.37111,-3.31639
25.6518,16854.6341,3.98158,4.17379,-3.61144
25.6735,16854.6541,3.93455,4.35094,-4.07997
25.7008,16854.6741,3.86857,3.90928,-4.70183
25.7112,16854.6941,3.72074,3.60141,-5.3298
25.7327,16854.7141,3.35117,3.58125,-5.89424
25.7521,16854.7341,3.16364,3.33874,-6.27236
25.7762,16854.7541,3.2687,2.76941,-6.68592
25.7929,16854.7741,3.10316,2.90808,-6.9431
25.8102,16854.7941,2.57782,3.5055,-6.84963
25.8323,16854.8141,2.36707,3.50489,-6.68226
25.8579,16854.8341,2.03109,3.06812,-6.52832
25.8754,16854.8541,1.75681,2.67839,-6.1392
25.8922,16854.8741,1.45077,3.1512,-5.75069
25.9141,16854.8941,1.09952,4.33078,-5.83682
25.9323,16854.9141,0.52287,4.98135,-6.18684
25.9651,16854.9341,-0.33112,4.95509,-6.32551
25.9741,16854.954,-1.22543,4.41325,-6.25343
25.9966,16854.974,-2.09652,3.23611,-6.24182
26.0146,16854.994,-2.61271,2.69916,-6.1001
26.0334,16855.014,-3.5962,2.94412,-6.56986
26.0538,16855.034,-4.78739,3.37661,-6.99807
26.0709,16855.054,-4.96209,3.00276,-6.44585
26.0924,16855.074,-4.81243,2.14572,-5.86797
26.1127,16855.094,-4.55098,1.87449,-5.35912
26.1426,16855.114,-4.04702,2.01805,-4.88814
26.1727,16855.134,-3.85887,1.50064,-4.60104
26.1754,16855.154,-3.87414,0.46461,-4.11968
26.2045,16855.174,-3.70005,0.20072,-3.64687
26.2327,16855.194,-3.4557,0.35466,-3.88083
26.2356,16855.214,-3.18631,-0.30813,-5.03231
26.2512,16855.234,-2.88332,-1.5323,-5.57903
26.2721,16855.254,-2.57911,-1.75283,-5.25283
26.2898,16855.274,-1.64387,-1.7516,-4.78979
26.3136,16855.294,-0.66893,-1.70273,-4.92541
26.3389,16855.314,0.44284,-2.10652,-5.54116
26.3502,16855.334,1.78186,-3.44553,-6.80626
26.3722,16855.3539,2.81544,-4.26165,-8.27967
26.3939,16855.3739,3.68287,-4.60312,-9.35723
26.4134,16855.3939,4.91315,-5.52431,-9.83982
26.4335,16855.4139,5.80685,-6.02094,-9.36701
26.4571,16855.4339,5.63947,-5.46078,-7.9272
26.4744,16855.4539,4.53075,-4.19201,-6.16852
26.4916,16855.4739,3.43425,-4.38382,-5.30781
26.5117,16855.4939,3.82642,-4.63855,-5.00787
26.5307,16855.5139,5.5283,-3.87742,-3.51797
26.5505,16855.5339,7.52582,-2.88598,-1.87414
26.582,16855.5539,8.43968,-1.3802,-0.9951
26.597,16855.5739,8.00474,0.43407,-0.87048
26.613,16855.5939,7.6034,1.45605,-0.3372
26.6318,16855.6139,7.87035,2.31004,0.51313
26.6532,16855.6339,7.59058,3.69915,0.51862
26.695,16855.6539,5.87832,6.67101,0.3543
26.6973,16855.6739,4.16179,8.32034,0.25595
26.711,16855.6939,3.70914,7.85486,-0.13561
26.7387,16855.7139,4.41224,6.80662,-1.37139
26.7532,16855.7339,4.22898,6.78646,-2.5803
26.7685,16855.7539,3.71403,7.70154,-3.22598
26.7889,16855.7738,3.61507,8.3515,-3.66702
26.8105,16855.7938,3.80138,8.2562,-4.12578
26.8329,16855.8138,3.65905,7.78706,-4.33775
26.8501,16855.8338,2.8692,7.38755,-4.03965
26.8715,16855.8538,2.04209,6.32037,-3.34266
26.8919,16855.8738,1.18993,4.90255,-2.61389
26.9189,16855.8938,0.39275,3.34607,-2.15697
26.9356,16855.9138,0.13619,2.03026,-2.03601
26.9541,16855.9338,-0.06295,1.712,-2.2883
26.9755,16855.9538,-0.43741,1.82318,-2.59068
27.004,16855.9738,-0.64694,2.01133,-2.69758
27.0172,16855.9938,-0.55165,1.87266,-2.68598
27.0346,16856.0138,-0.60601,1.77309,-2.52593
27.055,16856.0338,-0.87785,1.43772,-2.43308
27.0762,16856.0538,-1.03728,1.04249,-2.47889
27.0945,16856.0738,-0.92672,0.72973,-2.24737
27.1137,16856.0938,-0.65,0.93071,-1.923
27.1322,16856.1138,-0.54676,1.05043,-1.71103
27.1591,16856.1338,-0.639,0.84274,-1.62857
27.1737,16856.1538,-0.52416,0.50432,-1.48807
27.2019,16856.1737,-0.43619,0.3852,-1.372
27.2172,16856.1937,-0.64572,0.57274,-1.40194
27.2369,16856.2137,-0.77156,0.6552,-1.32802
27.2543,16856.2337,-0.56692,0.46828,-1.19485
27.2697,16856.2537,-0.30425,0.24104,-0.96639
27.2933,16856.2737,-0.32257,0.03823,-0.79901
27.3184,16856.2937,-0.52355,-0.0986,-0.8265
27.3398,16856.3137,-0.77645,0.00708,-1.06596
27.3578,16856.3337,-0.75995,0.12131,-1.13865
27.3707,16856.3537,-0.4252,0.10604,-0.78618
27.3914,16856.3737,-0.21139,0.05106,-0.49969
27.4152,16856.3937,-0.18513,0.0981,-0.32865
27.4354,16856.4137,-0.42642,0.1659,-0.50213
27.4544,16856.4337,-0.59135,0.31251,-0.67195
27.477,16856.4537,-0.67199,0.36688,-0.6915
27.5009,16856.4737,-0.41542,0.35527,-0.49175
27.5144,16856.4937,-0.34762,0.38459,-0.35003
27.5326,16856.5137,-0.58402,0.47195,-0.49358
27.55,16856.5337,-0.83509,0.57579,-0.7141
27.5704,16856.5537,-1.17412,0.79448,-0.80634
27.5919,16856.5736,-1.60539,1.16406,-0.7703
27.6149,16856.5936,-2.11363,1.37664,-0.78985
27.6388,16856.6136,-2.44777,1.05166,-1.08673
27.6623,16856.6336,-2.50031,0.27525,-1.74219
27.6826,16856.6536,-2.56017,-0.24032,-2.68903
27.6917,16856.6736,-2.6237,-0.5372,-3.32861
27.7151,16856.6936,-2.88698,-1.69113,-3.94802
27.7332,16856.7136,-3.40927,-3.20363,-4.61997
27.7542,16856.7336,-3.76235,-3.81755,-4.48558
27.7791,16856.7536,-3.55527,-4.93727,-4.8857
27.7977,16856.7736,-1.5498,-5.46383,-6.28947
27.8134,16856.7936,-0.01042,-4.73996,-7.08176
27.835,16856.8136,2.02254,-5.87494,-8.22836
27.8528,16856.8336,4.22898,-7.58231,-10.5136
27.8761,16856.8536,5.27418,-8.15164,-11.9528
27.8964,16856.8736,5.32915,-8.25793,-11.16478
27.9124,16856.8936,4.73417,-6.6538,-8.23996
27.9365,16856.9136,5.12268,-5.69352,-5.30598
27.9551,16856.9336,6.88808,-5.42229,-3.41657
27.9829,16856.9536,8.21732,-4.71064,-1.85153
27.9933,16856.9736,8.23382,-3.8487,-0.21258
28.0221,16856.9935,7.0579,-2.05643,1.15637
28.0329,16857.0135,6.62052,-0.8518,1.89002
28.061,16857.0335,7.15564,-1.05949,2.55342
28.0717,16857.0535,7.17152,-1.55857,2.7831
28.0952,16857.0735,7.17946,-1.36737,2.5186
28.1107,16857.0935,6.73536,-1.01001,1.86803
28.1322,16857.1135,6.27844,-0.51643,1.06901
28.1556,16857.1335,5.97056,0.10298,0.21075
28.1705,16857.1535,5.17094,1.53607,-0.41356
28.1986,16857.1735,4.50876,2.17931,-0.78252
28.2117,16857.1935,4.35788,2.4652,-1.22601
28.2354,16857.2135,4.25159,2.814,-1.76907
28.2538,16857.2335,3.69509,3.63317,-2.31457
28.2698,16857.2535,2.96633,4.34972,-2.99629
28.2894,16857.2735,2.58087,4.54275,-3.61571
28.3112,16857.2935,2.47641,4.40958,-4.08791
28.3296,16857.3135,2.21802,4.27886,-4.27789
28.3507,16857.3335,1.78552,4.47861,-4.30232
28.3738,16857.3535,1.39946,4.59467,-4.2785
28.3891,16857.3735,1.11846,4.43035,-4.1661
28.4096,16857.3934,0.86312,4.13042,-4.06287
28.4326,16857.4134,0.46239,4.18112,-3.90465
28.453,16857.4334,-0.02752,4.26786,-3.58089
28.4737,16857.4534,-0.38916,4.06811,-3.182
28.4937,16857.4734,-0.87479,3.81032,-2.91444
28.5107,16857.4934,-1.47589,3.55437,-2.84541
28.5367,16857.5134,-1.82469,3.30636,-2.83075
28.5533,16857.5334,-1.76483,2.79934,-2.91444
28.5709,16857.5534,-1.55957,2.45604,-2.93215
28.5903,16857.5734,-1.31828,2.05164,-2.80204
28.6128,16857.5934,-1.23276,1.92031,-2.54609
28.6375,16857.6134,-1.3586,1.9704,-2.30907
28.6539,16857.6334,-1.31523,1.69673,-2.1026
28.6878,16857.6534,-1.11486,1.10053,-2.1423
28.6915,16857.6734,-1.02323,0.58801,-2.16246
28.7114,16857.6934,-0.93344,0.5031,-2.02746
28.7342,16857.7134,-0.80943,0.71507,-2.04518
28.7502,16857.7334,-0.67932,0.94598,-2.44285
28.7691,16857.7534,-0.504,0.9362,-2.89367
28.7933,16857.7734,-0.94993,0.69735,-2.70186
28.8142,16857.7934,-1.59195,-0.04179,-2.52104
28.8331,16857.8133,-1.47894,-0.44435,-2.41047
28.8564,16857.8333,-0.86869,-0.60868,-2.26509
28.8751,16857.8533,-0.35434,-0.42847,-1.97187
28.8921,16857.8733,-0.29508,-0.36677,-1.70554
28.9126,16857.8933,-0.06112,-0.73268,-1.55893
28.9306,16857.9133,0.01218,-1.11753,-1.36834
28.9511,16857.9333,0.09159,-1.25069,-0.99082
28.9741,16857.9533,0.50087,-1.46083,-0.8039
28.9923,16857.9733,0.6487,-1.60377,-1.08917
29.0115,16857.9933,0.52164,-1.24459,-1.17592
29.0331,16858.0133,0.54669,-0.92449,-0.85766
29.0513,16858.0333,0.22598,-0.15114,-0.24068
29.075,16858.0533,0.20277,0.33389,0.27245
29.0948,16858.0733,0.42635,0.06633,0.21502
29.1116,16858.0933,0.51126,0.04251,-0.21747
29.1328,16858.1133,0.45872,0.19706,-0.33964
29.1527,16858.1333,0.317,-0.07906,-0.18754
29.1687,16858.1533,0.40314,-0.2556,-0.17837
29.2035,16858.1733,0.57235,-0.34967,-0.28894
29.2248,16858.1933,0.51737,-0.23788,-0.34209
29.2291,16858.2132,0.47888,-0.49444,-0.2529
29.2504,16858.2332,0.48072,-0.47734,0.05925
29.272,16858.2532,0.36038,-0.12609,0.13011
29.2908,16858.2732,0.39336,0.01563,-0.02505
29.3095,16858.2932,0.27302,0.00463,0.08247
29.337,16858.3132,0.30418,-0.11937,0.00122
29.3538,16858.3332,0.3054,-0.31118,-0.21564
29.3727,16858.3532,0.28096,-0.29164,-0.39279
29.3934,16858.3732,0.24736,0.05961,-0.64385
29.4145,16858.3932,0.38725,0.31984,-0.83566
29.4363,16858.4132,0.95108,0.6833,-0.86071
29.4592,16858.4332,1.87166,0.91482,-1.08978
29.4731,16858.4532,2.06774,-0.0198,-0.75686
29.4935,16858.4732,1.78369,0.15857,-0.3091
29.5118,16858.4932,1.07753,0.47317,0.08552
29.5308,16858.5132,0.35671,0.54586,0.28527
29.5507,16858.5332,0.19666,0.82808,0.37018
29.5744,16858.5532,0.21255,1.04616,0.45143
29.5997,16858.5732,0.05128,0.93865,0.54672
29.6178,16858.5932,-0.16375,0.70835,0.72265
29.6425,16858.6131,-0.08983,0.50615,0.72449
29.6637,16858.6331,0.11053,0.30823,0.55222
29.6707,16858.6531,0.2101,-0.08028,0.25229
29.6925,16858.6731,0.29196,-0.24888,0.12889
29.7117,16858.6931,0.39153,-0.25498,0.14783
29.7359,16858.7131,0.44651,-0.12792,0.20708
29.7592,16858.7331,0.34022,-0.03141,0.2364
29.7728,16858.7531,0.12702,-0.04668,0.18692
29.7915,16858.7731,-0.00981,-0.0986,0.03054
29.8143,16858.7931,-0.01714,-0.13587,-0.04826
29.8357,16858.8131,0.11175,-0.18046,0.0055
29.858,16858.8331,0.28218,-0.29286,0.15638
29.8784,16858.8531,0.32189,-0.46146,0.24923
29.8979,16858.8731,0.34755,-0.54087,0.15577
29.9115,16858.8931,0.30967,-0.48528,0.00855
29.933,16858.9131,0.19972,-0.26476,-0.1405
29.9511,16858.9331,0.13497,-0.09982,-0.22174
29.9757,16858.9531,0.07999,-0.09372,-0.13683
29.9947,16858.9731,0.04089,-0.19084,-0.05559
30.022,16858.9931,-0.00309,-0.2953,-0.06231
30.0392,16859.0131,0.01157,-0.3906,-0.18754
30.0596,16859.0331,0.18994,-0.25193,-0.29688
30.0758,16859.053,0.23698,0.08588,-0.18754
30.0926,16859.073,0.19544,0.30579,-0.13561
30.1117,16859.093,0.16368,0.11276,-0.2303
30.1312,16859.113,0.25958,-0.20612,-0.3317
30.1546,16859.133,0.44284,-0.1658,-0.2584
30.1722,16859.153,0.42879,-0.00697,-0.13745
30.1957,16859.173,0.35793,-0.01675,-0.12278
30.233,16859.193,0.33899,-0.22383,-0.1405
30.2365,16859.213,0.33472,-0.35761,-0.14111
30.2489,16859.233,0.21499,-0.32096,-0.12462
30.2697,16859.253,-0.00126,-0.25437,-0.09285
30.2947,16859.273,-0.1332,-0.23666,-0.09285
30.3103,16859.293,-0.12343,-0.21161,-0.07453
30.3339,16859.313,-0.04829,-0.11143,-0.011
30.3507,16859.333,-0.01836,-0.02041,0.06292
30.3692,16859.353,-0.02142,0.03823,0.10446
30.389,16859.373,-0.02508,-0.00086,0.08124
30.4106,16859.393,0.00852,0.04434,0.02871
30.4385,16859.413,-0.02019,0.06511,0.03421
30.4513,16859.433,-0.07456,0.05778,0.06903
30.4796,16859.4529,-0.09777,0.059,0.09957
30.491,16859.4729,-0.10144,0.06022,0.06842
30.5239,16859.4929,-0.1668,0.01196,0.03299
30.5369,16859.5129,-0.2456,-0.02041,0.04398
30.5548,16859.5329,-0.30058,-0.00392,0.04276
30.57,16859.5529,-0.33296,-0.00819,0.02077
30.5915,16859.5729,-0.32624,-0.01186,0.08124
30.6114,16859.5929,-0.2004,-0.00514,0.12462
30.6334,16859.6129,-0.01836,-0.07906,0.07269
30.6588,16859.6329,0.06044,-0.11876,0.03238
30.6727,16859.6529,0.00729,-0.0986,0.01283
30.715,16859.6729,-0.099,-0.02163,0.01955
30.7171,16859.6929,-0.16741,0.0419,0.0171
30.7306,16859.7129,-0.14603,0.03151,-0.00611
30.7488,16859.7329,-0.08739,0.01257,-0.00122
30.7709,16859.7529,-0.02386,0.02357,-0.00916
30.7906,16859.7729,-0.02997,0.05472,-0.01955
30.8135,16859.7929,-0.04646,0.13108,0.01771
30.8342,16859.8129,-0.0544,0.14391,0.01038
30.8496,16859.8329,-0.05196,0.10665,0.00244
30.8708,16859.8529,-0.00737,0.048,0.00855
30.8928,16859.8728,0.06227,-0.00025,0.01405
30.9101,16859.8928,0.12947,-0.02713,0.01833
30.9303,16859.9128,0.13863,-0.04118,-0.00183
30.9511,16859.9328,0.13374,-0.0479,-0.02749
30.9697,16859.9528,0.17223,-0.03996,-0.03543
30.9904,16859.9728,0.27424,-0.05829,-0.0226
31.0126,16859.9928,0.3451,-0.13403,0.01588
31.0288,16860.0128,0.27913,-0.29286,0.09652
31.0505,16860.0328,0.25897,-0.627,0.13989
31.0701,16860.0528,0.40314,-1.11386,0.10629
31.0889,16860.0728,0.54974,-1.42662,0.04093
31.1086,16860.0928,0.52348,-1.06194,0.0226
31.1304,16860.1128,0.26141,-0.31241,0.04215
31.1526,16860.1328,-0.04402,0.23188,0.02382
31.1718,16860.1528,-0.35556,0.36932,-0.03238
31.198,16860.1728,-0.46368,0.27708,-0.02627
31.2133,16860.1928,-0.29264,0.18789,0.0055
31.2327,16860.2128,-0.08433,0.30151,0.09163
31.2555,16860.2328,-0.16436,0.63138,0.16493
31.2686,16860.2528,-0.44352,0.99668,0.1686
31.2882,16860.2727,-0.62312,1.23492,0.1295
31.3112,16860.2927,-0.71902,1.31433,0.13989
31.3287,16860.3127,-0.76178,1.33754,0.15882
31.3508,16860.3327,-0.82226,1.07976,0.14722
31.3755,16860.3527,-0.59746,0.9191,0.17776
31.3894,16860.3727,-0.27065,0.97896,0.04337
31.4109,16860.3927,-0.14786,0.95209,-0.29261
31.4352,16860.4127,-0.20773,0.69735,-0.4722
31.4504,16860.4327,-0.26454,0.63566,-0.43066
31.4706,16860.4527,0.06777,0.85923,-0.43066
31.492,16860.4727,0.28829,0.80853,-0.21075
31.5103,16860.4927,0.20766,0.05045,-0.09041
31.5319,16860.5127,0.26141,-0.75467,0.07636
31.5541,16860.5327,0.06899,-0.66243,0.14233
31.5696,16860.5527,-0.21323,-0.11326,0.11973
31.5935,16860.5727,-0.35984,0.65887,0.12767
31.6159,16860.5927,-0.08433,0.91177,0.0617
31.6369,16860.6127,0.4459,0.44079,-0.07025
31.6542,16860.6327,0.74522,-0.41625,-0.09896
31.6817,16860.6527,0.67558,-0.79804,-0.0788
31.6967,16860.6727,0.45323,-0.5372,-0.07758
31.7157,16860.6926,0.1258,-0.54392,-0.07269
31.7363,16860.7126,0.26569,-0.38632,0.05314
31.7505,16860.7326,0.55707,-0.09677,0.30421
31.7702,16860.7526,0.7049,-0.04546,0.24984
31.7917,16860.7726,0.68291,-0.67221,-0.06964
31.8195,16860.7926,0.32861,-1.24214,-0.34942
31.8335,16860.8126,0.5082,-1.16945,-0.14355
31.8511,16860.8326,0.5363,-0.74673,0.00305
31.8692,16860.8526,0.31456,-0.47673,0.00916
31.8894,16860.8726,-0.03241,-0.62028,-0.0843
31.9146,16860.8926,-0.01714,-1.05949,0.01283
31.9337,16860.9126,0.13558,-1.12058,0.04704
31.9534,16860.9326,0.03051,-1.06805,0.05376
31.9734,16860.9526,-0.17474,-0.81026,0.02016
31.9906,16860.9726,-0.32868,-0.43275,-0.04154
32.0111,16860.9926,-0.4087,-0.01125,-0.09591
32.0326,16861.0126,-0.47834,0.12375,-0.12828
32.0544,16861.0326,-0.47285,-0.00697,-0.08919
32.0776,16861.0526,-0.23705,-0.12182,0.00855
32.1203,16861.0726,-0.03302,-0.25254,0.07819
32.1252,16861.0925,0.05983,-0.23727,0.14111
32.1445,16861.1125,0.12214,-0.09127,0.15577
32.1636,16861.1325,0.20888,0.18545,0.14294
32.1692,16861.1525,0.11786,0.29724,0.14416
32.1944,16861.1726,-0.0092,0.17262,0.16554
32.219,16861.1926,0.10137,0.13841,0.38301
32.2376,16861.2126,0.20338,0.09443,0.46242
32.2491,16861.2326,0.27119,-0.01736,0.36102
32.2723,16861.2527,0.26019,-0.01919,0.30177
32.2908,16861.2727,0.16551,0.11825,0.31948
32.3113,16861.2927,0.16917,0.17262,0.32987
32.3411,16861.3128,0.14352,0.18423,0.34697
32.3547,16861.3328,0.12275,0.2893,0.31582
32.3717,16861.3528,0.0189,0.39986,0.20281
32.3921,16861.3728,-0.02875,0.5202,0.12523
32.4162,16861.3929,0.01279,0.58984,0.13317
32.4321,16861.4129,0.03662,0.52692,0.13317
32.4556,16861.433,0.0977,0.43102,0.07269
32.4726,16861.4531,0.10626,0.3119,0.08674
32.4909,16861.4731,0.13435,0.34794,0.12645
32.5128,16861.4932,0.12764,0.4298,0.18326
32.5349,16861.5132,0.08121,0.43957,0.20708
32.5569,16861.5333,0.04456,0.41147,0.21686
32.5778,16861.5534,0.08426,0.26975,0.24007
32.5925,16861.5734,0.16979,0.17323,0.23702
32.6115,16861.5935,0.17895,0.15307,0.21808
32.6499,16861.6136,0.11664,0.34,0.16188
32.6529,16861.6336,-0.00065,0.44323,0.13256
32.6729,16861.6537,0.01524,0.31312,0.13439
32.7115,16861.6737,0.16123,-0.05157,0.15699
32.7169,16861.6938,0.25042,-0.39671,0.21625
32.7334,16861.7139,0.23698,-0.51033,0.20892
32.752,16861.7339,0.16368,-0.58546,0.17104
32.7696,16861.754,0.20766,-0.59646,0.16615
32.7904,16861.774,0.26264,-0.61662,0.10568
32.813,16861.794,0.29379,-0.87685,-0.08186
32.8383,16861.8141,0.37565,-1.26169,-0.17715
32.8534,16861.8341,0.60655,-1.60194,-0.15577
32.8763,16861.8541,0.81242,-1.55979,-0.11423
32.8986,16861.8742,0.63954,-0.8689,-0.08491
32.9144,16861.8942,0.1142,-0.24521,-0.21869
32.9337,16861.9142,-0.19246,0.19156,-0.37874
32.952,16861.9342,-0.24499,0.29724,-0.47159
32.9748,16861.9543,-0.15764,0.04251,-0.46731
32.998,16861.9743,-0.07273,-0.26354,-0.44043
33.0121,16861.9943,-0.1442,-0.40526,-0.39706
33.0356,16862.0143,-0.30974,-0.19268,-0.37446
33.0604,16862.0343,-0.58219,0.03884,-0.33353
33.0744,16862.0543,-0.70009,0.32351,-0.23091
33.0904,16862.0743,-0.60785,0.36993,-0.22236
33.1125,16862.0943,-0.53821,0.25326,-0.24862
33.131,16862.1143,-0.57303,0.18728,-0.17165
33.1541,16862.1343,-0.44108,0.24043,-0.13378
33.1921,16862.1543,-0.32074,-0.10105,-0.16738
33.2009,16862.1743,0.01279,-0.17252,-0.05315
33.2206,16862.1943,0.27302,0.08038,-0.03543
33.2409,16862.2143,0.10931,0.49943,-0.04459
33.2511,16862.2343,-0.26454,0.71446,-0.05254
33.2704,16862.2543,-0.36655,0.63993,-0.04582
33.2925,16862.2743,-0.08128,0.35588,-0.09468
33.3104,16862.2943,0.1087,0.19645,-0.14539
33.3324,16862.3142,0.02379,0.34977,-0.19792
33.3527,16862.3342,-0.11427,0.55686,-0.2303
33.3775,16862.3542,-0.12648,0.5202,-0.25901
33.3903,16862.3742,-0.06112,0.44873,-0.2303
33.4196,16862.3942,-0.06723,0.486,-0.23457
33.4342,16862.4142,-0.10633,0.48477,-0.25534
33.4527,16862.4342,-0.07578,0.38154,-0.24618
33.4775,16862.4542,0.01279,0.27402,-0.22297
33.4925,16862.4742,0.05555,0.16468,-0.19059
33.5108,16862.4942,-0.00798,0.17201,-0.1405
33.5326,16862.5142,-0.22911,0.26792,0.08002
33.5548,16862.5342,-0.56325,0.21721,0.23885
33.575,16862.5542,-0.72758,0.26303,0.22663
33.5972,16862.5742,-0.81737,0.51348,0.03176
33.6151,16862.5942,-0.90534,0.3681,-0.0562
33.6371,16862.6142,-0.87602,-0.11876,-0.01894
33.6579,16862.6342,-0.63717,-0.65449,-0.05742
33.6797,16862.6542,-0.20651,-0.88234,-0.24374
33.693,16862.6742,0.20705,-1.02162,-0.43738
33.7132,16862.6942,0.34266,-1.04728,-0.47953
33.7316,16862.7142,0.22965,-1.00452,-0.43249
33.7589,16862.7341,0.1704,-1.16945,-0.40073
33.7827,16862.7541,0.36465,-1.459,-0.37385
33.7996,16862.7741,0.54669,-1.70273,-0.43249
33.8198,16862.7941,0.66398,-1.94097,-0.42028
33.8331,16862.8141,0.91504,-1.71862,-0.27978
33.8521,16862.8341,1.10197,-1.37348,-0.09835
33.8726,16862.8541,0.98224,-0.86035,0.07758
33.8984,16862.8741,0.65848,-0.55431,0.21075
33.9123,16862.8941,0.46667,-0.80782,0.27245
33.9383,16862.9141,0.328,-0.97764,0.31582
33.9575,16862.9341,0.09465,-0.7846,0.3653
33.9735,16862.9541,-0.01531,-0.42053,0.30604
33.9967,16862.9741,0.10931,0.00952,0.21258
34.0146,16862.9941,0.2382,0.07,0.05986
34.0351,16863.0141,0.38847,-0.25621,-0.04887
34.059,16863.0341,0.34877,0.29907,-0.00977
34.0773,16863.0541,-0.49667,0.46339,-0.0953
34.0913,16863.0741,-0.73796,-0.087,-0.1631
34.1116,16863.0941,-0.13259,-0.64472,-0.29688
34.1396,16863.1141,0.58578,-0.84997,-0.34209
34.1581,16863.134,0.86251,-0.67159,-0.20342
34.1728,16863.154,0.68108,-0.55858,-0.05987
34.2049,16863.174,0.52287,-0.65938,0.04215
34.2181,16863.194,0.5302,-0.54881,0.03238
34.2372,16863.214,0.40558,-0.25804,0.09835
34.2527,16863.234,0.26508,0.00708,0.2022
34.2702,16863.254,-0.11182,0.31862,0.21808
34.2898,16863.274,-0.40504,0.09382,0.24923
34.3124,16863.294,-0.39527,0.01563,0.17226
34.3301,16863.314,-0.32929,0.0926,0.03176
34.3517,16863.334,-0.29631,0.23371,-0.02627
34.3888,16863.354,-0.08067,0.17018,0.12767
34.4059,16863.374,-0.0318,0.09932,0.02443
34.4182,16863.394,-0.03485,0.03884,-0.05254
34.438,16863.414,-0.04463,-0.00819,-0.02444
34.4517,16863.434,0.0244,-0.01553,0.01588
34.4745,16863.454,0.08732,0.06267,0.01771
34.498,16863.474,0.10809,0.13475,0.02504
34.5118,16863.494,0.08304,0.11764,0.09468
34.5327,16863.5141,0.04273,0.12253,0.13683
34.5526,16863.5341,-0.00798,0.12009,0.06781
34.5708,16863.5541,0.06166,0.13658,0.07391
34.6035,16863.5741,0.14963,0.17018,0.12584
34.6263,16863.5942,0.1539,0.13902,0.21197
34.6375,16863.6142,0.0861,0.12742,0.28894
34.6541,16863.6342,-0.0147,0.19095,0.42822
34.7002,16863.6543,-0.23583,0.41391,0.48747
34.7025,16863.6743,-0.49972,0.77921,0.45815
34.7124,16863.6943,-0.58708,1.16894,0.30726
34.7337,16863.7143,-0.72208,1.70284,0.2248
34.7539,16863.7344,-0.66099,1.90504,0.09468
34.7726,16863.7544,-0.63534,1.49698,0.00672
34.7938,16863.7744,-0.39099,1.48171,-0.13256
34.8135,16863.7945,-0.13809,1.22453,-0.13683
34.8319,16863.8145,-0.07517,1.11519,-0.09468
34.8554,16863.8345,-0.19307,0.90138,-0.1741
34.8713,16863.8545,-0.28897,0.54769,-0.20831
34.8919,16863.8746,-0.37083,0.5257,-0.20769
34.9129,16863.8946,-0.43192,0.74622,-0.20647
34.9313,16863.9146,-0.57975,0.66192,-0.15333
34.955,16863.9347,-0.70009,0.53548,-0.07575
34.9777,16863.9547,-0.72147,0.45057,-0.02138
35.0038,16863.9747,-0.48323,0.45301,-0.01405
35.0162,16863.9947,-0.15153,0.52143,-0.0898
35.0367,16864.0148,-0.03424,0.50982,-0.13073
35.0636,16864.0348,-0.20284,0.49943,-0.1179
35.0784,16864.0548,-0.45818,0.42918,-0.13683
35.095,16864.0748,-0.52904,0.56541,-0.07208
35.113,16864.0948,-0.61151,0.77677,0.08491
35.1376,16864.1148,-0.61762,0.59962,0.16371
35.1664,16864.1348,-0.37144,0.29479,0.08735
35.1761,16864.1548,-0.15642,0.21294,-0.08308
35.1944,16864.1748,-0.12587,0.24715,-0.16371
35.2279,16864.1948,-0.18268,0.22638,-0.20769
35.2352,16864.2148,-0.26698,0.14697,-0.18265
35.2519,16864.2348,-0.29692,0.07916,-0.146
35.2736,16864.2548,-0.3244,0.06022,-0.1405
35.2908,16864.2748,-0.38183,0.07061,-0.13745
35.3126,16864.2948,-0.24499,-0.01186,-0.14905
35.3337,16864.3148,-0.02997,-0.01186,-0.1576
35.3516,16864.3348,0.11053,-0.04546,-0.15211
35.3722,16864.3548,0.12092,-0.20917,-0.10079
35.3942,16864.3747,0.04028,-0.26842,-0.03054
35.416,16864.3947,0.01401,-0.26109,0.06353
35.4355,16864.4147,0.10076,-0.20489,0.13256
35.4555,16864.4347,0.18689,-0.12609,0.0562
35.4719,16864.4547,0.14413,-0.12243,0.01527
35.4926,16864.4747,0.07205,-0.16397,0.05803
35.5219,16864.4947,0.02257,-0.22811,0.08674
35.5385,16864.5147,0.07449,-0.12548,0.07391
35.5561,16864.5347,0.17284,0.03334,0.04826
35.5803,16864.5548,0.21927,0.08954,0.03299
35.5944,16864.5748,0.26936,0.08893,-0.00428
35.6133,16864.5948,0.23637,-0.00025,-0.03238
35.6355,16864.6149,0.12947,-0.0589,0.00489
35.6534,16864.6349,0.09892,-0.05462,0.03115
35.6752,16864.6549,0.07205,-0.04485,0.06903
35.6976,16864.6749,-0.01225,-0.01919,0.11057
35.7152,16864.695,-0.04524,0.03823,0.135
35.7395,16864.715,-0.06112,0.11948,0.12034
35.7611,16864.735,-0.12038,0.14574,0.09713
35.7802,16864.7551,-0.10999,0.11092,0.14111
35.7939,16864.7751,-0.07334,0.07061,0.15821
35.8149,16864.7951,-0.06112,0.05106,0.10873
35.8342,16864.8151,0.00424,0.03823,0.0788
35.8527,16864.8352,0.06472,0.04862,0.07269
35.8739,16864.8552,0.07632,0.07427,0.09957
35.893,16864.8752,0.0244,0.03395,0.10018
35.9145,16864.8953,-0.0037,0.02662,0.10018
35.9406,16864.9153,-0.01164,-0.01064,0.08857
35.9546,16864.9353,-0.05379,0.0083,0.05803
35.9723,16864.9553,-0.0544,0.02052,0.02382
35.9952,16864.9754,-0.03119,0.0254,0.02138
36.017,16864.9954,-0.00737,0.01441,0.02321
36.0367,16865.0154,0.06655,0.01746,0.01038
36.062,16865.0355,0.08365,0.02785,-0.00977
36.0737,16865.0555,0.03417,-0.01614,-0.02077
36.0941,16865.0755,-0.0428,-0.02896,-0.04154
36.1154,16865.0955,-0.05624,-0.02958,-0.03726
36.1349,16865.1156,0.00119,-0.03019,-0.02077
36.1519,16865.1356,0.07999,-0.06317,-0.02566
36.1729,16865.1556,0.11481,-0.11449,-0.0336
36.1997,16865.1756,0.12153,-0.13281,-0.0452
36.2193,16865.1955,0.1032,-0.10227,-0.04154
36.2369,16865.2155,0.05616,-0.0705,-0.02932
36.2532,16865.2355,0.04639,-0.07295,-0.01222
36.2715,16865.2555,0.09037,-0.08272,-0.00305
36.2962,16865.2755,0.09892,-0.11754,-0.00061
36.3145,16865.2955,0.10442,-0.18718,0.01344
36.3368,16865.3155,0.05616,-0.21406,-0.00977
36.356,16865.3355,-0.00614,-0.17924,-0.04643
36.3769,16865.3555,0.00302,-0.1322,-0.04215
36.3917,16865.3755,0.02868,-0.04362,-0.02993
36.4161,16865.3955,0.02379,0.04129,-0.0281
36.4338,16865.4155,-4e-05,0.05961,-0.04276
36.4538,16865.4355,-0.00859,0.05411,-0.06292
36.477,16865.4555,-0.00065,0.06389,-0.05192
36.494,16865.4755,0.00852,0.07794,-0.05498
36.5161,16865.4955,0.01768,0.10359,-0.05131
36.5385,16865.5155,0.01646,0.12192,-0.03543
36.5636,16865.5355,0.02501,0.09565,-0.03604
36.5869,16865.5555,0.03601,0.05595,-0.03177
36.5976,16865.5755,0.06288,0.05961,-0.0226
36.6163,16865.5954,0.08854,0.06755,-0.01161
36.634,16865.6154,0.07449,0.05656,0.00489
36.6636,16865.6354,0.01646,0.03701,-0.00061
36.6734,16865.6554,0.01096,0.04556,-0.0055
36.718,16865.6754,0.02012,0.01746,-0.00489
36.7202,16865.6954,0.03295,-0.00514,-0.00061
36.7349,16865.7154,0.01646,-0.02041,0.00733
36.7508,16865.7354,-0.02875,-0.01797,0.0055
36.7727,16865.7554,-0.05562,-0.00575,0.01955
36.7919,16865.7754,-0.04096,0.01685,0.04398
36.8143,16865.7954,-0.00859,0.02662,0.04276
36.8342,16865.8154,0.02562,0.02907,0.05253
36.8519,16865.8354,0.0299,0.01013,0.05253
36.874,16865.8554,-0.0208,0.03395,0.05437
36.8969,16865.8754,-0.03669,0.0419,0.05437
36.9207,16865.8954,0.00668,0.0761,0.03482
36.9364,16865.9154,0.058,0.04617,0.01649
36.9567,16865.9354,0.09282,0.03273,0.0171
36.9736,16865.9554,0.06777,0.01624,0.00122
36.994,16865.9754,0.00974,0.03273,0.00489
37.0207,16865.9954,-0.02142,0.01991,-0.00916
37.0421,16866.0153,-0.03058,0.01319,-0.03971
37.0522,16866.0353,-0.03547,0.00341,-0.03482
37.0826,16866.0553,-0.04219,0.00708,-0.0171
37.0931,16866.0753,-0.05379,0.01257,-0.03177
37.1128,16866.0954,-0.04157,0.00524,-0.0391
37.1347,16866.1154,-0.03424,-0.01186,-0.0226
37.168,16866.1354,-0.02569,0.0083,0.01283
37.1764,16866.1554,-0.03119,0.03701,0.01099
37.2161,16866.1755,-0.04219,0.04129,0.00122
37.2198,16866.1956,-0.06967,0.04617,0.07697
37.2396,16866.2156,-0.06295,0.00769,0.06536
37.256,16866.2357,-0.01958,0.00708,0.00611
37.277,16866.2558,0.02868,-0.06439,-0.07697
37.293,16866.2758,0.0696,-0.18535,-0.05498
37.3145,16866.2959,0.10931,-0.18412,-0.05192
37.3355,16866.3159,0.03539,-0.09555,-0.0788
37.3544,16866.336,-0.15031,-0.01858,-0.0617
37.3772,16866.3561,-0.23583,0.0645,-0.0562
37.3955,16866.3761,-0.14909,0.12436,-0.02932
37.415,16866.3962,-0.0147,0.1323,0.02932
37.4385,16866.4162,0.02745,0.09077,0.06231
37.4579,16866.4363,0.05555,-0.03385,0.03848
37.4746,16866.4564,0.09404,-0.11326,-0.04826
37.4965,16866.4764,0.10442,-0.06378,-0.07453
37.5144,16866.4965,0.18383,-0.04424,-0.04032
37.54,16866.5166,0.23087,-0.0589,0.01283
37.5599,16866.5366,0.17223,-0.04973,0.01222
37.5801,16866.5567,0.11236,-0.00025,0.00794
37.6049,16866.5767,0.08182,0.04373,-0
37.6217,16866.5968,0.06166,0.04617,0.00916
37.6431,16866.6169,0.06288,0.02357,0.01099
37.6567,16866.6369,0.058,-0.00575,0.01405
37.6756,16866.657,0.02929,0.00708,0.01771
37.6936,16866.6771,0.00119,0.00524,0.00061
37.7163,16866.6971,-0.01897,0.02052,0.00489
37.7396,16866.7171,0.01279,0.00769,-0.00977
37.7583,16866.7371,0.10992,-0.06562,-0.07025
37.7773,16866.7572,0.20827,-0.18718,-0.14416
37.7974,16866.7772,0.15574,-0.22505,-0.09468
37.8146,16866.7972,0.00974,-0.09738,0.01099
37.8362,16866.8171,-0.01042,0.0138,-0.00672
37.8588,16866.8371,-0.06418,0.07488,0.05009
37.8766,16866.8571,-0.20345,0.06694,0.15577
37.8959,16866.8771,-0.17902,-0.02713,0.09407
37.9156,16866.8971,-0.06295,-0.06745,-0.01283
37.9404,16866.9171,-0.00614,-0.03202,-0.0226
37.9567,16866.9371,-0.06601,0.02601,0.05437
37.9787,16866.9571,-0.11182,0.06755,0.0617
38.0038,16866.9771,-0.03547,0.07305,0.02993
38.015,16866.9971,0.05311,0.04312,0.02138
38.0361,16867.0171,0.06838,0.03395,0.02077
38.0551,16867.0371,0.09159,0.01196,-0.01772
38.0731,16867.0571,0.15574,0.00463,-0.10873
38.0955,16867.0771,0.16673,-0.01369,-0.12706
38.1149,16867.0971,0.11359,-0.01369,-0.07208
38.1356,16867.1171,0.00729,-0.01064,-0.00916
38.1606,16867.1371,-0.05196,0.02724,0.00183
38.1876,16867.1572,-0.0263,0.03945,-0.02688
38.1958,16867.1772,0.00729,0.04373,-0.03238
38.221,16867.1972,0.00852,0.0364,-0.02199
38.2342,16867.2173,0.04089,0.02846,-0.06658
38.2539,16867.2373,0.06105,0.00036,-0.08858
38.2758,16867.2573,0.07877,-0.01553,-0.05192
38.2942,16867.2773,0.10748,-0.00392,-0.05131
38.3223,16867.2974,0.1875,-0.03446,-0.08002
38.343,16867.3175,0.24492,-0.11632,-0.1124
38.3576,16867.3375,0.21377,-0.12426,-0.05376
38.3792,16867.3576,0.21804,-0.03141,-0.02321
38.3983,16867.3776,0.23026,0.05717,-0.01527
38.4213,16867.3977,0.20094,0.10482,0.00061
38.4439,16867.4178,0.15146,0.08405,-0.03787
38.4588,16867.4378,0.06777,0.08405,-0.03787
38.4783,16867.4579,-0.00553,0.05778,0.0336
38.5006,16867.478,-0.04219,0.10115,0.01283
38.5201,16867.498,-0.05135,0.0981,0.00977
38.5346,16867.5181,-0.01958,0.07,0.01588
38.555,16867.5381,0.00485,0.05411,0.01955
38.578,16867.5582,0.01951,0.08221,0.03054
38.6013,16867.5783,-0.0037,0.06389,0.03482
38.6164,16867.5984,-0.05746,0.0028,0.02321
38.6479,16867.6185,-0.10755,-0.01308,-0.00428
38.6623,16867.6385,-0.10572,-0.03019,-0.01405
38.7211,16867.6586,-0.0935,-0.01675,-0.02077
38.7229,16867.6787,-0.09167,0.01807,-0.02077
38.7248,16867.6988,-0.0654,0.02785,-0.00916
38.7367,16867.7189,-0.01409,0.01685,0.00489
38.7583,16867.739,0.03723,-0.04362,0.00366
38.7753,16867.759,0.01401,-0.03141,-0.00489
38.7945,16867.7791,0.01096,-0.01553,0.02504
38.82,16867.7991,-0.00737,-0.02896,0.01099
38.8381,16867.8192,-0.04829,-0.01675,-0.00733
38.855,16867.8393,-0.04952,-0.00331,0.00611
38.8784,16867.8593,-0.00187,-0.0198,0.0055
38.9025,16867.8794,0.02868,-0.04668,-0.00611
38.9175,16867.8994,0.01279,-0.04546,-0.01588
38.942,16867.9194,-0.01225,-0.01919,-0.00611
38.9564,16867.9395,-4e-05,-0.01064,-0.00244
38.9792,16867.9595,0.03723,-0.03324,-0.01344
38.9982,16867.9795,0.04273,-0.05401,-0.011
39.0189,16867.9996,0.00974,-0.03874,-0.01588
39.041,16868.0196,-0.03485,0.00097,-0.00977
39.0618,16868.0396,-0.03913,0.0028,0.00489
39.0823,16868.0597,-0.02264,0.00402,0.01161
39.1062,16868.0797,-0.01836,0.01074,0.02199
39.1262,16868.0998,-0.01531,0.00402,0.0226
39.1431,16868.1199,0.00424,-0.01308,0.01222
39.1611,16868.1399,0.0134,-0.0198,-0.01283
39.1874,16868.16,-0.02752,-0.0027,-0.01955
39.2104,16868.18,-0.02875,0.01624,0.00733
39.2165,16868.2001,0.00058,0.00402,0.01833
39.2392,16868.2201,-0.00187,0.00463,0.00366
39.2596,16868.2402,-0.03608,0.00219,-0.00855
39.2799,16868.2603,-0.03852,0.00097,-0.00855
39.3002,16868.2803,-0.01286,-0.00758,-0.00367
39.3192,16868.3004,0.01829,-0.00086,-0.00061
39.344,16868.3204,0.03601,-0.0027,-0.00611
39.362,16868.3405,0.04089,0.00219,-0.0055
39.3802,16868.3606,0.04761,0.02601,-0.00855
39.3988,16868.3806,0.04028,0.02418,-0.011
39.423,16868.4007,-0.00675,0.01685,-0.00244
39.4403,16868.4208,-0.01225,0.01074,0.00611
39.4588,16868.4408,0.00058,-0.01858,0.00122
39.4811,16868.4609,-0.01592,-0.01736,0.00489
39.504,16868.4809,-0.01958,0.01624,0.00733
39.5293,16868.501,-0.01958,0.02174,0.00855
39.5528,16868.5211,-0.00126,0.01685,0.00977
39.5665,16868.5411,0.02134,0.02235,0.00977
39.5809,16868.5612,0.02745,0.03457,0.01466
39.5997,16868.5812,-0.01103,0.01807,0.0171
39.619,16868.6013,-0.05257,0.00341,0.00611
39.6396,16868.6214,-0.04768,0.00952,0.00733
39.6627,16868.6414,-0.02142,0.01441,0.01833
39.6823,16868.6615,0.01035,0.02968,0.02321
39.7035,16868.6815,0.01096,0.03029,0.02627
39.7219,16868.7015,-0.00798,0.00097,0.00977
39.7415,16868.7215,-0.0208,-0.02041,0.00305
39.7676,16868.7416,-0.03547,0.00952,0.01099
39.7851,16868.7616,-0.04585,0.03884,0.0171
39.8003,16868.7816,-0.06051,0.03273,0.01283
39.8182,16868.8017,-0.03547,0.00036,0.01161
39.8402,16868.8217,-0.00309,-0.01247,0.01833
39.8628,16868.8417,-0.01042,0.00952,0.01894
39.8823,16868.8616,-0.02386,0.02357,0.02932
39.9072,16868.8816,-0.01164,0.01074,0.02871
39.9228,16868.9016,0.01218,0.00769,0.03299
39.9475,16868.9216,0.0134,-0.00086,0.0336
39.9633,16868.9416,-0.01225,0.03029,0.01466
39.9813,16868.9616,-0.03363,0.03029,-0.00183
40.0089,16868.9816,-0.04829,-0.00453,0.00183
40.0268,16869.0016,-0.05135,-0.02652,0.01222
40.0384,16869.0216,-0.0428,-0.01064,0.00122
40.0602,16869.0416,-0.02875,-0.00148,0.00183
40.0859,16869.0616,-0.01775,-0.00575,0.02443
40.099,16869.0816,0.00668,0.0083,0.02382
40.1211,16869.1016,0.03051,-0.00025,0.00489
40.1441,16869.1216,0.02623,-0.0198,0.01527
40.1571,16869.1416,-0.00431,0.00463,0.02627
40.1825,16869.1616,-0.0263,0.02052,0.00489
40.2087,16869.1816,0.00363,0.01685,-0.00244
40.2351,16869.2016,0.03967,0.00524,0.00733
40.2473,16869.2216,0.02806,0.0138,0.01283
40.2631,16869.2416,-0.0147,0.00708,0.01527
40.2837,16869.2616,-0.02997,0.00952,0.01833
40.308,16869.2815,0.00852,0.01746,0.01466
40.3202,16869.3015,0.02379,0.00036,0.01038
40.3398,16869.3215,0.00607,0.01319,0.01771
40.3596,16869.3415,-0.00553,0.02357,0.01405
40.3836,16869.3615,0.00363,0.01074,0.01038
40.3985,16869.3815,0.01096,-0.00575,0.00428
40.4172,16869.4015,0.00791,-0.00636,-0.00367
40.4402,16869.4215,0.00241,0.01319,0.00611
40.4638,16869.4415,-0.00981,0.00586,0.00794
40.4783,16869.4615,-0.01897,-0.00881,-0
40.5002,16869.4815,0.0018,0.00891,-0.01222
40.5226,16869.5015,0.00424,0.00158,-0.00916
40.5526,16869.5215,-0.02019,-0.00148,0.00305
40.57,16869.5415,-0.03974,0.00341,0.00305
40.5826,16869.5615,-0.04463,-0.00881,0.00305
40.6065,16869.5815,-0.03547,-0.02224,-0.00367
40.636,16869.6015,-0.02325,-0.0253,-0.00733
40.6439,16869.6215,-0.02325,-0.0198,-0
40.6718,16869.6415,-0.01836,-0.00758,-0.00061
40.6833,16869.6615,-0.01103,-0.00392,-0.00733
40.7139,16869.6814,0.00791,-0.00942,-0.01161
40.7173,16869.7014,0.01218,-0.02102,-0.00855
40.7389,16869.7214,-4e-05,0.01196,-0
40.7589,16869.7414,0.00424,0.01807,0.00733
40.7772,16869.7614,0.05067,0.00341,0.01588
40.8009,16869.7814,0.06411,0.00219,0.00489
40.8202,16869.8015,0.01646,0.0083,0.01222
40.8387,16869.8215,-0.02142,0.01196,0.01833
40.861,16869.8415,-0.03363,0.00524,0.00916
40.8784,16869.8615,-0.01409,0.00036,0.00061
40.8989,16869.8816,0.0134,-0.00025,0.01038
40.921,16869.9016,0.01096,0.00158,0.01405
40.9399,16869.9216,0.0018,0.02968,0.00366
40.9603,16869.9417,0.02257,0.00463,-0.00122
40.9855,16869.9617,0.01707,-0.01797,0.00611
41.0048,16869.9817,-0.00614,0.0028,0.00122
41.0208,16870.0018,-0.02142,0.02662,0.01099
41.0426,16870.0219,-0.00065,0.02235,0.02016
41.0642,16870.0419,0.02806,-0.00514,0.02138
41.0884,16870.062,-0.01286,-0.03385,0.03054
41.109,16870.0821,-0.02019,-0.03385,0.04765
41.1214,16870.1021,0.0189,-0.00942,0.05376
41.1439,16870.1222,0.03112,-0.00636,0.05314
41.1623,16870.1422,-0.01225,-0.02163,0.05376
41.1816,16870.1623,-0.06295,0.02724,0.05314
41.2006,16870.1824,-0.06845,0.07122,0.0507
41.2232,16870.2024,-0.03547,0.07122,0.04398
41.2466,16870.2225,-0.01653,0.07672,0.04643
41.2687,16870.2425,-0.01775,0.11031,0.04459
41.2864,16870.2626,-0.01409,0.09993,0.05559
41.3018,16870.2827,-0.00065,0.05656,0.06231
41.3212,16870.3027,0.02501,0.03151,0.0617
41.3449,16870.3228,0.03295,0.04373,0.05803
41.3651,16870.3429,0.04089,0.05472,0.05742
41.3871,16870.3629,0.03662,0.06633,0.05192
41.4034,16870.383,0.04822,0.0645,0.04154
41.4298,16870.403,0.05922,0.03029,0.04459
41.442,16870.423,0.03845,-0.00758,0.04398
41.4642,16870.4431,0.00668,-0.00392,0.03909
41.4806,16870.4631,0.03539,0.00647,0.02077
41.5097,16870.4831,0.03234,-0.01675,-0.01894
41.5236,16870.5031,-0.01409,-0.00025,-0.05315
41.5489,16870.5232,-0.01836,0.03518,-0.06475
41.5626,16870.5432,-0.0318,0.05106,-0.07941
41.5819,16870.5632,-0.08495,0.06267,-0.11362
41.603,16870.5832,-0.10999,0.06816,-0.12401
41.6233,16870.6032,-0.06845,0.05778,-0.09041
41.6507,16870.6232,-0.01531,0.03884,-0.05131
41.6598,16870.6432,-0.04585,0.0254,-0.01405
41.6836,16870.6632,-0.11243,-0.01247,0.0226
41.7032,16870.6832,-0.15153,-0.04179,0.04398
41.7206,16870.7032,-0.11121,-0.03507,0.07086
41.7407,16870.7232,-0.02325,-0.03446,0.08308
41.7627,16870.7432,0.06716,-0.02774,0.0507
41.7813,16870.7632,0.07693,-0.03446,-0.00428
41.8027,16870.7832,0.04883,-0.02408,-0.0336
41.8249,16870.8033,0.03295,-0.01491,-0.06353
41.843,16870.8233,0.02318,-0.02652,-0.09102
41.8636,16870.8433,0.01768,-0.04057,-0.10935
41.8906,16870.8634,0.02012,-0.02958,-0.10385
41.9019,16870.8834,0.01463,0.00341,-0.08674
41.9219,16870.9034,0.00119,-0.00758,-0.08002
41.9466,16870.9234,-0.01286,-0.03202,-0.07453
41.9665,16870.9435,-0.01164,-0.03691,-0.04276
41.9866,16870.9635,-0.03485,-0.0198,-0.02077
42.0143,16870.9835,-0.08067,-0.01614,-0.0171
42.0234,16871.0036,-0.10266,-0.00942,-0.01588
42.0435,16871.0236,-0.06357,-0.00514,0.00244
42.0694,16871.0436,-0.0147,-0.03263,0.01099
42.0848,16871.0636,-0.02203,-0.04179,0.01588
42.102,16871.0837,-0.04157,-0.02163,0.00733
42.1384,16871.1037,-0.05685,0.02235,0.00611
42.1511,16871.1237,-0.04768,-0.00575,-0.00244
42.1696,16871.1438,-0.00981,-0.01308,-0.00367
42.1904,16871.1638,0.02806,-0.0027,0.00244
42.2045,16871.1838,0.0299,0.01685,0.00733
42.2211,16871.2038,0.02745,0.0138,-0.00122
42.2443,16871.2239,0.03112,-0.00209,-0.00489
42.2612,16871.2439,0.03295,0.00097,-0.00428
42.2965,16871.2639,0.00729,0.00341,-0.00244
42.3106,16871.284,-0.01225,0.01074,0.00977
42.3238,16871.304,-0.00065,-0.00881,-0.00061
42.3521,16871.324,0.0189,-0.02102,-0.00244
42.3648,16871.344,-0.00126,-0.00881,0.00611
42.3848,16871.364,-0.0208,0.01624,0.00977
42.405,16871.384,0.01096,0.01074,0.01099
42.4222,16871.404,0.02134,-0.0253,0.01222
42.4468,16871.424,0.01157,-0.01247,0.01955
42.4604,16871.444,0.00791,0.01807,0.02566
42.4855,16871.464,-0.00737,0.00586,0.02627
42.5023,16871.484,-0.00859,-0.02102,0.00489
42.5217,16871.504,-0.0092,-0.02713,-0.00367
42.5466,16871.524,-0.00065,-0.02286,0.00061
42.5678,16871.544,0.00363,-0.00697,-0.00611
42.5903,16871.564,0.00058,-0.00514,-0.00428
42.6103,16871.584,-0.00126,-0.03629,-0.00733
42.6226,16871.604,0.01096,-0.03935,-0.01649
42.6414,16871.624,0.01279,-0.01919,-0.02932
42.6633,16871.644,0.00424,-0.01553,-0.01833
42.6842,16871.664,-4e-05,-0.02958,-0.01894
42.7269,16871.684,0.0134,-0.02469,-0.02505
42.7296,16871.7041,0.00424,-0.0143,-0.03604
42.7428,16871.7241,0.00363,-0.02163,-0.02138
42.7601,16871.7441,0.01463,-0.04301,-0.00733
42.7816,16871.7641,0.00974,-0.02286,-0.00855
42.8063,16871.7842,-0.03424,-0.01369,-0.00672
42.8208,16871.8042,-0.03241,-0.00514,-0.00794
42.8423,16871.8242,0.01463,-0.00086,0.00428
42.8608,16871.8443,0.03234,0.01991,0.01527
42.8811,16871.8643,0.01646,0.03457,0.01527
42.9042,16871.8843,0.0134,0.01196,-0.00489
42.9269,16871.9043,0.03723,-0.00514,-0.00733
42.9436,16871.9244,0.0415,0.00097,0.00916
42.9644,16871.9444,0.02379,0.01807,0.01588
42.9863,16871.9644,-0.00126,0.02174,-0
43.0089,16871.9845,-0.01775,-0.00086,-0.01833
43.025,16872.0045,0.00791,-0.00209,-0.01161
43.0426,16872.0245,0.04089,0.01074,-0.00611
43.0651,16872.0445,0.03234,0.00341,-0.01527
43.0951,16872.0646,-4e-05,0.00097,-0.02382
43.1067,16872.0846,-0.02814,0.0138,-0.01466
43.1221,16872.1046,-0.02814,0.00036,-0.00977
43.1445,16872.1247,0.01401,-0.01736,-0.00855
43.1662,16872.1447,0.03967,-0.00331,-0
43.1867,16872.1647,0.01829,0.03457,-0.00611
43.2125,16872.1847,0.00668,0.02296,-0.01283
43.2237,16872.2048,0.01707,0.00036,-0.02688
43.2454,16872.2248,0.03234,0.0138,-0.0226
43.2657,16872.2448,0.0299,0.02907,-0.01894
43.2868,16872.2648,0.0189,0.02724,-0.00977
43.3071,16872.2848,0.00241,-0.00148,-0.00794
43.3263,16872.3048,-0.00981,-0.00514,-0.01527
43.3433,16872.3248,-0.01347,-0.00942,-0.00489
43.3616,16872.3448,-0.01531,-0.0253,-0.00428
43.3842,16872.3648,-0.00492,-0.00697,-0.0055
43.4042,16872.3848,0.02684,0.00219,-0.00061
43.423,16872.4048,0.0189,-0.00148,-0.00244
43.4459,16872.4248,0.00363,-0.01919,-0.00672
43.4621,16872.4448,-0.00065,-0.0308,-0.00733
43.4819,16872.4648,-0.01103,-0.04546,-0.00733
43.5045,16872.4848,-0.03302,-0.03385,-0.02688
43.5296,16872.5048,0.00729,-0.01736,-0.03115
43.5423,16872.5248,0.06594,-0.03263,-0.02321
43.5638,16872.5448,0.058,-0.0479,-0.00672
43.5845,16872.5647,0.0189,-0.08272,0.00916
43.6004,16872.5847,-0.00981,-0.09127,0.00611
43.6244,16872.6047,0.00546,-0.03874,0.01161
43.6462,16872.6247,0.04273,0.0138,0.03238
43.6674,16872.6447,0.07938,0.01563,0.03726
43.6875,16872.6647,0.08182,-0.01553,0.02504
43.7006,16872.6847,0.0415,-0.00758,0.01649
43.7223,16872.7047,0.00302,0.02113,0.02199
43.7423,16872.7247,0.01707,0.04495,0.03543
43.7634,16872.7447,0.04273,0.03701,0.02627
43.7809,16872.7647,-0.01042,0.0254,-0.00367
43.8035,16872.7847,-0.07028,0.04495,-0.00672
43.8221,16872.8047,-0.05257,0.08221,0.00489
43.8502,16872.8247,-0.02997,0.08649,0.01038
43.8714,16872.8447,-0.01164,0.08038,0.0171
43.8823,16872.8647,-0.00981,0.07488,0.02077
43.9025,16872.8847,-0.02508,0.10176,0.03665
43.9235,16872.9047,0.00058,0.12681,0.06048
43.9426,16872.9247,0.09892,0.10909,0.06414
43.9647,16872.9447,0.09404,0.06755,0.03054
43.9839,16872.9646,0.00119,0.06328,-0.00611
44.0116,16872.9846,-0.02508,0.10848,-0.00855
44.0347,16873.0046,0.01035,0.1042,0.00122
44.044,16873.0246,0.02745,0.04434,-0.02566
44.0631,16873.0446,-0.01531,-0.00697,-0.03787
44.0817,16873.0646,-0.0318,-0.02958,-0.0055
44.1034,16873.0846,0.01218,-0.02774,0.05803
44.1223,16873.1046,0.04395,-0.0479,0.08308
44.142,16873.1246,0.0415,-0.087,0.08857
44.1716,16873.1446,0.0189,-0.13159,0.07819
44.1881,16873.1646,0.01157,-0.11082,0.0617
44.2164,16873.1846,0.04761,-0.08028,0.04704
44.2316,16873.2047,0.07388,-0.10288,0.02993
44.2448,16873.2247,0.0134,-0.10838,-0.00733
44.2639,16873.2447,-0.03852,-0.04546,-0.02138
44.2842,16873.2647,-0.05257,-0.00636,-0.02077
44.3094,16873.2848,-0.03119,0.00952,-0.01649
44.3239,16873.3048,-0.00675,0.02418,-0.00305
44.3483,16873.3248,-0.00798,0.04495,0.00916
44.3646,16873.3449,-0.01775,0.06083,0.02993
44.3826,16873.3649,-0.01042,0.07427,0.04398
44.4037,16873.3849,0.02562,0.07183,0.04093
44.4341,16873.4049,0.04822,0.06511,0.03115
44.4493,16873.425,0.00607,0.04556,0.02932
44.4666,16873.445,-0.05501,0.04006,0.02871
44.4827,16873.465,-0.06906,0.04006,0.01405
44.5021,16873.4851,-0.01653,-0.01369,-0.00061
44.5246,16873.5051,0.00485,-0.05218,0.00366
44.5466,16873.5251,-0.05501,0.02846,0.01466
44.5686,16873.5451,-0.10694,0.03334,0.00794
44.5867,16873.5652,-0.13015,-0.0424,0.01099
44.61,16873.5852,-0.09961,-0.01736,0.02993
44.6269,16873.6052,-0.05318,0.03945,0.09529
44.653,16873.6253,-0.0092,0.05595,0.1405
44.6705,16873.6453,0.04578,0.03457,0.14477
44.7007,16873.6653,0.12031,0.0254,0.11423
44.7035,16873.6853,0.15757,0.03884,0.0843
44.721,16873.7054,0.09404,0.06022,0.05437
44.7426,16873.7254,0.00607,0.06694,0.01099
44.7621,16873.7454,-0.0263,0.04739,-0.02749
44.781,16873.7654,-0.0373,0.01441,-0.05803
44.8039,16873.7854,-0.06967,0.01441,-0.07575
44.8249,16873.8054,-0.10327,0.01196,-0.05681
44.8439,16873.8254,-0.08495,0.00463,-0.01588
44.8631,16873.8454,-0.03669,0.01991,0.01222
44.8873,16873.8654,-0.00065,0.01319,0.01527
44.9045,16873.8854,0.03112,-0.01736,0.01649
44.9225,16873.9054,0.05616,-0.01369,0.02688
44.9481,16873.9254,0.06899,-0.01308,0.01222
44.9635,16873.9454,0.06349,-0.02835,-0.02077
44.9848,16873.9654,0.03417,-0.07234,-0.05925
45.0057,16873.9854,-0.00187,-0.08333,-0.07819
45.0226,16874.0054,-0.00981,-0.07111,-0.08552
45.0442,16874.0254,0.01096,-0.05829,-0.0733
45.0685,16874.0454,-0.00553,-0.05584,-0.06964
45.0913,16874.0654,-0.03485,-0.04851,-0.06536
45.1038,16874.0854,-0.03791,-0.05034,-0.05987
45.1247,16874.1054,-0.03302,-0.04851,-0.03054
45.1451,16874.1254,-0.03974,-0.02224,-0.01527
45.1657,16874.1454,-0.03974,-0.00942,-0.00244
45.1883,16874.1653,-0.02142,-0.01553,-0.01161
45.2067,16874.1853,0.00729,0.00341,-0.00428
45.225,16874.2053,0.03845,0.01563,0.02016
45.2481,16874.2253,0.04822,0.01319,0.02504
45.267,16874.2453,0.04334,0.01991,0.00244
45.2876,16874.2653,0.02501,0.03029,-0.00244
45.3084,16874.2853,0.01585,0.02601,-0.00305
45.3231,16874.3053,0.03723,0.01807,-0.01649
45.3464,16874.3253,0.05678,0.01319,-0.02749
45.3651,16874.3453,-0.01775,0.00097,-0.03115
45.3832,16874.3653,-0.088,-0.02041,-0.01772
45.4027,16874.3853,-0.06357,-0.00453,-0.00489
45.4234,16874.4053,0.01157,-0.00392,-0.00183
45.444,16874.4253,0.02929,-0.00025,0.00244
45.4637,16874.4453,-4e-05,0.00586,-0.00183
45.4865,16874.4653,-0.02325,-0.00453,-0.01833
45.5067,16874.4853,-0.04585,-0.01064,-0.03787
45.5326,16874.5053,-0.04707,-0.03324,-0.06292
45.5602,16874.5253,-0.0599,-0.05767,-0.08063
45.5641,16874.5453,-0.06723,-0.06317,-0.08491
45.5863,16874.5653,-0.07334,-0.03141,-0.0843
45.609,16874.5852,-0.08739,-0.03141,-0.08919
45.6231,16874.6052,-0.06906,-0.03752,-0.1014
45.6554,16874.6252,-0.00859,-0.04179,-0.10263
45.674,16874.6452,0.02806,-0.03752,-0.11423
45.6822,16874.6652,0.02073,-0.0424,-0.13439
45.7013,16874.6852,-0.01409,-0.05279,-0.13989
45.7229,16874.7052,-0.00187,-0.06867,-0.14661
45.741,16874.7252,0.01524,-0.05706,-0.12828
45.7615,16874.7452,0.01401,-0.03874,-0.12645
45.7857,16874.7652,0.01707,-0.05523,-0.11301
45.8003,16874.7852,-0.0147,-0.04851,-0.09224
45.8211,16874.8052,-0.0709,-0.01247,-0.06781
45.8524,16874.8252,-0.08922,0.02479,-0.03787
45.8657,16874.8452,-0.06662,0.06083,-0.01222
45.8822,16874.8652,-0.03608,0.07916,0.01955
45.9103,16874.8852,-0.02264,0.05472,0.04643
45.9279,16874.9052,-0.02447,0.05717,0.07697
45.9512,16874.9252,-0.03974,0.0816,0.07941
45.9703,16874.9452,-0.06234,0.07305,0.07086
45.983,16874.9652,-0.06051,0.02174,0.06353
46.0031,16874.9852,-0.01958,0.01929,0.05498
46.026,16875.0052,0.02806,0.01685,0.04093
46.0436,16875.0251,0.03173,-0.00942,0.02321
46.0639,16875.0451,0.0189,-0.03935,-0.00183
46.0864,16875.0651,0.00791,-0.07783,-0.0391
46.1098,16875.0851,-0.03791,-0.03691,-0.07575
46.1258,16875.1051,-0.06784,-0.00575,-0.09041
46.1493,16875.1251,-0.08189,-0.01919,-0.09041
46.1701,16875.1451,-0.10022,-0.0253,-0.09224
46.1838,16875.1651,-0.09838,-0.01797,-0.07086
46.2071,16875.1851,-0.10572,-0.00819,-0.04826
46.2232,16875.2051,-0.09167,0.00097,-0.02932
46.2517,16875.2251,-0.05135,-0.00575,-0.00733
46.2649,16875.2451,0.00729,-0.0027,0.01894
46.2831,16875.2651,0.03173,0.00769,0.02993
46.3021,16875.2851,0.03845,0.01013,0.03848
46.323,16875.3051,0.05128,0.01196,0.03665
46.3444,16875.3251,0.06349,0.01257,0.03665
46.367,16875.3451,0.0696,-0.00086,0.04032
46.3943,16875.3651,0.06044,-0.00942,0.05314
46.4103,16875.3851,0.05494,0.00036,0.04459
46.4318,16875.4051,0.058,-0.01919,0.03482
46.4475,16875.425,0.01096,-0.01736,0.02993
46.4619,16875.445,-0.04219,0.00402,0.03421
46.4823,16875.465,-0.0373,-0.01919,0.03238
46.5041,16875.485,-0.04646,-0.03385,0.02382
46.5273,16875.505,-0.04952,-0.01064,0.02504
46.5471,16875.525,-0.02814,0.00097,0.05192
46.5673,16875.545,0.00852,0.00463,0.06658
46.5839,16875.565,0.03173,0.01868,0.06842
46.6058,16875.585,0.03356,0.02113,0.06475
46.6236,16875.605,0.03662,0.04067,0.06964
46.6733,16875.625,0.02257,0.03151,0.07269
46.6755,16875.645,-0.00126,0.01746,0.06414
46.6878,16875.665,-0.02203,0.01135,0.05986
46.7027,16875.685,-0.01714,0.01868,0.05925
46.7436,16875.7051,0.00791,0.02601,0.05681
46.7535,16875.7251,-0.00126,0.02479,0.06536
46.7614,16875.7451,-0.01409,-0.00881,0.05681
46.7811,16875.7651,-0.01347,-0.02224,0.03909
46.8034,16875.7852,-0.01897,-0.00086,0.01771
46.8261,16875.8052,-0.02447,-0.00942,0.01099
46.8426,16875.8252,-0.00981,-0.0143,-0.01527
46.8632,16875.8453,0.00424,-0.00636,-0.0452
46.8839,16875.8653,-0.00675,-0.00453,-0.06231
46.9074,16875.8853,-0.04035,-0.02591,-0.06658
46.9247,16875.9053,-0.05562,-0.02958,-0.06536
46.9454,16875.9254,-0.02875,-0.0198,-0.04887
46.9629,16875.9454,-0.00798,-0.03324,-0.02444
46.99,16875.9654,0.00546,-0.03324,-0.01039
47.0089,16875.9855,0.01829,-0.03935,0.00122
47.0285,16876.0055,0.02073,-0.03507,-0.00489
47.0518,16876.0255,-0.00798,-0.01308,0.00672
47.0668,16876.0455,-0.03363,-0.00331,0.00916
47.0989,16876.0656,-0.00737,-0.00942,0.01344
47.1197,16876.0856,0.02684,0.00402,0.01222
47.1257,16876.1056,0.02379,0.01807,0.0055
47.1441,16876.1256,-0.00431,0.00952,-0.00122
47.1651,16876.1457,-0.01409,-0.01125,-0.00122
47.1837,16876.1657,0.00485,-0.00148,0.00428
47.2131,16876.1857,0.02501,0.00097,-0.00183
47.2322,16876.2058,0.00668,0.00586,-0.01161
47.2423,16876.2258,-0.0208,0.00708,-0.00794
47.2698,16876.2458,-0.00431,0.0028,-0.00183
47.2881,16876.2658,0.02684,-0.00025,0.00611
47.3043,16876.2858,0.0299,0.01868,0.00366
47.3223,16876.3058,-0.00309,0.01868,0.0055
47.3491,16876.3258,-0.0147,-0.00025,0.00977
47.365,16876.3458,0.00974,0.00586,0.01466
47.3826,16876.3658,0.0189,0.0138,0.01833
47.4094,16876.3858,0.01646,0.01624,0.01955
47.4241,16876.4058,0.00791,0.02846,0.02138
47.4437,16876.4258,0.00485,0.03273,0.01649
47.4677,16876.4458,-0.00431,-0.00086,0.00794
47.4848,16876.4658,-0.01653,-0.01125,0.01527
47.5046,16876.4858,-0.0208,0.02235,0.03482
47.5252,16876.5058,-0.01164,0.02846,0.02749
47.5467,16876.5258,0.02257,0.00402,0.02871
47.5669,16876.5458,0.02745,0.00586,0.01649
47.5888,16876.5658,0.00668,0.02235,0.00794
47.6211,16876.5858,-0.0147,0.0138,0.00489
47.6322,16876.6058,0.00241,0.01319,-0.01466
47.665,16876.6258,-4e-05,0.01563,-0.03238
47.668,16876.6457,-0.0037,0.01013,-0.03604
47.6827,16876.6657,0.00852,0.00647,-0.02993
47.705,16876.6858,0.0018,0.01991,-0.0336
47.7242,16876.7058,-0.01714,0.01013,-0.04093
47.7449,16876.7258,-0.03608,-0.01614,-0.03604
47.7648,16876.7459,-0.03058,-0.01003,-0.0281
47.7845,16876.7659,-0.08617,0.02235,-0.03177
47.8041,16876.7859,-0.16619,0.0645,-0.04765
47.8255,16876.8059,-0.18757,0.12986,-0.04765
47.8472,16876.826,-0.14298,0.12864,-0.01161
47.8649,16876.846,-0.01958,0.05289,-0.02382
47.8867,16876.866,0.0861,-0.00881,-0.0281
47.9055,16876.8861,0.08732,-0.01614,-0.00916
47.9286,16876.9061,0.02745,0.00524,0.00366
47.9497,16876.9261,0.00852,-0.00697,0.01099
47.9683,16876.9461,0.03295,-0.02713,0.01099
47.9877,16876.9662,0.03906,-0.02408,0.00183
48.0113,16876.9862,0.01768,-0.0308,-0.0171
48.0249,16877.0062,-0.0092,-0.04362,-0.03238
48.0444,16877.0263,-0.00798,-0.02713,-0.03971
48.066,16877.0463,-0.01225,-0.00025,-0.05376
48.0848,16877.0663,-0.01286,-0.00881,-0.05192
48.1066,16877.0863,0.01157,-0.00453,-0.03543
48.1312,16877.1064,0.01585,-0.00942,-0.03054
48.1462,16877.1265,0.00058,-0.02896,-0.0055
48.1692,16877.1465,0.00058,-0.04179,0.00489
48.1877,16877.1666,-0.00859,-0.07417,0.00733
48.2101,16877.1867,0.04761,-0.18107,0.01649
48.2285,16877.2067,0.10931,-0.2165,-0.0055
48.2497,16877.2268,0.12275,-0.18779,-0.02566
48.2641,16877.2468,0.06777,-0.14992,-0.01955
48.2838,16877.2669,0.00119,-0.10105,-0.011
48.306,16877.2869,-0.00737,-0.08883,-0.02016
48.3283,16877.307,0.058,-0.11143,-0.02199
48.3491,16877.327,0.11664,-0.13831,-0.0171
48.3659,16877.347,0.10442,-0.12792,-0.02627
48.386,16877.367,0.05006,-0.06623,-0.03054
48.4052,16877.3871,0.00058,-0.00148,-0.02138
48.4262,16877.4071,0.01096,0.02113,-0.01588
48.4456,16877.4271,0.03417,-0.0027,-0.01833
48.464,16877.4472,0.02012,-0.02591,-0.02932
48.4885,16877.4672,0.00791,-0.01003,-0.02749
48.5069,16877.4872,0.01829,-0.00025,-0.01039
48.5248,16877.5072,0.00424,0.00097,-0.00855
48.5457,16877.5273,-0.00859,-0.01736,-0.00672
48.5654,16877.5473,-0.01286,-0.03141,-0.00489
48.5855,16877.5673,-0.02997,-0.00392,-0.00672
48.6094,16877.5874,-0.02019,0.00708,-0.01344
48.6299,16877.6074,-0.00248,-0.00697,-0.01955
48.6462,16877.6274,0.00058,0.00524,-0.03177
48.6763,16877.6474,-0.01164,0.0254,-0.03177
48.6908,16877.6675,-0.01897,-0.00209,-0.03238
48.7367,16877.6875,-0.01958,-0.00575,-0.03054
48.7383,16877.7075,-0.00492,0.01319,-0.02566
48.751,16877.7275,0.00974,0.00219,-0.01039
48.7638,16877.7475,0.00302,-0.01614,-0.0055
48.7837,16877.7675,-0.00798,-0.01308,-0.00794
48.8051,16877.7875,0.0018,0.00036,-0.00794
48.8244,16877.8075,0.01401,0.00341,-0.0055
48.8465,16877.8275,0.01279,0.00158,-0.00855
48.8641,16877.8475,0.00119,0.00341,-0.01466
48.8847,16877.8674,-0.00065,0.00341,-0.01222
48.9127,16877.8874,-0.02447,0.01135,-0.00672
48.9271,16877.9074,-0.03424,0.01257,0.00366
48.9484,16877.9274,-0.00675,0.02357,0.01649
48.9664,16877.9474,0.01218,0.03334,0.01894
48.9848,16877.9674,0.00668,0.03151,0.01283
49.0138,16877.9874,-0.00981,0.02724,-0.00122
49.0338,16878.0074,0.00607,0.03579,-0
49.053,16878.0274,0.05067,0.04251,-0.00305
49.0646,16878.0474,0.04822,0.03151,-0.01344
49.0871,16878.0674,0.02134,0.02357,-0.02444
49.1082,16878.0874,-0.02019,0.01807,-0.00428
49.1251,16878.1074,-0.02936,0.01624,0.01894
49.1487,16878.1274,-0.00859,0.00769,0.03726
49.1674,16878.1474,0.03173,-0.01003,0.0507
49.1864,16878.1674,0.03601,-0.01003,0.05986
49.2071,16878.1874,0.00913,-0.00636,0.04459
49.2252,16878.2074,-0.00798,0.00341,0.0171
49.2728,16878.2274,0.02623,0.01624,0.00489
49.2806,16878.2474,0.03723,0.01807,-0.00305
49.288,16878.2674,0.02073,0.01502,-0.0171
49.3108,16878.2873,-0.01347,0.00463,-0.03421
49.3288,16878.3073,-0.03424,0.00769,-0.03421
49.3436,16878.3273,-0.02508,0.01624,-0.01222
49.3639,16878.3473,-0.01225,-0.00575,-0.00367
49.3896,16878.3673,-0.00614,-0.02591,-0.00611
49.4089,16878.3873,-0.02569,-0.01186,0.00183
49.4324,16878.4073,-0.03669,0.00952,0.02566
49.4467,16878.4273,-0.01775,0.02846,0.03971
49.4648,16878.4473,0.00058,0.00891,0.04704
49.4878,16878.4673,0.02684,-0.01247,0.03604
49.5102,16878.4873,0.02257,0.00219,0.02321
49.5262,16878.5073,-0.00798,0.00708,0.02321
49.5476,16878.5273,-4e-05,-0.00392,0.03482
49.5661,16878.5473,0.01829,-0.01369,0.02566
49.585,16878.5673,0.00424,-0.02835,0.01222
49.6062,16878.5873,-0.01897,-0.01003,0.00916
49.6319,16878.6073,-0.00065,0.00524,0.01099
49.6436,16878.6273,0.03539,-0.00575,0.00366
49.6685,16878.6473,0.03112,-0.01125,-0.00489
49.6887,16878.6673,-0.00614,-0.00819,-0.00794
49.7037,16878.6872,-0.03547,0.00891,-0.00611
49.7229,16878.7072,-0.01836,-0.00209,0.00244
49.7453,16878.7272,0.00241,-0.01369,0.01344
49.7633,16878.7472,0.00241,-0.00453,0.02382
49.7877,16878.7672,-0.00737,0.00097,0.04154
49.8086,16878.7872,-0.01409,-0.00392,0.04398
49.8275,16878.8072,-0.02447,0.01685,0.04459
49.8463,16878.8272,-0.02386,0.02235,0.05314
49.8664,16878.8472,-0.01409,0.00463,0.04459
49.8847,16878.8672,-0.02569,-0.00025,0.04032
49.9069,16878.8872,-0.0373,0.00036,0.04276
49.9333,16878.9072,0.00668,0.01502,0.03726
49.9503,16878.9272,0.02257,0.01074,0.0171
49.9642,16878.9472,-0.01103,-0.00697,-0.00244
49.9867,16878.9672,-0.05318,-0.01186,-0.01833
50.009,16878.9872,-0.04585,0.00341,-0.01894
50.0278,16879.0072,-0.00492,-0.00209,-0.01405
50.0467,16879.0272,0.0018,0.00036,-0.01588
50.0684,16879.0473,-0.01897,0.00647,-0.01772
50.087,16879.0673,-0.04646,0.0083,-0.01772
50.1079,16879.0873,-0.04768,0.00036,-0.00672
50.1291,16879.1073,-0.01531,-0.00331,0.0055
50.146,16879.1274,-0.00675,-0.00392,0.0055
50.1674,16879.1474,-0.00737,0.00036,0.00916
50.1863,16879.1674,-0.00981,0.01074,0.02382
50.2055,16879.1875,0.01096,0.00097,0.02199
50.2271,16879.2075,0.02073,-0.01675,0.00916
50.2493,16879.2275,0.00852,-0.02408,-0.01222
50.2651,16879.2475,0.01035,-0.02958,-0.00611
50.288,16879.2676,0.0134,-0.01553,-0.01649
50.3057,16879.2876,0.03051,-0.02102,-0.0226
50.3259,16879.3076,0.04395,-0.07478,-0.00916
50.3519,16879.3277,0.01401,-0.08516,-0.00305
50.3724,16879.3477,-0.01164,-0.03263,0.00366
50.392,16879.3677,-0.02814,-0.00942,-0.00367
50.4135,16879.3877,-0.00798,-0.00819,-0.00855
50.4252,16879.4078,0.01524,0.00891,-0.00244
50.4499,16879.4278,0.01096,0.01807,0.00733
50.467,16879.4478,0.00852,0.01868,0.00366
50.4849,16879.4679,0.01829,0.02479,-0.00367
50.5046,16879.4879,0.01157,0.01991,0.00244
50.5284,16879.5079,0.01585,0.00708,-0.00672
50.5461,16879.5279,0.03173,0.00769,-0.0055
50.5645,16879.548,0.0299,0.00036,-0.00977
50.5929,16879.568,-4e-05,-0.00148,-0.00733
50.6119,16879.588,-0.01225,0.00708,-0.01527
50.6252,16879.608,0.00241,0.01257,-0.01161
50.6699,16879.628,0.0018,0.01074,-0.00977
50.6738,16879.648,-0.00065,0.0138,-0.01222
50.7086,16879.668,-0.01531,0.01441,-0.01161
50.7127,16879.6881,-0.00492,0.00891,-0.00794
50.726,16879.7081,-0.00309,-0.00148,-0.00733
50.7459,16879.7281,-0.00248,-0.00086,-0.00672
50.7668,16879.7482,0.01768,-0.00514,0.00122
50.7837,16879.7682,0.03234,-0.0027,-0.00428
50.8043,16879.7882,0.02134,-0.00392,-0.01955
50.8267,16879.8082,-0.01347,-0.02591,-0.01772
50.8501,16879.8283,-0.02325,-0.02102,-0.02077
50.8685,16879.8483,-0.00248,-0.00942,-0.01772
50.8884,16879.8683,0.01585,-0.01186,-0.01222
50.907,16879.8884,0.00302,0.00402,-0.01222
50.93,16879.9084,-0.02203,0.01502,0.00794
50.9509,16879.9284,-0.02142,-0.00575,0.00977
50.9713,16879.9484,0.00668,-0.01186,-0.00672
50.993,16879.9685,0.0134,0.0028,-0.00672
51.0085,16879.9885,0.0018,0.01502,-0.00305
51.0255,16880.0085,0.00363,0.03273,-0.01222
51.0478,16880.0286,0.0189,0.02846,-0.00794
51.0732,16880.0486,0.03295,0.01563,-0.00489
51.0904,16880.0686,0.00546,0.0138,-0.00672
51.1077,16880.0886,-0.01347,0.02418,-0
51.1283,16880.1087,0.0134,0.00769,0.00916
51.147,16880.1287,0.03906,-0.03324,0.01649
51.1706,16880.1487,0.04639,-0.0143,0.00977
51.1916,16880.1688,0.03539,0.01807,0.01466
51.2096,16880.1888,0.00058,0.03029,0.01038
51.2338,16880.2088,-0.01775,0.02724,0.00122
51.2582,16880.2288,0.00302,0.02601,-0.01283
51.2756,16880.2489,0.01401,0.02052,-0.01039
51.2869,16880.2689,0.00485,0.0254,-0.01222
51.3087,16880.2889,-0.00126,0.02601,-0.00977
51.3275,16880.3089,-0.0037,0.02052,-0.00061
51.3528,16880.3289,0.01157,0.02052,-0.00672
51.3754,16880.3488,-0.00126,0.00402,-0.01161
51.3874,16880.3688,-0.02019,-0.00881,-0.01161
51.406,16880.3888,-0.01714,-0.0027,-0.00977
51.4265,16880.4088,-0.01164,0.00463,-0.00244
51.4467,16880.4288,-0.01286,0.01685,-0.00489
51.4662,16880.4488,-0.01592,0.01929,-0.01283
51.4883,16880.4688,-0.00675,0.00952,-0.00794
51.5067,16880.4888,-0.00614,0.00219,-0.00733
51.525,16880.5088,-0.01714,0.01135,-0.00061
51.5469,16880.5288,0.00241,0.01257,-0.00244
51.5654,16880.5488,0.01951,0.01135,-0.00305
51.5899,16880.5688,0.0299,0.0138,-0.00367
51.6149,16880.5888,0.01218,0.01563,-0.00611
51.6298,16880.6088,0.00791,0.0138,0.00061
51.6642,16880.6288,0.01585,0.02662,0.00122
51.6679,16880.6488,0.0189,0.02846,0.00122
51.6872,16880.6688,0.01829,0.01441,-0.00367
51.705,16880.6888,-4e-05,-0.00758,0.00305
51.7262,16880.7088,-0.02386,0.01074,0.00855
51.7445,16880.7288,0.00791,0.01013,0.02199
51.7646,16880.7487,0.02745,0.00586,0.02504
51.7932,16880.7687,0.02806,0.01563,0.01649
51.8064,16880.7887,0.00852,0.02296,0.01405
51.8262,16880.8087,-0.00248,0.01319,0.00855
51.8485,16880.8287,0.00668,0.00402,-0.00672
51.8667,16880.8487,0.01646,0.00463,-0.01466
51.8941,16880.8687,0.00546,0.02296,-0.01466
51.9111,16880.8887,-0.00859,0.02052,-0.0055
51.9271,16880.9087,0.00668,0.00524,-0.00183
51.9519,16880.9287,0.01096,-0.00881,-0
51.9719,16880.9487,-0.01164,-0.00942,0.00061
51.993,16880.9687,-0.02142,0.00341,0.00305
52.0227,16880.9887,-0.01836,-0.01491,0.00122
52.0313,16881.0087,-0.01592,-0.02408,-0.00305
52.0485,16881.0287,-0.01409,-0.00942,-0.00183
52.074,16881.0487,-0.00492,0.00891,0.00244
52.0885,16881.0687,0.0134,0.01196,0.00611
52.1054,16881.0887,0.02868,0.01319,0.00305
52.1244,16881.1087,0.00424,0.01135,0.00733
52.1482,16881.1287,-0.00431,0.00647,0.00122
52.1643,16881.1486,-0.01897,0.00647,0.00061
52.187,16881.1686,-0.02142,0.0028,-0.00489
52.211,16881.1886,-0.00737,0.01319,-0.0055
52.2346,16881.2086,-0.00675,0.00463,-0.00977
52.2501,16881.2286,-0.01958,-0.01736,-0.00977
52.2731,16881.2486,-0.00431,-0.00942,-0.00305
52.2939,16881.2686,0.01463,0.01807,0.00122
52.3094,16881.2886,-0.00431,0.01502,-0.00794
52.3261,16881.3086,-0.04768,0.00524,-0.00855
52.3506,16881.3286,-0.05257,0.01502,0.00244
52.3691,16881.3486,-0.01286,0.03579,0.0281
52.3872,16881.3686,0.00119,0.03457,0.04765
52.4108,16881.3886,-0.00248,0.03212,0.05803
52.4264,16881.4086,-4e-05,0.01991,0.06842
52.4472,16881.4286,-0.01225,0.05961,0.07208
52.4661,16881.4486,-0.01714,0.06389,0.0788
52.4861,16881.4686,0.03234,0.03701,0.05559
52.5103,16881.4886,0.05922,0.02662,0.01771
52.5311,16881.5086,0.00913,0.04006,0.01099
52.5517,16881.5286,-0.0037,0.048,0.01649
52.5704,16881.5486,0.03662,0.03457,0.03238
52.5866,16881.5685,0.04456,0.00891,0.03421
52.6228,16881.5885,-0.00737,0.0138,0.03665
52.6325,16881.6085,-0.04707,0.01441,0.05681
52.6622,16881.6285,-0.0208,0.00647,0.06964
52.6671,16881.6485,0.04273,-0.00209,0.06964
52.6881,16881.6685,0.06472,-0.00575,0.06231
52.7148,16881.6885,0.04273,-0.0027,0.04948
52.725,16881.7085,0.00485,-0.01125,0.03299
52.7455,16881.7285,-0.00248,-0.01736,0.00611
52.7645,16881.7485,0.03723,-0.0308,0.0055
52.7879,16881.7685,0.05311,-0.00942,0.00977
52.8067,16881.7885,0.04089,0.00891,0.00672
52.8249,16881.8085,0.03417,0.01196,-0.00367
52.8462,16881.8285,0.06227,0.02418,-0.01955
52.8683,16881.8485,0.06044,0.02235,-0.01405
52.8882,16881.8685,0.01585,0.00891,-0.00916
52.9068,16881.8885,-0.01042,-0.00514,-0.01588
52.9296,16881.9085,-0.00492,-0.00636,-0.00916
52.9452,16881.9285,-0.00981,0.00036,-0.00916
52.966,16881.9485,-0.03608,0.01563,-0.01772
52.9872,16881.9685,-0.03852,0.01319,-0.02077
53.0104,16881.9884,-0.02997,-0.00148,-0.03238
53.0306,16882.0084,-0.05013,0.00586,-0.0336
53.0537,16882.0284,-0.06357,0.01685,-0.02749
53.07,16882.0484,-0.03791,0.0254,-0.0055
53.0915,16882.0684,-0.00614,0.00647,0.00366
53.1079,16882.0884,-0.00981,0.01502,0.00672
53.1267,16882.1084,-0.01042,0.0138,0.01771
53.147,16882.1284,0.00241,0.00219,0.0336
53.1731,16882.1484,0.00668,0.0028,0.02932
53.1946,16882.1684,0.01279,0.00769,0.01527
53.2123,16882.1884,0.02012,-0.00758,0.0055
53.2289,16882.2084,0.01768,-0.00881,-0.00489
53.2459,16882.2284,0.00852,-0.00025,-0.01527
53.2654,16882.2484,0.02257,-0.01064,-0.02932
53.2909,16882.2684,0.02623,-0.00697,-0.04887
53.3109,16882.2884,0.00119,-0.00148,-0.07208
53.3309,16882.3084,-0.01164,-0.0143,-0.08491
53.3527,16882.3284,0.02929,-0.03568,-0.09652
53.3677,16882.3484,0.02257,-0.02469,-0.10935
53.3859,16882.3685,-0.01592,0.01135,-0.08491
53.4084,16882.3885,-0.0428,0.00524,-0.06109
53.4312,16882.4085,-0.04219,0.00952,-0.02871
53.454,16882.4285,-0.03913,0.01807,-0.01222
53.4721,16882.4486,-0.01531,0.0028,-0.02993
53.4905,16882.4686,-0.00187,-0.00209,-0.0171
53.5118,16882.4886,0.00607,0.02235,-0.0226
53.5322,16882.5087,-0.00248,0.00341,-0.03543
53.5497,16882.5287,-0.05074,-0.04118,-0.02505
53.5744,16882.5487,-0.0428,-0.02774,-0.02199
53.5972,16882.5687,0.0018,-0.01736,-0.01588
53.6108,16882.5888,0.03784,-0.0253,-0.01955
53.6258,16882.6088,0.02196,-0.04362,-0.02566
53.6541,16882.6288,-0.0147,-0.02835,-0.04154
53.6703,16882.6488,-0.00798,-0.03752,-0.03726
53.6865,16882.6689,0.01401,-0.01614,-0.02505
53.7103,16882.6889,0.02745,-0.01003,-0.01283
53.7265,16882.7089,0.02379,-0.01491,-0.01527
53.7459,16882.729,0.00729,-0.02896,-0.02444
53.7667,16882.749,-0.01653,-0.0143,-0.01161
53.786,16882.769,-0.03669,0.01563,0.01344
53.8055,16882.789,-0.04524,0.01563,0.0226
53.8265,16882.8091,-0.0373,0.01074,0.02993
53.8483,16882.8291,-0.00798,0.01441,0.02871
53.8718,16882.8491,-0.01714,0.02601,0.03909
53.8889,16882.8692,-0.02936,0.01319,0.03665
53.9077,16882.8892,-0.01103,0.02662,0.0171
53.9278,16882.9092,-0.02875,-0.01125,-0.00244
53.9676,16882.9292,-0.02142,-0.01736,-0.01833
53.9729,16882.9492,-0.00553,0.01746,-0.01772
53.9962,16882.9692,-4e-05,0.01563,-0.01161
54.0169,16882.9892,0.00241,-0.01369,-0.01527
54.0292,16883.0092,-0.00248,-0.02469,-0.01955
54.0445,16883.0292,-0.00798,-0.02041,-0.01955
54.067,16883.0492,-0.01225,-0.02163,-0.0226
54.0861,16883.0692,-0.02814,-0.00758,-0.011
54.1052,16883.0892,-0.01042,-0.0143,-0.00122
54.1324,16883.1092,-4e-05,-0.01675,-0.00061
54.1466,16883.1292,-0.00675,-0.00392,0.00366
54.1659,16883.1492,-0.02264,-0.00942,0.00855
54.1897,16883.1692,-4e-05,-0.01125,0.01099
54.2119,16883.1892,0.03295,-0.00575,0.01161
54.2412,16883.2091,0.05067,-0.00881,0.01466
54.2528,16883.2291,0.06777,-0.02835,-0.00305
54.2713,16883.2491,0.07388,-0.05829,-0.00672
54.2885,16883.2691,0.14107,-0.14869,-0.04398
54.3103,16883.2891,0.19727,-0.15908,-0.05559
54.3326,16883.3091,0.1539,-0.11387,-0.0562
54.348,16883.3291,0.07144,-0.04668,-0.04948
54.3675,16883.3491,0.02868,-0.00881,-0.04948
54.3896,16883.3691,0.07449,-0.00453,-0.01222
54.4053,16883.3891,0.08976,-0.00209,0.02627
54.4347,16883.4091,0.04761,-0.03568,0.01283
54.4529,16883.4291,-0.02019,0.06755,0.03054
54.4748,16883.4491,0.05128,0.20622,0.05742
54.4954,16883.4691,0.13619,0.09015,0.05192
54.51,16883.4891,0.28341,-0.1713,-0.01466
54.5287,16883.5091,0.41902,-0.23544,-0.12278
54.5511,16883.5291,0.49721,-0.04057,-0.10996
54.5665,16883.5491,0.51187,0.1604,-0.06781
54.5858,16883.5691,0.37565,0.11215,0.04215
54.6105,16883.5891,0.29868,0.05228,0.00916
54.6289,16883.609,0.28035,-0.01064,-0.03299
54.6645,16883.629,0.26569,0.0535,0.00611
