AppTimestamp(s),SensorTimestamp(s),acc_x,acc_y,acc_z,gyro_x,gyro_y,gyro_z,mag_x,mag_y,mag_z,yaw_deg_ori,yaw_deg_ori_cal,yaw_deg,yaw_error,Quat_w,Quat_x,Quat_y,Quat_z,q_w,q_x,q_y,q_z,quat_angle_error_deg
0.0424,16828.9764,0.015080997167897792,0.43948322148889307,-0.30166064629913336,-0.2664619897922391,-0.3363555360015926,-0.3190216051869065,-1.4074243711084886,23.504611318948086,-28.881046561167743,-57.007565,-41.27312749581028,0.0,57.007565,0.8122647304978714,0.39340499,-0.139485,-0.40743399,1.0,0.0,0.0,0.0,71.36440886752358
0.0459,16828.9964,0.06526431424274559,0.4255888221198023,-0.25057829609674265,-0.32123307414195745,-0.2132382496940547,-0.2971377489565007,-1.1352516933752232,23.20968978563573,-29.085044706928986,-56.91264,-41.42442754836357,0.0,56.91264000000001,0.8113293617822543,0.391781,-0.144843,-0.40899,1.0,0.0,0.0,0.0,71.54796453262921
0.0468,16829.0164,0.13574823565208938,0.4082340591965363,-0.1777333202043394,-0.3655569205414744,-0.10269990263110791,-0.2917392818806661,-0.9376527093632401,22.86026070940877,-29.345125674593792,-56.71743,-41.62261624111036,0.0,56.71743000000001,0.8111757761842496,0.38886401,-0.14951999,-0.410393,1.0,0.0,0.0,0.0,71.57806499020977
0.0548,16829.0364,0.2361349640097572,0.36201905521549005,-0.07729877587979317,-0.4040363284110773,-0.01837740213441072,-0.3153215788014374,-0.9179047411273906,22.531988763176827,-29.61001074523636,-56.487011,-41.815640166573004,0.0,56.487010999999995,0.8119881535036824,0.38538799,-0.151815,-0.41122201,1.0,0.0,0.0,0.0,71.41872659969441
0.0741,16829.0564,0.3432369911489772,0.31043655847501883,0.02742126629784103,-0.4521934760509982,0.03607747020658478,-0.3657975818972612,-0.9290825304615709,22.2334889101964,-29.876490969627334,-56.439884,-42.192850769894235,0.0,56.439884000000006,0.8126782196577189,0.38133201,-0.15327001,-0.41309601,1.0,0.0,0.0,0.0,71.2831356300938
0.096,16829.0764,0.4429141852515581,0.3113856686330241,0.08918848443483363,-0.5346245764233729,0.07448140833297329,-0.4243998832437078,-0.9054816968900443,21.90067650829726,-30.18208612168473,-56.51553,-42.800890256641246,0.0,56.51553,0.8131791359199029,0.375925,-0.155213,-0.41632801,1.0,0.0,0.0,0.0,71.18457036742868
0.1328,16829.0964,0.5074029161405336,0.376555365624629,0.06712521904030666,-0.6811762193196165,0.13311997913257578,-0.47335986731329566,-0.6722015954848519,21.560284086565495,-30.496342981456223,-56.773838,-43.64335332574648,0.0,56.773838,0.8124007243218458,0.370065,-0.15972701,-0.42135999,1.0,0.0,0.0,0.0,71.33768750599877
0.1346,16829.1164,0.5272622525853614,0.46362020517713853,-0.03693487240858495,-0.9198515492462233,0.245471896501613,-0.518816394030772,-0.27122591587998457,21.28149516647524,-30.75660875494357,-56.975586,-44.393373875933676,0.0,56.97558599999999,0.8107584476355211,0.36526799,-0.166438,-0.426085,1.0,0.0,0.0,0.0,71.65979975532245
0.1526,16829.1364,0.5397336295082646,0.5075478411293517,-0.16623724530609252,-1.2603403120493106,0.403439685828073,-0.590021749013042,-0.03630491811046355,21.083424351428906,-30.94229770175574,-56.857506,-44.853523415361906,0.0,56.857506,0.8104256321826326,0.36058599,-0.171839,-0.42855501,1.0,0.0,0.0,0.0,71.7249246049451
0.172,16829.1563,0.5725504424869841,0.4647387406950263,-0.23087614624313701,-1.665446733763261,0.5485638060091858,-0.707535842994545,-0.19437507306756885,20.862201240970293,-31.12155699941709,-56.504463,-45.411253335402535,0.0,56.504463,0.8128252197201313,0.35183799,-0.174054,-0.43038401,1.0,0.0,0.0,0.0,71.25422270218967
0.1968,16829.1763,0.5992686864541064,0.29869537056862905,-0.14450037272195715,-2.0352250507450202,0.603772202764054,-0.8459503800304551,-0.748825914403696,20.588996005077355,-31.29683111502533,-56.0368,-46.2996254852026,0.0,56.0368,0.8179365281015268,0.336878,-0.17350399,-0.43288499,1.0,0.0,0.0,0.0,70.24247484176365
0.2167,16829.1963,0.540176632192408,0.04085678999998654,0.12741005954602613,-2.213812584138766,0.54355681209572,-0.938296285466536,-1.2443476588017202,20.26460499859012,-31.468161237853998,-55.639412,-47.706792627564774,0.0,55.63941199999999,0.8231879424799539,0.31588101,-0.175666,-0.437861,1.0,0.0,0.0,0.0,69.18959162978364
0.2318,16829.2163,0.2779917298758101,-0.09849608071388039,0.5249892460886052,-2.0587903610699376,0.41178913074156254,-0.9252443232483125,-0.9060522036739718,19.60652367557332,-31.867023345115527,-55.324814,-50.02848804910014,0.0,55.324814,0.8251709210086597,0.28724799,-0.19101401,-0.44732001,1.0,0.0,0.0,0.0,68.78835215398435
0.2524,16829.2363,-0.09378739022489224,-0.07449228546858899,0.8893011434006155,-1.5896882659770575,0.24022732765541988,-0.7502175330947142,-0.09957383938516617,18.902567873140924,-32.299411423176814,-55.127827,-52.69353044253418,0.0,55.127826999999996,0.8242341664437599,0.25730199,-0.212669,-0.45739001,1.0,0.0,0.0,0.0,68.97815161146494
0.2731,16829.2563,-0.3070169109588541,-0.35407525721662125,1.0572754199068761,-0.9801460106661173,0.04829572192153864,-0.44099734176209676,-0.19418564234308544,19.647156278905683,-31.882334995819804,-54.847202,-53.06137123290972,0.0,54.84720200000001,0.8256644242870828,0.249127,-0.215875,-0.45783401,1.0,0.0,0.0,0.0,68.68817665648955
0.2906,16829.2763,-0.4071886853522053,-0.6164848214950638,0.9698124059763966,-0.4017402024774013,-0.09974914068510429,-0.1345011572133775,-0.301253575422856,20.75659913979705,-31.239270982601436,-54.930916,-53.03819486427937,0.0,54.930915999999996,0.8255377885077337,0.25011399,-0.21488699,-0.45798901,1.0,0.0,0.0,0.0,68.71389448253639
0.3138,16829.2963,-0.48646807951734283,-0.7239428015879388,0.6947483964035186,0.026685364679992354,-0.1938735692411429,0.10357291667810123,-0.053288622298549804,21.672525951274537,-30.732600325819526,-55.005444,-52.919976853206414,0.0,55.005444,0.8235267277172246,0.25496101,-0.216995,-0.45794299,1.0,0.0,0.0,0.0,69.12118574659323
0.3454,16829.3163,-0.49553558925345564,-0.6744399687801921,0.36924596526705145,0.287384344825948,-0.24332438044496096,0.25002149971704335,0.18150782938886856,22.189178745639943,-30.53239862188933,-54.745296,-52.55843560780084,0.0,54.745295999999996,0.8225870010412273,0.258919,-0.219791,-0.456074,1.0,0.0,0.0,0.0,69.31078541690488
0.3514,16829.3363,-0.4021024231924972,-0.5647992899992378,0.09630499658265457,0.42097075782331006,-0.2778843962336073,0.29147817088703354,-0.04380608894668914,22.454527060181775,-30.51449742129884,-54.139565,-51.72649394401727,0.0,54.139565000000005,0.8248481315587615,0.261509,-0.217997,-0.45134899,1.0,0.0,0.0,0.0,68.85380555716637
0.3712,16829.3563,-0.3231605366418213,-0.46729200804919646,-0.1024398709758465,0.45998948446303006,-0.33218528604340114,0.2496931056788269,-0.32497730907128286,22.70772949196251,-30.440207542880998,-53.897934,-51.102920888365276,0.0,53.89793399999999,0.8263589934778587,0.26500899,-0.21425,-0.44832799,1.0,0.0,0.0,0.0,68.54696954880578
0.3927,16829.3763,-0.34352224903442385,-0.3699642792839968,-0.25104228173465515,0.42498191280181946,-0.40362089909569177,0.17752845199668876,-0.27274031953806155,23.000715583713166,-30.25096600534466,-54.126408,-50.95267768253281,0.0,54.126408,0.8249091322105603,0.27005401,-0.21317901,-0.44849801,1.0,0.0,0.0,0.0,68.84144037435621
0.4159,16829.3963,-0.43379750410301554,-0.24906190955332352,-0.3721055849274997,0.34381251879742875,-0.454165337273945,0.12172516885008072,0.03717760026637862,23.280019915368012,-30.018688514292528,-54.3218,-50.88167096523774,0.0,54.321799999999996,0.8221043145834109,0.27567801,-0.215662,-0.44903901,1.0,0.0,0.0,0.0,69.40799622326264
0.4342,16829.4163,-0.528504602307895,-0.12227833398641241,-0.4619059140475592,0.25284288063260796,-0.4524914115156688,0.09905490454836663,0.4104068408455488,23.511052244125327,-29.816582149155032,-54.116215,-50.56236348662905,0.0,54.116215,0.8198275225021052,0.28078899,-0.22049201,-0.447687,1.0,0.0,0.0,0.0,69.86493636030045
0.456,16829.4363,-0.5477991235447317,-0.042610787941053996,-0.4987508860386214,0.1854197032534129,-0.4011288522481356,0.09611449337948555,0.6310932167465664,23.739051102176756,-29.63878944661156,-53.778446,-50.177583616150734,0.0,53.778446,0.8187007084179296,0.28427801,-0.22425599,-0.44567299,1.0,0.0,0.0,0.0,70.09011921548893
0.4712,16829.4563,-0.47742863372358846,0.005295074572034597,-0.47904581288772974,0.15912203270821632,-0.3292451121583174,0.08839707514195484,0.6604520197910038,23.86539193138848,-29.562500598251738,-53.440506,-49.95786039773626,0.0,53.440506,0.8188878502480177,0.284399,-0.226546,-0.44409099,1.0,0.0,0.0,0.0,70.05276447083628
0.4909,16829.4763,-0.36228411305262576,-0.02640924493114527,-0.4309074674904565,0.16764171372299946,-0.2692321457441656,0.050045942943427416,0.46436487782444136,24.0882935188471,-29.407331624112082,-53.092812,-49.50796530869944,0.0,53.09281200000001,0.8199142357443735,0.285804,-0.226059,-0.44153601,1.0,0.0,0.0,0.0,69.84758131292246
0.5294,16829.4963,-0.2725406337572176,-0.11427690286850023,-0.3874405976751696,0.18301762126488086,-0.24077809342428633,-0.021437546953196544,0.27518312746033935,24.427715687854796,-29.130239716386825,-52.908737,-48.969778775749596,0.0,52.908737,0.8199986896398067,0.290178,-0.224813,-0.439156,1.0,0.0,0.0,0.0,69.83067483860127
0.5413,16829.5163,-0.24361512240041572,-0.15898334160079441,-0.36039929560517336,0.18259862878916958,-0.2542710876987832,-0.09944384192883124,0.28243901912739755,24.646200042519958,-28.923540029857698,-52.963726,-48.78889974947245,0.0,52.96372600000001,0.8186010718686727,0.29396099,-0.225619,-0.43883401,1.0,0.0,0.0,0.0,70.11000024757188
0.5569,16829.5363,-0.23286693704497363,-0.13369301988638416,-0.35022486110214857,0.15995382986104256,-0.3159892575962206,-0.15145286159195137,0.4616667503540697,24.682681172550907,-28.852525292005225,-53.518944,-49.341593141395386,0.0,53.518944000000005,0.8157129216951267,0.29486999,-0.227731,-0.442496,1.0,0.0,0.0,0.0,70.68416984736831
0.572,16829.5563,-0.1302039780819766,-0.10392333365068707,-0.3682467879567479,0.12539257920390043,-0.4065020490168312,-0.16572212806140446,0.2976793408283225,24.7043710615161,-28.792546076545666,-54.108517,-49.761500133302164,0.0,54.108517000000006,0.814450381719181,0.295398,-0.22575299,-0.44547299,1.0,0.0,0.0,0.0,70.93389384370151
0.5903,16829.5762,-0.023743122886201284,-0.05135753033501311,-0.42974074631285397,0.09826297255075805,-0.47076115792591877,-0.1445760238481959,0.27574405380628786,24.601729044609844,-28.83162237271437,-54.032623,-49.63058493024471,0.0,54.032623,0.8135034062017072,0.29736099,-0.227571,-0.44497201,1.0,0.0,0.0,0.0,71.12070051826397
0.615,16829.5962,-0.015471984674773065,0.00595055247070464,-0.5158564342337257,0.0910818484782633,-0.4466968911547138,-0.09914386667078609,0.9783141071713111,24.368342929766182,-28.950393608073714,-53.415596,-49.290608709358914,0.0,53.415595999999994,0.8093314979719248,0.302068,-0.239627,-0.44307601,1.0,0.0,0.0,0.0,71.93866341564275
0.6358,16829.6162,0.15675490759490263,0.005631658249003024,-0.5798323923996094,0.10897101473292631,-0.32479548894999033,-0.05182848481907624,1.1499141744251853,24.178740021063383,-29.014761442699886,-53.099113,-49.04336345123962,0.0,53.099113,0.8073178366520214,0.304986,-0.24492501,-0.441852,1.0,0.0,0.0,0.0,72.33060301889275
0.6527,16829.6362,0.3829125949034906,-0.0053002967989081995,-0.594506845428068,0.14184830323579747,-0.1565087556864625,-0.02185465772952233,0.8170466954240023,23.954401255211497,-29.10114049152775,-52.847107,-48.76629877526295,0.0,52.847106999999994,0.8081132334400791,0.30538201,-0.24473099,-0.440229,1.0,0.0,0.0,0.0,72.17600656242175
0.6925,16829.6562,0.496737972446724,-0.03818155764220421,-0.5572471031349462,0.1626423973613092,-0.005305336491843324,-0.021031684767224397,0.4999779381323348,23.827497286349924,-29.094649117106382,-52.873089,-48.64546315033754,0.0,52.87308899999999,0.8080819580308793,0.30666801,-0.243872,-0.43986899,1.0,0.0,0.0,0.0,72.18209077650091
0.6939,16829.6762,0.5012547094810169,-0.10642376948231114,-0.4789754566977855,0.14613315457658416,0.0856627795044454,-0.04609386921272458,0.13200151373768332,23.894855483574926,-28.937997076920155,-53.314644,-48.66092335091354,0.0,53.314644,0.8072517299958544,0.30968401,-0.24079899,-0.440972,1.0,0.0,0.0,0.0,72.3434389246506
0.712,16829.6962,0.417519662165164,-0.14836813277915306,-0.3691205311356853,0.08669169515041221,0.0971715675310901,-0.08561959153351256,-0.24031246325529843,23.928334796027457,-28.829448105077134,-53.831963,-48.86103913661064,0.0,53.831963,0.8066179468265132,0.311158,-0.23758601,-0.44283301,1.0,0.0,0.0,0.0,72.46640073976525
0.7314,16829.7162,0.2782507351331329,-0.12891291348379808,-0.24445432841801917,0.0017943753806659093,0.03514136303446251,-0.12707186322813072,-0.5096132504793021,23.77389715218584,-28.8979035320495,-54.150188,-49.251827743321336,0.0,54.150188,0.8064564193619516,0.30935499,-0.236614,-0.444906,1.0,0.0,0.0,0.0,72.49771028842967
0.7534,16829.7362,0.11812670029104755,-0.1338740089716639,-0.13574758118638997,-0.08366525347590872,-0.0703363543476609,-0.16446589573749557,-0.5806729705670701,23.681848152833723,-28.930437563889196,-54.559307,-49.7234363941894,0.0,54.55930699999999,0.8049978543673392,0.30864701,-0.237325,-0.44765201,1.0,0.0,0.0,0.0,72.7799037849137
0.7706,16829.7562,-0.056904292182046845,-0.06927400711956677,-0.07262768427656496,-0.151065716638145,-0.18888751831734668,-0.20225905058386887,-0.5362964244112645,23.395953188714508,-29.125209818688504,-54.065678,-49.5956042569108,0.0,54.06567799999999,0.8048598638748983,0.30748999,-0.241991,-0.44619599,1.0,0.0,0.0,0.0,72.80655243672973
0.7904,16829.7762,-0.18318374034854434,0.015544156019428712,-0.07382872485957392,-0.202585492651493,-0.3058658147709141,-0.23971504218900247,-0.4764091440207494,23.124007321239624,-29.303862396044273,-53.481335,-49.3706049846849,0.0,53.481335,0.8047405476076496,0.30675101,-0.24695601,-0.444195,1.0,0.0,0.0,0.0,72.82958795815978
0.814,16829.7962,-0.2074997074806899,0.07054476105196184,-0.1300128602731796,-0.260382589730635,-0.42091807938267944,-0.26156307425917824,-0.4794401728319535,23.056007197197427,-29.314921689622462,-53.763336,-49.759956117208326,0.0,53.76333600000001,0.803125694711245,0.306391,-0.24873,-0.44637099,1.0,0.0,0.0,0.0,73.14074105352168
0.8313,16829.8162,-0.2562245977606725,0.15275465704439517,-0.21064198753913743,-0.3331113674826062,-0.5333078867974493,-0.2477059079030374,-0.26383717271107265,22.948522060909237,-29.353116802455837,-53.899445,-50.17545221288324,0.0,53.899445,0.8004847740384445,0.30624399,-0.25366101,-0.44843599,1.0,0.0,0.0,0.0,73.64716033659901
0.851,16829.8362,-0.27926926220759674,0.21934430494434753,-0.27151742877067697,-0.40852854056377164,-0.6253846209300964,-0.1918749439709726,-0.01599532054673336,22.779830372982637,-29.431129935674843,-53.742188,-50.436923604612495,0.0,53.742188,0.7981710578057437,0.30576301,-0.260014,-0.449249,1.0,0.0,0.0,0.0,74.08839108984802
0.8724,16829.8562,-0.23148067592393184,0.2332700695576171,-0.2807827911406413,-0.45510418355586973,-0.668795485317409,-0.10984192275514393,0.16695974841794037,22.542574974084697,-29.560521310329648,-53.269909,-50.50496190095008,0.0,53.269909,0.7968523500954237,0.30444601,-0.26672599,-0.448549,1.0,0.0,0.0,0.0,74.3388669559042
0.891,16829.8762,-0.15570897041951248,0.22639678398371288,-0.23752883045819218,-0.4401971406971495,-0.63644144448102,-0.029740370973630692,0.36145765974155,22.138381073069162,-29.824204244419803,-51.969597,-50.017947472197264,0.0,51.96959699999999,0.7971190856355278,0.302313,-0.27592099,-0.443932,1.0,0.0,0.0,0.0,74.28826143182971
0.9235,16829.8962,-0.07018962454276334,0.15150325692617272,-0.15954532089068252,-0.36106803909123464,-0.5179566808887041,0.02349246596104515,0.5406633040759194,21.84747624169735,-30.020688013292236,-50.480244,-49.17500052131783,0.0,50.480244,0.7974670863456371,0.30220601,-0.28471401,-0.437785,1.0,0.0,0.0,0.0,74.22219375087438
0.9363,16829.9162,0.01373345450674801,0.025445835904057912,-0.07400403193017624,-0.24520350743201208,-0.3405886226453324,0.05333110542989983,0.628258713782059,21.781495640187156,-30.080461068313355,-49.582706,-48.61370697005222,0.0,49.582706,0.7970317894002094,0.30328599,-0.29042599,-0.43406299,1.0,0.0,0.0,0.0,74.30482666991341
0.955,16829.9362,0.11498870969603159,-0.10826288852101573,-0.004781571879716395,-0.12302307379448488,-0.1595993809847433,0.08056856648634778,0.36273204154305194,21.905219997669995,-30.03105610343785,-49.535328,-48.51346153589339,0.0,49.53532799999999,0.7973411755132679,0.303556,-0.28996801,-0.43361199,1.0,0.0,0.0,0.0,74.246103640279
0.9752,16829.9562,0.1372259466103185,-0.1770870192997438,0.03619988429624499,-0.013363795593276773,-0.01727809618628242,0.11932990610695685,0.08865002465750305,22.012534816056686,-29.998908765716166,-49.760078,-48.76327449852691,0.0,49.76007799999999,0.7974682766186878,0.30234,-0.289047,-0.43484101,1.0,0.0,0.0,0.0,74.22196769202313
1.0018,16829.9761,0.08116242420877073,-0.20038116521659788,0.04356004871327812,0.07951050375345405,0.07628160103963336,0.16758357977891025,-0.17336163587992015,22.138292830177885,-29.943368468849908,-49.801003,-48.77372380485307,0.0,49.80100300000001,0.7976882507109778,0.302187,-0.288461,-0.43493301,1.0,0.0,0.0,0.0,74.18017968100962
1.0167,16829.9961,0.00781063058022724,-0.1802582859077062,0.01576878070790677,0.15318551071071654,0.13302261007459598,0.20678542848152404,-0.4735676289803239,22.251617690712205,-29.87842268491967,-49.605938,-48.49390816993889,0.0,49.60593800000001,0.7984239893215006,0.302802,-0.28788301,-0.43353599,1.0,0.0,0.0,0.0,74.04026626006274
1.033,16830.0161,-0.023569568542025188,-0.15721952297411335,-0.040538031932259244,0.2018663550706737,0.16418407589923306,0.21612189192829795,-0.928703099630682,22.443540339885715,-29.730756062362126,-49.437687,-47.9816694718119,0.0,49.43768699999998,0.7997898525513435,0.30482,-0.28512001,-0.43142501,1.0,0.0,0.0,0.0,73.77992113170293
1.0589,16830.0361,-0.016528472831400798,-0.14349611994765077,-0.10735867064169113,0.2205605811083819,0.17487055730323736,0.19135531853295118,-1.4350719849399551,22.714985967309858,-29.501300803513857,-49.522625,-47.554275909652596,0.0,49.522625000000005,0.8008517978868498,0.30770701,-0.28087401,-0.43018901,1.0,0.0,0.0,0.0,73.576959563086
1.0801,16830.0561,-0.0007395600246682399,-0.110519476594797,-0.1625682133999078,0.2136692929415678,0.16936480726121028,0.14644790235700764,-1.7688953594993917,22.932787068132054,-29.313037432415477,-49.89085,-47.62308701216293,0.0,49.89085,0.8006884388591481,0.30907801,-0.27814499,-0.43128201,1.0,0.0,0.0,0.0,73.60821239673517
1.0912,16830.0761,0.015775630160436815,-0.07234160724431371,-0.19443394386632207,0.1923087733858067,0.1546927545696507,0.09846647612854018,-1.9913563573692041,23.081489999763775,-29.190963372938107,-50.22271,-47.816960720383136,0.0,50.222710000000006,0.8002246079957801,0.309522,-0.276757,-0.432715,1.0,0.0,0.0,0.0,73.69688761243698
1.1127,16830.0961,0.06119430287013694,-0.04237495224869825,-0.20834578364942224,0.16596251107865437,0.1386197926116335,0.05534330784335352,-2.2840027501153086,23.183835862477697,-29.110116847847145,-50.404285,-47.85420829570439,0.0,50.404285000000016,0.8007253889467848,0.309524,-0.274616,-0.43315101,1.0,0.0,0.0,0.0,73.60114433280411
1.132,16830.1161,0.09679486689688588,-0.02588500631718116,-0.21850750947195507,0.1361571149602658,0.12776290913942528,0.021980564731394384,-2.453894236746698,23.30345025900789,-29.032534193364143,-50.632435,-47.94104104702396,0.0,50.63243499999999,0.800589935608361,0.31002301,-0.27316701,-0.43395999,1.0,0.0,0.0,0.0,73.62705192169983
1.1539,16830.1361,0.09196350844532608,-0.019291129644428917,-0.2314951285592386,0.09959760262386938,0.12505239396341683,0.0034040992083702593,-2.4296345579894227,23.465951748990374,-28.940338629932377,-50.975414,-48.132205041352904,0.0,50.975414,0.7992321287489385,0.31150401,-0.27290201,-0.43556601,1.0,0.0,0.0,0.0,73.88632302835926
1.1801,16830.1561,0.09595225595417567,0.002707144022140895,-0.24209684580995017,0.05698214554138421,0.12543917258462772,0.0018195967919877112,-2.4774761133766408,23.570024840216462,-28.88301368028423,-51.383247,-48.40084674471651,0.0,51.38324699999998,0.7986916964630345,0.311726,-0.271283,-0.437406,1.0,0.0,0.0,0.0,73.98930088542924
1.2291,16830.1761,0.09688485403645153,0.043331869521569644,-0.2428163124566325,0.016816053858589773,0.12329352346591828,0.016665995126551002,-2.543255996048761,23.553872941749187,-28.899654975086463,-51.740273,-48.74964242169323,0.0,51.740273,0.7989034858095811,0.31018901,-0.26942399,-0.439257,1.0,0.0,0.0,0.0,73.94895966655099
1.2388,16830.1961,0.05270659716828652,0.06581000472555143,-0.23208137702987308,-0.011442302973147328,0.12232245560301003,0.04361013958312406,-2.4720339758892047,23.48280977793817,-28.93643258016915,-51.90139,-48.95388553702926,0.0,51.90138999999999,0.798767345005027,0.30933899,-0.269135,-0.44027999,1.0,0.0,0.0,0.0,73.9748936643523
1.2427,16830.2161,-0.005152490190685199,0.0681349119430541,-0.2120768266130746,-0.02408216670861229,0.1290866669036083,0.07456239778473603,-2.353346475478099,23.35524169009171,-28.98594927294755,-51.892456,-49.00908822231547,0.0,51.89245600000001,0.7987704812577515,0.30881599,-0.26947901,-0.440431,1.0,0.0,0.0,0.0,73.97429631491822
1.259,16830.2361,-0.04461572326148566,0.055261143045049366,-0.1846418531661378,-0.02461857573452375,0.14154754621494936,0.10077757857088623,-2.274792976177314,23.19872037648438,-29.035022363704165,-51.907452,-49.07569393301263,0.0,51.907452000000006,0.7991318830058901,0.30790901,-0.269146,-0.44061401,1.0,0.0,0.0,0.0,73.90543386537435
1.2707,16830.2561,-0.06556912176187657,0.02592367196233125,-0.1532498911279525,-0.022099142681268516,0.14903381390867426,0.1153682792968136,-2.2700777904047342,23.078343494311515,-29.05423115112942,-52.006638,-49.126201259416554,0.0,52.00663800000001,0.7997908384826997,0.307208,-0.267528,-0.44089299,1.0,0.0,0.0,0.0,73.77973292033982
1.297,16830.2761,-0.07892471611564611,-0.013276943648465434,-0.12331653942466048,-0.02459190637598302,0.14219826380975573,0.1155584501684683,-2.297921098755043,23.017028796178668,-29.04843500112362,-52.164097,-49.14803600661877,0.0,52.164097,0.8004622213885673,0.30702299,-0.26519299,-0.441214,1.0,0.0,0.0,0.0,73.65147211611179
1.3123,16830.2961,-0.0832250792271445,-0.035119166334000695,-0.10005665618099613,-0.0332432407246792,0.1211800163620167,0.10374801411004174,-2.304621852721106,22.941849005332024,-29.085891009674306,-52.279957,-49.21090737454924,0.0,52.279956999999996,0.8011768555953671,0.30623001,-0.263363,-0.44156399,1.0,0.0,0.0,0.0,73.51473760938511
1.3339,16830.3161,-0.08443727204549578,-0.04333014600972396,-0.08748113234167754,-0.04399971582534629,0.09477106058902922,0.08562627377496808,-2.2113030730689154,22.854455521744885,-29.16503610105895,-52.349735,-49.34328887270496,0.0,52.34973500000001,0.8014411354917839,0.30509901,-0.26296699,-0.442103,1.0,0.0,0.0,0.0,73.46411627757294
1.3582,16830.3361,-0.07895573892380092,-0.05341715927816715,-0.08499317395447292,-0.05344365193345752,0.07255354361227656,0.06476924297398388,-2.0613473945998093,22.784724767901896,-29.244378799071363,-52.336006,-49.40941282119504,0.0,52.336006,0.8014512175277918,0.304434,-0.26340899,-0.44227999,1.0,0.0,0.0,0.0,73.46218452677816
1.3723,16830.3562,-0.05624535154357568,-0.06948671876980317,-0.0844952126100047,-0.061121003938036454,0.056052701111528505,0.04129986592388063,-1.9382395266166341,22.73667398756842,-29.299866937369412,-52.295776,-49.412676863498255,0.0,52.29577599999999,0.8015994130244607,0.30404201,-0.263587,-0.442175,1.0,0.0,0.0,0.0,73.43378475194469
1.392,16830.3762,-0.01960263215637692,-0.09054794902263286,-0.07530309761444443,-0.06765714615165172,0.0376856977236982,0.01567788032420008,-1.8623333810414913,22.706945335137405,-29.325000443033765,-52.341133,-49.47112905271811,0.0,52.341133,0.8018528642422373,0.30345401,-0.26307201,-0.442426,1.0,0.0,0.0,0.0,73.38519217742966
1.4168,16830.3962,0.01848266675574539,-0.10873561402754461,-0.05388713815722568,-0.07192496144062684,0.009726102582436932,-0.008957568496180287,-1.7899537748030117,22.6733484217382,-29.341235163249284,-52.495373,-49.67244315512337,0.0,52.495373,0.801987541871468,0.30225101,-0.26240399,-0.44340101,1.0,0.0,0.0,0.0,73.35936004678908
1.4327,16830.4162,0.0419724400413255,-0.11412461446335431,-0.02866681490496603,-0.07155375807805167,-0.025719052205650968,-0.028950244640880588,-1.664912046651808,22.608396086192514,-29.381749333710488,-52.578781,-49.88895569551168,0.0,52.57878099999999,0.8019992399033679,0.30070001,-0.262665,-0.44427899,1.0,0.0,0.0,0.0,73.3571159117366
1.4523,16830.4363,0.04935150813737632,-0.12003508468776669,-0.014205423844980913,-0.06605205572866701,-0.056276080232527406,-0.04291670771122499,-1.464759689610947,22.563380512028104,-29.41822116417198,-52.558174,-50.0067698485591,0.0,52.55817400000001,0.8016372003023438,0.299961,-0.26397899,-0.444653,1.0,0.0,0.0,0.0,73.42654179261895
1.4772,16830.4563,0.05223030614554469,-0.12593463157944518,-0.01914124343912249,-0.058471157832269284,-0.06979612270153321,-0.05207898387830358,-1.2089273220836185,22.551387744743458,-29.4460758333615,-52.503368,-50.083898442484994,0.0,52.503367999999995,0.8008544060178477,0.29991701,-0.26602301,-0.444875,1.0,0.0,0.0,0.0,73.57646049923707
1.5037,16830.4763,0.07520591045398684,-0.13041091534473148,-0.040927708145057196,-0.053078582752803166,-0.06409670683105069,-0.05874734102237843,-1.0240847396731771,22.571005587758272,-29.46562364716034,-52.490604,-50.15467488359501,0.0,52.49060399999999,0.8003147075388031,0.29985401,-0.267272,-0.44514,1.0,0.0,0.0,0.0,73.67966954458409
1.5237,16830.4964,0.10317166639744091,-0.1337066116166019,-0.06981571085359306,-0.051783724605983406,-0.04573043434622165,-0.06449451750909903,-0.8999354875831749,22.614434822515435,-29.487433918572016,-52.526932,-50.24670462358464,0.0,52.526932,0.7999850581449754,0.29959401,-0.26785499,-0.445557,1.0,0.0,0.0,0.0,73.74264892841622
1.5438,16830.5164,0.10907340069277627,-0.13348337479965222,-0.09547345271500518,-0.05282131221009864,-0.023302957107540257,-0.06909536534129769,-0.7592956930023522,22.65606549177706,-29.531034087329438,-52.574596,-50.39586830166726,0.0,52.574596,0.7995329826609031,0.299025,-0.26878199,-0.446192,1.0,0.0,0.0,0.0,73.82894280691717
1.5549,16830.5364,0.09693794710133652,-0.1381076827883767,-0.11224768337483582,-0.052556506031682534,-0.0037258760184212987,-0.07220015591596936,-0.6344226249254925,22.696920567863017,-29.582734541351467,-52.639282,-50.57616839478983,0.0,52.63928200000001,0.7991348486119224,0.298199,-0.269618,-0.446953,1.0,0.0,0.0,0.0,73.90486856339726
1.5749,16830.5564,0.07729173917279786,-0.14768762774125221,-0.12166175112648858,-0.04856404477478187,0.009117259431403256,-0.07537116129405634,-0.5545828157251886,22.722838884233035,-29.638114695781844,-52.691475,-50.74534269142924,0.0,52.691475,0.7990055551395622,0.29709399,-0.270129,-0.447611,1.0,0.0,0.0,0.0,73.92951096342978
1.5947,16830.5765,0.06033101684264164,-0.16095190604893705,-0.13293952428352185,-0.04210581209689862,0.016664766220780426,-0.0813687455635676,-0.5092122121360196,22.74085973851021,-29.68405884343838,-52.73531,-50.88788104556288,0.0,52.73531,0.7990104680957189,0.29602399,-0.27039701,-0.448149,1.0,0.0,0.0,0.0,73.92857471825043
1.6161,16830.5965,0.05840011228031994,-0.16886369652182864,-0.15929049613285073,-0.03887958616687202,0.026949589180564233,-0.09111162036582446,-0.4796814980950037,22.754839964054298,-29.719349313531282,-52.771961,-51.004443399368974,0.0,52.771961000000005,0.7990170118928632,0.295147,-0.270605,-0.44859001,1.0,0.0,0.0,0.0,73.92732767352035
1.6344,16830.6165,0.0806131437600115,-0.1614291578844682,-0.21155363447314457,-0.04787818884269056,0.05253747378719453,-0.10187949453497767,-0.42915882879929157,22.763183184640372,-29.75370355545238,-52.836979,-51.155392080622846,0.0,52.836979,0.7987866625220402,0.29438201,-0.27104801,-0.44923499,1.0,0.0,0.0,0.0,73.97121426893995
1.6586,16830.6366,0.13052092617016475,-0.1284454326181148,-0.2932453399885375,-0.08009148568182378,0.10459991226080531,-0.1102151024282183,-0.32059300760385323,22.742561138753995,-29.816273526304176,-52.942486,-51.410225873378565,0.0,52.942486,0.7982040406476153,0.29330701,-0.272104,-0.45033401,1.0,0.0,0.0,0.0,74.08211702172753
1.6816,16830.6566,0.21438910556808066,-0.07293220578520065,-0.39977709492415237,-0.14853506021314294,0.185048241224821,-0.11807988476659466,-0.1976293786311425,22.690733470971452,-29.919071834014602,-53.061653,-51.71613448552765,0.0,53.06165300000001,0.7976787186324076,0.29177001,-0.27318501,-0.45160699,1.0,0.0,0.0,0.0,74.18199088747247
1.7023,16830.6767,0.3209399609656325,0.00017902133234715123,-0.5189523931231577,-0.2679616822377903,0.278752757406132,-0.13651460842070196,-0.1076631850242924,22.607591740480654,-30.071250696913673,-53.125332,-51.96844243341899,0.0,53.125332,0.7977044785814982,0.289765,-0.27374899,-0.45251,1.0,0.0,0.0,0.0,74.1770961086193
1.7397,16830.6968,0.406525044706751,0.10477116298803413,-0.6317233956146673,-0.4523656832223545,0.34827269403178956,-0.18627847740860842,0.04111981643860396,22.436247920434386,-30.319818199098503,-53.153515,-52.34312196467148,0.0,53.153515,0.7978665500785452,0.28629401,-0.275029,-0.45365599,1.0,0.0,0.0,0.0,74.14629373318193
1.7429,16830.7168,0.4431048989557014,0.24423641196453305,-0.718027097036968,-0.7171136021914704,0.33041540261512076,-0.29446210579699406,0.18670982961004956,22.168512995780482,-30.662370382409947,-53.148861,-52.86082295108586,0.0,53.148861,0.7984723900721926,0.28072599,-0.27668601,-0.45506001,1.0,0.0,0.0,0.0,74.03105408018949
1.7574,16830.7369,0.42350266816338156,0.41310218782820485,-0.7639551040298524,-1.0783008145899728,0.14406626631053993,-0.48861963376294654,0.20782612314851967,21.8395075098601,-31.048024715798064,-53.145458,-53.5324930722497,0.0,53.14545799999999,0.7998053519043992,0.272589,-0.278108,-0.45679599,1.0,0.0,0.0,0.0,73.77696230365122
1.7751,16830.757,0.3392160271437641,0.5939132988014229,-0.7678383138145932,-1.542998564715409,-0.28272924038597586,-0.7913735186344075,0.10337843080022147,21.517808525725133,-31.37494044433449,-53.108932,-54.39631004978496,0.0,53.10893200000001,0.8010767010398067,0.26222101,-0.28092,-0.45891199,1.0,0.0,0.0,0.0,73.53391383113761
1.7935,16830.777,0.19155869360820432,0.7959862304949423,-0.7550890638195558,-2.0942941366387413,-0.9824329242695136,-1.2090785275241425,-0.07897403454147334,21.185057622494337,-31.57147334051374,-52.713688,-55.45000887282864,0.0,52.71368799999999,0.8014187906107643,0.249201,-0.28935099,-0.460329,1.0,0.0,0.0,0.0,73.46839747371503
1.8159,16830.7971,0.028369276529840892,1.0163624357291248,-0.7875516360753885,-2.6833636768583244,-1.9221730880300314,-1.7012318236914348,-0.4817585244135918,20.93491200095233,-31.496638606279515,-51.691662,-56.62486222827153,0.0,51.69166200000001,0.8003868120902543,0.233722,-0.305812,-0.459602,1.0,0.0,0.0,0.0,73.66588784067207
1.8444,16830.8171,-0.13360094456541205,1.23940173966954,-0.9467623553834414,-3.2452951488191477,-2.956736495560346,-2.195110516572268,-0.9274344269514216,20.973378889862456,-31.04121661959749,-50.18779,-58.58352403975439,0.0,50.18779000000001,0.7943154236183255,0.21694501,-0.33462599,-0.45828301,1.0,0.0,0.0,0.0,74.81871315066525
1.8577,16830.8372,-0.3195300455033556,1.441440135566814,-1.2859339558727818,-3.73224809549686,-3.8493316170153005,-2.6346590843237836,-0.8842514668883963,21.451027507367506,-30.32398225262432,-48.339001,-62.83686824414978,0.0,48.339000999999996,0.7770385804385777,0.200055,-0.381549,-0.458922,1.0,0.0,0.0,0.0,78.01955071283612
1.8732,16830.8573,-0.4362208293119463,1.5597403609447897,-1.760117403836336,-4.119814276208846,-4.427930922396549,-2.959687468116057,-0.49579109097191143,22.366068788394795,-29.61359922893002,-45.994816,-70.54794763094893,0.0,45.994816000000014,0.7483357096849914,0.182256,-0.44152001,-0.46025699,1.0,0.0,0.0,0.0,83.10716626911784
1.8966,16830.8773,-0.32971640944630876,1.5258797649619258,-2.227774123614571,-4.405112337532092,-4.700861201683706,-3.0885092063945163,-0.6926407339155056,23.576885810645475,-29.108300011878242,-43.245125,-80.63939232756027,0.0,43.245125,0.7175015546875421,0.16156501,-0.49906501,-0.45828199,1.0,0.0,0.0,0.0,88.3028248991703
1.915,16830.8974,-0.11714985716675708,1.347871699915309,-2.580473052412758,-4.597092369630256,-4.747499037944477,-3.0784295282917906,-1.3489782995286113,24.925887771545494,-28.791898833514022,-40.41494,-92.03420823468582,0.0,40.41494,0.6871459669347407,0.13966,-0.550547,-0.45301601,1.0,0.0,0.0,0.0,93.1907802539471
1.9355,16830.9174,0.04501689788533225,1.1282387689744309,-2.809609350686695,-4.738025148242526,-4.672695205740705,-2.9964348800845446,-2.0297455925413,26.234413697838363,-28.578854672799977,-37.796803,-104.13476710542652,0.0,37.79680300000001,0.655979426401499,0.116282,-0.59772402,-0.445977,1.0,0.0,0.0,0.0,98.01208592933519
1.9576,16830.9374,0.08227522986478597,0.9702331947839156,-2.981104633284387,-4.862108831601326,-4.577371494538437,-2.8528786293857156,-2.6431945902603715,27.434556447663052,-28.375185864071828,-35.400673,-115.51697879076205,0.0,35.40067299999998,0.6241327322109457,0.091475,-0.64140499,-0.436681,1.0,0.0,0.0,0.0,102.76287884396969
1.981,16830.9575,-0.03228357702595197,0.9363343584377786,-3.1947023771622414,-4.990871484716235,-4.4906793888066865,-2.6403666979954172,-3.0278412426122934,28.516366137509856,-28.169394838271213,-33.0243,-125.70897420109861,0.0,33.02429999999998,0.5900286225041799,0.065838,-0.683828,-0.42415899,1.0,0.0,0.0,0.0,107.68192126622229
1.9944,16830.9775,-0.2590283617137241,1.010938287993579,-3.538611595919704,-5.144376113628223,-4.367213872762185,-2.34226824310794,-3.0732938643023764,29.522614381772364,-27.96166107103686,-30.602856,-134.51532266753847,0.0,30.602856000000003,0.5525317731991523,0.039855,-0.72580302,-0.40783599,1.0,0.0,0.0,0.0,112.91824567388494
2.0149,16830.9975,-0.5008847711599747,1.0598087012777042,-4.022059215140141,-5.329186019496213,-4.1289265420106664,-1.9509061793191178,-2.9908776380827993,30.656468839279853,-27.544523118746632,-28.38434,-141.29649460726426,0.0,28.38434000000001,0.5145370162517172,0.01547,-0.76402801,-0.38893899,1.0,0.0,0.0,0.0,118.06697294234313
2.0366,16831.0176,-0.753158556303761,0.9771383688003312,-4.554983335078045,-5.497036147512097,-3.7486141454050426,-1.466738641206983,-2.904306719525053,31.760354746568915,-27.08538648150889,-25.971189,-146.61638943111691,0.0,25.97118900000001,0.4779993298513293,-0.005968,-0.799236,-0.36428401,1.0,0.0,0.0,0.0,122.89036715651537
2.0536,16831.0376,-1.0689130782834417,0.7004759966938323,-4.991243119876399,-5.639068442331135,-3.1553254069938457,-0.916113187914863,-2.455451906508049,32.68560933112606,-26.793339140507328,-23.920763,-150.52007562707968,0.0,23.920762999999994,0.4419227037545365,-0.028797,-0.83185101,-0.33451301,1.0,0.0,0.0,0.0,127.54675662417577
2.0818,16831.0576,-1.5289988913551367,0.29346523638449007,-5.248125724187847,-5.707725564007601,-2.4444804576848593,-0.2978267556770531,-1.977847604895448,32.88141379035307,-27.289790833274942,-21.773232,-153.40250291441865,0.0,21.773232000000007,0.4097028115156154,-0.053175,-0.86311001,-0.290443,1.0,0.0,0.0,0.0,131.62766549107246
2.0946,16831.0776,-2.1324361295913943,-0.3139176410496328,-5.322093387795338,-5.7493429248248855,-1.731066225240656,0.31462040721902085,-1.9209403037844508,32.76593974531718,-27.976903856414882,-19.784765,-155.4584916245013,0.0,19.784764999999993,0.3870001582451867,-0.073389,-0.88766402,-0.23853201,1.0,0.0,0.0,0.0,134.4640624213147
2.1135,16831.0977,-2.8217154669973836,-1.2737629532268109,-5.257659639868658,-5.8609996015792465,-1.1758526528834883,0.9076736374089241,-2.529555464176661,33.05692554793656,-27.888769746335814,-17.865244,-157.2081188066052,0.0,17.86524399999999,0.3776908565630615,-0.083467,-0.90228897,-0.190414,1.0,0.0,0.0,0.0,135.6185556971124
2.1408,16831.1177,-3.5781310729409634,-2.5676202727525266,-4.9911097251315955,-6.111677326503477,-0.7899487302105672,1.5290515669398936,-3.0763945025236135,33.521786660018186,-27.219395040990353,-16.193943,-158.6912221855996,0.0,16.19394299999999,0.3758186169734006,-0.090419,-0.91084498,-0.144728,1.0,0.0,0.0,0.0,135.8501652030736
2.1544,16831.1377,-4.381490683897072,-4.038277375623711,-4.227079079218143,-6.446073437316664,-0.4889101723683027,2.174199567885293,-2.9743363980562663,33.61172152640042,-26.65347747305501,-14.534133,-160.44349668773182,0.0,14.534132999999997,0.3723919506420082,-0.098604,-0.91819799,-0.092271,1.0,0.0,0.0,0.0,136.27357818141178
2.1744,16831.1578,-5.046070338120299,-5.363907866368283,-2.5415249308288903,-6.693627465963186,-0.16694368527187486,2.8159652377338524,-2.436286113113031,33.041366066383794,-26.645010006156248,-12.441672,-163.1466450024514,0.0,12.441672000000011,0.3650230189590788,-0.106433,-0.924546,-0.025395,1.0,0.0,0.0,0.0,137.18200132709947
2.1997,16831.1778,-5.145593664340185,-6.007087548051624,0.30254812908701645,-6.615321210238154,0.22429226734831476,3.4630860953743925,-2.370180898101296,31.80786701816142,-27.290414588357212,-9.23017,-167.5861840627625,0.0,9.230169999999987,0.361077816893145,-0.108326,-0.92433298,0.059134,1.0,0.0,0.0,0.0,137.66719358630237
2.2133,16831.1978,-4.451607369721124,-5.524239757899741,3.7831397523865125,-6.101201570358114,0.668930772629651,3.985064933215471,-2.882318477894284,30.373630457686563,-28.15639661388591,-4.443852,-174.2295255698514,0.0,4.443851999999993,0.3616424595901309,-0.099498,-0.91457498,0.15121999,1.0,0.0,0.0,0.0,137.5978011992803
2.2367,16831.2178,-3.178289431987303,-4.127413898086179,6.9150400947926265,-5.220440937838832,1.1051352056736141,4.273606963261299,-3.4975806673397454,29.411166149044988,-28.630913957329867,1.726853,177.89317411211726,0.0,1.7268530000000055,0.3656653409576024,-0.080363,-0.89740902,0.233426,1.0,0.0,0.0,0.0,137.1029306911753
2.262,16831.2378,-1.867918320575214,-2.5978887083300632,9.082834300246798,-4.160072719718639,1.5021969977463505,4.321329768963142,-3.4514666451736105,29.287532774279143,-28.447453359077315,8.064446,170.7991973689413,0.0,8.064446000000004,0.3706632693482306,-0.057378,-0.87941903,0.29315299,1.0,0.0,0.0,0.0,136.4869427365307
2.2776,16831.2578,-0.8519870087960326,-1.3485511560062182,10.335800930569281,-3.1096175486498754,1.885193773967108,4.186571130391602,-2.7228101771970783,29.46018106986608,-28.04693404606821,14.117188,164.90736209190382,0.0,14.117187999999999,0.3733788864794575,-0.03335,-0.86374098,0.33679,1.0,0.0,0.0,0.0,136.15169297922674
2.2932,16831.2778,-0.06332665319086495,-0.4774043217855759,10.940610630153088,-2.187124386322283,2.2851481303499246,3.9348154398164548,-2.015748430422077,29.52824107813305,-27.671671972680205,20.725403,159.26594589596317,0.0,20.725403,0.3734564139528454,-0.003432,-0.84924197,0.373238,1.0,0.0,0.0,0.0,136.1421162354499
2.3158,16831.2978,0.7327035269786641,-0.02378818614945999,11.13275242790267,-1.4346617772549461,2.735064985656804,3.6084084562877945,-1.7648059412044113,29.52230086762044,-27.270465444443886,28.269642,153.31796627123373,0.0,28.269642000000005,0.3742497532758039,0.034699,-0.833776,0.404414,1.0,0.0,0.0,0.0,136.04409879454892
2.3368,16831.3178,1.713798232876913,0.029267452258139315,11.054761262444664,-0.8080951172601262,3.24934449418198,3.255646455251637,-1.5627632134898501,29.524306343475622,-26.819220664379117,35.637016,147.29923553651238,0.0,35.63701600000002,0.3824049165544815,0.07379,-0.81590199,0.427347,1.0,0.0,0.0,0.0,135.0345429982035
2.3542,16831.3378,2.8948309181298386,-0.27718042021229294,10.778620498462715,-0.23357025378890361,3.7978605619411274,2.9402747425912983,-0.9589433090582737,29.51297209473431,-26.387028836879082,41.77486,141.20878897172912,0.0,41.77485999999999,0.4016495088108532,0.107966,-0.79556102,0.44057199,1.0,0.0,0.0,0.0,132.63732437576618
2.3756,16831.3578,4.073124396151352,-0.9256089031342078,10.382673953146039,0.26831770423270423,4.351809546601603,2.717609705006469,-0.07829905206874344,29.511816520673865,-25.92294745009953,46.822666,134.95767954643296,0.0,46.822666,0.4255278287107434,0.141389,-0.77449101,0.44620499,1.0,0.0,0.0,0.0,129.63184435839727
2.3922,16831.3778,5.2160804290817335,-1.8055709633556853,9.925076400016998,0.6224789468101389,4.94176132992954,2.599162621161726,0.6253836821684935,29.608560929709498,-25.298364865240423,51.629089,128.37995211030963,0.0,51.62908899999999,0.4474390979716452,0.181559,-0.75269198,0.447537,1.0,0.0,0.0,0.0,126.84100506602483
2.414,16831.3978,6.488803231323781,-2.742962050438483,9.371504485060125,0.8234489500967668,5.610140088725035,2.5345934273513753,1.1951924033477574,29.795806418661265,-24.547775041061968,56.173588,121.38287821640841,0.0,56.173587999999995,0.4692653647571486,0.22714099,-0.728338,0.44465801,1.0,0.0,0.0,0.0,124.0267593310932
2.4368,16831.4178,7.994649274591698,-3.568639093108553,8.605766188647916,0.8712428337076525,6.349812324763255,2.473907948442397,1.8166700440474308,30.020058661071033,-23.796805990871384,60.215313,113.93482104282973,0.0,60.21531300000001,0.4934809702921074,0.27459899,-0.69997299,0.437161,1.0,0.0,0.0,0.0,120.86073281837454
2.4537,16831.4378,9.871125444760146,-4.151921561731957,7.359775575426784,0.7674296705198647,7.094042975236417,2.416610562324127,2.323863592583514,30.32253890550213,-23.079872169371637,63.816944,105.51136590757267,0.0,63.81694400000001,0.5225871167591671,0.32485101,-0.66478002,0.42360601,1.0,0.0,0.0,0.0,116.9880985671866
2.4721,16831.4578,11.924463842068132,-4.248202070522186,5.4311534222079505,0.5351799208074657,7.760994087134058,2.3313594224784215,2.7691695680000983,30.554581685271092,-22.62691685785366,66.92762,96.1798604601387,0.0,66.92761999999999,0.5570330581659579,0.37428901,-0.62042302,0.40582901,1.0,0.0,0.0,0.0,112.29827748247432
2.4945,16831.4778,13.786864576128181,-3.7818718147783077,2.7018915803346655,0.19355300367938844,8.252868625631214,2.2305267680424676,3.0735817465400324,30.75137363252754,-22.402119345035345,69.564644,86.0796065101334,0.0,69.56464399999999,0.5947896195779476,0.42221001,-0.56604201,0.38413599,1.0,0.0,0.0,0.0,107.00472798115908
2.513,16831.4978,14.958169439784118,-2.8063826124953906,-0.6763876144761927,-0.23782027900062275,8.499414896307423,2.1345897414571846,3.2339746160260727,30.970516925528536,-22.303447271753445,71.724586,75.63200855571108,0.0,71.72458599999999,0.6323912573629079,0.467374,-0.50265998,0.35913199,1.0,0.0,0.0,0.0,101.54646731698575
2.5345,16831.5178,15.050004026496104,-1.5089750293904594,-4.241152873545321,-0.7190947867316266,8.490754449717306,2.033027198750178,3.3671569048180987,31.171078410982588,-22.32804156839786,73.204399,65.38808682383629,0.0,73.204399,0.6675245627105266,0.50643301,-0.43307099,0.33224401,1.0,0.0,0.0,0.0,96.24740867234524
2.5597,16831.5378,14.02793638931352,-0.15820767642081135,-7.424765578781466,-1.2166470797489688,8.270001154869307,1.916093618814083,3.5358375002493556,31.330966485466195,-22.464352655587966,73.771637,55.831508285765125,0.0,73.771637,0.6986258292440954,0.536946,-0.361159,0.305246,1.0,0.0,0.0,0.0,91.36628440234713
2.5732,16831.5578,12.207764852453717,1.0201080784942318,-9.881840865669561,-1.6915009280737836,7.914936359983533,1.7619389566707406,3.6237018150250053,31.43077327169978,-22.773292648971548,72.984535,47.001941901839565,0.0,72.984535,0.7265487763492685,0.55775702,-0.28874499,0.278676,1.0,0.0,0.0,0.0,86.80431858518689
2.592,16831.5778,10.022706786923873,1.9194548916272256,-11.509690057960988,-2.1351467933922397,7.504188660707366,1.5257887734477145,3.5103328146677226,31.430200067432366,-23.351363725466392,70.131088,38.970347046242885,0.0,70.131088,0.7525549807142728,0.56753802,-0.217287,0.25366899,1.0,0.0,0.0,0.0,82.37562888262858
2.6155,16831.5978,7.93741372738911,2.561712253344706,-12.119488300602622,-2.6150718528933625,7.066133209285163,1.1739167641412833,3.9891963753059994,31.613438483514237,-23.640160760234632,66.455376,33.782141239130645,0.0,66.455376,0.7708955519340601,0.56676197,-0.163829,0.240127,1.0,0.0,0.0,0.0,79.1312462375998
2.6357,16831.6177,6.159589743711046,2.972080615367484,-12.24942212137813,-3.0916070995845297,6.624038114832352,0.7258373577674138,4.675944388800657,32.05962490410194,-23.42428136376907,62.396656,30.236641618544645,0.0,62.39665600000001,0.7849297002253126,0.56116903,-0.12347,0.23179699,1.0,0.0,0.0,0.0,76.57164627938212
2.6755,16831.6377,4.720509156304019,3.0989758664813163,-12.284986867540173,-3.5325902808942655,6.202639176795981,0.16375070694320604,5.203983917105187,32.474187909546416,-22.945912073742925,56.931618,27.074338855942855,0.0,56.931618000000014,0.7997349796572236,0.55067599,-0.088335,0.22220901,1.0,0.0,0.0,0.0,73.79039555469446
2.6765,16831.6577,3.647778313802612,2.8943078891749643,-12.306498905192173,-3.919238000482074,5.80748453505311,-0.5029906375898863,5.725939922766792,32.80239751577686,-22.113150457316628,50.395504,24.2389072814014,0.0,50.39550400000002,0.8154019997096646,0.53597599,-0.059642,0.210457,1.0,0.0,0.0,0.0,70.74573976196166
2.694,16831.6777,2.9263214086318428,2.319135891327921,-12.338538267573199,-4.221859049882679,5.431464191577134,-1.2657431634690868,6.2513830681015445,33.02083975870811,-21.007831184829598,43.121658,21.57792052321624,0.0,43.121658,0.8324844808054142,0.51699299,-0.036878,0.195775,1.0,0.0,0.0,0.0,67.29038683764648
2.714,16831.6977,2.504958765525491,1.3723205868877717,-12.342313592608601,-4.405010760306267,5.0601692431225285,-2.087952243804186,6.75758460676262,33.215068821166675,-19.740308983368017,35.584686,18.919785927818978,0.0,35.584686000000005,0.85083020261675,0.49430701,-0.019922,0.177064,1.0,0.0,0.0,0.0,63.39583615390537
2.7343,16831.7177,2.2953538997779157,0.09344880363691432,-12.246838170629545,-4.423906968534173,4.690150669369195,-2.9323729041063995,7.406701524048314,33.38133704456973,-18.517630252754685,27.927505,16.039549628938357,0.0,27.927504999999996,0.8709242387452539,0.467269,-0.010466,0.151793,1.0,0.0,0.0,0.0,58.8675594777275
2.7525,16831.7377,2.0660111959161007,-1.4259409400454526,-12.047387470299405,-4.431645462705333,4.279746169431081,-3.5923387851237862,7.542733779510107,33.35499174520694,-18.070720877502563,17.29118,10.805474188012044,0.0,17.291179999999997,0.8939195186556672,0.43462899,0.010103,0.109103,1.0,0.0,0.0,0.0,53.26003822439124
2.7745,16831.7577,1.7852497390285222,-2.988781748347777,-11.62455836032515,-4.4868492701577685,3.8461013048321813,-4.033430009190449,7.360352323934655,33.43873489690917,-17.84658714409435,6.308831,4.2981707838621945,0.0,6.308830999999998,0.9140904617444598,0.39994001,0.035993,0.05649,1.0,0.0,0.0,0.0,47.84622199305306
2.7942,16831.7777,1.5299699555611563,-4.456875039266225,-10.913385365732447,-4.531326942147729,3.3799020726526567,-4.38355636443701,7.1785998355792335,33.675863541277174,-17.620765722325565,-2.526859,-1.8781160000157313,0.0,2.5268590000000017,0.9305897817098896,0.36169299,0.056231,0.004349,1.0,0.0,0.0,0.0,42.94612289632775
2.8124,16831.7977,1.312242265341724,-5.76254558162665,-9.953963895814399,-4.574015747946085,2.897508927691436,-4.653207456259655,7.007325347768258,33.99772342846868,-17.483223605752556,-9.757895,-7.860321533376572,0.0,9.75789499999999,0.9434921932334044,0.31991899,0.072173,-0.047596,1.0,0.0,0.0,0.0,38.70690620733391
2.8346,16831.8177,1.0990531100475278,-6.8997728093614175,-8.844158639821528,-4.59648896085667,2.47071934193657,-4.850838339467918,7.125410030038163,34.364514194078836,-17.26649137333394,-16.105577,-13.850188207616617,0.0,16.10557700000001,0.9516527612243868,0.278133,0.082378,-0.101059,1.0,0.0,0.0,0.0,35.778236271871855
2.8542,16831.8377,0.8383121498815491,-7.865218502401641,-7.487209093159089,-4.5889674972363945,2.021037781097,-5.0542354994036405,7.652911604249285,34.248343850696244,-17.704732039977912,-21.774801,-19.87644103966064,0.0,21.774800999999997,0.9575221895742156,0.226916,0.083779,-0.156976,1.0,0.0,0.0,0.0,33.51954574851335
2.8783,16831.8577,0.5301672026470006,-8.585883513617386,-5.773523648501054,-4.5986799093927795,1.4628318000154,-5.256156918540664,8.203225386461565,33.33696201102766,-19.226738155785963,-26.859524,-25.83655960013328,0.0,26.859523999999993,0.960727272538362,0.160007,0.076854,-0.213294,1.0,0.0,0.0,0.0,32.22143150419344
2.8924,16831.8777,0.1440688173004001,-9.202755661626092,-4.023635880243912,-4.64948195333446,1.006211652994443,-5.379739700797119,8.475142972444553,32.440161813714596,-20.37123250781646,-31.926414,-31.617647694068705,0.0,31.926413999999994,0.956556037956512,0.097752,0.066892,-0.26640299,1.0,0.0,0.0,0.0,33.90137422263703
2.9159,16831.8977,-0.40966854358290483,-9.735711999455551,-2.143238176917344,-4.736083595798451,0.6465860092949458,-5.437567857845725,8.39970359170056,31.61824935527372,-21.28096163996706,-37.190804,-37.307211000317785,0.0,37.190804000000014,0.9459702559136624,0.038709,0.056331,-0.31696799,1.0,0.0,0.0,0.0,37.840698598596305
2.9325,16831.9177,-1.3239901100717022,-9.984127655329303,0.05750269549611531,-4.771970489650931,0.37005342166458854,-5.45487404807236,8.426234858580585,30.677027218965485,-22.216862104287166,-43.256611,-43.36602154099335,0.0,43.25661099999999,0.928156259429413,-0.020352,0.042437,-0.369203,1.0,0.0,0.0,0.0,43.701580819804555
2.9525,16831.9377,-2.60857500084823,-9.684698160818275,2.58967384350694,-4.655918081055386,0.13655388864664353,-5.454353291446117,8.701133584719015,29.638131142430318,-23.14735360008357,-50.224094,-49.731506167149576,0.0,50.22409400000001,0.9028591150523207,-0.078214,0.023602,-0.42210299,1.0,0.0,0.0,0.0,50.92706427415416
2.9763,16831.9577,-3.9203712447284413,-8.762214400361211,5.275564784644596,-4.3723313721676025,-0.16433817861632538,-5.425065963027775,8.704814386848533,28.7516566975397,-24.037337414688587,-57.347149,-55.63332862819628,0.0,57.347149,0.8730438849446687,-0.132743,0.00345,-0.46921399,1.0,0.0,0.0,0.0,58.37138264968651
2.9928,16831.9777,-4.933089374304438,-7.406064762535616,7.864354650712894,-4.000925712063919,-0.5847569566709881,-5.340678987993168,8.139998191925729,28.226400345410166,-24.881743179760157,-64.400879,-60.96165903311247,0.0,64.400879,0.8404824616891656,-0.181491,-0.011748,-0.51040399,1.0,0.0,0.0,0.0,65.61779699656302
3.0131,16831.9977,-5.853003211766894,-6.136713772409251,9.965624030602243,-3.574824216683493,-1.0771393773198823,-5.2710393322999165,7.408277829425037,28.416053464014514,-25.200708830417412,-71.297485,-66.3027147263977,0.0,71.297485,0.8070961223666479,-0.213496,-0.02299,-0.54998797,1.0,0.0,0.0,0.0,72.37364544274926
3.0374,16832.0177,-6.898821347515142,-4.827334142827887,11.496134391987674,-3.1928269325316725,-1.7127176939570556,-5.210884237573309,6.66272703812483,28.766244773505118,-25.479643444227193,-78.186867,-72.00261057950154,0.0,78.186867,0.7717765075868007,-0.234725,-0.037464,-0.58979797,1.0,0.0,0.0,0.0,78.97262639520791
3.0544,16832.0376,-8.28305098686651,-3.4645671580170436,12.296858396630082,-2.906195097019798,-2.414056993137516,-5.158013152877539,6.0645477153213925,29.07172984537311,-25.73929352799245,-84.898071,-78.25029367631535,0.0,84.898071,0.7342504023662499,-0.245243,-0.05905,-0.630274,1.0,0.0,0.0,0.0,85.51217203555075
3.0748,16832.0576,-9.808861244210334,-2.0114052196940637,12.388034982664603,-2.762344195560567,-3.0745180038076496,-5.095334687577078,5.539513080755498,29.25145392422439,-25.992110564901104,-91.291336,-84.87623625979106,0.0,91.291336,0.694131840661095,-0.24857201,-0.08496,-0.670205,1.0,0.0,0.0,0.0,92.08384711464647
3.096,16832.0776,-11.316802239040895,-0.3025328561799143,11.84362952260318,-2.70817864847658,-3.6819497231940344,-5.00963037825367,5.125642160893953,29.112226635148133,-26.403993882534255,-97.238472,-91.66717902327248,0.0,97.238472,0.6511353611899294,-0.24852701,-0.117509,-0.70742399,1.0,0.0,0.0,0.0,98.74548393233552
3.1184,16832.0976,-12.577859158757747,1.5997518930306986,10.78277390778192,-2.737515891058009,-4.193920888095587,-4.9008090694878845,4.973968919720751,28.768161487023207,-26.777719141275497,-102.988701,-98.77590372029225,0.0,102.988701,0.60382946066483,-0.245684,-0.15259901,-0.74279398,1.0,0.0,0.0,0.0,105.71068456694684
3.1461,16832.1176,-13.416278218233408,3.396002000979075,9.369901916261046,-2.849544991326039,-4.581035843120791,-4.797751599952393,4.897377104479216,28.578484676872222,-26.76775867523406,-108.436188,-105.93458334824636,0.0,108.436188,0.5547334230820778,-0.23848601,-0.184894,-0.77537698,1.0,0.0,0.0,0.0,112.61528882080525
3.1845,16832.1376,-13.945989610611994,5.099424254185987,7.562142493347629,-2.9889867791313005,-4.884631457939323,-4.696142106949422,4.918196541186878,28.45508789874423,-26.544716790015787,-113.47654,-113.16737840717806,0.0,113.47654,0.5043441170345696,-0.22565199,-0.219107,-0.80418301,1.0,0.0,0.0,0.0,119.42435386946636
3.1862,16832.1576,-14.062612479651879,6.8120087722490155,5.367968910065768,-3.1595528780666955,-5.110111241713346,-4.550636057351822,5.045073308422229,28.199311257066483,-26.43345961810313,-118.276222,-120.56593553764571,0.0,118.276222,0.4510581670521211,-0.209667,-0.257864,-0.82830697,1.0,0.0,0.0,0.0,126.37680972045396
3.1986,16832.1776,-13.616308635361985,8.474006309126619,2.88945977492315,-3.3735233494715695,-5.197172225865397,-4.360865518822122,5.444783772817363,27.833057155238514,-26.450463686846874,-123.219109,-128.35979678839763,0.0,123.219109,0.3929242361200437,-0.19113301,-0.29979101,-0.848059,1.0,0.0,0.0,0.0,133.72684656037512
3.2221,16832.1976,-12.564048855650015,9.765585125019154,0.43878047846554935,-3.598405302484032,-5.116775112144616,-4.151185898554866,5.804098825024816,27.604174109246703,-26.39639756178169,-128.04248,-135.96651114994967,0.0,128.04248,0.3351289804364281,-0.170223,-0.34105501,-0.86162299,1.0,0.0,0.0,0.0,140.83923726687402
3.2387,16832.2176,-11.00101266849198,10.602589548706037,-1.7425320426069408,-3.818348162948407,-4.882558584405859,-3.915550698569305,5.996718639579203,27.568901198540047,-26.222130021575538,-132.684052,-143.0932293148472,0.0,132.684052,0.2802401496456205,-0.148522,-0.38056701,-0.86866301,1.0,0.0,0.0,0.0,147.45092378485685
3.2527,16832.2376,-8.978442654161691,11.169852831797511,-3.6298710262953664,-4.073336844662375,-4.517978044229198,-3.582719523178344,6.276419860118317,27.410004810968815,-26.185436902971034,-137.389252,-149.97170642087545,0.0,137.389252,0.2243691192287827,-0.130687,-0.42172399,-0.86875099,1.0,0.0,0.0,0.0,154.06843422401823
3.2745,16832.2577,-6.67981114006596,11.459306202679825,-5.201097651940685,-4.368636943031412,-4.028859487938114,-3.141706797499914,6.7188052190657075,27.101230482275312,-26.278243007746966,-142.093765,-156.51331286838163,0.0,142.093765,0.1677716311215929,-0.117317,-0.46498799,-0.86132199,1.0,0.0,0.0,0.0,160.68343564271532
3.2933,16832.2777,-4.473485802147577,11.399774030336152,-6.373841475724568,-4.694483776637049,-3.447534822679946,-2.650025476320229,6.932676106973556,27.01296979038721,-26.213296044337145,-146.095474,-162.03588022069047,0.0,146.095474,0.1185562559332064,-0.10554,-0.50685,-0.84729499,1.0,0.0,0.0,0.0,166.38242533495585
3.3166,16832.2977,-2.605067108901363,11.116904787030053,-7.247324962257938,-5.097869430659481,-2.8072942171267075,-2.181914492079602,6.7911405726615905,27.358014091425957,-25.791162688712483,-148.990097,-166.3308984613086,0.0,148.990097,0.0806089439253451,-0.093629,-0.54533201,-0.82906502,1.0,0.0,0.0,0.0,170.75286260106108
3.3389,16832.3177,-1.0390136452589254,10.696101827050523,-7.899110752749813,-5.654624464425005,-2.0717366942191564,-1.7610773234432253,6.314621132636027,28.43201194995271,-24.56678838280193,-150.702835,-169.10820303272726,0.0,150.702835,0.0543878231928633,-0.087121,-0.57378203,-0.81254297,1.0,0.0,0.0,0.0,173.7645378483772
3.3534,16832.3378,0.27645812531336156,10.110252233669076,-8.674208146963503,-6.326967622491197,-1.2474014563795142,-1.3258370701530864,5.805257777048898,29.94777463712256,-22.524197252854858,-150.569489,-170.5579808906263,0.0,150.569489,0.0366955864978184,-0.087995,-0.59496099,-0.79808003,1.0,0.0,0.0,0.0,175.7940512421369
3.3762,16832.3578,1.29635916933172,9.23596376147807,-10.005122164441081,-6.985552918879466,-0.38038183740706466,-0.8461811290139818,5.633249807423339,31.155744253884784,-20.432412714404066,-146.656921,-171.40224576521624,0.0,146.656921,0.0220708077804048,-0.091809,-0.62185001,-0.77742302,1.0,0.0,0.0,0.0,177.47066635072557
3.4116,16832.3779,1.9196604720538302,7.8789390108433635,-11.770774450934626,-7.503797826688961,0.5325967547012314,-0.3265776073715425,5.7956057664733,32.11649839815124,-18.484233403406737,-134.540283,-171.69777123348427,0.0,134.540283,0.0099593823302208,-0.097796,-0.65538001,-0.74887502,1.0,0.0,0.0,0.0,178.85871998418514
3.4216,16832.3979,1.9653106188119427,5.989321267126474,-13.627578813520685,-7.801998905091122,1.459450345045743,0.21960785575770747,6.123193825445229,32.96909195460151,-16.909934908964146,-102.755516,-171.0667263711154,0.0,102.755516,0.0027951425509273,-0.107644,-0.69474399,-0.711151,1.0,0.0,0.0,0.0,179.67969984031325
3.437,16832.418,1.2578046258331832,3.869116040156536,-15.067556809329803,-7.922694017705044,2.2232781465003213,0.753116007932325,6.200162171882393,34.19335968570526,-15.132713721942045,-69.47715,-169.3326251288566,0.0,69.47715,0.0071035307023973,-0.118685,-0.730878,-0.67207199,1.0,0.0,0.0,0.0,179.1859884962673
3.4577,16832.4381,-0.13478881015731314,1.9175256585408542,-15.881420968784404,-8.044085028529826,2.5022289264944533,1.278001954296426,5.317635033795245,36.02347755848091,-12.421137559759538,-56.714283,-166.7590123905749,0.0,56.714282999999995,0.0310795038078057,-0.123979,-0.75745499,-0.64025402,1.0,0.0,0.0,0.0,176.43797760053553
3.4744,16832.4581,-1.8124805932968497,0.06782651171045262,-16.13569322327902,-8.233172497652538,2.2608845193520044,1.7645960940574976,3.9039490535841694,37.887271738768916,-8.850293042670145,-52.29232,-163.72488717398295,0.0,52.29231999999999,0.0688466745424875,-0.125837,-0.77683002,-0.61315602,1.0,0.0,0.0,0.0,172.10450657190998
3.4969,16832.4782,-3.446286307356309,-2.1059929622549953,-15.793328158218358,-8.355967035597592,1.7503484319066729,2.235220209338967,2.935603830829685,39.070267648326436,-5.9911776234022245,-48.281929,-159.88714368271226,0.0,48.28192899999999,0.1117206044435795,-0.134721,-0.80047202,-0.57324803,1.0,0.0,0.0,0.0,167.1709792161624
3.5302,16832.4982,-4.716749443510103,-4.878747265130627,-14.432949363016947,-8.245460251825653,1.1615209154454438,2.783739539318491,2.2684825002866456,39.55947736416499,-5.806092836548393,-41.785034,-155.75308624288286,0.0,41.785033999999996,0.1579076249247002,-0.14914,-0.838624,-0.49953201,1.0,0.0,0.0,0.0,161.82906379696283
3.5386,16832.5183,-5.2430866958860545,-7.64696571179471,-11.881323256580266,-7.848294345226982,0.7455165216696295,3.2649792200812895,2.078222718206768,39.576894020076786,-7.932484035417231,-34.33757,-153.80818188599767,0.0,34.33757,0.1893762402742208,-0.15898199,-0.88325602,-0.398397,1.0,0.0,0.0,0.0,158.16723091858103
3.5574,16832.5384,-5.164542457050319,-9.616480908421812,-8.618241300019594,-7.186851854946265,0.5487408866669121,3.694081307498263,2.068506641232073,39.31628956553105,-10.516672088822236,-27.897978,-154.5314785308312,0.0,27.897977999999995,0.2064267455193233,-0.158062,-0.92000002,-0.29326501,1.0,0.0,0.0,0.0,156.17393572948575
3.5791,16832.5584,-4.847275503508032,-10.564408724199478,-5.180376701431898,-6.326050256014408,0.6430476465396224,4.10655114086784,2.087784128664774,38.75578041984715,-13.026759506500596,-22.464821,-157.0791753370238,0.0,22.464821,0.2162402791335127,-0.14878701,-0.94556302,-0.192388,1.0,0.0,0.0,0.0,155.02339615144885
3.5991,16832.5785,-4.483933932562588,-10.750261440759612,-2.0582354896018193,-5.367303849506778,0.979162872136951,4.498877186375346,2.0470205943703235,38.032943581441906,-14.905219573106123,-17.642986,-160.8017645834308,0.0,17.642986000000008,0.2267754324414351,-0.132177,-0.959454,-0.102714,1.0,0.0,0.0,0.0,153.7853960577834
3.6297,16832.5985,-4.068479228137279,-10.609210560699083,0.5484677566380025,-4.431069978183975,1.458502001620103,4.815390099228394,1.9460898140583796,37.305229396277696,-16.036164701400033,-12.736139,-165.6392608111798,0.0,12.736139000000009,0.2404420700318469,-0.107905,-0.96430498,-0.025691,1.0,0.0,0.0,0.0,152.1747336931327
3.66,16832.6186,-3.463443687804032,-10.407681413772895,2.699795235211276,-3.6087272327030906,1.9888981924095177,5.0089769885455615,1.6916205164078204,36.62237181759023,-16.69268181514925,-7.070536,-171.88025462399506,0.0,7.070536000000004,0.2571844193209216,-0.07478,-0.96253598,0.042292,1.0,0.0,0.0,0.0,150.1938781960247
3.6701,16832.6387,-2.648964789742311,-10.194756649827275,4.464372249815169,-2.949128649930403,2.516723669296775,5.05070455362606,1.4865122243864806,35.99950303227609,-17.09788201928628,-0.615478,-179.28991484276779,0.0,0.615477999999996,0.2751757687414716,-0.035251,-0.95517701,0.103308,1.0,0.0,0.0,0.0,148.0550217946175
3.6847,16832.6588,-1.7665395168972147,-10.209728159253817,5.6848610428457995,-2.465010590794836,2.909490256488459,5.000958461385584,1.679672236847396,35.75380458553353,-16.728770765556362,6.177186,172.89505737422428,0.0,6.177186000000006,0.2919900989417279,0.008472,-0.94461,0.149606,1.0,0.0,0.0,0.0,146.04572405935306
3.7079,16832.6789,-0.67872602973185,-10.343191785042073,6.49217733175858,-2.063228103537335,3.163800892801042,4.939629606493618,2.0790403907068153,35.73618239250381,-15.992606151975473,13.279729,164.70449267865243,0.0,13.279729000000003,0.3131666858055626,0.054577,-0.92962801,0.186386,1.0,0.0,0.0,0.0,143.49965257824155
3.7206,16832.699,0.530417969872981,-10.501812223026283,6.960986999831082,-1.6826030972306572,3.2984248097464115,4.9137033196957765,2.840260075288441,35.802348392660484,-15.16875395592246,20.275305,156.40231115284257,0.0,20.275305000000003,0.3391544945067954,0.099586,-0.91020799,0.21582,1.0,0.0,0.0,0.0,140.3492606264708
3.7395,16832.7192,1.6742996103080356,-10.591520274512133,7.208443374447764,-1.3546088188180718,3.361484861070891,4.925537614231016,3.933573852819535,35.84149459777563,-14.478310316701817,27.109873,148.19373627177387,0.0,27.109872999999993,0.3632122424652561,0.1437,-0.88823199,0.241808,1.0,0.0,0.0,0.0,137.40479521542332
3.7606,16832.7393,2.7460746987520244,-10.594607282828461,7.309909500307786,-1.1064352362843801,3.41386877803425,4.977435365885221,5.043016139728056,35.90620370194242,-13.849849119459671,34.027046,140.2091055309663,0.0,34.027045999999984,0.3808769687695226,0.19000299,-0.865004,0.265706,1.0,0.0,0.0,0.0,135.2239705976475
3.7806,16832.7594,3.902599632484889,-10.435668876863959,7.301880122386915,-0.912632954692506,3.5363432389027256,5.04799713335771,5.898573903566042,36.02178122529291,-13.276118060124912,41.137497,132.40701814247436,0.0,41.137496999999996,0.3942799753112752,0.23952401,-0.839338,0.28754699,1.0,0.0,0.0,0.0,133.55784893568173
3.8093,16832.7795,5.217718090326775,-10.011949920456567,7.176410037298449,-0.7203164907848747,3.791358464313876,5.092846702629702,6.657720445821205,36.13925168270998,-12.846523295624781,48.028511,124.80444481121832,0.0,48.02851100000001,0.4086274029730983,0.28890499,-0.80990797,0.30595201,1.0,0.0,0.0,0.0,131.76272094973942
3.8242,16832.7997,6.705336674796314,-9.229455141573482,6.8773774184248495,-0.5431683726330074,4.181919971298798,5.060478328180335,7.315794006350275,36.33027942470093,-12.597064652638398,54.675003,117.18793171967472,0.0,54.675003000000004,0.4253728331257647,0.337964,-0.77567399,0.32119799,1.0,0.0,0.0,0.0,129.65147037321972
3.8448,16832.8198,8.29345127190709,-8.07828982466248,6.29403234378805,-0.4458281331928122,4.656446694811639,4.918292830750927,7.656345600408866,36.76391445805729,-12.423148351038115,61.254871,109.42014117404952,0.0,61.25487100000001,0.4428379957661488,0.38860101,-0.73604,0.33335999,1.0,0.0,0.0,0.0,127.42980576969502
3.8623,16832.8399,9.81134255534972,-6.669762481084495,5.312866120946111,-0.46420750013860923,5.144902850141733,4.666368805099907,7.597580910509519,37.46474099242186,-12.214030616125624,67.578659,101.49125725358802,0.0,67.57865900000002,0.4608975203980813,0.44023699,-0.69128799,0.34042001,1.0,0.0,0.0,0.0,125.10992393947869
3.8839,16832.86,11.054439290573727,-5.126995670014875,3.920841820318021,-0.5813843881473766,5.612452460679714,4.3031903018182645,7.3329400468634285,38.21147103903333,-12.149296695568134,73.13205,93.40351303365313,0.0,73.13204999999999,0.4827473145639021,0.488379,-0.64183903,0.341297,1.0,0.0,0.0,0.0,122.27002456119895
3.9067,16832.8802,11.853290587813436,-3.596903775543402,2.2038596947222313,-0.8212747260461324,6.012051145456213,3.869945772197548,6.924373825719951,38.888596167087535,-12.197745083385286,77.839943,85.253510174182,0.0,77.839943,0.5076330968411136,0.53148299,-0.58867902,0.336588,1.0,0.0,0.0,0.0,118.98740054872682
3.9248,16832.9003,12.14229182714377,-2.1701920220514994,0.31943275498746715,-1.2069927098264441,6.31403214053433,3.4212419692008273,6.370364963488143,39.43849267873147,-12.284937993906663,81.844353,77.14653779099132,0.0,81.84435300000001,0.5341500038760638,0.56901401,-0.53216797,0.328183,1.0,0.0,0.0,0.0,115.42742976549164
3.9392,16832.9204,11.968218721266508,-0.9576095415705109,-1.6006198920234596,-1.6950348050267094,6.5174314612392585,3.008104846634448,5.881580487084373,39.789312961098084,-12.3958652683415,84.900475,69.13520182402863,0.0,84.90047500000003,0.5630717640864615,0.59907901,-0.47343799,0.31608701,1.0,0.0,0.0,0.0,111.4630039450716
3.9579,16832.9406,11.444892254749872,0.0010499868110573352,-3.478792900117309,-2.2338257501853693,6.632535756510825,2.6774347625689594,5.532019362214301,39.92805964694685,-12.528126237428062,86.83268,61.18516713491179,0.0,86.83267999999998,0.5945322721645646,0.621153,-0.41304201,0.300161,1.0,0.0,0.0,0.0,107.04140795662147
3.9778,16832.9607,10.650570902337757,0.7527669139698662,-5.247678700398006,-2.7973669925260407,6.65790966039706,2.4565054992502886,5.151575930695149,39.92203399969438,-12.57375007304704,87.812836,53.43968443364672,0.0,87.812836,0.625930363993104,0.63645399,-0.35142499,0.28220201,1.0,0.0,0.0,0.0,102.49898735522926
3.9995,16832.9808,9.601969899111463,1.38246149762944,-6.7894930926212975,-3.3767198486027366,6.597387935066507,2.2430408293710857,4.591869317240473,39.76841274704954,-12.660148264204288,87.74057,46.60747409596736,0.0,87.74056999999999,0.6556494173084416,0.64296597,-0.29060301,0.268828,1.0,0.0,0.0,0.0,98.06217885312898
4.0203,16833.0009,8.348097258480518,1.8393034124653844,-7.937640384173289,-3.9451073794583897,6.447897606699539,1.8761053751738723,4.094995785348813,39.522407109623316,-12.631132026154784,86.37336,42.00458910828166,0.0,86.37335999999999,0.6810986594429032,0.63844401,-0.23939399,0.26680401,1.0,0.0,0.0,0.0,94.14088812946376
4.0387,16833.021,7.100180115398565,2.042719996484148,-8.99186436532287,-4.364934966316735,6.232615743960012,1.3825275630248373,3.436205175641541,39.20272976205587,-12.619259191877148,83.1138,37.812436951324514,0.0,83.11379999999997,0.7077440970894775,0.62716699,-0.189859,0.26403299,1.0,0.0,0.0,0.0,89.89667193708688
4.0892,16833.0411,5.96337028682481,1.9532844151990167,-9.855868614106091,-4.634673979127033,5.973329478430127,0.7274506991970804,2.8502575609485907,38.89606617172826,-12.37594653619717,78.06488,34.33585749657902,0.0,78.06488000000002,0.7333209535946855,0.61067897,-0.146754,0.26033601,1.0,0.0,0.0,0.0,85.66894270919668
4.0979,16833.0612,5.047741237775487,1.5718853126068129,-10.539536103760499,-4.767609679694834,5.694518836753219,-0.07065382372996876,2.4036637097736144,38.65528314631402,-11.822506181854404,71.472198,31.299732794722228,0.0,71.47219799999999,0.7576363994551737,0.59118402,-0.110829,0.25338799,1.0,0.0,0.0,0.0,81.48746233369113
4.1015,16833.0813,4.41338662733441,0.882087874187924,-11.070341161627578,-4.768530884692014,5.423230088014959,-1.000715611386549,2.2362109081955186,38.424544750019884,-11.218440368418085,62.893032,28.325632276634693,0.0,62.893032000000005,0.7832129018834273,0.56756097,-0.082166,0.24021,1.0,0.0,0.0,0.0,76.88861136543073
4.1321,16833.1014,4.051108421782386,-0.09707182074316334,-11.418908210661863,-4.6733603550293665,5.129805973630065,-2.024176249885829,2.2040901824461483,38.20915689517047,-10.66385008663682,53.187042,25.508505199599504,0.0,53.18704199999999,0.8098049679444301,0.53945798,-0.061483,0.22230799,1.0,0.0,0.0,0.0,71.8462387330476
4.139,16833.1214,3.8749792519405055,-1.369658447124157,-11.559955379514115,-4.465195883881051,4.831892458979566,-3.0382865133780705,2.387402692329025,38.02888327313147,-10.128139768418,43.079777,22.50304408624218,0.0,43.07977700000001,0.8371027058700742,0.508039,-0.050352,0.19652,1.0,0.0,0.0,0.0,66.3291492881539
4.168,16833.1415,3.663913836374151,-2.9137299034206183,-11.538441984571357,-4.235934078548559,4.524100848545588,-3.864212690489802,2.520808029157541,37.87269403467678,-9.801278985118387,31.409237,17.8812792124339,0.0,31.40923699999999,0.8655189670908432,0.474466,-0.038047,0.155921,1.0,0.0,0.0,0.0,60.11596512778592
4.1816,16833.1617,3.2355899710802696,-4.629656243329038,-11.279924991836616,-4.027714578088235,4.19238299266271,-4.456152402560428,2.4859922263020855,37.84279228564862,-9.523974450479027,19.292967,11.976552896550428,0.0,19.292967000000004,0.891891262671846,0.43936899,-0.0237,0.104514,1.0,0.0,0.0,0.0,53.7762546681076
4.2048,16833.1818,2.527345044462949,-6.359464129411799,-10.585897658449388,-3.7889546308944237,3.7290918782440823,-4.920462207547886,2.3035374389842134,37.88730907563912,-9.756107912862829,8.434687,5.799336939485756,0.0,8.434686999999997,0.9167993009808636,0.396014,-0.011175,0.05027,1.0,0.0,0.0,0.0,47.074884173597546
4.2188,16833.2019,1.578332532764652,-7.85446776276471,-9.281676699206574,-3.488600913079647,3.0363340919065394,-5.309509459628392,2.1815292036586915,37.81835702704571,-11.076186882104407,-0.438876,-0.3382293978314214,0.0,0.4388759999999934,0.9408998911069124,0.338635,-0.003707,-0.004471,1.0,0.0,0.0,0.0,39.593530664925446
4.2409,16833.2221,0.4444289804008533,-8.866405160588341,-7.60206665390654,-3.131581430230711,2.276639063780588,-5.547707741777952,2.6618092460685294,37.59285046840637,-12.832964394954827,-8.048301,-6.81337905531472,0.0,8.04830100000001,0.958654344485957,0.27733999,-0.005801,-0.063488,1.0,0.0,0.0,0.0,33.066664532053096
4.2604,16833.2422,-0.6384078883166429,-9.382210516057492,-5.969735738826132,-2.8316883128687427,1.5873995169559714,-5.642217946106255,3.3345687311011227,37.246951981011996,-14.410111825498559,-14.645149,-13.227335231867304,0.0,14.645149000000004,0.9675117939868744,0.22133499,-0.014987,-0.121273,1.0,0.0,0.0,0.0,29.289593551953544
4.2841,16833.2623,-1.3820203803543591,-9.666871272547613,-4.622167075937915,-2.775034901469332,1.018258801779863,-5.636913282585221,3.245769129658159,36.91079616118022,-15.606746649490542,-20.305061,-19.13045000551452,0.0,20.305060999999995,0.969741859306094,0.172547,-0.019343,-0.17162199,1.0,0.0,0.0,0.0,28.261157761926675
4.3004,16833.2823,-1.9911228142076203,-9.956731077815448,-3.510450365556874,-2.9400540449972974,0.6196065708800487,-5.604835262140762,2.880500930823546,36.651636037193754,-16.39388745296683,-25.862988,-25.044100952233723,0.0,25.862988,0.9665263181595212,0.12929,-0.020259,-0.220682,1.0,0.0,0.0,0.0,29.73297219094924
4.3199,16833.3024,-2.8561821258775026,-10.19604841270581,-2.3087706734423126,-3.17252253326442,0.36374537874142554,-5.58237593422213,3.0454447373333924,36.314303153181825,-17.21274744712173,-32.009655,-31.610294616659207,0.0,32.00965500000001,0.9573832569297837,0.085031,-0.026197,-0.27477399,1.0,0.0,0.0,0.0,33.57471226332741
4.3396,16833.3225,-3.9833423544327715,-10.168127070099883,-0.6784992382147781,-3.3195055243840184,0.16159971953011,-5.54565042539324,3.4914087965104095,35.76900152678689,-18.423091449915095,-38.436581,-38.45329364353557,0.0,38.43658099999999,0.9426329418165376,0.035013,-0.038198,-0.32978499,1.0,0.0,0.0,0.0,39.00293474915976
4.3617,16833.3425,-5.073199800410628,-9.654498075538147,1.510317476407323,-3.281036970241818,-0.11186316991042822,-5.459743898043883,3.61097739443394,34.961773460420396,-20.087236615276407,-44.715687,-44.89275491381438,0.0,44.715687,0.9233783641189564,-0.02205,-0.051724,-0.379751,1.0,0.0,0.0,0.0,45.149834503630245
4.3787,16833.3626,-5.913026993535745,-8.70740611021227,3.938608647825527,-3.019456901206126,-0.5064139924655424,-5.33608902163205,3.3159709082234414,34.12844428877003,-21.62809625183533,-50.90657,-50.72835603617335,0.0,50.90656999999999,0.9000522036901637,-0.077677,-0.063497,-0.42407599,1.0,0.0,0.0,0.0,51.6701399452952
4.398,16833.3827,-6.5608558986425844,-7.836921689531236,6.021118460150651,-2.6031638741759724,-0.9608759889177652,-5.231925810095177,2.9485457977342904,33.83386072663025,-22.07207123410776,-57.205425,-56.374529635499606,0.0,57.20542499999999,0.8736649202079708,-0.116462,-0.070275,-0.467127,1.0,0.0,0.0,0.0,58.225277951720514
4.4505,16833.4027,-7.402456572317428,-7.362701724103409,7.405726691784235,-2.0940735781840214,-1.5159815528869616,-5.224592755427916,2.6800736610157774,34.04002526348287,-21.503868451206294,-63.115692,-61.966508065158926,0.0,63.115691999999996,0.8468724260098326,-0.13341901,-0.080977,-0.50837898,1.0,0.0,0.0,0.0,64.25378142621544
4.457,16833.4228,-8.493340719905376,-6.934752497999556,8.188749393762212,-1.6752944796285838,-2.20007192094129,-5.256503240187514,2.3097707743163216,34.15944717791231,-20.91161682373004,-68.871101,-67.75160940356467,0.0,68.871101,0.8181729946749892,-0.141077,-0.097107,-0.54887199,1.0,0.0,0.0,0.0,70.19536099334879
4.4707,16833.4428,-9.901973650363018,-6.266519763928896,8.366774698484665,-1.428529717561081,-2.8952038962100404,-5.291791713602449,2.1071859494955554,34.106072456994795,-20.585052196914255,-75.067978,-74.3559937088996,0.0,75.067978,0.7838281041191366,-0.142919,-0.118306,-0.592614,1.0,0.0,0.0,0.0,76.7751564811237
4.4839,16833.4628,-11.474702738403519,-5.267712690770273,7.974448465756119,-1.3197942594956948,-3.5186183466744803,-5.309947580372233,1.9792241316640933,33.948315706185795,-20.636620989343538,-81.353996,-81.51980752659355,0.0,81.353996,0.7443716500578995,-0.139971,-0.145101,-0.63660401,1.0,0.0,0.0,0.0,83.78968643170072
4.5107,16833.4829,-12.992543111806633,-3.9760054161413776,7.11873366463719,-1.2715230206125514,-4.0445803500243125,-5.305995349255295,1.8777770062193273,33.73259902301787,-21.076990087083225,-87.323044,-88.9099300150383,0.0,87.323044,0.7012983783682948,-0.132929,-0.177479,-0.677504,1.0,0.0,0.0,0.0,90.93746775933204
4.5258,16833.503,-14.183649433272834,-2.5630477176737863,6.026036190787945,-1.2767355441406472,-4.46027459874918,-5.302254853859245,1.717200108346491,33.630047242001176,-21.55271497932716,-92.945045,-96.26046004638185,0.0,92.945045,0.656303395361032,-0.122529,-0.209341,-0.71444303,1.0,0.0,0.0,0.0,97.96289133390623
4.5426,16833.523,-14.975686805211108,-1.0311674306623517,4.848659567952941,-1.3456352627197339,-4.79540632467509,-5.298732268350211,1.5766479898736554,33.693303603815394,-21.833884834194546,-98.50798,-103.63997331213633,0.0,98.50798,0.609098301194577,-0.109702,-0.238527,-0.74837798,1.0,0.0,0.0,0.0,104.9513344193502
4.5652,16833.5431,-15.395972254392614,0.8130060139899289,3.518383435183681,-1.4853722119012054,-5.0970810716825365,-5.237475259710538,1.7773938499209425,33.73806330995096,-22.087115498465206,-104.378006,-111.5141504430227,0.0,104.378006,0.5563988492567536,-0.09562,-0.269324,-0.78021902,1.0,0.0,0.0,0.0,112.38576362192715
4.5788,16833.5631,-15.352956019958821,2.771598373474535,1.9149117896664993,-1.6613084912963765,-5.322156390246367,-5.103779568439297,2.2602199102082157,33.814200188853455,-22.214499688056677,-110.4776,-119.80794062865668,0.0,110.4776,0.4993365371485245,-0.077506,-0.301967,-0.80837601,1.0,0.0,0.0,0.0,120.0877693001686
4.6045,16833.5832,-14.691885626034114,4.643017588881247,0.0700887304297595,-1.8508422619662483,-5.43465988000741,-4.857261705699195,2.9040406615286685,33.84134084997751,-22.36681581036923,-116.693672,-128.32860191047592,0.0,116.693672,0.4393937204410629,-0.056882,-0.33730999,-0.83061397,1.0,0.0,0.0,0.0,127.86959096571914
4.6216,16833.6033,-13.420109343025409,6.195148114850289,-1.9254324823424174,-2.002600708844566,-5.424569263285664,-4.46765891938772,3.711699010351637,33.69235548665748,-22.768226110440168,-122.839035,-137.00295608081927,0.0,122.839035,0.3778843402154143,-0.034054,-0.37806901,-0.84445697,1.0,0.0,0.0,0.0,135.5946095062895
4.6402,16833.6233,-11.668143810100286,7.134438850973222,-3.624761171018406,-2.1317059785603925,-5.24270912037582,-4.007068292877841,4.469859600256061,33.68105597231414,-22.999586458556685,-129.214813,-145.3484467991678,0.0,129.214813,0.3187325386092226,-0.009598,-0.41683799,-0.85121298,1.0,0.0,0.0,0.0,142.8274169940714
4.7,16833.6434,-9.767748977837936,7.460628050631372,-4.692496909957095,-2.2780665816661676,-4.928804119835415,-3.522485413108182,4.946706827463482,34.009988452217726,-22.79555778078732,-135.988159,-152.87376856628097,0.0,135.988159,0.2654071350550314,0.014269,-0.44931,-0.85292202,1.0,0.0,0.0,0.0,149.2177075482331
4.7066,16833.6634,-8.025406136794397,7.425106761633353,-5.199321853241751,-2.4993860186530394,-4.588036817182947,-2.9863108196432036,5.145602996714983,34.47273484653477,-22.423855616674498,-142.862579,-159.48956966349064,0.0,142.862579,0.2179261344146669,0.03402,-0.47912201,-0.84958398,1.0,0.0,0.0,0.0,154.82549193759988
4.7106,16833.6835,-6.548382077071584,7.200155731317558,-5.298688226081197,-2.846700880256702,-4.256310544905065,-2.402291963109949,4.9778612968666565,35.04407311259792,-21.922061119934607,-149.254959,-164.81927765423706,0.0,149.254959,0.1776483800609481,0.045921,-0.50569302,-0.84297502,1.0,0.0,0.0,0.0,159.5343710866588
4.7312,16833.7036,-5.266428182278291,6.796586129601321,-5.065561973277763,-3.324472637114879,-3.891327415274547,-1.841474748424923,4.274131709171937,36.119795460837416,-20.610470190824337,-154.372955,-168.1933304568266,0.0,154.372955,0.1480826874296204,0.047823,-0.52034497,-0.83965802,1.0,0.0,0.0,0.0,162.9683363984056
4.7404,16833.7236,-4.279956658246679,6.3958370293770965,-5.10262785543202,-3.8215328485644426,-3.5489697531607565,-1.3528485683511464,3.645322128790509,37.06268131871843,-19.27095343987551,-159.399887,-171.35184904985044,0.0,159.399887,0.1240590582660483,0.055626,-0.53831398,-0.83170497,1.0,0.0,0.0,0.0,165.74715831855752
4.7585,16833.7437,-3.4941900943800386,6.018069723203112,-5.395950007077816,-4.342317542613796,-3.22482395336908,-1.0061527305518765,2.5633890509940453,38.00825731817271,-17.665495043650864,-163.765274,-173.8600326675018,0.0,163.765274,0.1108008993254099,0.070095,-0.55621898,-0.82062799,1.0,0.0,0.0,0.0,167.27702809455997
4.7814,16833.7637,-2.689816856524611,5.778123754780281,-5.99844409446232,-4.969088602118744,-2.8372369053616566,-0.7554279301598509,1.6952123730202937,38.84926333879553,-15.877447415778523,-168.063904,-176.0443103122819,0.0,168.063904,0.1002061179342844,0.082369,-0.57612801,-0.80700099,1.0,0.0,0.0,0.0,168.49792043269233
4.8016,16833.7838,-1.7519656620432318,5.6376535309456965,-6.996025995949572,-5.724493949871721,-2.272944574580253,-0.46417474659448615,1.8793406467948555,39.49609796582526,-14.220348210014338,-172.305222,-177.93528283592985,0.0,172.305222,0.084737918651561,0.081902,-0.60262603,-0.78927398,1.0,0.0,0.0,0.0,170.2780913164392
4.822,16833.8038,-0.9369445358831673,5.298692506548587,-8.39601927592413,-6.471300015568058,-1.6267085740785114,-0.1124265956182405,2.4154264544918846,40.07586657325791,-12.618738112524094,-175.999496,-179.23911464934062,0.0,175.999496,0.0715484466137422,0.076199,-0.63413,-0.76612902,1.0,0.0,0.0,0.0,171.79414056281493
4.8416,16833.8238,-0.5462762244344536,4.516554637158428,-10.050821213461578,-7.0991273875570755,-1.1529061188359708,0.22170616387107905,1.993656765974017,40.749535404153136,-10.751742466987011,-179.071152,-179.90079371694355,0.0,179.071152,0.0713599829876651,0.077914,-0.66570002,-0.738702,1.0,0.0,0.0,0.0,171.81579224786904
4.8603,16833.8438,-0.5738614336785357,3.192681524148417,-11.756203671974546,-7.580198678271923,-0.9211884160470131,0.5390496117018272,0.6829352648528256,41.3447623631437,-8.908122179857122,-178.264847,-179.9824950854362,0.0,178.264847,0.083497861139311,0.08408,-0.69879198,-0.70544201,1.0,0.0,0.0,0.0,170.42069687064375
4.8799,16833.8639,-0.857693751649131,1.3135062361202614,-13.227038659401792,-7.896725164202714,-0.7319880636793292,0.8649982538471526,-0.04896108332390857,41.68942633489547,-7.5392559450107495,-2.370378,-179.74332890647727,0.0,2.370377999999988,0.0956951860513349,0.083278,-0.736929,-0.66395998,1.0,0.0,0.0,0.0,169.01733331999228
4.9043,16833.8839,-1.2639108370284495,-1.0964068062109682,-14.151144257094534,-8.051217695564574,-0.5002413234727294,1.119944631851464,0.22383762238090021,41.60227652041128,-7.8517222347841376,0.349569,179.90582314582787,0.0,0.34956900000000246,0.1010146196017185,0.07828,-0.78775299,-0.60258901,1.0,0.0,0.0,0.0,168.40480046382154
4.927,16833.9039,-1.640183627124161,-3.657376903784539,-14.31199472762409,-8.067807503770517,-0.4087162795315566,1.3209414186376514,0.4498451411760158,41.3901294397232,-8.030010404988609,2.328042,179.00345543271078,0.0,2.3280420000000106,0.1069076451118439,0.078793,-0.833718,-0.53598201,1.0,0.0,0.0,0.0,167.7258293635178
4.9414,16833.9239,-1.7852816151367992,-6.139526858686038,-13.788011013146104,-7.992812109154912,-0.49856628324885766,1.4749819318121342,0.20987404554389555,41.118691362997176,-7.895531636362968,4.448093,177.43739931944305,0.0,4.448093,0.1173088009578127,0.087162,-0.87272102,-0.465832,1.0,0.0,0.0,0.0,166.5263777109609
4.9825,16833.944,-1.6610337821171979,-8.422955174178961,-12.654734445768215,-7.854087897799426,-0.7224259760487489,1.592719401419423,-0.3060430159427201,40.85077984724075,-7.6602902311534145,6.475294,175.37341687045753,0.0,6.475293999999991,0.132279895314743,0.099424,-0.90526998,-0.39128399,1.0,0.0,0.0,0.0,164.79728264403678
4.9924,16833.964,-1.4464942971033596,-10.455821135252245,-10.507151541034055,-7.64715443292456,-0.9122409590551059,1.8342618749575303,-0.6695853440614301,40.31074798543085,-9.193851452516327,7.506046,173.4961576139765,0.0,7.506045999999998,0.1550186422606643,0.105254,-0.93713301,-0.294402,1.0,0.0,0.0,0.0,162.16424511160474
5.0049,16833.984,-1.3580193327255996,-11.914377255740035,-7.695400541073271,-7.411678775841314,-1.0006285622294173,2.060273565581841,-0.3359597066104829,39.769450003833256,-10.923320208615747,9.000325,171.18730170878507,0.0,9.000325000000004,0.167796200733151,0.108295,-0.96032399,-0.194665,1.0,0.0,0.0,0.0,160.68057968599825
5.024,16834.0041,-1.6376245285929385,-12.638626908079997,-4.337715913946443,-7.117799822076813,-0.8622083786278671,2.3315251298443416,0.5992326016416127,39.13905233454954,-12.7039239601549,10.665743,168.89129411840108,0.0,10.665742999999992,0.1695024776860789,0.109184,-0.97476798,-0.095787,1.0,0.0,0.0,0.0,160.48221334630526
5.0395,16834.0241,-2.2209039900751613,-12.449554818253,-0.605031042497437,-6.701727870598817,-0.4237080959780344,2.6860063682647937,1.5382857696541468,38.29243506399822,-14.53982739889847,12.82145,166.43022616209345,0.0,12.821449999999999,0.1668066034294793,0.11276,-0.97951698,0.002688,1.0,0.0,0.0,0.0,160.795600313055
5.0599,16834.0441,-2.8099605540096078,-11.413258746899254,3.0225724448823943,-6.118245560847984,0.30174580153426,3.093991679940999,2.08924110899075,37.41626664305487,-15.987106947817109,15.897292,163.45720342629443,0.0,15.897291999999993,0.1685756568110578,0.122998,-0.97345698,0.093996,1.0,0.0,0.0,0.0,160.5899698860586
5.0822,16834.0641,-3.021228788873443,-9.867107753052478,6.129771587949916,-5.368129159189406,1.2138485985331604,3.483420282475838,2.2105682914250746,36.70125435848743,-16.953686028955104,20.290857,159.59027091083007,0.0,20.29085699999999,0.181194594451655,0.14101399,-0.95776099,0.17314,1.0,0.0,0.0,0.0,159.12130143691374
5.0997,16834.0841,-2.6430081574669675,-8.620647792185583,8.291693702887237,-4.516369460756811,2.072731519175572,3.81205155103894,2.0400572185374077,36.54725133871801,-16.860627060499397,26.052967,154.5543677363991,0.0,26.052966999999995,0.2024772498084649,0.16906001,-0.93697298,0.22913601,1.0,0.0,0.0,0.0,156.63628126122524
5.1261,16834.1041,-1.8202508205574226,-7.728930658200916,9.633185932839833,-3.6753941260332708,2.833229204279051,4.024935111585036,1.9338333946966095,36.564930850971976,-16.60388707855587,32.731052,148.71510538591863,0.0,32.731052000000005,0.2284110052152028,0.20263501,-0.91234702,0.272746,1.0,0.0,0.0,0.0,153.59292196525323
5.1516,16834.1241,-0.7738800007385693,-7.422308803142986,10.190806582540066,-2.9562507559508573,3.4360652431821483,4.150289427677703,2.0704424315063292,36.780916203154355,-16.092300219423176,39.66267,142.49672323773135,0.0,39.66266999999999,0.2541693250324671,0.239902,-0.88607299,0.304499,1.0,0.0,0.0,0.0,150.55126131486196
5.1605,16834.1441,0.4569370925200662,-7.626874417415276,10.157625118601327,-2.419536291313172,3.8923652121855086,4.240602915329151,2.3849035542770167,37.169669959200775,-15.359145407569876,46.560474,135.96969083756522,0.0,46.560474,0.2792764593933756,0.28037599,-0.858114,0.32716101,1.0,0.0,0.0,0.0,147.5659473989227
5.1791,16834.1641,1.8786627256974961,-8.054726775755249,9.738641262050368,-2.086285120483974,4.237769433235496,4.318402362390013,2.79182653347128,37.68944254970933,-14.497583021497437,53.352509,129.1488319367745,0.0,53.352509,0.3037045018885293,0.32360199,-0.827465,0.34401599,1.0,0.0,0.0,0.0,144.63951878183042
5.211,16834.1841,3.506926119110285,-8.310627830341588,9.094101475307216,-1.917480205634048,4.515223619189756,4.379808247676496,3.242940483915433,38.25576954621684,-13.725580961912613,60.023182,122.02738422583218,0.0,60.02318199999999,0.3288774031905185,0.36827901,-0.79252303,0.35793501,1.0,0.0,0.0,0.0,141.59869479893797
5.2416,16834.2041,5.22487603148229,-8.137066226179334,8.279367776693974,-1.841493282691927,4.74794527892606,4.414573431569268,3.791621621740779,38.81083195123348,-13.132820860086358,66.326057,114.80237297179767,0.0,66.32605699999999,0.3548450623247834,0.41227999,-0.75348002,0.36929399,1.0,0.0,0.0,0.0,138.43210218036248
5.2474,16834.2241,6.901427417540285,-7.358385409284541,7.298297188398966,-1.7983622503939847,4.9576989381914185,4.385222909208043,4.2696390410480465,39.26541017123258,-12.85654197601488,72.287544,107.5163456266066,0.0,72.287544,0.3813611316699168,0.45498201,-0.70984501,0.37904501,1.0,0.0,0.0,0.0,135.16396040396472
5.2607,16834.2441,8.382639650866953,-5.975456656503821,6.103422389259618,-1.7646398989983094,5.151557101264185,4.243668643532019,4.431511284276335,39.568497080803134,-12.896183909324401,77.978333,100.19604617152369,0.0,77.97833300000002,0.4075307772999972,0.496461,-0.661403,0.38728699,1.0,0.0,0.0,0.0,131.90036762098632
5.2847,16834.2641,9.505428421546078,-4.20013847997701,4.636579553650854,-1.753200039734788,5.310426802187447,3.963857193401296,4.170981779891855,39.76151361095646,-13.058130349793606,83.346107,92.90491366827455,0.0,83.34610700000002,0.4322419198121806,0.53662699,-0.60917699,0.39255801,1.0,0.0,0.0,0.0,128.7801552709992
5.301,16834.2841,10.174495747558222,-2.3801905417588927,2.884909696540607,-1.7670690078130642,5.411517229220705,3.5585422988959112,3.671627125122192,39.93003859342374,-13.21130220587904,88.045364,85.62149071858539,0.0,88.045364,0.4568396236532023,0.57393998,-0.555233,0.391927,1.0,0.0,0.0,0.0,125.63327708218748
5.3243,16834.3041,10.36019660628443,-0.8135498038048657,0.9536502106758817,-1.8289739345463927,5.43619383439024,3.069180741668299,3.119046187585569,40.143182787268465,-13.393388754428006,91.845192,78.39630034043492,0.0,91.845192,0.4824754072262953,0.60644299,-0.50143898,0.38471201,1.0,0.0,0.0,0.0,122.30560009726702
5.3394,16834.3241,10.097611515504012,0.315353013148462,-0.9617005632381037,-1.9533416624929048,5.377620526033379,2.5622315274456433,2.6461287820895425,40.39497823465874,-13.634916061296163,94.646088,71.42223999543295,0.0,94.64608800000002,0.5090487578595392,0.63257599,-0.44984001,0.37196901,1.0,0.0,0.0,0.0,118.79902253424157
5.3611,16834.3441,9.494698557587881,1.0614165293687776,-2.671545588569712,-2.150683719258556,5.256658432091621,2.0713968231557014,2.120990005750766,40.53229425185496,-14.117312258110896,96.591255,64.80880083026501,0.0,96.59125499999999,0.5368697743507447,0.65149498,-0.39940801,0.35748899,1.0,0.0,0.0,0.0,115.05839205096098
5.3839,16834.3641,8.67777214077242,1.5101502371029194,-4.036549941873163,-2.407574455705998,5.1060083019380915,1.615473447072211,1.5592918789878745,40.45353494287302,-14.786160012535323,97.641632,58.823880099189175,0.0,97.64163200000002,0.5651144107653775,0.66259599,-0.35121101,0.343894,1.0,0.0,0.0,0.0,111.17952685256253
5.4142,16834.3841,7.644064587533256,1.7316767365116812,-4.795120940536688,-2.756078486775521,4.945561717529789,1.168175880705693,1.4334045900777692,40.338368724465845,-15.003072798253777,98.028732,55.299243700109045,0.0,98.02873199999999,0.5847026569138702,0.66468197,-0.31676099,0.340563,1.0,0.0,0.0,0.0,108.43602627279643
5.4465,16834.4041,6.710151056985539,1.8589228525868768,-5.373757664307638,-3.139670486311563,4.817639704699556,0.7762796407397379,1.2922592240668713,40.1894618357108,-14.86865730985405,97.766907,52.18308427205754,0.0,97.766907,0.6037247014492115,0.66372102,-0.28621101,0.336265,1.0,0.0,0.0,0.0,105.72574380744051
5.453,16834.4241,5.912520960459906,1.9465663346789563,-5.912634957388779,-3.567753987301696,4.74435351057525,0.42778056890669514,1.1616870705009514,40.01021949506748,-14.421060987565253,96.659576,49.23084219184639,0.0,96.65957600000002,0.6238769264449037,0.65970701,-0.258544,0.32972601,1.0,0.0,0.0,0.0,102.80039153082173
5.4673,16834.4441,5.237034308259618,1.9960733014432699,-6.521152462603702,-4.023130209847975,4.729524217160117,0.08891753495944776,1.0619673286450704,39.79003297745356,-13.781619868551388,94.362015,46.36049665938498,0.0,94.36201499999999,0.6468603963046122,0.65134299,-0.23272499,0.32119,1.0,0.0,0.0,0.0,99.3893893505651
5.4815,16834.4641,4.648141856807689,1.9705221319386395,-7.266641939429331,-4.464075818499045,4.740082319675796,-0.2906968911646275,0.8334119326785352,39.52505044766702,-13.10777626090389,90.673653,43.516304511478786,0.0,90.673653,0.6733508437716399,0.63761902,-0.206349,0.31218699,1.0,0.0,0.0,0.0,95.34757134234852
5.5099,16834.484,4.132711169813305,1.749640737466565,-8.149913997911657,-4.793462320199819,4.7518536416554875,-0.7522910042141211,0.5595837094724434,39.20372351448352,-12.503829915082928,85.132973,40.538597399342926,0.0,85.13297299999999,0.703724667679469,0.61810303,-0.179574,0.30078799,1.0,0.0,0.0,0.0,90.54679247753775
5.5307,16834.504,3.67537381688609,1.2422723171918864,-9.075181970634974,-4.959376912255425,4.701977344342403,-1.334055450843867,0.09814042640118803,38.814236338444324,-12.012849840650482,77.924736,37.509917161958946,0.0,77.924736,0.7358191492243042,0.59367597,-0.152481,0.28786901,1.0,0.0,0.0,0.0,85.24704293130776
5.5394,16834.524,3.296561992261786,0.3755054474076914,-9.891666982753538,-4.91528497428207,4.575482566627566,-2.0321894208379767,-0.3819999274205548,38.411570927544865,-11.553247016444507,69.3573,34.48796171831561,0.0,69.35730000000001,0.7677529681954733,0.56585002,-0.12871601,0.27166399,1.0,0.0,0.0,0.0,79.69493211274204
5.561,16834.544,2.985764591525692,-0.8462836836949168,-10.5423134635145,-4.733204952826304,4.3621676362650135,-2.7167989860991493,-0.9424057927074836,37.980050388804884,-11.543249788490524,57.887352,29.879507644167695,0.0,57.88735199999999,0.8035614068672655,0.53447503,-0.09919,0.24246,1.0,0.0,0.0,0.0,73.05689955441197
5.582,16834.564,2.6738809368139753,-2.3258555647505634,-10.892595132974522,-4.492638932743693,4.103918627756698,-3.3138075587672864,-1.3017331726163732,37.74815416905568,-11.651407493977612,44.295826,24.063212608032618,0.0,44.295826000000005,0.8386813337698411,0.50150102,-0.069286,0.200773,1.0,0.0,0.0,0.0,65.99773484583187
5.6016,16834.584,2.303622911593231,-3.90432518869089,-10.925382825027864,-4.2196168717312785,3.882451825371629,-3.7935686322010636,-1.1293469669451683,37.86804795487592,-11.493071004510805,31.010168,17.989536522235753,0.0,31.010167999999993,0.8684078063877477,0.46969101,-0.048219,0.151437,1.0,0.0,0.0,0.0,59.45171958534414
5.6312,16834.604,1.8393164210441872,-5.45084536815158,-10.722451310690463,-3.991984910853254,3.700478144357315,-4.126291081591954,-0.6944323171700111,38.20870003503077,-11.17686689531209,18.924772,11.79007637816476,0.0,18.92477199999999,0.8926447604540118,0.438667,-0.032132,0.098611,1.0,0.0,0.0,0.0,53.58501781634354
5.642,16834.624,1.2902001100522562,-6.906110961503559,-10.324384894069555,-3.8618286970757216,3.530981855935851,-4.3245301219802865,-0.29709663936325126,38.59859793562364,-10.886873754548127,8.084966,5.424725123332445,0.0,8.084966000000009,0.9124187383887948,0.40649,-0.015309,0.044984,1.0,0.0,0.0,0.0,48.316454151829745
5.6614,16834.644,0.6958412815189903,-8.251665180993125,-9.662659246111685,-3.7965964594898827,3.3095869951369723,-4.485896254005038,-0.028016773788570315,38.84943740015974,-10.973154079455787,-0.96369,-0.7017686659313566,0.0,0.9636900000000139,0.9295476559101312,0.36864901,0.001097,-0.006153,1.0,0.0,0.0,0.0,43.271175457671504
5.7083,16834.664,-0.018683176188178385,-9.413990806495084,-8.39785021413887,-3.7087241958215085,2.8741023599248696,-4.77172510426872,0.4569103602418263,38.497556277738596,-12.696198015079531,-8.186375,-6.623029493646669,0.0,8.186374999999998,0.949056719652656,0.30965701,0.010088,-0.057464,1.0,0.0,0.0,0.0,36.73434016706865
5.71,16834.684,-0.8662527298683901,-10.269382879311305,-6.821233470723929,-3.6654475550422148,2.345711096164552,-4.990022042910814,0.9056244985715498,37.88975541378979,-14.541443277639742,-14.695275,-12.93337830347176,0.0,14.69527500000001,0.9624516916474302,0.24675,0.017299,-0.111812,1.0,0.0,0.0,0.0,31.50149644412593
5.7272,16834.704,-1.7915799193799098,-10.776566723982112,-5.1160569376906855,-3.6902024783201477,1.7684932045339454,-5.089901189802966,1.17967166296725,37.26627448954585,-15.981202574193418,-20.844135,-19.452718979294406,0.0,20.844134999999994,0.9678508643101994,0.186143,0.023089,-0.167578,1.0,0.0,0.0,0.0,29.13551586210988
5.7404,16834.724,-2.7050800837995146,-10.965251519267515,-3.3676769373573023,-3.779295988106073,1.168042741373338,-5.078267350395531,1.2331965055666618,36.77212230401229,-16.988500892464412,-26.661003,-25.839221569999566,0.0,26.661002999999994,0.9661073695635491,0.128967,0.025519,-0.222155,1.0,0.0,0.0,0.0,29.91951662893603
5.7594,16834.744,-3.5339601450334013,-10.91228717267742,-1.5760971077405,-3.890832883197149,0.5760539850528732,-4.99513909035021,1.1032340833572398,36.45349953277959,-17.720742310933453,-32.15403,-31.842000524304414,0.0,32.154030000000006,0.9587211343255034,0.074876,0.022123,-0.27341899,1.0,0.0,0.0,0.0,33.03975903740926
5.7889,16834.764,-4.234921195449498,-10.625097876334324,0.39317581539003044,-3.969971772751843,-0.010289358729024034,-4.883131661506385,0.8377155428996588,36.16991400525896,-18.553475412136258,-37.502861,-37.48421527399631,0.0,37.502860999999996,0.946740584657191,0.020534,0.012415,-0.32110199,1.0,0.0,0.0,0.0,37.56751320038622
5.8094,16834.784,-4.832515058540119,-10.092657434379904,2.5744400035276715,-3.942187945208406,-0.608718607070935,-4.786282063605249,0.4870555001460559,35.84635001567574,-19.564154399919556,-42.876049,-42.79307228562949,0.0,42.876048999999995,0.9304707305527024,-0.032885,-0.004131,-0.36486399,1.0,0.0,0.0,0.0,42.98337494254557
5.8299,16834.804,-5.269490073361714,-9.328250619679057,4.906210601407643,-3.8397550659175446,-1.2276665249633623,-4.679917750231608,0.016618268359351873,35.519710406580984,-20.558631250280012,-48.65464,-48.09461215296859,0.0,48.65464,0.9093253545346242,-0.083192,-0.020352,-0.40717599,1.0,0.0,0.0,0.0,49.175427222781565
5.8404,16834.824,-5.841648630044945,-8.672173172627081,6.969936325318471,-3.6160124460110685,-1.8309556326392729,-4.666179902642785,-0.2175139861756925,35.54575075139538,-20.81638225883896,-54.748455,-53.60906341391428,0.0,54.74845500000001,0.8847291390934855,-0.117092,-0.039281,-0.44944501,1.0,0.0,0.0,0.0,55.56358504553531
5.8645,16834.844,-6.713515375125407,-7.960941554536981,8.71960682459483,-3.2936132447371484,-2.5468884280697597,-4.736860578911976,-0.3621466203889625,35.493502392795904,-21.01835821128448,-60.727558,-59.17945518791483,0.0,60.727558,0.8579778063286951,-0.141352,-0.067073,-0.48927999,1.0,0.0,0.0,0.0,61.81943259987072
5.8797,16834.864,-7.999036328672678,-7.1113899282420965,10.004282510875214,-2.947429422687946,-3.3425446557820875,-4.847852860677316,-0.31847342618132757,35.28323492693831,-21.28293758728754,-66.664192,-65.1577238866005,0.0,66.664192,0.8277578980450863,-0.15772299,-0.102764,-0.52856398,1.0,0.0,0.0,0.0,68.26179178636959
5.9001,16834.8839,-9.621329436399758,-6.1650152031990375,10.671452809335438,-2.6844958919193544,-4.11850817116443,-4.975010282043235,-0.04795028866112716,35.0911214146828,-21.336573525683637,-72.662575,-71.8162712425374,0.0,72.662575,0.7928193887000491,-0.165472,-0.140174,-0.56956798,1.0,0.0,0.0,0.0,75.10045219662602
5.9301,16834.9039,-11.384553725071056,-5.038103419538961,10.65054329870166,-2.552784379009264,-4.8322204125700745,-5.094236940002503,0.2138591046298295,34.93581430968281,-21.209089820059777,-78.540291,-78.95871275063878,0.0,78.540291,0.7535275008636377,-0.16661,-0.177417,-0.61070502,1.0,0.0,0.0,0.0,82.20625628538181
5.9479,16834.9239,-13.189306670095228,-3.462043265593038,9.819127041577154,-2.5019328919820483,-5.4786616886060395,-5.146191771876741,0.44550283870746954,34.62351540923241,-21.332912436193062,-84.122612,-86.59990453291697,0.0,84.122612,0.7090018175190518,-0.16378,-0.22009601,-0.64965397,1.0,0.0,0.0,0.0,89.69248322327388
5.9618,16834.9439,-14.805315784721534,-1.3914260585189258,8.017229472818684,-2.4958955877686417,-5.97042943293737,-5.097654525838348,0.9215297902583472,34.18185674475051,-21.753673295397192,-89.529572,-95.11361673666777,0.0,89.529572,0.6568998137997293,-0.15605401,-0.269317,-0.68673003,1.0,0.0,0.0,0.0,97.87227728069999
5.987,16834.9639,-15.727777126146888,0.8703740531195057,5.380053823548387,-2.5299453563262557,-6.188510992136046,-4.963536367133442,1.6190891404989056,33.86827296869122,-22.107196174911184,-94.82737,-104.35288096887064,0.0,94.82737,0.598110377080936,-0.14236601,-0.31937301,-0.72110802,1.0,0.0,0.0,0.0,106.53063418053945
6.0121,16834.9839,-15.609933575030606,3.0191766101436555,2.35130071094159,-2.575234492677883,-6.116073893313965,-4.7313852339685925,2.314295853030975,33.75888110789195,-22.32849666280667,-99.840721,-113.81956340016009,0.0,99.840721,0.5355810986136645,-0.124902,-0.36814299,-0.74968201,1.0,0.0,0.0,0.0,115.2333426502706
6.03,16835.0039,-14.461801671637406,4.841341862464986,-0.5192014505233331,-2.6334845712520702,-5.8132043378302996,-4.383816949974187,2.8965558797313484,33.76442681291213,-22.595327717469594,-104.359795,-123.07961217109157,0.0,104.359795,0.471809544307467,-0.107668,-0.41584799,-0.76998299,1.0,0.0,0.0,0.0,123.69635555849635
6.0468,16835.0239,-12.61315283527549,6.191857616717202,-2.7482223543920963,-2.75028305805309,-5.367302296111329,-3.9577006300209794,3.272532831256777,33.81173656593961,-22.98282053070438,-108.095444,-131.54583251156168,0.0,108.095444,0.4106054089972019,-0.093934,-0.46092799,-0.78110498,1.0,0.0,0.0,0.0,131.51425735661155
6.0657,16835.0439,-10.570853111920071,7.066021145853872,-4.111670659355387,-2.982638004427759,-4.85010815925765,-3.5731860058351623,3.38436419733506,34.0526803334144,-23.10344345896912,-111.164871,-138.7580325650628,0.0,111.164871,0.3563021300203519,-0.082435,-0.49872601,-0.78582799,1.0,0.0,0.0,0.0,138.25345991923612
6.0822,16835.0639,-8.730136626323137,7.699373023231317,-4.8171515627412775,-3.3770903257749065,-4.362468940670925,-3.280346378046965,3.292571428719203,34.43857324149946,-22.802733706879525,-113.551147,-144.8196084069638,0.0,113.551147,0.309809613515751,-0.071195,-0.53051001,-0.78581703,1.0,0.0,0.0,0.0,143.90448540861115
6.1034,16835.0839,-7.107169317749324,8.37806161490938,-5.298736171178357,-3.9974522064456095,-3.9350072059947925,-3.0279354334097555,3.404267174082518,34.72651795291045,-22.254208756452876,-115.194992,-150.2268349354563,0.0,115.194992,0.2658341472053572,-0.063465,-0.56112999,-0.78130502,1.0,0.0,0.0,0.0,149.16695231126764
6.1206,16835.1039,-5.443494391181722,9.027563765364155,-5.75798341679896,-4.866010645827309,-3.4509663259929884,-2.70303019823021,3.7817845038538778,35.07241756456797,-21.191384670310914,-116.212212,-154.37174155524818,0.0,116.212212,0.224124489019607,-0.067917,-0.587053,-0.77493501,1.0,0.0,0.0,0.0,154.09719936055967
6.1446,16835.1239,-3.7564677010364718,9.33284446103817,-6.583671904821145,-5.8000680436263,-2.870337280161059,-2.195043845234734,4.348522181436561,35.28635517776712,-19.978511833128344,-114.499352,-157.22470875880822,0.0,114.499352,0.1859827565876985,-0.082639,-0.61454898,-0.76217502,1.0,0.0,0.0,0.0,158.5631307314422
6.1684,16835.1439,-2.4048272621215454,8.940870892389741,-7.9260133953189,-6.568812951412886,-2.2793126432216533,-1.59825014390773,4.611140093799325,35.36432371709428,-18.864647356801377,-107.300827,-159.34165110799103,0.0,107.300827,0.1554337181615362,-0.094334,-0.648848,-0.73887599,1.0,0.0,0.0,0.0,162.1160973151049
6.1931,16835.1639,-1.5790195253983224,7.730132250933655,-9.34855678486625,-7.124463168476224,-1.7423550687387854,-1.0473881396143172,4.065242027943551,35.85489969296109,-17.102364808840875,-95.999916,-160.6464176483682,0.0,95.999916,0.1384017604532544,-0.098248,-0.68077201,-0.71256,1.0,0.0,0.0,0.0,164.0892528856418
6.2073,16835.1839,-1.2156585544442076,5.88618417684784,-10.625811235720661,-7.491717505000877,-1.2706934957583502,-0.5677471899477111,3.1188669780668756,36.629638348970346,-14.83444040571625,-82.383812,-161.3639015851389,0.0,82.383812,0.1303486141531223,-0.09903,-0.71017402,-0.68472999,1.0,0.0,0.0,0.0,165.0205242959322
6.2277,16835.2039,-1.2439161914267545,3.6248257448158685,-11.613042133195886,-7.65562687635739,-0.812683774316538,-0.06861896800570433,2.469062297958019,37.33217208514455,-12.787398479229171,-67.66346,-161.39119045009696,0.0,67.66346,0.125204739544953,-0.105036,-0.741485,-0.65076202,1.0,0.0,0.0,0.0,165.61484123717747
6.2446,16835.2239,-1.670256522348085,1.2224075091823208,-12.078396868195448,-7.56301397553232,-0.30218723348376486,0.503857016899703,2.7376005276175994,37.93832997517674,-11.086050508599511,-55.736778,-160.75421939961626,0.0,55.736778,0.1186366538572287,-0.119189,-0.77337801,-0.611233,1.0,0.0,0.0,0.0,166.3731469294896
6.2581,16835.2439,-2.460659553681658,-1.0013459226509291,-11.944908114693472,-7.2024749859416595,0.11277911388478185,1.194706094511926,3.2343617435803313,38.563140235756094,-9.454196082937099,-47.907074,-159.44827392143677,0.0,47.907073999999994,0.1195464015080309,-0.133788,-0.80258298,-0.56892002,1.0,0.0,0.0,0.0,166.26815029241004
6.2802,16835.2639,-3.262048043224029,-2.9474770267434467,-11.352694957615874,-6.722319141815623,0.3720905973017929,1.7392732447817347,3.3237401119514587,38.874977282339046,-9.377922017283892,-38.089169,-159.4912666193765,0.0,38.089169,0.1208461688316149,-0.134616,-0.84166098,-0.50880402,1.0,0.0,0.0,0.0,166.11812022126105
6.3009,16835.2838,-3.844199006893203,-4.46650226330892,-10.628782780732738,-6.283312726221678,0.44753771013040666,2.149638092753015,2.7619504623264635,39.37860570538223,-8.913471451744952,-30.575014,-160.4801520095438,0.0,30.57501400000001,0.1296423981318595,-0.122852,-0.87410998,-0.45169899,1.0,0.0,0.0,0.0,165.10214326358914
6.3227,16835.3038,-4.211547237359531,-5.640438479715199,-10.047891852244513,-6.001219129854849,0.40458832361566066,2.395458544527417,2.033591327714551,39.93473012059258,-8.373912384761175,-24.565453,-162.08095058504247,0.0,24.56545299999999,0.1408395698455505,-0.106324,-0.90101802,-0.396265,1.0,0.0,0.0,0.0,163.80713712636197
6.3411,16835.3238,-4.507026768007107,-6.64031019673388,-9.673316606831534,-5.904927921014741,0.25305948571797854,2.5498270278455766,1.4512797319472348,40.434753844921204,-7.855803676681987,-19.888792,-163.86543069725644,0.0,19.888791999999995,0.152296888978664,-0.090437,-0.92278498,-0.34219101,1.0,0.0,0.0,0.0,162.47988365233473
6.3592,16835.3438,-4.832306133604212,-7.655091720636781,-9.030062775567748,-5.890079213220215,0.11761331861766208,2.839561493067234,1.0277394264456827,40.51881415364393,-8.63217761443041,-16.457588,-165.09340748146423,0.0,16.457587999999987,0.169835019992813,-0.081847,-0.94323403,-0.273435,1.0,0.0,0.0,0.0,160.44354617520457
6.3827,16835.3638,-5.169238830470663,-8.749539146642078,-7.878156229089692,-5.890265799599797,0.11093095066240194,3.2358959707022286,0.9214615873003567,40.1259865333997,-10.355643137913189,-13.185269,-166.9106232897618,0.0,13.185269000000005,0.1830184539575711,-0.074879,-0.96121198,-0.19227301,1.0,0.0,0.0,0.0,158.9087483587664
6.4143,16835.3838,-5.364969191883773,-9.818196661523853,-6.069276622531937,-5.81493742366276,0.2937353382666491,3.656536322141432,0.8546566404480762,39.37209022827247,-12.320778883630066,-9.369971,-170.1427232238671,0.0,9.369970999999993,0.1881959771309672,-0.061907,-0.97455698,-0.104826,1.0,0.0,0.0,0.0,158.30495565573955
6.4264,16835.4038,-5.239935743035373,-10.580036835482307,-3.5528577995606145,-5.559666676295074,0.6739341650789755,4.05935557680999,0.5017628968509475,38.44358327433026,-14.100113484630779,-4.872328,-174.7397003957414,0.0,4.87232800000001,0.1928071376134708,-0.040205,-0.98028499,-0.015821,1.0,0.0,0.0,0.0,157.76669787434662
6.4412,16835.4238,-4.712827080448212,-10.763864312670783,-0.590331364455885,-5.069217067312737,1.194724046140363,4.411921846246316,0.029839588773343168,37.575266406707186,-15.338336731068441,0.201251,179.78228908576037,0.0,0.2012510000000134,0.2047994245648654,-0.012377,-0.97639501,0.067504,1.0,0.0,0.0,0.0,156.36448438292325
6.4597,16835.4438,-3.822157630026837,-10.318428375731987,2.365860380525147,-4.3732354450262045,1.7536972732081766,4.662286279996917,-0.15990393755810617,36.90376604806736,-16.061402012605413,5.875794,173.7284826657942,0.0,5.875794000000013,0.2245133475487808,0.018346,-0.96402198,0.14113399,1.0,0.0,0.0,0.0,154.0514741850963
6.4792,16835.4638,-2.6823727138685585,-9.47408926880461,4.885788795356344,-3.5665956209586263,2.23622421679492,4.7829823923126975,-0.007348828679080377,36.46441535636945,-16.478027167606236,12.404423,167.06621064855804,0.0,12.404423000000008,0.2468287720829158,0.052661,-0.94584799,0.204142,1.0,0.0,0.0,0.0,151.42013146228177
6.4988,16835.4838,-1.5419534319626624,-8.851060820082381,6.593557105128863,-2.7780313613716476,2.532863821316043,4.82237354322204,0.38996813649438344,36.46775927182902,-16.180918092356837,19.558792,160.12142819589752,0.0,19.55879200000001,0.2641707923181516,0.093278,-0.926929,0.249631,1.0,0.0,0.0,0.0,149.36462605439402
6.5294,16835.5038,-0.4609041466288506,-8.62369393529656,7.608438230437908,-2.062313953261085,2.746055208991216,4.825693266311976,0.8739579484787132,36.64509518557237,-15.615709757045652,26.978174,153.195388230446,0.0,26.978173999999996,0.2777015880919655,0.13816901,-0.907552,0.28309101,1.0,0.0,0.0,0.0,147.75384783366397
6.5485,16835.5238,0.6161346298892916,-8.828427777947956,8.080623409142405,-1.4578445114667886,2.9626113750893612,4.8229941889093535,1.4411901630659294,36.85115117699233,-14.963707733946247,34.275875,146.41691059051965,0.0,34.275874999999985,0.2906678510843604,0.1848,-0.887155,0.307111,1.0,0.0,0.0,0.0,146.20411296496712
6.564,16835.5438,1.7742189318058523,-9.36150957803747,8.166166987256837,-1.0037190722312648,3.220140809306803,4.83240978173407,2.074211685218735,37.06741460991501,-14.250969434148416,41.23032,139.72181420146475,0.0,41.230320000000006,0.3047751289749197,0.23206601,-0.86527097,0.32336301,1.0,0.0,0.0,0.0,144.51072871416
6.5934,16835.5638,3.0800203490201,-9.950571140242063,8.037331525709519,-0.7418679376232475,3.5381527469365475,4.850883954002098,2.5874943297626913,37.30053947651286,-13.520022713842652,48.000172,132.9582824386732,0.0,48.00017199999999,0.3191054597794583,0.280698,-0.84083402,0.33522901,1.0,0.0,0.0,0.0,142.78232896771937
6.6036,16835.5838,4.581971024250211,-10.277181975800582,7.822258453160721,-0.6845943642132214,3.92854463010235,4.860294619424603,2.822352233897618,37.56179510134489,-12.793651220321664,54.824154,126.01435111994674,0.0,54.82415399999999,0.3330889523820923,0.33128199,-0.81231201,0.34562001,1.0,0.0,0.0,0.0,141.0872600917524
6.6229,16835.6038,6.2493616980701425,-10.139716723280925,7.530269840819397,-0.7965274850203203,4.380153528886874,4.845050098995773,2.8815375606258247,37.87452877811224,-12.041554794587334,61.584465,118.89985014783186,0.0,61.584464999999994,0.3479940799583802,0.38249001,-0.77902198,0.354579,1.0,0.0,0.0,0.0,139.27065386269456
6.6442,16835.6238,8.024835593041459,-9.434945663446527,7.074974606977037,-1.0124689612924955,4.870245970612844,4.7932889133103,2.8996827831867087,38.22575672462809,-11.377351970716367,68.09417,111.48544933509159,0.0,68.09417000000002,0.3666698971108746,0.43281001,-0.74001998,0.36138499,1.0,0.0,0.0,0.0,136.97922557194497
6.6588,16835.6438,9.764252264266535,-8.175750865649738,6.332549198893108,-1.2676392216277113,5.370753685983612,4.6933541649175865,3.038932576486742,38.556864021520155,-11.001191716819182,74.036415,103.77484144906639,0.0,74.036415,0.3910270698766515,0.479882,-0.69526702,0.36526,1.0,0.0,0.0,0.0,133.96315641388034
6.6956,16835.6638,11.326714661099485,-6.418919064504772,5.185478547085678,-1.5532377201194305,5.8416680066382956,4.525472936365015,3.168030001631756,38.809207445800304,-11.032512625005673,79.415604,95.73968459351153,0.0,79.41560400000003,0.4203416879480313,0.52339,-0.644288,0.366427,1.0,0.0,0.0,0.0,130.2876768912439
6.7021,16835.6837,12.527744837263477,-4.334723013427258,3.54449832495251,-1.93387231103046,6.190692474179075,4.310681325579495,2.960121237392381,39.04710977024417,-11.105420556426735,84.534012,87.45883265699312,0.0,84.53401200000002,0.4495764451790591,0.56559598,-0.587668,0.364182,1.0,0.0,0.0,0.0,126.56697527809456
6.7194,16835.7037,13.16649937768663,-2.132283534893433,1.4322969672126877,-2.4115773360454114,6.36258229873056,4.059039186821437,2.4279160673339644,39.2531350902388,-11.022767346377078,89.309502,79.02573336194507,0.0,89.30950200000001,0.4782896021835717,0.60513198,-0.52644098,0.357651,1.0,0.0,0.0,0.0,122.8524945943932
6.738,16835.7237,13.089448044774084,-0.01622083047541034,-0.9997389465340554,-2.948651082656181,6.338107227107121,3.7646295505537686,1.6384096215013004,39.33340717404843,-10.868600588751052,93.599152,70.53027531889346,0.0,93.599152,0.5080979888863955,0.63909799,-0.46064401,0.34813401,1.0,0.0,0.0,0.0,118.92555882893046
6.7618,16835.7437,12.264110353567542,1.7359248841688195,-3.50182231059987,-3.430223451155798,6.168499135404055,3.385798020675906,0.8833524213675625,39.16965171690215,-11.026440033733122,96.692505,62.25005073578664,0.0,96.69250499999998,0.5429219152108153,0.661807,-0.39156801,0.33752301,1.0,0.0,0.0,0.0,114.23446266145275
6.7785,16835.7637,10.836407822074897,2.9155126152204054,-5.761396159877964,-3.791874997049746,5.896393635801536,2.9003163762336377,0.16404101411557015,38.833173811581545,-11.595809565349516,98.202911,54.57992937256771,0.0,98.20291099999997,0.5816315904072266,0.67143899,-0.32109299,0.328289,1.0,0.0,0.0,0.0,108.86923594469015
6.8013,16835.7837,9.103437363893514,3.4459908548004523,-7.497039843164235,-4.022894389821966,5.545640599352871,2.3365325857205166,-0.5953661331404163,38.56893991407972,-12.190669779675847,98.220581,47.88410434026888,0.0,98.22058099999998,0.6185154323230742,0.67116302,-0.25342199,0.32055601,1.0,0.0,0.0,0.0,103.58439131820307
6.8289,16835.8037,7.366047485870353,3.415062811766801,-8.338367428868063,-4.212592032198481,5.143005347211414,1.6579703745387755,-1.0154061413811872,38.702714169084196,-12.062500224576652,97.453835,44.068371061905836,0.0,97.45383500000003,0.6428075122647834,0.66419399,-0.20474599,0.32206199,1.0,0.0,0.0,0.0,99.99702276760716
6.8398,16835.8237,5.958931246560382,2.99251484838469,-8.713014570465432,-4.314822140823254,4.7998298866287925,0.9531237465932532,-1.169021061580235,39.116950520895884,-11.393130075624526,95.762657,41.47264206423452,0.0,95.76265699999999,0.6619609557729216,0.65511,-0.17041001,0.321868,1.0,0.0,0.0,0.0,97.10080310450675
6.8614,16835.8437,4.9570358226389555,2.3469529477076136,-8.902469608791142,-4.384183349656868,4.563762796371385,0.26744266533162975,-1.1981264293355078,39.515762370560054,-10.533761563079429,92.788246,39.16340158684599,0.0,92.78824600000002,0.6812093896127385,0.64415699,-0.144637,0.31637901,1.0,0.0,0.0,0.0,94.12355709948554
6.8815,16835.8637,4.312481590299189,1.5670107373002051,-9.052987460769868,-4.459062457770069,4.425465026680158,-0.3922040676617895,-1.2042153911508753,39.676626435564756,-9.716842272721465,88.234459,36.94935469792608,0.0,88.23445900000002,0.702628202046018,0.62990499,-0.123962,0.30686599,1.0,0.0,0.0,0.0,90.72350560504019
6.8988,16835.8837,3.9347846209332618,0.6771510720196587,-9.228784017222926,-4.513086740806807,4.354110779343408,-1.0454729474843119,-1.2408684449929606,39.51734372180495,-9.080833713943546,81.909218,34.81209790454852,0.0,81.90921800000001,0.7269052528708125,0.611022,-0.106391,0.29485899,1.0,0.0,0.0,0.0,86.7448519468741
6.922,16835.9037,3.723618540063132,-0.31227763295907035,-9.429396382044958,-4.4895845742267815,4.304965299252016,-1.730215973788682,-1.3103792949982718,39.05625339134958,-8.77174487391644,73.693619,32.70226182416565,0.0,73.69361900000001,0.754524353652895,0.58617097,-0.090809,0.28080299,1.0,0.0,0.0,0.0,82.032347631877
6.9496,16835.9237,3.5745701237512035,-1.3942124802960565,-9.662147623299843,-4.368025888509392,4.2416961157749915,-2.395989582503267,-1.369152277342724,38.44541602512946,-8.734435036487028,63.466408,29.75682789968074,0.0,63.466408,0.7852550333954816,0.55756003,-0.073542,0.25902301,1.0,0.0,0.0,0.0,76.51145622507298
6.9622,16835.9437,3.357178669412698,-2.5517361898185196,-9.97668446694149,-4.244996533756457,4.143123400342209,-2.886847643514972,-1.5092606549818042,37.912375515130336,-8.709440323822434,50.216824,24.385642361406138,0.0,50.216824,0.8170963878674532,0.53092402,-0.0451,0.220089,1.0,0.0,0.0,0.0,70.40964303774155
6.9819,16835.9637,2.95703053381008,-3.744775464513582,-10.206982609523578,-4.094126402386763,4.006730507885469,-3.289647105410124,-1.4031135421918601,37.59875780213771,-8.48550808465405,35.854633,18.308655827045698,0.0,35.85463300000001,0.845439665223415,0.50504601,-0.018815,0.172645,1.0,0.0,0.0,0.0,64.56185398380062
7.0023,16835.9837,2.3753432272230137,-4.889067221049635,-10.230874022870182,-3.9325793977799233,3.780977211202707,-3.6447311955970965,-1.2289069129437227,37.41440749033205,-8.253828027869051,22.152081,12.182511625965246,0.0,22.15208100000001,0.8701632307825928,0.477319,0.003673,0.122348,1.0,0.0,0.0,0.0,59.04477297991198
7.0282,16836.0037,1.7060521858340687,-5.887918626982256,-9.968587706003632,-3.7916228679867996,3.4192873921314266,-3.967899697404789,-1.2463361538067135,37.273618189149374,-8.205633141478621,10.194732,6.160992372538305,0.0,10.194731999999988,0.8922344605287335,0.445151,0.024262,0.0719,1.0,0.0,0.0,0.0,53.68922965505078
7.0394,16836.0237,1.0516893283770374,-6.660463469887464,-9.468841886056103,-3.672612547112837,2.95416651923658,-4.253096752042295,-1.4077092106907834,37.24669884776163,-8.16635196108897,0.569166,0.3787007193260257,0.0,0.5691659999999956,0.910853257383614,0.41018301,0.040286,0.021755,1.0,0.0,0.0,0.0,48.75293408229579
7.0612,16836.0437,0.43620286183597967,-7.1704103274811395,-8.707343803163745,-3.538584626052582,2.3631555663215735,-4.575387418319318,-1.278896804566832,37.21608957863676,-8.85627324280272,-6.787587,-5.014414055194638,0.0,6.787587000000002,0.9298648369338416,0.364097,0.043491,-0.029888,1.0,0.0,0.0,0.0,43.17248932595366
7.0795,16836.0637,-0.0699034485393345,-7.471080644208736,-7.853210637018043,-3.4951309037731746,1.7099639177927533,-4.830879254845408,-0.9821231962976862,37.19444928520502,-9.965421421891891,-12.999928,-10.547326432037924,0.0,12.999928000000011,0.945957978444603,0.310812,0.038843,-0.083968,1.0,0.0,0.0,0.0,37.84503723181985
7.0998,16836.0837,-0.3887040141679854,-7.773306963173685,-7.041963719474282,-3.60073708289594,1.101324889912373,-4.974273553974013,-0.7568141948820886,37.265348725037896,-10.838725924942553,-18.582973,-16.18190318131423,0.0,18.58297300000001,0.955735235937872,0.258333,0.031739,-0.13721099,1.0,0.0,0.0,0.0,34.22251003011622
7.1258,16836.1037,-0.543875228426066,-8.255820448162844,-6.099067741727189,-3.826423837711035,0.5186400082725968,-5.054251192544022,-0.6930766891946067,37.29629966493287,-11.698340520341537,-23.640354,-21.75889460792106,0.0,23.640354000000002,0.9605574095938254,0.20367999,0.023808,-0.187822,1.0,0.0,0.0,0.0,32.29150240622396
7.1417,16836.1236,-0.6877336194626271,-8.953876625310503,-4.802394793940225,-4.078474318634847,-0.04706661308869231,-5.1125917326250185,-0.6635224682550849,37.201174097945454,-12.632401661894132,-28.454966,-27.29854810810181,0.0,28.454966000000013,0.9604961543717913,0.146026,0.012856,-0.236555,1.0,0.0,0.0,0.0,32.31673478075538
7.1632,16836.1436,-1.0401101592996271,-9.714729540627134,-2.987191188718368,-4.234333410671837,-0.5940904187053748,-5.180112572326505,-0.5189330780182146,36.97104466350178,-13.690370687324146,-33.350147,-32.876876245520265,0.0,33.35014699999999,0.95479762171213,0.086772,-0.005485,-0.28425699,1.0,0.0,0.0,0.0,34.58580796890245
7.1839,16836.1636,-1.768627076357649,-10.263034474571503,-0.6663950638574168,-4.222035484098018,-1.1050568492684694,-5.239997852833043,-0.2685098878211356,36.674830743656216,-14.870816186344431,-38.674187,-38.68466500647087,0.0,38.67418700000002,0.9424885796522948,0.028776,-0.031205,-0.331532,1.0,0.0,0.0,0.0,39.052458605011786
7.2088,16836.1836,-2.851941253623444,-10.33303370429961,1.946815712208391,-4.047612420528899,-1.5660800876212324,-5.235352920767021,-0.07606610043291084,36.36955460643984,-16.150702445508134,-44.522545,-44.753352029755945,0.0,44.52254500000001,0.9235541743519324,-0.025936,-0.059442,-0.37794399,1.0,0.0,0.0,0.0,45.09732618428752
7.228,16836.2036,-4.22842890666917,-9.795281233674654,4.489282072629299,-3.7120824525804794,-1.9718537711397033,-5.162969578038326,0.10900172619546922,36.038751282726395,-17.502737218836284,-50.795765,-51.02216671399615,0.0,50.79576500000002,0.8985726592119526,-0.074468,-0.089903,-0.42301199,1.0,0.0,0.0,0.0,52.057841334040106
7.2432,16836.2236,-5.7825715076557564,-8.875438145007532,6.503028865648357,-3.244332381685848,-2.299021414327949,-5.061518663429548,0.2871636151117194,35.78309782525072,-18.55631961298694,-57.114967,-57.36412983653383,0.0,57.11496700000001,0.8694425032171362,-0.110161,-0.121282,-0.46607399,1.0,0.0,0.0,0.0,59.21216144931998
7.2588,16836.2436,-7.383977886290024,-7.939062142888272,7.734079020502378,-2.724714113206948,-2.5430616966921846,-4.971007712456084,0.5071371964579168,35.720737482412964,-18.970816090429352,-63.272572,-63.878990459107584,0.0,63.272572,0.8377016020916636,-0.12956899,-0.150565,-0.50872201,1.0,0.0,0.0,0.0,66.20359114878806
7.2786,16836.2636,-8.686878202411528,-7.006962148887627,8.390165257028624,-2.271082328713032,-2.824853886531353,-4.859198109696224,0.3827062082698376,35.64164443376135,-19.101580777689957,-68.954765,-70.11629467717184,0.0,68.954765,0.8053156342238734,-0.14189,-0.175795,-0.54811502,1.0,0.0,0.0,0.0,72.71850229936129
7.3013,16836.2836,-9.767770640149646,-5.99151735318996,8.60181307998673,-1.8926006406070766,-3.2165842914018405,-4.736462152913991,0.021740482771662073,35.43068660608212,-19.19923453435183,-74.22467,-76.25900559822695,0.0,74.22467,0.7713362228809949,-0.150666,-0.202416,-0.58426702,1.0,0.0,0.0,0.0,79.05193480764274
7.3234,16836.3036,-10.734542121781441,-4.7746089748176255,8.436422478155123,-1.6106313085184125,-3.7305433702534305,-4.586609073495715,-0.35895088824428534,35.101944731473424,-19.4053736292889,-79.331268,-82.6878258106422,0.0,79.331268,0.7336451855604315,-0.157198,-0.23276,-0.61877,1.0,0.0,0.0,0.0,85.61428061422626
7.3413,16836.3236,-11.587994113778887,-3.5082987426781442,7.868714270733637,-1.4675548967517753,-4.292989136457771,-4.428545209549113,-0.710527775596032,34.938948946517,-19.42466940152687,-84.294846,-89.44956706730552,0.0,84.294846,0.6927500747110601,-0.15760501,-0.26345599,-0.65257102,1.0,0.0,0.0,0.0,92.3036054066116
