AppTimestamp(s),SensorTimestamp(s),acc_x,acc_y,acc_z,gyro_x,gyro_y,gyro_z,mag_x,mag_y,mag_z,PitchX,RollY,YawZ,Quat_w,Quat_x,Quat_y,Quat_z
0.066,1686.2177,-3.60088,8.54969,8.78911,-0.20342,-0.03543,0.52657,-10.98,-19.98,-7.38,41.22765,7.636129,-136.560577,0.3673831368590779,0.18789957,-0.30328214,-0.85891986
0.0737,1686.2377,-5.21697,7.58722,10.44351,-0.1014,0.40317,0.61942,-10.86,-20.28,-7.32,41.113464,7.793786,-136.073807,0.3715163083407907,0.19003958,-0.3010985,-0.85743821
0.0804,1686.2577,-5.72454,6.75644,8.93516,0.16982,0.4496,0.93096,-11.16,-20.34,-7.2,41.141777,8.38751,-135.496765,0.3773621091004737,0.19606508,-0.29840231,-0.85446614
0.0866,1686.2777,-4.52744,5.88255,7.91762,0.35552,0.2584,1.15576,-11.04,-20.04,-7.38,41.457844,8.686466,-134.538223,0.3850747308233643,0.20170097,-0.29814994,-0.84978867
0.0918,1686.2977,-3.31597,5.0374,8.80109,0.53329,0.07025,1.28709,-10.92,-20.22,-7.74,41.853531,8.558539,-133.295471,0.39367298472571244,0.20517002,-0.29937598,-0.84457141
0.0988,1686.3177,-2.28886,4.87938,9.03093,0.91385,0.17226,1.29626,-11.7,-19.74,-7.92,42.435997,8.06118,-131.888184,0.4022844819690213,0.20699604,-0.30295736,-0.83877093
0.1175,1686.3377,-1.59214,4.76207,7.14909,1.05985,0.3372,1.2034,-12.24,-19.74,-7.38,43.343525,7.698247,-130.458481,0.41100329978871397,0.21102323,-0.30841634,-0.8315196
0.1384,1686.3577,-0.08619,4.68066,5.87537,0.96639,0.28955,1.03603,-13.08,-19.5,-6.78,44.319172,7.36894,-129.091049,0.419110941111266,0.21551573,-0.31428966,-0.82408798
0.1736,1686.3777,1.51314,4.49392,5.29119,0.59376,0.56139,0.8094,-13.74,-19.08,-6.06,45.14526,6.826532,-127.711449,0.426671346527995,0.21819055,-0.31974536,-0.81737834
0.1795,1686.3977,1.69988,3.47878,4.61602,0.22174,1.08001,0.49236,-13.98,-18.9,-5.46,45.484123,6.797604,-126.516792,0.43472217085786974,0.22247232,-0.32002631,-0.81185335
0.206,1686.4177,0.80685,2.99036,5.12838,-0.15333,1.16248,0.42822,-14.4,-18.96,-5.28,45.290928,7.155691,-125.535362,0.4428619384210567,0.22705489,-0.3153286,-0.80801439
0.2224,1686.4377,0.43814,2.13323,5.01825,-0.46059,1.48562,0.44104,-14.88,-18.6,-5.28,44.616108,7.658741,-124.521187,0.4520906625524474,0.23097025,-0.30645284,-0.80520397
0.2369,1686.4577,0.34955,1.48201,4.956,-0.73487,1.60413,0.64813,-15.18,-18.84,-5.88,43.517212,8.281235,-123.307945,0.46337368525270023,0.23456523,-0.29355752,-0.80255091
0.2632,1686.4777,1.16837,1.74298,4.956,-0.97189,1.59619,1.0232,-15.6,-18.84,-6.3,42.144646,8.558969,-121.560127,0.4776644620202204,0.23579893,-0.27892822,-0.79902101
0.2834,1686.4977,2.38462,1.75495,4.83868,-1.11483,1.37567,1.32619,-15.54,-18.3,-6.78,40.63221,8.171782,-119.117393,0.4952577340033993,0.23307151,-0.26472214,-0.79392672
0.2975,1686.5177,3.76847,1.84114,5.6575,-1.07146,1.11055,1.53388,-15.78,-18.36,-7.68,39.005066,6.95884,-116.135208,0.5148485945289434,0.22480398,-0.25254753,-0.78779048
0.3202,1686.5377,5.20021,3.45004,7.23049,-0.90164,0.93951,1.53266,-16.14,-17.88,-8.22,37.573101,5.190628,-112.928955,0.5346405571441938,0.2134648,-0.24447881,-0.7802707
0.3375,1686.5577,6.59363,4.81713,7.98227,-0.7477,1.23456,1.19546,-16.2,-17.58,-8.82,36.413162,3.406193,-109.927032,0.5527186895514514,0.20241053,-0.23950383,-0.77212042
0.3569,1686.5777,6.63673,5.52342,6.61039,-0.99754,1.65178,0.66584,-16.62,-17.28,-9.78,35.470139,2.330288,-107.564835,0.5676540254592245,0.19557175,-0.23426351,-0.76461834
0.3775,1686.5977,5.50906,6.59124,5.50188,-1.47402,1.75868,0.29871,-16.56,-16.8,-10.38,34.359104,2.120794,-105.941177,0.5796211511792632,0.19196193,-0.22511128,-0.75928575
0.397,1686.6177,5.50188,7.94396,6.37336,-1.79533,1.19668,0.08308,-16.5,-16.26,-11.1,32.921555,2.198157,-104.797661,0.589351748692792,0.18743694,-0.21323346,-0.75634873
0.4217,1686.6377,6.85699,8.56406,9.36372,-1.63529,0.33842,-0.21197,-16.62,-15.66,-12.12,31.308165,1.745571,-104.045456,0.5956955720149695,0.17758125,-0.20364366,-0.75639999
0.4485,1686.6587,6.05015,8.82742,10.68532,-1.12949,-0.20953,-0.44593,-16.44,-15.06,-13.26,29.904215,0.810927,-103.90239,0.5968875064614889,0.16440098,-0.19896151,-0.75967884
0.4745,1686.6797,4.5825,9.24162,11.81539,-0.46609,-0.82406,-0.40867,-16.26,-15.24,-14.16,29.167246,-0.444083,-104.070229,0.5945842996936677,0.15193947,-0.20081607,-0.76358157
0.4857,1686.6997,4.24492,10.80264,10.62068,0.10018,-1.40621,-0.30116,-16.02,-14.76,-15.12,29.276333,-2.276026,-104.26535,0.5898312503538102,0.13992423,-0.21125716,-0.76674032
0.5093,1686.7207,5.26724,12.26789,10.18733,0.1179,-1.90529,-0.65729,-16.08,-14.52,-14.76,29.546169,-4.049398,-104.762787,0.582720130269104,0.12849055,-0.22270332,-0.77092844
0.5258,1686.7407,5.04698,11.54245,11.54005,0.12095,-1.97737,-1.18019,-16.26,-14.28,-14.58,29.747757,-5.76928,-105.836861,0.5717042678757519,0.11577372,-0.23385079,-0.77785891
0.5421,1686.7607,3.59849,9.74201,12.69406,0.40134,-1.9957,-1.44897,-16.62,-13.86,-14.16,30.097143,-7.23283,-107.479485,0.5568278924478525,0.10414125,-0.24496652,-0.7868219
0.5642,1686.7807,2.35829,8.32943,12.38042,0.88575,-2.08488,-1.4789,-17.04,-14.16,-12.96,30.913689,-8.609325,-109.264183,0.5400029009073641,0.09483485,-0.25859019,-0.79532027
0.583,1686.8007,1.96803,7.34781,11.315,1.18752,-2.01708,-1.49967,-16.92,-14.46,-12.48,32.285721,-10.075691,-110.961578,0.5221197263111309,0.08744779,-0.27599716,-0.8022278
0.5997,1686.8207,1.69509,6.95994,10.37647,1.23089,-1.84054,-1.56748,-16.86,-15.36,-11.46,33.992596,-11.43968,-112.576271,0.503899060442491,0.08214539,-0.29484355,-0.80771601
0.6215,1686.8407,1.67115,6.66785,9.61511,1.23517,-1.70248,-1.69943,-16.68,-16.02,-10.68,35.744877,-12.467274,-114.297371,0.4852353213285172,0.07867976,-0.31235501,-0.81289023
0.6395,1686.8607,1.35751,6.06212,8.58082,1.19485,-1.76601,-1.90895,-16.56,-16.86,-9.6,37.541931,-13.204933,-116.24411,0.4652877009833569,0.07636689,-0.32893285,-0.81821674
0.6595,1686.8807,0.71826,5.22894,8.07564,1.12277,-1.78984,-2.03724,-16.2,-17.52,-8.82,39.281265,-13.691625,-118.56768,0.44319375124494637,0.07394766,-0.34424677,-0.82438171
0.6914,1686.9007,0.35195,4.45561,8.31985,1.10689,-1.86497,-2.08672,-15.54,-18.06,-8.46,40.813137,-13.892584,-121.182434,0.4201078164384134,0.07121525,-0.35717723,-0.83118123
0.7072,1686.9207,-0.64643,3.87142,7.87453,1.22662,-1.99264,-1.98348,-14.88,-18.54,-7.74,42.23233,-13.874202,-123.988548,0.3964061793411349,0.06844921,-0.36865035,-0.83801776
0.7236,1686.9407,-0.9098,3.5937,7.18979,1.33108,-2.11482,-1.84665,-13.74,-19.44,-6.9,43.664169,-13.930809,-126.734283,0.372735866683084,0.06484841,-0.38043886,-0.84387732
0.7418,1686.9607,-0.88825,3.3878,6.05733,1.20279,-2.08244,-1.76174,-12.72,-20.16,-5.58,45.074886,-14.004595,-129.46788,0.34902891216840043,0.06054818,-0.39209449,-0.84898448
0.7613,1686.9807,-0.91459,3.55539,6.07888,0.94134,-1.82771,-1.70309,-12.3,-20.7,-4.08,46.237057,-13.843219,-132.357056,0.3254605987099325,0.05603328,-0.40133193,-0.85432333
0.7921,1687.0007,-1.2378,3.85227,5.71735,0.7141,-1.43248,-1.69454,-11.64,-21.36,-2.7,47.096272,-13.132001,-135.417938,0.3031731263402467,0.05355658,-0.40699962,-0.85998201
0.812,1687.0207,-1.49638,3.87621,5.22654,0.53084,-1.19424,-1.67011,-10.62,-21.78,-1.92,47.710686,-11.82691,-138.697662,0.2818420990920538,0.05370382,-0.4096593,-0.86594468
0.8314,1687.0407,-1.23541,4.06296,4.50589,0.40684,-0.99266,-1.70248,-10.08,-22.56,-1.2,48.168213,-10.182563,-142.093002,0.26110558188556326,0.05539594,-0.41074404,-0.87180531
0.8435,1687.0607,-1.5706,4.12282,3.32794,0.18815,-0.9725,-1.79717,-8.88,-23.1,-0.48,48.54697,-8.174061,-145.690872,0.24019546158268645,0.05886316,-0.41096833,-0.87746584
0.8647,1687.0807,-2.53307,3.76129,2.99036,-0.18021,-1.0739,-1.89307,-7.56,-23.46,0.3,48.695297,-5.829724,-149.698151,0.21757252958661188,0.06289417,-0.40953571,-0.8837347
0.8802,1687.1007,-3.40934,4.18985,4.12521,-0.48686,-1.05741,-1.95966,-6.72,-23.64,0.48,48.382996,-3.249822,-154.077118,0.1931916165698975,0.06666951,-0.40498781,-0.89118856
0.901,1687.1217,-4.04859,4.4604,4.36463,-0.72632,-0.94073,-2.14353,-5.58,-23.4,0.3,47.720856,-0.42422,-158.644379,0.16797771305436274,0.07162254,-0.39813039,-0.89896935
0.9268,1687.1417,-5.32231,4.01986,4.48434,-1.29198,-0.69944,-2.31274,-4.5,-23.46,0.6,46.525791,2.946325,-163.717285,0.1401106602346895,0.07929341,-0.38749617,-0.90770495
0.9404,1687.1617,-7.13472,4.00789,5.63595,-1.91995,-0.32742,-2.1081,-3.54,-23.76,-0.06,44.480713,6.530055,-168.541748,0.11369737162546327,0.09017607,-0.37072831,-0.91733402
0.9608,1687.1816,-7.87932,4.97515,7.95593,-2.15025,-0.04704,-1.65667,-2.82,-23.64,-0.6,41.610264,9.720874,-172.331482,0.0923127562668476,0.10269316,-0.34782484,-0.92733508
0.9811,1687.2017,-8.06607,5.16429,9.14585,-1.90956,0.20342,-1.2706,-1.8,-23.64,-1.08,38.602028,12.29054,-174.962555,0.07658569451967685,0.11537734,-0.32387426,-0.93591034
1.0018,1687.2217,-8.49463,5.09486,8.76517,-1.75807,0.30116,-0.83872,-0.48,-24.24,-2.52,35.935631,14.542627,-176.793396,0.06542910192655721,0.1289098,-0.30251351,-0.94211829
1.0224,1687.2417,-8.7125,5.67665,9.22246,-1.65667,0.40989,-0.18387,0.78,-23.76,-3.78,33.584122,16.304422,-177.7901,0.05923340007059483,0.14124632,-0.28330868,-0.94671911
1.0439,1687.2617,-7.69257,6.91206,10.14902,-1.43431,0.59865,0.52473,2.16,-23.52,-4.74,31.676291,17.525457,-177.743546,0.06029020317763643,0.15184216,-0.26679713,-0.94980437
1.0602,1687.2817,-5.37498,8.43717,10.58477,-1.21196,0.88637,0.94379,2.76,-23.64,-5.4,30.408566,18.364683,-176.834885,0.06814446637130968,0.16108273,-0.25454894,-0.95111173
1.0865,1687.3016,-3.77087,9.47625,10.34535,-1.1472,1.20951,0.97922,2.52,-22.62,-5.76,29.639063,19.15579,-175.499298,0.07995526545863568,0.17063284,-0.2456993,-0.95085406
1.1014,1687.3217,-4.0869,9.3326,10.80743,-1.09223,1.31092,1.00426,2.04,-23.04,-5.7,29.021313,20.112909,-174.085419,0.0928717858979239,0.18155134,-0.23766048,-0.94970071
1.1217,1687.3417,-4.14197,9.26795,11.96622,-0.78313,1.31825,1.20035,1.68,-23.1,-5.88,28.456543,20.87184,-172.477997,0.10695483055363812,0.19105665,-0.22968224,-0.94831645
1.1477,1687.3617,-3.10767,9.6199,11.63821,-0.26878,1.43614,1.21684,1.68,-22.8,-6.78,28.33201,21.568239,-170.801392,0.12201955163310298,0.20011273,-0.2250884,-0.94572794
1.1621,1687.3817,-3.10767,9.08839,9.67018,-0.08491,1.41232,1.10017,1.02,-23.16,-7.2,28.79974,22.478176,-169.367828,0.13627924000983888,0.21056743,-0.22537872,-0.94143176
1.1809,1687.4016,-3.96719,8.27676,9.50737,-0.05437,1.24739,1.15759,0.72,-22.68,-7.2,29.452927,23.35857,-168.057114,0.14971239894063806,0.22061916,-0.2272229,-0.93663394
1.2008,1687.4217,-4.71179,7.5992,10.44111,0.2022,1.05252,1.29076,0.12,-22.68,-7.62,30.155174,23.986189,-166.676468,0.1632572495884931,0.2288038,-0.22945514,-0.93185097
1.2411,1687.4417,-4.6232,6.92403,10.84813,0.55772,1.05558,1.44042,-0.72,-22.74,-7.44,31.156895,24.402201,-165.258682,0.1770719233012045,0.23557179,-0.23420551,-0.92644441
1.2551,1687.4617,-4.2114,5.8634,9.92397,0.73793,1.23273,1.58092,-1.08,-22.56,-7.38,32.511086,24.867151,-163.81366,0.19165409801979688,0.24312559,-0.24153426,-0.91968465
1.2669,1687.4817,-3.98635,4.52265,8.52575,0.80634,1.2761,1.81366,-1.86,-22.92,-7.62,34.058243,25.409678,-162.246964,0.2075641043323393,0.25185061,-0.24981746,-0.9116357
1.288,1687.5017,-3.73974,3.04064,7.97269,0.79657,1.17042,2.12948,-2.52,-23.16,-7.2,35.620659,25.695164,-160.323547,0.22561704412169156,0.25954244,-0.25765139,-0.90296757
1.3055,1687.5217,-3.11246,2.10929,8.34619,0.84177,1.27732,2.45262,-3.12,-23.34,-6.9,37.059242,25.521975,-157.924896,0.2459412124055315,0.26489937,-0.26411539,-0.89419478
1.334,1687.5417,-1.85072,1.22823,8.03973,0.8717,1.69271,2.73301,-4.02,-23.28,-6.6,38.484936,25.134056,-155.041321,0.2691408926257139,0.27008149,-0.26968107,-0.88424617
1.3439,1687.5617,-0.11253,0.72784,6.09085,0.67134,2.12337,2.90833,-4.98,-22.98,-5.94,39.879589,24.732378,-151.598663,0.29606507768993756,0.2768892,-0.27355316,-0.87226516
1.3614,1687.5817,1.13006,0.69192,4.23774,0.19731,2.23454,2.93887,-6.36,-22.92,-5.52,40.972523,24.153303,-147.562988,0.32615600528949806,0.28377584,-0.27387753,-0.85911852
1.3815,1687.6017,1.71425,0.81403,3.84748,-0.45876,2.20583,2.81303,-7.56,-22.92,-5.16,41.458076,23.045055,-142.971375,0.35804322623405116,0.28728136,-0.26954204,-0.84653503
1.4071,1687.6217,1.4437,0.41899,4.11084,-1.12155,2.19728,2.76294,-8.58,-22.74,-4.98,41.180923,21.644131,-138.10144,0.39041572806056857,0.28765249,-0.25975385,-0.83508056
1.4356,1687.6417,2.10929,0.52912,5.56652,-1.61635,2.08855,2.79043,-9.48,-22.2,-5.7,40.140461,19.934719,-132.856308,0.4243869767687029,0.28417316,-0.24477582,-0.82415175
1.4521,1687.6617,4.63517,2.10929,8.53054,-1.58825,1.97737,2.6029,-10.62,-21.18,-6.72,38.567249,17.539864,-127.251488,0.45951712677623907,0.27392361,-0.22847989,-0.81339216
1.4674,1687.6817,5.76045,3.21062,8.23366,-1.2816,2.23516,2.09588,-11.76,-20.1,-7.92,37.122692,15.45523,-122.147987,0.49181892784777365,0.26413363,-0.21442336,-0.80148
1.482,1687.7017,4.78122,3.56736,7.07487,-1.09772,2.03662,1.67438,-12.96,-19.38,-9.12,35.919415,14.139533,-117.9608,0.5190173534281558,0.25803038,-0.20190702,-0.78947759
1.501,1687.7217,4.49152,4.00311,5.89931,-1.08367,1.62796,1.48318,-14.16,-18.6,-10.08,34.917519,12.940846,-114.417709,0.5417604224601128,0.25181803,-0.19238563,-0.77850568
1.5475,1687.7417,5.1212,4.84586,6.15789,-1.18202,1.10017,1.25105,-14.82,-18.12,-11.1,33.979832,11.449487,-111.189369,0.5617359355477093,0.24299173,-0.18598038,-0.76864755
1.5506,1687.7617,5.51624,5.37259,7.03177,-1.19913,0.82894,0.92363,-15.3,-17.52,-11.94,32.966393,9.701105,-108.407974,0.5783146889495838,0.23112805,-0.18188886,-0.76095229
1.5854,1687.7817,5.2864,6.12676,7.8458,-1.17958,0.58338,0.64935,-15.54,-16.68,-13.08,31.93119,8.100395,-106.220673,0.5912182572915581,0.21901035,-0.17867941,-0.75536025
1.5956,1687.8017,5.75087,7.11078,7.89847,-1.09101,0.28772,0.43066,-15.66,-16.5,-13.8,30.992699,6.52317,-104.563736,0.6006071767026457,0.20655738,-0.17746107,-0.75173974
1.6013,1687.8217,5.74369,7.68778,7.46033,-1.1075,-0.26389,0.06353,-16.2,-15.84,-14.16,30.188671,4.877304,-103.318977,0.6070795236320259,0.19361611,-0.17857942,-0.74971771
1.6201,1687.8417,5.16669,8.09719,8.77714,-0.91385,-0.91752,-0.30116,-16.5,-15.24,-14.88,29.39493,2.959168,-102.754517,0.6086825548624724,0.17782654,-0.18256493,-0.75136763
1.6402,1687.8617,4.85065,8.7532,9.25359,-0.64752,-1.34513,-0.57116,-16.98,-14.88,-15.18,28.905817,0.772749,-102.750923,0.605760967084336,0.1608921,-0.19090788,-0.75546116
1.6602,1687.8817,5.18584,9.95749,9.46189,-0.61331,-1.68965,-0.94012,-17.52,-13.98,-15.54,28.733725,-1.536389,-103.187431,0.599144840074285,0.14395507,-0.20249169,-0.76111728
1.6802,1687.9017,5.55455,10.43872,11.42274,-0.69883,-1.70737,-1.53205,-17.22,-13.8,-15.72,28.575315,-3.774275,-104.19976,0.5885505439918303,0.1263364,-0.21423562,-0.76925319
1.7006,1687.9217,4.56574,10.04128,13.05319,-0.64324,-1.44409,-2.12092,-17.16,-13.8,-15.42,27.979839,-4.706919,-106.383095,0.5729315369164071,0.1128186,-0.21726656,-0.7821871
1.724,1687.9417,2.95684,9.31584,13.544,-0.43494,-1.10261,-2.5241,-16.92,-14.1,-15.48,27.504858,-4.901455,-109.307289,0.5531273009595759,0.1035252,-0.21775782,-0.79744232
1.7483,1687.9627,1.28569,8.15465,13.28303,-0.14294,-1.00121,-2.67742,-16.44,-14.82,-15.36,27.314392,-4.550829,-112.784195,0.529625060783612,0.09845509,-0.21784437,-0.81384748
1.769,1687.9827,0.33998,7.26401,13.69962,0.37141,-1.1356,-2.67437,-16.26,-15.54,-15.0,27.504238,-4.1375,-116.192307,0.5057254493740232,0.09578604,-0.22021018,-0.82859778
1.783,1688.0027,0.06704,6.36858,13.39795,0.94012,-1.38361,-2.68414,-15.84,-16.38,-14.58,28.288441,-3.908197,-119.5345,0.4807660457853818,0.09440106,-0.22765282,-0.84150261
1.806,1688.0227,-0.29928,5.61919,13.07474,1.39155,-1.41232,-2.68903,-15.0,-16.98,-13.68,29.705858,-3.869248,-122.885826,0.4541972498662777,0.09380756,-0.24062338,-0.85264611
1.8243,1688.0427,-0.826,4.83868,12.38042,1.73974,-1.24739,-2.69147,-13.98,-17.52,-12.78,31.552567,-3.684051,-126.253777,0.4269685899287762,0.09523895,-0.25637826,-0.86191505
1.8467,1688.0637,-1.18513,3.84748,10.8601,2.08427,-1.24067,-2.61511,-12.78,-18.18,-12.36,33.66983,-3.1056,-129.862198,0.3982913598374899,0.09917359,-0.27322635,-0.86998618
1.8694,1688.0837,-0.96007,3.3016,9.02375,2.1252,-1.11972,-2.53692,-11.28,-19.14,-11.46,35.76955,-2.384356,-133.299927,0.37124630040236056,0.10351457,-0.28973895,-0.87607777
1.8838,1688.1036,-0.70868,3.6344,7.05571,1.85642,-0.92118,-2.58213,-10.14,-19.8,-10.68,37.711147,-1.333079,-136.830872,0.34461296835114197,0.10864612,-0.30455017,-0.88129854
1.9038,1688.1237,-1.61609,4.21619,4.93445,1.43309,-0.95661,-2.71835,-9.18,-20.52,-9.72,39.30875,0.205521,-140.703369,0.31722330966150214,0.11468525,-0.31619301,-0.88670099
1.9281,1688.1437,-1.81241,4.15394,4.13957,0.67623,-1.03725,-2.78799,-7.74,-21.36,-8.52,40.301075,1.998769,-144.917099,0.28863360185071263,0.11942407,-0.32348388,-0.89318907
1.9544,1688.1637,-1.1971,3.56257,3.02388,0.03421,-1.16003,-2.88206,-6.84,-21.96,-8.22,40.496136,3.786354,-149.33078,0.2590038354172268,0.12136544,-0.32538515,-0.9012835
1.9669,1688.1847,-0.56024,2.75573,3.78044,-0.60842,-1.1411,-2.84602,-5.52,-22.62,-7.32,39.929939,5.323173,-153.690048,0.22911683205636105,0.12012492,-0.32219347,-0.9106409
1.9851,1688.2047,-0.35674,2.56658,5.73172,-0.89675,-0.56994,-2.85457,-3.72,-23.46,-6.96,38.5233,6.79644,-157.988953,0.19909433087875994,0.11779318,-0.31256384,-0.92129803
2.0046,1688.2247,-0.56264,2.40138,6.84742,-0.72326,0.16493,-3.02867,-2.34,-23.4,-7.02,36.720123,8.756863,-162.029556,0.17154870249834778,0.1206194,-0.29889783,-0.93095762
2.0247,1688.2447,-2.68151,2.14042,6.60081,-0.3207,0.07697,-2.87229,-0.9,-23.4,-6.84,34.994106,11.344192,-166.15535,0.14388304070592986,0.12963398,-0.28564292,-0.93856317
2.0447,1688.2647,-4.81713,1.31681,6.25126,-0.06842,-0.52657,-2.49294,1.26,-23.4,-7.2,33.510578,13.664991,-170.108582,0.11613383638978765,0.13816923,-0.27535066,-0.94424796
2.091,1688.2847,-5.38935,1.02711,6.72052,0.01222,-0.72876,-2.06839,2.82,-23.16,-7.56,32.11668,15.270257,-173.729141,0.08879201126841262,0.14248437,-0.26676956,-0.94902486
2.0966,1688.3047,-5.64313,0.59855,7.51061,0.20097,-0.47647,-1.60596,4.38,-23.28,-7.98,30.828136,16.447784,-176.815796,0.06451337783019186,0.14515205,-0.25912678,-0.95269209
2.1134,1688.3247,-5.73172,-0.03591,6.10282,0.32926,0.17471,-1.19302,6.06,-22.98,-8.4,29.760107,17.882914,-179.351715,0.04531349214657198,0.15164584,-0.2528218,-0.95447963
2.1355,1688.3447,-5.33428,0.77333,5.1212,0.39218,0.31521,-1.16859,6.6,-22.38,-8.94,28.884386,19.790911,178.456436,0.030005686689148083,0.16309589,-0.24791206,-0.95448363
2.1493,1688.3657,-5.97832,1.1157,4.7908,0.46792,0.24618,-1.28037,6.96,-21.96,-8.94,28.065046,21.887169,176.106277,0.013647000187203969,0.17598318,-0.24418274,-0.95352948
2.1705,1688.3857,-6.39491,0.84994,5.76045,0.54611,0.38118,-1.13132,7.56,-21.6,-8.46,27.254412,23.887922,173.762268,0.0030423856011022694,-0.18828993,0.24110442,0.95205373
2.1848,1688.4057,-6.42125,1.78847,5.16908,0.58215,0.83627,-1.14171,8.1,-21.3,-8.1,26.641539,26.142221,171.63298,0.017178480699355896,-0.20311645,0.23988955,0.94915837
2.2048,1688.4257,-7.46991,1.59214,2.69108,0.03421,0.08002,-1.64873,8.58,-21.42,-7.2,25.923126,28.78389,169.319778,0.0323403055408042,-0.22094968,0.23885845,0.94503015
2.2249,1688.4457,-8.43477,1.00556,3.50032,-1.06535,0.10507,-1.81916,9.3,-21.3,-6.78,24.167259,30.748846,166.948929,0.05200775603697431,-0.23463252,0.23000291,0.94304901
2.2456,1688.4657,-9.59357,-0.07661,4.00311,-2.10199,0.73548,-1.51128,9.78,-20.76,-6.3,21.317446,32.680733,165.395767,0.06824789794174636,-0.25168732,0.21119031,0.94201612
2.2713,1688.4857,-10.03889,-0.08619,4.61841,-2.81548,1.00854,-1.10872,10.56,-20.52,-5.94,17.709206,34.835316,165.049103,0.07697248513668944,-0.27414566,0.18410115,0.94075829
2.2884,1688.5057,-9.39964,1.48441,6.84502,-2.85335,0.4386,-0.97372,11.7,-19.74,-6.18,13.989322,36.555347,165.718079,0.07926475345471794,-0.29449934,0.15343253,0.93991792
2.3104,1688.5256,-9.62948,3.39737,9.91678,-2.16491,-0.38423,-1.16003,12.66,-18.9,-6.72,10.698528,37.376709,166.454529,0.08156350727626231,-0.30638406,0.12531817,0.94009125
2.324,1688.5457,-9.95749,4.54419,13.40753,-1.03786,-0.6463,-1.4508,12.96,-18.0,-7.92,8.232626,37.144665,166.45961,0.08875627740407839,-0.30744335,0.10501919,0.94157946
2.3471,1688.5657,-12.19846,1.0343,8.74362,-0.26817,-0.93279,-1.35612,13.38,-17.1,-9.0,6.577188,37.073158,165.481705,0.10151317777263129,-0.30797014,0.0940574,0.94127715
2.3696,1688.5857,-11.69567,0.57221,6.74207,-0.89003,-2.63283,-0.34758,13.62,-16.2,-9.78,5.518839,36.343399,164.533066,0.11282767719507204,-0.30251566,0.0872428,0.94241333
2.3867,1688.6057,-11.22641,2.56419,13.38598,-0.95845,-2.98957,0.51191,13.8,-15.54,-10.62,4.579836,33.22514,164.936646,0.11417760554320408,-0.2781871,0.07540189,0.95073128
2.4041,1688.6257,-9.15543,3.51469,15.26782,-0.73731,-1.61391,1.01953,13.8,-15.06,-11.52,4.080253,30.112038,165.990555,0.10851078712834131,-0.25346863,0.0657791,0.95898497
2.4299,1688.6457,-7.17303,3.50511,14.74589,-0.20953,-1.1301,1.49234,13.74,-15.0,-12.36,4.045992,28.318668,167.325546,0.09837793260070843,-0.23919488,0.06100326,0.96404678
2.4485,1688.6667,-7.82186,2.90656,14.06354,-0.22907,0.2645,1.78312,13.14,-15.36,-13.44,4.741865,27.037006,168.819855,0.0850059834969825,-0.22853041,0.06278244,0.96778417
2.4711,1688.6877,-6.50983,3.49075,12.05481,-0.39218,1.96088,2.04823,12.3,-15.78,-13.98,5.508684,27.923996,170.896149,0.06536941270764207,-0.2365384,0.06561335,0.96719766
2.4969,1688.7077,-5.13556,4.13957,12.24155,-0.17959,1.14598,1.9676,12.0,-16.38,-14.28,6.249249,29.759083,173.023102,0.044748398122067594,-0.25272542,0.06818419,0.96409458
2.5137,1688.7277,-5.68623,3.66792,11.8106,0.19303,0.87048,2.05617,11.22,-16.44,-14.52,7.35569,30.702374,174.909897,0.02576667977326234,-0.26118204,0.07352803,0.96214014
2.5326,1688.7477,-5.05416,1.89381,10.1993,-0.02627,2.12398,2.55891,10.92,-16.68,-14.4,8.891747,31.6362,176.894623,0.004869548280221688,-0.26964334,0.08191825,0.95945722
2.5573,1688.7687,-2.06141,1.55384,9.19613,-0.46365,1.52594,2.21988,10.56,-17.16,-14.22,10.419335,33.416817,179.600906,0.022781856753740698,0.28600881,-0.08796366,-0.95390898
2.5688,1688.7887,-4.76446,2.01352,10.39084,-0.07269,0.94501,2.06595,9.84,-17.34,-13.74,11.41171,34.204006,-178.078857,0.04517579554401998,0.29416865,-0.09010639,-0.95042348
2.5891,1688.8087,-3.87861,1.52989,9.45231,0.16677,0.66462,2.13803,8.94,-17.88,-13.08,12.698919,34.349327,-176.023743,0.06557776243191461,0.29696324,-0.09541593,-0.94784397
2.6248,1688.8287,-3.50751,2.17633,9.44034,0.33537,0.72265,2.06656,7.74,-18.54,-12.96,14.146452,34.187607,-174.051743,0.08536149092310993,0.29741386,-0.10240471,-0.94539499
2.6341,1688.8487,-3.61285,2.58574,9.44273,0.67806,0.72937,2.06228,6.78,-18.96,-12.72,15.714211,34.108391,-172.210815,0.1043235747905802,0.2987287,-0.11065739,-0.94214261
2.6499,1688.8687,-3.25372,2.24337,8.7532,1.05558,0.78252,1.9957,5.88,-19.68,-12.3,17.570213,34.01844,-170.574432,0.12217093712506528,0.30011576,-0.12180223,-0.93817323
2.6697,1688.8887,-3.39737,1.67594,7.90805,1.28587,0.96883,2.01036,4.86,-20.28,-12.42,19.596094,34.052063,-169.204071,0.13824517270917278,0.30256298,-0.13485241,-0.93335885
2.6922,1688.9097,-2.99515,2.33195,7.45554,1.45447,1.29687,1.94194,4.08,-20.82,-11.64,21.948544,34.369743,-167.838013,0.15528232037695683,0.30768684,-0.1501196,-0.92665005
2.713,1688.9297,-3.12204,2.72221,5.96635,1.35062,0.99082,1.68049,3.3,-21.24,-11.1,24.148979,34.954018,-166.723892,0.17022208584168222,0.31477478,-0.16424081,-0.91922045
2.7329,1688.9507,-3.39977,2.78206,6.42604,1.52167,0.7758,1.6078,2.82,-21.78,-10.68,26.234636,35.242214,-165.776306,0.18309109850745622,0.31933299,-0.17813218,-0.91256398
2.754,1688.9717,-3.74453,1.92733,4.7477,1.61635,0.55039,1.81122,2.16,-22.56,-9.6,28.310818,35.518841,-165.06073,0.19400672416691392,0.32352635,-0.19247346,-0.90589517
2.7739,1688.9917,-3.32076,2.77009,4.03423,1.18202,0.15149,1.664,1.62,-22.92,-9.18,30.61585,35.3568,-164.173706,0.20592494245128293,0.32474065,-0.20881982,-0.89918447
2.7968,1689.0127,-3.37582,0.77093,4.05578,0.30727,0.81612,1.98165,1.08,-23.28,-8.7,32.030495,34.939774,-163.085342,0.21676776192948838,0.32412001,-0.21786751,-0.89470202
2.8165,1689.0327,-0.47884,2.49236,3.58651,-0.36469,0.95356,2.42391,-0.18,-23.46,-8.1,33.09724,34.44511,-160.563492,0.23767899354976366,0.32567117,-0.2202438,-0.88822275
2.8355,1689.0527,1.41497,4.68545,5.53539,-0.4667,0.68661,1.99325,-1.26,-23.46,-7.98,34.023052,33.020164,-157.181976,0.26285662026734535,0.32186654,-0.22120361,-0.88225693
2.8755,1689.0727,-1.21865,2.19069,4.60166,-0.71166,0.81489,1.74952,-2.52,-23.82,-7.68,34.464718,31.766842,-154.349564,0.28297313718595646,0.31812397,-0.21980423,-0.87772971
2.8944,1689.0927,-1.97282,1.48441,1.6089,-1.46058,0.56322,2.45507,-3.84,-24.18,-7.56,34.777042,31.062323,-151.603607,0.3030968558106437,0.31834453,-0.21646695,-0.87174028
2.8982,1689.1127,-0.9481,1.58496,2.94726,-2.39154,-0.34514,3.2272,-4.74,-23.94,-7.86,34.592396,28.926661,-147.291122,0.3315772912946764,0.30988088,-0.20909353,-0.8662045
2.9153,1689.1337,2.91853,3.27287,3.81636,-2.61695,-1.60413,3.34449,-5.52,-23.76,-7.98,33.769676,25.055378,-141.816055,0.3650696783806519,0.28888336,-0.20004793,-0.86212027
2.9335,1689.1537,1.58975,1.59454,6.44998,-2.2938,-2.21133,3.56196,-6.9,-22.98,-8.64,32.430202,19.543858,-136.123962,0.3974995891717095,0.25398663,-0.19437754,-0.86005944
2.9561,1689.1737,3.68468,2.81798,9.63906,-1.46974,-1.15087,4.1325,-8.88,-21.78,-9.42,31.01195,13.080434,-130.077072,0.4316077810661195,0.21158798,-0.19447239,-0.85505891
2.9745,1689.1947,3.87861,3.0574,7.23528,-0.58948,0.65118,4.27422,-11.22,-20.88,-9.9,30.285532,8.037185,-123.665657,0.4706737306013631,0.18264271,-0.19779065,-0.84023017
2.9953,1689.2147,5.20978,3.66313,9.26795,-0.14661,1.73852,3.98712,-13.74,-19.68,-10.62,30.046814,4.980222,-117.508621,0.5101348514395099,0.17020485,-0.19963965,-0.81910729
3.0145,1689.2347,9.73961,5.73172,3.28245,-0.00733,1.37017,2.59801,-16.26,-18.36,-10.56,30.468924,3.327571,-111.817482,0.5469056442636786,0.17042336,-0.20181747,-0.79443049
3.0361,1689.2547,7.91284,8.53054,6.50983,-0.69455,-0.82284,0.70127,-18.3,-17.46,-10.56,30.643196,0.941752,-108.308487,0.5665326754964107,0.16115801,-0.20954044,-0.78048807
3.0576,1689.2757,5.34146,4.84347,7.27837,-0.54245,-0.72998,0.40867,-19.74,-16.32,-10.14,30.110233,-1.915398,-106.999718,0.5708380550282655,0.14150837,-0.2183715,-0.7787382
3.092,1689.2957,6.51462,5.97114,9.73004,-0.42822,-1.22356,0.7025,-21.42,-15.3,-10.14,29.650869,-4.585345,-105.796906,0.574517233327876,0.12338399,-0.22724245,-0.77657402
3.1012,1689.3157,7.6375,6.33027,11.23599,0.07575,-1.36589,0.43371,-22.14,-14.64,-10.08,29.257748,-7.676346,-104.4645,0.5779141728856313,0.10313506,-0.23886681,-0.77351213
3.132,1689.3357,8.37492,7.97509,9.73722,0.36346,-0.79657,0.16066,-22.5,-13.92,-10.2,29.528137,-10.478493,-103.41909,0.5784216042664748,0.0879463,-0.2538974,-0.77021426
3.1509,1689.3557,8.3821,8.64307,7.84101,-0.04887,-0.30421,-0.24068,-22.74,-13.8,-11.1,30.047033,-12.503038,-102.695457,0.5776125039904794,0.0788077,-0.26691988,-0.76740271
3.1606,1689.3767,7.74524,8.97586,8.339,-0.46181,-0.25656,-0.53817,-22.74,-13.74,-11.4,30.136616,-13.576419,-102.625465,0.5753603987928949,0.0722697,-0.27284497,-0.7676543
3.1812,1689.3967,7.55371,8.57364,9.44034,-0.34025,-0.57116,-0.86193,-22.14,-13.92,-11.94,30.038467,-14.38823,-103.074234,0.5706186459193425,0.06521235,-0.2765485,-0.77049506
3.1966,1689.4167,6.83784,8.65025,9.05727,-0.33964,-0.55772,-1.24861,-21.66,-14.22,-12.06,30.178699,-15.099105,-104.003494,0.5623058264136471,0.05891222,-0.28146139,-0.77531993
3.2269,1689.4367,6.14592,8.43238,9.80186,-0.52962,-0.49908,-1.653,-20.82,-14.16,-11.76,30.333767,-15.336898,-105.545593,0.550884021508343,0.05431545,-0.28437552,-0.78275615
3.2384,1689.4567,5.83467,8.16902,11.17134,-0.32865,-0.70738,-2.02319,-19.92,-14.16,-12.18,30.392693,-15.064939,-107.715935,0.5365053288269866,0.05110641,-0.28446728,-0.79286098
3.2562,1689.4767,4.88417,7.40527,11.37485,0.15211,-1.25716,-2.41047,-19.74,-14.28,-11.64,30.816597,-14.850156,-110.272186,0.5182890718646878,0.04838258,-0.28739479,-0.8040148
3.2767,1689.4967,4.71897,7.06529,11.20008,0.76236,-2.02929,-2.72873,-18.72,-14.64,-11.58,31.910961,-15.178268,-113.103104,0.49501854591492694,0.04423839,-0.29734445,-0.81522137
3.2979,1689.5167,4.19704,6.66546,10.89122,1.18569,-2.47156,-3.16062,-18.84,-15.6,-10.98,33.680382,-16.131172,-116.114471,0.46688193603260447,0.03780249,-0.31445265,-0.82565838
3.328,1689.5367,3.29442,5.60004,9.35893,1.25227,-2.44224,-3.53508,-18.42,-16.86,-9.78,35.965935,-17.069765,-119.669411,0.43304083399387705,0.03137464,-0.33490229,-0.83626056
3.3388,1689.5567,2.89459,4.80995,8.588,0.75075,-1.62796,-3.81546,-17.1,-17.88,-9.12,38.170872,-17.309105,-123.790939,0.3967171854854842,0.0268415,-0.35212982,-0.84728956
3.3591,1689.5767,2.24816,3.83791,9.74919,0.53145,-0.83261,-4.09585,-16.2,-18.6,-7.8,39.693729,-15.879753,-128.689209,0.3610631765094157,0.02846307,-0.35935679,-0.86004996
3.3865,1689.5977,-0.23703,1.8579,8.36295,0.85765,-0.51679,-4.0818,-14.16,-19.26,-7.32,40.967743,-12.911556,-134.499054,0.32368427102424524,0.03733918,-0.36140284,-0.87362593
3.4082,1689.6177,-1.67115,1.99916,6.59603,1.09834,-0.89736,-3.96757,-11.94,-20.22,-6.6,42.154331,-9.649695,-140.19339,0.288090688805779,0.04819979,-0.36366394,-0.88455021
3.4178,1689.6377,-3.6751,1.6496,5.7796,1.20402,-1.35551,-3.69818,-10.14,-21.3,-5.76,43.238171,-6.499704,-146.069504,0.2508510481150919,0.05692439,-0.36721194,-0.89386171
3.4371,1689.6577,-4.75728,1.58017,4.2952,0.78313,-1.19302,-3.17955,-7.98,-22.8,-5.64,44.030476,-3.384449,-152.015076,0.2133244361716635,0.06403282,-0.3701914,-0.90185964
3.4568,1689.6777,-5.42766,2.02789,4.22098,0.52473,-1.21196,-2.83625,-6.18,-23.76,-4.92,44.161266,-0.118665,-157.700485,0.1788089273224528,0.07174997,-0.36900109,-0.90924007
3.4824,1689.6977,-6.6894,2.15718,4.37421,0.23152,-1.24128,-2.60412,-4.62,-24.12,-4.02,43.853283,3.234622,-163.277512,0.14526829268474376,0.08018246,-0.36549559,-0.9159044
3.4976,1689.7177,-7.88171,2.07577,4.56095,-0.17959,-1.0006,-2.16796,-2.82,-24.42,-3.66,43.078854,6.532313,-168.575668,0.11324286455665392,0.08921497,-0.35945016,-0.92196113
3.5202,1689.7377,-8.76517,2.15957,5.81552,-0.78313,-0.21136,-1.67683,-1.44,-24.24,-3.06,41.685097,9.692089,-173.06752,0.08630462169840729,0.10024102,-0.34910727,-0.92770004
3.5409,1689.7577,-9.92636,1.73101,5.75087,-1.23028,0.77641,-1.0794,-0.12,-24.24,-3.06,39.59885,13.159539,-176.468048,0.0675982285830823,0.11813118,-0.33301505,-0.93304688
3.5573,1689.7777,-10.49857,2.21224,6.10521,-1.49967,1.0849,-0.40684,1.68,-23.94,-3.18,37.14909,16.644388,-178.520767,0.05820861882464604,0.14125705,-0.31338671,-0.93725502
3.5834,1689.7977,-10.25437,2.59292,7.77876,-1.51617,0.83017,0.22785,2.64,-23.7,-3.9,34.67728,19.386303,-179.275299,0.05612638580914276,0.16257532,-0.29274175,-0.94059628
3.5973,1689.8177,-9.30866,2.86347,9.35654,-1.22906,0.55222,0.74281,3.0,-23.64,-4.5,32.566971,21.066782,-178.996674,0.05951707827521051,0.17788224,-0.27411807,-0.9432258
3.6171,1689.8377,-7.04135,3.80678,11.10191,-0.82772,0.54123,0.8491,3.18,-23.46,-5.46,31.036978,21.960917,-178.094879,0.06667831406037082,0.18787135,-0.25956365,-0.94492596
3.6402,1689.8577,-7.05332,3.82354,10.43393,-0.37018,0.61636,0.7703,2.88,-23.7,-6.24,30.062347,22.82111,-177.274994,0.07380304598526426,0.19705962,-0.24960342,-0.94520831
3.6656,1689.8777,-8.45632,4.21619,9.18176,-0.3488,0.64141,1.04336,2.58,-23.34,-6.12,29.542727,23.799355,-176.610413,0.08053214011395232,0.20667534,-0.24347734,-0.94420266
3.683,1689.8977,-6.53138,5.55694,9.47386,-0.6579,1.07818,1.43065,2.52,-23.22,-6.6,29.249836,24.52054,-175.401688,0.0915050040147575,0.21520521,-0.23829004,-0.94261944
3.7032,1689.9177,-4.89375,7.29992,9.76355,-0.99999,1.77212,1.48685,2.28,-22.98,-6.66,28.951799,25.384108,-173.552612,0.10795239907652109,0.22611263,-0.23151571,-0.94001055
3.7184,1689.9387,-5.6551,8.58082,10.24718,-1.26205,2.10687,1.38727,1.92,-22.86,-7.2,28.508442,26.735685,-171.304367,0.12824972183538014,0.24159974,-0.22187601,-0.9359234
3.7384,1689.9587,-6.32548,9.09078,12.60308,-1.1356,2.19362,1.58825,0.96,-22.98,-7.92,27.98126,28.114889,-168.996567,0.14869769867610438,0.25708848,-0.21084584,-0.93131012
3.7629,1689.9786,-5.54976,9.87848,14.8632,-0.43127,1.99692,1.89796,0.42,-22.98,-8.34,27.896217,29.409616,-166.50351,0.1710692465034496,0.2720443,-0.2025844,-0.92503339
3.7821,1689.9997,-3.95043,10.52491,15.03559,0.55039,1.64078,2.07144,-0.24,-22.86,-8.52,28.767076,30.511124,-164.200684,0.19318199858518534,0.28539667,-0.20235378,-0.91666919
3.8,1690.0197,-2.9712,9.91199,12.87841,1.23517,1.58153,2.14719,-1.2,-22.68,-8.58,30.835381,31.464415,-162.249619,0.21437971541674536,0.29773456,-0.21250384,-0.90566969
3.8196,1690.0397,-2.95684,9.27514,10.3214,1.38544,1.7037,2.21439,-1.62,-22.44,-8.58,33.402939,32.494545,-160.668121,0.23366161968463775,0.31050214,-0.226996,-0.89300811
3.8413,1690.0597,-2.95444,8.12353,7.83383,1.2987,1.67438,2.39765,-2.64,-22.26,-7.98,36.144993,33.420403,-158.971527,0.2538515984890614,0.32297447,-0.24225107,-0.87895465
3.8631,1690.0797,-2.1069,7.12754,6.41167,1.10261,1.53877,2.49416,-3.78,-22.62,-7.74,38.934807,33.569374,-156.659332,0.27684220832569756,0.33118057,-0.25740194,-0.86453575
3.8823,1690.0997,-0.89064,6.41646,6.02381,0.81428,1.46547,2.42636,-5.04,-22.56,-7.32,41.517429,33.198559,-153.920197,0.30083158671980137,0.33688009,-0.27063119,-0.85015935
3.9031,1690.1197,-1.26414,4.56574,5.85382,0.66768,1.37445,2.3274,-6.06,-22.74,-6.72,43.654728,32.483601,-150.923157,0.3243949154782848,0.34093675,-0.28036454,-0.83661568
3.9362,1690.1397,-1.78607,3.14119,5.09486,0.61514,1.12155,2.37932,-7.26,-22.26,-6.54,45.447655,31.498644,-147.799011,0.34693093779989703,0.34364539,-0.28777432,-0.82385236
3.9453,1690.1607,-2.11887,2.11408,3.37104,0.61453,0.57116,2.59068,-8.4,-21.6,-6.24,47.181236,29.94244,-144.319839,0.3696417363250114,0.34380436,-0.29549494,-0.81107724
3.9627,1690.1807,-1.0726,2.00395,2.48758,0.43249,0.0452,2.70247,-9.42,-21.48,-5.58,48.737141,27.479582,-140.529907,0.39102906412072364,0.33898303,-0.3042005,-0.79978049
3.9813,1690.2007,-1.39821,1.08218,2.77009,0.15882,-0.41966,2.75622,-10.92,-21.18,-5.46,49.886745,24.20248,-136.432068,0.4111118055166895,0.32953826,-0.3123627,-0.7904563
4.0044,1690.2207,-1.64003,0.14126,3.01909,-0.17165,-0.63652,3.17344,-12.36,-21.06,-5.34,51.097805,20.051069,-131.770157,0.43151669631664874,0.31687421,-0.32346013,-0.78022921
4.0193,1690.2407,0.76614,0.55306,4.10366,-0.3769,-0.85888,3.43245,-14.22,-20.4,-5.04,51.947739,14.660874,-125.929359,0.4550624135985196,0.29961357,-0.33477768,-0.76881325
4.0392,1690.2607,3.60088,0.78769,4.98952,-0.34331,-0.82833,3.36281,-15.42,-19.68,-4.98,52.317997,8.582045,-119.526489,0.4792268398024625,0.27940714,-0.34599784,-0.75667614
4.0595,1690.2806,6.10282,1.59454,5.38456,-0.08735,-0.72693,2.85213,-17.16,-18.78,-4.92,51.952999,2.278473,-113.009995,0.5032756500225757,0.25657544,-0.35532919,-0.74473071
4.081,1690.3007,6.8115,2.08056,4.82432,0.15088,-0.5565,2.27364,-18.96,-17.52,-4.62,50.761822,-4.500505,-106.427971,0.5271321185051288,0.22806965,-0.36426178,-0.73309571
4.0992,1690.3207,7.04853,2.97599,4.19704,0.14233,-0.15027,1.81732,-20.22,-16.68,-4.56,49.666096,-10.174274,-100.946785,0.5465896251680598,0.20416476,-0.3738786,-0.72095168
4.1196,1690.3407,8.32943,3.97916,3.66073,-0.11484,0.49419,1.47341,-21.9,-15.3,-4.74,48.566525,-14.719538,-96.290085,0.5639623247411896,0.18517224,-0.38170025,-0.70849323
4.1416,1690.3607,9.40682,4.67588,2.67672,-0.66218,1.44775,0.96272,-22.56,-14.28,-4.14,47.293343,-17.849037,-92.415825,0.5813461140714196,0.17163378,-0.38437241,-0.69630194
4.1596,1690.3807,9.66779,5.25048,1.91536,-1.19424,2.0183,0.3146,-22.86,-13.92,-4.08,45.770607,-19.067543,-89.809128,0.5980489733274156,0.16391981,-0.37881294,-0.68699962
4.1791,1690.4006,8.64067,5.17148,2.2721,-1.59558,1.83015,-0.20159,-23.04,-13.38,-4.26,44.104034,-18.952126,-88.556175,0.6113740253480279,0.15860744,-0.36778855,-0.68249327
4.2073,1690.4207,7.76918,5.87058,4.61602,-1.78006,1.39827,-0.4612,-23.22,-13.38,-4.56,42.291283,-18.395052,-88.357117,0.6200989545661254,0.15149552,-0.35507932,-0.68296784
4.2237,1690.4417,7.80031,6.35182,7.38372,-1.5461,0.53451,-0.67928,-22.98,-13.44,-6.0,40.427452,-17.856186,-88.801437,0.6248181097320307,0.14197499,-0.34287572,-0.68693644
4.2438,1690.4617,7.29513,6.28957,9.06684,-0.89309,-0.55405,-0.74342,-22.92,-13.68,-7.32,38.905201,-17.999975,-89.634476,0.6239115011986909,0.12935886,-0.33647692,-0.6933859
4.2624,1690.4827,7.35978,7.39569,9.29908,-0.3207,-1.48562,-0.65179,-22.32,-13.68,-8.58,38.16851,-19.40424,-90.338837,0.6176577865472642,0.11426405,-0.34084329,-0.69947726
4.2871,1690.5027,8.93516,8.93995,9.23922,-0.09774,-1.83626,-0.67134,-21.78,-13.56,-9.18,38.011173,-21.735153,-90.698868,0.6088731766882411,0.09794681,-0.35280079,-0.70371264
4.3079,1690.5227,9.64145,9.18416,9.10994,-0.07453,-1.64445,-0.98594,-21.48,-13.68,-9.06,38.123039,-24.185205,-91.134079,0.5981511497636536,0.08216935,-0.36664712,-0.70783705
4.3351,1690.5427,8.02536,8.74123,8.26239,-0.17226,-1.36895,-1.28343,-21.12,-13.44,-8.4,38.452732,-25.776443,-92.159126,0.5855625966924177,0.07096548,-0.37731203,-0.71394396
4.3515,1690.5627,7.19458,8.76757,8.88728,-0.18998,-1.38727,-1.39094,-21.54,-13.44,-7.5,38.838322,-26.680483,-93.658562,0.5718935495509964,0.06262925,-0.38481963,-0.72175425
4.3624,1690.5825,8.73644,9.67018,10.72842,0.12339,-1.46669,-1.71103,-21.3,-14.04,-6.9,39.459911,-27.04113,-95.603287,0.5562737536147991,0.05744034,-0.39098215,-0.73102194
4.3833,1690.6027,8.80827,9.71806,10.21127,0.4777,-1.41843,-2.27975,-21.24,-14.34,-6.48,40.650608,-27.248634,-97.860901,0.537048039743564,0.05524849,-0.39962044,-0.74083096
4.4027,1690.6227,6.70137,8.92319,9.06445,0.59559,-1.28526,-2.79898,-20.76,-14.94,-5.7,42.449677,-26.886089,-100.708183,0.5136589191499366,0.05779415,-0.40939438,-0.75180489
4.4275,1690.6427,5.80833,8.90164,9.48104,0.74953,-1.36528,-3.13801,-19.8,-16.2,-5.1,44.527905,-25.844475,-104.211594,0.4871579077972626,0.06349403,-0.41852877,-0.7638582
4.4472,1690.6627,5.99029,8.95431,10.76194,1.33352,-1.74463,-3.55585,-18.78,-16.56,-4.56,46.984135,-24.488495,-108.302498,0.4563634957313347,0.0704854,-0.42966875,-0.77598256
4.467,1690.6837,5.15711,8.31985,9.97664,1.88574,-2.16918,-4.06164,-17.88,-17.04,-3.78,50.176487,-23.046589,-112.907921,0.4197882873725915,0.07880403,-0.44624496,-0.78640521
4.4894,1690.7037,4.15394,6.79953,8.55448,2.04457,-2.12276,-4.54362,-16.26,-17.88,-2.88,53.588928,-21.360336,-118.438217,0.3771206264878931,0.08457491,-0.4652383,-0.79635447
4.5069,1690.7237,2.04225,5.62159,7.20176,1.94316,-1.9285,-4.86982,-14.22,-18.72,-1.26,56.733719,-18.225521,-125.1381,0.33345881779130737,0.09242163,-0.48057455,-0.80579871
4.5319,1690.7437,-1.20907,4.22337,6.07648,1.92545,-1.75135,-4.9645,-12.3,-20.1,0.54,59.4655,-12.994933,-133.792755,0.28692618155871624,0.10297961,-0.49180508,-0.81559569
4.5442,1690.7637,-6.97431,2.26252,3.23696,1.6249,-1.76296,-4.51674,-9.84,-21.24,1.98,61.572479,-5.470034,-144.48027,0.2384868040110326,0.11690764,-0.49939284,-0.82465959
4.563,1690.7837,-9.62708,3.52905,3.48117,1.11544,-1.37628,-3.60472,-7.56,-22.08,2.76,62.49263,3.41238,-156.19635,0.19135386400908852,0.13183872,-0.50209218,-0.83301002
4.59,1690.8037,-9.50259,2.87304,3.90015,0.83505,-1.43004,-2.54792,-4.86,-22.68,3.72,62.209946,11.734258,-166.695297,0.15112246576695548,0.14646821,-0.50030226,-0.83988494
4.6122,1690.8237,-7.54413,3.61285,4.4197,0.77397,-1.62185,-1.96393,-2.34,-23.46,4.62,61.390045,17.798456,-174.873947,0.11687872910103012,0.15544294,-0.49787003,-0.84516406
4.6318,1690.8437,-6.97431,3.49793,4.31196,0.60903,-1.53022,-1.63773,0.36,-23.88,5.22,60.368866,22.32501,178.385117,0.0853737678298295,0.16037558,-0.49558258,-0.84934616
4.6666,1690.8637,-7.19697,3.55778,3.17232,0.21197,-0.99082,-1.38911,2.28,-24.06,6.24,59.127888,26.168743,172.569931,0.056566531121071274,0.16535854,-0.49233377,-0.85268062
4.673,1690.8837,-7.05811,3.79242,1.88424,-0.40623,-0.41539,-1.19791,3.48,-23.58,6.42,57.519154,29.681101,167.856522,0.03290579850463801,0.17408197,-0.48622656,-0.85568476
4.688,1690.9037,-7.40048,3.78044,1.23541,-0.96944,-0.05559,-1.20585,4.56,-23.16,6.12,55.447746,32.843056,164.275681,0.014129850468691479,0.18685481,-0.47627079,-0.85909939
4.7037,1690.9237,-10.22564,2.96642,2.10929,-1.59741,0.35064,-0.91569,5.04,-22.8,6.0,52.753082,35.679726,161.585785,0.002083190481624863,-0.20326126,0.46137309,0.86360604
4.7285,1690.9437,-10.80503,3.16274,3.16513,-2.15025,0.87965,-0.32437,6.12,-22.26,5.52,49.742199,37.716129,160.566925,0.010912203803755433,-0.22186872,0.44178563,0.8691839
4.7475,1690.9637,-9.97185,3.70383,5.76524,-2.3781,1.14171,-0.13867,6.78,-22.38,5.04,46.620392,38.994934,161.153351,0.011446381326249486,-0.24131238,0.41816989,0.87565476
4.7694,1690.9837,-10.39323,3.85706,7.45076,-2.18629,1.09284,0.2755,7.26,-22.56,4.62,43.594894,39.928799,162.434311,0.007946371669026698,-0.26001644,0.39332548,0.88182956
4.7878,1691.0046,-9.42597,4.35505,7.17782,-1.88452,1.02442,0.68295,7.8,-22.74,4.14,41.138348,40.438156,164.237106,0.0,-0.27531287,0.37094375,0.8869068
4.8135,1691.0247,-7.81467,5.50188,6.04775,-1.78434,1.03786,0.82222,7.38,-23.22,3.12,39.407696,40.782314,166.119797,0.009984180977325128,0.28743628,-0.35335109,-0.89018184
4.8289,1691.0447,-8.28873,6.23211,4.34548,-2.00608,0.9725,0.86804,6.9,-23.22,2.16,37.985905,41.142227,168.074387,0.021768321389839643,0.29878989,-0.33756554,-0.89235657
4.8454,1691.0647,-8.53533,7.07247,3.98635,-2.62855,1.15515,1.10444,7.02,-23.28,0.78,36.548161,41.328678,170.364822,0.03564392098909468,0.30927148,-0.32049552,-0.89463025
4.9008,1691.0857,-7.91523,8.02297,5.28879,-3.28218,1.55954,1.26327,5.94,-23.28,-0.42,34.839951,41.29705,173.742813,0.05668229288438689,0.32067022,-0.2980876,-0.89727449
4.9134,1691.1057,-7.27358,9.12191,6.72531,-3.73239,1.62551,1.32558,5.58,-23.16,-1.8,32.989014,41.265247,177.68602,0.0819072325725047,0.33243915,-0.27248046,-0.89918286
4.92,1691.1257,-7.10838,9.31584,10.2831,-3.8454,1.68904,1.42942,4.86,-23.58,-3.54,30.922094,40.937115,-177.894257,0.10979890023933214,0.34157091,-0.24351695,-0.90109545
4.9277,1691.1457,-6.34942,8.88009,13.06516,-3.0922,1.2535,1.70126,3.54,-23.16,-5.22,28.959751,40.504608,-173.32811,0.13926404122702987,0.34824181,-0.21468124,-0.90180105
4.9479,1691.1657,-5.04698,9.04529,15.54316,-1.85947,0.36652,1.88024,3.36,-23.1,-7.14,27.762999,39.719082,-169.272507,0.1664969162630859,0.34944275,-0.19382986,-0.90144247
4.9755,1691.1857,-3.19147,8.30788,17.05629,-0.38607,0.21808,1.934,1.98,-23.22,-8.64,27.7939,38.573513,-166.183273,0.1889613144845825,0.34556791,-0.18648541,-0.90005535
4.9845,1691.2057,-2.7246,7.24964,15.49049,0.80817,0.40073,1.79839,1.08,-22.5,-9.48,29.059374,37.8988,-164.156616,0.20687321661846564,0.34405014,-0.19169767,-0.89559197
5.0059,1691.2257,-4.19943,6.49068,12.57195,1.72508,0.11912,1.56076,0.0,-22.92,-9.9,31.226524,37.822342,-163.166168,0.21965434931931807,0.34604988,-0.20618269,-0.88853258
5.0291,1691.2457,-5.40371,5.59046,10.35013,2.14292,-0.02016,1.6359,-0.9,-22.68,-9.66,33.995544,37.826958,-162.9552,0.2277814441507033,0.34754124,-0.2275596,-0.88065165
5.0512,1691.2667,-5.01106,6.09085,7.95593,2.13864,0.24496,1.77884,-1.2,-22.5,-8.7,37.058186,37.362328,-162.514038,0.23713451707013103,0.34592834,-0.25138289,-0.87230009
5.0691,1691.2877,-7.47949,5.73411,4.08451,1.68782,0.50946,1.92972,-1.8,-22.8,-7.92,39.965378,37.333706,-161.981934,0.24744998010690275,0.34778258,-0.27266371,-0.86224723
5.0938,1691.3077,-9.76116,4.50828,0.98162,0.85277,0.18021,2.7153,-2.28,-22.86,-6.66,42.339821,37.477722,-160.984619,0.2602904576651402,0.35195011,-0.2878105,-0.85178936
5.1077,1691.3277,-7.98706,3.91691,1.58975,0.09346,-0.53023,3.58272,-3.72,-23.28,-5.76,44.437508,36.215824,-158.430954,0.28009694528715584,0.34989968,-0.29922864,-0.84236461
5.1315,1691.3477,-2.68629,4.75249,4.71418,-0.29993,-1.37139,3.99567,-5.28,-23.34,-5.28,46.330467,32.526234,-153.897964,0.3066252169683282,0.3360979,-0.30974686,-0.83491081
5.1601,1691.3677,1.43173,3.61524,9.47386,-0.38668,-1.34024,3.68535,-7.14,-23.58,-4.92,47.594299,26.634251,-147.988846,0.3348433763981032,0.31085259,-0.3193163,-0.83023351
5.1784,1691.3877,0.36152,-0.58897,10.07001,-0.2474,-0.28344,3.83807,-9.6,-22.86,-4.92,47.848888,20.77832,-141.959335,0.36215657511147836,0.28583682,-0.32338369,-0.82617366
5.1964,1691.4087,-0.73263,-1.53229,7.2257,-0.13928,0.5846,4.32737,-11.52,-21.72,-5.1,47.649246,15.840274,-135.420563,0.39516022886183655,0.26838043,-0.32238019,-0.8172462
5.2141,1691.4287,-0.39983,-1.08457,5.75327,-0.05009,0.43066,4.82217,-13.38,-21.0,-5.7,47.158886,10.86648,-127.715508,0.4360011516287551,0.25336039,-0.31925046,-0.80236566
5.2323,1691.4487,2.11887,-1.90339,5.66468,0.06475,-0.00244,5.09828,-15.42,-19.62,-5.7,46.127415,5.162266,-119.505653,0.47823828256556944,0.23293236,-0.31720588,-0.78511852
5.2482,1691.4687,4.35984,-3.02867,6.19141,0.24679,-0.00244,5.05735,-17.52,-18.0,-5.88,44.437817,-1.339737,-110.873383,0.521514324258549,0.20560123,-0.31752214,-0.76480758
5.2681,1691.4887,5.25767,-3.38301,6.2369,0.56016,0.27978,4.93701,-19.62,-16.86,-6.18,42.233978,-7.555727,-102.448517,0.5644419429287542,0.17722219,-0.31875309,-0.74053633
5.2926,1691.5087,5.14993,-3.4285,5.21936,0.78435,0.75992,4.89792,-21.42,-14.7,-5.88,39.755913,-12.984838,-94.433609,0.6064436705673381,0.15142557,-0.32017389,-0.71188837
5.319,1691.5297,7.32865,-2.04704,3.82833,0.88209,0.93951,4.92602,-23.04,-12.72,-6.06,37.083202,-18.007631,-86.161148,0.6499571083858013,0.12805313,-0.32289478,-0.67594165
5.3353,1691.5495,11.24317,1.17316,3.46202,0.74648,0.77885,3.99628,-24.24,-10.5,-6.12,34.560394,-22.612963,-78.518303,0.6881394235019651,0.10706514,-0.3292838,-0.63763106
5.3539,1691.5697,10.87925,-0.29688,3.85466,0.76419,0.71105,3.2272,-25.8,-7.86,-5.34,32.175007,-26.355421,-72.476875,0.7172274689325809,0.08813006,-0.33616984,-0.60399312
5.3968,1691.5897,9.57681,-1.65918,3.632,0.68783,1.11116,2.88695,-27.54,-6.0,-5.22,29.957373,-29.331129,-67.541138,0.7404889426925307,0.07189893,-0.34229609,-0.57388157
5.3998,1691.6097,9.30387,-0.15802,3.07655,0.46487,1.39949,2.63283,-28.68,-3.9,-5.22,27.771185,-31.336849,-63.261765,0.7618575142927814,0.05924242,-0.34441116,-0.54538465
5.4173,1691.6297,10.21606,1.43413,2.90896,0.39401,0.75564,2.339,-29.64,-2.28,-5.4,25.709459,-32.91531,-59.557419,0.7802236881150546,0.04801169,-0.34570113,-0.51907283
5.4302,1691.6497,12.62702,2.34392,3.73735,0.46976,-0.07269,1.86803,-30.06,-1.08,-5.88,23.950888,-35.021851,-56.387573,0.7927236884013467,0.03533784,-0.35290542,-0.49578035
5.4493,1691.6697,14.96616,3.87861,4.21619,0.47831,-0.40806,1.06535,-29.88,0.6,-6.18,22.736946,-37.573238,-53.852486,0.7987822410799886,0.02341098,-0.36600617,-0.47690496
5.4755,1691.6897,15.80891,5.40611,4.0893,0.25045,-0.35613,-0.04093,-30.3,1.8,-6.12,22.228289,-39.927597,-52.306549,0.7988464116761259,0.01496175,-0.38058236,-0.46559384
5.4928,1691.7097,13.80257,4.30956,3.43807,-0.28039,-0.13378,-0.80329,-30.0,3.12,-5.64,22.295698,-41.590191,-52.077587,0.7939844043968675,0.00949117,-0.39231575,-0.46431351
5.5179,1691.7297,11.91834,3.41653,3.84988,-0.83139,-0.08735,-1.14171,-29.94,3.54,-5.52,22.363066,-42.57518,-52.849991,0.7872465982630988,0.00330898,-0.39935619,-0.46983665
5.5307,1691.7497,11.71483,4.19225,5.77721,-1.14293,-0.2248,-1.34451,-30.3,3.66,-4.92,22.2714,-43.19318,-54.303883,0.7793170751481739,-0.00502077,-0.40329105,-0.479579
5.5492,1691.7697,12.27268,4.73334,6.91924,-1.04153,-0.59682,-1.65056,-29.82,3.18,-4.8,22.242022,-43.568752,-56.232014,0.76989678989092,-0.0136347,-0.40558079,-0.49252132
5.5699,1691.7897,12.9239,5.81791,7.2688,-0.74159,-1.19058,-2.15208,-29.64,2.28,-5.1,22.776098,-43.790764,-58.54113,0.7574602586256768,-0.01892253,-0.40847287,-0.50896543
5.5895,1691.8097,13.6254,6.59124,7.49864,-0.59804,-1.53449,-2.71835,-29.58,1.32,-5.28,24.002337,-44.232483,-61.158249,0.7403245745545687,-0.02150064,-0.41504103,-0.52839208
5.6139,1691.8297,14.80814,7.10838,8.5904,-0.55711,-1.5742,-3.46605,-28.92,0.24,-5.28,25.836214,-44.688122,-64.221161,0.7184225177008652,-0.0218239,-0.42377222,-0.55118954
5.6299,1691.8497,13.32613,6.04057,9.90481,-0.29077,-1.33779,-4.15449,-28.62,-0.9,-4.98,28.349594,-44.740715,-67.882423,0.6917814943959107,-0.0181635,-0.43256748,-0.57792199
5.6538,1691.8697,10.31662,5.2457,9.72046,-0.00061,-0.91019,-4.41778,-28.5,-2.82,-4.38,31.57748,-44.055481,-71.892532,0.6622516207904534,-0.00766416,-0.44024232,-0.60625964
5.6716,1691.8897,10.72363,6.9791,9.64624,0.30788,-0.84666,-4.66823,-27.84,-4.44,-3.6,35.128174,-42.637642,-76.108597,0.6317198516707866,0.00771145,-0.44621488,-0.63384765
5.6978,1691.9107,10.37408,7.00543,9.14106,0.82589,-1.35795,-5.43609,-26.94,-6.78,-3.18,39.411465,-40.730072,-80.966652,0.5951134147959394,0.02773449,-0.45441529,-0.66225189
5.7116,1691.9307,7.47949,5.6575,7.57525,1.09101,-2.0183,-5.90401,-25.86,-9.18,-2.28,44.281181,-38.645733,-86.493134,0.5512524447555757,0.04907053,-0.4669224,-0.6897074
5.7325,1691.9507,4.22577,3.93846,5.68384,1.08245,-2.23638,-6.01763,-24.24,-11.52,-1.68,48.503426,-36.805786,-92.57991,0.5040754678069864,0.06125275,-0.48062018,-0.71495473
5.7646,1691.9707,2.73897,3.68468,4.66869,0.87354,-2.12642,-5.81544,-22.44,-13.74,-0.96,52.388855,-34.018173,-99.611084,0.45513951765849675,0.07192439,-0.49183378,-0.73876548
5.773,1691.9917,1.41737,3.12683,3.94804,0.77641,-2.33778,-5.60774,-20.76,-16.02,0.36,55.600216,-30.125469,-107.538513,0.40708998055847123,0.08075015,-0.499152,-0.76066053
5.793,1692.0117,-0.64165,2.61686,3.21541,0.63897,-2.67742,-5.40188,-18.18,-18.3,1.38,58.375813,-25.137297,-116.973663,0.3549182746370275,0.08683637,-0.50509048,-0.78190541
5.8122,1692.0317,-2.3535,1.84832,2.39899,0.17104,-2.57541,-4.98466,-15.36,-19.68,2.28,60.215816,-19.275848,-127.332481,0.3030651789941477,0.08957882,-0.50747585,-0.80162048
5.8323,1692.0517,-3.27048,2.15718,3.15556,-0.44838,-2.03601,-4.5369,-11.94,-21.24,3.36,61.485619,-12.352242,-138.31636,0.2526182497097167,0.09440278,-0.50786209,-0.81813705
5.855,1692.0727,-3.89776,1.90339,4.63039,-0.82711,-1.45142,-4.04698,-8.94,-22.5,3.72,61.401833,-4.865515,-149.117706,0.20783640682995538,0.10063207,-0.50140178,-0.8338306
5.8737,1692.0927,-4.7477,2.08296,4.8315,-1.04641,-0.99205,-3.63037,-5.94,-23.22,3.72,59.877903,2.829365,-159.514893,0.1661657647293823,0.10976955,-0.48716983,-0.85029709
5.8966,1692.1127,-5.09726,2.20506,4.68306,-1.25227,-0.80512,-3.33349,-3.0,-23.7,3.9,57.176086,9.69344,-168.341187,0.12908530548260144,0.12223276,-0.46679673,-0.86631227
5.9131,1692.1337,-7.60159,0.84994,3.97198,-1.67866,-0.57177,-3.01951,-0.66,-23.7,2.94,53.551605,15.903887,-176.220154,0.09144980953512492,0.13815607,-0.44185281,-0.88165522
5.9416,1692.1537,-10.22085,0.13168,5.01585,-2.09832,-0.3372,-2.46912,1.86,-23.16,2.22,49.300098,20.685125,177.956543,0.05892229051586873,0.15583034,-0.41314256,-0.89529788
5.9556,1692.1747,-12.7611,-0.45969,5.93044,-2.19484,-0.34819,-1.63101,3.66,-22.68,1.2,44.578823,24.141003,173.978088,0.031673901206001526,0.1737407,-0.38055095,-0.90774
5.9742,1692.1947,-13.90552,-0.32801,6.63673,-2.05556,-0.59743,-0.60109,4.68,-22.26,0.54,40.362888,26.071878,171.945831,0.013405770367101905,0.18758716,-0.35014167,-0.9176231
5.9951,1692.2157,-13.09389,-0.02155,8.43238,-1.71042,-0.93768,0.34697,5.4,-22.5,0.12,36.845085,26.636126,171.459839,0.0038501828752642913,0.19504695,-0.32294253,-0.92609394
6.0156,1692.2357,-11.49217,1.32399,10.91038,-1.11422,-0.9499,1.14965,6.0,-22.56,-0.9,34.254627,25.964447,172.183868,0.002518065228602239,0.19462846,-0.30093333,-0.93356979
6.0358,1692.2557,-10.5704,2.65996,11.3557,-0.61697,-0.5901,1.75441,6.24,-22.68,-1.74,32.829983,25.016434,173.479355,0.007841423999553628,0.19172525,-0.28725398,-0.93843758
6.0557,1692.2755,-10.95826,3.15316,9.63427,-0.55772,0.21747,2.54486,6.36,-22.8,-3.12,32.523033,23.948071,175.508194,0.02124893473024695,0.18828048,-0.28152388,-0.94066107
6.0791,1692.2957,-9.4571,5.05416,9.21528,-1.00854,1.05374,3.18444,6.06,-22.98,-3.84,32.497181,23.318203,178.616699,0.045191528128815876,0.19069417,-0.27635431,-0.94086224
6.0966,1692.3157,-6.03099,6.34224,11.49456,-1.3549,1.54305,3.40618,5.28,-23.16,-4.68,32.201302,23.027172,-177.344269,0.07715587679445673,0.198017,-0.26722804,-0.93990713
6.1203,1692.3357,-4.43167,7.09881,13.6278,-1.1973,2.01647,3.29867,3.96,-23.16,-5.04,31.969919,22.685577,-172.825775,0.1130276786087513,0.20559646,-0.25764757,-0.93732202
6.1447,1692.3557,-4.10845,8.20014,13.40035,-0.83505,2.23393,3.29684,2.1,-23.16,-5.22,32.156124,22.670031,-168.376236,0.14955658572953662,0.21538414,-0.25102481,-0.93178809
6.1598,1692.3757,-2.55222,9.06445,12.42591,-0.56444,2.39093,3.43001,0.24,-22.92,-5.28,32.812878,22.818707,-163.963303,0.1864933904966118,0.22652782,-0.24769087,-0.92333883
6.1781,1692.3957,1.34554,10.41238,13.26627,-0.29138,2.54792,3.13985,-1.44,-22.92,-5.52,33.77951,23.081909,-159.586426,0.22333576633909186,0.23885052,-0.24622914,-0.91238302
6.2094,1692.4157,2.9329,9.73243,13.15853,0.57238,2.4795,2.3219,-3.18,-23.16,-5.76,35.00938,23.869116,-155.927795,0.2554055707393704,0.25424868,-0.24668729,-0.8995949
6.2195,1692.4367,0.59616,9.55765,11.04924,1.33413,1.98898,1.96699,-4.32,-23.28,-6.3,36.956535,25.259165,-153.575546,0.27899436732038163,0.27257302,-0.25369236,-0.8851589
6.2371,1692.4567,0.67038,8.61194,8.98544,1.81977,1.63101,1.96699,-5.52,-23.16,-6.66,39.456436,25.862873,-151.646194,0.29793386343884837,0.28481123,-0.26738638,-0.87098938
6.2584,1692.4777,1.51792,8.22648,6.53138,2.04457,1.42271,1.86008,-6.84,-22.74,-6.42,42.579697,25.724476,-149.500046,0.3169106188403146,0.29321876,-0.28695446,-0.85513014
6.289,1692.4977,3.11246,8.31985,4.41251,1.98043,1.37078,1.5742,-7.74,-22.5,-6.18,45.750717,25.264225,-147.422806,0.33376037122779195,0.29979274,-0.30757958,-0.83912045
6.3038,1692.5177,4.4987,8.04452,2.96402,1.79655,1.30053,0.96944,-8.58,-21.9,-5.28,48.79047,24.685863,-145.442291,0.3485565266567984,0.30573472,-0.32744926,-0.82329315
6.3172,1692.5377,3.50511,6.94318,1.403,1.48379,1.14598,0.25412,-9.42,-21.9,-4.26,51.453892,24.457972,-144.119354,0.3586721809412409,0.3122189,-0.34482759,-0.80930066
6.3381,1692.5577,1.60172,5.88255,0.6177,1.08734,0.9896,-0.13134,-10.02,-22.32,-3.78,53.591595,24.703857,-143.600037,0.3639534407976265,0.3189376,-0.35870671,-0.79821438
6.3571,1692.5777,-0.23224,4.74052,-0.17478,0.61209,0.6689,-0.18326,-10.38,-22.38,-2.88,55.248508,25.199203,-143.489929,0.36690892232297617,0.32528955,-0.36918977,-0.78947037
6.3803,1692.5977,-1.15401,3.76129,0.54348,0.09407,0.41844,-0.02382,-10.56,-22.86,-2.16,56.38998,25.361355,-143.288712,0.36921715765895,0.32878616,-0.37656966,-0.78343707
6.4008,1692.6177,-1.32639,3.45962,1.76692,-0.34147,0.42699,0.3372,-10.56,-22.68,-2.4,56.805817,25.146702,-142.68866,0.37273362174129393,0.3299318,-0.37861598,-0.78029776
6.4272,1692.6387,-1.08218,3.67271,2.85868,-0.57971,0.30177,0.69516,-10.44,-22.44,-1.8,56.727032,24.381842,-141.325882,0.3794626552798183,0.32909471,-0.37662607,-0.77836853
6.4462,1692.6587,-0.46448,3.82593,3.39498,-0.5962,0.15516,0.97005,-10.44,-22.44,-1.8,56.500858,22.814894,-139.180954,0.3888613200832665,0.32509017,-0.37409192,-0.77663279
6.477,1692.6787,2.50912,5.36301,4.50349,-0.43982,-0.0281,0.97677,-10.92,-22.32,-2.1,56.432117,19.981377,-136.091751,0.40051909400708613,0.31586856,-0.37470886,-0.77421236
6.4861,1692.6987,3.07894,5.51145,3.57933,-0.22235,-0.0507,0.63835,-11.04,-22.26,-2.1,56.536903,16.736202,-132.896866,0.41135685161437124,0.30472386,-0.37831458,-0.77123731
6.5023,1692.7187,1.48919,6.37336,1.85072,-0.32865,-0.28161,0.50946,-11.82,-21.84,-2.22,56.821007,14.14786,-130.576401,0.41813239083920395,0.29578844,-0.38364124,-0.76843601
6.5193,1692.7387,1.25696,7.19218,0.99599,-0.66035,-0.48869,0.61087,-12.72,-21.54,-2.7,57.07991,11.524434,-128.429688,0.4233999637569128,0.28619751,-0.38965985,-0.76615185
6.5412,1692.7587,2.32956,7.51779,0.55306,-1.13682,-0.70555,0.56933,-12.9,-21.3,-2.94,57.104385,8.397178,-125.927063,0.4293726156997854,0.27395847,-0.39535147,-0.76438415
6.558,1692.7787,2.49955,7.185,0.7829,-1.6078,-0.85521,0.40867,-13.38,-21.12,-3.18,56.64587,5.138517,-123.544998,0.43467285351947516,0.25894028,-0.39893439,-0.76476192
6.5783,1692.7987,1.7334,6.7732,0.83797,-2.08244,-1.10811,0.38729,-13.74,-21.0,-3.9,55.656364,2.099442,-121.608833,0.43877322231129207,0.24181701,-0.39954507,-0.76770198
6.6018,1692.8187,1.11091,6.57448,0.97923,-2.49844,-1.71714,0.44043,-13.68,-20.82,-4.14,54.187775,-0.936462,-120.011185,0.4418171552572111,0.22137798,-0.39807725,-0.77286732
6.6219,1692.8387,0.69911,5.71975,1.06063,-2.90344,-2.58885,0.55405,-13.74,-20.82,-4.62,52.289394,-4.397038,-118.787155,0.44215979840218195,0.19454187,-0.39650583,-0.78066081
6.6425,1692.8597,0.2059,3.78044,5.55694,-3.24247,-3.36098,0.75747,-13.74,-20.22,-5.52,49.288769,-8.563908,-118.057281,0.43973479471810506,0.15579754,-0.39145848,-0.79317129
6.6655,1692.8797,-0.26815,3.34231,11.91594,-2.86557,-3.85517,1.36895,-13.98,-20.4,-6.0,45.485466,-12.78069,-117.709488,0.43720640387931275,0.11085573,-0.38190448,-0.80666631
6.6842,1692.9007,-0.19872,5.56412,17.47528,-1.89979,-4.15449,2.37199,-14.94,-20.04,-6.6,41.651711,-17.472961,-117.020569,0.4365048824218009,0.06249453,-0.3738094,-0.81598067
6.7044,1692.9217,6.30154,10.34774,21.46641,-0.62675,-3.41901,2.80143,-16.26,-19.2,-7.2,38.320187,-23.924242,-114.445313,0.4430864164513508,0.00921477,-0.37595183,-0.81378728
6.7308,1692.9427,9.97424,14.23832,20.59492,0.51924,-1.64873,1.77029,-17.64,-18.48,-7.26,36.619247,-29.364622,-111.355843,0.45205833753583446,-0.02738086,-0.38665634,-0.80336195
6.7534,1692.9627,6.66067,15.35162,16.40986,0.84727,-0.1686,1.03297,-18.9,-17.16,-6.54,36.300999,-32.407425,-108.974083,0.4592969463586079,-0.04207634,-0.3975274,-0.79325145
6.766,1692.9827,4.61841,15.7754,13.84806,0.92607,0.56688,0.6243,-19.74,-15.96,-6.12,36.549019,-33.360996,-107.19976,0.467335169130579,-0.04113114,-0.4035112,-0.78554744
6.7834,1693.0027,4.94163,14.79377,12.97178,1.45203,0.61209,0.3427,-20.76,-15.42,-5.1,37.176155,-33.584389,-105.695847,0.47461975503494697,-0.03395084,-0.40860638,-0.77886087
6.8067,1693.0237,5.77481,13.85285,9.93354,2.04212,0.60537,-0.06353,-21.24,-15.24,-4.26,38.606773,-33.861523,-103.916534,0.4805672352972272,-0.02157708,-0.41842917,-0.77039379
6.8282,1693.0437,5.92804,12.56716,6.5673,2.44835,0.06231,-0.6579,-21.42,-14.88,-3.9,40.791203,-34.267361,-102.282112,0.48202625752054074,-0.00607581,-0.43257827,-0.76189882
6.8481,1693.0637,4.49631,10.58955,4.39815,2.50577,-0.59682,-1.30786,-21.66,-14.88,-3.24,43.667801,-35.182777,-100.981178,0.47622876947169107,0.00910304,-0.45200822,-0.75419617
6.8656,1693.0837,2.14999,8.16423,3.54102,2.21927,-0.70983,-1.63468,-21.48,-14.82,-2.1,46.967781,-36.168747,-100.364227,0.4632870817992869,0.02389023,-0.47326592,-0.74887496
6.885,1693.1047,-0.87149,5.31513,3.52905,1.70798,-0.53939,-1.52044,-21.72,-15.0,-1.02,50.304783,-36.451096,-100.677628,0.44641071931393883,0.0397215,-0.49147433,-0.74672127
6.9136,1693.1247,-2.70066,3.47878,3.80918,1.11361,0.01405,-0.8882,-21.3,-15.12,-0.06,52.792545,-35.728058,-101.548721,0.4334882295835941,0.0547264,-0.50155443,-0.74668342
6.9408,1693.1447,-2.88741,2.36308,4.30956,0.55344,0.87842,-0.28344,-20.88,-15.72,0.9,54.223763,-33.995991,-102.575661,0.42841179246860606,0.06952048,-0.50281101,-0.74753684
6.9442,1693.1647,-3.53624,0.21787,4.11084,0.10507,1.71531,0.42822,-20.04,-16.02,1.32,54.574238,-30.86636,-103.832588,0.43237956790965726,0.08642822,-0.49371564,-0.74954849
6.9639,1693.1847,-4.32632,-1.45089,3.74453,-0.23885,2.24676,1.49723,-19.68,-16.44,1.44,53.859005,-26.978355,-104.731133,0.4457292342144721,0.10422335,-0.47575253,-0.75108087
6.9882,1693.2047,-1.22104,-0.79009,3.44526,-0.55405,2.56075,2.55403,-19.86,-17.04,1.26,52.544434,-26.159882,-102.171616,0.47071071127465725,0.11293145,-0.46294761,-0.74253446
7.0068,1693.2267,4.79559,0.40941,3.34949,-0.95478,2.4178,2.9291,-20.04,-16.8,0.48,50.431301,-26.321356,-98.089523,0.5041792138724508,0.11634702,-0.44831207,-0.72889161
7.0275,1693.2467,8.08282,1.3216,4.07254,-1.1808,1.86864,2.46179,-20.7,-16.32,-0.42,47.767853,-26.464508,-94.290535,0.5374481351390539,0.11463596,-0.43128514,-0.71554261
7.0475,1693.2677,10.83616,2.60968,5.68623,-1.11666,1.29442,1.77334,-21.48,-15.48,-1.44,44.145416,-27.469183,-90.994179,0.5673646318202074,0.09894772,-0.41457465,-0.70458114
7.0869,1693.2877,13.93425,4.32632,7.4723,-0.71838,0.88026,0.86376,-22.14,-13.98,-2.58,41.299061,-28.496017,-88.787148,0.5873571902549235,0.08311636,-0.4036862,-0.69652039
7.0911,1693.3077,13.96777,5.0805,8.48026,0.06903,0.21991,-0.34392,-22.92,-13.08,-3.6,39.596809,-29.312429,-87.644897,0.5974121721704428,0.07158429,-0.39866108,-0.69212985
7.1138,1693.3277,12.43548,5.94959,9.23922,0.85643,-0.0562,-1.18019,-23.64,-12.36,-4.68,39.420639,-30.164333,-87.452316,0.5962179903566232,0.06601116,-0.40211114,-0.69171762
7.1273,1693.3477,11.22641,6.28717,6.87854,1.372,0.32987,-1.51128,-23.82,-12.6,-5.16,40.433105,-30.874857,-87.503349,0.5897759051110524,0.06787778,-0.41078332,-0.69196391
7.1527,1693.3677,9.32781,8.27676,2.96402,1.36162,0.33781,-1.83565,-23.64,-12.9,-5.1,42.217281,-31.23835,-87.503075,0.581937122653171,0.07684103,-0.42128572,-0.69134867
7.1706,1693.3887,6.63912,9.12909,-0.39265,0.94257,-0.19303,-2.00975,-23.04,-13.38,-4.5,44.381954,-31.544853,-87.830582,0.5706878580199964,0.08726826,-0.43340802,-0.69199502
7.1909,1693.4087,4.77883,8.89685,-0.81403,0.0452,-0.82467,-1.97004,-22.62,-14.22,-3.9,46.479504,-32.059998,-88.778877,0.5548683820497017,0.09350785,-0.44660786,-0.69564271
7.2181,1693.4297,4.50589,9.06205,3.04303,-0.61025,-0.91447,-1.7764,-21.42,-14.52,-3.6,47.695133,-32.35899,-90.694923,0.5372007259180849,0.09159241,-0.45533907,-0.70405436
7.2364,1693.4497,3.98874,10.18972,5.59046,-0.75259,-0.87354,-1.7599,-20.94,-15.6,-3.18,48.306419,-32.146606,-92.977234,0.5215047806033138,0.08748998,-0.45908511,-0.71387613
7.262,1693.4696,2.96881,10.06762,6.06691,-0.69211,-0.82222,-1.7373,-19.86,-16.14,-3.06,48.851826,-31.435673,-95.623611,0.5055947605266877,0.08456388,-0.46057987,-0.7246303
7.27,1693.4897,0.77333,8.34858,6.08845,-0.65851,-0.90225,-1.71775,-18.54,-16.86,-2.52,49.381958,-30.272501,-98.574638,0.48939520735178976,0.0831873,-0.46039122,-0.73594302
7.2935,1693.5097,-1.71904,7.75003,6.72052,-0.53817,-0.90164,-1.40804,-17.7,-17.76,-2.52,49.841244,-28.840296,-101.770691,0.4726952500751915,0.08222314,-0.45910805,-0.7476753
7.3098,1693.5295,-3.39258,8.12592,6.66067,-0.3207,-1.0965,-0.93523,-16.8,-18.48,-2.7,50.336708,-27.323469,-104.773682,0.457186755739802,0.08288135,-0.45782059,-0.75796521
7.3416,1693.5497,-3.5937,7.3909,6.55054,-0.15821,-1.38239,-0.46426,-16.32,-19.5,-2.88,50.773582,-26.330599,-107.241539,0.44315074476240035,0.081941,-0.45814577,-0.76616287
7.3507,1693.5697,-2.50433,7.08684,6.25126,-0.17226,-1.22723,-0.0843,-16.14,-19.8,-3.12,51.078739,-25.958454,-109.077431,0.43122217441022903,0.07867008,-0.45975724,-0.7723223
7.3704,1693.5897,0.43335,7.65905,7.04374,-0.31826,-0.70677,-0.0843,-16.02,-19.8,-2.82,51.070526,-25.796486,-110.333931,0.4234075400838108,0.07468066,-0.45994642,-0.77691579
7.3982,1693.6097,1.15161,7.84101,7.49864,-0.38973,-0.02077,-0.43494,-15.42,-19.98,-3.0,50.870289,-24.913517,-111.714256,0.4182506966649594,0.07415944,-0.45642507,-0.78182024
7.4097,1693.6297,-0.50996,7.88171,7.45794,-0.33781,0.41661,-0.71532,-15.54,-19.74,-3.0,50.747482,-22.849701,-113.708649,0.41316413838217175,0.07980794,-0.44954154,-0.78793305
7.4299,1693.6497,-1.70707,7.71172,6.24408,-0.36041,0.70433,-0.68295,-14.82,-19.5,-2.88,50.766148,-20.097956,-115.969879,0.40819327103319475,0.0901002,-0.44146973,-0.79395509
7.4508,1693.6707,-1.75734,7.35978,5.39653,-0.58093,0.92913,-0.62064,-14.34,-20.04,-3.12,50.680309,-17.108519,-118.16954,0.40455295350448683,0.102108,-0.43216917,-0.79946274
7.4737,1693.6907,-2.00634,7.01741,5.42287,-0.78802,0.93523,-0.51435,-14.34,-19.92,-3.06,50.265038,-13.822294,-120.404976,0.402272382941264,0.11498685,-0.42001796,-0.80531973
7.4937,1693.7107,-1.55144,7.1036,6.72531,-0.79412,0.54489,-0.38729,-13.68,-19.86,-2.82,49.568645,-11.022544,-122.278191,0.40093972933216865,0.12504272,-0.40752682,-0.81088442
7.5272,1693.7317,-0.51715,6.58645,7.94157,-0.52107,0.21075,-0.30482,-13.68,-20.28,-3.48,48.755363,-9.019227,-123.807648,0.3990082614287508,0.13060695,-0.39671126,-0.81630534
7.5322,1693.7517,-0.10056,6.39252,8.11634,-0.33414,0.25045,-0.27917,-13.98,-20.1,-3.72,48.150864,-7.665358,-124.948898,0.39681686893676194,0.13398479,-0.38915703,-0.82045186
7.5546,1693.7717,-0.1245,6.35661,7.77397,-0.24068,0.60903,-0.14783,-13.74,-20.16,-4.14,47.668163,-6.421229,-125.827774,0.39569505785935943,0.13809346,-0.38253212,-0.82342261
7.5751,1693.7917,-0.36631,6.8546,6.8546,-0.18692,0.89003,-0.03482,-13.98,-20.34,-4.5,47.305611,-5.091417,-126.331032,0.39718411989596003,0.14462194,-0.37600318,-0.82459134
7.6014,1693.8127,-0.34477,7.66384,6.21774,-0.0843,0.82406,0.13561,-14.04,-20.52,-4.5,47.078377,-3.804329,-126.467293,0.40081454586688814,0.15259111,-0.37009135,-0.82407284
7.6136,1693.8327,0.78051,8.14507,6.05733,-0.05681,0.78985,0.16127,-13.68,-20.58,-4.92,46.999584,-3.000973,-126.255814,0.4050560177219609,0.15875082,-0.36642042,-0.82247424
7.6349,1693.8527,0.81403,8.70532,6.03578,-0.06353,0.66096,0.02688,-13.62,-20.34,-4.92,46.966557,-2.257629,-126.055679,0.4089151767989801,0.16459599,-0.36326355,-0.82081431
7.6547,1693.8737,0.93613,9.09797,6.35661,0.011,0.38973,-0.07575,-13.32,-20.46,-5.22,47.005131,-1.59776,-126.050095,0.4109755935984347,0.16947909,-0.36116892,-0.81971514
7.6793,1693.8947,2.1069,9.83778,7.49864,0.15088,0.18143,-0.18021,-13.14,-20.28,-5.22,47.176529,-1.21999,-126.122696,0.41136113197758567,0.17257933,-0.36114052,-0.818887
7.6981,1693.9147,4.53462,10.80982,9.10036,0.33048,0.30849,-0.30482,-12.9,-20.28,-5.28,47.528748,-1.204756,-126.135109,0.4107349561760029,0.17393552,-0.36360821,-0.81782168
7.7179,1693.9347,6.26802,10.5273,8.65983,0.61636,0.37996,-0.62492,-12.84,-20.46,-5.58,48.104107,-1.197266,-126.149918,0.409688938516338,0.17603941,-0.36768651,-0.81607091
7.7364,1693.9547,6.55054,10.26394,8.03734,0.76725,0.59254,-1.06352,-12.96,-20.7,-6.12,48.945873,-0.887234,-126.561974,0.40634339397185165,0.17995916,-0.37318653,-0.8143903
7.7581,1693.9747,4.43406,9.27274,6.27281,1.04153,0.50457,-1.34268,-12.48,-20.52,-6.66,49.997257,0.144746,-127.628319,0.4004224072230758,0.18751232,-0.37871888,-0.81306398
7.7807,1693.9947,3.40934,8.67659,3.87382,1.25533,-0.1069,-1.33413,-11.88,-20.82,-6.6,51.408192,1.144931,-128.960068,0.39208506489438194,0.19497415,-0.38750929,-0.81122804
7.8006,1694.0167,3.31836,8.06607,2.74376,1.40743,-1.02076,-1.48685,-11.04,-21.3,-6.0,53.16729,1.492938,-130.475555,0.3798352945412815,0.19800206,-0.40144312,-0.8095454
7.8253,1694.0377,2.93529,7.74524,2.10211,1.32985,-1.4563,-1.67316,-10.26,-21.66,-5.1,55.196674,1.258267,-132.550613,0.3611979352237426,0.19529055,-0.4201782,-0.80922675
7.8554,1694.0587,2.8491,7.14909,1.50356,0.94195,-1.39949,-1.91323,-9.66,-22.56,-3.96,57.011898,1.05095,-134.932678,0.34079529061789476,0.19033098,-0.43770701,-0.80996621
7.8688,1694.0787,3.20823,6.12197,2.45885,0.62186,-1.26022,-2.29258,-9.0,-22.74,-2.94,58.279408,1.33118,-137.699432,0.3204029949031546,0.18514672,-0.45044741,-0.81250215
7.8837,1694.0997,2.09253,4.27365,2.19788,0.5003,-1.23089,-2.86251,-8.22,-22.68,-2.34,59.139198,2.80908,-141.730865,0.2964377783655637,0.18184948,-0.45908815,-0.81749219
7.9014,1694.1207,-1.08457,1.59693,0.60573,0.54123,-1.8326,-3.3622,-7.14,-22.8,-1.5,59.769596,5.697198,-147.405807,0.26677012445570714,0.1810047,-0.46555507,-0.82421446
7.9283,1694.1407,-5.18105,0.27294,0.39265,0.29688,-2.69453,-3.44223,-5.76,-23.04,-0.96,59.820301,10.164453,-155.224838,0.22836341261130833,0.18154863,-0.46864498,-0.8338238
7.9482,1694.1607,-10.15381,-0.1652,0.826,-0.60415,-2.68781,-2.7831,-4.14,-23.64,-0.96,59.16777,13.419284,-162.639297,0.1873692912965173,0.1744417,-0.46936512,-0.84507942
7.96,1694.1807,-13.60146,-0.30167,0.16281,-1.93278,-1.92606,-1.55771,-2.58,-24.06,-0.42,56.895958,18.958672,-171.107376,0.14544929108718432,0.18079504,-0.45721588,-0.85855186
7.9792,1694.2007,-10.67814,2.21942,2.78685,-3.20216,-1.58397,-0.51068,-1.02,-24.06,-1.08,53.29047,21.522387,-175.149979,0.1208128863939031,0.18537895,-0.43312225,-0.87375283
7.9992,1694.2207,-7.91284,4.76925,8.9208,-3.82646,-1.36467,-0.41783,0.54,-24.0,-1.56,48.664417,21.26623,-175.747208,0.1092011774289624,0.18303843,-0.39843455,-0.89208853
8.0203,1694.2407,-8.89207,4.66391,12.40675,-4.00605,-0.57177,-0.17776,1.44,-23.4,-2.58,43.498711,20.50523,-175.452835,0.10215932459687833,0.1796532,-0.35778496,-0.91064709
8.0452,1694.2607,-10.22324,4.51068,14.7818,-3.95719,0.19303,0.42333,1.98,-23.34,-4.38,38.376358,20.103609,-174.419418,0.10256817630698022,0.18040077,-0.31521857,-0.92605215
8.0652,1694.2807,-11.05163,4.19464,18.02116,-3.2944,0.71105,1.17958,2.34,-23.04,-5.88,34.411568,18.917738,-171.927826,0.11481167486528314,0.1771328,-0.28000963,-0.93650246
8.0839,1694.3007,-11.57118,3.73495,19.73062,-1.74585,0.60292,2.00119,1.86,-22.56,-7.62,31.623741,18.083076,-169.057358,0.13322448484135707,0.1761727,-0.25345099,-0.94179457
8.1085,1694.3207,-8.60237,2.9736,17.26698,0.13683,0.33842,2.89672,1.08,-22.68,-9.48,31.026049,16.968039,-165.858902,0.15646749105501215,0.17363924,-0.24502039,-0.94092101
8.1338,1694.3407,-3.60806,3.22978,13.4195,1.31703,0.41417,3.24553,0.24,-22.2,-10.5,32.514072,15.361255,-162.254379,0.18371291514642027,0.16956373,-0.25432503,-0.93424648
8.1424,1694.3616,-3.38061,2.90656,8.41801,1.71287,0.48503,3.38419,-0.96,-21.96,-11.22,35.140488,13.736018,-158.360474,0.2131354821559795,0.16823836,-0.27297977,-0.92290366
8.1616,1694.3817,-2.40857,3.70144,5.38695,1.26693,0.20342,3.76843,-2.46,-21.9,-11.1,37.024765,12.40729,-154.611801,0.2406269530565241,0.16932905,-0.28541732,-0.91212022
8.1814,1694.4017,1.39821,3.98395,4.8722,0.31032,0.2303,3.98345,-4.08,-21.3,-10.38,38.300026,9.989998,-149.797318,0.2727514974482593,0.16454969,-0.29408285,-0.90113556
8.2049,1694.4217,4.97755,4.03662,8.03494,-0.38546,0.56016,3.69329,-6.12,-21.42,-10.2,38.402912,6.799849,-144.168076,0.3085555559578353,0.15428582,-0.29516292,-0.89099282
8.2318,1694.4427,9.45231,5.06613,10.80264,-0.29871,0.7196,2.81242,-8.46,-21.18,-9.66,37.735016,3.505429,-138.321609,0.3457179742206566,0.14203689,-0.29178846,-0.88043404
8.2523,1694.4627,7.79552,4.65912,11.83454,0.46242,0.17837,1.75379,-10.2,-20.82,-10.08,37.132999,0.980126,-134.070404,0.3723531304450245,0.13169152,-0.28999561,-0.87172991
8.2634,1694.4827,4.48673,4.07254,10.05804,1.19974,-0.11179,1.58764,-11.22,-20.82,-10.08,37.314102,-1.340648,-131.112717,0.3886189709593549,0.12227532,-0.2957963,-0.86401886
8.2887,1694.5027,4.38618,4.04141,6.76362,1.36773,-0.11484,1.69637,-12.24,-20.34,-9.48,38.135986,-3.919955,-128.131088,0.4030564679647856,0.1137223,-0.30775577,-0.85434133
8.3076,1694.5227,6.62715,5.93523,5.81791,1.26388,0.02138,1.42637,-12.78,-19.86,-9.06,39.068748,-6.764091,-124.851189,0.4180112020887742,0.10522885,-0.32161123,-0.84306568
8.3418,1694.5427,6.98389,6.27999,4.16352,1.1356,0.06475,0.77091,-13.62,-19.92,-8.64,40.024818,-9.356264,-121.904572,0.4303000952072334,0.09861475,-0.33538908,-0.83224463
8.3509,1694.5627,4.87699,6.51941,3.15795,0.81856,-0.23885,0.22663,-14.34,-19.56,-8.4,41.011303,-11.442158,-119.907196,0.43641217931007176,0.09369934,-0.34846634,-0.82421845
8.3706,1694.5837,3.5913,6.90248,2.9712,0.41783,-0.42883,0.04704,-14.76,-19.62,-8.28,41.91188,-13.359013,-118.595825,0.4377969957009546,0.08797062,-0.36089164,-0.81875038
8.3853,1694.6037,3.2609,7.00783,4.14676,0.00244,-0.13317,-0.05559,-15.3,-19.68,-7.68,42.423267,-14.974871,-117.750046,0.4374172619729403,0.08143704,-0.36988088,-0.8156116
8.4032,1694.6237,2.22182,7.20655,4.53462,-0.31521,0.10934,-0.17654,-15.54,-19.26,-7.56,42.628071,-15.792347,-117.322266,0.437281944020437,0.07794257,-0.37406975,-0.8141138
8.4233,1694.6437,0.84755,6.79714,5.78679,-0.3934,0.0171,-0.10751,-16.08,-19.56,-7.2,42.55991,-15.93582,-117.364632,0.436688957391884,0.07647382,-0.37419212,-0.81451505
8.4467,1694.6637,0.7829,7.29034,6.39012,-0.27245,-0.22541,0.01283,-15.9,-19.32,-7.26,42.411789,-16.034271,-117.450134,0.43614388831084777,0.07481936,-0.37363791,-0.81521487
8.4663,1694.6847,0.55545,8.22169,6.19619,-0.22602,-0.43371,-0.03299,-15.84,-19.26,-7.5,42.425186,-16.359972,-117.486008,0.4347898900720814,0.07244575,-0.37498775,-0.81553268
8.4892,1694.7047,1.51792,8.59997,6.95037,-0.39828,-0.22235,-0.11423,-15.42,-19.68,-7.32,42.42268,-16.718168,-117.654808,0.43242005732887473,0.06933023,-0.37643099,-0.81639814
8.5148,1694.7247,1.26653,8.36295,7.70933,-0.61148,0.00611,-0.37874,-15.42,-19.32,-7.32,42.211094,-16.517426,-118.16761,0.4299726075343848,0.06812081,-0.37457287,-0.81864417
8.5281,1694.7447,-0.26576,8.14986,9.48104,-0.51679,0.08796,-0.45876,-15.96,-19.44,-7.38,41.831028,-15.698541,-119.167892,0.4264413990207935,0.06903065,-0.36955953,-0.82268357
8.5463,1694.7647,-1.21147,7.85538,9.63666,-0.16371,0.0391,-0.36408,-15.72,-19.44,-7.68,41.622101,-14.63773,-120.231514,0.42270508042607524,0.0723331,-0.36486772,-0.82641387
8.5654,1694.7847,-1.17795,7.32386,8.96868,0.1014,0.00489,-0.22113,-16.02,-19.26,-7.8,41.710899,-13.701506,-121.075333,0.4193698512762102,0.07680146,-0.36258447,-0.82871163
8.5859,1694.8047,-0.59137,7.07247,8.74602,0.24068,-0.01038,-0.17471,-15.54,-19.26,-7.68,41.958122,-12.960919,-121.620651,0.41718651977540205,0.08149457,-0.36195916,-0.82963824
8.6103,1694.8247,-0.47166,6.9384,8.87052,0.41539,0.10812,-0.21075,-15.0,-18.96,-7.44,42.292381,-12.234785,-122.112457,0.41515133265688536,0.08661486,-0.36199182,-0.83012599
8.6344,1694.8447,-0.84515,6.80911,8.48505,0.57482,0.22174,-0.20342,-14.64,-19.26,-6.96,42.787495,-11.357076,-122.632576,0.4130445272218424,0.09340021,-0.36266014,-0.83014953
8.656,1694.8667,-0.6608,6.96234,6.97431,0.56444,0.42761,-0.19853,-14.28,-19.26,-6.96,43.484978,-10.337546,-123.121315,0.4112044759173017,0.10211235,-0.36425868,-0.82933682
8.6769,1694.8867,-0.8667,6.05494,5.72693,0.26817,0.59865,-0.18082,-14.34,-19.38,-7.08,44.097752,-9.077147,-123.653267,0.4100523847105377,0.11203124,-0.36451194,-0.82851499
8.6892,1694.9067,-1.33118,5.2864,6.09564,-0.00916,0.7251,-0.08674,-14.58,-19.86,-6.9,44.289639,-7.584123,-124.215324,0.41032078096222463,0.12181428,-0.36108541,-0.82850194
8.7071,1694.9267,-2.07577,4.01986,7.00543,-0.06536,0.60781,0.1405,-14.94,-19.86,-7.02,44.077625,-6.0225,-124.715332,0.41199387172642343,0.13071427,-0.35453805,-0.82914269
8.7268,1694.9467,-2.94487,2.46363,7.73088,0.03848,0.5791,0.68295,-14.76,-19.92,-6.72,43.625381,-4.780401,-124.845627,0.4156883067901904,0.13754781,-0.34699634,-0.82938373
8.7465,1694.9667,-3.19865,1.95846,7.05811,0.08613,0.70983,1.44531,-14.4,-19.92,-6.54,43.086292,-3.962602,-124.160164,0.42404855266114927,0.14341974,-0.33932412,-0.82732868
8.7683,1694.9867,-1.61369,1.46046,6.99107,0.10263,0.58643,2.21439,-13.92,-19.98,-6.54,42.360939,-3.922055,-122.287376,0.43892042321975977,0.14632374,-0.33165815,-0.82215637
8.791,1695.0077,0.93613,0.98402,6.84742,0.25656,0.43371,2.86007,-13.92,-19.68,-6.3,41.450825,-5.09289,-118.983826,0.46079272490426093,0.14367706,-0.32569051,-0.81298995
8.8085,1695.0277,4.72376,1.59933,6.78756,0.49908,0.27122,3.23942,-15.06,-19.14,-6.66,40.519989,-7.479,-114.680435,0.4861703911852705,0.1349612,-0.32392797,-0.800309
8.8347,1695.0477,5.82509,0.81882,4.86981,0.62308,0.09285,3.51431,-16.32,-18.6,-6.42,39.583363,-10.802813,-109.599937,0.5139291701796714,0.1219378,-0.32651362,-0.7838347
8.8535,1695.0677,8.54969,2.50433,3.65595,0.43005,-0.29444,3.75193,-17.7,-17.34,-6.18,38.537407,-15.169742,-103.793015,0.5431431693628849,0.10380742,-0.33429211,-0.76319611
8.8727,1695.0887,14.42985,5.67665,5.25527,0.60781,-0.86682,3.10992,-19.5,-16.5,-6.24,37.219597,-20.414427,-97.789101,0.5705991010206304,0.07993958,-0.34706625,-0.73998064
8.9001,1695.1087,17.28135,6.70137,4.35266,0.82589,-1.27549,1.78495,-20.64,-15.42,-5.52,36.257408,-25.915897,-92.552719,0.5897205193992483,0.05557906,-0.36643207,-0.71754318
8.919,1695.1286,15.17206,8.82024,4.62799,0.73793,-1.48074,0.30116,-21.78,-13.98,-5.16,36.053627,-30.540504,-89.376884,0.5948567911998364,0.03611686,-0.38799682,-0.70306432
8.9479,1695.1487,12.38281,11.51132,4.0055,0.33598,-0.81001,-0.21258,-22.8,-13.14,-4.26,36.591763,-33.122059,-88.480728,0.5895584217984613,0.02676314,-0.40381268,-0.69902784
8.9529,1695.1687,11.7268,13.52245,3.00951,-0.33842,-0.14966,-0.53145,-23.04,-12.24,-3.42,36.948322,-33.744053,-88.755966,0.5844063268354638,0.02420969,-0.40883335,-0.70052725
8.9725,1695.1887,13.42908,13.64216,2.4349,-0.92241,-0.32559,-1.29442,-23.04,-12.06,-2.88,36.898754,-33.177444,-89.971191,0.5791357949877227,0.02306104,-0.40595907,-0.70658839
8.9872,1695.2087,12.23676,12.76588,5.71735,-1.10872,-1.12582,-2.45201,-23.4,-12.18,-2.16,36.916775,-32.131943,-92.690971,0.565825226793207,0.02009877,-0.40133998,-0.71997505
9.0074,1695.2286,9.47625,10.87925,8.88488,-0.66523,-1.91079,-3.22354,-23.04,-12.72,-2.58,37.514175,-31.177029,-96.745903,0.5412719099649425,0.01554526,-0.40054634,-0.73915201
9.0291,1695.2487,7.92241,9.97424,11.01093,0.02382,-2.51188,-3.68963,-22.86,-13.14,-2.04,38.987682,-30.74608,-101.284142,0.5080195564856345,0.01082461,-0.40727013,-0.75890052
9.0493,1695.2697,7.66384,8.71968,9.88566,0.7196,-2.45079,-4.1716,-22.2,-14.22,-1.8,41.582756,-30.598864,-106.126945,0.4670220686004741,0.00857814,-0.42190757,-0.77705264
9.068,1695.2897,5.88255,6.42604,6.75165,0.70005,-2.22416,-4.74642,-20.28,-15.66,-1.38,44.805458,-29.808641,-111.170738,0.42407577079728215,0.01197815,-0.43822563,-0.79244846
9.0884,1695.3096,2.75333,3.9217,4.92966,0.23396,-1.71164,-5.08851,-18.78,-16.92,-0.54,47.744843,-28.326488,-116.955139,0.3791581855254349,0.01442474,-0.45148021,-0.80758691
9.109,1695.3297,-0.04549,1.1157,3.80199,-0.31337,-1.18874,-5.1838,-16.38,-18.9,0.06,49.954601,-24.904398,-124.135056,0.33418958731362414,0.02045838,-0.45584896,-0.82468206
9.1281,1695.3497,-3.06937,-1.12288,3.18189,-0.70616,-0.92913,-5.01887,-14.04,-20.4,0.72,51.050827,-19.713701,-132.556122,0.29013890593589226,0.02936984,-0.45082593,-0.84363073
9.1507,1695.3696,-4.98233,-1.54905,4.24253,-0.92363,-0.88209,-4.57538,-11.58,-21.48,0.9,51.138069,-13.414349,-141.673767,0.24646901479587888,0.04118742,-0.4394767,-0.86279595
9.1707,1695.3897,-6.26563,-1.68552,5.30795,-0.85704,-1.04336,-4.00361,-8.64,-22.74,1.02,50.41819,-7.32546,-150.410828,0.2042550323794969,0.05265637,-0.42572057,-0.87992567
9.1965,1695.4097,-7.33105,-0.95529,4.79319,-0.7813,-1.2315,-3.21376,-6.06,-23.82,0.66,48.550728,-1.302894,-158.814667,0.16296573978720127,0.06538226,-0.40599549,-0.89684725
9.216,1695.4307,-6.75165,-0.17957,3.80439,-0.94195,-1.41476,-2.55891,-3.9,-24.24,0.3,46.251907,3.537747,-165.806351,0.12559459203751014,0.07667015,-0.38605183,-0.91066551
9.2326,1695.4507,-6.72292,-0.14844,4.72376,-1.25838,-1.22295,-1.98592,-1.74,-24.66,-0.06,43.492996,7.074614,-171.499222,0.09150558293915619,0.08455732,-0.36453038,-0.92281872
9.255,1695.4707,-6.76601,0.58179,5.17626,-1.71042,-0.77397,-1.507,-0.12,-24.42,-0.72,40.457157,9.755582,-175.60611,0.0652184886230927,0.09293421,-0.34120223,-0.93310815
9.2704,1695.4905,-7.70694,1.91776,6.00945,-2.25715,-0.20097,-1.03297,1.38,-23.58,-1.74,37.08181,11.982272,-178.434631,0.046064163286002956,0.10326792,-0.3148635,-0.94237721
9.2908,1695.5107,-9.02853,3.15556,5.60722,-2.63283,-0.12034,-0.56139,3.0,-23.58,-2.82,33.49649,14.082734,179.835861,0.03396306179542309,0.11697604,-0.28616142,-0.95040768
9.314,1695.5307,-8.81306,3.57454,8.04212,-2.9065,-0.29322,-0.0452,3.78,-23.4,-3.9,29.831865,15.389582,179.209045,0.027851399809704303,0.12762062,-0.25597066,-0.95781851
9.3314,1695.5507,-10.16339,3.08373,10.7763,-2.88817,-0.33598,0.7141,4.5,-23.64,-4.74,26.187557,15.945177,179.522934,0.027405710710059712,0.134158,-0.22491637,-0.96470886
9.3512,1695.5717,-10.54646,4.9153,10.88404,-2.90466,-0.22785,1.72936,4.56,-24.12,-5.94,22.89349,16.046507,-178.901138,0.037003396875037516,0.13867691,-0.19519359,-0.97020561
9.371,1695.5917,-8.41562,5.50666,13.84327,-2.92849,-0.44593,2.28647,4.56,-23.46,-7.02,20.155787,15.635774,-176.267654,0.05555379312063672,0.13950054,-0.16890717,-0.97412717
9.4054,1695.6117,-7.36935,6.09803,17.77455,-2.62306,-0.54978,3.09159,3.78,-22.98,-8.28,17.632635,13.931201,-172.651794,0.08140536404518292,0.12934332,-0.14414378,-0.97768402
9.4345,1695.6317,-2.70784,7.03656,20.62605,-1.44409,-0.76969,3.51309,2.82,-22.32,-9.78,15.842794,11.91149,-168.406403,0.1137234177030489,0.11608887,-0.12598979,-0.97863013
9.4464,1695.6527,-3.66073,5.85143,19.72822,-0.02749,-0.58887,3.62732,1.56,-21.42,-10.68,15.320887,9.964284,-164.244583,0.14678988724807118,0.10345916,-0.11974838,-0.97642678
9.4556,1695.6727,-4.13718,4.16831,18.17439,1.34879,-1.09162,4.30965,-0.6,-21.18,-11.7,16.385355,7.892424,-159.847046,0.18242148713852446,0.09194035,-0.12805368,-0.97050071
9.4749,1695.6927,0.23224,3.94564,15.31331,2.66704,-1.518,4.85271,-2.28,-20.7,-12.48,18.871513,4.994164,-154.905869,0.22107098861062555,0.07753371,-0.15053758,-0.96044499
9.497,1695.7135,3.56975,3.70144,10.58237,3.31455,-2.03357,4.74276,-4.86,-20.28,-12.48,22.628193,0.862013,-149.013992,0.2633443958056865,0.05951243,-0.18708287,-0.94451469
9.534,1695.7347,3.12922,2.2721,7.80031,3.34693,-2.46301,4.62975,-8.1,-20.1,-11.82,25.922253,-3.837383,-143.21376,0.3001974998866563,0.03977031,-0.2230078,-0.92658907
9.5358,1695.7547,2.82037,0.19393,6.17704,3.39702,-2.53815,4.97916,-10.86,-19.68,-10.5,28.660183,-9.663298,-136.682602,0.3369473255846769,0.01517883,-0.25933561,-0.90497577
9.557,1695.7747,5.67665,-1.23062,4.53222,3.52103,-2.66398,5.32797,-14.04,-18.96,-7.92,30.32518,-16.188061,-129.275391,0.3760331010131956,-0.0118781,-0.29220483,-0.87924647
9.5782,1695.7947,6.28478,-3.78044,6.28239,3.43978,-1.86864,5.31331,-16.92,-17.58,-5.4,30.841732,-23.340054,-121.101036,0.4173216482609983,-0.04176528,-0.32263216,-0.84853214
9.5994,1695.8147,10.92235,-1.89381,1.14443,2.73118,-0.80573,4.93518,-18.84,-15.96,-2.4,30.131567,-29.750774,-112.554466,0.4626261941541601,-0.06671227,-0.34656987,-0.81327474
9.6149,1695.8347,13.74272,1.65439,2.62644,2.71163,-0.41661,3.87105,-21.06,-14.04,-0.3,28.827877,-35.217953,-104.969025,0.5024395492938304,-0.08791511,-0.36662123,-0.77808374
9.6347,1695.8557,11.78187,-0.25857,-0.12689,2.00608,1.08367,2.72629,-22.74,-12.36,1.2,27.743803,-39.471321,-98.611687,0.5344382458931001,-0.1014218,-0.3848561,-0.74563742
9.656,1695.8767,6.50026,-0.28252,-0.01437,1.2199,0.96517,2.34878,-24.42,-10.86,2.7,26.373348,-41.519001,-93.674057,0.5638179584236729,-0.10579693,-0.39166799,-0.71938342
9.6896,1695.8967,7.05571,1.12767,-2.15957,1.05191,0.21869,2.21316,-25.56,-8.64,3.24,24.814951,-43.703476,-89.76635,0.5858442192081467,-0.11521595,-0.39829293,-0.69632936
9.7039,1695.9177,6.41167,0.93853,-3.76847,0.39889,-0.66279,1.75013,-26.46,-6.72,3.84,23.310785,-46.756237,-86.322266,0.60090938199055,-0.13056751,-0.41031957,-0.67342252
9.7179,1695.9377,3.84748,0.38307,-4.47955,-0.61453,-1.1411,2.06839,-27.54,-4.86,4.02,21.483097,-50.602772,-83.779266,0.6080426593587551,-0.15492342,-0.42508778,-0.65236741
9.7439,1695.9577,4.67588,-0.93613,-4.99191,-2.02441,-1.83443,2.81487,-28.14,-3.18,4.32,18.404797,-54.700817,-82.180984,0.6125158479341309,-0.19101919,-0.43516341,-0.63163978
9.7607,1695.9777,6.08606,-3.17471,-3.72298,-2.75989,-3.5253,3.70123,-28.56,-1.86,4.5,13.375135,-59.527267,-81.755936,0.6140599637638502,-0.24623699,-0.43895417,-0.6079613
9.7788,1695.9987,11.29106,-2.07098,0.32082,-2.09038,-4.06348,3.29501,-28.8,-1.26,5.4,7.286664,-65.396774,-82.251091,0.6100372905190042,-0.31430724,-0.44127783,-0.57822084
9.7985,1696.0187,12.82334,0.98402,2.23858,-0.74953,-4.15144,2.15086,-28.62,-0.18,6.48,3.014447,-71.068405,-82.819778,0.6000014018480855,-0.36823595,-0.44989687,-0.54953927
9.8215,1696.0387,11.83214,1.1564,1.5706,0.30421,-3.85761,1.50823,-28.38,1.2,8.04,0.651086,-76.344177,-82.730255,0.587692110258707,-0.40506634,-0.46678081,-0.52216369
9.8499,1696.0587,10.6949,-0.50518,2.01113,0.7984,-3.47277,1.85703,-27.84,1.92,10.14,-0.967336,-80.899857,-81.887474,0.5783722603384724,-0.42999613,-0.48583362,-0.49452457
9.879,1696.0787,12.44267,-1.49877,1.48919,0.64813,-2.59068,2.57663,-27.06,3.6,11.94,-3.153128,-84.627777,-80.751831,0.5751194497167869,-0.45142725,-0.49947119,-0.46473604
9.8911,1696.0987,13.43865,-1.45567,3.00472,0.79718,-1.15026,3.35548,-26.16,4.44,13.86,-6.202537,-87.07901,-79.818245,0.5791391917296759,-0.47138479,-0.50246,-0.43580744
9.9037,1696.1187,13.36683,-1.2378,3.24175,1.64262,0.29383,3.84479,-25.26,5.52,15.24,-9.959332,-87.515404,-78.52066,0.5951198679393669,-0.48457316,-0.49380168,-0.40887785
9.9202,1696.1387,12.31817,-2.74136,0.98641,2.21255,0.73121,3.868,-24.66,7.44,15.96,-14.018532,-86.306915,-76.280701,0.6210288940457521,-0.48926389,-0.47893018,-0.38153616
9.954,1696.1585,11.43231,-3.98635,-3.74214,2.02929,0.19242,3.39947,-24.12,9.36,16.2,-17.883528,-84.851326,-73.44809,0.6471591012848802,-0.49046215,-0.46555841,-0.35197634
9.9602,1696.1787,11.99734,-3.36625,-5.79876,0.91385,-1.42393,2.57724,-23.82,12.0,16.08,-20.974142,-84.615166,-71.187416,0.6626321584463392,-0.49468622,-0.45986107,-0.32362318
9.9797,1696.1987,11.45625,-4.35505,-1.30963,0.46304,-2.90711,1.98287,-23.4,14.1,15.78,-23.291328,-86.820496,-70.418457,0.6613118658517778,-0.50788128,-0.46538633,-0.29688177
9.9974,1696.2187,11.25514,-4.27126,0.577,1.09345,-3.30661,1.89979,-22.92,16.02,15.6,-25.119736,-90.127808,-69.80835,0.6534808130457533,-0.5213334,-0.47877064,-0.26824054
10.0184,1696.2387,10.24718,-4.54898,-1.34794,1.79228,-3.74277,1.89124,-21.78,17.52,15.9,-27.000641,-93.41423,-68.347969,0.6470960372794371,-0.52998954,-0.49562341,-0.23395564
10.0398,1696.2587,8.90404,-4.01747,-4.69982,1.91628,-4.44221,1.70615,-20.4,19.02,16.62,-28.899651,-96.998596,-66.263359,0.6394890353763546,-0.53486395,-0.51696831,-0.19421147
10.0605,1696.2787,7.48427,-5.0781,-6.4404,1.71409,-5.24794,1.61635,-18.36,19.86,17.28,-30.755632,-101.583763,-64.334488,0.6253416125783111,-0.53965813,-0.54318374,-0.15056027
10.0775,1696.2987,5.87298,-6.57208,-6.76123,1.47157,-5.43548,1.67194,-16.08,20.88,18.18,-32.776295,-107.201111,-62.923637,0.6041366717821616,-0.54584676,-0.57129103,-0.10342512
10.1036,1696.3187,4.33111,-6.55772,-5.35344,1.42637,-6.3866,1.92606,-13.56,21.66,18.78,-35.047756,-113.331444,-62.060322,0.5787101465302614,-0.55247772,-0.59739935,-0.05456145
10.1234,1696.3397,3.77566,-7.88171,-4.24492,2.08244,-7.37803,2.24921,-10.56,22.14,19.02,-37.900372,-120.602165,-61.420425,0.5469365311174106,-0.55789787,-0.62417948,0.00322092
10.1435,1696.3607,2.70545,-9.87129,-2.45406,3.12641,-7.30289,2.50516,-7.26,23.16,19.32,-42.079792,-129.291946,-60.438595,0.5086424484050366,-0.55735171,-0.6514371,0.07919366
10.1611,1696.3807,2.1452,-10.0772,-2.37984,3.8851,-6.82947,2.99202,-3.6,24.06,18.6,-47.157082,-136.554352,-59.239807,0.47854979425912025,-0.54951477,-0.66699278,0.15538418
10.1829,1696.4007,5.19302,-9.46907,-2.99993,4.07081,-5.56254,3.02439,-0.06,24.72,17.7,-53.024902,-143.179764,-58.46854,0.4534612530141276,-0.53767723,-0.67204666,0.23158017
10.2067,1696.4207,5.90171,-10.56322,-3.25372,3.88938,-3.04394,2.63344,3.42,25.74,15.84,-58.733036,-148.074738,-58.00948,0.4382265399767484,-0.52422982,-0.66741455,0.29613918
10.2245,1696.4417,7.53455,-9.56484,-3.79002,3.54058,-0.65729,2.69636,6.9,26.28,13.14,-64.013931,-150.224487,-57.692875,0.4379674705594745,-0.51466691,-0.65212846,0.34355631
10.2471,1696.4637,14.09945,-6.69898,-4.40773,3.48254,0.79474,2.11176,9.36,26.7,10.98,-68.512016,-149.427322,-57.119465,0.4509770938120226,-0.51150811,-0.62932622,0.37272996
10.2653,1696.4837,17.94215,-5.92086,-6.20577,3.37625,1.26693,-0.19303,11.52,27.18,8.52,-72.197647,-144.027252,-53.022594,0.4734093541572967,-0.50584757,-0.60649258,0.3900879
10.2858,1696.5037,16.24705,-6.82826,-7.185,2.7214,1.51617,-2.66154,12.72,27.0,6.78,-74.395851,-132.02623,-42.183174,0.5008980397040362,-0.49120086,-0.59056079,0.3988243
10.3218,1696.5237,14.40831,-9.85453,-6.1507,1.89735,2.62855,-4.46848,12.66,27.42,5.58,-72.992706,-114.988914,-26.653673,0.5359849634208609,-0.46728474,-0.58602548,0.38850898
10.3259,1696.5437,12.89278,-12.92869,-5.98072,1.33046,3.32433,-5.60408,12.3,27.9,4.62,-68.433136,-101.38549,-15.768026,0.578565998973001,-0.44061741,-0.58492637,0.35913622
10.3453,1696.5637,10.45069,-14.28141,-6.42125,0.86193,3.71773,-6.34261,10.38,28.8,3.84,-61.991486,-92.655174,-10.548201,0.6236624532446785,-0.4110941,-0.58470404,0.31649324
10.3657,1696.5837,9.52174,-14.28381,-6.55772,0.21136,3.60166,-6.51305,7.8,30.24,3.78,-54.638615,-87.075218,-9.053582,0.6670085897134905,-0.37996677,-0.5838325,0.26431876
10.3851,1696.6037,10.51055,-12.10748,-5.10204,-0.05986,3.06715,-6.59979,4.74,31.5,3.72,-47.216347,-83.6521,-9.776121,0.7030795288787781,-0.34940913,-0.58340681,0.20791568
10.4058,1696.6237,11.80102,-10.82897,-5.11401,-0.24007,2.69086,-7.29251,1.38,32.52,3.66,-39.586937,-81.330116,-11.287088,0.7319578569932066,-0.31591254,-0.58490533,0.14940789
10.426,1696.6437,11.72441,-11.85848,-5.60004,-0.78496,2.71407,-8.18193,-2.64,33.0,3.84,-31.183191,-79.526726,-13.461024,0.7554521682393482,-0.27738875,-0.58762145,0.08395555
10.4449,1696.6635,10.90559,-12.25113,-4.32632,-1.36284,2.3836,-8.73415,-6.66,32.82,3.48,-22.047729,-77.94455,-16.662403,0.7724774349618685,-0.23654288,-0.58928353,0.00842613
10.4666,1696.6837,9.50019,-11.11628,-3.32794,-1.54549,1.70309,-9.04569,-10.98,31.8,3.24,-12.547303,-76.574028,-20.559639,0.7797750719979031,-0.19430581,-0.59069747,-0.07261259
10.487,1696.7037,10.0317,-9.38288,-4.20182,-1.55587,0.85277,-9.38228,-15.9,29.7,3.18,-2.831365,-75.414955,-24.653708,0.7758944630762072,-0.14963128,-0.59317434,-0.1540859
10.5057,1696.7247,7.53455,-8.94713,-4.81953,-2.01463,0.29627,-9.30714,-19.86,27.0,3.3,7.599003,-74.393181,-29.398287,0.7586368516682734,-0.10200686,-0.59687412,-0.24042881
10.5243,1696.7447,3.98874,-9.17937,-4.27844,-2.72751,0.37202,-8.26195,-23.46,23.64,3.6,14.453672,-74.37587,-34.295628,0.7327778768051889,-0.08103069,-0.60252255,-0.30567497
10.5465,1696.7647,3.2226,-7.79073,-3.30639,-3.48621,0.83383,-7.0445,-26.76,19.08,3.96,19.561405,-73.537056,-39.687119,0.7080261571350871,-0.07223567,-0.60105139,-0.3636182
10.5715,1696.7857,4.92966,-4.62799,-3.27766,-4.56377,1.248,-5.98526,-28.5,14.7,3.96,23.109224,-71.393913,-46.1362,0.6862406619247906,-0.07433469,-0.58969939,-0.41928837
10.5874,1696.8057,5.03501,-3.94804,-2.04225,-5.6224,2.35794,-5.53138,-29.4,10.2,3.48,24.736181,-68.172173,-53.446514,0.6685877302306987,-0.0877246,-0.56872952,-0.47100061
10.6118,1696.8267,4.42448,-3.88818,1.30005,-6.07261,4.23207,-5.19969,-29.58,5.28,2.64,24.81274,-62.620152,-62.064808,0.6574344582117891,-0.10436107,-0.52952099,-0.52582908
10.6282,1696.8467,1.92494,-3.19387,3.15316,-5.47519,4.89853,-4.81484,-28.44,1.38,0.66,23.405636,-54.380608,-71.672653,0.6518518450151821,-0.11570273,-0.46837482,-0.58508724
10.647,1696.8667,1.66158,-0.68474,2.28886,-4.49963,5.01398,-4.33409,-27.6,-2.1,-1.86,22.032789,-46.146549,-79.936478,0.6439925990871208,-0.11237216,-0.40775338,-0.63748193
10.6694,1696.8867,2.81798,-0.4549,-0.79727,-4.42572,4.62364,-4.35669,-26.58,-4.8,-4.92,21.569653,-37.615768,-87.34758,0.6309110302829732,-0.09058365,-0.35138205,-0.68576711
10.6906,1696.9077,1.42455,-2.28646,-2.04465,-5.48252,3.8344,-4.69389,-25.08,-6.78,-8.34,19.871038,-29.449415,-95.308128,0.609299236177653,-0.07263445,-0.29198045,-0.73363894
10.7137,1696.9297,-1.46286,-3.59849,0.22027,-6.91561,3.53019,-4.1771,-22.92,-10.38,-11.46,15.999315,-22.380175,-103.670242,0.5790460060408152,-0.06673554,-0.22608879,-0.78047162
10.7402,1696.9506,0.70868,-6.15789,3.56018,-7.67308,3.39885,-4.00789,-20.4,-10.86,-14.7,9.252198,-16.216923,-111.678246,0.5446807251298033,-0.0714961,-0.14501299,-0.82291096
10.7509,1696.9706,0.0,-10.58237,7.74045,-7.78975,3.21193,-4.22719,-18.18,-11.04,-17.46,-0.786916,-11.910358,-118.432816,0.509634918870011,-0.09262615,-0.04723018,-0.85408545
10.7734,1696.9907,-4.0462,-13.80257,11.25275,-7.14163,2.5241,-3.83746,-15.48,-10.56,-20.34,-10.536546,-8.506133,-124.800468,0.4660995665070773,-0.10786701,0.04693311,-0.87687695
10.7911,1697.0107,-4.66151,-13.31655,18.89264,-5.86247,0.59865,-3.25897,-13.38,-8.4,-22.92,-19.007502,-6.822567,-130.229828,0.4232010118129716,-0.12259349,0.12482153,-0.88898331
10.8152,1697.0317,-4.80995,-11.66455,26.43199,-3.21193,-1.38666,-2.74034,-11.94,-6.36,-24.9,-24.826777,-8.649216,-135.355133,0.38487791556088924,-0.14953998,0.17031686,-0.89470607
10.8355,1697.0527,-3.56736,-10.64701,24.46395,-0.63041,-2.14597,-1.97615,-10.92,-3.84,-26.34,-27.133173,-12.363774,-139.443848,0.3586421835232879,-0.17901808,0.18247734,-0.89779192
10.8599,1697.0726,-3.08134,-9.63427,22.38579,0.46609,-1.64873,-1.51739,-10.92,-2.04,-26.82,-26.92692,-15.901173,-142.061264,0.3435457983493873,-0.20216775,0.17433786,-0.9003948
10.8802,1697.0927,-4.42688,-10.31662,21.81357,0.83689,-0.55161,-0.83017,-10.92,-1.08,-26.7,-25.874537,-18.093279,-143.820084,0.33232642048500366,-0.2143255,0.16258553,-0.90398544
10.8929,1697.1127,-5.35822,-10.4483,22.99391,1.75074,-0.38912,0.01283,-11.22,-0.72,-26.04,-24.544693,-18.799629,-144.46553,0.32723372660233946,-0.21597029,0.15100342,-0.90745407
10.9124,1697.1327,-4.53462,-9.73722,23.32671,3.00607,-0.6243,0.70494,-11.7,-0.66,-25.62,-22.417322,-18.873674,-143.669189,0.3319586970377457,-0.21259783,0.13205378,-0.90948743
10.9315,1697.1527,-3.43089,-8.87052,22.32593,4.4642,-1.03419,1.13315,-12.12,-1.44,-25.14,-19.126471,-18.892761,-141.642136,0.3453143295438789,-0.20669967,0.10161839,-0.90978402
10.9521,1697.1727,-1.79086,-8.33182,17.86553,5.77451,-1.48685,1.32741,-12.84,-2.64,-24.72,-14.3562,-19.264374,-138.620026,0.36515964665299727,-0.19882977,0.05659358,-0.90770167
10.9717,1697.1926,-0.45729,-7.58722,12.52407,6.46479,-2.23271,1.32191,-13.38,-4.2,-24.42,-8.445054,-20.361696,-135.003433,0.3876325497978651,-0.19059122,-0.00049774,-0.90189564
10.9918,1697.2127,0.58179,-6.19619,8.76278,6.61017,-2.9517,1.16614,-14.58,-6.54,-23.22,-2.02473,-22.734325,-131.082413,0.4090233981686581,-0.18655181,-0.06582528,-0.89082283
11.0121,1697.2327,1.30963,-5.25527,8.3414,6.79527,-3.89732,0.85032,-15.18,-9.9,-21.84,4.355778,-26.440235,-127.002907,0.42625932403227645,-0.18801337,-0.13507187,-0.87447673
11.037,1697.2527,0.7422,-4.34308,7.74524,7.24547,-5.13371,0.48869,-16.14,-11.76,-19.44,9.261028,-30.539715,-122.920341,0.4407200388218644,-0.19339901,-0.1938335,-0.85486329
11.0541,1697.2727,-1.02232,-4.95839,4.85305,7.65536,-6.07994,0.5455,-17.7,-13.44,-16.02,14.079667,-36.271164,-118.346359,0.4505576911905193,-0.20559095,-0.25832045,-0.82945806
11.0767,1697.2927,0.33998,-3.57694,3.70862,8.03471,-6.15141,0.49847,-18.48,-15.36,-12.84,18.401825,-43.577408,-112.611397,0.4591203562939691,-0.22248816,-0.32680118,-0.79555547
11.0932,1697.3127,-2.12605,-2.88741,-0.00958,7.88077,-6.18623,0.64446,-19.68,-16.92,-8.52,21.823875,-51.066181,-106.150131,0.46706515665311255,-0.23572847,-0.39081988,-0.75732559
11.1134,1697.3327,-2.85868,-1.40779,-3.1364,7.44767,-6.90094,1.32558,-20.46,-17.52,-3.42,24.932457,-60.602596,-98.395248,0.46843452104531963,-0.25113532,-0.4630031,-0.70931536
11.143,1697.3527,-1.42216,-1.14682,-4.19704,7.03717,-7.4495,1.75624,-20.34,-17.58,1.5,26.722248,-72.832176,-89.455368,0.45970945900470167,-0.2743437,-0.54121381,-0.64845228
11.1548,1697.3727,-0.82121,-0.65601,-4.98473,6.5497,-6.89545,1.8387,-20.04,-16.32,6.9,26.241417,-85.320419,-80.78112,0.4458005801588626,-0.30050418,-0.61082697,-0.58124822
11.1748,1697.3927,0.29209,0.03352,-6.05733,6.49289,-7.31878,2.08916,-19.02,-13.74,11.7,23.94301,-96.748085,-73.02935,0.4300023646205819,-0.32437,-0.66968691,-0.5112744
11.1958,1697.4127,1.34075,-0.40701,-6.83784,6.58391,-8.41894,1.86008,-17.82,-11.34,15.9,20.001122,-108.179688,-66.124001,0.407346994389243,-0.34978378,-0.72404516,-0.43298769
11.2256,1697.4327,0.3711,-1.7765,-7.15387,6.59001,-8.95895,1.25105,-15.24,-8.34,19.98,15.119,-119.971672,-60.149776,0.3720223991810046,-0.37321264,-0.77579141,-0.34707254
11.245,1697.4527,-1.33357,-2.56419,-7.6375,6.73418,-9.12694,1.01343,-11.94,-4.38,22.98,8.907497,-132.761063,-54.881493,0.3217196283396671,-0.39333826,-0.82502258,-0.24722305
11.255,1697.4727,-3.14838,-4.16112,-7.59201,7.20149,-9.29126,0.76603,-7.92,-1.02,25.2,1.311197,-145.485138,-50.823444,0.2632554200950669,-0.40670869,-0.86398494,-0.1371665
11.2745,1697.4927,-6.44759,-5.17626,-8.67659,7.72622,-8.94673,0.37324,-3.36,2.7,26.04,-7.212849,-157.560898,-47.97261,0.2024967624565188,-0.40914154,-0.88943183,-0.02256726
11.2925,1697.5127,-7.84101,-6.63194,-10.93911,7.83007,-8.72499,0.50824,1.14,6.9,25.5,-16.334837,-168.720856,-46.536686,0.14521134141201042,-0.40196386,-0.89943045,0.09145265
11.3134,1697.5327,-5.94959,-7.61356,-12.49773,7.47638,-8.90153,0.40256,5.7,10.44,23.76,-25.392448,-179.680176,-47.036266,0.09019737000580308,-0.38984331,-0.89426571,0.20043819
11.3365,1697.5527,-3.73735,-7.25204,-10.99896,6.97547,-8.77203,-0.60292,10.08,13.98,20.04,-33.599087,168.934708,-49.011833,0.03534186096559083,-0.36987954,-0.87858504,0.30004734
11.3532,1697.5727,-5.04698,-6.40928,-9.98382,6.34933,-7.74577,-1.35795,14.16,17.22,15.72,-40.870232,157.913513,-51.259319,0.013599959775261763,0.33752698,0.8581531,-0.38660553
11.3728,1697.5927,-6.34703,-5.4923,-9.39964,5.28643,-6.65782,-1.82465,16.32,19.44,10.14,-47.075542,147.973953,-53.798409,0.05187360518542993,0.30044088,0.83572,-0.45674554
11.3953,1697.6127,-7.65666,-6.10761,-8.60955,3.81119,-5.33346,-1.8216,17.82,20.64,4.38,-51.939732,139.225937,-56.304581,0.08246626380362744,0.26310524,0.81498891,-0.50967443
11.4146,1697.6337,-7.16585,-7.41484,-8.11634,2.28586,-4.26079,-1.70431,17.7,21.0,-0.42,-55.194019,132.592865,-58.068611,0.10563140690838088,0.23100492,0.7998693,-0.54377186
11.4335,1697.6537,-6.6463,-8.08522,-6.8546,1.04458,-4.09646,-1.4844,16.38,21.24,-4.14,-57.31601,127.715958,-58.457657,0.12717369754458582,0.20025118,0.79061556,-0.56449389
11.4535,1697.6737,-5.92325,-7.85777,-6.77799,-0.04032,-4.30293,-1.41171,15.12,21.36,-7.38,-58.316132,124.569244,-57.191601,0.15015963410452948,0.17106467,0.78723931,-0.57309967
11.4764,1697.6937,-3.23935,-8.1355,-7.05571,-0.97005,-4.73421,-1.98837,13.26,21.72,-9.3,-58.871487,122.918312,-53.844448,0.1755330044457665,0.13705131,0.78847063,-0.57334036
11.4975,1697.7137,-3.89537,-7.9296,-6.78756,-1.67866,-4.95656,-2.12154,11.1,22.32,-10.92,-59.504658,122.878372,-48.058266,0.20161432471523136,0.09381016,0.7930581,-0.56710684
11.5228,1697.7337,-8.66462,-8.41323,-6.4811,-2.42208,-4.12578,-1.52167,9.06,22.5,-12.48,-59.600563,123.710938,-41.170094,0.22911114779092479,0.04957215,0.79872751,-0.55415255
11.5333,1697.7537,-13.44823,-9.20571,-5.60243,-3.13924,-2.98102,0.03176,7.14,22.92,-12.84,-58.246201,125.13028,-34.607338,0.2557969939963625,0.016523,0.80693555,-0.53211832
11.5539,1697.7737,-13.44105,-10.12508,-5.23133,-3.4746,-2.05617,2.04151,4.86,23.76,-13.08,-55.38728,126.100739,-29.801991,0.28126451833687327,-0.0005764,0.81691021,-0.50353515
11.5882,1697.7937,-10.20409,-8.6694,-5.75327,-3.65297,-1.68843,3.34632,4.02,24.6,-12.18,-50.615776,126.051208,-27.310083,0.30852840756289396,0.00177821,0.82867748,-0.46701252
11.5981,1697.8137,-7.48906,-8.68138,-4.57771,-3.71834,-1.46913,3.26019,3.78,25.08,-11.1,-44.849602,125.282608,-25.773985,0.33854552648095143,0.01221077,0.83940583,-0.42501256
11.6145,1697.8337,-8.44196,-8.64067,-2.27928,-3.46849,-1.6023,3.05433,4.2,25.74,-9.6,-39.46302,124.755791,-24.035412,0.3645667341837683,0.02055128,0.84831512,-0.38344517
11.6335,1697.8537,-8.46111,-8.26478,-1.05824,-2.80204,-1.81122,3.38114,5.34,25.74,-7.8,-34.676266,123.301193,-22.851646,0.39233317205505597,0.02771428,0.85146445,-0.34686437
11.6558,1697.8737,-7.86495,-6.49547,-2.68629,-1.97004,-1.80694,3.39947,6.72,25.56,-6.12,-30.24094,121.170891,-22.555109,0.4205311167796502,0.03881813,0.84974772,-0.31555593
11.6788,1697.8937,-8.93995,-6.10521,-5.13556,-1.79472,-1.72936,3.34082,8.16,25.56,-4.8,-26.322224,118.906448,-22.704668,0.4466108260170516,0.05161272,0.84496558,-0.28966889
11.6953,1697.9137,-10.41238,-6.9767,-6.87854,-2.21378,-1.4673,3.64015,9.9,25.2,-4.08,-22.45014,117.057938,-22.61659,0.469582457622325,0.06439046,0.84027493,-0.26321897
11.715,1697.9337,-12.03086,-9.22725,-7.25922,-2.99568,-1.54793,4.36463,11.88,24.66,-3.78,-18.041346,115.665581,-21.998579,0.49082468247847877,0.07757083,0.83659679,-0.23060726
11.7349,1697.9537,-11.40358,-9.43555,-5.70538,-3.90221,-1.37689,5.59553,13.32,23.64,-3.3,-12.015824,114.242744,-20.864847,0.515038147526371,0.09535646,0.8316915,-0.18420668
11.7648,1697.9737,-6.89051,-5.93283,-3.81396,-4.32798,-1.36712,5.81544,15.36,22.8,-2.7,-5.403643,113.131607,-19.241644,0.5360513064884582,0.11370883,0.826208,-0.13076559
11.781,1697.9937,-8.59279,-4.58968,-0.22745,-3.97673,-1.07085,5.52405,17.52,20.82,-1.92,1.067226,111.662392,-17.221329,0.5564320530546094,0.12904204,0.81724209,-0.07646495
11.7959,1698.0137,-10.27831,-3.56018,-0.39983,-3.47216,-0.05803,5.62118,19.56,18.78,-1.02,7.052428,110.331749,-15.413107,0.5717416267940539,0.14467636,0.80714434,-0.02642494
11.8145,1698.0337,-9.76116,-2.78446,-3.01909,-3.27302,0.47464,5.65844,21.66,16.74,0.06,12.817883,110.016319,-14.016377,0.5767756608684507,0.16286464,0.80022132,0.0212317
11.8397,1698.0537,-9.87608,-1.66397,-4.5849,-3.79164,1.0287,5.85209,23.46,13.8,0.66,18.609638,110.302124,-12.660923,0.575088440414983,0.1811246,0.79473799,0.06970432
11.8575,1698.0737,-7.63032,-0.90022,-3.18908,-4.59432,1.15698,5.96693,24.66,11.34,1.68,24.799829,110.655128,-10.710463,0.5696704756334726,0.19659151,0.78832585,0.12397452
11.8741,1698.0937,-7.20894,-0.32561,0.15083,-4.84722,1.57542,5.92539,25.98,8.1,2.64,31.180548,110.380867,-7.74009,0.5634875953349265,0.20644696,0.77868766,0.18304893
11.8938,1698.1137,-6.45477,1.44131,1.46286,-4.49719,1.73974,5.83926,26.94,4.92,3.0,37.568916,109.670654,-4.047377,0.5542081862819251,0.21266888,0.76692581,0.24382378
11.9126,1698.1337,-5.82988,3.304,1.39343,-4.09524,2.24126,5.4819,27.36,1.5,4.38,43.733601,108.58268,-0.144436,0.5420513325956754,0.21833535,0.75329953,0.30174467
11.9384,1698.1537,-4.38618,3.92649,2.00395,-3.86433,3.20826,5.24794,27.54,-2.94,5.34,49.498142,107.535469,4.227068,0.5239520485865721,0.22026016,0.74116617,0.3572568
11.9549,1698.1737,-5.30555,4.40294,2.41336,-3.6713,2.93215,5.04575,27.12,-6.6,6.06,55.103275,106.286217,9.447842,0.49950963822525446,0.21808025,0.72983527,0.4126398
11.9744,1698.1937,-5.67905,3.41653,3.52187,-3.42085,3.30539,5.31208,26.28,-10.56,6.66,60.467716,103.48381,15.927588,0.47503982622067414,0.21478838,0.71507514,0.46569374
11.9935,1698.2137,-4.22816,3.94325,4.38857,-2.91688,3.34388,5.51611,24.36,-14.16,6.9,65.965355,99.417839,23.931908,0.4445715869840705,0.21173109,0.69892269,0.51868403
12.0141,1698.2337,-3.14119,4.05338,5.12838,-2.52715,3.77942,5.5772,22.5,-16.92,7.26,71.376122,92.849396,34.459721,0.4095478228008533,0.2097844,0.68112272,0.56950235
12.0336,1698.2537,-2.25294,5.07331,4.93684,-2.12581,4.19726,5.54543,19.8,-19.68,7.02,76.414375,81.710541,50.133266,0.3669421301955002,0.20598051,0.66380638,0.61829329
12.0546,1698.2737,-2.83713,4.80995,3.75171,-1.95966,3.89976,5.51978,17.4,-22.14,7.32,80.22953,61.371494,75.427017,0.31913127123263085,0.1996014,0.64769191,0.66242713
12.0733,1698.2937,-1.35033,3.67031,1.29047,-2.12459,3.62426,5.63218,15.24,-24.3,7.44,81.579887,27.20167,114.315117,0.27001968702860724,0.19478045,0.63003379,0.70157492
12.0976,1698.3137,-0.1652,4.00071,-0.82121,-2.69819,3.15939,5.62424,11.76,-25.56,7.14,79.824356,-10.726746,156.70697,0.212902540334266,0.19917682,0.61117828,0.73584116
12.1144,1698.3337,0.40701,4.0055,1.26174,-3.33471,2.69208,5.39089,8.64,-26.64,7.08,74.46891,-28.962942,178.741028,0.15976945413077925,0.2055192,0.58363098,0.76916218
12.1354,1698.3547,-0.9505,3.00951,4.10127,-3.62915,3.41352,5.48679,5.04,-27.24,5.7,67.50647,-35.185619,-171.277634,0.10717990932992102,0.21029978,0.54720646,0.8030265
12.1571,1698.3747,-2.17872,2.35589,5.58328,-3.78981,4.86371,5.97854,1.44,-27.48,4.2,60.384472,-36.382156,-165.326019,0.05084871241161829,0.20661391,0.50831562,0.83447009
12.1761,1698.3947,0.33758,0.13168,4.27126,-4.36891,6.15569,6.4263,-1.68,-28.02,2.1,52.712696,-35.094437,-159.881363,0.01743603397596893,-0.19206278,-0.46397462,-0.86460131
12.1959,1698.4147,5.25288,-0.47166,4.41251,-5.47824,5.26322,6.2687,-4.56,-27.9,-0.48,44.178188,-31.676195,-155.075027,0.09215724430803242,-0.1688586,-0.40782091,-0.89256704
12.2171,1698.4347,7.79552,-0.85234,7.85298,-6.2125,3.43734,5.2681,-7.32,-27.18,-3.06,34.343842,-28.552729,-151.582565,0.15669205441164982,-0.15816888,-0.33519986,-0.91546232
12.2509,1698.4547,4.12521,-1.15401,8.19775,-6.6737,2.97491,4.38662,-9.72,-25.56,-6.12,24.367235,-25.879982,-149.580521,0.2043272886737306,-0.15725711,-0.25590667,-0.93168253
12.2591,1698.4747,5.06613,-4.09408,10.53928,-6.66759,2.43491,3.59433,-11.76,-23.04,-9.72,14.491602,-23.204021,-148.361755,0.24049444284151122,-0.15827066,-0.1732558,-0.94185734
12.2778,1698.4947,6.56969,-4.2114,14.8632,-5.95716,1.78373,2.01097,-13.08,-20.1,-12.84,5.498793,-20.879349,-147.741333,0.2645436425782693,-0.1607621,-0.0955973,-0.94606203
12.2965,1698.5147,6.14592,-4.32632,15.51682,-4.64319,0.19792,0.23518,-14.16,-16.68,-15.78,-1.650992,-19.449469,-148.498093,0.2698700433516834,-0.16641009,-0.03218138,-0.94786191
12.3161,1698.5357,5.05895,-4.86023,15.48091,-3.12702,-0.41844,-0.49236,-14.94,-13.5,-18.12,-6.684239,-19.677767,-150.336136,0.26142030617641954,-0.17960761,0.01185882,-0.94829315
12.3359,1698.5557,3.64637,-5.15472,14.58069,-2.03052,-0.697,-0.52718,-15.06,-11.16,-19.08,-9.61127,-20.421114,-152.067261,0.2511066734713051,-0.19132021,0.03737848,-0.94812703
12.3601,1698.5757,2.0231,-6.1124,14.48492,-1.51067,-0.95051,-0.32009,-15.54,-9.18,-19.98,-11.462417,-21.557129,-153.405991,0.24298650260639298,-0.20365323,0.05267199,-0.94694698
12.3755,1698.5957,2.24576,-5.92325,14.73392,-1.21501,-0.69089,0.09468,-15.78,-8.28,-20.22,-12.889715,-22.812716,-154.269531,0.23852279932997508,-0.21608217,0.06351175,-0.94465953
12.3958,1698.6157,3.10528,-5.59046,14.1234,-1.05374,-0.11179,0.28344,-16.26,-7.38,-20.58,-14.193546,-23.508726,-154.655304,0.23768481449363055,-0.2237657,0.07366049,-0.94234228
12.4195,1698.6357,4.10606,-5.61919,14.33648,-0.80879,-0.52473,0.23946,-16.8,-6.9,-21.0,-15.390874,-23.725843,-154.781403,0.23857863567848955,-0.22741391,0.08341432,-0.9404282
12.4363,1698.6557,4.79559,-5.38217,14.99249,-0.34819,-1.02809,-0.25473,-16.74,-6.36,-21.36,-16.210478,-24.509827,-154.949249,0.2390279608945852,-0.23502021,0.0889261,-0.93793565
12.456,1698.6757,2.9712,-5.20499,14.2455,0.35797,-2.0073,-0.52657,-17.1,-6.06,-21.36,-16.24188,-26.068108,-155.42189,0.2364093195106485,-0.24744491,0.0869488,-0.93558621
12.4771,1698.6957,5.02543,-4.0462,14.40591,1.09589,-2.8222,-0.83322,-17.1,-6.54,-21.0,-15.386436,-28.662645,-155.721222,0.23430786572426857,-0.26709086,0.07521816,-0.93172127
12.4995,1698.7157,7.8458,-4.29759,13.78342,1.64811,-3.31028,-1.95355,-17.52,-6.36,-20.52,-13.545233,-32.146473,-156.124557,0.22931990618945086,-0.29242781,0.05399898,-0.92681307
12.522,1698.7377,7.39808,-3.78284,12.10269,1.89185,-3.85028,-2.39826,-18.42,-6.6,-19.14,-10.479526,-36.399746,-157.183533,0.2150772423534686,-0.32204258,0.02352022,-0.92167085
12.5607,1698.7587,7.76679,-1.92494,11.51132,2.34572,-4.12823,-2.47217,-19.38,-7.2,-17.52,-6.578081,-41.482471,-158.087143,0.19739958846767722,-0.3573176,-0.01452269,-0.91276866
12.5709,1698.7797,8.99741,-1.2378,9.71088,2.77088,-4.47337,-2.63405,-20.22,-8.22,-16.14,-2.502431,-46.284576,-158.271652,0.18170119913696212,-0.38966426,-0.05433941,-0.90121788
12.5901,1698.8007,12.17452,-1.65679,8.35816,2.93337,-4.26384,-3.07571,-20.88,-9.6,-14.1,1.65103,-51.125286,-158.033569,0.16575082225075669,-0.42107368,-0.09496014,-0.88668269
12.6023,1698.8207,12.83292,0.62249,7.95354,3.15695,-3.32189,-3.81974,-21.9,-11.64,-11.7,6.62433,-55.784279,-157.670624,0.14433264280933492,-0.44830096,-0.14052805,-0.87088817
12.6238,1698.8427,8.87291,-0.01915,6.21774,3.49904,-3.0024,-3.68718,-21.9,-13.56,-9.42,11.8968,-59.224857,-157.047516,0.12185874043951966,-0.46371824,-0.1860794,-0.85760731
12.6453,1698.8627,7.23049,0.85473,3.5913,3.57417,-2.84908,-3.14229,-21.6,-15.36,-6.18,16.854578,-62.639774,-155.534241,0.10460276381909434,-0.47600007,-0.23130764,-0.84200889
12.6652,1698.8827,7.11078,1.02711,2.90656,3.49109,-2.81731,-2.96514,-20.94,-17.16,-3.12,20.873901,-66.038628,-153.419693,0.09349326134536479,-0.48663554,-0.27102214,-0.82522231
12.6838,1698.9037,6.54096,1.42216,2.61447,3.48682,-3.1991,-3.07204,-20.04,-18.48,-0.66,24.801861,-69.955399,-150.794479,0.0826258603669193,-0.49743414,-0.31143308,-0.80544502
12.7031,1698.9237,6.9767,2.17154,2.56898,3.39458,-3.84967,-3.36342,-18.72,-19.44,1.8,28.455339,-74.488373,-147.991577,0.0697666665505377,-0.50996864,-0.34981358,-0.7827484
12.7239,1698.9437,7.45794,2.62644,1.33357,2.99385,-3.84234,-3.8063,-17.58,-20.22,3.96,32.222042,-79.839699,-144.993149,0.05177697271362142,-0.52395713,-0.3883962,-0.75626481
12.7472,1698.9637,6.48589,2.68151,2.14999,2.80509,-3.89366,-3.82463,-15.78,-21.36,5.88,36.034454,-85.157722,-142.116837,0.02935618703476243,-0.53465474,-0.42427993,-0.73025274
12.7657,1698.9837,6.1124,2.78924,2.96402,3.09098,-3.9639,-3.79653,-13.14,-21.9,8.52,39.546158,-90.780022,-138.933289,0.0062584529788822325,-0.54403687,-0.45746329,-0.7033577
12.8027,1699.0037,6.70137,2.90417,1.98,3.36587,-4.49597,-4.2449,-10.86,-22.62,10.8,42.759533,-97.279282,-134.7108,0.015614332808246036,0.55229253,0.49141359,0.67323238
12.8158,1699.0237,6.34703,2.39181,1.58257,3.82463,-4.96511,-5.0262,-8.04,-22.74,13.62,45.956844,-105.336815,-129.257843,0.04124804624369421,0.56000376,0.52757317,0.63746446
12.8256,1699.0437,3.57694,0.48123,1.66636,4.62547,-5.44464,-5.72075,-5.16,-22.08,15.9,48.995136,-115.434586,-121.759689,0.06973120493765693,0.56430155,0.56785542,0.59518194
12.8498,1699.0637,1.66876,-1.02232,1.05105,5.83193,-5.97732,-6.25465,-1.62,-21.48,17.7,51.311794,-130.841537,-109.358322,0.10448231053121239,0.56471968,0.62087351,0.53356463
12.8896,1699.0837,-1.2809,-3.68946,-0.33758,6.83314,-6.90278,-6.79771,2.22,-19.68,19.62,50.534084,-150.486191,-93.301994,0.14203084599784058,0.56129134,0.67935395,0.45084086
12.8937,1699.1037,-4.6256,-7.03177,-0.20111,7.76837,-6.18745,-7.46844,6.6,-16.86,20.94,45.656452,-169.692642,-77.980911,0.17877014583955414,0.5504759,0.73540193,0.35242236
12.9217,1699.1237,-8.64307,-7.99663,-0.2466,8.91924,-6.45318,-7.20638,10.98,-13.2,21.9,36.846298,175.287552,-66.038017,0.20477134059229415,0.52744663,0.7877633,0.24351126
12.926,1699.1437,-9.84975,-11.95904,-1.06781,9.80439,-5.94861,-6.49472,14.58,-7.86,21.78,22.040863,161.985031,-58.193737,0.22609400023056758,0.49758521,0.83255422,0.09024374
12.9452,1699.1637,-8.01818,-16.70674,-5.14275,10.56797,-3.12885,-5.87103,17.52,-2.4,20.28,6.039672,154.004623,-55.557056,0.22263934882156436,0.463967,0.85536814,-0.0592595
12.963,1699.1837,-9.41161,-12.93108,-9.05248,10.19168,-1.81427,-4.53079,19.44,3.78,17.64,-9.612271,150.027084,-55.881618,0.18972098755760233,0.43189016,0.8605352,-0.19223945
12.9823,1699.2037,-8.16662,-11.67173,-11.09234,8.94918,-0.28283,-3.05188,20.34,9.66,14.46,-23.042826,147.206284,-58.324013,0.14817195209806155,0.40880743,0.84832412,-0.30210552
13.0063,1699.2237,-3.59609,-11.14022,-15.35641,6.68042,1.7428,-1.79778,20.04,14.4,10.74,-32.910366,145.947556,-61.761909,0.10199072605576621,0.39947522,0.82957947,-0.37658378
13.037,1699.2437,-2.48518,-5.37019,-11.90876,4.9309,2.45201,-1.17042,19.56,18.12,6.9,-39.89529,146.46904,-64.968781,0.05328422219270226,0.40037647,0.81207782,-0.42117584
13.0483,1699.2637,-2.03986,-5.59046,-10.50815,3.98834,3.20643,-1.01404,18.18,19.98,3.18,-44.831497,148.108292,-67.315582,0.008185684427505903,0.40544081,0.79792422,-0.44594583
13.0697,1699.2847,1.25217,-6.39252,-11.90637,3.05066,4.68534,-1.14659,17.22,21.42,0.72,-48.862221,151.979309,-68.547752,0.04384147852217028,-0.41472808,-0.78637034,0.45574141
13.0921,1699.3057,2.91614,-4.8291,-14.31733,2.03724,4.15083,-1.21684,16.86,21.54,-0.54,-51.715637,158.215057,-68.062607,0.09876160885411732,-0.42623964,-0.77844638,0.45009682
13.1062,1699.3267,3.34709,-4.70461,-15.37796,0.66401,4.23757,-1.88696,16.08,22.2,-0.24,-53.375381,165.008087,-65.867996,0.14426323552677636,-0.43242711,-0.77533156,0.4370994
13.1271,1699.3467,4.16352,-4.55617,-15.27022,-0.12767,5.78062,-2.80204,16.14,22.68,0.18,-54.114117,173.579239,-61.719898,0.1901465142646321,-0.43421724,-0.77633983,0.41544694
13.1495,1699.3667,2.83234,-4.55617,-18.72984,-1.22723,5.59736,-2.70125,15.18,22.98,0.9,-53.779518,-175.372314,-56.092594,0.24425881598785254,-0.43512127,-0.77791613,0.38190785
13.1717,1699.3877,4.23534,-3.73735,-20.20706,-2.85457,5.38722,-2.85091,13.92,24.0,2.1,-51.517635,-165.425568,-51.435471,0.2899816082881526,-0.437325,-0.7809431,0.33879992
13.1941,1699.4087,1.49638,-6.35661,-17.16882,-4.31088,5.79833,-2.8619,12.48,24.18,3.24,-46.403309,-156.207993,-48.199982,0.33036390777787306,-0.44137809,-0.78782785,0.27454025
13.2153,1699.4287,4.21619,-5.74608,-16.71632,-4.83866,5.4477,-2.61756,10.26,24.66,5.94,-40.410458,-149.076935,-47.392326,0.36287390583642565,-0.44781893,-0.79123545,0.20427236
13.2292,1699.4487,7.41484,-5.38456,-16.98926,-5.33285,4.68717,-3.02989,8.04,24.42,8.94,-34.011429,-143.495377,-47.988091,0.3865717339986894,-0.45298234,-0.7924369,0.13195853
13.2532,1699.4687,7.54652,-7.93917,-16.1848,-6.13492,4.51124,-3.60655,5.46,24.24,11.64,-26.844948,-138.855591,-49.129364,0.40120160632100205,-0.45276341,-0.7943266,0.05556814
13.2704,1699.4887,7.45076,-8.51618,-11.3533,-6.5613,3.99017,-3.80386,3.24,23.34,14.7,-18.71867,-134.584686,-51.003368,0.408370451926969,-0.44853997,-0.79449886,-0.02858375
13.2902,1699.5087,8.58082,-5.76045,-8.41562,-6.06039,3.42023,-4.22658,0.48,21.24,17.52,-10.406715,-130.783432,-53.399883,0.4075259249105531,-0.44056377,-0.79191667,-0.11266842
13.3085,1699.5287,9.28232,-2.83473,-9.39964,-5.27543,2.32129,-4.86371,-2.52,18.84,19.68,-2.305007,-127.3769,-55.316406,0.40089254962289383,-0.42391643,-0.78966892,-0.18974462
13.3423,1699.5487,7.58244,-4.33829,-11.03009,-4.98038,2.50149,-5.51306,-4.68,15.66,21.6,5.826664,-124.775787,-56.541897,0.38633912204066667,-0.39840734,-0.79055768,-0.25890583
13.3589,1699.5697,5.56891,-4.35266,-10.59913,-5.43548,2.87718,-5.35179,-7.62,12.18,22.92,13.728341,-121.95639,-57.66048,0.37156772711183567,-0.36784872,-0.78852016,-0.32382202
13.3716,1699.5907,3.96001,-3.99592,-8.02536,-5.80139,2.2938,-4.39334,-9.9,8.82,23.4,20.768251,-119.141495,-59.794155,0.35441493705952,-0.34360465,-0.78076804,-0.38304982
13.3942,1699.6107,3.45244,-2.70305,-5.25048,-5.57231,1.92606,-3.35854,-11.4,5.22,23.34,26.535507,-116.274368,-63.253738,0.335275516239523,-0.33032236,-0.76740229,-0.43539774
13.4154,1699.6317,3.43807,-0.43574,-1.12527,-4.63036,2.30541,-2.49355,-13.02,1.02,22.8,30.670452,-113.039886,-67.36425,0.3203629055778524,-0.32469678,-0.75025624,-0.4785971
13.4324,1699.6527,2.57377,2.3535,-2.31519,-3.89549,3.15329,-1.95049,-14.1,-2.94,22.2,33.416607,-109.307373,-70.958534,0.31510336610502515,-0.31799302,-0.7327137,-0.51256311
13.4538,1699.6727,4.09408,4.80995,-3.27287,-3.58211,5.06346,-2.37749,-15.0,-6.6,20.46,35.599251,-104.599991,-73.956856,0.3196533915610572,-0.3038131,-0.71426708,-0.54345363
13.4725,1699.6927,3.83312,3.75171,-3.4261,-3.62121,5.19785,-2.92055,-15.72,-9.72,18.66,38.370415,-98.094109,-76.983917,0.3300415425416794,-0.27537641,-0.69235986,-0.57955003
13.4934,1699.7137,5.71735,4.95121,-0.826,-3.36526,4.05309,-3.2101,-16.32,-12.3,16.8,41.651501,-90.636871,-81.045319,0.33533990168797484,-0.2417714,-0.66760713,-0.61918855
13.5323,1699.7337,6.25365,6.62715,0.70629,-3.16734,2.94315,-3.46544,-16.74,-14.88,14.46,44.844791,-84.055618,-85.495499,0.3309138694059977,-0.21200849,-0.64679074,-0.65361315
13.5345,1699.7537,5.24809,7.02938,0.72784,-3.30722,2.18873,-3.47338,-16.92,-16.92,11.64,48.008419,-77.750481,-90.755058,0.31783455370370894,-0.18561777,-0.62815052,-0.68553203
13.5526,1699.7737,4.32632,6.359,-0.98162,-3.83013,1.50395,-3.0696,-16.74,-18.78,9.06,50.641609,-71.343643,-96.997902,0.2998001070015937,-0.16455626,-0.60949862,-0.71522903
13.5754,1699.7937,1.58736,5.03979,-2.50912,-4.80323,0.95906,-2.30968,-16.56,-20.52,6.72,52.250198,-64.894699,-104.288261,0.2784321534022784,-0.1523014,-0.58900601,-0.7432037
13.6019,1699.8137,2.22661,3.28245,-1.7334,-6.30841,1.59802,-1.57542,-15.78,-21.84,3.84,51.958668,-57.900852,-112.737617,0.2591175003977488,-0.15001316,-0.56015009,-0.77238983
13.6182,1699.8336,1.23541,0.43335,-0.82361,-7.49959,2.60045,-1.47219,-14.58,-23.16,1.26,48.773674,-47.316795,-123.773682,0.2469621736225584,-0.14414993,-0.50579274,-0.81388217
13.6347,1699.8537,-3.40455,-3.48596,2.15478,-8.15933,2.69514,-1.22356,-13.62,-23.94,-1.44,43.325687,-36.733974,-134.110321,0.23673870522119445,-0.13309957,-0.43678543,-0.85758835
13.6571,1699.8737,-5.77721,-5.63595,9.10515,-7.6126,1.78434,-0.12339,-12.3,-23.94,-5.52,36.135845,-28.842196,-141.963608,0.22701417852830644,-0.12596034,-0.3611308,-0.89564675
13.6745,1699.8937,-1.92015,-5.0781,13.81215,-5.89302,0.74892,0.86376,-11.46,-23.22,-9.72,27.101015,-23.279636,-147.001984,0.2250889467557033,-0.122893,-0.27573916,-0.92639095
13.7022,1699.9135,4.92487,-3.29442,15.64611,-4.29927,-0.51129,0.70494,-11.04,-21.9,-13.08,19.52076,-21.259577,-148.988434,0.22881150361858651,-0.13063255,-0.2091541,-0.94171917
13.7135,1699.9335,7.03656,-3.29203,18.23185,-3.10442,-1.88391,-0.54,-10.86,-20.1,-16.14,14.002824,-21.44842,-150.51239,0.22625243698102956,-0.14813302,-0.16282557,-0.94887
13.7365,1699.9537,1.26414,-3.77326,19.08179,-1.63468,-2.42086,-0.82039,-10.8,-18.48,-17.94,10.48061,-22.815016,-152.790115,0.21205744530637902,-0.17037307,-0.13334663,-0.95300752
13.7591,1699.9737,0.54588,-3.73256,16.58463,-0.72449,-2.03235,0.15027,-11.16,-16.8,-18.84,9.235977,-25.218889,-154.26358,0.19949726273141197,-0.19463223,-0.12505721,-0.95219737
13.7738,1699.9937,3.21062,-1.01035,15.71075,-0.55833,-1.0568,0.79657,-11.64,-15.48,-19.2,8.379089,-27.264196,-154.409286,0.19786448311545404,-0.21349578,-0.12129297,-0.94897693
13.7938,1700.0137,4.85784,-0.77093,16.15607,-0.54,-1.03053,0.54428,-12.48,-14.88,-19.2,7.385952,-28.487122,-154.097748,0.20133449515778715,-0.22529569,-0.11587073,-0.9461925
13.814,1700.0337,4.8291,-0.30406,17.28614,0.09591,-1.51311,0.04154,-13.38,-14.46,-18.72,6.718442,-29.793777,-154.090958,0.20159032090697715,-0.23741232,-0.11271787,-0.94355255
13.8492,1700.0537,6.94797,0.9074,16.70435,0.83627,-2.2376,-0.49969,-14.04,-14.4,-18.42,7.016407,-31.719143,-154.158768,0.19838725699249596,-0.25270054,-0.11836307,-0.93956113
13.8718,1700.0737,5.92565,1.01275,16.26142,1.5913,-2.81609,-0.978,-14.34,-14.58,-18.0,8.383757,-34.475784,-154.319382,0.19056460546869972,-0.27264133,-0.13374843,-0.93352193
13.8803,1700.0937,5.96874,0.98162,15.10023,2.38054,-2.77027,-1.0965,-14.46,-14.76,-17.52,10.7086,-37.805237,-154.275223,0.18021419333271574,-0.29480121,-0.15786888,-0.92503649
13.8993,1700.1137,5.89213,1.57299,13.03882,2.89794,-2.26631,-1.20279,-15.18,-15.42,-16.8,13.751457,-41.02906,-153.737747,0.1703863557250294,-0.31335482,-0.18823417,-0.91506565
13.9151,1700.1357,4.50828,1.79086,9.25119,3.06349,-1.80755,-1.0232,-15.48,-16.44,-14.88,17.179329,-43.707191,-152.74588,0.16218621123457522,-0.32504004,-0.22143719,-0.90499181
13.9381,1700.1557,3.9648,2.50194,7.23288,2.7886,-1.51739,-0.8882,-16.38,-17.34,-13.56,20.044146,-45.303432,-151.604767,0.1579176223171935,-0.32827684,-0.24871603,-0.89746124
13.9632,1700.1757,3.85227,2.1452,6.86657,2.59068,-1.93156,-0.72876,-16.68,-18.24,-12.0,22.364092,-46.719578,-150.52832,0.154717026572554,-0.33089796,-0.27111694,-0.89054185
13.9768,1700.1957,6.66785,2.56658,7.89129,2.61573,-1.68477,-0.98533,-16.68,-19.02,-10.08,24.402725,-48.677704,-149.344528,0.1514007238806125,-0.33759156,-0.29219675,-0.88189048
13.9946,1700.2157,5.42526,3.55539,8.52336,2.9969,-1.78128,-1.35307,-17.1,-19.56,-9.0,26.796267,-50.327461,-148.207245,0.1463974177425055,-0.34037232,-0.31499892,-0.87377924
14.0148,1700.2357,3.7996,2.77967,7.42681,3.25958,-2.80631,-1.49234,-16.62,-20.46,-7.56,29.65148,-52.490555,-146.876999,0.1386879418264116,-0.34433994,-0.3418346,-0.86333352
