AppTimestamp(s),SensorTimestamp(s),acc_x,acc_y,acc_z,gyro_x,gyro_y,gyro_z,mag_x,mag_y,mag_z,PitchX,RollY,YawZ,Quat_w,Quat_x,Quat_y,Quat_z
0.038,2267.204,-2.74144,7.47253,6.34004,-0.03432,-0.56074,0.29816,23.1,-29.7,-18.7,47.192638,12.365101,99.989891,0.5526569797255979,0.180235,0.36827901,0.725573
0.0412,2267.224,-2.35357,7.57309,6.83087,-0.58471,-0.72018,0.39406,23.3,-29.8,-18.4,47.055599,11.339113,100.545746,0.5528012766494844,0.18422601,0.36340901,0.726915
0.0541,2267.2441,-1.79331,7.63055,7.95618,-0.59204,-0.80998,0.18392,23.6,-29.9,-18.2,46.425301,10.111244,101.195526,0.5542673253354196,0.18663301,0.35478401,0.72944099
0.07,2267.2641,-1.47248,7.58506,8.81572,-0.05998,-0.79043,0.0251,23.8,-30.1,-18.2,45.896996,9.097484,101.485977,0.556938398029315,0.18940499,0.34717199,0.73035401
0.1232,2267.2841,-1.36953,7.54915,8.71037,0.62236,-0.83563,-0.06775,24.1,-30.2,-17.9,45.996552,8.335783,101.440498,0.5592639412197598,0.194916,0.34398699,0.72863197
0.1241,2267.3041,-1.46051,7.59464,7.50366,0.7708,-1.21498,-0.1771,24.3,-30.3,-18.0,46.708447,7.633607,101.095612,0.5617045391561466,0.20414799,0.344248,0.72408903
0.1286,2267.3242,-1.7167,7.47493,5.74387,0.0121,-1.8741,-0.09524,24.3,-30.3,-17.9,47.29488,6.403995,100.655891,0.5666290945361515,0.216281,0.34092,0.71828097
0.1472,2267.3442,-1.35995,7.11578,5.02319,-0.98849,-1.54485,0.2554,24.3,-30.5,-17.8,46.982292,4.597928,100.580894,0.5731730585449386,0.226162,0.32990399,0.71518302
0.173,2267.3642,-0.72786,6.93382,5.23628,-1.67144,-1.24186,0.40567,24.3,-30.5,-18.0,45.685413,2.712811,101.13372,0.5781011700679906,0.22965901,0.31360799,0.71743
0.1876,2267.3843,-0.60096,7.09663,5.87555,-1.68916,-1.07387,0.40933,21.7,-30.0,-20.2,43.944759,1.221365,101.776993,0.5818831576141036,0.228349,0.29653701,0.72203499
0.2071,2267.4043,-0.66321,7.00086,6.17483,-1.68121,-1.27912,0.34275,19.4,-29.0,-22.0,42.302235,-0.113908,102.315521,0.5852054713372048,0.227026,0.28046,0.726179
0.2356,2267.4242,-0.90743,6.68242,6.07667,-1.82843,-1.94802,0.49669,18.7,-28.2,-24.0,40.695705,-1.688537,102.710243,0.5894606386112813,0.22791401,0.262923,0.72901499
0.2551,2267.4442,0.01676,6.04794,6.34004,-2.4228,-2.89058,0.88153,15.2,-27.1,-26.2,38.829437,-4.18709,103.28299,0.5944234860114462,0.233162,0.239097,0.731525
0.2674,2267.4642,1.39347,6.74467,9.54358,-2.27009,-3.79833,1.29631,12.3,-26.3,-29.7,36.198364,-8.245007,104.071877,0.6008234785935214,0.244488,0.20225701,0.73370898
0.2916,2267.4842,2.54751,5.47571,10.69762,-0.19987,-0.61022,0.54495,10.9,-25.3,-31.1,34.376537,-11.621621,105.164291,0.6012659108068903,0.25545701,0.17472699,0.73667598
0.3076,2267.5042,1.53473,5.01601,9.88836,0.47514,-0.00791,0.04526,10.6,-25.6,-29.3,34.494404,-12.077657,105.445724,0.6000468861190265,0.25852901,0.17376401,0.736826
0.3557,2267.5242,1.14207,5.08065,8.31292,-0.03188,-0.97063,0.67323,9.1,-25.9,-30.2,34.870197,-12.39703,105.858353,0.5975583671773993,0.26175201,0.175575,0.73728102
0.3586,2267.5442,1.62811,5.41106,7.64971,-0.59265,-1.13068,0.99454,8.9,-25.4,-31.7,34.419548,-14.08899,106.770729,0.5945512729153641,0.26916599,0.165822,0.73929799
0.3718,2267.5642,2.50202,5.14769,7.45098,-0.45154,-0.05006,0.67323,8.5,-25.0,-30.7,33.483604,-15.495733,107.815033,0.5903513127332062,0.27246499,0.154595,0.74387401
0.3873,2267.5842,1.96331,5.15487,7.5683,-0.14306,0.69886,-0.03293,7.4,-25.0,-31.3,32.956753,-15.438866,108.263229,0.5876437554352973,0.26907301,0.15231,0.74771398
0.4082,2267.6042,1.75021,5.09981,7.8628,0.18131,0.24743,0.15582,8.1,-25.5,-31.6,32.882202,-14.709545,108.25164,0.5867806371425185,0.26398101,0.155505,0.749547
0.4331,2267.6242,1.6736,5.07347,7.81731,0.37985,0.17352,0.11856,8.6,-25.3,-32.8,33.113064,-14.606175,108.513985,0.5847897080918231,0.264007,0.158234,0.75052202
0.4487,2267.6442,1.87232,5.20276,7.18043,0.33708,0.58768,0.26639,8.7,-25.5,-30.1,33.497852,-14.441626,108.825943,0.5822890276150667,0.264254,0.16245501,0.751477
0.4786,2267.6642,2.14527,5.34402,6.41666,-0.02455,0.41114,0.09168,9.5,-25.5,-31.1,33.724285,-13.987142,109.271988,0.5785659925134897,0.26165801,0.16734999,0.75418198
0.4918,2267.6842,2.07584,5.30092,6.56031,-0.26828,-0.10626,0.09596,8.7,-25.5,-31.1,33.590256,-13.697598,109.311043,0.5779697692096357,0.25908399,0.16797,0.75538898
0.5072,2267.7042,2.15485,5.2291,7.30014,-0.03371,-0.29074,0.27067,9.0,-25.4,-31.4,33.320278,-14.01581,109.477791,0.5774989886307853,0.25971299,0.164868,0.75621599
0.53,2267.7242,2.50202,5.27219,7.30014,0.23263,-0.4569,0.10024,8.6,-25.3,-31.6,33.337173,-14.563676,109.800591,0.5761422259242408,0.26294401,0.162964,0.75654697
0.5482,2267.7442,2.71511,5.37275,6.88593,0.10007,-0.57235,-0.00728,8.4,-25.4,-31.8,33.569748,-15.236787,109.948151,0.5759954235755689,0.26822001,0.161543,0.75511003
0.5725,2267.7642,2.68638,5.36557,6.92424,0.1581,-0.86679,-0.02866,8.4,-25.6,-31.7,33.712444,-15.988881,109.939201,0.5770329661578787,0.273819,0.158733,0.75290102
0.6133,2267.7842,2.74623,5.25543,7.07987,0.14527,-0.84907,-0.04943,8.3,-25.7,-31.7,33.924576,-17.073889,109.940231,0.5784128878558289,0.281874,0.154745,0.74969298
0.6153,2267.8042,2.7175,5.17163,7.11578,0.12634,-0.45262,0.04281,8.3,-25.8,-31.7,34.102741,-17.947371,109.938965,0.5795161705267594,0.288367,0.151572,0.747015
0.6305,2267.8242,2.55948,5.11178,7.0272,-0.02943,-0.34144,0.14544,8.4,-26.0,-31.8,34.200672,-18.50613,110.039925,0.5795566688920417,0.29230401,0.149685,0.74583298
0.6508,2267.8441,2.59061,5.09981,7.52521,-0.01416,-0.43307,0.29877,8.5,-26.0,-31.8,34.065857,-19.019344,110.247574,0.5789135631013492,0.29478699,0.146681,0.74595201
0.6703,2267.8641,2.70314,5.24586,7.98251,0.22835,-0.8729,0.32259,8.6,-26.2,-31.6,34.002205,-19.882235,110.647964,0.5774152145469668,0.299622,0.14292,0.74591702
0.6869,2267.8841,2.88989,5.46613,8.22912,0.54111,-1.3005,0.29877,8.8,-26.4,-31.5,34.185848,-21.312971,111.171211,0.5757325244949775,0.30906799,0.1384,0.744214
0.7088,2267.9041,3.04552,5.73429,7.89392,0.78118,-1.65297,0.28594,8.8,-26.6,-31.3,34.689281,-23.25865,111.808533,0.5738678977933858,0.323026,0.13394301,0.74053299
0.7269,2267.9241,3.36635,6.03836,7.3193,0.83677,-2.14899,0.33542,8.7,-26.9,-31.1,35.354469,-25.652243,112.535759,0.5719491877538246,0.34031701,0.128777,0.73517001
0.7469,2267.9441,4.03435,6.22751,6.93143,0.62663,-1.93336,0.29021,8.4,-27.1,-31.0,35.968761,-28.521521,113.324417,0.5701570848243839,0.360201,0.121237,0.72833902
0.7769,2267.9641,4.54194,6.27061,7.13015,0.58693,-1.54057,0.28777,7.0,-27.5,-30.6,36.377621,-30.887486,113.949402,0.5687742022292853,0.376093,0.114386,0.72247201
0.8023,2267.9841,4.91066,6.26103,7.4438,0.78424,-2.0427,0.21752,3.6,-28.1,-30.3,36.80817,-33.071262,114.623131,0.5668797656412335,0.39074099,0.108876,0.71701801
0.809,2268.0041,5.35839,6.22751,7.37437,1.01942,-2.32126,0.12162,0.9,-28.8,-31.1,37.455776,-35.980537,115.425133,0.5649847055251486,0.41039801,0.101914,0.70850497
0.8293,2268.0241,5.43261,6.12695,7.22832,1.10067,-2.19114,0.06969,-1.0,-29.3,-30.7,38.252884,-39.004181,116.254921,0.5631537573770417,0.430942,0.095741,0.69855601
0.8471,2268.0441,5.30571,6.00484,7.05114,1.28576,-2.55888,0.07641,-3.3,-30.2,-27.2,39.077003,-42.004753,117.214478,0.5606132599251996,0.45096201,0.090574,0.68857998
0.8793,2268.0641,5.04474,5.86358,6.74946,1.6535,-3.65966,0.11001,-5.4,-31.7,-28.3,39.955818,-45.707146,118.389801,0.5574916413809264,0.47474399,0.083492,0.67590702
0.8929,2268.0841,4.57067,5.71992,6.49567,1.94183,-4.81603,0.15766,-6.6,-32.4,-27.5,40.963017,-50.87635,120.011887,0.5530748577338511,0.50645798,0.072509,0.657534
0.9085,2268.1041,3.75422,5.48768,6.34962,2.60523,-6.21491,0.32503,-9.7,-33.3,-23.5,41.991707,-57.690254,122.146011,0.5468454889141717,0.54602301,0.056827,0.63213098
0.9284,2268.1241,2.39667,5.24825,5.5619,3.447,-8.15258,0.66773,-12.8,-34.1,-20.6,42.968075,-66.770683,125.398575,0.5354507355231105,0.59526199,0.036895,0.597992
0.9497,2268.1441,1.00799,4.85559,3.80929,4.06886,-9.83429,1.06174,-17.5,-35.4,-15.7,43.441151,-78.708038,129.881577,0.5168401492072563,0.65484297,0.009715,0.551328
0.9787,2268.1641,-0.35675,4.34082,2.02795,4.62658,-11.23134,1.46613,-20.0,-35.9,-9.2,42.994457,-92.695435,135.010361,0.4907036328484024,0.71876901,-0.023858,0.491947
0.9902,2268.1841,-1.38629,3.61296,0.39027,5.26005,-11.59419,1.70315,-23.2,-36.0,-0.8,41.426464,-107.860489,140.166687,0.4563934903137855,0.78177202,-0.061764,0.42038399
1.0119,2268.2041,-2.34639,2.44216,-2.24104,5.48362,-10.43355,2.21139,-23.6,-34.3,5.6,38.341145,-123.163406,145.155304,0.4101532636539664,0.839405,-0.09962,0.342417
1.0299,2268.2241,-2.2985,1.28812,-4.29293,4.87398,-7.33096,2.85585,-22.9,-32.0,14.1,32.321995,-136.425446,148.721649,0.3449920276915968,0.88670498,-0.140946,0.27362201
1.0566,2268.244,-1.24023,0.11493,-4.28336,4.41583,-4.0836,3.35126,-22.5,-28.8,18.8,25.975815,-144.256561,149.635696,0.28475302607824815,0.91309202,-0.17631,0.23258001
1.0804,2268.264,0.60096,-0.90743,-2.60976,5.0267,-2.70732,3.0049,-22.6,-22.9,24.0,19.581762,-148.238556,149.294067,0.2291221954232281,0.926319,-0.20607799,0.216721
1.0879,2268.284,0.98644,-2.93778,-2.30569,6.19162,-3.02681,2.44107,-22.3,-17.8,26.9,12.671054,-151.453369,149.594498,0.16746706802055,0.93663698,-0.22633301,0.20842101
1.1071,2268.304,1.07503,-5.6864,-3.35198,6.77866,-2.71282,2.58951,-21.2,-12.4,30.0,4.872146,-155.017181,150.36702,0.09538478332134474,0.94536299,-0.240557,0.1983
1.1294,2268.324,2.842,-8.028,-4.62574,6.95764,-2.05187,2.56019,-20.4,1.1,32.9,-3.488469,-157.944748,150.663467,0.019563825631501452,0.94762999,-0.25406301,0.192527
1.1504,2268.344,5.48289,-9.52921,-6.1461,7.07065,-1.25896,1.94566,-18.7,6.8,33.9,-12.244699,-160.039429,150.305832,0.05739465945015916,-0.94181901,0.26878899,-0.193482
1.1698,2268.364,7.89632,-10.57791,-8.63136,6.6742,-0.3897,0.84366,-14.2,10.0,35.2,-21.681166,-160.646378,151.223251,0.13856734552938405,-0.92995501,0.27120799,-0.205983
1.1888,2268.384,9.26824,-11.44942,-10.13736,5.68399,0.20773,-0.15327,-14.2,15.3,34.4,-29.601645,-159.436951,153.95575,0.20601613065544133,-0.916556,0.258775,-0.22476199
1.2092,2268.404,9.86202,-12.22996,-9.85244,5.00837,0.46429,-1.00115,-19.6,19.7,32.4,-35.688923,-156.767761,157.638046,0.25729553946650446,-0.90273398,0.24133,-0.246232
1.2262,2268.424,10.06553,-13.07513,-8.25785,4.96622,0.493,-1.82032,-16.6,20.7,31.8,-40.398296,-152.891998,162.644226,0.2986420001678923,-0.88970602,0.21765099,-0.26807499
1.2487,2268.444,10.43904,-14.14538,-6.44539,5.49951,0.52782,-2.91194,-22.2,24.7,28.6,-44.290958,-147.861862,169.670792,0.3376855140543635,-0.87703401,0.184036,-0.28794199
1.2689,2268.464,11.02324,-15.57715,-5.21952,5.96254,0.898,-3.75738,-19.3,25.4,29.2,-47.410736,-140.280884,179.265762,0.3761273543867823,-0.860277,0.142092,-0.313467
1.2865,2268.484,11.67209,-16.89161,-4.93939,6.0896,1.91448,-4.3267,-21.3,27.6,26.6,-49.151131,-129.93718,-167.966553,0.4150897230256844,-0.83790302,0.088631,-0.34316701
1.3091,2268.504,12.28263,-17.40159,-5.52599,5.59602,3.05863,-4.63153,-24.3,27.1,22.8,-48.778793,-117.577744,-154.200134,0.4496203198766711,-0.807051,0.034683,-0.381192
1.3424,2268.524,12.92908,-17.21244,-5.5188,5.01998,3.56199,-4.86366,-27.8,25.7,17.5,-46.064602,-105.385757,-141.977859,0.47592239355491517,-0.76931202,-0.014249,-0.42597401
1.3477,2268.544,13.6354,-16.6857,-4.62813,4.87215,3.03603,-5.38106,-32.1,24.1,12.3,-41.458511,-95.063194,-132.204025,0.4945260039158708,-0.72756499,-0.060989,-0.47156501
1.3743,2268.564,14.12622,-16.34571,-3.84999,4.79151,2.37324,-6.20206,-34.1,20.9,10.9,-35.174732,-87.276512,-124.260338,0.5068325508990116,-0.68376702,-0.114206,-0.51238698
1.3876,2268.584,13.94665,-16.28586,-3.41902,4.43721,2.24679,-6.91494,-36.1,16.6,8.0,-27.346153,-81.769691,-118.167969,0.510163847513854,-0.63744903,-0.17343999,-0.55073601
1.4078,2268.604,13.32893,-16.13981,-3.03594,4.00411,2.55833,-7.2613,-40.5,12.0,3.4,-18.553118,-77.634529,-113.724182,0.5049690950168926,-0.58668298,-0.23301201,-0.58865499
1.4297,2268.624,12.65853,-15.47899,-2.50681,3.74999,2.56933,-7.42746,-39.7,5.6,2.4,-9.346352,-74.080811,-110.692352,0.4927385866117441,-0.53084898,-0.28788799,-0.62652099
1.4473,2268.644,12.12221,-14.43029,-2.39427,3.43906,2.14234,-7.69074,-39.2,0.9,0.2,0.092491,-71.133087,-108.598625,0.47430334099270194,-0.47196001,-0.33995399,-0.66084898
1.4825,2268.6639,11.36323,-13.30738,-2.24583,2.885,2.06414,-7.96563,-37.3,-6.0,-3.1,9.745179,-68.785126,-107.41156,0.44801896735977575,-0.41213599,-0.38964301,-0.69108701
1.493,2268.6839,10.18764,-12.09348,-1.79092,2.39387,2.45754,-7.99678,-33.5,-11.3,0.0,19.404257,-66.136017,-107.435883,0.41469218704562044,-0.34997901,-0.43211299,-0.720294
1.5118,2268.7039,9.06712,-10.80057,-1.24023,2.13058,2.44288,-7.81963,-30.9,-18.5,-4.2,28.764235,-62.587147,-108.61676,0.37813641358345723,-0.284807,-0.46593001,-0.74753398
1.5273,2268.7239,7.92984,-9.27303,-1.37192,1.89174,2.28345,-7.55146,-27.1,-23.3,-4.0,37.68293,-58.357647,-110.940308,0.338674607675833,-0.22029699,-0.49384001,-0.76999402
1.5481,2268.7439,7.18043,-7.4031,-1.71909,1.25277,2.15883,-7.3456,-22.7,-28.2,-5.8,45.883427,-52.890942,-114.892662,0.2973554483352875,-0.15788899,-0.51485401,-0.78840101
1.5672,2268.7639,6.42144,-5.74865,-1.99683,0.57777,1.7862,-7.32544,-18.3,-31.2,-5.0,51.411736,-47.111393,-120.161766,0.2617231327306756,-0.113783,-0.52422303,-0.80233699
1.5906,2268.7839,5.64091,-4.56588,-1.82923,-0.27806,1.53697,-7.3792,-13.5,-33.8,-5.9,54.555069,-41.560913,-126.509239,0.22875992705182888,-0.088769,-0.52455503,-0.81524903
1.6157,2268.8039,4.68799,-3.86197,-1.35516,-0.91336,1.50948,-7.36576,-4.1,-39.4,-6.6,56.565208,-34.527458,-135.268341,0.18996226502997773,-0.069508,-0.517883,-0.83119202
1.6289,2268.8239,3.42621,-3.51719,-0.9218,-1.5847,1.60783,-7.38042,0.5,-39.5,-9.0,57.267025,-26.280664,-145.775055,0.14738779648532468,-0.053388,-0.50471199,-0.84893602
1.6546,2268.8439,1.94176,-3.51001,-0.35914,-2.32262,1.63898,-7.00291,5.9,-39.4,-11.1,56.160793,-17.550732,-157.027878,0.10326055799771736,-0.039272,-0.482687,-0.868797
1.6732,2268.8639,1.78852,-3.40226,0.33759,-2.82659,1.16678,-6.87707,10.7,-37.2,-12.0,53.015858,-9.954003,-167.471817,0.058803348876400874,-0.028657,-0.45045599,-0.89039898
1.6882,2268.8839,1.93218,-3.83084,1.00799,-3.15768,0.46062,-7.21854,15.5,-35.1,-12.3,48.153687,-3.826992,-177.481262,0.006552038238524688,-0.021517,-0.408306,-0.91256797
1.7101,2268.9039,1.4629,-4.86277,1.15404,-3.72456,0.07761,-7.27718,19.9,-31.4,-15.0,42.765869,2.591739,171.564468,0.06025132270398532,0.005807,0.36506799,0.92901099
1.7361,2268.9239,0.97447,-5.93062,2.15485,-4.39223,-0.81059,-7.05727,24.1,-25.9,-17.1,36.18272,7.678845,161.415695,0.1326221958503925,-0.012786,0.316048,0.93934101
1.7541,2268.9439,0.01437,-6.72312,4.12773,-4.58344,-1.53324,-6.53254,26.8,-20.5,-20.7,27.83148,9.846521,152.884766,0.2066430476486919,-0.024812,0.25245899,0.94495898
1.7745,2268.9639,-0.4621,-6.91467,6.44778,-4.27556,-2.17159,-5.63029,28.0,-14.5,-22.7,18.341019,9.613452,145.789871,0.27658135998183164,-0.032354,0.176119,0.94415998
1.7884,2268.9839,0.17957,-6.56989,8.65291,-3.67508,-2.89914,-5.25094,31.0,-11.7,-25.4,9.906066,7.698226,139.589432,0.33788120743989236,-0.03301,0.103942,0.93484902
1.8067,2269.0039,0.85476,-6.36638,9.91948,-3.08559,-3.50267,-5.07624,29.9,-7.2,-27.2,3.053306,4.475838,133.498474,0.39335915386552217,-0.025356,0.039869,0.91816998
1.8283,2269.0239,2.11654,-6.41426,10.44622,-2.87546,-3.66027,-4.73965,25.3,0.0,-30.2,-2.370335,0.137421,127.407341,0.4429417122119115,-0.010238,-0.018012,0.89631099
1.8548,2269.0438,3.46691,-6.91467,10.80297,-2.9738,-3.7965,-4.73965,26.8,1.7,-29.9,-6.828661,-4.632853,121.295753,0.48680834905874304,0.005998,-0.071645,0.87054503
1.8705,2269.0638,4.80292,-7.68802,11.56674,-2.9286,-4.65354,-4.80257,16.8,10.3,-36.4,-10.607331,-10.206548,114.882378,0.5268073255570577,0.025103,-0.125264,0.84032899
1.8921,2269.0838,6.56271,-8.55953,12.61543,-2.71907,-4.75555,-4.99316,16.9,12.4,-32.9,-13.426831,-16.938095,108.020721,0.5633153673687582,0.050399,-0.179509,0.80492997
1.9144,2269.1038,7.71675,-9.65611,14.44945,-2.34278,-4.45867,-5.45009,12.2,15.6,-32.3,-14.98734,-23.885092,100.774529,0.5976770989891782,0.076699,-0.22910599,0.764467
1.9315,2269.1238,8.11659,-10.70001,16.77908,-1.50345,-4.54847,-5.63396,8.7,17.5,-32.1,-14.372583,-30.74398,93.291672,0.6326343586265292,0.108429,-0.26825899,0.71836901
1.9503,2269.1438,8.48531,-11.38717,18.85491,-0.35258,-4.7354,-5.59914,2.8,19.5,-32.7,-11.920948,-37.491421,86.474243,0.6632898259445865,0.147315,-0.30022001,0.669487
1.969,2269.1638,9.93145,-11.90912,20.47344,0.7427,-4.6908,-5.69932,-3.6,18.8,-33.0,-7.809483,-43.741756,80.979164,0.6876759078880251,0.19325501,-0.32368401,0.62046999
1.9873,2269.1838,11.78941,-12.28742,21.50777,1.93205,-5.24669,-6.23627,-8.3,17.3,-32.2,-2.159015,-49.573936,76.752625,0.7066970890238897,0.246823,-0.339228,0.56972098
2.0232,2269.2038,12.85486,-12.06954,21.24201,2.9241,-5.66025,-6.92899,-13.0,14.1,-33.4,5.315845,-55.812466,73.852264,0.718730204195969,0.31364101,-0.34912199,0.51300102
2.0376,2269.2238,12.4191,-11.17408,20.47105,3.18616,-5.09031,-6.85874,-19.9,10.9,-31.9,13.892191,-61.971935,72.180786,0.7243598578877763,0.38482001,-0.35190099,0.45097899
2.0564,2269.2438,11.94743,-9.65372,19.32659,3.57834,-4.86368,-6.46962,-23.8,4.8,-30.7,22.485384,-67.750771,71.776131,0.7234356151658555,0.45161501,-0.348021,0.38931501
2.1049,2269.2638,11.71998,-7.96336,16.59233,3.65775,-4.5723,-6.38837,-26.2,-0.3,-28.1,30.814642,-74.000534,73.029556,0.7139360211657761,0.51576102,-0.340047,0.32962701
2.1132,2269.2838,10.56354,-6.23709,13.27147,3.05666,-4.3756,-6.20206,-28.0,-6.2,-24.3,38.822872,-80.853661,75.419266,0.6998212216928977,0.574251,-0.32911301,0.268646
2.1135,2269.3038,9.00008,-4.348,12.06715,2.48428,-4.32917,-5.68038,-29.0,-11.2,-21.6,46.069244,-88.194794,78.479759,0.6841103702114005,0.62273598,-0.31823301,0.207173
2.1311,2269.3238,7.49169,-2.37991,12.03363,2.97052,-4.62544,-5.0066,-29.4,-15.8,-21.3,52.249222,-96.998421,82.975723,0.6641302054572126,0.66402698,-0.31042799,0.147084
2.1484,2269.3438,6.21314,-0.7949,10.13736,3.00779,-3.8191,-4.43483,-28.6,-22.1,-14.5,56.91264,-108.663002,90.6269,0.635722746322325,0.70319003,-0.304746,0.092251
2.1748,2269.3638,5.12614,0.38069,8.64094,2.86973,-3.51855,-3.8429,-28.1,-24.7,-13.0,59.953697,-121.186264,100.047661,0.606813647402528,0.73589098,-0.29681599,0.046281
2.1875,2269.3838,4.40307,1.31925,7.61379,3.08598,-3.9767,-3.26563,-27.2,-27.2,-8.3,61.333263,-131.703735,107.81823,0.5833744306462187,0.75716001,-0.293733,0.010194
2.2127,2269.4038,4.08224,1.94415,7.50845,3.55085,-3.95654,-2.93088,-24.9,-29.3,-4.1,61.849346,-138.242004,111.621376,0.5689869592212108,0.76591998,-0.298888,-0.016923
2.2347,2269.4238,3.47888,2.18358,7.45577,4.23074,-3.13371,-2.72685,-24.4,-31.0,-1.1,61.616325,-144.870422,115.855247,0.5513966003436728,0.77594,-0.30382201,-0.039637
2.2499,2269.4438,1.83162,1.80049,6.70636,4.89842,-3.41409,-2.51793,-22.4,-32.3,3.2,60.566586,-151.296982,120.544968,0.5303870586826562,0.78847402,-0.30630001,-0.056379
2.2845,2269.4638,0.05746,1.1708,5.33205,5.37856,-3.8081,-1.86186,-20.3,-32.0,6.8,58.696701,-157.897278,124.832008,0.5037242583240554,0.80175298,-0.312861,-0.074646
2.2968,2269.4837,-0.55308,0.69673,4.26899,5.57464,-2.54117,-1.0091,-19.2,-30.1,11.8,56.206223,-163.201782,127.519821,0.47495481606967527,0.81313503,-0.32410601,-0.090469
2.3062,2269.5037,-0.08619,-0.00958,2.53314,5.59053,-0.82403,-0.64991,-17.4,-29.2,16.0,53.472073,-165.553726,128.4776,0.45076007473333296,0.822528,-0.33412999,-0.092845
2.3304,2269.5237,0.60336,-0.84278,1.45811,5.53555,0.10938,-0.4416,-17.7,-26.8,17.7,49.691006,-166.541,129.587982,0.4228334352956724,0.83635098,-0.33924499,-0.081497
2.3469,2269.5437,0.82124,-1.81247,1.05109,5.87763,-0.31945,-0.36769,-18.9,-24.7,22.7,43.512684,-168.444504,131.722656,0.37476825175700257,0.858509,-0.343835,-0.065487
2.3788,2269.5637,0.5435,-3.3448,1.06306,6.55142,-0.97308,-0.32248,-18.0,-22.5,24.2,36.813061,-170.516235,133.294434,0.319994453103893,0.87847698,-0.35085899,-0.052723
2.3918,2269.5837,0.74223,-5.17163,0.32323,7.25574,-0.36221,-0.08974,-16.2,-17.2,27.8,29.142214,-172.415527,134.377899,0.25621777313941274,0.89663702,-0.359063,-0.038318
2.408,2269.6037,1.29051,-6.98649,-1.65923,7.35226,-0.50577,-0.27667,-13.0,-12.1,34.9,20.845726,-173.342041,135.11998,0.18873596803269654,0.91150397,-0.365073,-0.016154
2.428,2269.6237,2.08541,-8.60742,-3.52198,7.25819,-0.79898,-0.33165,-17.0,-5.2,32.8,12.564904,-174.400055,135.612732,0.11954880862350559,0.92127198,-0.37007099,0.003672
2.4488,2269.6437,3.31128,-10.00089,-5.19079,7.16534,-0.90771,-0.56316,-10.8,-1.8,37.0,2.815751,-175.153336,135.899155,0.03863625539567654,0.926135,-0.37401,0.029962
2.4674,2269.6637,4.64729,-11.05676,-6.30891,6.77744,-0.0244,-1.03536,-11.1,4.1,36.8,-7.753,-175.24321,136.930969,0.04763770811258599,-0.92623901,0.368516,-0.063308
2.4864,2269.6837,6.45257,-11.78223,-7.10381,6.42924,0.76422,-1.70121,-16.0,7.8,37.2,-17.242777,-173.809296,138.655014,0.12120701595617261,-0.920834,0.35609999,-0.102793
2.5078,2269.7037,8.44461,-12.69444,-8.09983,6.06883,1.33599,-2.6621,-13.0,11.8,35.8,-25.616781,-170.716293,142.118073,0.18338552192384086,-0.91346902,0.33244801,-0.146364
2.5263,2269.7237,9.32331,-13.9682,-9.00247,5.55082,1.13319,-3.27541,-15.7,14.9,33.5,-32.711632,-165.755463,147.785767,0.23545825112482177,-0.90506399,0.29769599,-0.19182201
2.5463,2269.7437,10.95381,-15.49814,-7.93463,5.12688,0.54614,-4.09213,-16.5,16.8,32.1,-37.758842,-160.375702,154.765549,0.2759243041824322,-0.89779902,0.25747299,-0.22700299
2.5713,2269.7637,12.38558,-17.40398,-5.97372,5.42926,0.46185,-5.17703,-20.9,19.4,30.7,-41.285885,-154.11792,163.803101,0.31064284399261444,-0.89180899,0.206645,-0.25588199
2.6168,2269.7837,13.36245,-18.74478,-5.42303,5.662,1.49909,-5.85448,-23.6,19.4,26.6,-43.671055,-145.562378,175.309189,0.3437324505378261,-0.88140303,0.14629599,-0.289092
2.6188,2269.8037,14.4279,-19.13265,-6.51482,5.12444,3.24495,-6.15014,-26.5,19.3,23.4,-44.214706,-134.329239,-171.801971,0.37166402120116493,-0.86212099,0.084645,-0.333839
2.6384,2269.8237,15.2635,-18.80703,-7.17325,4.23074,4.40315,-6.50016,-29.4,18.0,20.0,-42.058453,-121.899406,-159.630493,0.3889016429682441,-0.83392298,0.027219,-0.39062399
2.6527,2269.8437,15.43828,-18.14381,-6.73031,3.68279,4.20278,-6.79032,-35.5,16.2,15.1,-37.348778,-110.571053,-149.831406,0.39452886643651175,-0.79934603,-0.026594,-0.45242199
2.6686,2269.8637,15.1821,-17.28188,-5.86597,3.50259,3.41843,-7.0982,-36.9,12.1,11.3,-30.945606,-101.767052,-142.361084,0.39206543205939437,-0.76206601,-0.081899,-0.50875598
2.6878,2269.8836,14.28903,-16.53007,-5.14051,3.15684,2.87843,-7.46716,-38.7,6.0,9.8,-23.376968,-95.411186,-136.629425,0.3827520931813691,-0.72346902,-0.140973,-0.55697399
2.707,2269.9036,12.87641,-15.87644,-4.29293,2.71335,2.77336,-7.5197,-39.1,-0.4,6.0,-14.978341,-90.764992,-132.430084,0.3657518443540372,-0.68271899,-0.200857,-0.599814
2.7262,2269.9236,11.54998,-14.91394,-3.75662,2.42808,2.88087,-7.20999,-39.5,-4.3,6.2,-6.384976,-87.00872,-129.582977,0.3431337098162753,-0.63908601,-0.256201,-0.638897
2.7501,2269.9436,11.00409,-13.30259,-3.9314,2.04018,2.85399,-6.86668,-37.5,-10.7,7.2,1.964934,-83.611893,-127.601219,0.31879223919810157,-0.59239399,-0.30572999,-0.67377299
2.7662,2269.9636,10.90592,-11.55956,-4.42223,1.2827,2.57177,-6.90456,-35.3,-14.6,3.6,10.007808,-80.559326,-126.457367,0.29197691424538985,-0.54504699,-0.34951201,-0.70392799
2.7867,2269.9836,10.621,-10.00328,-4.54912,0.49896,2.46609,-7.05239,-31.8,-20.1,0.6,18.056019,-77.559914,-126.710548,0.2574247868171188,-0.498025,-0.386738,-0.73221397
2.8084,2270.0036,10.07032,-8.74629,-4.19956,-0.16505,2.75503,-7.18128,-29.8,-24.4,-0.9,26.00802,-74.005775,-128.50946,0.2160108206617434,-0.45015201,-0.416587,-0.759709
2.8296,2270.0236,9.06233,-7.88914,-3.74225,-0.78324,3.3152,-7.31384,-25.7,-30.0,-2.1,33.736416,-68.987389,-131.916824,0.17125735351791446,-0.397504,-0.439199,-0.78725201
2.8472,2270.0436,7.52521,-6.99847,-3.19636,-1.32264,3.93339,-7.19105,-19.8,-33.5,-3.4,40.890999,-61.563366,-137.504272,0.12512658337802995,-0.338173,-0.45348799,-0.81506503
2.8694,2270.0636,6.04794,-5.92583,-2.56906,-1.72947,3.68294,-7.12325,-15.3,-36.5,-7.9,45.237053,-53.391872,-144.3694,0.08782864100701752,-0.289693,-0.45399901,-0.83800298
2.889,2270.0836,5.00643,-5.16445,-2.02556,-2.05751,2.68784,-7.09698,-10.3,-38.0,-10.3,47.349499,-45.821873,-151.985352,0.05252227993889314,-0.25641,-0.44516701,-0.85634202
2.907,2270.1036,3.54353,-5.21952,-1.63529,-2.43441,1.65425,-6.8227,-5.0,-38.0,-11.5,48.329239,-38.726711,-160.764984,0.01008379968761212,-0.23373,-0.43131599,-0.87134099
2.9285,2270.1236,2.08062,-5.34642,-1.11813,-3.20838,1.4826,-6.13242,-0.8,-38.5,-13.3,47.714153,-32.467461,-169.859528,0.035060181905672644,0.220351,0.40940699,0.88464803
2.9491,2270.1436,1.73106,-5.13572,0.37351,-3.69951,1.16251,-5.73475,6.5,-36.0,-16.0,44.996559,-26.749636,-178.707642,0.0783831682998326,0.209503,0.37466401,0.899773
2.9689,2270.1636,2.58342,-5.03277,1.47966,-3.6934,0.53087,-5.92595,9.8,-33.1,-18.1,40.810585,-21.988646,172.503754,0.1265009782917895,0.200736,0.32984301,0.91373199
2.9884,2270.1836,3.53395,-5.74626,1.73345,-3.97135,0.1387,-6.46534,14.6,-29.4,-21.1,35.92757,-18.034586,163.473297,0.18286825419765682,0.191323,0.28001401,0.92279297
3.006,2270.2036,3.10298,-6.87875,2.36075,-4.54129,0.16313,-6.67426,17.0,-27.3,-20.2,30.262981,-14.590727,153.961136,0.24800910753659627,0.177761,0.22465099,0.92543203
3.0265,2270.2236,2.22668,-7.52999,4.09182,-4.62131,-0.37382,-6.35722,25.4,-22.7,-24.1,23.627876,-11.836409,144.636551,0.3158248033869721,0.15800899,0.163369,0.92119402
3.0489,2270.2436,2.91623,-7.75027,5.61936,-4.33298,-1.35304,-5.9229,22.2,-15.5,-28.8,16.836388,-10.765814,136.040802,0.38134791375592997,0.140607,0.100425,0.90814
3.0671,2270.2636,4.16364,-8.31292,6.6489,-4.39346,-1.7782,-6.23444,27.0,-11.6,-28.6,10.517187,-11.486232,127.919083,0.44320508901602196,0.129565,0.038188,0.88618499
3.0866,2270.2836,4.13252,-9.1988,8.38236,-4.42217,-2.05064,-6.43847,25.5,-5.0,-29.5,4.68459,-13.152829,119.406799,0.5047799825788658,0.119286,-0.022673,0.85466599
3.1078,2270.3036,3.3472,-9.92906,9.85244,-3.84856,-2.57904,-6.00353,24.7,0.0,-30.4,-0.346534,-15.834732,110.752403,0.5624245429588218,0.111648,-0.080729,0.81528902
3.1278,2270.3235,3.88351,-10.71199,9.8285,-3.71234,-3.24122,-5.42321,21.8,5.4,-31.6,-4.233029,-19.474012,102.782623,0.6097087940003318,0.109356,-0.13390601,0.77354097
3.1469,2270.3435,5.46852,-12.27545,9.68963,-4.34947,-3.37928,-5.32303,19.2,9.9,-31.7,-7.721749,-24.040777,95.095116,0.6483332038188389,0.108861,-0.188844,0.729487
3.1847,2270.3635,7.17804,-13.96341,11.7104,-4.38918,-3.90523,-5.68038,15.7,14.8,-31.4,-10.763166,-29.304783,86.927223,0.6827917758055377,0.10738,-0.245206,0.67980802
3.19,2270.3835,7.78858,-15.01689,14.80859,-3.37026,-4.15446,-5.80256,8.1,19.3,-33.8,-11.276679,-35.440735,78.413452,0.715631093821684,0.118951,-0.29386601,0.62238699
3.2096,2270.4035,8.35362,-15.38322,17.60031,-2.02819,-4.04023,-5.77446,2.0,23.5,-30.5,-9.872455,-41.590408,70.637497,0.7423032828536459,0.138854,-0.335116,0.56338501
3.232,2270.4235,9.38795,-15.45026,19.19011,-0.66657,-3.39882,-5.88319,-3.2,23.6,-28.7,-6.619674,-46.954754,64.082253,0.7639957012478404,0.166114,-0.36523101,0.50529498
3.2468,2270.4435,10.80536,-15.46941,19.53249,0.41528,-3.05124,-6.1648,-10.9,24.2,-29.6,-1.759691,-51.072433,58.895668,0.7823902835865614,0.199843,-0.382155,0.44931701
3.2755,2270.4635,12.37122,-15.2635,19.46306,1.28454,-3.32674,-6.61134,-14.8,22.9,-28.5,4.393844,-54.540283,54.725929,0.796896982417464,0.240701,-0.39096099,0.39264199
3.2918,2270.4835,13.50132,-14.78465,18.90998,1.92839,-3.60774,-7.2387,-19.5,18.9,-31.4,11.769778,-58.057049,51.38348,0.8053531735153588,0.29004699,-0.39610299,0.33223701
3.3169,2270.5035,13.70483,-14.13101,18.68971,2.40181,-3.78978,-7.66325,-23.4,14.8,-28.5,20.23807,-61.607681,48.709911,0.8074201470940514,0.34537801,-0.39703801,0.26673499
3.3282,2270.5235,13.2571,-12.94584,18.51253,3.09209,-4.09093,-7.72067,-27.2,8.8,-27.9,29.426277,-65.448433,46.903198,0.8011241607479079,0.40410799,-0.39464399,0.197871
3.3504,2270.5436,12.57473,-11.46379,17.3154,3.6773,-4.30718,-7.71395,-29.7,2.3,-26.7,39.00782,-70.328773,46.720539,0.783670858466461,0.46582499,-0.39015299,0.129026
3.3785,2270.5636,10.6641,-9.84765,15.47659,3.86789,-4.21005,-7.48732,-30.6,-3.7,-26.1,48.672169,-76.827805,48.660076,0.7560039513973189,0.52745301,-0.38282099,0.060823
3.3889,2270.5836,7.51084,-7.85083,13.4223,3.84528,-3.91378,-6.60401,-31.9,-10.8,-21.4,57.606815,-85.762772,53.627552,0.7209594827691913,0.58407199,-0.37291899,-0.00296
3.4185,2270.6036,4.31927,-5.48768,11.75828,3.72067,-3.87163,-5.20207,-31.6,-15.2,-18.7,64.64473,-98.6688,62.92342,0.6813970021032815,0.63175398,-0.36490899,-0.058536
3.4273,2270.6237,2.26977,-3.23467,10.49171,3.85261,-3.25771,-3.57839,-31.7,-19.4,-16.1,68.624435,-116.272156,77.205345,0.6394625880717335,0.67023802,-0.36255401,-0.102094
3.4474,2270.6437,2.27217,-1.47487,9.00726,4.17149,-2.71038,-2.28214,-30.9,-21.8,-11.9,68.892532,-134.602509,92.891754,0.5974467794419681,0.70175499,-0.36602399,-0.128933
3.4707,2270.6637,2.76778,-0.36872,8.07828,4.57832,-2.99321,-1.99503,-29.5,-25.3,-7.1,67.118141,-146.824997,102.934952,0.5626325132468252,0.72304797,-0.37406701,-0.14394499
3.4885,2270.6838,2.84679,0.00718,7.61858,5.30525,-3.05491,-1.66333,-29.2,-26.9,-2.7,65.369316,-151.867523,106.047997,0.541514848355278,0.73116899,-0.38620701,-0.15165
3.5072,2270.7038,2.58103,-0.00718,6.76861,6.00347,-3.16792,-1.48862,-29.3,-29.0,2.6,62.686813,-156.642731,108.793297,0.5148245912373839,0.74133402,-0.40130499,-0.155993
3.5283,2270.7238,1.51797,-0.59617,5.1429,6.25148,-3.41715,-1.20824,-26.9,-28.4,8.5,59.279892,-161.09407,111.093384,0.48301924092151827,0.752909,-0.41805401,-0.15827601
3.5465,2270.7438,1.0032,-1.24263,4.38152,6.46651,-3.21251,-0.68778,-26.4,-27.6,10.0,55.530323,-164.44278,112.062675,0.44971200473647527,0.76233202,-0.437567,-0.15856899
3.579,2270.7639,0.98644,-2.16921,3.69437,6.93565,-2.56438,-0.41411,-25.5,-24.9,17.1,51.305065,-166.266678,111.941055,0.41651793638399265,0.77067101,-0.457946,-0.15121
3.5986,2270.7839,1.96091,-3.23945,2.32005,7.12807,-1.19604,-0.19176,-24.3,-22.2,20.1,46.282871,-166.379547,111.051102,0.383421210470443,0.77907699,-0.47840101,-0.13099501
3.6092,2270.804,2.71032,-4.1804,1.10615,7.05355,0.08616,-0.32187,-24.3,-18.8,24.2,39.748119,-164.76799,110.49424,0.34790099878384934,0.79155099,-0.49433899,-0.089671
3.6345,2270.8241,2.64089,-5.19079,0.34478,6.97597,0.17291,-0.16977,-24.6,-15.7,25.1,31.894215,-164.83992,112.076561,0.29674714333728525,0.81076902,-0.50238502,-0.046947
3.6517,2270.8441,2.86116,-6.37356,0.01676,7.21543,-0.21194,0.03793,-24.7,-11.4,29.6,23.779402,-165.334198,113.734818,0.2393871694345776,0.82711297,-0.50845599,-0.007101
3.6773,2270.8642,3.57705,-7.70956,-0.69673,7.48604,-0.28769,-0.04149,-24.7,-5.7,29.4,14.132399,-165.143402,115.021988,0.1718144837280599,0.83860499,-0.51516801,0.042701
3.6953,2270.8842,4.46293,-8.96895,-2.16203,7.46955,0.01042,-0.52163,-25.0,-1.6,31.5,2.826619,-163.98494,116.809639,0.09377800818986759,0.84500903,-0.51572001,0.105822
3.7107,2270.9043,4.78376,-10.30496,-3.78295,7.08776,-0.05189,-0.91075,-25.0,4.9,31.4,-7.678672,-162.525848,119.656334,0.01900000099470996,0.84745997,-0.50444001,0.164289
3.7291,2270.9244,5.52599,-11.28901,-5.19558,6.78904,-0.07816,-0.9248,-25.3,9.7,29.1,-17.143246,-160.785995,123.159592,0.05072770466066713,-0.845622,0.48589301,-0.215077
3.7513,2270.9445,6.68721,-11.80377,-6.96255,6.26736,-0.20461,-1.48313,-25.6,12.6,30.0,-25.615154,-158.565964,127.204872,0.11448919262410583,-0.83988202,0.462897,-0.259262
3.7734,2270.9646,7.59703,-12.28981,-8.07589,5.27104,0.02874,-2.08422,-25.8,15.4,28.4,-32.433006,-155.575699,132.403442,0.16778669572734287,-0.834849,0.43274501,-0.295984
3.7899,2270.9847,8.60502,-13.00809,-7.90111,4.48181,0.47345,-2.61262,-27.3,16.9,27.2,-37.277168,-151.394348,138.58963,0.2069298695874514,-0.83096302,0.398487,-0.328464
3.8099,2271.0048,10.14933,-14.23396,-7.0272,4.19042,0.87235,-3.16728,-28.2,17.9,24.9,-40.259819,-146.183914,145.514786,0.2335373584862169,-0.82828599,0.361873,-0.35839999
3.8413,2271.0249,12.07672,-15.63701,-6.47891,4.15988,1.54735,-3.92353,-29.6,17.4,23.5,-41.778065,-139.845261,153.291794,0.25176076164883204,-0.825499,0.321767,-0.389402
3.865,2271.045,13.74553,-16.56599,-6.74228,3.93936,2.50214,-4.61259,-31.6,17.6,22.1,-41.896271,-131.833908,162.266632,0.26376716842783826,-0.81993598,0.275565,-0.426844
3.886,2271.0651,15.15815,-16.76232,-7.34324,3.4299,3.27244,-5.15076,-33.7,15.2,18.4,-40.224949,-122.77636,171.359421,0.2671431883986181,-0.80960298,0.226299,-0.47113299
3.8983,2271.0852,16.23558,-16.25473,-7.45577,2.85263,3.41294,-5.68099,-35.1,14.1,16.4,-36.696369,-114.01535,179.370865,0.26119366997574617,-0.79514903,0.17578,-0.51828301
3.9181,2271.1053,16.65697,-15.5149,-6.73988,2.34317,3.09773,-6.31385,-37.6,11.2,14.8,-31.503008,-106.622322,-174.128662,0.24685499861367977,-0.779073,0.122453,-0.56312799
3.9295,2271.1253,16.26192,-14.89957,-5.41106,2.04873,2.73243,-6.8563,-39.0,5.5,11.1,-24.92593,-100.883934,-168.915054,0.2256733014078064,-0.76256698,0.064088,-0.60287303
3.9533,2271.1454,14.95704,-14.45663,-4.02238,1.89479,2.81123,-7.14402,-37.6,-0.1,10.0,-17.394953,-96.41127,-164.962357,0.1979764845123774,-0.743819,0.00348,-0.63837802
3.9782,2271.1655,13.43906,-13.87722,-2.72947,1.86364,3.06841,-7.06644,-38.9,-5.7,8.1,-9.400908,-92.441307,-161.794525,0.16751837587249738,-0.71948898,-0.057858,-0.67150998
3.9897,2271.1855,12.51966,-12.81176,-2.05189,1.95038,2.99816,-6.8618,-36.4,-10.7,5.3,-1.402978,-88.710518,-159.225586,0.13733665266213435,-0.68917501,-0.117428,-0.70170301
4.0108,2271.2056,11.80377,-11.44942,-2.60737,1.83248,3.04886,-6.85263,-35.0,-15.8,5.4,6.562724,-85.35437,-157.080811,0.10780520820359214,-0.65490401,-0.175698,-0.72705501
4.0318,2271.2257,10.97296,-10.09426,-3.39987,1.24788,3.19913,-6.81048,-32.5,-21.1,2.3,14.562606,-82.043015,-155.597504,0.07687130222390975,-0.61613399,-0.231058,-0.74905401
4.0503,2271.2457,9.85244,-8.76065,-3.99604,0.411,3.6078,-6.6932,-29.9,-24.3,2.8,22.409868,-78.137115,-155.557953,0.041536588326919276,-0.57229,-0.278319,-0.77025801
4.0704,2271.2658,8.5715,-7.54436,-4.20674,-0.2579,3.54549,-6.45862,-25.7,-30.1,-1.6,29.841228,-73.191971,-156.982681,0.004541911859508261,-0.523242,-0.31749901,-0.79081702
4.0984,2271.2858,7.7359,-6.40947,-4.27857,-0.84189,3.42393,-6.27475,-21.0,-31.9,-4.0,36.57616,-67.256691,-160.219772,0.03543457250652106,0.47314,0.34771401,0.808689
4.1139,2271.3059,7.05832,-5.48528,-4.49645,-1.65067,3.48441,-6.41586,-16.6,-35.0,-5.9,40.697556,-61.605976,-164.452911,0.0675142674619145,0.43531901,0.36087701,0.82201397
4.1326,2271.326,6.15329,-5.00643,-4.20914,-2.45213,3.29626,-6.56797,-11.7,-37.2,-9.8,43.226597,-55.514938,-170.08165,0.09979492894841552,0.40318701,0.36216399,0.83445698
4.1492,2271.346,5.07347,-4.87714,-3.56029,-3.00435,2.83322,-6.48367,-7.0,-37.5,-11.4,44.822014,-48.699272,-177.393616,0.13800319085455734,0.37316599,0.355914,0.84559298
4.1754,2271.3661,4.00562,-4.88193,-2.8444,-3.44539,2.38118,-6.32973,-1.3,-38.6,-14.4,45.190948,-41.915146,174.368912,0.17961840540033644,0.34744799,0.34215099,0.85437101
4.1961,2271.3861,3.1772,-4.87474,-1.94415,-3.92431,1.76665,-6.13731,2.4,-35.4,-15.9,44.210278,-35.612858,165.673615,0.22417579719064154,0.325789,0.32015499,0.86087602
4.2173,2271.4061,3.00242,-5.13572,-0.89306,-4.21569,0.97436,-6.1031,8.1,-33.1,-20.0,41.796909,-30.271038,156.864761,0.2720828625956054,0.30802,0.288432,0.86481303
4.243,2271.4262,3.28016,-5.77499,-0.20591,-4.43866,0.11243,-6.20023,12.6,-29.6,-22.7,38.219109,-26.194248,147.952133,0.32534656509841914,0.293814,0.24736699,0.864079
4.2818,2271.4462,3.49085,-6.62975,0.57941,-4.99638,-0.39703,-6.34623,14.7,-25.5,-25.1,33.569054,-23.236122,138.804611,0.38435488832869,0.27999201,0.196945,0.857373
4.2829,2271.4662,3.71591,-7.58985,2.09978,-5.32564,-0.66031,-6.50322,17.4,-20.1,-28.1,27.804735,-21.012438,129.386322,0.44759488679941367,0.26099899,0.137907,0.844109
4.2976,2271.4863,3.11735,-8.50925,3.97928,-5.09351,-1.01462,-6.37005,18.7,-14.1,-31.4,21.536518,-19.556984,119.883438,0.5123770350446237,0.236634,0.07579,0.82202798
4.3101,2271.5063,3.2634,-8.96656,5.68401,-4.79235,-1.60899,-5.92228,19.3,-8.0,-32.0,15.433537,-19.223877,110.931999,0.5723451089156258,0.211358,0.015263,0.79215902
4.3289,2271.5262,3.9721,-9.4502,7.1086,-4.51685,-2.07263,-5.84776,18.8,-2.9,-33.8,9.803327,-20.20113,102.523338,0.6255019656973588,0.188936,-0.043727,0.75573701
4.3492,2271.5462,5.09981,-10.49171,7.46535,-4.35742,-2.55033,-5.9119,17.1,2.8,-34.5,4.978041,-22.143194,94.250977,0.673213204505779,0.169598,-0.099303,0.71285301
4.3707,2271.5662,5.53796,-12.127,8.4039,-4.78013,-3.40982,-6.09149,13.6,8.9,-34.2,0.842234,-25.218414,85.800987,0.7159423096756048,0.153853,-0.155026,0.66311598
4.3899,2271.5863,5.84203,-13.17809,10.12299,-4.58221,-4.061,-5.27599,9.2,13.6,-36.0,-2.890926,-29.735628,77.177422,0.7511965586028595,0.14093401,-0.21570501,0.60771102
4.4098,2271.6063,7.67844,-13.5492,12.62262,-4.07031,-3.59491,-5.20452,5.1,18.6,-35.2,-5.38186,-34.90514,69.272881,0.7760305622395294,0.133425,-0.271947,0.55318999
4.4323,2271.6263,9.69681,-14.0113,15.69926,-2.80643,-2.51246,-5.70848,1.0,22.2,-32.9,-5.177425,-39.388706,61.625679,0.7999838059307325,0.13592701,-0.31092,0.49485201
4.4536,2271.6464,10.83649,-14.66733,18.22522,-0.972,-2.88386,-6.29675,-4.2,24.8,-33.2,-2.801896,-42.754616,54.56197,0.8232899920035587,0.14679,-0.33430201,0.43461299
4.4792,2271.6664,12.05757,-15.22519,19.23082,0.59487,-4.02985,-6.70725,-7.4,24.5,-32.0,1.899093,-46.465958,48.687836,0.8397856904657283,0.176458,-0.353071,0.372778
4.4937,2271.6864,14.12383,-15.63222,19.35771,1.49223,-4.69141,-7.3908,-13.9,21.2,-32.0,8.429811,-50.918987,44.026989,0.8466431675357805,0.222214,-0.37258199,0.30821899
4.5107,2271.7064,15.08393,-15.74715,19.08476,2.00719,-4.63155,-8.26251,-18.7,16.4,-29.5,16.551195,-55.510166,40.03553,0.8457703205141807,0.27743199,-0.38940099,0.236793
4.5294,2271.7265,14.53564,-15.22759,18.58197,2.29979,-3.96265,-8.37308,-22.2,13.0,-29.5,25.887945,-59.45594,36.54454,0.8384755398639961,0.33623499,-0.397926,0.15987401
4.5497,2271.7465,13.14696,-13.79342,18.4024,2.80742,-3.55154,-7.99556,-25.2,7.2,-28.0,35.531174,-62.545921,33.853809,0.8247995772715211,0.393426,-0.39701399,0.085449
4.5714,2271.7665,11.24351,-11.88518,17.59792,3.61926,-3.46785,-7.38531,-26.4,1.9,-24.8,45.125153,-65.896149,32.724384,0.8023376218858741,0.45042899,-0.39120501,0.018075
4.5913,2271.7865,9.49569,-9.7854,15.86925,4.14888,-3.88141,-6.78788,-27.6,-5.4,-24.8,54.403717,-71.124092,34.158058,0.7696886653445792,0.50738299,-0.38523701,-0.041645
4.6145,2271.8066,7.64731,-7.49408,13.39357,4.37246,-4.45684,-6.23627,-28.3,-10.9,-20.7,63.002922,-80.391396,39.480038,0.7269035924427805,0.56153101,-0.38314199,-0.097449
4.6405,2271.8266,5.7702,-5.16445,10.32172,3.98578,-4.14469,-5.32791,-27.8,-16.5,-17.4,70.07383,-96.485703,51.391571,0.6770574385792678,0.60936397,-0.384608,-0.14948399
4.6498,2271.8466,3.9745,-2.81088,8.65051,3.26557,-2.94006,-4.14528,-27.8,-20.1,-14.7,74.282532,-119.41407,70.773483,0.6297213108858545,0.64688897,-0.38477701,-0.192178
4.6713,2271.8667,2.51638,-0.838,10.13257,3.60216,-2.58759,-3.04633,-26.7,-23.6,-12.9,75.142555,-143.584549,92.512894,0.589692123230453,0.67566699,-0.38293901,-0.22157399
4.6898,2271.8867,1.0056,0.05986,11.65054,5.42193,-3.02925,-2.02435,-26.5,-25.5,-7.3,73.181313,-160.64801,107.255066,0.5531695388766087,0.69670701,-0.38870499,-0.239815
4.7107,2271.9067,-0.09338,-0.11493,10.86522,7.06882,-3.03353,-1.01643,-26.5,-27.0,-2.5,70.266899,-166.978363,111.118904,0.5239958731570123,0.70701599,-0.40571299,-0.246888
4.7371,2271.9267,-1.16841,-1.24742,8.15969,7.85684,-2.44221,0.13017,-24.8,-27.9,4.8,65.6175,-170.720718,112.253906,0.4862935240574348,0.71997303,-0.43052101,-0.244559
4.7502,2271.9468,-1.2115,-2.57145,5.7726,8.03399,-1.33471,1.1497,-25.1,-26.4,11.0,60.427784,-171.361221,110.783592,0.4499786295411809,0.73075098,-0.45821401,-0.231435
4.7702,2271.9668,-0.35196,-4.24984,4.15407,8.26917,0.11915,1.75996,-26.6,-23.2,14.3,54.991039,-169.385452,107.838432,0.41984624401323395,0.738976,-0.48565099,-0.204418
4.7928,2271.9868,0.70631,-6.64172,3.15565,8.66684,1.36654,2.28591,-27.8,-17.9,17.6,48.868538,-164.964996,104.342262,0.3969652893982539,0.74611402,-0.51082999,-0.157433
4.8105,2272.0069,2.57385,-8.92825,2.14527,9.10361,2.24679,2.80637,-30.2,-13.3,19.9,39.711754,-157.847031,100.509705,0.3718311508620539,0.75143498,-0.539985,-0.074184
4.8308,2272.0269,6.16526,-10.26904,0.05986,9.42004,2.48198,2.62616,-31.6,-8.2,19.4,26.146013,-151.973694,99.634193,0.3198578650104439,0.75738102,-0.56795698,0.038598
4.8524,2272.0469,10.56115,-10.72635,-2.37751,9.0804,2.02749,1.17353,-33.7,-4.2,19.4,12.307856,-147.940186,101.719963,0.25321411144906486,0.75983799,-0.58021802,0.14790501
4.8783,2272.0669,13.12781,-10.84606,-3.39269,8.72488,0.60479,-1.07263,-33.7,0.0,20.9,0.684504,-144.817062,106.396889,0.18560671129293665,0.76433802,-0.56957501,0.238583
4.9035,2272.087,13.28344,-11.63857,-4.96094,8.43716,0.10266,-2.51732,-33.1,2.7,20.1,-8.313519,-142.583313,113.648056,0.11759966407672683,0.77796203,-0.53639501,0.30532899
4.9177,2272.107,14.06876,-12.11742,-8.54277,6.84219,3.25472,-2.77999,-33.4,3.8,19.6,-15.151681,-138.917007,122.159637,0.060153496717146746,0.79011601,-0.48938099,0.364149
4.9366,2272.127,15.8477,-11.49731,-8.75347,5.00593,5.29807,-3.06954,-36.9,3.3,18.2,-18.084455,-132.133743,129.755524,0.04003821975737342,0.790205,-0.44095001,0.42371699
4.95,2272.1471,17.45426,-11.34168,-6.54116,5.06274,4.27853,-3.84656,-36.6,3.6,13.6,-18.631227,-123.971649,136.979843,0.037025142291946714,0.78263497,-0.39016801,0.483612
4.9819,2272.1671,18.05283,-11.78462,-5.15966,5.31197,3.50518,-4.57594,-39.8,-0.2,8.5,-17.614771,-116.96701,144.851883,0.031571628800863526,0.778952,-0.33066699,0.53188002
4.9901,2272.1871,18.32817,-12.12221,-4.01999,5.03891,4.09038,-5.02981,-38.9,-4.0,6.6,-15.120329,-110.577415,152.822739,0.0275408760565038,0.77447301,-0.26427901,0.574099
5.0094,2272.2071,18.57478,-11.97616,-2.49483,5.00776,4.96148,-5.50567,-38.1,-8.1,3.5,-11.20371,-103.934158,160.250061,0.02941642739387427,0.761967,-0.19368801,0.61727297
5.0318,2272.2271,18.26592,-11.59787,-1.87951,5.29853,5.61022,-6.02735,-36.9,-12.6,-0.2,-5.901465,-96.977936,167.256104,0.03516278358661536,0.739429,-0.116903,0.66207403
5.0499,2272.2471,17.48299,-11.2507,-2.78454,5.3303,5.60289,-6.356,-35.0,-16.5,-1.1,0.712805,-90.206329,173.827118,0.04241446200908341,0.70757401,-0.033756,0.704557
5.0803,2272.2671,16.35529,-10.49411,-4.7694,4.76097,5.30662,-6.4965,-31.9,-20.7,-0.9,8.32761,-84.296021,179.568314,0.051523745703700906,0.66947502,0.051311,0.73926699
5.0996,2272.2871,15.02168,-9.17007,-6.45018,3.34682,4.78738,-6.52887,-28.5,-25.6,-2.5,16.441572,-79.186165,-176.082123,0.06502193928774545,0.626647,0.13168301,0.76533997
5.1176,2272.3071,13.22837,-7.62098,-7.42943,1.9571,4.57297,-6.51421,-25.0,-30.1,-3.9,24.499498,-74.370964,-174.117493,0.08813345612489652,0.58118498,0.199119,0.78409702
5.1307,2272.327,11.19084,-5.96653,-7.09663,0.68283,4.38788,-6.37005,-19.3,-33.6,-4.9,32.111908,-68.855568,-174.645676,0.11918195508087273,0.53206497,0.253259,0.799101
5.1529,2272.347,9.35443,-4.49884,-5.80851,-0.29883,3.89857,-6.32546,-14.0,-35.2,-5.0,38.91441,-62.065342,-177.64827,0.15511487351353223,0.48012599,0.295342,0.81129003
5.176,2272.367,7.30972,-3.39029,-4.19956,-0.89686,3.22479,-6.14769,-10.1,-37.3,-9.2,44.764034,-53.911007,176.80983,0.1954855246090614,0.428435,0.327613,0.81908399
5.1903,2272.387,5.75584,-2.48047,-2.74623,-1.39411,2.31643,-5.84287,-5.9,-38.0,-9.0,48.045624,-47.587402,171.110016,0.22852538259720623,0.39626101,0.34281901,0.82050502
5.2145,2272.407,4.62334,-1.84599,-1.71191,-2.08439,1.82224,-5.74697,-1.1,-38.6,-11.1,49.677547,-42.839127,165.494293,0.2588373864743651,0.37812999,0.346084,0.81868601
5.2321,2272.427,3.56986,-1.63768,-0.39506,-2.70686,1.64815,-5.73108,3.3,-37.5,-13.5,50.255268,-37.740528,158.695541,0.2933349941977935,0.36204699,0.340763,0.81655198
5.2575,2272.447,2.65286,-1.86035,0.79011,-3.11369,1.4038,-5.76713,8.4,-35.7,-14.4,49.746368,-32.292076,151.191055,0.3300797264517148,0.34486699,0.32855901,0.81496203
5.2835,2272.467,2.04232,-2.33442,1.55388,-3.43867,0.87968,-5.78179,14.0,-32.0,-16.8,48.121338,-26.987093,143.188782,0.37061684924422933,0.32733899,0.30889699,0.81244999
5.2942,2272.487,2.12133,-2.99524,2.22668,-3.98357,-0.12703,-6.086,16.4,-29.5,-21.3,46.069317,-20.232643,133.256393,0.4224814704169874,0.30118901,0.28947601,0.804362
5.3092,2272.507,2.6744,-4.02717,3.13171,-4.51196,-0.92909,-6.52826,20.6,-25.2,-21.3,43.517517,-12.554126,121.52932,0.4862500352403884,0.26857501,0.27194601,0.78579497
5.3312,2272.527,2.85637,-5.71035,4.27618,-4.8174,-0.73484,-6.7158,23.6,-19.3,-24.0,39.424568,-6.375495,110.3339,0.5522784233768506,0.235331,0.24653099,0.760809
5.3514,2272.547,2.30569,-6.95776,5.74865,-4.81617,-0.36038,-6.49711,24.3,-13.1,-28.7,32.672253,-2.538676,100.913879,0.6156099087186138,0.19542301,0.203315,0.735865
5.3806,2272.567,2.69116,-7.74308,8.69122,-4.4802,-1.20765,-6.38654,25.6,-6.6,-28.2,24.589087,-0.532879,92.893639,0.6739356644149944,0.150011,0.151191,0.70742399
5.3965,2272.587,2.07105,-7.96336,14.02327,-3.0917,-2.9254,-6.74207,22.5,-1.1,-30.3,17.282812,-0.593901,85.137085,0.7286251789647398,0.114119,0.097865,0.66821003
5.418,2272.607,0.50519,-7.64492,17.99058,-0.42833,-3.92967,-6.13548,20.5,2.8,-32.4,12.597777,-2.839372,77.23716,0.7780594586399037,0.101066,0.049215,0.61805099
5.4313,2272.627,0.84997,-7.26184,17.85171,1.50262,-4.55702,-5.35601,17.3,5.2,-32.4,11.590458,-6.25447,70.373268,0.815065617667179,0.113676,0.013741,0.56794101
5.4516,2272.647,1.42459,-6.90269,17.18132,1.69137,-5.984,-5.56126,12.9,5.9,-34.2,13.815974,-10.55034,64.326653,0.8427158437008168,0.14997301,-0.013509,0.51687098
5.4755,2272.667,0.97926,-6.32567,17.39919,1.8111,-6.63641,-5.20391,8.6,6.2,-36.3,17.157116,-16.115728,58.281048,0.865311158870611,0.196493,-0.049142,0.458489
5.4917,2272.687,0.88828,-5.61697,17.32497,1.92595,-6.31998,-4.38352,3.6,4.8,-36.9,21.034302,-21.949301,53.244518,0.8784579170785588,0.244069,-0.087035,0.401456
5.5159,2272.707,2.22189,-4.51081,17.04963,2.12203,-7.02431,-3.94919,-1.6,4.6,-36.9,25.099354,-27.919451,49.45562,0.8823453360424024,0.29003501,-0.12567601,0.348643
5.5312,2272.727,4.17083,-3.38311,16.03925,2.04506,-7.66999,-4.18987,-9.2,0.9,-36.9,29.558502,-34.791359,46.436596,0.8780290585014483,0.33767799,-0.169697,0.29366899
5.5566,2272.7469,5.86358,-2.24583,14.89239,1.77445,-7.53499,-4.31937,-14.7,-1.4,-35.2,34.355503,-42.164932,43.566666,0.8672119175984263,0.383425,-0.21686301,0.232162
5.5767,2272.7669,6.5244,-1.10855,14.68409,1.6028,-6.54234,-4.23996,-18.3,-4.2,-35.5,39.258785,-48.996162,40.917713,0.8517195309640139,0.42292699,-0.25907901,0.16907001
5.5934,2272.787,6.692,-0.15563,15.03126,1.97237,-5.5735,-3.84229,-22.2,-6.4,-34.1,44.165581,-54.894356,38.985523,0.8330249354725223,0.45703,-0.291309,0.11105
5.6203,2272.807,6.55313,0.65603,15.01689,2.88195,-5.59672,-3.46294,-24.3,-9.6,-27.4,49.107952,-61.081631,38.76284,0.8090642757199948,0.49100199,-0.31723601,0.060773
5.6347,2272.827,5.78217,1.3384,14.08073,3.75671,-6.71155,-3.26563,-26.5,-14.1,-24.2,54.139225,-69.785591,41.316547,0.7752490964852133,0.52896702,-0.34494099,0.014087
5.6507,2272.8471,4.63532,1.9657,12.39516,4.45309,-7.73413,-2.94676,-28.4,-16.6,-20.3,58.753716,-83.187431,47.686058,0.7277230064638048,0.56940103,-0.38081101,-0.034419
5.6719,2272.8671,3.1365,2.07823,10.4151,4.80434,-6.87831,-2.30413,-30.2,-20.6,-16.5,61.794846,-101.286339,58.466644,0.6687548455476936,0.60818702,-0.41995001,-0.080731
5.692,2272.8871,1.03433,1.59219,9.704,5.41826,-5.66513,-1.21374,-30.3,-22.7,-10.6,62.332184,-114.842209,66.723259,0.6246367475692411,0.62925601,-0.448973,-0.110856
5.7149,2272.9071,-2.02316,0.20112,9.86441,6.97841,-6.63824,0.04343,-32.5,-23.4,-1.7,60.79834,-126.007088,73.686111,0.583694310064386,0.64465898,-0.47730899,-0.126063
5.7388,2272.9272,-5.41824,-1.89387,7.54436,9.03947,-8.79643,1.37022,-32.0,-23.1,3.0,56.616806,-138.150391,80.137367,0.5257516554077029,0.658957,-0.52029699,-0.136572
5.7523,2272.9472,-6.34722,-4.66644,1.75261,9.2826,-8.27597,2.62433,-31.7,-18.7,14.9,50.037945,-150.462448,84.403984,0.44582926037109666,0.668468,-0.57667297,-0.14776701
5.7722,2272.9672,-3.52677,-6.15089,-1.30727,7.47443,-3.05796,3.39708,-30.6,-11.0,21.8,43.670048,-158.724792,84.91478,0.37317908584938053,0.66649902,-0.62673301,-0.15402
5.7921,2272.9873,0.19394,-6.87875,-1.79092,7.35715,-0.75133,2.9768,-30.3,-5.0,24.8,37.943012,-163.666763,85.273933,0.3168015034237979,0.66803497,-0.65736198,-0.145744
5.8143,2273.0073,2.47807,-7.32169,-4.08703,7.53124,-0.26508,2.59745,-30.6,0.1,26.3,27.237787,-165.008499,84.454483,0.2507791426081105,0.67034,-0.69287097,-0.087658
5.8321,2273.0273,4.7694,-7.26662,-7.54436,6.30585,-0.57479,2.09899,-30.6,5.7,27.2,17.596077,-165.065781,83.323914,0.19676038880689223,0.666192,-0.71881402,-0.027928
5.8538,2273.0473,6.50764,-7.3193,-9.10064,4.9821,-1.20704,1.13748,-30.3,9.1,26.1,7.910556,-165.532745,82.543114,0.13955796410531007,0.65934801,-0.73810297,0.031429
5.8767,2273.0674,7.82688,-7.87238,-8.56672,4.4983,-1.20643,0.41239,-29.7,11.0,25.9,0.094253,-166.38414,82.435394,0.08971540636110448,0.65434903,-0.74684203,0.077495
5.8928,2273.0874,9.28739,-8.67685,-6.941,4.49402,-0.78371,-0.58454,-28.6,13.2,26.8,-6.599882,-166.813828,83.169823,0.047799170377938,0.65330303,-0.74618,0.118852
5.919,2273.1074,9.85962,-9.89314,-5.95217,4.96378,0.17657,-1.51001,-28.0,16.0,25.1,-12.842506,-166.174545,85.247093,0.012845852082245411,0.65813398,-0.73500198,0.16268601
5.9351,2273.1275,9.56513,-10.98254,-6.4837,4.77869,1.5217,-1.69815,-30.6,17.1,23.1,-19.006966,-163.519623,88.639191,0.013113654458596647,-0.66502702,0.714881,-0.21566699
5.9501,2273.1475,9.70878,-11.5859,-6.66327,4.47753,1.85095,-1.83376,-32.1,18.3,20.4,-24.402943,-159.133942,92.631111,0.028083352920171237,-0.66869903,0.69159901,-0.27155799
5.9742,2273.1675,10.65452,-11.87081,-5.99526,4.38162,1.20832,-2.29436,-33.6,19.2,19.0,-28.65254,-154.611725,97.166977,0.040197152241403446,-0.67286903,0.66606498,-0.31935701
5.9927,2273.1875,11.78701,-12.18925,-4.86517,4.54717,0.50827,-3.18317,-34.4,19.2,17.3,-31.807138,-150.601059,102.622932,0.054363427287275244,-0.68264598,0.63575703,-0.356163
6.0207,2273.2076,12.5029,-12.58191,-4.8101,4.64185,0.84303,-3.98462,-35.0,18.6,14.8,-34.249092,-146.053207,109.650887,0.06950412338156281,-0.69761801,0.59680998,-0.390277
6.0355,2273.2276,13.15893,-12.81895,-5.37515,4.10551,1.96763,-4.49347,-36.4,16.6,13.2,-35.585011,-139.950607,117.796638,0.07741989953855376,-0.71195799,0.551709,-0.42748001
6.0521,2273.2476,13.64018,-12.83331,-5.36318,3.42867,2.85094,-5.05363,-38.0,12.9,9.2,-35.151463,-132.443054,126.135788,0.07227541025922334,-0.72263002,0.50368398,-0.46785101
6.07,2273.2677,13.95383,-12.77106,-4.73588,3.19349,3.09467,-5.48307,-39.1,9.3,7.4,-32.908855,-124.5383,133.977219,0.05633712677408639,-0.72982001,0.45315799,-0.50875998
6.0917,2273.2877,13.97538,-12.53403,-3.88591,3.1434,2.83872,-5.91251,-40.2,5.9,6.8,-29.270191,-117.17572,141.33255,0.03654839527721598,-0.73558599,0.39763901,-0.54723001
6.1191,2273.3077,13.7599,-12.10545,-3.1796,3.03894,2.56567,-6.31202,-39.5,0.9,5.2,-24.430925,-110.915939,148.062286,0.015167105339486286,-0.74098802,0.33682701,-0.58073598
6.1339,2273.3277,13.41033,-11.61223,-2.62652,2.89417,2.47587,-6.60951,-38.5,-3.5,3.5,-18.551924,-105.826866,154.038391,0.00851364428078769,0.745341,-0.27156201,0.60880899
6.1552,2273.3478,12.91472,-11.00648,-2.56187,2.60767,2.79718,-6.9015,-37.4,-9.4,0.4,-11.851527,-101.546371,159.114883,0.035374178955553996,0.74591398,-0.203861,0.63308901
6.1758,2273.3678,12.30178,-10.22355,-2.86116,2.21,3.12705,-6.96931,-36.0,-14.3,-0.4,-4.510596,-97.634445,163.276245,0.06639924483847066,0.74026698,-0.13500001,0.65526402
6.1908,2273.3878,11.23394,-9.34007,-3.40226,1.65778,3.59986,-6.75978,-32.6,-19.0,-1.7,3.159202,-93.87812,166.389679,0.10087556535920651,0.72743499,-0.067853,0.67532098
6.2108,2273.4078,10.01525,-8.05913,-3.66085,0.93268,4.06473,-6.36211,-28.5,-24.3,-3.9,10.718247,-89.825478,168.367935,0.13705526623635791,0.70602697,-0.00543,0.69477499
6.2596,2273.4278,9.0767,-6.49567,-3.62254,0.22285,4.23272,-6.11043,-25.5,-27.7,-6.6,17.946934,-85.219299,169.047974,0.17449468676432292,0.67661703,0.050458,0.713579
6.262,2273.4478,8.26743,-5.13572,-3.34959,-0.4155,4.03907,-5.99498,-22.8,-31.8,-8.1,24.276039,-80.349777,168.295471,0.21111298638056342,0.64379501,0.095515,0.72927099
6.2766,2273.4678,7.4007,-4.13252,-2.93778,-1.0337,3.8497,-5.83004,-17.5,-34.0,-10.0,28.422874,-76.091141,166.603989,0.23931257427845193,0.61589998,0.122336,0.74056101
6.295,2273.4878,6.77101,-3.40705,-2.32484,-1.62807,3.96699,-5.72253,-12.5,-35.0,-10.9,31.987083,-71.467384,163.828079,0.2690761175740789,0.587291,0.14246701,0.74992698
6.312,2273.5078,5.91146,-2.81806,-1.76697,-2.12592,4.41903,-5.73658,-5.5,-36.6,-16.3,34.96962,-65.943314,159.830978,0.3011022179486225,0.55519599,0.157277,0.75918299
6.3307,2273.5278,4.95854,-2.53314,-1.45093,-2.60301,4.59435,-5.70176,-1.6,-37.2,-20.1,37.257877,-59.283508,154.557159,0.3354762721409062,0.51829702,0.167615,0.76858902
6.3572,2273.5478,3.95534,-2.43019,-1.2139,-3.15279,4.33473,-5.69382,4.5,-35.2,-21.9,38.590721,-51.909237,148.170364,0.37177933922185546,0.47871199,0.172454,0.77644998
6.3716,2273.5677,2.93538,-2.71032,-0.55068,-3.72883,3.60841,-5.7097,9.3,-32.0,-22.3,38.724632,-44.472481,140.81427,0.4110406683691032,0.43926001,0.169394,0.78064197
6.3949,2273.5877,2.25301,-3.14847,0.77814,-4.02755,2.281,-5.60525,13.8,-28.3,-22.9,37.473022,-37.879372,132.84285,0.4538549023557415,0.40324301,0.15550999,0.779248
6.4165,2273.6077,1.95612,-3.69437,2.1764,-4.08069,0.98169,-5.62724,15.9,-25.6,-25.9,35.805229,-31.753733,124.12484,0.5031128307877267,0.368512,0.13925099,0.76921099
6.4348,2273.6277,1.66881,-4.39349,3.53874,-4.10635,0.16558,-5.58387,18.9,-21.2,-28.9,34.46563,-25.657644,114.607376,0.5584148413650012,0.33450601,0.12853099,0.74817002
6.4764,2273.6477,1.21869,-5.03995,5.16924,-4.08558,-0.42024,-5.35235,20.7,-16.3,-28.6,32.467827,-20.636129,105.350594,0.6125600687206761,0.303518,0.114443,0.72079802
6.4775,2273.6677,0.68237,-5.29853,7.111,-3.77648,-0.8002,-4.96995,21.1,-10.5,-31.0,28.728666,-17.369173,97.110519,0.6619330325336543,0.271972,0.087014,0.69304001
6.4969,2273.6877,0.03591,-5.29374,9.0312,-3.13874,-1.38175,-4.52951,21.7,-5.8,-31.6,23.577322,-15.614404,89.937096,0.7057657776913668,0.237179,0.048967,0.66576499
6.5114,2273.7077,-0.77096,-5.1453,10.41749,-2.28414,-2.08241,-3.84351,20.0,-3.3,-34.0,19.28982,-15.072823,83.732269,0.7425030217205987,0.209987,0.014558,0.63591099
6.5374,2273.7277,-0.9601,-5.01361,10.69762,-1.4949,-3.74885,-3.05183,19.2,0.4,-34.9,16.047667,-15.857567,78.709938,0.7705525565634831,0.193516,-0.017949,0.60702401
6.5649,2273.7477,0.52195,-5.15008,10.01046,-1.48818,-5.70056,-2.61567,15.7,2.2,-36.1,13.615818,-19.096153,74.777954,0.789939886216894,0.192893,-0.05988,0.57896602
6.5714,2273.7677,3.83563,-5.8109,9.24908,-2.00742,-7.19963,-2.97547,9.0,5.5,-38.2,11.382765,-24.525984,71.018021,0.8037637333105544,0.201645,-0.115759,0.54763401
6.5955,2273.7877,7.54197,-6.65848,9.57949,-2.74656,-7.49406,-3.87161,3.8,8.3,-38.5,9.288852,-31.377075,66.399574,0.8149370136275441,0.212809,-0.18284,0.50710899
6.6193,2273.8078,9.76625,-7.52521,11.65772,-3.23098,-6.08541,-4.83006,-1.4,11.6,-38.8,7.722267,-38.121914,60.470924,0.8258137133722592,0.219063,-0.249458,0.45586601
6.6367,2273.8278,9.62259,-8.02082,15.06957,-2.55292,-4.37743,-4.98338,-6.6,13.0,-37.7,7.252651,-43.072968,53.7094,0.8386948401755192,0.21798401,-0.30027199,0.39863601
6.6542,2273.8478,9.74709,-8.01124,18.40958,-1.09478,-3.53199,-4.94062,-9.9,13.6,-37.4,9.035234,-46.837757,47.845024,0.8488832923680381,0.226734,-0.33287001,0.342325
6.6718,2273.8678,10.02483,-7.79815,19.32419,0.84655,-3.26321,-5.05363,-12.5,13.7,-35.7,12.841393,-49.944485,43.506363,0.8541744053535084,0.24963699,-0.35208601,0.290005
6.6927,2273.8879,10.63058,-7.50845,17.27948,1.80438,-3.92967,-5.26622,-16.4,10.6,-36.6,18.235374,-53.095543,40.849014,0.852446724677607,0.28684399,-0.36408499,0.241862
6.7174,2273.9079,11.31295,-6.96016,14.56677,1.78728,-5.01639,-5.75124,-19.7,7.3,-34.3,24.489998,-57.214561,38.946362,0.8427257322659845,0.33153501,-0.37907201,0.19026899
6.7404,2273.9279,11.1645,-6.17005,12.63698,1.34562,-5.62237,-6.15197,-22.9,3.6,-34.3,31.276657,-62.287254,37.050182,0.8257800488065934,0.37699601,-0.39893201,0.12967101
6.7513,2273.948,9.6609,-5.07107,12.41192,1.10555,-5.26685,-5.8893,-27.1,0.3,-30.2,38.249569,-67.505981,35.072601,0.8038920614278883,0.41791499,-0.41847399,0.06312
6.7792,2273.968,7.48929,-3.77577,12.42389,1.51605,-4.19967,-4.96934,-29.5,-4.4,-27.8,44.816437,-72.444809,33.890396,0.7790875737309894,0.45339999,-0.43295199,0.001891
6.8005,2273.988,5.3129,-2.39427,12.63938,2.04934,-3.59735,-4.09397,-29.1,-6.9,-27.0,50.526783,-77.427643,34.56337,0.7530881172054169,0.48600101,-0.44115099,-0.045245
6.8167,2274.008,3.07664,-1.46769,12.13897,2.96686,-4.25831,-3.29923,-30.7,-11.4,-22.0,55.352077,-84.10762,37.755302,0.7228550536401883,0.51825398,-0.4497,-0.081629
6.836,2274.0281,1.23545,-0.85236,10.8317,3.85628,-5.65353,-2.10438,-33.1,-14.2,-16.7,58.833153,-94.928795,44.280491,0.6818598613043737,0.54946101,-0.46938801,-0.11329
6.8539,2274.0481,0.05746,-0.51237,9.84765,4.28938,-5.28884,-1.18014,-33.5,-16.5,-13.1,59.348385,-103.766914,48.840149,0.6493603509625757,0.56085598,-0.496086,-0.13293
6.8767,2274.0681,-0.8356,-0.60815,9.68245,4.81473,-3.93638,-0.30721,-34.2,-18.1,-8.1,58.619217,-111.106079,52.984123,0.6215177962036321,0.56858802,-0.52006,-0.14128301
6.8966,2274.0882,-1.64008,-1.5467,9.60822,5.97598,-3.53749,0.75081,-34.5,-17.7,-2.5,56.674828,-116.944397,57.173187,0.5977383037540421,0.576931,-0.54001898,-0.135052
6.9178,2274.1082,-1.89387,-3.012,7.5276,7.04866,-4.17645,1.68971,-34.9,-16.9,0.1,53.023449,-122.759842,61.702801,0.5689203693920264,0.58638,-0.56470799,-0.116589
6.933,2274.1282,-0.7949,-4.6425,3.75183,7.20504,-4.01213,2.46367,-35.5,-14.4,7.6,47.823559,-128.192413,65.471329,0.5331029490942052,0.59363198,-0.59596097,-0.090735
6.9539,2274.1482,2.6337,-5.19318,-0.13887,6.7811,-1.87166,2.87234,-36.2,-11.9,9.1,41.177792,-130.777679,67.272079,0.5016800427572532,0.59336102,-0.62746799,-0.050237
6.9737,2274.1683,6.28258,-5.06868,-2.91144,5.75485,-0.02135,2.20467,-36.5,-9.2,11.5,32.916878,-130.004364,68.502686,0.479507573758517,0.58816302,-0.65106499,0.015847
6.9926,2274.1883,8.09504,-5.18121,-3.79253,5.08412,0.87846,1.44658,-37.4,-7.3,11.5,25.28368,-129.198029,71.017563,0.4555424632764763,0.58837801,-0.66297799,0.082174
7.0141,2274.2083,8.54038,-5.65049,-4.32645,4.93507,0.67626,1.28837,-37.4,-4.2,13.9,18.019283,-127.870033,73.991119,0.431255983985799,0.58884001,-0.66719401,0.14878801
7.0326,2274.2284,9.44063,-5.92104,-4.99446,4.74203,0.49666,1.13871,-37.7,-2.3,13.3,11.304849,-126.998161,77.254456,0.40192224073302957,0.59027702,-0.66830301,0.208333
7.0584,2274.2484,11.35605,-5.87555,-5.54993,4.48425,0.69092,0.54067,-37.4,-0.1,12.5,5.420661,-126.229774,80.743393,0.3714483459710906,0.59337699,-0.66490197,0.260452
7.0791,2274.2684,13.39836,-5.75823,-5.5188,4.07191,1.69518,-0.64563,-37.7,2.4,12.0,0.860513,-124.862053,84.598602,0.34678888263062785,0.599141,-0.65329802,0.30654401
7.0953,2274.2884,14.33931,-6.37595,-4.18998,3.90454,2.87843,-1.88141,-40.6,0.5,10.6,-1.831752,-122.086159,88.95787,0.3356040154239807,0.60745502,-0.62965,0.34915501
7.1112,2274.3085,13.71441,-7.83167,-2.02316,4.45309,3.59375,-2.41653,-39.8,0.3,6.3,-3.037631,-117.956329,94.163673,0.33418240116406467,0.61806101,-0.593355,0.39274999
7.1333,2274.3285,12.64656,-9.56273,-0.18436,5.3474,3.60353,-2.23022,-40.3,-1.1,5.0,-3.763148,-113.154007,100.249359,0.33191748453990627,0.62858701,-0.54868603,0.44005999
7.1541,2274.3485,12.01447,-10.83649,0.70152,6.13603,3.06719,-1.72259,-39.2,-1.8,2.9,-4.261982,-108.540695,107.168839,0.3221327052054791,0.639925,-0.499044,0.487526
7.1764,2274.3686,11.93785,-11.33689,0.01197,6.45062,2.52962,-1.22107,-40.0,-1.5,2.1,-4.644494,-104.629028,114.75293,0.3023005710837463,0.65262198,-0.447157,0.53174198
7.1934,2274.3886,12.60586,-10.91311,-1.66642,6.03218,2.84911,-0.75192,-39.2,-1.8,1.8,-5.043471,-101.051155,122.348663,0.2764679570698184,0.662121,-0.39631701,0.57279497
7.2139,2274.4085,13.72638,-10.04638,-2.80848,4.85871,3.16309,-0.58027,-39.2,-2.4,-0.1,-5.320226,-97.015465,129.229614,0.2523110712089334,0.66281098,-0.34854999,0.61280799
7.2339,2274.4285,14.91154,-9.14852,-2.48047,4.19103,2.89126,-0.77208,-39.0,-3.9,-1.6,-5.081278,-92.945595,134.987839,0.23367297170507217,0.65748298,-0.30546501,0.64792299
7.2553,2274.4485,16.05361,-8.60023,-1.17319,4.08291,2.50824,-1.13921,-39.0,-4.0,-2.1,-4.208093,-89.378929,140.163208,0.21776447100833438,0.65185601,-0.26396701,0.676745
7.2752,2274.4685,17.0616,-8.34405,-0.03591,4.1214,2.41295,-1.65906,-37.5,-5.3,-4.1,-2.578384,-86.281029,145.358856,0.20249920692629822,0.64772999,-0.21919701,0.70099401
7.2936,2274.4885,17.94509,-8.01124,0.40703,4.07619,2.63347,-2.20089,-37.8,-6.8,-6.6,-0.101613,-83.340576,150.354584,0.19053528729209052,0.64254898,-0.170726,0.72227401
7.3191,2274.5085,18.43352,-7.33127,0.24661,3.81108,2.70922,-2.87407,-36.9,-9.9,-8.0,3.225715,-80.403442,154.880173,0.18376081744376174,0.63445902,-0.119328,0.74125201
7.3379,2274.5285,18.12466,-6.45257,-0.00958,3.29123,2.5846,-3.51914,-35.6,-12.7,-10.2,7.450019,-77.646461,158.897507,0.1824068212147771,0.624286,-0.064796,0.75683302
7.3536,2274.5485,17.40638,-5.66964,0.2945,2.7781,2.41722,-4.08847,-33.1,-16.7,-8.9,12.376011,-75.168335,161.915573,0.18875302966861152,0.61226201,-0.01094,0.76771599
7.3757,2274.5685,16.12783,-5.09023,0.85954,2.46473,2.75076,-4.62236,-30.8,-20.8,-10.3,17.878519,-72.789444,163.976212,0.2021324421309937,0.59785002,0.042163,0.77455801
7.3932,2274.5885,13.94186,-4.67123,1.49642,2.10493,3.50701,-4.84838,-27.6,-24.7,-10.5,23.861626,-69.724472,165.103073,0.2212448273064016,0.57652801,0.095698,0.78070998
7.4132,2274.6085,11.48055,-4.04393,2.28653,1.95954,3.76418,-4.65107,-24.3,-27.2,-12.1,29.856956,-65.624557,165.532364,0.24074606559975084,0.54669398,0.148857,0.788041
7.4353,2274.6285,9.81413,-2.96651,2.36554,1.82882,3.62246,-4.38046,-21.3,-31.4,-13.4,35.533268,-61.095501,165.446686,0.25772057267517295,0.513403,0.199367,0.79388303
7.4617,2274.6485,8.97374,-1.97528,1.72627,1.43664,3.19425,-4.40917,-18.4,-34.6,-14.8,39.553787,-57.270351,165.148331,0.26753731312798135,0.48556399,0.23619901,0.79803598
7.4867,2274.6685,8.18603,-1.30967,1.03672,0.89053,2.90775,-4.65046,-14.8,-35.7,-13.4,42.436665,-53.915302,164.194412,0.27676038786744683,0.46294099,0.26142901,0.80046499
7.5008,2274.6885,7.18761,-1.1301,0.50998,0.29005,3.13438,-4.80501,-9.7,-37.0,-15.5,45.035007,-49.945812,162.060364,0.2902713038589242,0.43936101,0.28210899,0.801947
7.5175,2274.7085,5.70316,-1.0894,0.34717,-0.25423,3.62124,-4.81479,-6.1,-37.2,-15.0,47.108669,-44.83939,158.522552,0.3076385978298875,0.41232201,0.29780099,0.80415398
7.5459,2274.7285,4.28575,-0.76617,0.3352,-0.71788,3.8216,-4.62542,-1.9,-38.4,-16.5,48.413906,-38.63567,154.188416,0.32445924452303615,0.380523,0.30978501,0.80867898
7.5601,2274.7485,3.31846,-0.38548,0.43815,-1.18886,3.3152,-4.55334,2.5,-37.4,-16.2,48.81139,-32.147789,149.350418,0.3416026248282051,0.34810501,0.31628701,0.81369102
7.587,2274.7685,2.98805,-0.0431,0.77096,-1.42404,2.26207,-4.65474,6.1,-36.6,-17.1,48.391933,-26.26314,144.062897,0.3626098328370308,0.32025501,0.315745,0.81624502
7.5934,2274.7885,2.73426,-0.13647,0.60096,-1.66106,0.95848,-5.03836,9.9,-35.0,-17.1,48.263172,-19.642754,136.891205,0.3952272722259684,0.29278201,0.31748101,0.81072801
7.6139,2274.8084,1.98725,-0.76856,0.57463,-2.26764,0.62006,-5.09945,14.7,-33.7,-18.9,47.851799,-11.807165,127.662308,0.4384218965367033,0.262288,0.32059199,0.797629
7.6447,2274.8284,1.51558,-1.32882,1.10376,-2.78322,0.63105,-5.04692,18.3,-29.3,-21.2,45.937286,-4.504237,118.644958,0.4825821451019086,0.23006,0.31689799,0.78342998
7.6545,2274.8484,1.71909,-1.99922,2.01837,-3.09598,0.11426,-5.34685,19.8,-25.4,-22.4,42.766655,1.905384,110.311981,0.5269653081693517,0.19558001,0.30804101,0.76757199
7.6742,2274.8684,2.02556,-2.77736,3.12932,-3.24136,-0.70552,-5.78117,22.9,-21.8,-25.1,38.687912,6.939289,102.363266,0.5747628095411003,0.16276599,0.293403,0.74637097
7.6948,2274.8884,2.15485,-3.64648,4.27378,-3.2713,-1.42512,-6.07744,24.4,-17.2,-26.6,33.969398,10.389647,94.707176,0.6258066985996072,0.133394,0.27264801,0.71849501
7.7135,2274.9084,1.4629,-4.53955,5.50923,-3.19616,-1.68107,-5.87036,25.4,-12.1,-27.2,28.929394,12.362056,87.475082,0.6769511701988703,0.107344,0.247013,0.68498099
7.7336,2274.9284,1.47487,-5.00643,6.9434,-2.93471,-1.86128,-5.46169,25.0,-6.0,-29.6,23.631821,12.934134,81.184654,0.7235316357367103,0.082769,0.216105,0.65034598
7.7572,2274.9484,2.07823,-5.37994,8.35123,-2.54681,-1.74888,-5.43909,24.2,-2.1,-30.5,17.164362,11.579854,75.761826,0.7672255050365179,0.055933,0.16989499,0.61593199
7.7768,2274.9684,2.25541,-6.0216,9.75428,-2.02269,-1.65175,-5.4788,23.7,2.8,-32.0,11.365256,10.001415,70.198524,0.8060743992857855,0.030829,0.127685,0.57705301
7.7932,2274.9884,2.19555,-6.7734,11.32492,-1.46436,-2.26933,-5.40366,22.3,6.6,-31.4,6.600529,8.018403,64.431664,0.840429902034667,0.011375,0.08967,0.534329
7.8107,2275.0084,2.91862,-7.64253,13.2978,-0.95245,-3.19296,-5.45497,18.8,10.2,-34.1,2.88828,4.922556,58.522644,0.8707886508416608,0.000982,0.04976,0.48913199
7.8366,2275.0284,3.70155,-8.50925,15.25153,-0.20903,-3.51061,-5.76163,16.8,12.4,-34.7,0.37538,0.769574,52.294872,0.8976282548701326,-1.9e-05,0.007472,0.44069001
7.853,2275.0484,3.48128,-9.17007,16.61866,0.49469,-3.95349,-5.96321,13.0,14.8,-36.5,-0.593791,-3.699841,45.715237,0.9209153574535391,0.007767,-0.031758,0.38838899
7.8742,2275.0684,2.65046,-9.48851,17.71045,0.93879,-4.40919,-5.72253,8.3,15.7,-36.2,0.824662,-8.395037,39.106831,0.9399540854453158,0.03126,-0.06657,0.33328301
7.8948,2275.0884,2.96172,-9.37119,18.21564,1.44458,-4.90216,-5.13549,1.0,15.8,-36.9,3.215405,-13.322644,33.15546,0.9525171460918695,0.059792,-0.103184,0.280159
7.916,2275.1084,4.98727,-8.93783,17.83495,1.67549,-5.84961,-5.10617,-3.9,14.2,-38.6,6.504583,-18.815098,28.058496,0.9578303466715804,0.093861,-0.144757,0.229775
7.9333,2275.1284,6.99368,-8.48052,17.74636,1.5692,-5.80747,-5.61624,-8.3,12.0,-39.0,10.494877,-24.846846,23.21139,0.9565674327744489,0.130588,-0.19188499,0.176368
7.9622,2275.1484,8.64333,-8.02561,19.25236,1.73963,-5.58939,-6.10921,-12.4,10.3,-38.1,15.130669,-30.270203,18.211973,0.9502906871715622,0.16644999,-0.235448,0.1175
7.9912,2275.1684,9.53879,-7.38155,20.53091,3.08353,-5.55273,-6.72069,-16.8,6.6,-35.2,21.075518,-35.24205,13.387805,0.9370712586139006,0.20780601,-0.27526799,0.054237
7.9982,2275.1884,8.97135,-6.66566,19.72164,3.81108,-4.36704,-6.7213,-20.1,1.3,-35.8,28.79217,-39.526932,9.355661,0.9153658805894175,0.25990999,-0.30734801,-0.00945
8.0166,2275.2083,7.74069,-5.75823,17.36567,4.05237,-3.40738,-6.20023,-23.2,-4.8,-34.9,37.1059,-42.411762,6.280892,0.8888135439773968,0.31497699,-0.32615599,-0.0665
8.0345,2275.2283,5.83006,-4.54673,14.70324,4.09085,-3.64073,-5.53194,-23.3,-9.1,-31.1,45.253666,-44.733624,4.130672,0.8583088921996556,0.368211,-0.338195,-0.115545
8.0541,2275.2483,3.45494,-3.17481,12.66332,4.07497,-4.1227,-4.69139,-25.2,-14.5,-28.8,52.910606,-48.119381,3.100839,0.8221157103352301,0.416522,-0.353856,-0.15944
8.079,2275.2683,0.84039,-1.78134,11.00409,4.133,-3.72869,-3.36765,-25.9,-18.0,-25.3,59.761776,-53.493221,4.125217,0.7818592951023348,0.45865101,-0.37395301,-0.1962
8.094,2275.2883,-0.42618,-0.54111,9.28739,4.21364,-2.63035,-1.69632,-25.4,-20.6,-22.0,65.155128,-61.734131,9.161881,0.7430600243726475,0.49522901,-0.39403301,-0.21759599
8.1165,2275.3083,-0.44055,0.53632,8.74629,4.33092,-2.14349,-0.65296,-26.3,-24.4,-20.2,67.023254,-68.083328,14.142034,0.7236810256408689,0.51146901,-0.406876,-0.221669
8.1359,2275.3283,-0.60336,0.88349,9.05515,5.07007,-2.50207,-0.02805,-26.7,-25.8,-16.7,67.578468,-74.426048,19.657711,0.7095729291023439,0.52220601,-0.419642,-0.218421
8.1615,2275.3483,-1.16362,0.33759,8.29616,6.11831,-3.14776,0.72943,-27.6,-27.1,-14.0,67.522636,-83.899857,28.032619,0.6898732049769578,0.53561199,-0.43909699,-0.210686
8.178,2275.3683,-1.22587,-0.63927,5.90428,6.50377,-2.89669,1.56753,-28.0,-27.6,-4.3,66.186462,-95.737305,38.442093,0.6639882111734061,0.55040199,-0.46608901,-0.197328
8.1906,2275.3883,-0.48843,-1.63529,3.56508,6.31807,-1.96451,2.33356,-28.6,-25.6,1.6,63.252289,-105.160172,46.992916,0.640546614981158,0.56183499,-0.49314401,-0.175643
8.215,2275.4083,0.46449,-2.70074,2.32005,6.13908,-1.29806,2.79843,-31.6,-23.8,3.6,59.142712,-110.497009,52.407337,0.6238645558017214,0.56794298,-0.51695102,-0.144898
8.259,2275.4283,1.41502,-3.86197,2.39188,6.43108,-1.0867,3.2242,-33.6,-20.6,6.3,53.973701,-113.189941,55.983719,0.6110090455341062,0.56975299,-0.53961402,-0.104241
8.2615,2275.4483,2.85637,-5.24586,1.98725,7.19221,-0.92115,3.38791,-33.7,-17.4,10.7,47.237938,-117.747437,61.401291,0.5823483247507277,0.57851797,-0.56865501,-0.053093
8.2744,2275.4683,5.86358,-5.88034,-0.29928,7.54957,-0.39214,3.17289,-34.9,-12.4,13.1,39.185497,-122.155151,67.142014,0.5419277451206203,0.591102,-0.59737599,0.007394
8.2921,2275.4883,9.25866,-5.41106,-3.95774,6.97291,0.47651,2.04462,-36.0,-9.3,14.0,30.231895,-124.386604,72.151764,0.4998162664021242,0.60115802,-0.61853802,0.078762
8.311,2275.5083,11.15014,-5.23628,-6.13653,5.48912,0.66771,0.43194,-36.1,-7.1,15.6,21.863781,-124.614182,76.688576,0.4620487733453462,0.60847503,-0.62717801,0.151383
8.3342,2275.5283,12.19165,-5.97611,-5.68401,5.00348,0.68237,-0.4526,-37.2,-4.8,15.1,16.209852,-124.632797,81.127594,0.43060285834227685,0.61986101,-0.62340403,0.204257
8.3564,2275.5483,14.46142,-6.99368,-4.36476,5.48546,1.16434,-1.5998,-37.3,-3.2,16.0,11.8192,-124.432266,85.956123,0.4013192722539735,0.635032,-0.61110997,0.24944299
8.374,2275.5683,16.78626,-8.81333,-2.84919,6.34556,1.8088,-3.3988,-37.6,-3.4,14.6,8.588216,-123.463074,92.223022,0.3749359254150231,0.65754199,-0.58330601,0.29464501
8.3934,2275.5883,16.42951,-11.36083,-2.593,7.04377,2.2755,-4.45621,-37.9,-3.6,13.2,7.282796,-122.041428,100.413597,0.3521493235911432,0.690494,-0.53511101,0.33595401
8.411,2275.6083,15.34012,-12.91232,-4.78855,6.82386,3.90713,-3.81969,-38.1,-5.5,13.0,7.34417,-120.35302,109.502747,0.33181112224221626,0.72542697,-0.47365099,0.373245
8.4337,2275.6282,15.4742,-12.7543,-6.80213,5.70659,6.11357,-3.00846,-37.9,-4.0,11.3,7.369318,-116.211861,117.686745,0.3194873380330116,0.742625,-0.40930301,0.42297399
8.4533,2275.6482,15.62743,-11.64815,-6.71594,4.96072,5.61877,-2.62483,-38.5,-5.7,8.6,7.952206,-110.104897,123.912674,0.31882705403309136,0.74037099,-0.34938201,0.47763199
8.4726,2275.6682,15.55081,-10.51326,-5.44937,4.82267,3.72448,-2.59857,-38.2,-6.7,5.4,9.095125,-105.143745,129.377487,0.31594354765254995,0.73622203,-0.294882,0.52077001
8.4931,2275.6882,15.03605,-10.02722,-4.12294,4.70111,2.81551,-2.65232,-37.4,-7.7,6.0,10.728561,-102.292282,134.905792,0.3067348738666669,0.738563,-0.243132,0.548931
8.5148,2275.7082,14.47818,-9.62738,-2.61215,4.5038,3.24861,-2.50816,-37.2,-9.1,4.1,12.635961,-100.195457,140.11731,0.2968132222035924,0.74084002,-0.19369,0.57056302
8.5318,2275.7282,14.24833,-9.06233,-0.90025,4.56672,3.60353,-2.37194,-37.7,-10.2,4.0,14.62775,-97.668617,144.209961,0.29181672025135813,0.73630899,-0.149693,0.59184802
8.55,2275.7482,14.31297,-8.4901,0.04789,4.84649,3.43676,-2.4428,-36.6,-11.4,3.0,16.749432,-95.139954,150.154999,0.2757680800296138,0.73090899,-0.093091,0.61729902
8.5744,2275.7682,14.471,-7.86519,-0.24661,4.82022,3.21501,-2.63827,-35.6,-13.2,3.0,19.18404,-93.13588,158.434921,0.24569123127930206,0.72482699,-0.021422,0.64327502
8.5931,2275.7882,14.79901,-7.03917,-0.69434,4.43477,3.19669,-2.93454,-34.8,-15.2,2.6,22.058571,-91.546265,166.34166,0.21752635429873762,0.71422499,0.048858,0.663459
8.6107,2275.8082,15.44786,-5.94259,-0.94334,4.06275,3.16431,-3.53014,-34.2,-17.8,1.0,25.490454,-90.102348,173.542984,0.1947041149944697,0.69798201,0.116736,0.67917901
8.6334,2275.8282,15.50532,-5.07826,-1.41023,3.58139,3.41965,-4.3768,-32.7,-20.7,-0.8,29.818993,-88.781792,-179.709427,0.17824314179457118,0.67553002,0.185571,0.690979
8.6518,2275.8482,14.39677,-4.54433,-1.72627,2.98946,3.92851,-4.96017,-29.6,-24.3,-1.4,35.159107,-87.090843,-174.446091,0.1743619257371845,0.64537799,0.25048101,0.70024598
8.6721,2275.8682,12.57473,-4.14449,-1.73345,2.48366,4.08244,-5.10922,-26.5,-26.8,0.2,41.134388,-84.752357,-169.901962,0.1749963685451749,0.60574698,0.314051,0.70980197
8.6931,2275.8882,11.03042,-3.30649,-1.69994,2.0188,4.0238,-5.01332,-23.2,-30.4,-2.1,47.227276,-82.02433,-166.048203,0.17695068006080047,0.560112,0.37304401,0.71819299
8.7125,2275.9082,10.25947,-2.24344,-1.81247,1.43725,3.53572,-5.19841,-18.2,-34.8,-3.1,51.96999,-79.568169,-163.484421,0.1782480245279577,0.52088702,0.415815,0.72387999
8.7314,2275.9282,9.60344,-1.3384,-2.43258,0.73293,3.28588,-5.69871,-14.5,-36.7,-3.2,55.559471,-77.543648,-161.9431,0.18001228421721582,0.49015999,0.44581401,0.72704101
8.7532,2275.9482,8.47094,-0.85236,-2.89707,-0.21147,3.12522,-6.12937,-4.8,-39.5,-0.1,59.504272,-74.298676,-162.446045,0.1905889206998658,0.45779499,0.470911,0.72961801
8.7723,2275.9682,7.07269,-0.668,-2.87313,-0.94573,2.74587,-6.43419,-4.6,-39.2,-5.1,63.526329,-68.971008,-165.671707,0.20832694868115242,0.42352799,0.49055201,0.73251802
8.7919,2275.9882,5.36557,-1.01757,-2.78215,-1.5737,1.94075,-6.55025,0.2,-38.5,-4.2,67.301712,-61.398041,-172.148895,0.233240423516808,0.39136299,0.50445199,0.733459
8.8142,2276.0081,3.50043,-1.52755,-2.39906,-2.47412,1.04461,-6.47329,4.7,-38.6,-8.3,70.268402,-51.058899,177.49292,0.2641142438764675,0.363731,0.51147097,0.73235297
8.8316,2276.0281,2.42779,-2.01119,-1.11334,-3.24747,-0.13741,-6.48978,10.4,-36.8,-11.0,71.638916,-37.857574,162.797974,0.30242173209175777,0.34287101,0.50802201,0.72999603
8.8509,2276.0481,2.36075,-2.73666,0.38308,-3.5639,-1.17833,-6.66449,14.6,-34.5,-11.0,71.160416,-24.306171,146.189713,0.3483988066718366,0.32922199,0.494436,0.72509599
8.8765,2276.0681,2.70553,-3.96492,1.65923,-3.92798,-1.8851,-6.94487,18.0,-30.7,-14.9,68.933258,-6.68962,124.639282,0.4115790613809209,0.305044,0.47795999,0.713516
8.8987,2276.0881,2.87313,-5.15487,2.95214,-4.3061,-1.96695,-7.0194,21.6,-26.8,-19.3,64.075645,9.121822,104.330521,0.485003435919251,0.27112001,0.458985,0.69325203
8.9109,2276.1081,2.59061,-6.19159,4.52518,-4.44477,-2.04698,-6.93693,23.8,-20.5,-22.6,56.987839,17.396366,91.278252,0.555832824440082,0.23469099,0.430085,0.67156303
8.9333,2276.1281,2.37033,-7.00086,6.00005,-4.26456,-2.3182,-6.62967,26.3,-14.0,-24.7,47.592388,18.816269,84.087593,0.6261881631067452,0.195444,0.37765399,0.65350401
8.955,2276.1481,2.52117,-7.83646,7.4438,-4.11612,-2.89852,-6.46962,26.1,-6.4,-28.9,37.625816,18.137077,77.992256,0.6944880895160257,0.15361001,0.31634301,0.62770802
8.9743,2276.1682,2.73905,-8.61699,8.45179,-3.92492,-2.91746,-6.27598,24.4,0.0,-28.9,28.124289,16.429371,71.8927,0.7568690696722122,0.113323,0.25337601,0.591699
8.9953,2276.1882,2.58103,-9.47415,9.64414,-3.92553,-3.36706,-6.15197,21.2,5.6,-28.4,19.257864,14.108285,65.821693,0.8102635049620709,0.073575,0.19183999,0.54886901
9.0122,2276.2082,3.33283,-10.46537,10.81254,-3.73922,-4.882,-5.70054,17.8,11.1,-32.0,11.089154,10.437316,59.729027,0.8551938046872881,0.038362,0.126422,0.50118798
9.032,2276.2283,6.00245,-11.58111,12.43826,-3.70379,-4.72257,-5.8331,13.4,15.6,-33.2,3.957598,4.651917,53.605755,0.8906640704085126,0.012505,0.05176,0.45153299
9.0547,2276.2483,6.82608,-12.79979,15.977,-3.21754,-3.74946,-6.31202,9.0,19.3,-31.2,-1.738697,-0.749623,46.643211,0.9181324758565181,-0.011343,-0.012013,0.39592901
9.0748,2276.2683,6.66566,-13.47977,20.34176,-1.38983,-4.29741,-6.22039,4.2,22.6,-30.9,-4.582482,-5.617646,39.015343,0.9400574129625062,-0.021288,-0.059488,0.33511201
9.0922,2276.2883,7.4031,-13.68328,22.45351,0.45804,-3.87285,-6.08966,-1.3,23.3,-32.1,-4.540836,-11.112421,31.629704,0.9558297568210251,-0.011571,-0.10383,0.27472699
9.1148,2276.3084,8.66727,-13.74553,22.75519,1.6254,-2.70488,-6.36883,-4.8,22.5,-31.8,-2.046418,-15.595881,24.760403,0.9670403765463984,0.011804,-0.136297,0.214748
9.1331,2276.3284,9.23711,-13.61864,22.26197,2.63882,-2.58882,-6.59607,-8.1,20.8,-31.3,2.182139,-18.570637,18.187561,0.9748016339189219,0.044053,-0.156324,0.152918
9.1544,2276.3484,9.54119,-13.07992,21.0792,3.3963,-3.36889,-6.70114,-11.9,17.5,-35.4,7.836995,-21.210003,12.023918,0.9765453369430628,0.086031,-0.17556199,0.090199
9.176,2276.3685,9.91948,-12.05757,19.38165,3.89476,-3.9651,-6.94854,-16.9,12.9,-34.0,14.556528,-24.18955,6.310319,0.9699145247131006,0.13512801,-0.200708,0.02688
9.1921,2276.3885,9.42865,-10.73353,17.08794,4.07069,-4.15996,-7.09392,-19.0,7.6,-34.0,22.11639,-27.092554,0.721567,0.954394389703198,0.187914,-0.22870301,-0.038918
9.212,2276.4085,7.84604,-8.97853,13.95862,3.74266,-3.75984,-6.67548,-21.6,-0.1,-31.6,29.999983,-29.372841,-4.724289,0.9308683728217647,0.24005701,-0.25500101,-0.104073
9.234,2276.4286,6.16286,-6.84044,11.39675,3.12568,-3.23694,-5.93633,-23.7,-5.6,-29.0,37.268959,-30.567825,-10.021811,0.9032113708394507,0.28523299,-0.27575099,-0.163746
9.2594,2276.4486,4.52518,-4.74306,10.10384,2.86057,-3.57781,-5.1923,-24.4,-10.0,-28.4,43.622082,-30.994215,-15.188264,0.8736939439742271,0.32211599,-0.29320401,-0.216637
9.2869,2276.4686,3.82126,-2.56906,8.8253,3.0927,-4.49655,-4.4672,-25.7,-13.7,-24.6,49.450016,-32.061192,-19.792976,0.8401623562469577,0.352907,-0.316194,-0.26382801
9.2968,2276.4886,3.85718,-0.98644,6.46215,2.96564,-4.73173,-4.03777,-26.0,-17.5,-21.4,55.152218,-34.439167,-23.452427,0.8011436814436096,0.379619,-0.34679401,-0.30625501
9.3154,2276.5087,3.46452,0.34238,4.767,2.44823,-4.30413,-3.5619,-25.0,-21.2,-17.5,57.456684,-36.201351,-27.485741,0.774172825435574,0.37906799,-0.373182,-0.34307301
9.3328,2276.5287,2.33202,1.42699,4.74545,2.06461,-3.2681,-2.94309,-25.0,-23.4,-15.1,59.073349,-37.450134,-31.35936,0.7505546496660718,0.374028,-0.39509401,-0.37506199
9.356,2276.5487,1.13967,2.22907,6.7327,2.469,-2.56988,-2.1392,-24.2,-24.2,-10.1,60.159725,-38.091305,-34.525703,0.7325753361666224,0.36863199,-0.41025001,-0.398922
9.3794,2276.5687,-0.32802,2.20513,7.52521,3.75243,-2.67678,-1.16914,-25.8,-27.0,-8.9,61.572468,-39.992004,-35.716507,0.7147228244159968,0.36771899,-0.427113,-0.41416001
9.3949,2276.5888,-1.24981,2.08781,6.37356,4.70905,-2.15632,0.06236,-26.4,-27.1,-4.2,63.447117,-44.939625,-33.359894,0.6952607662971354,0.37214601,-0.450883,-0.41812
9.4195,2276.6088,-2.41582,1.47727,5.08065,4.71882,-1.88143,1.1833,-27.0,-28.7,-3.3,64.922188,-52.053947,-27.82407,0.6793220134420789,0.379132,-0.475335,-0.410898
9.4457,2276.6288,-2.56906,0.60096,4.05111,5.03342,-1.07448,2.37143,-27.6,-28.2,-0.6,65.244431,-60.465374,-20.244518,0.6686537190606509,0.38399199,-0.49934,-0.39511001
9.4668,2276.6489,-1.5874,-0.39266,3.54592,5.08106,0.00492,3.24558,-29.7,-25.0,3.1,64.33831,-69.239777,-10.983408,0.6644545503007256,0.39011499,-0.52063501,-0.36776301
9.4797,2276.6689,0.51237,-1.5036,3.67761,5.57892,0.56936,3.59988,-30.0,-22.5,5.7,62.121281,-79.930634,1.068101,0.6596031239793512,0.40054899,-0.54651898,-0.32527101
9.4916,2276.6889,2.6361,-2.60737,3.28734,6.30218,0.26698,3.58889,-33.8,-18.6,8.5,58.47385,-91.516106,14.361185,0.6477712948412264,0.416235,-0.57763797,-0.271063
9.5113,2276.7089,5.72711,-3.24424,1.66163,6.69253,0.41786,3.30117,-34.3,-14.8,10.6,53.589832,-101.380798,25.922867,0.6293136149806707,0.43322,-0.60900199,-0.213076
9.5318,2276.729,9.06712,-3.24424,-1.47248,6.29669,1.46366,2.40442,-35.8,-11.7,13.2,48.150314,-108.604851,35.501732,0.6083872971645282,0.452757,-0.63359201,-0.153092
9.55,2276.749,11.27943,-3.30649,-3.51719,5.08962,2.03849,1.28593,-37.0,-9.6,12.5,42.947914,-111.847786,42.295544,0.5956800890779035,0.46938199,-0.64488697,-0.094692
9.5773,2276.769,12.00489,-4.11097,-3.45015,4.67362,1.39464,0.79357,-37.0,-8.3,12.0,37.396812,-112.209801,46.768085,0.5904687995801808,0.47615501,-0.65071201,-0.034596
9.5958,2276.789,12.95303,-5.14051,-2.73187,5.04808,0.64205,0.70988,-37.9,-6.1,13.0,32.395432,-113.204453,51.142712,0.5773442976335688,0.48456299,-0.65692103,0.018084
9.6136,2276.809,14.90197,-5.94498,-3.17002,5.63756,-0.18934,0.15338,-37.9,-4.2,14.5,27.381771,-114.962395,55.907436,0.5549161268156115,0.49642399,-0.66402799,0.068543
9.6384,2276.8289,16.15417,-6.57468,-4.47011,5.39322,0.36472,-0.85333,-37.7,-2.7,13.7,22.871107,-117.142921,61.238007,0.5259921231444242,0.51494497,-0.66708601,0.114718
9.658,2276.849,15.4718,-7.14212,-4.85798,4.8807,1.51131,-1.51795,-38.3,-1.8,14.1,19.75539,-118.129166,66.592979,0.504090378224341,0.53760898,-0.65789998,0.155039
9.6822,2276.869,14.03045,-7.74548,-4.01759,4.76708,1.81491,-1.59003,-38.9,-2.7,13.0,18.644842,-118.194534,71.7761,0.4920697477920372,0.56374502,-0.63720202,0.184479
9.6929,2276.889,12.64417,-8.62897,-2.76539,5.30342,1.4374,-1.45381,-38.9,-2.0,12.2,17.620913,-118.062454,76.971603,0.47976597392691356,0.58900499,-0.614209,0.21364699
9.7149,2276.9091,12.14855,-9.75428,-1.34319,5.94666,0.91877,-1.49962,-38.3,-1.3,12.8,16.130436,-118.442764,82.694221,0.45999289023551176,0.61585599,-0.59117299,0.24421801
9.7334,2276.9291,12.56276,-11.13817,0.04789,6.73407,0.10021,-1.9315,-39.1,-1.8,12.6,14.309392,-119.520668,89.05394,0.4317004366890299,0.64582503,-0.567128,0.273698
9.7528,2276.9491,12.98655,-12.63459,0.0407,7.56851,-0.42635,-2.52282,-37.5,-1.3,10.6,12.32936,-121.548134,96.526222,0.3930904393660062,0.68235701,-0.538481,0.29984501
9.7785,2276.9691,13.4223,-13.51568,-2.73426,7.31866,0.8528,-2.58635,-38.5,-1.3,13.6,10.121806,-123.591408,104.871712,0.3486319884846757,0.72125,-0.50212097,0.32577401
9.8015,2276.9892,15.2204,-13.51329,-5.32966,5.88496,2.8827,-2.81359,-38.7,-2.1,11.9,8.162088,-123.269981,112.439285,0.3155372528414339,0.74832797,-0.45991099,0.35905901
9.8176,2277.0092,16.93231,-13.24992,-5.66007,4.86115,3.03176,-3.72073,-38.3,-2.8,12.0,7.720905,-120.790016,118.85144,0.30111382065023073,0.76379198,-0.41261101,0.39459401
9.8406,2277.0293,17.34652,-13.3002,-5.52359,4.33092,2.17715,-4.37191,-38.3,-2.9,12.5,8.940075,-118.565933,124.805969,0.2952893794259107,0.77801502,-0.361763,0.42026699
9.8573,2277.0494,16.87485,-12.79979,-5.50683,3.52458,1.78193,-4.47209,-38.3,-2.8,12.2,11.184457,-117.377548,130.102692,0.2936535847505679,0.79230797,-0.31274,0.43383101
9.8877,2277.0694,16.18769,-11.71279,-4.88911,2.64127,1.68663,-4.54967,-38.0,-4.4,10.9,14.047996,-116.63765,134.339249,0.29815955606278965,0.803348,-0.26851499,0.44003701
9.9063,2277.0895,15.41434,-10.34566,-3.78056,2.16052,1.61394,-4.75126,-36.6,-8.9,8.8,17.494696,-116.096916,137.894562,0.3083178803981362,0.81155902,-0.22614899,0.44177899
9.919,2277.1095,14.73676,-9.04318,-3.10298,1.91984,1.51009,-5.18925,-35.4,-13.5,7.9,21.423893,-115.90612,141.367188,0.3211418873332466,0.81858301,-0.18241701,0.43990201
9.9401,2277.1296,13.92031,-8.15251,-2.86116,1.58325,1.60783,-5.73475,-33.5,-18.0,6.6,25.99332,-116.178352,145.173752,0.3362955915146073,0.82479602,-0.134094,0.434322
9.9575,2277.1497,12.64177,-7.56112,-3.08861,1.23933,2.33781,-6.11532,-30.3,-22.1,7.3,31.216879,-116.639725,149.264252,0.3548312321073213,0.82775301,-0.080957,0.42704299
9.9813,2277.1697,10.93944,-7.05593,-3.32804,0.80928,3.56626,-6.2045,-26.0,-28.5,5.2,36.94091,-116.537506,153.654083,0.37605359626670215,0.82345599,-0.021602,0.424308
9.9943,2277.1898,9.40471,-6.13413,-3.60099,0.38351,4.28342,-6.02552,-22.0,-31.0,3.7,42.934879,-115.404922,158.15715,0.3979604803074293,0.80944401,0.042964,0.42963001
10.0182,2277.2099,8.33447,-4.86756,-4.46053,-0.08441,4.29564,-6.04079,-18.9,-34.5,1.0,48.922955,-113.751518,162.214355,0.4195139268501821,0.78812999,0.105714,0.43781701
10.0337,2277.2299,7.53957,-3.86436,-5.53556,-0.84799,4.34023,-6.06278,-14.1,-36.4,1.2,52.710892,-111.642975,165.539658,0.42770213748869645,0.76679301,0.15411299,0.453154
10.0544,2277.25,6.3975,-3.27058,-6.35919,-1.68977,4.71652,-5.9626,-8.7,-38.4,-2.0,56.492531,-108.760147,167.830048,0.43693638859156586,0.74128199,0.19816899,0.46937901
10.0799,2277.27,4.64968,-2.81806,-6.74946,-2.62989,5.28157,-5.68221,-5.0,-38.8,-4.6,60.436718,-104.169632,168.449387,0.4484831564420451,0.709378,0.239104,0.48833901
10.0946,2277.2901,3.0934,-2.18118,-6.75425,-3.56207,5.58884,-5.43665,0.5,-37.8,-7.0,64.292313,-96.938461,166.486984,0.46160024115953385,0.670937,0.27576101,0.51061201
10.1151,2277.3102,1.925,-1.6305,-6.6513,-4.56022,5.3335,-5.51056,4.4,-37.6,-9.4,67.897255,-86.382614,160.860229,0.47745372935695035,0.627554,0.30709299,0.53283
10.1363,2277.3302,0.84039,-2.03992,-6.1461,-5.40383,3.42393,-5.61685,8.9,-35.4,-13.0,71.114456,-71.624039,149.967453,0.49957615861602106,0.581949,0.33213899,0.54903799
10.1567,2277.3503,0.22985,-3.49804,-4.77897,-6.38915,0.763,-5.68832,13.2,-32.9,-16.3,73.134804,-53.529488,132.791122,0.5329895513870961,0.54442197,0.34260899,0.54967803
10.1967,2277.3704,0.24422,-5.37275,-1.66881,-6.84791,-1.27423,-5.72253,16.5,-27.2,-20.7,72.973221,-34.339165,111.461311,0.5776052076021817,0.51604599,0.335866,0.53596902
10.2126,2277.3904,-0.17478,-6.32567,2.41822,-5.75935,-1.96634,-5.3554,18.7,-22.7,-24.6,70.687721,-20.041487,93.037643,0.6257669763002837,0.49497899,0.31567901,0.513574
10.2158,2277.4105,0.32802,-6.74707,4.2666,-5.26211,-1.88815,-5.11106,19.3,-16.5,-26.1,66.002769,-8.154865,76.806908,0.6796116551296334,0.462789,0.29075399,0.48930201
10.2395,2277.4305,1.19714,-7.23789,5.47092,-5.19797,-1.10075,-5.28882,20.3,-7.9,-29.7,58.730141,0.374729,64.271011,0.7371326329879582,0.413726,0.26325399,0.46493399
10.2617,2277.4506,1.34798,-8.15011,7.05593,-4.75203,-0.35733,-5.48185,20.1,-3.0,-31.3,48.683681,5.867558,55.268341,0.7963268347364918,0.343054,0.232242,0.44072801
10.3015,2277.4706,1.11813,-9.08148,8.51883,-4.09474,-0.87839,-5.56493,19.6,3.2,-31.9,38.944378,9.627821,48.020245,0.8468049443044602,0.271238,0.207435,0.40782601
10.3031,2277.4906,0.62251,-9.68484,9.82131,-3.58223,-1.37808,-5.44764,17.9,7.8,-32.3,30.063879,11.328513,41.641167,0.8892073085618899,0.20735601,0.180834,0.365531
10.3183,2277.5107,0.84997,-10.40552,10.27862,-3.10575,-0.86556,-5.04081,17.0,12.9,-32.0,22.080126,11.721536,35.926239,0.9227399908074863,0.1503,0.15408599,0.31971601
10.3352,2277.5307,1.15404,-11.36323,10.79578,-2.94082,-0.204,-4.79646,15.3,16.0,-31.5,14.906042,12.021039,30.779312,0.9471377898761404,0.096821,0.13433801,0.27478901
10.3554,2277.5508,1.83641,-11.97856,12.27066,-2.36111,-0.65848,-4.59304,13.5,20.0,-31.2,8.317141,12.09339,26.016998,0.9646452917923043,0.046614,0.118598,0.23069701
10.378,2277.5708,4.41265,-12.24911,13.53962,-1.42221,-1.20215,-4.90764,11.2,21.9,-31.5,3.432745,11.212679,21.208151,0.9772431893174288,0.01133,0.101467,0.18593501
10.3948,2277.5909,6.28737,-12.6705,13.61864,-0.69589,-0.87473,-5.79645,8.6,24.3,-31.0,0.997202,10.070847,15.624452,0.9867541081221806,-0.003342,0.088132,0.136154
10.4181,2277.6109,5.22191,-13.61624,13.1733,-0.556,-0.60228,-5.86425,5.9,26.4,-31.0,-0.83707,9.223576,9.040417,0.9936817945735948,-0.013595,0.079578,0.077968
10.4372,2277.631,4.53955,-13.91074,13.7599,-0.53095,-0.80081,-5.10983,2.7,27.7,-30.4,-2.494901,8.305802,2.658596,0.9969061842575759,-0.023387,0.071878,0.021556
10.457,2277.651,6.42144,-13.69765,15.14139,0.14833,-1.15084,-5.06158,-0.4,28.1,-30.4,-3.701355,7.032605,-3.002402,0.997202464251869,-0.030617,0.062124,-0.028115
10.4817,2277.671,9.60822,-13.59469,16.73359,1.34257,-1.9358,-6.15564,-3.6,27.2,-29.9,-3.858556,5.061597,-9.083226,0.9952055374273195,-0.030033,0.046656,-0.080543
10.5268,2277.691,11.50928,-13.98496,17.79664,2.52581,-2.48253,-7.60766,-7.6,24.7,-31.3,-2.446134,2.237082,-16.651182,0.9889869289813692,-0.01829,0.022401,-0.14515001
10.5348,2277.7111,11.64336,-14.60029,18.09114,3.49404,-2.70244,-8.45066,-13.1,21.6,-30.8,0.6475,-0.828497,-25.629719,0.9750417235658995,0.003906,-0.008303,-0.22183201
10.5524,2277.7311,10.77424,-14.77507,17.58595,4.14522,-2.86798,-8.60459,-16.8,16.4,-34.2,5.231257,-3.503774,-35.17524,0.9513961598697989,0.034254,-0.042895,-0.303038
10.5668,2277.7511,9.08388,-13.99454,16.51331,4.37857,-2.83561,-8.26801,-17.8,11.0,-32.8,10.833536,-5.486758,-44.540726,0.9185051928125828,0.0692,-0.079829,-0.38103399
10.5783,2277.7712,6.96973,-12.40234,15.68968,4.51662,-2.83377,-7.59544,-22.6,5.0,-32.2,16.83057,-6.568591,-53.297413,0.8789375585625522,0.105167,-0.116185,-0.45045501
10.6,2277.7912,4.73588,-10.2882,14.21481,4.78418,-3.22717,-6.72741,-22.8,-1.5,-31.4,23.0676,-7.095801,-61.416042,0.8344858452900321,0.140617,-0.15404101,-0.51003098
10.6188,2277.8112,2.94496,-7.98012,12.61304,4.74081,-3.8808,-5.81538,-24.7,-7.1,-27.9,29.454304,-7.682896,-68.659065,0.7872781763515864,0.172921,-0.19655199,-0.55826402
10.6466,2277.8312,1.57783,-5.59063,10.14694,4.60825,-3.90095,-4.79768,-25.8,-12.8,-25.8,35.725079,-8.685897,-75.019791,0.7386983938866388,0.19873101,-0.24340799,-0.59630799
10.6549,2277.8513,0.99841,-3.3041,6.96255,3.61926,-2.89364,-3.67613,-25.3,-16.8,-22.5,41.541016,-9.462393,-80.375511,0.6929755333362209,0.220222,-0.28697401,-0.62364501
10.6779,2277.8713,1.17319,-1.07024,5.83724,2.47817,-2.05736,-2.45501,-26.0,-20.3,-21.3,44.479507,-9.654458,-84.547012,0.6610423639462903,0.226667,-0.31132701,-0.64398801
10.6983,2277.8913,1.68557,0.78293,6.16526,2.51543,-1.53507,-1.85514,-24.3,-21.5,-17.2,44.898994,-10.184271,-87.214569,0.6431921125809456,0.21883599,-0.321738,-0.65946901
10.7149,2277.9114,1.88669,1.90345,6.92664,3.11469,-0.96391,-1.33469,-24.6,-23.9,-16.6,45.63073,-10.705924,-88.97419,0.6293730960277059,0.215168,-0.33188701,-0.66891199
10.7365,2277.9314,1.94894,2.37273,7.2355,3.8123,-0.72873,-0.81423,-24.6,-26.3,-14.2,47.228226,-11.379813,-89.731613,0.6181954588105609,0.218428,-0.345579,-0.671341
10.7546,2277.9514,2.16921,2.51878,6.75664,4.52151,-0.64688,-0.46115,-25.0,-28.4,-10.1,49.735657,-12.611698,-89.508888,0.6078690197284442,0.22666,-0.36505499,-0.66772401
10.7771,2277.9714,2.14766,2.29611,5.07107,4.71577,-1.06898,-0.31699,-23.8,-29.7,-8.0,52.96368,-14.608937,-88.485001,0.5964660070001808,0.23745801,-0.39011601,-0.66003901
10.7985,2277.9915,1.93218,2.02077,3.93619,4.75731,-0.85946,0.11734,-24.1,-29.7,-3.9,56.279263,-17.735989,-86.56282,0.5844273750410225,0.246038,-0.41843301,-0.650249
10.8145,2278.0115,1.69754,1.5036,4.44377,5.20568,-0.1875,0.65734,-24.1,-30.0,-1.0,59.454529,-21.873529,-83.031654,0.5760614629248163,0.255346,-0.44607401,-0.63558602
10.8348,2278.0315,1.56107,0.49322,5.19318,6.37976,0.41542,1.1497,-24.7,-29.7,1.8,62.796799,-27.705822,-76.763123,0.5721905513543366,0.26962599,-0.47427401,-0.61234301
10.8567,2278.0516,1.1708,-1.31446,3.83563,7.3266,0.19734,1.49728,-25.9,-28.4,4.7,66.521751,-37.145462,-66.077934,0.5692218732995772,0.29061601,-0.506715,-0.578592
10.8852,2278.0716,0.70631,-3.15326,1.40544,7.4274,0.07639,2.1393,-26.2,-25.3,10.8,70.420547,-54.745586,-47.35487,0.5580205964912044,0.31806001,-0.549658,-0.53416002
10.9015,2278.0916,0.94574,-4.86996,-0.24661,7.18244,0.37999,2.80576,-27.6,-23.9,11.7,71.229347,-80.190468,-20.841002,0.5437916220142784,0.34341899,-0.59552699,-0.481354
10.9267,2278.1116,2.55948,-6.08625,-0.61054,7.28751,0.40198,3.10814,-30.2,-19.0,17.5,67.669762,-101.647598,2.068866,0.5324307650417273,0.36330301,-0.63746703,-0.422095
10.9353,2278.1316,5.54035,-6.59144,-2.06386,7.85989,0.34456,2.61944,-30.5,-14.1,19.4,61.569843,-115.933426,17.764145,0.5172024120170166,0.380667,-0.67763901,-0.358329
10.955,2278.1516,8.02322,-6.95058,-5.24825,7.53124,0.37449,1.32685,-32.0,-10.6,21.3,53.742489,-125.079178,28.760029,0.4980619798214675,0.39847299,-0.714957,-0.28633901
10.9893,2278.1716,8.62418,-7.70956,-7.4845,6.42436,0.46368,0.55594,-32.3,-6.4,21.2,44.32795,-130.075714,36.171783,0.47770302027360007,0.411991,-0.74868798,-0.203788
11.0006,2278.1916,8.83009,-8.39672,-8.16448,5.68765,0.33417,0.41727,-33.2,-3.3,23.7,36.150707,-133.0681,41.775845,0.4551494141763998,0.42634401,-0.770666,-0.130934
11.0151,2278.2116,9.47415,-9.08148,-7.47493,5.44697,-0.09404,0.09291,-33.3,1.2,23.5,28.717022,-135.179031,46.196457,0.429664109045007,0.438315,-0.78671098,-0.065989
11.039,2278.2316,10.40073,-9.87399,-6.25145,5.60519,0.40503,-0.64258,-34.5,3.8,21.6,21.877508,-136.90271,50.433594,0.4014484630899711,0.452122,-0.79648501,-0.006038
11.0575,2278.2517,11.19084,-10.6641,-5.39909,5.92345,1.34088,-1.22901,-34.2,6.2,22.2,15.510553,-137.447693,55.141987,0.37691575784124437,0.470761,-0.79580098,0.054949
11.0807,2278.2717,12.01447,-11.52843,-5.02558,6.07372,1.90715,-1.9199,-34.5,8.1,20.8,9.963798,-136.592102,60.5186,0.3588784547210093,0.49416101,-0.78330398,0.115957
11.0982,2278.2917,12.57713,-12.43826,-4.5156,6.18551,1.86989,-2.58085,-36.0,8.6,19.2,6.513623,-135.301193,66.670853,0.34605289918262455,0.52548701,-0.75958902,0.164728
11.1162,2278.3118,12.97458,-13.26428,-4.31688,6.1794,1.80453,-3.1459,-37.1,8.8,18.3,3.756801,-133.856415,73.394211,0.3320700634603174,0.55979103,-0.729599,0.209878
11.1363,2278.3318,13.54441,-13.76469,-4.32406,5.93811,2.30177,-3.5283,-37.7,9.1,16.1,1.688836,-132.022705,80.497879,0.31896917306930983,0.59481198,-0.69337201,0.25237399
11.1581,2278.3518,14.45184,-13.94426,-4.13012,5.57342,2.83261,-3.92292,-38.0,7.9,13.6,0.462895,-129.36467,87.656975,0.311032044265795,0.62722898,-0.650922,0.293502
11.1835,2278.3718,15.49096,-13.64258,-3.78535,5.25272,3.12094,-4.40306,-38.8,4.8,11.9,0.267562,-126.047424,94.858047,0.30841004736755895,0.65702599,-0.60211301,0.332656
11.1983,2278.3919,16.14459,-13.02007,-3.6369,4.76036,3.18386,-4.92291,-39.9,2.0,9.3,1.239667,-122.543892,102.026932,0.30975458835878295,0.68484902,-0.54762298,0.36761799
11.2204,2278.4119,16.02009,-12.27305,-3.21312,4.13422,3.16248,-5.38778,-38.8,-0.4,7.6,3.501622,-119.205788,108.903992,0.31548134309283604,0.71044701,-0.48865399,0.39617401
11.247,2278.4319,15.37124,-11.52364,-2.32724,3.64125,3.10567,-5.59303,-39.6,-4.3,4.9,6.908113,-116.221382,115.120735,0.32603442081507256,0.73234999,-0.42776099,0.417595
11.2635,2278.452,14.56916,-10.51565,-1.52036,3.38713,3.0568,-5.68527,-37.8,-9.8,3.3,11.024316,-113.676056,120.869583,0.33859712197607295,0.75068802,-0.365437,0.433907
11.2834,2278.472,13.53962,-9.18683,-1.20671,3.04994,3.02992,-5.78912,-36.7,-14.0,2.3,15.603675,-111.604324,126.515648,0.35083937408893967,0.76612997,-0.300594,0.44676599
11.2967,2278.492,12.19404,-7.74069,-1.44614,2.59668,2.94929,-5.86792,-34.8,-18.6,0.3,20.638529,-109.948524,131.817612,0.3644048885750019,0.77744102,-0.235,0.455598
11.3162,2278.512,10.74551,-6.36877,-1.59938,1.91984,2.77397,-5.70726,-31.3,-22.7,0.3,26.040386,-108.666992,136.647156,0.3799200241216294,0.78408402,-0.170293,0.46029699
11.3374,2278.5321,9.7447,-4.88193,-1.70712,1.43053,2.39768,-5.56004,-29.3,-27.2,-1.8,31.548794,-107.808525,140.823822,0.39702694709271275,0.78629398,-0.109807,0.460493
11.356,2278.5521,8.43503,-3.78535,-1.83162,0.61503,2.21564,-5.40488,-24.8,-30.0,-2.2,36.285313,-107.247887,144.414795,0.4109376001796622,0.784949,-0.057954,0.46002901
11.3796,2278.5721,6.71594,-2.6744,-1.6305,-0.01294,2.46671,-5.03958,-22.2,-32.5,-2.9,39.337685,-106.026749,146.900299,0.419092297701616,0.77869099,-0.020146,0.466472
11.3978,2278.5922,5.435,-1.26897,-1.36474,-0.6794,1.84484,-4.692,-17.4,-34.3,-2.9,42.160206,-104.209526,148.387329,0.429208290178929,0.76865798,0.012,0.474132
11.4168,2278.6122,5.03755,0.13647,-1.2953,-1.45886,0.76667,-4.67612,-16.5,-36.8,-5.3,44.903442,-102.54203,148.760284,0.4426139422952693,0.75869,0.035983,0.47664201
11.4354,2278.6322,5.45416,1.03912,-1.2546,-2.36355,0.02935,-5.0964,-12.9,-37.7,-6.2,48.020847,-101.099411,147.693634,0.46327687900986364,0.74944401,0.052107,0.470099
11.4591,2278.6522,5.63133,0.70392,-0.93616,-3.25053,0.19856,-5.60952,-9.1,-39.3,-8.9,51.934841,-99.007286,145.018585,0.49304993586591195,0.737526,0.065721,0.45676899
11.4975,2278.6723,4.99206,-0.39506,-0.25858,-4.08924,1.41724,-5.80072,-4.6,-38.5,-12.7,56.376747,-94.385963,140.032776,0.5303781367983781,0.71740103,0.080677,0.44443899
11.5218,2278.6923,3.87873,-1.57543,0.96489,-4.61215,2.33842,-6.02674,2.9,-35.6,-14.5,60.495819,-85.351074,131.587418,0.571847386139641,0.68592799,0.097698,0.43925899
11.5228,2278.7124,2.93538,-2.52117,1.78134,-4.70439,2.19548,-6.26254,7.4,-34.0,-19.8,64.477982,-70.999916,118.462624,0.6184448961454849,0.64420998,0.12189,0.4332
11.5519,2278.7325,2.49005,-3.68479,1.89866,-4.9695,1.22848,-6.64188,12.5,-29.9,-22.8,67.94973,-50.005344,98.206985,0.6705865025868767,0.59652197,0.153358,0.41346899
11.5681,2278.7525,2.04232,-5.42782,2.16203,-5.43742,0.06356,-6.96198,16.4,-25.3,-25.8,67.995811,-24.78804,72.329521,0.7245407269544064,0.54591101,0.17862,0.38094199
11.5893,2278.7726,1.59938,-7.26662,2.84919,-5.79661,-0.25592,-6.88073,18.3,-19.3,-27.9,63.729778,-4.07585,49.716667,0.7780118836772353,0.4914,0.194381,0.339764
11.6085,2278.7926,1.26657,-8.81572,4.41504,-5.84426,-0.42452,-6.66571,23.0,-13.2,-30.0,54.818993,5.948,37.121815,0.8328276479002603,0.42115399,0.19,0.30484
11.6204,2278.8127,0.60575,-9.74709,6.20117,-5.28898,-1.57173,-6.43358,21.4,-7.5,-30.9,43.731415,10.256314,29.32975,0.8858042114983422,0.33785701,0.174161,0.26621699
11.6377,2278.8327,-0.04789,-9.81174,7.06551,-4.61215,-3.47518,-5.54721,19.1,-0.7,-31.6,33.214348,11.360003,22.973845,0.9288484126024009,0.259821,0.149582,0.217621
11.6621,2278.8528,0.46688,-9.51964,7.18522,-4.73798,-3.50267,-4.85571,16.5,5.4,-32.8,23.762751,9.301358,17.822191,0.9609955357929608,0.190441,0.110173,0.167576
11.6786,2278.8728,1.19235,-9.41908,8.25067,-4.93896,-1.49781,-4.46048,13.0,9.9,-35.8,14.739654,6.903101,13.494386,0.9821764518323579,0.120139,0.074337,0.123976
11.698,2278.8928,1.19235,-9.48133,11.21239,-4.08986,-0.3671,-4.04204,11.9,14.8,-32.3,6.28114,6.06899,9.494208,0.9934376952335763,0.050147,0.057204,0.085408
11.7161,2278.9128,2.23146,-9.45499,12.81895,-2.47839,-0.40864,-3.75616,10.7,19.4,-31.4,-0.342887,5.449736,5.835788,0.9975770840762131,-0.005405,0.047326,0.050705
11.7362,2278.9329,4.41983,-9.59386,12.05039,-1.78934,-0.07083,-3.98218,9.3,21.4,-31.8,-4.910449,4.477782,2.126992,0.9981784245784918,-0.043523,0.038229,0.016856
11.7612,2278.9529,5.70795,-9.74709,11.17408,-1.47413,-0.18017,-4.32915,6.9,24.1,-31.8,-8.437978,3.394685,-2.039982,0.996655822180857,-0.072999,0.030844,-0.019924
11.7803,2278.9729,6.17962,-9.75667,10.64734,-1.29393,-0.26142,-4.36091,3.7,26.5,-28.8,-10.792685,2.096614,-6.642198,0.9936299237110363,-0.092816,0.023631,-0.059383
11.7973,2278.993,6.99607,-9.76625,10.65213,-1.00926,-0.41414,-4.33892,3.1,27.4,-30.3,-12.381351,0.706181,-11.324236,0.9892336310311128,-0.106705,0.016736,-0.098746
11.8183,2279.0131,8.72953,-9.94582,10.98972,-0.59998,-0.8112,-4.60343,-0.3,28.3,-30.6,-13.422935,-1.028412,-16.030148,0.9835522669275486,-0.116966,0.007469,-0.13743401
11.8383,2279.0331,10.49171,-10.37918,11.94504,-0.17299,-1.23025,-5.30226,-2.6,28.2,-28.0,-13.790778,-3.408699,-21.223452,0.9760142590403073,-0.123389,-0.006923,-0.17923
11.8618,2279.0532,11.4183,-10.98014,13.62103,0.54172,-1.52347,-6.00536,-6.4,27.7,-26.6,-13.266628,-6.42301,-27.193541,0.9654726908871426,-0.125183,-0.026974,-0.22685701
11.8826,2279.0732,11.53322,-11.55477,15.0145,1.45191,-1.68718,-6.40731,-9.2,26.4,-29.5,-11.397261,-9.745031,-33.673943,0.9514036432114814,-0.119177,-0.052239,-0.27910399
11.8998,2279.0933,11.29858,-11.80138,15.92911,2.21611,-1.73299,-6.51177,-12.7,23.9,-29.8,-8.093587,-12.889761,-40.080025,0.933903427435835,-0.104248,-0.081158,-0.33221999
11.9177,2279.1134,11.09746,-11.56674,16.06079,2.96197,-1.71589,-6.42381,-16.1,20.8,-31.2,-3.59338,-15.544686,-46.054035,0.913075919768997,-0.081464,-0.112249,-0.383479
11.9493,2279.1334,10.91789,-10.91789,14.92352,3.27168,-1.66885,-6.39509,-18.1,16.3,-30.1,1.905342,-17.601469,-51.448395,0.8890597600482433,-0.051596,-0.14494801,-0.431162
11.9676,2279.1535,10.27144,-9.79737,14.12143,3.20876,-1.76781,-6.26865,-20.7,11.5,-30.1,7.740655,-19.010788,-56.57613,0.8612224251353653,-0.019461,-0.176636,-0.47614801
11.9857,2279.1735,9.23951,-8.3656,14.14298,3.47082,-2.21924,-6.08477,-22.3,7.2,-28.3,13.630493,-20.117001,-61.512234,0.8295655238678376,0.011726,-0.208781,-0.51777798
12.0031,2279.1936,7.83167,-6.85481,13.96581,4.04687,-2.82522,-5.72314,-24.0,-0.7,-26.9,19.930531,-21.331894,-66.056419,0.7940290998710311,0.043222,-0.245525,-0.554407
12.0176,2279.2137,6.31131,-5.53077,12.47417,4.33459,-3.27115,-5.27843,-25.7,-6.2,-26.3,26.771692,-22.921495,-70.073456,0.754249335495511,0.074802,-0.28852901,-0.585033
12.0375,2279.2337,4.8939,-4.14449,10.2882,4.01266,-3.0433,-4.55761,-25.6,-11.5,-24.5,33.620487,-24.708933,-73.494164,0.7122601777888328,0.103829,-0.33313501,-0.60903698
12.0606,2279.2538,3.70873,-2.6361,9.05754,3.64553,-2.397,-3.64437,-25.8,-15.3,-22.8,39.783615,-26.0842,-76.178345,0.6736359717740725,0.129977,-0.371494,-0.62554997
12.082,2279.2739,2.78694,-1.27615,9.33767,3.83307,-2.36707,-2.85146,-27.4,-19.0,-19.6,44.337635,-27.302002,-77.902115,0.6438640422023728,0.14775901,-0.40048599,-0.63499397
12.0999,2279.2939,1.99683,-0.32562,10.02722,4.8697,-2.95656,-2.20212,-27.1,-23.1,-16.6,47.340782,-29.430971,-78.400612,0.6220083709456002,0.153872,-0.42571199,-0.63890398
12.119,2279.3139,1.45093,-0.06225,8.39193,5.79333,-3.58086,-1.69998,-26.9,-25.2,-12.7,51.102444,-33.524933,-77.115662,0.5979885243729515,0.160767,-0.46088901,-0.63572401
12.1413,2279.3339,1.36953,0.14126,5.09502,5.5948,-3.35545,-1.33041,-26.3,-27.3,-6.2,55.068459,-39.5839,-73.87693,0.5728142067591196,0.167224,-0.501387,-0.62652302
12.1618,2279.354,1.2546,0.55787,3.32804,4.72126,-2.678,-1.06041,-25.5,-28.9,-4.1,58.157082,-45.796078,-70.075104,0.5506174900991789,0.17134701,-0.53546101,-0.61704302
12.1812,2279.374,0.73265,0.63448,3.83084,4.98821,-2.24123,-0.59859,-24.9,-30.4,0.0,60.208622,-51.426727,-66.184807,0.534194439385323,0.173668,-0.56120002,-0.60789001
12.1989,2279.394,0.52913,0.3783,3.39029,5.72247,-2.29927,-0.05187,-24.6,-29.9,3.8,61.938923,-58.646011,-60.234303,0.5202070548684234,0.17738,-0.58834797,-0.59310001
12.2177,2279.4141,0.64167,0.0,1.61614,5.93994,-2.13678,0.09901,-24.4,-27.9,9.1,63.713184,-69.976692,-50.001976,0.5027527070693892,0.18605,-0.62415302,-0.56838202
12.2674,2279.4341,0.58181,-0.55787,0.28013,5.58014,-1.54668,0.42827,-26.1,-27.8,11.1,64.947556,-86.149818,-34.914928,0.4778530724422301,0.201281,-0.66728503,-0.53467101
12.2701,2279.4541,0.96968,-1.40065,0.84039,5.64611,-0.41719,0.90169,-25.3,-25.0,16.1,63.916584,-100.821648,-20.557291,0.45922684378664,0.215232,-0.70352697,-0.49783099
12.2812,2279.4741,1.93218,-2.60737,1.40305,6.50133,1.09409,1.33907,-25.9,-21.3,16.7,60.845272,-112.482658,-7.750542,0.4496356179084786,0.23229399,-0.73429298,-0.45241699
12.3,2279.4942,2.59779,-3.96252,-0.30886,7.10608,1.7129,1.35129,-28.2,-17.5,20.0,55.976349,-120.932892,3.796926,0.4485701156983146,0.25665399,-0.76022202,-0.39366999
12.317,2279.5142,2.93059,-5.24825,-2.40385,6.84524,1.36837,1.58464,-29.1,-12.6,25.0,50.124638,-126.818504,13.261838,0.4464996194063095,0.28187999,-0.78271902,-0.32944301
12.3379,2279.5343,3.76859,-6.62735,-3.13171,6.68214,0.34028,1.79172,-29.6,-9.1,24.2,43.78204,-130.777054,20.01021,0.43944952061512105,0.29947701,-0.80379099,-0.26667899
12.3595,2279.5543,6.6513,-7.60182,-3.94576,7.17083,0.02447,1.50156,-31.4,-4.1,23.2,36.472313,-134.06752,25.316832,0.4247250652436466,0.31077,-0.82647699,-0.19991601
12.3783,2279.5744,9.73273,-7.92984,-6.46454,6.98085,0.13809,0.0196,-31.7,-1.0,23.8,26.673538,-136.204315,30.405045,0.40632221991901823,0.31977001,-0.84867197,-0.111379
12.4004,2279.5944,10.51326,-8.31053,-9.10303,5.85564,1.26147,-1.10317,-31.4,3.3,23.3,18.848116,-137.477127,36.012531,0.387380857846279,0.34066099,-0.85597497,-0.03454
12.4204,2279.6144,10.22116,-8.83248,-10.46298,4.76341,1.62127,-1.20457,-32.3,4.9,23.7,12.995433,-136.944122,41.231747,0.37831679682890057,0.364301,-0.85045302,0.029847
12.4402,2279.6345,10.77903,-9.2826,-10.12299,4.18187,0.94748,-1.21618,-32.9,6.3,23.2,8.345909,-135.874771,45.493587,0.37156340637336666,0.38260299,-0.84185702,0.082658
12.4612,2279.6545,11.53083,-10.04398,-9.07191,3.99189,0.50949,-1.76779,-33.8,7.0,22.1,4.90062,-135.373657,49.688278,0.3608360784313008,0.40306601,-0.831918,0.123481
12.4829,2279.6745,12.35206,-10.73593,-7.03917,3.97723,0.98291,-2.30841,-34.6,7.6,21.3,3.197479,-135.029221,54.193253,0.35208090462236047,0.43020001,-0.81738001,0.15118501
12.505,2279.6946,13.44385,-11.51407,-4.67123,4.52884,1.09104,-3.16362,-34.9,7.6,21.3,1.960987,-134.046585,59.244984,0.3470767919160535,0.46080899,-0.79691398,0.179223
12.5244,2279.7146,14.36565,-12.62741,-3.41424,5.33641,1.16617,-4.12451,-36.1,7.6,20.2,1.062545,-132.994232,65.527649,0.3399401703950556,0.49937001,-0.76911098,0.20865899
12.5593,2279.7346,15.07435,-13.7168,-3.70873,5.60763,2.10141,-4.77936,-36.9,5.8,17.7,0.507083,-131.561798,73.108864,0.33193426813403804,0.54461801,-0.73149902,0.241081
12.5746,2279.7546,15.84292,-14.3034,-4.60898,5.34557,3.58337,-5.24178,-37.7,4.1,15.0,0.663662,-128.809296,81.193779,0.33142423822071165,0.58876503,-0.68315399,0.277154
12.5899,2279.7747,16.52768,-14.35128,-5.32487,4.93995,4.64688,-5.64556,-37.9,1.2,12.2,1.981519,-124.526131,89.283806,0.3418517804873306,0.62756503,-0.62400597,0.31609499
12.6017,2279.7947,16.59711,-14.02327,-5.60739,4.56427,4.86313,-6.09577,-38.2,-2.2,9.1,4.631163,-119.538223,97.016335,0.3594434825874008,0.66013098,-0.55670798,0.35370001
12.6184,2279.8147,15.67532,-13.45582,-5.82288,4.15499,4.49661,-6.32362,-38.8,-5.8,8.0,8.580153,-114.935272,104.301201,0.37884934573312845,0.68854302,-0.48409301,0.384754
12.6411,2279.8348,14.04003,-12.41192,-5.60979,3.21243,3.67561,-5.9962,-37.7,-10.2,4.4,13.425402,-111.327492,110.922203,0.397113904050059,0.71291602,-0.41064599,0.40672001
12.6634,2279.8548,12.60586,-10.87001,-4.71433,2.48366,3.23212,-5.50812,-37.2,-15.3,2.9,18.56045,-108.844368,116.183144,0.4148392514698669,0.73098302,-0.34461999,0.418102
12.6803,2279.8748,11.67688,-9.02163,-3.85718,1.89601,3.04275,-5.23567,-34.4,-18.5,1.6,23.64925,-106.939186,120.561699,0.4318345610950794,0.74350899,-0.283968,0.424353
12.698,2279.8948,10.96338,-7.22592,-3.14847,1.25094,2.95295,-5.10922,-32.1,-22.8,0.2,28.818949,-105.231133,124.157051,0.4500804585770405,0.75074703,-0.226862,0.42701301
12.721,2279.9149,10.50368,-5.71753,-2.39427,0.72315,2.78619,-5.11411,-30.1,-27.0,-1.9,34.162094,-103.513039,127.060043,0.4702434033330397,0.75308299,-0.17187101,0.426846
12.7395,2279.9349,9.77582,-4.73588,-1.74303,0.31387,2.83322,-5.1306,-25.1,-29.2,-2.0,39.737488,-101.854057,129.248993,0.49243732068069324,0.75149101,-0.119343,0.422521
12.7581,2279.9549,8.56193,-3.94337,-1.06306,-0.14733,3.60536,-4.95895,-23.3,-32.6,-3.6,43.666904,-99.784912,131.148636,0.5062790243965274,0.74550498,-0.075433,0.42686501
12.7901,2279.975,7.31212,-3.05988,-0.27295,-0.39351,4.06839,-4.79218,-16.5,-36.0,-7.8,46.379642,-96.414131,132.317535,0.5161476013957633,0.73291701,-0.036972,0.44165301
12.7982,2279.995,6.37595,-2.08781,0.11253,-0.51752,3.67561,-4.75431,-13.8,-36.9,-9.0,48.947865,-92.305679,132.860489,0.525962748214376,0.71638697,0.000577,0.458424
12.8183,2280.015,5.76302,-1.2953,-0.15802,-0.85227,2.9835,-4.86549,-10.3,-38.3,-12.0,51.508659,-88.166687,132.651413,0.5366376876945377,0.699193,0.034255,0.47114301
12.8396,2280.035,5.11417,-0.79011,-0.74941,-1.37761,2.6182,-5.01698,-6.7,-39.8,-12.6,54.140095,-83.823685,131.135971,0.5508475072090095,0.68161899,0.062312,0.477577
12.8619,2280.0551,4.1397,-0.85715,-1.0463,-2.08255,2.69456,-5.00843,-1.6,-39.2,-13.3,56.711384,-78.402664,127.889755,0.5692176336851309,0.66134501,0.086337,0.480791
12.8876,2280.0751,2.96172,-1.0463,-0.60336,-2.74045,2.89126,-4.94062,1.2,-37.9,-12.7,58.771889,-71.111305,122.653763,0.590470412789362,0.63608402,0.10714,0.485039
12.9033,2280.0951,2.21231,-1.25699,0.71589,-3.08987,2.28039,-4.962,5.7,-36.2,-15.7,60.670536,-61.153305,114.589043,0.6176846208689992,0.60438502,0.12866899,0.48644501
12.9239,2280.1151,2.20992,-1.42699,1.75979,-3.14363,0.99635,-5.27721,9.8,-35.1,-17.8,63.259853,-47.114136,101.665604,0.6554499209679102,0.56745201,0.157787,0.47274399
12.9379,2280.1351,3.02876,-1.93697,2.19555,-3.32322,-0.12275,-5.73719,12.8,-31.9,-20.4,64.372887,-31.87888,85.924477,0.6952217066053958,0.53322297,0.178987,0.44755301
12.9596,2280.1551,3.70634,-3.04552,2.2985,-3.83696,-0.30723,-6.3224,16.4,-28.6,-21.6,63.518909,-16.196812,68.566315,0.737304045321155,0.498041,0.194561,0.41289699
12.9816,2280.1751,3.41902,-4.64729,2.77975,-4.47287,0.03668,-6.70786,19.4,-23.7,-24.3,60.080193,-1.47095,51.944984,0.7809947299699529,0.45487699,0.20922901,0.37330601
12.998,2280.1951,2.91383,-6.21793,3.97689,-4.83511,0.06723,-6.70541,22.5,-18.0,-26.7,54.111198,9.632811,39.062477,0.8235896830998187,0.40217,0.222003,0.33267701
13.02,2280.2151,2.28653,-7.43422,6.0647,-4.47959,-0.73301,-6.59424,23.5,-12.0,-29.4,45.05558,14.087704,31.758415,0.8688855720503821,0.33473799,0.21298701,0.29601499
13.0585,2280.2351,2.27696,-8.25546,7.54197,-3.98967,-1.05554,-6.43785,22.8,-5.0,-28.8,35.411907,15.56244,26.061625,0.9102685542842947,0.26449099,0.193599,0.252933
13.0696,2280.2551,2.00161,-9.09585,8.78699,-3.7215,-1.11052,-6.30163,23.8,4.2,-30.0,26.267883,16.096418,20.606573,0.9430108451010624,0.19697601,0.17438699,0.203765
13.0898,2280.2751,1.55388,-9.73273,10.25947,-3.20227,-1.61326,-5.94305,21.5,8.3,-31.8,17.74674,15.673646,15.385168,0.9671797265729467,0.133402,0.153963,0.15186401
13.0991,2280.2951,1.58501,-10.47256,10.60185,-2.82964,-1.96207,-5.5014,18.9,13.8,-29.2,10.343312,14.0815,10.39727,0.9833520967911747,0.078031,0.12967999,0.100563
13.1185,2280.3151,2.05668,-11.35605,11.04958,-2.98785,-2.63341,-5.15748,15.7,17.8,-30.7,3.705866,11.552652,5.671459,0.9930234789001718,0.027154,0.102061,0.052446
13.1397,2280.3351,4.08224,-12.11742,12.25629,-2.74901,-3.29864,-5.20513,12.5,21.6,-30.1,-2.415615,7.739468,0.990442,0.9974734297759514,-0.021613,0.067289,0.007199
13.158,2280.3551,6.10061,-12.6705,14.49494,-2.06117,-3.43914,-5.87464,7.8,24.5,-31.9,-6.469698,3.226533,-4.300839,0.9972484300990401,-0.055312,0.030205,-0.039036
13.1805,2280.3751,6.76143,-13.06556,16.85809,-0.74842,-3.39027,-6.40304,2.5,26.9,-29.6,-8.568648,-1.63902,-10.67234,0.9928817062102615,-0.075701,-0.007254,-0.091666
13.2029,2280.3951,7.23789,-13.44146,18.16057,0.52401,-3.1783,-6.51544,-1.6,27.5,-29.3,-8.51292,-6.592147,-17.605768,0.9845177848150434,-0.082,-0.045322,-0.14814401
13.2244,2280.4151,8.46137,-13.66891,18.33057,1.52216,-3.3298,-6.73412,-6.0,25.6,-30.8,-6.446184,-11.242617,-24.35603,0.9724190976831955,-0.075325,-0.083794,-0.20422
13.2426,2280.4351,9.51006,-13.65934,17.82298,2.03651,-3.42998,-7.1544,-10.7,24.5,-29.3,-2.74854,-15.691458,-30.912201,0.9554104826280063,-0.059268,-0.1252,-0.26077399
13.2612,2280.4551,9.31373,-13.10147,17.07357,2.3114,-3.42753,-7.25214,-15.1,21.0,-30.2,2.069676,-19.675955,-37.426327,0.9320665322550746,-0.037955,-0.167513,-0.318984
13.2818,2280.4751,8.57629,-12.01687,15.90517,2.45862,-3.5552,-6.80865,-19.8,17.5,-30.0,7.576755,-23.080399,-43.432709,0.9033663455738872,-0.01372,-0.20940401,-0.37402001
13.2989,2280.4951,8.47573,-10.44383,14.42551,2.37799,-3.62973,-6.13487,-23.6,12.9,-27.9,13.297023,-26.138426,-48.597794,0.871059684436675,0.010363,-0.251118,-0.42200401
13.3263,2280.5151,8.76783,-8.72713,12.83571,2.19839,-3.20701,-5.82149,-25.7,6.9,-29.1,18.857258,-28.827168,-53.03056,0.836737279975967,0.032348,-0.29056099,-0.46303201
13.3409,2280.535,8.59545,-7.19001,11.79659,1.90762,-2.50879,-5.49101,-28.2,2.3,-27.0,24.240604,-30.48946,-57.246185,0.801575779020224,0.054666,-0.322707,-0.50034797
13.3586,2280.555,7.8221,-5.67204,11.55477,2.01696,-2.2785,-5.21612,-29.7,-2.3,-27.6,29.290432,-31.117701,-61.343185,0.7670715791315695,0.077112,-0.34745699,-0.53378701
13.3836,2280.575,6.40469,-4.20195,11.53322,2.40059,-2.76963,-4.78241,-30.1,-5.5,-23.8,34.398396,-31.499849,-65.143272,0.7315999156557084,0.100236,-0.37173,-0.56261098
13.4101,2280.595,5.04713,-2.91862,11.01606,2.98519,-3.09156,-4.03288,-31.4,-9.7,-20.8,39.689205,-32.74297,-68.082298,0.6942625918881845,0.121477,-0.40202001,-0.58448499
13.4244,2280.615,4.11815,-1.83401,9.92427,3.16295,-2.84599,-3.38964,-30.6,-13.6,-19.9,45.036324,-34.620529,-69.887222,0.6576538624571737,0.142281,-0.43472999,-0.59854603
13.4429,2280.635,3.01679,-0.96489,8.63375,3.28207,-2.43793,-2.73907,-31.3,-16.8,-17.3,48.329895,-36.392689,-70.958359,0.6316165708634147,0.15132201,-0.45772699,-0.60716403
13.4628,2280.655,1.97049,-0.20351,8.2387,3.42623,-1.82096,-1.75741,-30.1,-19.2,-14.6,50.521233,-38.140945,-71.064194,0.6145499223008655,0.156489,-0.47485599,-0.61020601
13.4886,2280.675,1.13249,0.28492,9.00726,4.28327,-1.56684,-0.9138,-29.6,-21.1,-13.1,52.359386,-40.43161,-69.652786,0.6042270917177744,0.162754,-0.49100199,-0.60608399
13.5006,2280.695,0.50759,0.03831,9.04078,5.54105,-1.62059,-0.19359,-30.8,-23.2,-10.2,54.477303,-44.332462,-65.864609,0.5972057102324788,0.17339,-0.51199001,-0.59257698
13.5207,2280.715,-0.01197,-0.78532,7.63055,6.42619,-2.14472,0.38307,-30.4,-24.2,-5.3,56.831322,-50.75721,-59.262592,0.5898817628905125,0.18734001,-0.54023403,-0.57016701
13.5647,2280.735,-0.25858,-1.74064,5.76541,6.93809,-2.94739,0.87237,-30.5,-23.7,0.2,58.633656,-59.921467,-50.244392,0.5801337198681172,0.19921,-0.57435203,-0.54210699
13.5776,2280.755,-0.18915,-2.81806,3.36156,7.2362,-3.51916,1.27615,-31.1,-22.4,3.7,59.24337,-71.490417,-39.440186,0.5667409003480155,0.206278,-0.61341298,-0.50988102
13.5918,2280.775,0.65124,-3.61296,1.66163,7.05966,-2.31454,1.63167,-31.4,-19.8,9.5,58.099583,-83.142326,-28.46114,0.554740945463519,0.209526,-0.65157503,-0.47308701
13.5984,2280.795,2.3416,-4.12055,-0.31844,7.08592,-0.6988,1.76118,-33.2,-16.8,13.1,55.345669,-92.967331,-17.918615,0.5499093244365105,0.215865,-0.68419302,-0.42764699
13.6397,2280.815,4.37673,-4.06308,-2.8444,6.40542,0.82592,1.6952,-33.8,-13.9,16.6,52.137154,-103.6064,-5.429674,0.5384759131452395,0.237996,-0.71802002,-0.37128001
13.6414,2280.8351,5.38712,-4.10139,-4.13252,5.57586,1.11058,1.19124,-34.3,-11.4,16.4,48.342781,-109.943253,4.068717,0.5352307220794034,0.261399,-0.73825902,-0.31650001
13.6635,2280.8551,5.44458,-4.6832,-3.72789,5.3474,-0.08732,1.02875,-34.9,-9.0,17.9,44.778557,-114.587524,11.496059,0.5291884979050091,0.28269801,-0.75349599,-0.268859
13.6835,2280.8751,5.55951,-5.83724,-3.51001,5.82632,-1.2669,0.92613,-34.9,-5.5,20.1,39.053352,-119.377716,17.79974,0.5145835641401102,0.292539,-0.77775103,-0.21149001
13.6992,2280.8952,6.11019,-6.88354,-4.22829,6.24476,-1.01645,0.69705,-35.2,-3.0,21.6,31.657862,-124.200859,23.775646,0.490182920219176,0.300046,-0.80572897,-0.14315701
13.72,2280.9152,6.50046,-7.87477,-5.19079,6.03585,-0.52165,0.45026,-34.7,0.6,21.7,24.241943,-127.748795,29.417728,0.4642824549305087,0.31231499,-0.825571,-0.073032
13.745,2280.9352,6.86199,-8.79896,-5.79654,5.94849,-0.07938,0.32748,-34.4,4.5,24.1,17.119011,-129.900833,34.482933,0.43983945956150744,0.32571599,-0.83691603,-0.00468
13.7591,2280.9552,6.94579,-9.90751,-6.16047,5.77379,-0.06961,0.32626,-34.7,6.8,21.9,10.255635,-130.998199,39.140572,0.41643041565125805,0.33850601,-0.84153998,0.061724
13.7829,2280.9753,7.41267,-11.2914,-5.95217,5.7127,-0.42452,0.28899,-34.1,10.0,21.1,3.634228,-131.629623,43.618889,0.39092061291853075,0.350802,-0.84167999,0.125275
13.7998,2280.9953,8.79178,-12.41192,-5.39909,5.83487,-0.85701,-0.07325,-34.4,12.4,20.0,-2.769114,-132.202042,48.144726,0.36077512940933104,0.36387199,-0.83849698,0.185368
13.8249,2281.0153,10.77903,-13.35766,-4.8508,5.98514,-1.01584,-0.95167,-34.7,14.7,20.1,-8.724496,-132.538223,53.305206,0.32740246964505293,0.382103,-0.82953399,0.242236
13.8395,2281.0354,12.73515,-14.34171,-4.36237,6.09143,-0.89916,-2.15569,-34.4,15.8,20.1,-12.711784,-132.478622,59.322392,0.29783195293883374,0.41137999,-0.81249398,0.28621
13.8656,2281.0555,14.30819,-15.3497,-4.58982,5.96254,0.09105,-3.33099,-34.4,15.9,19.3,-15.297968,-131.503448,66.450333,0.27400075504892263,0.44941601,-0.78588599,0.32454899
13.8829,2281.0755,14.96422,-16.17811,-5.48049,5.44331,1.69824,-4.27356,-35.0,14.8,15.7,-16.491913,-128.76123,74.342796,0.2628473194384523,0.48975301,-0.748532,0.36159801
13.9,2281.0956,14.94746,-16.69049,-5.77739,4.51418,3.15698,-4.78424,-36.4,12.6,13.6,-15.980494,-124.021729,82.256432,0.2693334344453719,0.52603799,-0.70158798,0.39814299
13.9222,2281.1156,14.75592,-16.84612,-4.38631,4.19409,3.10445,-5.02309,-36.9,9.8,9.8,-13.8213,-118.398666,89.326691,0.28890374346093095,0.55558598,-0.6498,0.43083501
13.9496,2281.1357,14.87323,-16.66655,-3.23467,4.3633,2.28955,-5.31264,-39.3,7.6,8.3,-10.704366,-113.550049,96.028008,0.3069384538218023,0.58489603,-0.59514302,0.457701
13.9604,2281.1558,14.79183,-16.21164,-2.91623,4.18004,1.91815,-5.67366,-39.1,3.9,5.4,-6.789192,-110.026733,102.528648,0.3203139327262548,0.61671102,-0.538234,0.476834
13.9861,2281.1758,14.18368,-15.59152,-2.77257,3.64797,2.51496,-5.85937,-38.8,1.0,5.2,-2.05233,-107.197861,108.638908,0.3343668708798766,0.647488,-0.478017,0.490365
14.0006,2281.1959,13.32653,-14.69845,-2.00401,3.12324,3.15698,-5.83615,-38.1,-4.1,3.8,3.346022,-104.05513,113.635452,0.35586650907422973,0.66931099,-0.41622499,0.50213403
14.0284,2281.2159,12.7543,-13.36724,-1.37192,3.17578,2.98533,-5.83799,-37.6,-8.6,1.2,9.088161,-101.000877,118.035667,0.3788145851883204,0.68540102,-0.35275999,0.51213801
14.0464,2281.236,12.69923,-11.74631,-1.86993,2.86118,2.70128,-6.0805,-36.0,-13.4,-0.4,15.116319,-98.679909,122.338722,0.39888412296364845,0.70011503,-0.28755,0.51773101
14.0607,2281.2561,12.17728,-10.36242,-2.96411,2.16663,2.88942,-6.35478,-32.2,-20.2,-1.0,21.695034,-96.88427,126.286659,0.41996839607063136,0.71204698,-0.220626,0.51762903
14.0937,2281.2761,10.59467,-9.31373,-3.5962,1.25827,3.35368,-6.15075,-29.1,-24.8,-3.8,28.681068,-94.855217,129.547836,0.4443505989758076,0.71684903,-0.152493,0.51519501
14.1084,2281.2962,8.80135,-8.09504,-3.50043,0.5515,3.70798,-5.67122,-25.3,-28.8,-5.7,35.503582,-91.888977,131.577026,0.4714351628125108,0.71118897,-0.087335,0.51413202
14.1317,2281.3163,7.26902,-6.72073,-2.79891,0.03287,3.51862,-5.17825,-22.6,-31.8,-9.0,41.858368,-88.0159,132.269913,0.4987542358673053,0.69738501,-0.027585,0.51394302
14.1449,2281.3363,6.45975,-5.09262,-2.02077,-0.28722,3.04703,-4.8606,-18.7,-33.5,-9.9,46.0079,-84.342079,132.110641,0.51665783402335,0.68232602,0.013908,0.51701301
14.1626,2281.3564,6.09582,-3.6393,-1.43656,-0.69955,2.65302,-4.9559,-14.8,-35.8,-9.7,48.316608,-81.26796,131.799164,0.5260296327935519,0.66921598,0.040879,0.52323198
14.1799,2281.3764,5.61218,-2.64328,-1.07503,-1.05324,2.55467,-5.11839,-10.4,-36.5,-10.9,50.644333,-77.850319,130.591431,0.5380353844529928,0.65502101,0.064929,0.52654499
14.2057,2281.3965,4.82446,-2.14766,-0.8356,-1.5004,2.7306,-5.22101,-6.2,-37.1,-13.6,52.941513,-73.517311,128.12944,0.5535466074231139,0.63793898,0.086853,0.52827698
14.2211,2281.4165,3.45733,-2.03753,-0.67519,-1.88158,2.95356,-5.18986,-3.0,-37.2,-13.0,54.973972,-67.829849,124.323967,0.5715034977241689,0.61655498,0.107556,0.53073102
14.2492,2281.4365,1.89627,-1.96091,-0.26098,-2.33117,2.81184,-4.89847,0.8,-36.9,-15.4,56.346191,-60.926517,119.25808,0.5906889515127051,0.59134799,0.12515301,0.53453797
14.2592,2281.4566,1.23784,-1.76937,0.41421,-2.68914,1.93892,-4.8044,4.9,-35.6,-16.0,57.228306,-52.721149,112.370316,0.614415521604003,0.562657,0.13960201,0.53518403
14.2811,2281.4766,1.10615,-1.87711,1.43896,-3.01595,0.54859,-5.14832,8.2,-33.8,-18.1,59.132099,-40.963898,101.112526,0.6509933718373936,0.52869999,0.163601,0.51953697
14.3022,2281.4966,1.25939,-2.28893,2.27696,-3.15706,-0.37443,-5.389,11.5,-31.1,-22.2,59.681778,-28.925798,87.952843,0.6907211866893616,0.497159,0.178663,0.49377799
14.3194,2281.5166,1.43178,-3.06228,2.78694,-3.49121,-0.64443,-5.55699,14.7,-28.4,-24.0,58.726227,-17.398926,74.210083,0.7318169540374695,0.46608901,0.18728,0.46057701
14.3454,2281.5367,1.39826,-3.93858,3.28495,-3.87178,-0.15391,-5.60586,18.0,-22.4,-28.1,56.036983,-6.898112,61.321228,0.7724193863809218,0.43043801,0.193435,0.42505801
14.3626,2281.5567,1.20193,-4.81489,3.94576,-4.23035,0.17901,-5.65778,19.9,-18.5,-28.5,51.742722,2.159862,50.283009,0.8108931247480149,0.38773799,0.20070601,0.38965201
14.3826,2281.5767,1.13967,-5.78696,4.99925,-4.30732,-0.26142,-5.68893,21.4,-12.7,-29.4,46.212528,9.17724,41.417919,0.8464903622664584,0.339885,0.207159,0.353578
