AppTimestamp(s),SensorTimestamp(s),acc_x,acc_y,acc_z,gyro_x,gyro_y,gyro_z,mag_x,mag_y,mag_z,yaw_deg_ori,yaw_deg_ori_cal,yaw_deg,yaw_error,Quat_w,Quat_x,Quat_y,Quat_z,q_w,q_x,q_y,q_z,quat_angle_error_deg
0.038,2267.204,0.1307320386000841,-1.3113353619270112,0.29132491979460085,0.5825373805720121,0.14427692452111462,-0.21037190645390025,-0.12082206273162654,18.811139412633135,-37.56571768818585,99.989891,115.84520279310165,0.0,99.989891,0.5526569797255979,0.180235,0.36827901,0.725573,1.0,0.0,0.0,0.0,112.90103095747722
0.0412,2267.224,0.4268079853012541,-0.850082811908433,0.7300946647237936,0.6002628130513368,0.13134325709596578,-0.348350175165559,0.12248332600641731,19.67268462624623,-37.29614763399777,100.545746,115.60265086344002,0.0,100.54574600000001,0.5528012766494844,0.18422601,0.36340901,0.726915,1.0,0.0,0.0,0.0,112.8811893641461
0.0541,2267.2441,0.5547695587642929,-0.5410769718059423,1.0658920116962651,0.6081443448418418,0.16387704556975907,-0.49016593008555803,0.6788154513266065,20.687737360444643,-36.933221583249775,101.195526,115.04195130407288,0.0,101.19552599999997,0.5542673253354196,0.18663301,0.35478401,0.72944099,1.0,0.0,0.0,0.0,112.67947042344649
0.07,2267.2641,0.53226545993454,-0.38367523372957124,1.1886736840367629,0.6228472590863158,0.2269826920079709,-0.6374052951672105,1.2506196890538739,21.57955625251506,-36.61829992796461,101.485977,114.2965413469651,0.0,101.48597699999999,0.556938398029315,0.18940499,0.34717199,0.73035401,1.0,0.0,0.0,0.0,112.31133824644469
0.1232,2267.2841,0.4156148405181552,-0.36469888977459197,1.0293442637800183,0.679439723606876,0.24661006745238778,-0.7755408616333153,1.491460733825221,22.21047674665498,-36.43596370180194,101.440498,113.66964499791361,0.0,101.44049799999999,0.5592639412197598,0.194916,0.34398699,0.72863197,1.0,0.0,0.0,0.0,111.99018070839753
0.1241,2267.3041,0.22837019195324348,-0.45321643805895195,0.6253842428911955,0.8050313675330301,0.1345012289066087,-0.8765760886675169,1.4088329505007735,22.575218904306105,-36.36568348715802,101.095612,112.99978617254907,0.0,101.09561200000002,0.5617045391561466,0.20414799,0.344248,0.72408903,1.0,0.0,0.0,0.0,111.65247972813565
0.1286,2267.3242,-0.05304964571213855,-0.633758435400783,0.11052818952898846,0.9977572486874887,-0.14264398409726364,-0.9128956888809984,1.4407008352264903,22.88139006863169,-36.2070025531345,100.655891,111.63050576392622,0.0,100.655891,0.5666290945361515,0.216281,0.34092,0.71828097,1.0,0.0,0.0,0.0,110.96900963063833
0.1472,2267.3442,-0.4073038776675437,-0.8192463797591097,-0.3600651139803368,1.2297742312735271,-0.5324117472144951,-0.8881670285145912,1.7924425415157685,23.091182109182068,-35.90999015195426,100.580894,109.74002825024527,0.0,100.580894,0.5731730585449386,0.226162,0.32990399,0.71518302,1.0,0.0,0.0,0.0,110.05641898536534
0.173,2267.3642,-0.7172318644422324,-0.9176122977985377,-0.6725519732096323,1.4840979656051037,-0.9252313540228249,-0.8436168411941447,2.168347206315673,22.911254160570923,-35.642212014049974,101.13372,108.25637432124762,0.0,101.13371999999998,0.5781011700679906,0.22965901,0.31360799,0.71743,1.0,0.0,0.0,0.0,109.36580082893347
0.1876,2267.3843,-0.8595579893285601,-0.8730642058307321,-0.7709214075441011,1.7587186144524103,-1.2286486186842656,-0.8243957283066217,2.2978211257818693,22.073509007341848,-35.63650222408118,101.776993,107.22590472280149,0.0,101.776993,0.5818831576141036,0.228349,0.29653701,0.72203499,1.0,0.0,0.0,0.0,108.83379358896974
0.2071,2267.4043,-0.7687237983438715,-0.6914423726672743,-0.6518379209775382,2.038419358778516,-1.3906994748591177,-0.8481154094525776,2.039752676737635,20.710304838154997,-35.91667412707811,102.315521,106.35031844459003,0.0,102.31552099999999,0.5852054713372048,0.227026,0.28046,0.726179,1.0,0.0,0.0,0.0,108.36498610964307
0.2356,2267.4242,-0.48978125522403104,-0.41074879792483865,-0.34201025566973087,2.2655263369304803,-1.3950817023889008,-0.8778648104605608,1.6371964299415822,19.19377560275909,-36.350249575778406,102.710243,105.21708672530043,0.0,102.71024299999999,0.5894606386112813,0.22791401,0.262923,0.72901499,1.0,0.0,0.0,0.0,107.76251436434187
0.2551,2267.4442,-0.11492986593803245,-0.17836728328104512,0.1051823435845467,2.338599567978148,-1.2373012581207903,-0.8515711739588138,1.3897757434972746,18.152756554962444,-36.67468421484749,103.28299,103.68354648324333,0.0,103.28298999999998,0.5944234860114462,0.233162,0.239097,0.731525,1.0,0.0,0.0,0.0,107.0569107416358
0.2674,2267.4642,0.1818355029957619,-0.24933954391686286,0.5661908930052117,2.1766624807599424,-0.9536288388076641,-0.7142369148361529,1.7813575079199815,18.278248616215226,-36.556733342891945,104.071877,101.4451044683682,0.0,104.07187699999997,0.6008234785935214,0.244488,0.20225701,0.73370898,1.0,0.0,0.0,0.0,106.1422045012982
0.2916,2267.4842,0.46466598747248344,-0.36474084773755744,0.8508335867217447,1.8232808265530562,-0.6052155310326043,-0.4827671730047467,1.7700467280831518,18.450767990603264,-36.51235787096033,105.164291,100.41652535357144,0.0,105.16429099999999,0.6012659108068903,0.25545701,0.17472699,0.73667598,1.0,0.0,0.0,0.0,106.07876853889034
0.3076,2267.5042,0.7438684214210625,-0.11019647166335078,0.8391942668186658,1.4047618111632594,-0.31884966116914276,-0.22957424887628103,1.0102561100248373,17.302829487473566,-37.14087202901833,105.445724,100.42865160201663,0.0,105.44572399999998,0.6000468861190265,0.25852901,0.17376401,0.736826,1.0,0.0,0.0,0.0,106.25348861885463
0.3557,2267.5242,0.81551151014214,0.06828945800404473,0.5796600896461168,1.0267534397699758,-0.15225229234183524,-0.011114411203873298,0.30359535263566073,16.421185263618785,-37.58078886270341,105.858353,100.67859109497648,0.0,105.85835299999997,0.5975583671773993,0.26175201,0.175575,0.73728102,1.0,0.0,0.0,0.0,106.60954402109516
0.3586,2267.5442,0.6506899614633657,-0.05470391457006718,0.23688354995943683,0.6884138855040198,-0.09846001557014736,0.16279465112528868,0.14108834856899932,16.724549145205316,-37.47493316722975,106.770729,100.62127147877685,0.0,106.77072900000002,0.5945512729153641,0.26916599,0.165822,0.73929799,1.0,0.0,0.0,0.0,107.03870005812601
0.3718,2267.5642,0.3673790868972109,-0.20240079397997057,-0.07575348939218252,0.3632483244770125,-0.08645563712880727,0.28761868005854924,0.3131694918880221,17.262614449726428,-37.26667462295239,107.815033,101.01032632499486,0.0,107.81503299999997,0.5903513127332062,0.27246499,0.154595,0.74387401,1.0,0.0,0.0,0.0,107.63611523621049
0.3873,2267.5842,0.12056763547710858,-0.18502898243436672,-0.31731083609718347,0.07699004205624689,-0.061447580377553615,0.3603552930767992,0.46573987200361344,17.219588355329055,-37.34597410317131,108.263229,101.66806195775082,0.0,108.26322900000002,0.5876437554352973,0.26907301,0.15231,0.74771398,1.0,0.0,0.0,0.0,108.02004076007292
0.4082,2267.6042,-0.06043366732223632,-0.09357984024420518,-0.4992687009241106,-0.12180633316960365,-0.018760030496687924,0.38857262909158835,0.5340639204723026,16.939076214345924,-37.542460619004416,108.25164,102.17055833425124,0.0,108.25164000000001,0.5867806371425185,0.26398101,0.155505,0.749547,1.0,0.0,0.0,0.0,108.1422325643648
0.4331,2267.6242,-0.17226204224500918,-0.06277000119656839,-0.6478546377444978,-0.21019241560560084,0.014110641333759347,0.37986739201172026,0.36323132045726325,17.04387161131299,-37.53711875953032,108.513985,102.53868158962034,0.0,108.51398499999999,0.5847897080918231,0.264007,0.158234,0.75052202,1.0,0.0,0.0,0.0,108.4237295153439
0.4487,2267.6442,-0.273920858991096,0.017206027175137084,-0.7677218757576103,-0.19595393671841388,0.02643300463053022,0.3311542547362362,0.09497278231154738,17.104309932495184,-37.51585010234119,108.825943,102.9996932563164,0.0,108.825943,0.5822890276150667,0.264254,0.16245501,0.751477,1.0,0.0,0.0,0.0,108.77659555205868
0.4786,2267.6642,-0.39582276975617736,0.1597962046669652,-0.8423106449085545,-0.09975677785798154,0.03137130200290424,0.23828844881787734,-0.13788286687314155,16.98274462783101,-37.575177181400264,109.271988,103.85168751109379,0.0,109.27198799999996,0.5785659925134897,0.26165801,0.16734999,0.75418198,1.0,0.0,0.0,0.0,109.30050945194611
0.4918,2267.6842,-0.5177680539230907,0.29576933239177006,-0.8561685373801069,0.04635773501786389,0.05479173108785144,0.11391358252163152,-0.07349822262853678,16.91833181272154,-37.63736108438053,109.311043,104.11277185190957,0.0,109.31104299999998,0.5779697692096357,0.25908399,0.16797,0.75538898,1.0,0.0,0.0,0.0,109.3842532976578
0.5072,2267.7042,-0.5876643447396321,0.37160069453686595,-0.8176030163640426,0.20118712593073962,0.10628295692444785,-0.019225521340533777,-0.0021105806345715905,17.10013633850108,-37.61953938645354,109.477791,104.11427597186723,0.0,109.47779100000002,0.5774989886307853,0.25971299,0.164868,0.75621599,1.0,0.0,0.0,0.0,109.45034719703384
0.53,2267.7242,-0.5789507400085521,0.4365512418327093,-0.7601283072381211,0.32969016621663855,0.17305869742861874,-0.14273364513886633,-0.15699034715614957,17.281068182112126,-37.62331740772059,109.800591,104.12724566621354,0.0,109.800591,0.5761422259242408,0.26294401,0.162964,0.75654697,1.0,0.0,0.0,0.0,109.64067544562701
0.5482,2267.7442,-0.5095065608472034,0.480167715489334,-0.7097983281731768,0.4167932033669002,0.22818788741657597,-0.23858841455311663,-0.36613487082636453,17.471649709541296,-37.63290723361263,109.948151,103.81358313165761,0.0,109.948151,0.5759954235755689,0.26822001,0.161543,0.75511003,1.0,0.0,0.0,0.0,109.66125568237985
0.5725,2267.7642,-0.41600106441648865,0.4719367259204321,-0.667831926866441,0.46437758903730886,0.2556153695538299,-0.287340438225117,-0.4356359722807106,17.75919207315624,-37.6008867316299,109.939201,103.24881417181861,0.0,109.93920100000003,0.5770329661578787,0.273819,0.158733,0.75290102,1.0,0.0,0.0,0.0,109.5157465473557
0.6133,2267.7842,-0.25771345503260434,0.3808341341734527,-0.6151691799539378,0.48564975851075326,0.25814838405779555,-0.28518400048990855,-0.5225716373912341,18.264679391312363,-37.46139175024187,109.940231,102.43300448526013,0.0,109.94023099999998,0.5784128878558289,0.281874,0.154745,0.74969298,1.0,0.0,0.0,0.0,109.32201824110517
0.6153,2267.8042,-0.0883891428673218,0.27410957199935737,-0.535796680588204,0.510363523603889,0.2576931263693827,-0.2494615583554386,-0.5615526597451108,18.741045091389804,-37.32828777068727,109.938965,101.7573363601182,0.0,109.938965,0.5795161705267594,0.288367,0.151572,0.747015,1.0,0.0,0.0,0.0,109.16696031227542
0.6305,2267.8242,0.05321165413959239,0.1837541176911095,-0.41053287129954086,0.5740236599037354,0.29107425669224507,-0.21420029999780799,-0.5645244416961894,19.14202890907348,-37.22145087834088,110.039925,101.44779397339012,0.0,110.03992499999998,0.5795566688920417,0.29230401,0.149685,0.74583298,1.0,0.0,0.0,0.0,109.16126574002557
0.6508,2267.8441,0.11708188998187019,0.09911627759140385,-0.23609420796698188,0.6981368275421026,0.38856460038747026,-0.20894662425777205,-0.4371113695410571,19.617337777687666,-37.05816958183181,110.247574,101.3438539831198,0.0,110.24757399999999,0.5789135631013492,0.29478699,0.146681,0.74595201,1.0,0.0,0.0,0.0,109.2516706330282
0.6703,2267.8641,0.1250322054502151,0.019084059085990868,-0.0391713597093748,0.874238888086752,0.5516906244276363,-0.24804230573841013,-0.38152717154843074,20.250485495587,-36.779457756064495,110.647964,101.20222459651983,0.0,110.647964,0.5774152145469668,0.299622,0.14292,0.74591702,1.0,0.0,0.0,0.0,109.46210559441194
0.6869,2267.8841,0.09056196658864035,-0.045512151429792036,0.14301290854569615,1.070922361062232,0.7458529849944453,-0.32309856125228875,-0.4606433653431026,21.02541627133455,-36.377003954114265,111.171211,100.71886756692663,0.0,111.17121099999997,0.5757325244949775,0.30906799,0.1384,0.744214,1.0,0.0,0.0,0.0,109.69810502588336
0.7088,2267.9041,0.03833504108825814,-0.05984350496164392,0.2979433567238221,1.245071078285404,0.9222933263392934,-0.413767545814523,-0.6899248366045754,21.77631789994205,-35.92890904436292,111.808533,99.85809202927818,0.0,111.80853300000001,0.5738678977933858,0.323026,0.13394301,0.74053299,1.0,0.0,0.0,0.0,109.95922224260588
0.7269,2267.9241,-0.001135154617511347,-0.020506332170705743,0.4482887499727326,1.3618119868410825,1.0474277442558333,-0.49562417416754456,-0.9465447551844903,22.370366008768542,-35.51457762615368,112.535759,98.6140923116689,0.0,112.53575899999998,0.5719491877538246,0.34031701,0.128777,0.73517001,1.0,0.0,0.0,0.0,110.22747861209334
0.7469,2267.9441,0.018452184781236447,0.025830124047879988,0.6244468393766169,1.4148489972534206,1.1247111372832115,-0.5534528654759286,-1.089063630934902,22.76131111078246,-35.19118984276339,113.324417,96.93158225043837,0.0,113.32441699999998,0.5701570848243839,0.360201,0.121237,0.72833902,1.0,0.0,0.0,0.0,110.47763903581678
0.7769,2267.9641,0.06926173932087032,0.14363774057498757,0.8275389530160897,1.429455671370381,1.194605962252235,-0.598268221051889,-0.9874334651836634,22.513134402915206,-35.302677763192065,113.949402,95.44210962584577,0.0,113.94940200000002,0.5687742022292853,0.376093,0.114386,0.72247201,1.0,0.0,0.0,0.0,110.67041738200876
0.8023,2267.9841,0.21187372356080125,0.2458988785180085,1.0191161932729589,1.4534122272618129,1.3065407501216586,-0.6567390286615581,-0.8422662314963674,21.81203329897488,-35.77370228659263,114.623131,94.08161855318771,0.0,114.623131,0.5668797656412335,0.39074099,0.108876,0.71701801,1.0,0.0,0.0,0.0,110.9341446541426
0.809,2268.0041,0.5089103715111687,0.17041456164714708,1.1382306106363558,1.5529542775758296,1.494871119495694,-0.7537027834034232,-0.7488311174698623,21.17407734306687,-36.29029932058103,115.425133,91.97569233625715,0.0,115.42513300000002,0.5649847055251486,0.41039801,0.101914,0.70850497,1.0,0.0,0.0,0.0,111.19754151863332
0.8293,2268.0241,0.8620855455647467,-0.041407452755234164,1.1174069203080474,1.7960795281396287,1.7980246690418382,-0.9246442649866949,-0.5963892599911453,20.44220357575533,-36.9184069933236,116.254921,89.53577388409032,0.0,116.25492099999997,0.5631537573770417,0.430942,0.095741,0.69855601,1.0,0.0,0.0,0.0,111.45163418997083
0.8471,2268.0441,1.1835535410611513,-0.39682623239966697,0.8997022772494372,2.250455641753667,2.259196386849699,-1.2036393574925044,-0.2914830758249778,19.592429542214887,-37.61238513876582,117.214478,87.07221691493851,0.0,117.21447799999999,0.5606132599251996,0.45096201,0.090574,0.68857998,1.0,0.0,0.0,0.0,111.80356126377102
0.8793,2268.0641,1.4530915930236787,-0.983055434932727,0.4159668131813916,2.9695215034069964,2.898496689857673,-1.6027534058912547,0.18197213514259047,18.82652533503032,-38.17753084231339,118.389801,83.875613876773,0.0,118.38980100000003,0.5574916413809264,0.47474399,0.083492,0.67590702,1.0,0.0,0.0,0.0,112.23499016673075
0.8929,2268.0841,1.6199357223115447,-1.819911010226078,-0.4277826352754275,3.956906316396457,3.696072610463744,-2.102046276618635,0.7708430431765336,18.205324296487536,-38.48122415918844,120.011887,79.19597284593675,0.0,120.011887,0.5530748577338511,0.50645798,0.072509,0.657534,1.0,0.0,0.0,0.0,112.8435642535207
0.9085,2268.1041,1.5275144654537498,-2.7616441463435475,-1.698504766395443,5.16001328138222,4.568611708727046,-2.647046215061986,1.560292394572798,17.516689868727532,-38.58153385607845,122.146011,72.83640837366255,0.0,122.14601099999999,0.5468454889141717,0.54602301,0.056827,0.63213098,1.0,0.0,0.0,0.0,113.69826335055104
0.9284,2268.1241,1.0702085715706513,-3.574990621666439,-3.3879228547017943,6.4278729709503715,5.400701216125686,-3.1627742520833304,2.282182877658151,16.785259127363254,-38.546362805679685,125.398575,64.68897703629283,0.0,125.398575,0.5354507355231105,0.59526199,0.036895,0.597992,1.0,0.0,0.0,0.0,115.25103130062688
0.9497,2268.1441,0.16985969112320953,-3.9630204572697387,-5.325859412069287,7.5980223470573005,5.99447394481256,-3.5320433817934096,2.7878577405167064,16.235204597607385,-38.422099608436,129.881577,54.879481745953534,0.0,129.881577,0.5168401492072563,0.65484297,0.009715,0.551328,1.0,0.0,0.0,0.0,117.75893474913786
0.9787,2268.1641,-1.0749735729499283,-3.601135742085948,-7.1092306723683105,8.495240469409936,6.121871829091834,-3.673392281451349,2.961244726207145,15.717481688217905,-38.38774786998348,135.010361,45.12543949283439,0.0,135.010361,0.4907036328484024,0.71876901,-0.023858,0.491947,1.0,0.0,0.0,0.0,121.2263203666965
0.9902,2268.1841,-2.2906632517197028,-2.445733175815455,-8.304100032101621,8.96249120103722,5.624397288389772,-3.5858592464505668,2.4614524999870735,15.237819922349956,-38.47156121698502,140.166687,36.932862474022684,0.0,140.16668700000002,0.4563934903137855,0.78177202,-0.061764,0.42038399,1.0,0.0,0.0,0.0,125.6907405053257
1.0119,2268.2041,-2.974656881599498,-0.828769864090393,-8.710528055044945,8.904709144588306,4.598241957423813,-3.291740691963123,1.0224946646225188,15.060360590814907,-38.44925635049242,145.155304,31.005446924105183,0.0,145.155304,0.4101532636539664,0.839405,-0.09962,0.342417,1.0,0.0,0.0,0.0,131.57107410580477
1.0299,2268.2241,-2.83938556052884,0.7481829721764361,-8.54890766746857,8.515518350925936,3.266996601497649,-2.6487481042350933,-0.34499530951062773,15.704189789771942,-37.868089979444505,148.721649,28.427215642546805,0.0,148.721649,0.3449920276915968,0.88670498,-0.140946,0.27362201,1.0,0.0,0.0,0.0,139.63738178311038
1.0566,2268.244,-1.9501885150165388,2.0621759261479076,-8.218423904403496,8.043709295787648,1.7749791620696103,-1.8631062377840268,-0.838901653506154,14.890465882232956,-37.5488251629545,149.635696,28.71137750825231,0.0,149.635696,0.2847530260782481,0.91309202,-0.17631,0.23258001,1.0,0.0,0.0,0.0,146.9118273242901
1.0804,2268.264,-0.5521434629878844,3.1922879056204314,-7.8054526570926175,7.650557811542421,0.4005825102341838,-1.0250944557154642,-0.6944704808215931,12.779630272120738,-37.39967174805973,149.294067,30.366055926055356,0.0,149.29406700000004,0.2291221954232281,0.926319,-0.20607799,0.216721,1.0,0.0,0.0,0.0,153.5092055171141
1.0879,2268.284,1.1142572716694072,4.230133237257892,-6.954082521466295,7.361536353488088,-0.6344007468146815,-0.34474876244842423,-1.0477684912429321,10.43449429856604,-37.1300752950218,149.594498,31.346269573003518,0.0,149.594498,0.16746706802055,0.93663698,-0.22633301,0.20842101,1.0,0.0,0.0,0.0,160.71883686736473
1.1071,2268.304,2.8681245850554387,5.054486302480416,-5.331276272282706,7.124971518392513,-1.3825506404400651,0.11384366184745354,-1.9903522848220492,8.49363617218859,-36.92567953784569,150.36702,31.446874457014776,0.0,150.36702000000002,0.0953847833213447,0.94536299,-0.240557,0.1983,1.0,0.0,0.0,0.0,169.0530663101339
1.1294,2268.324,4.528200425963018,5.327065751039829,-2.9199962654193072,6.792156587846642,-1.9930459100608113,0.5099720146718163,-2.6574151528347847,6.862008369474353,-37.233345621238094,150.663467,31.541118719367162,0.0,150.66346699999997,0.0195638256315014,0.94762999,-0.25406301,0.192527,1.0,0.0,0.0,0.0,177.75800768694498
1.1504,2268.344,5.876633046892449,4.713479480082153,-0.017059758857307372,6.2319645145222395,-2.560043691838213,0.9173071437745037,-2.715094050319949,6.019319306625845,-38.07784627824906,150.305832,31.804117331977736,0.0,150.305832,0.0573946594501591,-0.94181901,0.26878899,-0.193482,1.0,0.0,0.0,0.0,173.419440227584
1.1698,2268.364,6.452455889326856,3.358739535351578,2.927550462785536,5.475008544405365,-2.9886390655361135,1.3981196025781675,-1.8397056806461665,6.333460447716638,-39.19116742543057,151.223251,30.21842423725412,0.0,151.223251,0.138567345529384,-0.92995501,0.27120799,-0.205983,1.0,0.0,0.0,0.0,164.07009362634676
1.1888,2268.384,6.455979956286984,2.0608422389271075,5.267007484111446,4.619974227426488,-3.340180918572922,1.9077451341175022,-0.7825784675808398,6.6481803630145055,-40.37273181921869,153.95575,26.51930743160197,0.0,153.95574999999997,0.2060161306554413,-0.916556,0.258775,-0.22476199,1.0,0.0,0.0,0.0,156.22202233201665
1.2092,2268.404,6.262249661218412,1.221261611754187,6.8854427844209845,3.7474537866057247,-3.7677939405607246,2.3895979621067887,0.10105900172801174,6.800161711679472,-41.425838593338625,157.638046,22.066657837989954,0.0,157.63804600000003,0.2572955394665044,-0.90273398,0.24133,-0.246232,1.0,0.0,0.0,0.0,150.18070133156039
1.2262,2268.424,5.999683578217168,0.974605851895479,8.00331092458261,2.980575583503082,-4.298512296619141,2.795376722874852,0.7655444364188133,6.916336509396185,-42.2290414123753,162.644226,16.61054535248869,0.0,162.644226,0.2986420001678923,-0.88970602,0.21765099,-0.26807499,1.0,0.0,0.0,0.0,145.24788648623849
1.2487,2268.444,5.6026125129132955,1.1571319786688328,8.928341693521016,2.4217271314374336,-4.931816396290682,3.046713344955187,1.217418340013241,7.254734557458992,-42.68334022322925,169.670792,9.506243643883828,0.0,169.670792,0.3376855140543635,-0.87703401,0.184036,-0.28794199,1.0,0.0,0.0,0.0,140.52814866989047
1.2689,2268.464,4.646150716721287,1.4483143691549785,9.928906869783827,2.007864944373935,-5.642973996915715,3.117710992713187,2.0435266326607415,7.791244064198299,-42.71427911034854,179.265762,0.6509387476759061,0.0,179.265762,0.3761273543867823,-0.860277,0.142092,-0.313467,1.0,0.0,0.0,0.0,135.81198526293048
1.2865,2268.484,2.9621603084069297,1.5848086823214995,10.955926996511021,1.7764207769449527,-6.316280298984937,2.9999242178454306,2.951525585676611,8.519974040199347,-42.30275283256759,-167.966553,-10.321386343407788,0.0,167.966553,0.4150897230256844,-0.83790302,0.088631,-0.34316701,1.0,0.0,0.0,0.0,130.95006620811273
1.3091,2268.504,0.6109692879014297,1.3015019209712992,11.763133104796797,1.5469263182776447,-6.904357375781401,2.7656716079032977,3.877574490001913,9.342513225110139,-41.56051605634641,-154.200134,-22.08099275188473,0.0,154.200134,0.4496203198766711,-0.807051,0.034683,-0.381192,1.0,0.0,0.0,0.0,126.56134664336759
1.3424,2268.524,-2.083174492209186,0.7076490561274351,12.081061897204354,1.1957658477153028,-7.380312934773899,2.50336493988352,4.5710972784356425,10.164575576661138,-40.721410822753214,-141.977859,-33.872068429404344,0.0,141.977859,0.4759223935549151,-0.76931202,-0.014249,-0.42597401,1.0,0.0,0.0,0.0,123.16115203428612
1.3477,2268.544,-4.824204071807303,0.05684229846626998,11.79792925621415,0.7485050537741476,-7.749356425790953,2.2498276639242603,4.830860407091986,11.008554289786552,-39.96721099249072,-132.204025,-45.381061869633236,0.0,132.204025,0.4945260039158708,-0.72756499,-0.060989,-0.47156501,1.0,0.0,0.0,0.0,120.72300128706547
1.3743,2268.564,-7.517979537052302,-0.43438107667471293,10.89193354918308,0.35345857315832285,-8.031956261868164,2.0292416259004487,4.673416502592781,11.654325591374963,-39.38608767983828,-124.260338,-56.400828856350316,0.0,124.260338,0.5068325508990116,-0.68376702,-0.114206,-0.51238698,1.0,0.0,0.0,0.0,119.09384618519124
1.3876,2268.584,-10.166913505708878,-0.6829440048092268,9.303817838342866,0.01847304718591669,-8.264910351704703,1.8208521274511216,4.5145260993607135,11.85782156667549,-38.924071806252115,-118.167969,-66.94843413493393,0.0,118.167969,0.510163847513854,-0.63744903,-0.17343999,-0.55073601,1.0,0.0,0.0,0.0,118.65051168319486
1.4078,2268.604,-12.586493377237712,-0.8407203765115359,7.004526907475206,-0.2501896963643331,-8.463373059371833,1.537953902370063,4.530279046375094,11.856760669618602,-38.358301898107506,-113.724182,-77.12492443060664,0.0,113.724182,0.5049690950168926,-0.58668298,-0.23301201,-0.58865499,1.0,0.0,0.0,0.0,119.34139831335622
1.4297,2268.624,-14.474424900952675,-1.0165190691835218,4.102887672918431,-0.4297348157916021,-8.613995142639231,1.1346783555145619,4.603876583478993,11.936999039665379,-37.48981861339744,-110.692352,-86.950002410988,0.0,110.692352,0.4927385866117441,-0.53084898,-0.28788799,-0.62652099,1.0,0.0,0.0,0.0,120.9585191701638
1.4473,2268.644,-15.580271957412041,-1.1917821320652209,0.8506252957650524,-0.4429748895824779,-8.68931294882682,0.7044407869198505,4.413727403631049,11.908845091409779,-36.41749407183479,-108.598625,-96.2967049700464,0.0,108.598625,0.4743033409927019,-0.47196001,-0.33995399,-0.66084898,1.0,0.0,0.0,0.0,123.37199936256812
1.4825,2268.6639,-15.824626977270215,-1.2775256341224983,-2.478594198377518,-0.3217730042650002,-8.674158338749118,0.3448191658246826,3.9012356397045016,11.57180233902057,-35.392041249221975,-107.41156,-105.38942341966408,0.0,107.41156,0.4480189673597757,-0.41213599,-0.38964301,-0.69108701,1.0,0.0,0.0,0.0,126.76669236009243
1.493,2268.6839,-15.248609196720691,-1.300505245908032,-5.6428129009787025,-0.1430870449508168,-8.56643560178812,-0.0029326793197852474,3.195897958686997,11.291257378183957,-34.55435573410454,-107.435883,-114.55268073533816,0.0,107.435883,0.4146921870456204,-0.34997901,-0.43211299,-0.720294,1.0,0.0,0.0,0.0,131.00013293316806
1.5118,2268.7039,-13.962674563031761,-1.3687802121302082,-8.367774160681826,0.11401906579111776,-8.366924422703166,-0.3768854540498989,2.2945415518609025,11.217922559459419,-34.07583249075961,-108.61676,-123.5929841940032,0.0,108.61676,0.3781364135834572,-0.284807,-0.46593001,-0.74753398,1.0,0.0,0.0,0.0,135.56340898999176
1.5273,2268.7239,-12.193708917888337,-1.4656627814168943,-10.440756155882788,0.4488467853213307,-8.093207490238255,-0.7188250403857968,1.2652473704257936,10.996506040488736,-34.115649004287725,-110.940308,-132.34127047749678,0.0,110.940308,0.338674607675833,-0.22029699,-0.49384001,-0.76999402,1.0,0.0,0.0,0.0,140.4077108581722
1.5481,2268.7439,-10.222646553548845,-1.5487484374182956,-11.831095154389795,0.8718594860006669,-7.77618431890686,-1.0559761873907925,0.17635281828707505,10.67064320036064,-34.57374287682468,-114.892662,-140.7661629480126,0.0,114.892662,0.2973554483352875,-0.15788899,-0.51485401,-0.78840101,1.0,0.0,0.0,0.0,145.40233149398907
1.5672,2268.7639,-8.38792454769998,-1.4935353990814546,-12.364696243164513,1.315589682607508,-7.454890699435667,-1.4120547600436424,-2.121967830590844,10.236222693689896,-35.313236451382025,-120.161766,-147.20987658806536,0.0,120.161766,0.2617231327306756,-0.113783,-0.52422303,-0.80233699,1.0,0.0,0.0,0.0,149.6553373197039
1.5906,2268.7839,-6.844166642148547,-1.2073891907797165,-12.422740640844873,1.7103514252079453,-7.170515296384109,-1.7866319135291482,-5.4582156388502945,9.742081753723308,-36.06071991911899,-126.509239,-152.079219068632,0.0,126.509239,0.2287599270518288,-0.088769,-0.52455503,-0.81524903,1.0,0.0,0.0,0.0,153.55185106850467
1.6157,2268.8039,-5.519247516812209,-0.6671739368317968,-12.450229404387173,2.0645447575297693,-6.931573394992272,-2.1815313202122715,-8.58494109356952,9.576996455864476,-36.62662758765072,-135.268341,-157.10340087884134,0.0,135.268341,0.1899622650299777,-0.069508,-0.517883,-0.83119202,1.0,0.0,0.0,0.0,158.098835923908
1.6289,2268.8239,-4.37114706169214,0.06735625805682677,-12.502574356535614,2.3941591082810323,-6.718445265482385,-2.6013622867355974,-11.304387099274901,9.781001898441914,-36.85499720393307,-145.775055,-162.26277620145908,0.0,145.775055,0.1473877964853246,-0.053388,-0.50471199,-0.84893602,1.0,0.0,0.0,0.0,163.04884850052363
1.6546,2268.8439,-3.372275602741918,0.9827580142357559,-12.559444508244017,2.6963233729537097,-6.474026062566606,-3.1178306171419465,-13.611129104348628,10.477587336542635,-36.50866495560118,-157.027878,-167.441011851512,0.0,157.027878,0.1032605579977173,-0.039272,-0.482687,-0.868797,1.0,0.0,0.0,0.0,168.14608179937008
1.6732,2268.8639,-2.482444359024306,2.0962955715396383,-12.54004520796664,2.9544217286479553,-6.127218907585035,-3.7762219901365044,-15.70723683041999,11.591967597561368,-35.44025978849007,-167.471817,-172.49951613148946,0.0,167.471817,0.0588033488764008,-0.028657,-0.45045599,-0.89039898,1.0,0.0,0.0,0.0,173.2577431620729
1.6882,2268.8839,-1.5404801460930106,3.43350431438665,-12.32561027967821,3.1316427557292026,-5.641318419834493,-4.515479411930034,-17.301082582733926,13.087457101536604,-33.86897410085146,-177.481262,-178.30686932544816,0.0,177.481262,0.0065520382385246,-0.021517,-0.408306,-0.91256797,1.0,0.0,0.0,0.0,179.24918635141088
1.7101,2268.9039,-0.32279099361179264,4.845368362869514,-11.794638266485766,3.3814099516832954,-5.075844605707293,-5.043506691991869,-17.572245655671278,14.233483019340738,-32.824575651639094,171.564468,173.80743421238432,0.0,171.56446800000003,0.0602513227039853,0.005807,0.36506799,0.92901099,1.0,0.0,0.0,0.0,173.0915228064611
1.7361,2268.9239,1.085191565777023,6.132881694492646,-10.650291376551879,3.7029769684615275,-4.379025094259016,-5.36582281415305,-17.31548489792614,15.262692907368697,-32.211625311601544,161.415695,165.06647257761108,0.0,161.41569500000003,0.1326221958503925,-0.012786,0.316048,0.93934101,1.0,0.0,0.0,0.0,164.7577092321592
1.7541,2268.9439,2.456389414940135,7.012434329224869,-8.685299716692597,4.004860505053021,-3.4825988717528866,-5.555812619698566,-16.941211100513264,17.01646423671108,-31.5661995341282,152.884766,156.18823705727178,0.0,152.884766,0.2066430476486919,-0.024812,0.25245899,0.94495898,1.0,0.0,0.0,0.0,156.14860314121984
1.7745,2268.9639,3.4217176069580932,7.215148014725849,-6.093011643344211,4.343832833042068,-2.438855052933368,-5.531587838142875,-16.257561676404933,19.30145467848996,-30.905362421678156,145.789871,147.72232859942508,0.0,145.789871,0.2765813599818316,-0.032354,0.176119,0.94415998,1.0,0.0,0.0,0.0,147.88744983597013
1.7884,2268.9839,3.8213498131602255,6.862349614845877,-3.5244995589449175,4.6557412948083785,-1.4976666151661502,-5.2994627620057715,-15.57254275970443,21.04950501855873,-30.412749053911256,139.589432,140.31091234681745,0.0,139.589432,0.3378812074398923,-0.03301,0.103942,0.93484902,1.0,0.0,0.0,0.0,140.50432350931132
1.8067,2269.0039,3.858820906054464,6.270398385482465,-1.3163493020728048,4.91207680943258,-0.7765726243309734,-5.000290051672121,-14.943817019730126,22.100130635515573,-30.029810704209005,133.498474,133.57716702051093,0.0,133.498474,0.3933591538655221,-0.025356,0.039869,0.91816998,1.0,0.0,0.0,0.0,133.67264416654996
1.8283,2269.0239,3.793954598784781,5.6844628758924145,0.5656729582321489,5.1339634069417,-0.2534050890903812,-4.745375305133347,-14.535698998665596,22.52106316440632,-29.68524081302827,127.407341,127.42723980240775,0.0,127.40734099999997,0.4429417122119115,-0.010238,-0.018012,0.89631099,1.0,0.0,0.0,0.0,127.41654975031365
1.8548,2269.0438,3.759584368809906,5.191183202722691,2.360999001773571,5.360440314054852,0.12185528810814716,-4.544855764109804,-14.170820917824464,22.390752851586775,-29.58203091631874,121.295753,121.7956249018822,0.0,121.29575299999999,0.486808349058743,0.005998,-0.071645,0.87054503,1.0,0.0,0.0,0.0,121.73796279921697
1.8705,2269.0638,3.9053202281045305,4.514207388462728,4.346301640348877,5.5532007501494824,0.4703760101221053,-4.412283134645228,-13.809944271660576,22.253845362017145,-29.43492362166491,114.882378,116.45451562648367,0.0,114.88237800000002,0.5268073255570577,0.025103,-0.125264,0.84032899,1.0,0.0,0.0,0.0,116.42001721015087
1.8921,2269.0838,4.306923141435616,3.2613335935940695,6.609017826249236,5.6687705593842965,0.9258583236322111,-4.320083273218331,-13.494388709862708,22.437564343868285,-28.983290421180616,108.020721,111.28103651248763,0.0,108.02072099999998,0.5633153673687582,0.050399,-0.179509,0.80492997,1.0,0.0,0.0,0.0,111.42922198264105
1.9144,2269.1038,4.838975699525944,1.363935551158894,8.975663297328932,5.746538891176576,1.4950656164738296,-4.166340350155774,-12.906102828961822,22.61994613488477,-28.623154249044767,100.774529,106.09428254548004,0.0,100.77452900000003,0.5976770989891782,0.076699,-0.22910599,0.764467,1.0,0.0,0.0,0.0,106.59257472329385
1.9315,2269.1238,5.6575026564221345,-1.1669793757045261,11.089491069814027,5.803795480773816,2.1679540187882864,-3.953489684407284,-12.29201343368358,22.70649520802065,-28.382341142716005,93.291672,100.31613001533432,0.0,93.291672,0.6326343586265292,0.108429,-0.26825899,0.71836901,1.0,0.0,0.0,0.0,101.51050145714947
1.9503,2269.1438,6.611116669162342,-4.249063061432723,12.618678613401546,5.9273604556856805,2.9729856847054195,-3.598394612189944,-11.691516223192501,22.74920309243794,-28.267540816551385,86.474243,94.49015459409222,0.0,86.474243,0.6632898259445865,0.147315,-0.30022001,0.669487,1.0,0.0,0.0,0.0,96.89748222928385
1.969,2269.1638,7.697354619256769,-7.492296812437541,13.24066902592508,6.138671076659913,3.817211376144005,-3.126576061856137,-11.187718309043024,22.631933203154226,-28.35107264741393,80.979164,88.80027817931156,0.0,80.97916399999997,0.6876759078880251,0.19325501,-0.32368401,0.62046999,1.0,0.0,0.0,0.0,93.10716551709751
1.9873,2269.1838,8.895327046405294,-10.64437467104449,12.670986184904198,6.406996240574524,4.566469458181959,-2.6123571060543167,-10.767552566290883,22.503684898553175,-28.503983435232502,76.752625,82.92733949490388,0.0,76.75262499999997,0.7066970890238897,0.246823,-0.339228,0.56972098,1.0,0.0,0.0,0.0,90.06637423787544
2.0232,2269.2038,10.134359317666632,-13.680895382523609,10.529794633358321,6.639024163143697,5.1476720995925795,-2.094085335375838,-10.604452671867298,22.828912635684915,-28.269515555863602,73.852264,76.48457919449679,0.0,73.85226399999999,0.718730204195969,0.31364101,-0.34912199,0.51300102,1.0,0.0,0.0,0.0,88.1005139701776
2.0376,2269.2238,10.944987613987932,-15.930489697696276,7.112587278754052,6.78624603727164,5.441755058503988,-1.661167622013931,-10.489888569181828,23.2850494436465,-27.937940641323195,72.180786,69.49832314181229,0.0,72.18078600000001,0.7243598578877763,0.38482001,-0.35190099,0.45097899,1.0,0.0,0.0,0.0,87.1687568439996
2.0564,2269.2438,11.000483223225293,-16.880101966641856,3.232690886824317,6.796930673791479,5.467360623303796,-1.374969476136272,-10.260190810186973,23.46428164370676,-27.87690258053014,71.776131,62.6149584836776,0.0,71.77613100000002,0.7234356151658555,0.45161501,-0.348021,0.38931501,1.0,0.0,0.0,0.0,87.32227087440776
2.1049,2269.2638,10.356842721079367,-16.688853223956016,-0.6020106513061858,6.642037444901079,5.3282810591338885,-1.1908212624335768,-9.983448802674536,23.590954513384027,-27.907855915358173,73.029556,56.12647065672246,0.0,73.02955600000001,0.7139360211657761,0.51576102,-0.340047,0.32962701,1.0,0.0,0.0,0.0,88.88786007191206
2.1132,2269.2838,9.03592080514274,-15.737793360683673,-3.913710389876048,6.399371953878553,5.01829776847727,-1.1269998433102646,-9.61826499086126,23.751262280182893,-28.061994448247862,75.419266,49.717976796890035,0.0,75.419266,0.6998212216928977,0.574251,-0.32911301,0.268646,1.0,0.0,0.0,0.0,91.17467529677783
2.1135,2269.3038,7.178070801339771,-14.423613467176096,-6.325567631137771,6.148588601604089,4.54647722757919,-1.1500192876173871,-9.059963814573504,23.820691432672216,-28.524828336683882,78.479759,43.690545934705646,0.0,78.479759,0.6841103702114005,0.62273598,-0.31823301,0.207173,1.0,0.0,0.0,0.0,93.66863417381114
2.1311,2269.3238,5.125232375924067,-13.037957959271932,-7.933135484391311,5.930590147550792,3.974143378710133,-1.157982132700342,-8.353579117129522,23.937706111585623,-29.095343930192442,82.975723,38.496174855632184,0.0,82.97572300000002,0.6641302054572126,0.66402698,-0.31042799,0.147084,1.0,0.0,0.0,0.0,96.76873663414331
2.1484,2269.3438,3.2611839069166053,-11.691633740726056,-9.006935098994694,5.755682491788523,3.39501080426942,-1.094990864694926,-7.709236467354664,24.25122630426269,-29.469891420280717,90.6269,34.39998550938804,0.0,90.62689999999998,0.635722746322325,0.70319003,-0.304746,0.092251,1.0,0.0,0.0,0.0,101.05278030977925
2.1748,2269.3638,1.7656322645907496,-10.46512557358557,-9.576772183259555,5.647479236137616,2.834412997079723,-1.0723260341300915,-7.42139439043596,24.144408499775132,-29.974744479671074,100.047661,31.030862831905566,0.0,100.047661,0.606813647402528,0.73589098,-0.29681599,0.046281,1.0,0.0,0.0,0.0,105.28107237621057
2.1875,2269.3838,0.5055429155134539,-9.421065836748888,-9.770852519495932,5.669953475395097,2.213794510846581,-1.0698678536305062,-6.973309994869783,23.23908106875383,-30.951011184524244,107.81823,28.902223711184483,0.0,107.81822999999997,0.5833744306462187,0.75716001,-0.293733,0.010194,1.0,0.0,0.0,0.0,108.62353237205333
2.2127,2269.4038,-0.6053281704881951,-8.451509667357238,-9.7810695269928,5.7995143646740015,1.4764258862497388,-1.0434640532966108,-6.227317196997831,21.285975455855514,-32.46811132916723,111.621376,28.118795970873197,0.0,111.621376,0.5689869592212108,0.76591998,-0.298888,-0.016923,1.0,0.0,0.0,0.0,110.64077297714712
2.2347,2269.4238,-1.4444768951166769,-7.40606228801494,-10.016006506942924,5.926541699643952,0.7314197883808472,-0.9415265426872965,-5.85357968195812,19.324060192350196,-33.583648961953536,115.855247,27.77444690086315,0.0,115.85524700000002,0.5513966003436728,0.77594,-0.30382201,-0.039637,1.0,0.0,0.0,0.0,113.07424312077289
2.2499,2269.4438,-1.951874016563814,-6.213082517412926,-10.408011460041772,5.978535878593006,0.0030418129231141178,-0.7608530814758234,-5.920727512995155,17.403485701936013,-34.320446800427824,120.544968,27.70292878650199,0.0,120.54496799999998,0.5303870586826562,0.78847402,-0.30630001,-0.056379,1.0,0.0,0.0,0.0,115.93677889271073
2.2845,2269.4638,-2.181329196628539,-4.857783404204763,-10.866189355588462,5.894947933726644,-0.8193383159614509,-0.5250351948204808,-6.214309588421729,15.888665636840724,-34.62369551125117,124.832008,28.268429239660254,0.0,124.83200799999997,0.5037242583240554,0.80175298,-0.312861,-0.074646,1.0,0.0,0.0,0.0,119.50659529523959
2.2968,2269.4837,-2.023056223224421,-3.465097975676559,-11.263395276544717,5.656752537582846,-1.702592278968985,-0.23118397489802178,-6.695417092126469,14.488404209257142,-34.76171130191379,127.519821,29.695883936574404,0.0,127.51982099999998,0.4749548160696752,0.81313503,-0.32410601,-0.090469,1.0,0.0,0.0,0.0,123.2871837037397
2.3062,2269.5037,-1.4017928316177486,-2.220106521639333,-11.588557390873833,5.375501788985894,-2.477138925893375,0.13862535847699742,-7.3638099939016275,12.528904610813878,-35.04612973360506,128.4776,31.53041265047942,0.0,128.4776,0.4507600747333329,0.822528,-0.33412999,-0.092845,1.0,0.0,0.0,0.0,126.41507996141378
2.3304,2269.5237,-0.40836751528935467,-1.09455139844537,-11.939873844233809,5.211722847818853,-3.0558947589562497,0.49342522911973674,-7.989275849784953,10.525074274900833,-35.265302927651405,129.587982,33.383570980865805,0.0,129.587982,0.4228334352956724,0.83635098,-0.33924499,-0.081497,1.0,0.0,0.0,0.0,129.9727924235565
2.3469,2269.5437,0.855521145305194,0.12881094512759805,-12.23284899676618,5.210180376895183,-3.521307209945614,0.6791935622450858,-8.178897835222397,9.613338389492665,-35.17825106619992,131.722656,35.63886103791155,0.0,131.72265600000003,0.3747682517570025,0.858509,-0.343835,-0.065487,1.0,0.0,0.0,0.0,135.98001978371735
2.3788,2269.5637,2.336275659561199,1.4699604530052715,-12.208228135186971,5.317663666153661,-3.9260023440946092,0.6957093873066367,-8.48938192958498,8.794313293369393,-35.02618826796553,133.294434,37.91023662023164,0.0,133.29443400000002,0.319994453103893,0.87847698,-0.35085899,-0.052723,1.0,0.0,0.0,0.0,142.67482113477496
2.3918,2269.5837,4.051123733182139,2.8649429645669633,-11.58203909787764,5.462380836080515,-4.226845419549495,0.6708984563682647,-8.645861549018006,8.054831299931022,-35.013129424084596,134.377899,40.18105460074914,0.0,134.377899,0.2562177731394127,0.89663702,-0.359063,-0.038318,1.0,0.0,0.0,0.0,150.30848817862812
2.408,2269.6037,5.869739530487347,4.103220755149699,-10.145500681139872,5.566923887405224,-4.378561020221175,0.7800954081830109,-8.44526864765924,7.0663459507770785,-35.41560405093334,135.11998,41.978743502396235,0.0,135.11998,0.1887359680326965,0.91150397,-0.365073,-0.016154,1.0,0.0,0.0,0.0,158.24194814334447
2.428,2269.6237,7.616586224756849,4.875022707536747,-8.002726674035465,5.511118029907243,-4.474641232034702,0.9628973073197266,-8.367302384047223,6.3735338881425845,-36.03925584025689,135.612732,43.238840995657455,0.0,135.612732,0.1195488086235055,0.92127198,-0.37007099,0.003672,1.0,0.0,0.0,0.0,166.26787246484622
2.4488,2269.6437,9.061118109316165,4.907160712128643,-5.1323551642906775,5.212873722090773,-4.591020735785775,1.2943419285127633,-7.504947021014552,6.7734845849096725,-36.88075250404963,135.899155,44.053418013699115,0.0,135.899155,0.0386362553956765,0.926135,-0.37401,0.029962,1.0,0.0,0.0,0.0,175.57150901371773
2.4674,2269.6637,9.926965106885582,4.242516832714134,-1.9092994737928244,4.707254016644438,-4.723022686538512,1.7440180733025357,-6.056703877630231,7.990532756764534,-37.720951813118376,136.930969,43.20667288207689,0.0,136.930969,0.0476377081125859,-0.92623901,0.368516,-0.063308,1.0,0.0,0.0,0.0,174.53905396189535
2.4864,2269.6837,10.305697366319723,3.2375734981491266,1.1224164560185521,4.001420481751374,-4.9016610012418385,2.311467038820954,-4.490831979846696,8.93935500384185,-38.456801630905154,138.655014,41.020101511339504,0.0,138.655014,0.1212070159561726,-0.920834,0.35609999,-0.102793,1.0,0.0,0.0,0.0,166.07646398249094
2.5078,2269.7037,10.268388479516915,2.3786749252409054,3.8756138690410005,3.2018834893018577,-5.0913206630842724,2.920224813222157,-2.984676942022931,9.590065518012262,-38.974692078144464,142.118073,36.94931886876157,0.0,142.11807299999998,0.1833855219238408,-0.91346902,0.33244801,-0.146364,1.0,0.0,0.0,0.0,158.86596130970236
2.5263,2269.7237,9.903387347799054,1.9592668781176243,6.380277350808829,2.363118701432796,-5.326034424982788,3.4947032341963604,-1.712581263992747,10.000313594218307,-39.26580835860284,147.785767,30.909627387150678,0.0,147.78576699999996,0.2354582511248217,-0.90506399,0.29769599,-0.19182201,1.0,0.0,0.0,0.0,152.76272671961857
2.5463,2269.7437,9.618311189196735,2.0267246172218485,8.484480384294308,1.5994030737170273,-5.67905337939502,3.8897646414463996,-1.749004433880879,10.298360108116515,-39.33297506602229,154.765549,23.795366402890956,0.0,154.76554899999996,0.2759243041824322,-0.89779902,0.25747299,-0.22700299,1.0,0.0,0.0,0.0,147.96579155437362
2.5713,2269.7637,9.057299854276014,2.58276790466744,10.389244936713915,0.9961453485496535,-6.175582283923932,4.056969423041769,-2.745178722728855,10.469987017968672,-39.22759998113074,163.803101,14.974279716131194,0.0,163.80310099999997,0.3106428439926144,-0.89180899,0.206645,-0.25588199,1.0,0.0,0.0,0.0,143.80404896866185
2.6168,2269.7837,7.549826854616313,3.2464730730285876,12.236053527852846,0.5048760892408822,-6.804499887874137,3.949393765304362,-3.707358908336504,10.553174127862508,-39.000364895035474,175.309189,4.281751212422063,0.0,175.309189,0.3437324505378261,-0.88140303,0.14629599,-0.289092,1.0,0.0,0.0,0.0,139.7911219388551
2.6188,2269.8037,4.849874079432825,3.6276849575187438,13.776709628029941,0.024861199702827297,-7.445063664448932,3.609340566115651,-4.026569377738259,10.585861461036178,-38.78336540415857,-171.801971,-7.6315635175614025,0.0,171.801971,0.3716640212011649,-0.86212099,0.084645,-0.333839,1.0,0.0,0.0,0.0,136.36344312362942
2.6384,2269.8237,1.221808316199409,3.7553499170473987,14.52372722763928,-0.5159123899581584,-7.930879179538785,3.1821158229418263,-3.6190148419318913,10.629794583945031,-38.667522278168654,-159.630493,-20.442035079667914,0.0,159.630493,0.3889016429682441,-0.83392298,0.027219,-0.39062399,1.0,0.0,0.0,0.0,134.22765266058153
2.6527,2269.8437,-2.7348014945537367,3.8773098150115324,14.122116123266373,-1.0899148807624603,-8.172082840639245,2.7872363145629118,-2.84695877921828,10.814836801960096,-38.5874081829257,-149.831406,-34.13830030669598,0.0,149.831406,0.3945288664365117,-0.79934603,-0.026594,-0.45242199,1.0,0.0,0.0,0.0,133.52681217998523
2.6686,2269.8637,-6.374702079496,4.109726285081917,12.582971789378558,-1.5626465441911692,-8.190113628155082,2.4736684172133208,-2.2964709768344376,11.128813634945299,-38.44232050202181,-142.361084,-48.161858422715426,0.0,142.361084,0.3920654320593943,-0.76206601,-0.081899,-0.50875598,1.0,0.0,0.0,0.0,133.83384438735874
2.6878,2269.8836,-9.412969429289172,4.389753528241002,10.149977416338615,-1.8978152789908287,-8.058414784418119,2.227375073661956,-2.0120111963440364,11.397088491651633,-38.24239407002156,-136.629425,-61.67130693515235,0.0,136.629425,0.3827520931813691,-0.72346902,-0.140973,-0.55697399,1.0,0.0,0.0,0.0,134.9914836612166
2.707,2269.9036,-11.752681582628812,4.55926448489646,7.123966083996745,-2.1402743194330838,-7.848524796729988,1.9674225994050238,-1.7096210127264624,11.573565898383421,-37.998466214923575,-132.430084,-74.34936646105008,0.0,132.430084,0.3657518443540372,-0.68271899,-0.200857,-0.599814,1.0,0.0,0.0,0.0,137.09228037862377
2.7262,2269.9236,-13.29463652915772,4.409703968924187,3.906648770347264,-2.2918367695250543,-7.634945426748485,1.5911748126875787,-1.402040586262113,11.861158885156165,-37.615825134026146,-129.582977,-86.0904736576636,0.0,129.582977,0.3431337098162753,-0.63908601,-0.256201,-0.638897,1.0,0.0,0.0,0.0,139.86417592483528
2.7501,2269.9436,-14.079613644045331,3.8530693891642542,0.8594833225915561,-2.280247721030145,-7.4927957696958405,1.0739581163567629,-1.4033295474765772,12.271967314864682,-37.07570071773652,-127.601219,-96.83308957413766,0.0,127.601219,0.3187922391981015,-0.59239399,-0.30572999,-0.67377299,1.0,0.0,0.0,0.0,142.82019929687473
2.7662,2269.9636,-14.212528348428044,3.1145115146314812,-1.8360786042769117,-2.0907029224741764,-7.454075055633792,0.502688841586691,-1.9468311459280674,12.501672861773963,-36.56336941586872,-126.457367,-106.54833206802688,0.0,126.457367,0.2919769142453898,-0.54504699,-0.34951201,-0.70392799,1.0,0.0,0.0,0.0,146.04730375196777
2.7867,2269.9836,-13.84714812813214,2.5410848249813403,-4.2627386709794335,-1.8018247651995773,-7.508185699741194,-0.03009441122219292,-2.6790317096482177,12.428612807475579,-36.29465018054174,-126.710548,-115.97947341506466,0.0,126.710548,0.2574247868171188,-0.498025,-0.386738,-0.73221397,1.0,0.0,0.0,0.0,150.16537439680647
2.8084,2270.0036,-13.066788919700004,2.1974753606212345,-6.501449114769283,-1.4448504628459795,-7.630362295592564,-0.482412978152156,-3.388388506366919,12.293833175207233,-36.311863096792244,-128.50946,-125.48760303068853,0.0,128.50946,0.2160108206617434,-0.45015201,-0.416587,-0.759709,1.0,0.0,0.0,0.0,155.05032664204356
2.8296,2270.0236,-11.903314517906269,1.99116235022966,-8.619767802198169,-1.0301266119496235,-7.755158365709953,-0.8725767550780223,-3.8602349713145045,12.294063705519383,-36.568834470046085,-131.916824,-135.2998402899861,0.0,131.916824,0.1712573535179144,-0.397504,-0.439199,-0.78725201,1.0,0.0,0.0,0.0,160.27813542377552
2.8472,2270.0436,-10.356807899636147,1.8900999396356881,-10.558123399223483,-0.59036608507015,-7.785109890722393,-1.2647288232197544,-3.916949667744042,12.473214200239084,-36.984437043245904,-137.504272,-145.388463636066,0.0,137.504272,0.1251265833780299,-0.338173,-0.45348799,-0.81506503,1.0,0.0,0.0,0.0,165.62386826403224
2.8694,2270.0636,-8.576790815803221,1.947142164482802,-11.812158877490774,-0.20355157170734417,-7.634179522378625,-1.7596018445520722,-4.948802357086041,13.027114004707308,-37.1822139899175,-144.3694,-153.3296537753437,0.0,144.3694,0.0878286410070175,-0.289693,-0.45399901,-0.83800298,1.0,0.0,0.0,0.0,169.9225947044814
2.889,2270.0836,-6.793188791793595,2.2614848768728715,-12.51126167162694,0.0561792174262844,-7.300247157594568,-2.331540385422218,-6.71589008003302,13.66021757068245,-37.05132675925941,-151.985352,-159.75756468139767,0.0,151.985352,0.0525222799388931,-0.25641,-0.44516701,-0.85634202,1.0,0.0,0.0,0.0,173.9786194714135
2.907,2270.1036,-5.104815621647741,2.8210612131249415,-12.87620789587794,0.2014573056210449,-6.8658642860202255,-2.9050158086411857,-8.465452740431443,14.238713291652232,-36.589687279510756,-160.764984,-166.17215768015018,0.0,160.764984,0.0100837996876121,-0.23373,-0.43131599,-0.87134099,1.0,0.0,0.0,0.0,178.8444620892281
2.9285,2270.1236,-3.6164187960436065,3.566272748632631,-12.898991607127062,0.2974650955100828,-6.394997197491925,-3.5183124177337444,-10.394580697560624,15.185424622004003,-35.548332336211615,-169.859528,-172.50935366024675,0.0,169.859528,0.0350601819056726,0.220351,0.40940699,0.88464803,1.0,0.0,0.0,0.0,175.98157555661146
2.9491,2270.1436,-2.35858022307206,4.482524330008849,-12.585032339209159,0.4258585464157519,-5.883710282127889,-4.2350808281333645,-12.33437050932768,16.841527485916906,-33.81977822399896,-178.707642,-178.98574111918975,0.0,178.707642,0.0783831682998326,0.209503,0.37466401,0.899773,1.0,0.0,0.0,0.0,171.00872752031358
2.9689,2270.1636,-1.1961341360380668,5.530975306244343,-11.978778506140142,0.5234743890701963,-5.353945583731062,-4.982497369995687,-13.934526801441752,18.904778139008442,-31.702996473820896,172.503754,173.6500708367259,0.0,172.50375399999996,0.1265009782917895,0.200736,0.32984301,0.91373199,1.0,0.0,0.0,0.0,165.46511270354785
2.9884,2270.1836,0.07482007251597,6.576205454300329,-11.13062845784389,0.618531253103509,-4.819496399975261,-5.673981946065205,-14.957355122850185,21.009832709054137,-29.646989076599958,163.473297,165.00368016680096,0.0,163.473297,0.1828682541976568,0.191323,0.28001401,0.92279297,1.0,0.0,0.0,0.0,158.92625544251274
3.006,2270.2036,1.6003550410866612,7.441169025188232,-9.966515146159914,0.7997579986970327,-4.235726651049442,-6.269368458550212,-15.17983445890243,23.158819688754242,-27.9260388985385,153.961136,155.01801205795883,0.0,153.961136,0.2480091075365962,0.177761,0.22465099,0.92543203,1.0,0.0,0.0,0.0,151.2805347136204
3.0265,2270.2236,3.2566076745641164,7.938657443264448,-8.372499987151306,1.1839122551551216,-3.5717803600389524,-6.721076405061229,-14.727216998105442,25.187096648134155,-26.635372225976088,144.636551,144.760700587759,0.0,144.636551,0.3158248033869721,0.15800899,0.163369,0.92119402,1.0,0.0,0.0,0.0,143.17877281032494
3.0489,2270.2436,4.869767929435907,7.958524343188801,-6.431574591362664,1.6843804720577071,-2.8775596549203524,-6.998791430592233,-14.120644265270043,26.927548405564536,-25.52100933883709,136.040802,135.22390790776805,0.0,136.04080199999999,0.3813479137559299,0.140607,0.100425,0.90814,1.0,0.0,0.0,0.0,135.16559888738598
3.0671,2270.2636,6.382935974042298,7.461950890310646,-4.32734343848238,2.230696072308745,-2.219571723660338,-7.108346854590827,-13.49792298046602,28.345835723472746,-24.382056413398384,127.919083,126.48233370094576,0.0,127.919083,0.4432050890160219,0.129565,0.038188,0.88618499,1.0,0.0,0.0,0.0,127.3828841034868
3.0866,2270.2836,7.77292977392937,6.442259668380389,-2.1822786719262615,2.844092839465445,-1.724352878573987,-7.027657798705483,-12.406322699924644,29.338324137367213,-23.50927564062235,119.406799,118.01448548268534,0.0,119.40679899999998,0.5047799825788658,0.119286,-0.022673,0.85466599,1.0,0.0,0.0,0.0,119.36650358623464
3.1078,2270.3036,8.979030904499579,5.0056243349024445,-0.0629966394393815,3.4510007467803763,-1.416545871415194,-6.808532630784879,-11.233543332699327,29.794577296069352,-22.903885193457985,110.752403,110.11228688707668,0.0,110.75240300000002,0.5624245429588218,0.111648,-0.080729,0.81528902,1.0,0.0,0.0,0.0,111.5527251334086
3.1278,2270.3235,9.963853616428427,3.35869749440445,2.0569383045519345,3.972357559778462,-1.2056763677821878,-6.539287448591019,-10.67923533641055,29.590217137404196,-22.601612555501976,102.782623,103.4500131566354,0.0,102.782623,0.6097087940003318,0.109356,-0.13390601,0.77354097,1.0,0.0,0.0,0.0,104.86310029422256
3.1469,2270.3435,10.56353886805012,1.3377319032805328,4.434590519733266,4.436304314726773,-0.9584318952496829,-6.2215464653807775,-10.306840091612303,29.01729742790694,-22.69199849445368,95.095116,97.82405557125958,0.0,95.09511600000002,0.6483332038188389,0.108861,-0.188844,0.729487,1.0,0.0,0.0,0.0,99.16789969800801
3.1847,2270.3635,10.552790502869415,-1.2655658486558226,7.046457122775454,4.82865716729035,-0.6243588066523922,-5.816996718093029,-9.65179435247232,28.241434981368155,-23.393055624310875,86.927223,92.59901652168313,0.0,86.92722300000003,0.6827917758055377,0.10738,-0.245206,0.67980802,1.0,0.0,0.0,0.0,93.87562133059639
3.19,2270.3835,10.27716979849049,-4.569876165403284,9.252184943104105,5.016384218166741,-0.06760963241329676,-5.4275024753363335,-9.434456302652329,27.641574332354857,-24.105031658979094,78.413452,86.86882977739545,0.0,78.413452,0.715631093821684,0.118951,-0.29386601,0.62238699,1.0,0.0,0.0,0.0,88.61011302438565
3.2096,2270.4035,9.654934464402919,-8.130931238871565,10.814643870679337,5.183933991260309,0.7172724178966012,-4.941375743131496,-9.5467940337634,27.205403078812864,-24.962275496048832,70.637497,81.39878556570088,0.0,70.637497,0.7423032828536459,0.138854,-0.335116,0.56338501,1.0,0.0,0.0,0.0,84.14401740301723
3.232,2270.4235,9.042458285206704,-11.487906578069136,11.526742974775363,5.417187600882116,1.5988995780163593,-4.382385886715272,-9.87343518691474,26.913198001939154,-25.923676765575724,64.082253,76.01144947018376,0.0,64.08225299999998,0.7639957012478404,0.166114,-0.36523101,0.50529498,1.0,0.0,0.0,0.0,80.36454456066545
3.2468,2270.4435,8.788521211035931,-14.354013764042488,11.363143697550946,5.771573516458786,2.430828335172302,-3.8442163338446083,-10.29751073127561,26.676752404351383,-26.87746133570878,58.895668,70.43576633248534,0.0,58.895668,0.7823902835865614,0.199843,-0.382155,0.44931701,1.0,0.0,0.0,0.0,77.04009696493502
3.2755,2270.4635,8.791995205466357,-16.8883174641422,10.244440342440729,6.279356713929287,3.117626776281286,-3.364629477527992,-10.45382704024222,26.643076098709322,-27.51658570410785,54.725929,64.63171365194374,0.0,54.72592900000001,0.796896982417464,0.240701,-0.39096099,0.39264199,1.0,0.0,0.0,0.0,74.33040128908806
3.2918,2270.4835,8.742232120080171,-19.229046928039104,7.996620491152594,6.891783368571245,3.599701147770165,-2.9328071460835288,-10.139767029894296,26.907656817844373,-27.637354808645263,51.38348,58.67990897994417,0.0,51.38347999999999,0.8053531735153588,0.29004699,-0.39610299,0.33223701,1.0,0.0,0.0,0.0,72.711245998707
3.3169,2270.5035,8.333242623140547,-21.111337006190702,4.647120529525729,7.496642464438576,3.810516328934657,-2.5758797443385024,-9.452666997848407,27.282104160073764,-27.40348710818968,48.709911,52.4249797707347,0.0,48.709911000000005,0.8074201470940514,0.34537801,-0.39703801,0.26673499,1.0,0.0,0.0,0.0,72.3107335581538
3.3282,2270.5235,7.314685120396126,-22.103849275851083,0.4692091221860295,7.9681423412085275,3.748581543623715,-2.2738742907715235,-8.561391755535988,27.671607976091373,-27.04573355704151,46.903198,46.185544880653254,0.0,46.903198,0.8011241607479079,0.40410799,-0.39464399,0.197871,1.0,0.0,0.0,0.0,73.52482743209917
3.3504,2270.5436,5.690544216761961,-21.82190177522491,-4.092959675482209,8.189371015641488,3.4664290274499012,-1.9682036792721096,-7.690022415084195,28.17993137164792,-26.60566456198836,46.720539,40.50427021845084,0.0,46.720539,0.783670858466461,0.46582499,-0.39015299,0.129026,1.0,0.0,0.0,0.0,76.80416902253798
3.3785,2270.5636,3.5852185519371735,-20.12896594740242,-8.345441963984078,8.105126298787395,2.9557636455496947,-1.6852644245836164,-7.046651451795586,28.852406984141254,-26.080274302682934,48.660076,35.32908700278025,0.0,48.660076000000004,0.7560039513973189,0.52745301,-0.38282099,0.060823,1.0,0.0,0.0,0.0,81.77365937579509
3.3889,2270.5836,1.3201326117831798,-17.32006622351519,-11.477907137395547,7.73334160359773,2.2350833713336034,-1.4660252426322624,-6.778852745006044,29.50934406152227,-25.613636429560433,53.627552,30.861382587028753,0.0,53.62755200000001,0.7209594827691913,0.58407199,-0.37291899,-0.00296,1.0,0.0,0.0,0.0,87.73249194220395
3.4185,2270.6036,-0.7418256724044503,-14.106996103397579,-13.117373437033422,7.186774211075682,1.3316614784754404,-1.310233044044931,-6.679801919180734,29.97415270092721,-25.370578217308235,62.92342,27.681375034488696,0.0,62.92341999999999,0.6813970021032815,0.63175398,-0.36490899,-0.058536,1.0,0.0,0.0,0.0,94.09418719679488
3.4273,2270.6237,-2.2449229214921447,-11.190618775466005,-13.526514229592284,6.6151714822659295,0.33670995147018806,-1.2141592445640073,-6.558771813373739,30.08845218390056,-25.473400863462796,77.205345,26.391555470879755,0.0,77.20534499999997,0.6394625880717335,0.67023802,-0.36255401,-0.102094,1.0,0.0,0.0,0.0,100.49648458067185
3.4474,2270.6437,-3.017870696390891,-8.96478543250459,-13.287193596835648,6.166670962901083,-0.6084706533922991,-1.164611734079777,-6.444417016888384,29.666225866267293,-26.083771396015216,92.891754,27.233710343179794,0.0,92.89175399999999,0.5974467794419681,0.70175499,-0.36602399,-0.128933,1.0,0.0,0.0,0.0,106.62549057171535
3.4707,2270.6637,-3.2850919796033833,-7.427344244422231,-12.818290976657146,5.9120973371763546,-1.4863209311683532,-1.1915565065782152,-6.463864753203691,28.439368146106474,-27.44648939748245,102.934952,29.177079366355613,0.0,102.93495200000001,0.5626325132468252,0.72304797,-0.37406701,-0.14394499,1.0,0.0,0.0,0.0,111.52390041470755
3.4885,2270.6838,-3.239570662115735,-6.329328300982913,-12.346870903651473,5.808587683006038,-2.3215249346373823,-1.225841435126121,-6.801447809748588,26.110309214425296,-29.61156210464973,106.047997,31.418274011887487,0.0,106.04799700000001,0.541514848355278,0.73116899,-0.38620701,-0.15165,1.0,0.0,0.0,0.0,114.4263584142472
3.5072,2270.7038,-2.8902900076351714,-5.3232187405910105,-12.305805243971353,5.777853004636598,-3.0566011616203133,-1.1856331394126447,-7.1698505645293835,24.020178448416093,-31.197274998207774,108.793297,34.618488522368835,0.0,108.793297,0.5148245912373839,0.74133402,-0.40130499,-0.155993,1.0,0.0,0.0,0.0,118.02853771594549
3.5283,2270.7238,-2.256207201033466,-4.323539596170474,-12.560356584644323,5.701419146281331,-3.720369412185188,-1.0453605661222463,-7.636787544383221,22.266221935236878,-32.18219656996094,111.093384,38.445326084337246,0.0,111.09338400000001,0.4830192409215182,0.752909,-0.41805401,-0.15827601,1.0,0.0,0.0,0.0,122.23444044678081
3.5465,2270.7438,-1.3409722023437758,-3.3723140276546886,-12.912105032416402,5.471170244772605,-4.371392491176687,-0.7624781922124906,-8.239400939315159,20.66193097612023,-32.787108302775025,112.062675,42.78236392140948,0.0,112.06267500000001,0.4497120047364752,0.76233202,-0.437567,-0.15856899,1.0,0.0,0.0,0.0,126.54958404835568
3.579,2270.7639,-0.09553469099569578,-2.5729012722424778,-13.221325761884316,5.091541291026496,-4.970126002230975,-0.2987832284602199,-8.986118867799123,19.020907490431576,-33.24298295517173,111.941055,47.31405431748181,0.0,111.941055,0.4165179363839926,0.77067101,-0.457946,-0.15121,1.0,0.0,0.0,0.0,130.77011080229693
3.5986,2270.7839,1.4618048749571377,-1.9603841447044792,-13.35847049992093,4.620623597298292,-5.470390175992473,0.3230448592225583,-9.632763233002457,17.223187048343814,-33.76705129749139,111.051102,51.77782654957201,0.0,111.05110200000001,0.383421210470443,0.77907699,-0.47840101,-0.13099501,1.0,0.0,0.0,0.0,134.90847601186437
3.6092,2270.804,3.29808705911116,-1.4381554751800836,-13.155543808109497,4.208974794720425,-5.778761506721526,1.0529219202641578,-9.825894501223388,15.088085657865452,-34.5583278734575,110.49424,55.489232158456325,0.0,110.49423999999999,0.3479009987838493,0.79155099,-0.49433899,-0.089671,1.0,0.0,0.0,0.0,139.28203109743785
3.6345,2270.8241,5.199681029461825,-0.7579359954784566,-12.544862913642692,3.9142763152284705,-5.976533703186286,1.4997461359723074,-9.94091375004502,14.03225897903526,-34.905327267414116,112.076561,58.04297685364384,0.0,112.07656099999997,0.2967471433372852,0.81076902,-0.50238502,-0.046947,1.0,0.0,0.0,0.0,145.47533330414078
3.6517,2270.8441,7.000136047069363,-0.04659613595383272,-11.424048943826508,3.7081788364241923,-6.110944027303949,1.749557866227594,-10.175130302444346,13.521397315197712,-35.07513715528775,113.734818,60.04120441155628,0.0,113.73481800000002,0.2393871694345776,0.82711297,-0.50845599,-0.007101,1.0,0.0,0.0,0.0,152.29925311957166
3.6773,2270.8642,8.583059914047125,0.5995138733194847,-9.475799095942916,3.506606783091795,-6.142172538352244,2.027151798257023,-9.547878874585987,13.279007917233692,-35.50305621832217,115.021988,62.08473734724251,0.0,115.02198799999996,0.1718144837280599,0.83860499,-0.51516801,0.042701,1.0,0.0,0.0,0.0,160.21333248568612
3.6953,2270.8842,9.55366887208002,1.154727708959871,-6.5665187663501,3.247939288719205,-6.019576971298479,2.407979459737722,-7.860537964517455,13.142696735954711,-36.2845101608322,116.809639,63.43714399635152,0.0,116.809639,0.0937780081898675,0.84500903,-0.51572001,0.105822,1.0,0.0,0.0,0.0,169.23801831344704
3.7107,2270.9043,9.681035754835284,1.5457634017774753,-3.3002055311792837,2.9363463888274626,-5.739585887828796,2.772446765762935,-6.476088898056256,12.98291555485702,-37.10692397883552,119.656334,63.09086373875428,0.0,119.65633400000002,0.0190000009947099,0.84745997,-0.50444001,0.164289,1.0,0.0,0.0,0.0,177.8226292459613
3.7291,2270.9244,9.071051161202464,1.5870379092764484,-0.08584203920953115,2.4706873877593676,-5.376867857073251,3.0736099883668695,-5.236081812032488,13.01654579314337,-37.91596884530129,123.159592,61.44658119766131,0.0,123.15959199999998,0.0507277046606671,-0.845622,0.48589301,-0.215077,1.0,0.0,0.0,0.0,174.18453726114961
3.7513,2270.9445,8.006762649411199,1.2163954085567283,2.7918123994409267,1.7987275203764503,-5.015175238926508,3.274100386165765,-3.9304564917502116,13.366735574256488,-38.61106027870902,127.204872,58.67953818396472,0.0,127.20487200000002,0.1144891926241058,-0.83988202,0.462897,-0.259262,1.0,0.0,0.0,0.0,166.85167330430727
3.7734,2270.9646,6.941080106202259,0.6917872622075336,5.1571924155838555,1.0012245704104503,-4.710565343383601,3.356918519483922,-2.987572112881576,13.749632026351858,-39.13086379642475,132.403442,54.153857044238855,0.0,132.40344200000004,0.1677866957273428,-0.834849,0.43274501,-0.295984,1.0,0.0,0.0,0.0,160.68168454353417
3.7899,2270.9847,6.1585221930063865,0.2596514166226003,7.11885485380434,0.10353952929686344,-4.539922583480877,3.3389985023167847,-2.405538663630617,13.88958864158089,-39.515604152458415,138.58963,48.43946369108277,0.0,138.58963,0.2069298695874514,-0.83096302,0.398487,-0.328464,1.0,0.0,0.0,0.0,156.11500968229677
3.8099,2271.0048,5.659461586449226,0.058042254102128155,8.867035145928803,-0.8291793176693538,-4.548557198982209,3.2257928774226974,-2.1558503586086557,13.84414241611568,-39.74271254816355,145.514786,41.92095238070826,0.0,145.51478599999996,0.2335373584862169,-0.82828599,0.361873,-0.35839999,1.0,0.0,0.0,0.0,152.98915852122983
3.8413,2271.0249,5.11379738382816,0.1510317437440758,10.522938593400507,-1.7423051029379037,-4.718718428818882,3.0332133288260823,-1.9679215992943764,13.724297115133016,-39.812120010325216,153.291794,34.3907850516911,0.0,153.29179399999998,0.251760761648832,-0.825499,0.321767,-0.389402,1.0,0.0,0.0,0.0,150.83654103726772
3.865,2271.045,4.047139563363955,0.6273628533373312,12.035648927275123,-2.607005772468458,-4.971822579416961,2.7799612709585197,-1.3967286069875193,13.484500057995183,-39.778784513961014,162.266632,25.111443603151685,0.0,162.26663199999996,0.2637671684278382,-0.81993598,0.275565,-0.426844,1.0,0.0,0.0,0.0,149.4125787724767
3.886,2271.0651,2.3693646891211,1.510573526599888,13.126637733887616,-3.4208530674124695,-5.193224426258654,2.4995985583972797,-0.36791582848334214,13.143655664994952,-39.629378681250905,171.359421,14.189902290835304,0.0,171.359421,0.2671431883986181,-0.80960298,0.226299,-0.47113299,1.0,0.0,0.0,0.0,149.01131923051156
3.8983,2271.0852,0.35072022881736076,2.793176311254653,13.484713566489454,-4.157097144916237,-5.314088838333188,2.2312704465982,0.8423071064556578,12.848841449446383,-39.286420498311536,179.370865,1.2569916110897754,0.0,179.37086499999998,0.2611936699757461,-0.79514903,0.17578,-0.51828301,1.0,0.0,0.0,0.0,149.7181958325511
3.9181,2271.1053,-1.6228160471912125,4.465484357304733,12.93780708299585,-4.756380903739515,-5.348627408412067,2.0215330771728572,1.804970088751797,12.662442291534871,-38.740037435442794,-174.128662,-14.561166852225979,0.0,174.128662,0.2468549986136797,-0.779073,0.122453,-0.56312799,1.0,0.0,0.0,0.0,151.4170301556862
3.9295,2271.1253,-3.356742208064114,6.39954887595507,11.477098745221173,-5.168429320463241,-5.3568114425834015,1.895673099390798,2.294204238863816,12.54837870184172,-38.087619112404724,-168.915054,-33.35624111717302,0.0,168.915054,0.2256733014078064,-0.76256698,0.064088,-0.60287303,1.0,0.0,0.0,0.0,153.91505228814685
3.9533,2271.1454,-4.843070439211694,8.274517588004224,9.226807840462545,-5.416665083751657,-5.35081019963323,1.8222822467454085,2.4851455953649655,12.518811253484458,-37.44744066362528,-164.962357,-53.24434774373549,0.0,164.962357,0.1979764845123774,-0.743819,0.00348,-0.63837802,1.0,0.0,0.0,0.0,157.16269152268288
3.9782,2271.1655,-6.2290606648068625,9.65021953580446,6.4314366452729566,-5.510846492281664,-5.364934782260875,1.7129282086902229,2.6353986030830248,12.702038850661449,-36.87089843358734,-161.794525,-73.47442740621888,0.0,161.794525,0.1675183758724973,-0.71948898,-0.057858,-0.67150998,1.0,0.0,0.0,0.0,160.71287317337715
3.9897,2271.1855,-7.500037162822835,10.241330963678584,3.4254154687888203,-5.460364121992213,-5.426058423818587,1.5170765980474616,2.670114416229978,13.163863216227707,-36.377245229243016,-159.225586,-91.99518021112517,0.0,159.225586,0.1373366526621343,-0.68917501,-0.117428,-0.70170301,1.0,0.0,0.0,0.0,164.21248203787871
4.0108,2271.2056,-8.583941628997929,10.065146208359762,0.44989485375431393,-5.260871816597097,-5.556070612892983,1.2537796829291483,2.32621167338821,13.650342468482904,-36.056989452304805,-157.080811,-107.09110429337154,0.0,157.080811,0.1078052082035921,-0.65490401,-0.175698,-0.72705501,1.0,0.0,0.0,0.0,167.6223783207403
4.0318,2271.2257,-9.405955111192018,9.287695905161325,-2.3823519803232216,-4.945570944719215,-5.743190769747812,0.9107342338945835,1.7280276820515912,13.964848624924917,-35.93272456664468,-155.597504,-119.79158776168737,0.0,155.597504,0.0768713022239097,-0.61613399,-0.231058,-0.74905401,1.0,0.0,0.0,0.0,171.18249899140963
4.0503,2271.2457,-9.819394613412694,8.175522976532408,-4.987797953959838,-4.5794232048111265,-5.945709051242094,0.4654852176972347,1.169667889480003,14.165377783850893,-35.93257022020543,-155.557953,-131.75685608791883,0.0,155.557953,0.0415365883269192,-0.57229,-0.278319,-0.77025801,1.0,0.0,0.0,0.0,175.23888786875614
4.0704,2271.2658,-9.817141774787697,6.906847698113121,-7.298316509751878,-4.1413994635666995,-6.181208179263159,-0.0575687991556566,0.5945290867506614,14.335275585731587,-36.027105210256586,-156.982681,-143.1183100598988,0.0,156.982681,0.0045419118595082,-0.523242,-0.31749901,-0.79081702,1.0,0.0,0.0,0.0,179.47953344960152
4.0984,2271.2858,-9.359070660788586,5.744233737649088,-9.252579341904973,-3.6817671160181824,-6.409333868978478,-0.5897817874807751,-0.07367945045517033,14.405229510924874,-36.257979477937425,-160.219772,-153.69895283359193,0.0,160.219772,0.035434572506521,0.47314,0.34771401,0.808689,1.0,0.0,0.0,0.0,175.93864687862202
4.1139,2271.3059,-8.540726641493308,4.833028509577954,-10.514414160799694,-3.2486115461480307,-6.58411127765752,-1.18403304006325,-1.7634868085300655,15.249596166905755,-36.211084455250756,-164.452911,-161.62925511456032,0.0,164.452911,0.0675142674619145,0.43531901,0.36087701,0.82201397,1.0,0.0,0.0,0.0,172.2575453085286
4.1326,2271.326,-7.463025883007114,4.305808643507737,-11.453734110788423,-2.8762872795980217,-6.647346771182535,-1.8597682613388349,-3.58705255102722,16.431038486899574,-35.901527090310736,-170.08165,-169.15360645905974,0.0,170.08165,0.0997949289484155,0.40318701,0.36216399,0.83445698,1.0,0.0,0.0,0.0,168.54527659823236
4.1492,2271.346,-6.151957826274316,4.160834389198833,-12.21438089811773,-2.5653415746561237,-6.5747378575882465,-2.5728413007365463,-5.081416654181352,17.541954945519542,-35.407409261630214,-177.393616,-177.29896252551436,0.0,177.393616,0.1380031908545573,0.37316599,0.355914,0.84559298,1.0,0.0,0.0,0.0,164.13536811962285
4.1754,2271.3661,-4.685910008151484,4.33187371869649,-12.716784959165173,-2.2945576902298335,-6.365217203425734,-3.3226753459987934,-6.504610622723018,18.64798731780697,-34.58704047040112,174.368912,174.30912708971985,0.0,174.36891200000002,0.1796184054003364,0.34744799,0.34215099,0.85437101,1.0,0.0,0.0,0.0,159.30493241049467
4.1961,2271.3861,-3.1177508931209923,4.76740145939062,-12.937829791058537,-2.0405574879576713,-6.028887689606895,-4.119074997864598,-7.884770951722946,19.80513110746643,-33.40000224918242,165.673615,165.5278475308671,0.0,165.67361500000004,0.2241757971906415,0.325789,0.32015499,0.86087602,1.0,0.0,0.0,0.0,154.09116636541376
4.2173,2271.4061,-1.4396364997842679,5.406780400887185,-12.85121435867329,-1.7867685992872056,-5.574054151644084,-4.95540992843053,-9.147441821750627,21.119176401433304,-31.878657567749514,156.864761,156.13804551145196,0.0,156.864761,0.2720828625956054,0.30802,0.288432,0.86481303,1.0,0.0,0.0,0.0,148.42350604036832
4.243,2271.4262,0.42819346519216905,6.109843327553785,-12.430339098576933,-1.530515544058635,-5.023120761828653,-5.770751942103775,-10.112177524084318,22.559788720386706,-30.17456802451908,147.952133,145.89573140716303,0.0,147.952133,0.3253465650984191,0.293814,0.24736699,0.864079,1.0,0.0,0.0,0.0,142.02685430675555
4.2818,2271.4462,2.555537252252449,6.6431518933637985,-11.610814248974124,-1.2156121056976952,-4.394730327419504,-6.504539428735579,-10.52575510989691,24.082890110466373,-28.463433014412175,138.804611,134.94600498662794,0.0,138.80461100000002,0.38435488832869,0.27999201,0.196945,0.857373,1.0,0.0,0.0,0.0,134.79260643523813
4.2829,2271.4662,4.864140390692702,6.745230458895603,-10.303787367977524,-0.7297786361360888,-3.728591565369811,-7.087326027401423,-10.193542257276878,25.52486306872927,-27.016709872400593,129.386322,124.11209238329286,0.0,129.386322,0.4475948867994136,0.26099899,0.137907,0.844109,1.0,0.0,0.0,0.0,126.82104244139157
4.2976,2271.4863,7.096683057557996,6.26104271677545,-8.544841223008817,-0.06776945425692704,-3.127218466414903,-7.439292597244308,-9.34062149841853,26.609650870768945,-26.061323427380795,119.883438,114.22891840290096,0.0,119.88343800000001,0.5123770350446237,0.236634,0.07579,0.82202798,1.0,0.0,0.0,0.0,118.35541407262227
4.3101,2271.5063,8.971398463441957,5.2875329542194685,-6.474529326870564,0.7013202306384674,-2.6535071168236666,-7.564922627235975,-8.53698107438079,27.242461442018488,-25.52063696005815,110.931999,105.84309244220141,0.0,110.93199900000002,0.5723451089156258,0.211358,0.015263,0.79215902,1.0,0.0,0.0,0.0,110.17216047553931
4.3289,2271.5262,10.416218124904415,3.946803088358247,-4.199501193729053,1.4917406244265843,-2.3049540400154704,-7.521817635004138,-7.982440688684278,27.550755323859935,-25.25132785787602,102.523338,98.6360536287463,0.0,102.52333799999997,0.6255019656973588,0.188936,-0.043727,0.75573701,1.0,0.0,0.0,0.0,102.56192021700217
4.3492,2271.5462,11.464558657667109,2.278105386394258,-1.776152232647295,2.2066351624720015,-2.093733277377615,-7.349668578767151,-7.693253596411243,27.554290347933897,-25.360928250617143,94.250977,92.07762293140426,0.0,94.25097700000003,0.673213204505779,0.169598,-0.099303,0.71285301,1.0,0.0,0.0,0.0,95.36890296487991
4.3707,2271.5662,12.03887043608894,0.17425641234367428,0.8963267375772457,2.8043099604414436,-1.8966682386670355,-7.083285961593724,-7.441254897314279,27.597367333159077,-25.727787177716383,85.800987,85.84241214339994,0.0,85.80098700000002,0.7159423096756048,0.153853,-0.155026,0.66311598,1.0,0.0,0.0,0.0,88.55904365329656
4.3899,2271.5863,11.846586698556795,-2.435566282166002,3.9001973323569565,3.362485407348558,-1.5353177725893532,-6.710310153291115,-6.849784931299999,27.983709359759207,-26.21859003160006,77.177422,80.19376128947435,0.0,77.17742199999998,0.7511965586028595,0.14093401,-0.21570501,0.60771102,1.0,0.0,0.0,0.0,82.61173188255528
4.4098,2271.6063,10.965964085273079,-5.202539760256207,6.902348399727355,3.930628346448085,-0.9264054343993007,-6.233476095359788,-6.384789511276827,28.400030307238907,-26.904340748115356,69.272881,75.54392219424794,0.0,69.27288099999998,0.7760305622395294,0.133425,-0.271947,0.55318999,1.0,0.0,0.0,0.0,78.20287890441409
4.4323,2271.6263,10.043896158572238,-8.071439968693657,9.338434285357494,4.486616601798739,-0.17919267542835438,-5.75538264292391,-6.241351081721755,28.67613112022361,-27.610182760872323,61.625679,70.11766689577988,0.0,61.62567899999999,0.7999838059307325,0.13592701,-0.31092,0.49485201,1.0,0.0,0.0,0.0,73.74288807544693
4.4536,2271.6464,9.362522049544417,-10.922927322880316,11.013449742886216,5.1917278339075015,0.5569654472793006,-5.310903160645425,-6.242508307503908,28.60528709549265,-28.2232448996529,54.56197,63.89739394806184,0.0,54.56197,0.8232899920035587,0.14679,-0.33430201,0.43461299,1.0,0.0,0.0,0.0,69.16899251528012
4.4792,2271.6664,8.95544450239271,-14.213737889883912,11.415600972793001,6.055232483150759,1.3155158043904867,-4.893355074362266,-6.2978589803176845,28.726957618459345,-27.962680681402343,48.687836,57.79964492182663,0.0,48.687836000000004,0.8397856904657283,0.176458,-0.353071,0.372778,1.0,0.0,0.0,0.0,65.76500804104609
4.4937,2271.6864,8.430307730720466,-17.855012932212833,10.220706092238927,6.9565170698167105,1.9935920214544876,-4.423718613062709,-5.950641332550704,28.98969837344191,-26.979329960277095,44.026989,52.247047387740594,0.0,44.026989000000015,0.8466431675357805,0.222214,-0.37258199,0.30821899,1.0,0.0,0.0,0.0,64.30316515628013
4.5107,2271.7064,7.456777991760198,-21.272136373889033,7.326569794648439,7.720966115164721,2.431409806979649,-3.912973104218649,-5.091421972391199,29.220672981570498,-25.67582752333412,40.03553,46.526840931066396,0.0,40.035529999999994,0.8457703205141807,0.27743199,-0.38940099,0.236793,1.0,0.0,0.0,0.0,64.49087297631517
4.5294,2271.7265,5.959605219267217,-23.599880806568045,3.108747179483842,8.237141418227385,2.5517831339671577,-3.441779141498026,-4.1021553412575384,29.224483702000043,-24.454877648062364,36.54454,40.2766773487805,0.0,36.544539999999984,0.8384755398639961,0.33623499,-0.397926,0.15987401,1.0,0.0,0.0,0.0,66.04102242545758
4.5497,2271.7465,4.112252727884278,-24.15970092018051,-1.50503562816216,8.479332752228567,2.3906023920410653,-3.063331844896528,-3.386062198845107,28.814010495187752,-23.748523541076196,33.853809,34.077578848136646,0.0,33.85380900000001,0.8247995772715211,0.393426,-0.39701399,0.085449,1.0,0.0,0.0,0.0,68.86364639906117
4.5714,2271.7665,2.1691846938975283,-22.971562231574353,-5.830689139287161,8.474786411969275,2.0539040383997795,-2.745344658501455,-2.9842092980623685,28.285609206575412,-23.469756937010946,32.724384,28.819012186305127,0.0,32.724383999999986,0.8023376218858741,0.45042899,-0.39120501,0.018075,1.0,0.0,0.0,0.0,73.29217559399972
4.5913,2271.7865,0.29872640695955877,-20.416252439463186,-9.352418205433635,8.25542227393713,1.6016446643427267,-2.4568517427676118,-2.6749741477954796,27.954824610235065,-23.45383747542848,34.158058,25.035972024607812,0.0,34.15805799999998,0.7696886653445792,0.50738299,-0.38523701,-0.041645,1.0,0.0,0.0,0.0,79.34812099878516
4.6145,2271.8066,-1.5418317165594653,-17.083347952482345,-11.769859449650307,7.851865847417186,1.0046736398837322,-2.1822184723919733,-2.1274976310885934,28.023188007768237,-23.5042358452775,39.480038,22.775830245995227,0.0,39.48003800000001,0.7269035924427805,0.56153101,-0.38314199,-0.097449,1.0,0.0,0.0,0.0,86.74512901157621
4.6405,2271.8266,-3.2920564699962216,-13.621496459830485,-13.019736006348175,7.295999925717558,0.24541444861048478,-1.9422238211962048,-1.4571584737726413,28.383195693838978,-23.5478170207788,51.391571,21.9905807464991,0.0,51.391571,0.6770574385792678,0.60936397,-0.384608,-0.14948399,1.0,0.0,0.0,0.0,94.77174671395862
4.6498,2271.8466,-4.811858180029852,-10.622234812292223,-13.274070914602888,6.65831153756804,-0.6666682925023502,-1.8044912475307164,-1.373888703008241,28.511478409321636,-23.8916816985706,70.773483,22.09615755713124,0.0,70.773483,0.6297213108858545,0.64688897,-0.38477701,-0.192178,1.0,0.0,0.0,0.0,101.94087129870714
4.6713,2271.8667,-6.00992753336413,-8.298686324583255,-13.12099914270995,6.057636045538198,-1.744713083726,-1.7570703213372556,-2.279536969844422,28.110208492448823,-24.607947814089634,92.512894,22.828568901053576,0.0,92.51289400000002,0.589692123230453,0.67566699,-0.38293901,-0.22157399,1.0,0.0,0.0,0.0,107.72967324896906
4.6898,2271.8867,-6.803275259267258,-6.367916471227764,-13.15346408194534,5.520302679932953,-3.0727321061968507,-1.7055989004561036,-3.520548830894289,27.179501414680526,-25.5664025730644,107.255066,25.366228455245217,0.0,107.255066,0.5531695388766087,0.69670701,-0.38870499,-0.239815,1.0,0.0,0.0,0.0,112.8305410173861
4.7107,2271.9067,-6.895956673892606,-4.6173580295300045,-13.516159300806063,4.928353208740344,-4.588206650035675,-1.5208627487763653,-4.951932914291778,25.493633975633404,-26.969348763187085,111.118904,29.847474200491927,0.0,111.11890399999999,0.5239958731570123,0.70701599,-0.40571299,-0.246888,1.0,0.0,0.0,0.0,116.79865900729986
4.7371,2271.9267,-5.949069668870235,-2.9678879989466984,-14.429065096512819,4.202257179895966,-6.050224319246375,-1.2167985766227913,-6.237920025118765,24.287174314000485,-27.73693385083054,112.253906,36.85610207406467,0.0,112.25390600000003,0.4862935240574348,0.71997303,-0.43052101,-0.244559,1.0,0.0,0.0,0.0,121.80548921352357
4.7502,2271.9468,-3.9320390232136084,-1.7647962988390644,-15.445235581791335,3.348765863429016,-7.328953329723917,-0.778571615640899,-7.738422294666856,23.267715578692044,-28.18539925833418,110.783592,44.291379818470894,0.0,110.783592,0.4499786295411809,0.73075098,-0.45821401,-0.231435,1.0,0.0,0.0,0.0,126.51537429530295
4.7702,2271.9668,-0.9994955822397249,-1.3294763919827521,-16.219579087243567,2.5216120029181535,-8.328342328823968,-0.16120684630804835,-9.501173648085498,22.207871890992156,-28.48271712589476,107.838432,50.84364502214086,0.0,107.83843200000001,0.4198462440132339,0.738976,-0.48565099,-0.204418,1.0,0.0,0.0,0.0,130.35023877229648
4.7928,2271.9868,2.6481506796665117,-1.756224633928981,-16.315328856093707,1.9412634743868247,-8.961929720888227,0.7069606207812182,-11.280332632450985,20.74777692436261,-29.01068639902957,104.342262,56.08154063657294,0.0,104.342262,0.3969652893982539,0.74611402,-0.51082999,-0.157433,1.0,0.0,0.0,0.0,133.22279875165114
4.8105,2272.0069,6.857073798617338,-2.8016494107627756,-14.863578191344589,1.6049821372534565,-9.11094485580245,1.9825509002095203,-11.560771554972986,18.4738577622202,-30.68194470991906,100.509705,61.78414475652712,0.0,100.509705,0.3718311508620539,0.75143498,-0.539985,-0.074184,1.0,0.0,0.0,0.0,136.34281299310885
4.8308,2272.0269,10.709791834664113,-3.633932161874613,-10.969652106280424,1.2637179953749504,-8.73675679298265,3.284898376183185,-9.349501941090761,16.50490761071614,-33.00410757347448,99.634193,68.31781373003753,0.0,99.63419299999998,0.3198578650104439,0.75738102,-0.56795698,0.038598,1.0,0.0,0.0,0.0,142.6913412327468
4.8524,2272.0469,12.72370146558629,-3.8666534808371456,-5.500723729065401,0.7641026666780733,-7.941398364373533,4.376716387448919,-6.369758088274687,15.269621622610284,-34.93403338305681,101.719963,73.52364260120076,0.0,101.719963,0.2532141114490648,0.75983799,-0.58021802,0.14790501,1.0,0.0,0.0,0.0,150.66442279777644
4.8783,2272.0669,12.791249602480395,-3.460373909963358,-0.09268538075573396,0.08656892341568456,-6.917657218252855,5.161572075510021,-3.998969222796845,14.692236986135335,-36.190535220769,106.396889,76.10383559070466,0.0,106.39688899999999,0.1856067112929366,0.76433802,-0.56957501,0.238583,1.0,0.0,0.0,0.0,158.6069859296149
4.9035,2272.087,11.749479418109958,-2.73655240545032,4.22244102450809,-0.7405830487069367,-6.027899474912513,5.467754901578993,-2.8541530157898087,15.165404886928997,-36.635489694822894,113.648056,75.28114680629417,0.0,113.648056,0.1175996640767268,0.77796203,-0.53639501,0.30532899,1.0,0.0,0.0,0.0,166.49281494103997
4.9177,2272.107,10.120365929148848,-1.893516933476361,7.459577892205072,-1.8051763768365223,-5.3786207450570105,5.444431836395614,-2.1088215621898687,15.736151006664596,-36.743245454952024,122.159637,72.61751310035889,0.0,122.15963699999998,0.0601534967171467,0.79011601,-0.48938099,0.364149,1.0,0.0,0.0,0.0,173.10275320862672
4.9366,2272.127,8.5278607441874,-0.5794460664292158,9.618427748642834,-3.020628247861322,-4.734068661284065,5.4013792850278435,-1.3061332156350365,15.07058035928415,-37.0855034479007,129.755524,70.97088932547801,0.0,129.75552400000004,0.0400382197573734,0.790205,-0.44095001,0.42371699,1.0,0.0,0.0,0.0,175.41073127520895
4.95,2272.1471,7.093510177198679,1.1000393011264116,10.907557083624354,-4.146083477161676,-4.220169223323071,5.304638160863016,-0.21188024931233573,14.36063789722769,-37.19438653187204,136.979843,70.59230458755525,0.0,136.97984299999996,0.0370251422919467,0.78263497,-0.39016801,0.483612,1.0,0.0,0.0,0.0,175.75626124862737
4.9819,2272.1671,6.106632492908219,2.852934612513775,11.450101493641728,-4.921812438750298,-4.086955311992968,5.2270605035603435,0.023940739067183137,14.692987313551567,-36.75123737385122,144.851883,68.55654578084936,0.0,144.851883,0.0315716288008635,0.778952,-0.33066699,0.53188002,1.0,0.0,0.0,0.0,176.38155654023714
4.9901,2272.1871,5.11022750118015,4.887874204228974,11.460806596465684,-5.4864774250461865,-4.188888845994961,5.241877761244545,-0.17971742471592744,15.373560253492524,-36.124054995431884,152.822739,65.48177677898053,0.0,152.822739,0.0275408760565038,0.77447301,-0.26427901,0.574099,1.0,0.0,0.0,0.0,176.84364897465508
5.0094,2272.2071,3.4531757879304856,7.2451130722610575,10.942178503114537,-5.999483415162615,-4.327630034859601,5.256372787375193,-0.026428658777996272,15.85390999281281,-35.58064378339566,160.250061,63.82674021822565,0.0,160.25006099999996,0.0294164273938742,0.761967,-0.19368801,0.61727297,1.0,0.0,0.0,0.0,176.62863938358112
5.0318,2272.2271,0.7983624258230626,9.640499951214432,9.674505340188375,-6.453596070545618,-4.439501088170871,5.133244902302792,0.582563921597619,16.07491266532814,-35.1706350223428,167.256104,66.37572210340663,0.0,167.256104,0.0351627835866153,0.739429,-0.116903,0.66207403,1.0,0.0,0.0,0.0,175.96981101603373
5.0499,2272.2471,-2.6693890340731183,11.504809145723463,7.4220363897802635,-6.761533973479281,-4.5282839226828875,4.764793717614373,1.2873509497516937,16.188737943768444,-34.83557782064918,173.827118,87.38047267962402,0.0,173.82711800000004,0.0424144620090834,0.70757401,-0.033756,0.704557,1.0,0.0,0.0,0.0,175.13820221124868
5.0803,2272.2671,-6.21153419252491,12.262460961727092,4.261063024329577,-6.838114172394096,-4.615651353995986,4.132238724587139,1.5777739349890942,16.36793603542616,-34.56211367963973,179.568314,175.65029927573502,0.0,179.568314,0.0515237457037009,0.66947502,0.051311,0.73926699,1.0,0.0,0.0,0.0,174.09319822363366
5.0996,2272.2871,-9.02031642186434,11.756878284523301,0.6232191712296711,-6.683069429861355,-4.715154068174597,3.2654518978123668,1.380329350330762,16.631304635383493,-34.421336006414194,-176.082123,-162.37264944209974,0.0,176.082123,0.0650219392877454,0.626647,0.13168301,0.76533997,1.0,0.0,0.0,0.0,172.54377432821047
5.1176,2272.3071,-10.450904116947381,10.39619663004125,-2.9256805887405086,-6.375285538950904,-4.778203865291984,2.25260036154439,1.0275502044734042,16.931460391978963,-34.44795070342447,-174.117493,-163.2045484299387,0.0,174.117493,0.0881334561248965,0.58118498,0.199119,0.78409702,1.0,0.0,0.0,0.0,169.88752948706986
5.1307,2272.327,-10.520682720844274,8.648847125342314,-5.992682377023138,-5.939073312068346,-4.839319016920044,1.1791328565225843,0.8142239660194877,17.2094258629365,-34.63636770306326,-174.645676,-168.96992204722756,0.0,174.645676,0.1191819550808727,0.53206497,0.253259,0.799101,1.0,0.0,0.0,0.0,166.31021350622783
5.1529,2272.347,-9.50398978159987,6.891876487679203,-8.312920121216708,-5.385831947323769,-4.904106956947556,0.15112900829700937,0.751030622609391,17.398784850832623,-34.96718116437824,-177.64827,-176.2796057779735,0.0,177.64827,0.1551148735135322,0.48012599,0.295342,0.81129003,1.0,0.0,0.0,0.0,162.1530828029501
5.176,2272.367,-7.803377662918026,5.4128028899778124,-9.806475270749225,-4.76833159681834,-4.953423006465486,-0.7336062434966872,0.7465109299171604,17.325122063716396,-35.436814619687645,176.80983,175.93800761365688,0.0,176.80983000000003,0.1954855246090614,0.428435,0.327613,0.81908399,1.0,0.0,0.0,0.0,157.45382404444643
5.1903,2272.387,-5.868286489038277,4.352898474928937,-10.263260856252806,-4.201358400504696,-4.9636431094512155,-1.4638900586814638,-0.42210936772130436,18.04927392400613,-35.40262456531006,171.110016,169.92495513416836,0.0,171.11001599999997,0.2285253825972062,0.39626101,0.34281901,0.82050502,1.0,0.0,0.0,0.0,153.5794592114278
5.2145,2272.407,-4.0113126541479,3.71479099853536,-10.264281960891394,-3.7591063736986605,-4.94736213387389,-2.1173963356084045,-2.2934095702174284,19.288919335961744,-34.78564524904166,165.494293,164.38781095950176,0.0,165.49429299999997,0.2588373864743651,0.37812999,0.346084,0.81868601,1.0,0.0,0.0,0.0,149.9978240857796
5.2321,2272.427,-2.330172381322556,3.4263889991935446,-10.219685402721165,-3.4211524854058064,-4.938580280332641,-2.775086979478153,-4.001369131834007,20.648071567526888,-33.7156831137946,158.695541,157.6766110544732,0.0,158.695541,0.2933349941977935,0.36204699,0.340763,0.81655198,1.0,0.0,0.0,0.0,145.884553680999
5.2575,2272.447,-0.8304835182833423,3.425532248465646,-10.210184809548617,-3.1300234665188746,-4.956353770492974,-3.471924762502951,-5.609306217720205,22.0446279274775,-32.27268107189296,151.191055,150.22346295464294,0.0,151.191055,0.3300797264517148,0.34486699,0.32855901,0.81496203,1.0,0.0,0.0,0.0,141.4527707354353
5.2835,2272.467,0.620438228069576,3.684901125225708,-10.208790530161012,-2.884092213619625,-4.958814985706201,-4.218021623467227,-7.0680492284129315,23.443672113344377,-30.565605457489212,143.188782,141.94696346312327,0.0,143.188782,0.3706168492442293,0.32733899,0.30889699,0.81244999,1.0,0.0,0.0,0.0,136.49267000417444
5.2942,2272.487,2.246491845020387,4.088594915930198,-10.177815935560046,-2.650780733453864,-5.010397798432084,-4.881514906833373,-7.944420404186721,24.082469967211253,-29.41374270380396,133.256393,132.41256360558677,0.0,133.256393,0.4224814704169874,0.30118901,0.28947601,0.804362,1.0,0.0,0.0,0.0,130.01729498494032
5.3092,2272.507,4.270736826187064,4.388866568032725,-9.918272561557803,-2.4926693662348076,-5.072356243021132,-5.3647751053131225,-8.315722661303937,23.987249979836342,-28.990394548237134,121.52932,121.77403980389634,0.0,121.52931999999998,0.4862500352403884,0.26857501,0.27194601,0.78579497,1.0,0.0,0.0,0.0,121.81119235828214
5.3312,2272.527,6.677084398419344,4.307536394263539,-8.997017982941653,-2.33584689409969,-4.89764079673625,-5.795944671269666,-8.422718062828707,23.960940196134466,-28.68328788780797,110.3339,111.08088096024785,0.0,110.33389999999997,0.5522784233768506,0.235331,0.24653099,0.760809,1.0,0.0,0.0,0.0,112.95307364216438
5.3514,2272.547,9.052821413801745,3.656125231758218,-6.850926620797198,-1.8222523549472334,-4.312188729263696,-6.305188026537554,-7.75494564800449,24.184826994621215,-28.529682777538138,100.913879,101.33387451067955,0.0,100.91387900000001,0.6156099087186138,0.19542301,0.203315,0.735865,1.0,0.0,0.0,0.0,104.00749856118588
5.3806,2272.567,10.697840008986164,2.4167180945907307,-3.514975818916467,-0.7990636564315203,-3.403491268279545,-6.7198588271757265,-6.451501433403779,24.042587008170834,-28.92446531036095,92.893639,92.93836306054737,0.0,92.89363900000001,0.6739356644149944,0.150011,0.151191,0.70742399,1.0,0.0,0.0,0.0,95.25689424300228
5.3965,2272.587,11.186964326502087,0.5411503752758401,0.24396338918669613,0.5835023317580412,-2.2898689916180883,-6.885718522042214,-4.754620030038177,23.660011715211756,-29.53134855863698,85.137085,84.72533519328256,0.0,85.13708500000001,0.7286251789647398,0.114119,0.097865,0.66821003,1.0,0.0,0.0,0.0,86.45747710786014
5.418,2272.607,10.658968180290655,-1.8814418931474095,3.354493936029364,2.1155357210724826,-1.203193883692252,-6.771628529601772,-3.2296014737367846,23.367566138750263,-29.8539072019657,77.23716,76.34803750982893,0.0,77.23716000000002,0.7780594586399037,0.101066,0.049215,0.61805099,1.0,0.0,0.0,0.0,77.83351390890311
5.4313,2272.627,9.780792295435866,-4.313955222764117,5.0879871496637765,3.543192543024605,-0.3931443186213517,-6.4985420105104215,-2.9439157610450883,23.070486830618766,-29.857954037482678,70.373268,68.98272555505197,0.0,70.373268,0.815065617667179,0.113676,0.013741,0.56794101,1.0,0.0,0.0,0.0,70.81229893762995
5.4516,2272.647,8.915098862374114,-6.694282936364253,5.4313859882941475,4.675443947977825,0.06275098864220441,-6.244220625456554,-3.5533971374496636,23.01724101244608,-29.468579516473472,64.326653,62.00151763511268,0.0,64.326653,0.8427158437008168,0.14997301,-0.013509,0.51687098,1.0,0.0,0.0,0.0,65.14394588704714
5.4755,2272.667,7.584759688652666,-8.932041648212081,4.9300513456497495,5.569321691982157,0.10348719692221708,-5.977271686734917,-3.5759867959307066,23.24058449926459,-28.93622505440249,58.281048,54.7346169445102,0.0,58.281048,0.865311158870611,0.196493,-0.049142,0.458489,1.0,0.0,0.0,0.0,60.163490925420824
5.4917,2272.687,6.152526521161524,-10.422257327028987,4.037183798223527,6.126459645061219,-0.11372995830997157,-5.770600581664832,-3.612003656222983,23.22054841715717,-28.774529121021917,53.244518,48.46091274758212,0.0,53.244518,0.8784579170785588,0.244069,-0.087035,0.401456,1.0,0.0,0.0,0.0,57.08620252847114
5.5159,2272.707,4.887510817723969,-11.179504590461402,3.130957791392568,6.3717247806531665,-0.3507175514349923,-5.6472617795044675,-3.8064675243330526,23.012582554582046,-29.096325920591948,49.45562,43.49406000650206,0.0,49.45562000000001,0.8823453360424024,0.29003501,-0.12567601,0.348643,1.0,0.0,0.0,0.0,56.14682574750906
5.5312,2272.727,3.660105684738174,-11.698757445223848,2.2789022112051764,6.411782841299818,-0.4588033043568118,-5.53985581454514,-3.6566289038583033,23.23807804623878,-29.537430296487802,46.436596,39.30584183525323,0.0,46.43659600000001,0.8780290585014483,0.33767799,-0.169697,0.29366899,1.0,0.0,0.0,0.0,57.18896743814616
5.5566,2272.7469,2.306478806685015,-12.193025251986022,1.5184227937986279,6.351575325132088,-0.4785099089224514,-5.3653926144972095,-2.9233312739507054,23.875391586071075,-29.974290856751992,43.566666,35.48378215343604,0.0,43.566666,0.8672119175984263,0.383425,-0.21686301,0.232162,1.0,0.0,0.0,0.0,59.72750965632099
5.5767,2272.7669,0.8792194320133538,-12.605304027433368,0.8304335445299742,6.3002639909253695,-0.4998803490032815,-5.092656825728867,-2.074984517370792,24.359209019206816,-30.439912983186808,40.917713,32.09582656314032,0.0,40.91771299999999,0.8517195309640139,0.42292699,-0.25907901,0.16907001,1.0,0.0,0.0,0.0,63.201618997908994
5.5934,2272.787,-0.5202628051415619,-12.841904298966835,0.0598115235085217,6.358059388948859,-0.6230979734106263,-4.762837758307739,-1.7106095521965434,24.30017387964596,-30.93772458629485,38.985523,29.256673206992158,0.0,38.985523,0.8330249354725223,0.45703,-0.291309,0.11105,1.0,0.0,0.0,0.0,67.17852475220118
5.6203,2272.807,-1.940736612369911,-12.85254559316456,-1.090854614703149,6.588447846343405,-0.9211520957200396,-4.418384415945578,-1.8309910264083804,23.902670294842196,-31.32152930781113,38.76284,27.381504800558577,0.0,38.76283999999998,0.8090642757199948,0.49100199,-0.31723601,0.060773,1.0,0.0,0.0,0.0,71.99078176427261
5.6347,2272.827,-3.544838364917112,-12.51025708309769,-2.927368090615384,6.945362188745856,-1.4735060593775806,-4.078757755672455,-1.899815245988285,23.71891761693547,-31.391043282404034,41.316547,26.92197838261892,0.0,41.316547000000014,0.7752490964852133,0.52896702,-0.34494099,0.014087,1.0,0.0,0.0,0.0,78.34475604026673
5.6507,2272.8471,-5.342474814997045,-11.476374184137882,-5.534814935324106,7.265655876577114,-2.3852387625406144,-3.760311819404423,-1.4538245037884012,24.07466820911334,-31.0406580500602,47.686058,28.46119755098629,0.0,47.686058,0.7277230064638048,0.56940103,-0.38081101,-0.034419,1.0,0.0,0.0,0.0,86.60831247425452
5.6719,2272.8671,-6.788014975354246,-9.45342707963871,-8.585279877856129,7.367747633888037,-3.6137360774028506,-3.5586087655943257,-1.0742286397278615,24.678673309957713,-30.37470247164483,58.466644,32.421320808724076,0.0,58.466644,0.6687548455476936,0.60818702,-0.41995001,-0.080731,1.0,0.0,0.0,0.0,96.05792844154313
5.692,2272.8871,-7.218025245919662,-6.68053790094507,-11.078911568264123,7.170521016369984,-5.0751851076996815,-3.4705458494556525,-2.4355813293796356,23.680245185432902,-30.68599938565221,66.723259,36.6995331414574,0.0,66.72325899999998,0.6246367475692411,0.62925601,-0.448973,-0.110856,1.0,0.0,0.0,0.0,102.68893868907902
5.7149,2272.9071,-6.454297336724441,-3.6780699925349882,-13.272207715689369,6.733079917968123,-6.5104575156655,-3.3123239071902844,-4.814424355738655,22.052929885356228,-31.045429703922302,73.686111,42.41213939368962,0.0,73.68611099999998,0.583694310064386,0.64465898,-0.47730899,-0.126063,1.0,0.0,0.0,0.0,108.57839506937903
5.7388,2272.9272,-4.257678522348169,-0.6760603462654419,-14.962253898886324,5.850616783262794,-7.759275880125707,-3.0415516926132686,-6.620031660135451,21.268971250410498,-30.736108502705818,80.137367,52.148446580737875,0.0,80.13736699999998,0.5257516554077029,0.658957,-0.52029699,-0.136572,1.0,0.0,0.0,0.0,116.56228376063623
5.7523,2272.9472,-0.6605192246860705,1.5673470811086263,-15.286000680337121,4.340248797600809,-8.545895890107515,-2.809030781469185,-7.578560135290186,22.088543637371863,-29.773593642769452,84.403984,65.50605967082271,0.0,84.40398399999998,0.4458292603710966,0.668468,-0.57667297,-0.14776701,1.0,0.0,0.0,0.0,127.04718636475477
5.7722,2272.9672,3.2159297912408675,1.9522396688297516,-14.033131963449438,2.526127789186728,-8.6702918121086,-2.5236418892961305,-9.192384797203541,23.29909564776453,-28.856541958512842,84.91478,76.95234717431023,0.0,84.91478000000001,0.3731790858493805,0.66649902,-0.62673301,-0.15402,1.0,0.0,0.0,0.0,136.17637228660527
5.7921,2272.9873,6.339376111921667,0.7883414005004004,-11.876631755753797,1.1785390824007287,-8.194125245080484,-2.1045819913767074,-11.891372624243418,24.222686229035684,-28.14180780124956,85.273933,83.23231720637278,0.0,85.273933,0.3168015034237979,0.66803497,-0.65736198,-0.145744,1.0,0.0,0.0,0.0,143.0607935592656
5.8143,2273.0073,8.385631049882061,-1.1478800624596452,-8.577113358557256,0.48372910864796226,-7.490602549821751,-1.3373095654550582,-11.850161155720366,24.026146221226988,-29.57007846108867,84.454483,88.41469715195987,0.0,84.45448299999998,0.2507791426081105,0.67034,-0.69287097,-0.087658,1.0,0.0,0.0,0.0,150.9527547792539
5.8321,2273.0273,8.99758865477288,-3.155636272249218,-5.214235268547535,0.09675737766140591,-6.656377187217885,-0.6047671292033066,-11.330984159352525,23.54063760900377,-31.197565707962568,83.323914,92.11399326235482,0.0,83.323914,0.1967603888068922,0.666192,-0.71881402,-0.027928,1.0,0.0,0.0,0.0,157.30484202350388
5.8538,2273.0473,8.479261360572744,-4.974514084918646,-2.3003229294182237,-0.11000790684908202,-5.813857760458015,0.07150298388248727,-9.680228401029648,23.346235316045824,-32.585793953462925,82.543114,95.32662661189997,0.0,82.543114,0.13955796410531,0.65934801,-0.73810297,0.031429,1.0,0.0,0.0,0.0,163.9554632984409
5.8767,2273.0674,7.680549921704502,-6.5055489987526895,-0.4696581288300852,-0.3243404706602473,-5.097190701570042,0.7236038552136891,-8.375052004042827,23.524686970665503,-33.21652334182021,82.435394,97.33235860333056,0.0,82.43539399999997,0.0897154063611044,0.65434903,-0.74684203,0.077495,1.0,0.0,0.0,0.0,169.70553031130393
5.8928,2273.0874,7.105726380916292,-7.587056479679144,0.6017049418778893,-0.6743207837408728,-4.565320266401295,1.3645133562073595,-7.426257964157514,23.695713752130658,-33.55796546601559,83.169823,98.18230777886485,0.0,83.16982300000001,0.047799170377938,0.65330303,-0.74618,0.118852,1.0,0.0,0.0,0.0,174.52053064789453
5.919,2273.1074,6.890314092086774,-8.06517279029167,1.433303029190757,-1.1469328184600276,-4.19687237420555,1.9319656109832322,-6.7891486763657305,23.600762868611266,-33.977462936680226,85.247093,97.81685905466992,0.0,85.247093,0.0128458520822454,0.65813398,-0.73500198,0.16268601,1.0,0.0,0.0,0.0,178.5279332952437
5.9351,2273.1275,6.801422886250521,-7.8847982382012045,2.460058152705418,-1.6840900471063178,-3.9021834279086556,2.4288497068444324,-6.082554817411468,22.88292337816127,-34.8727165828196,88.639191,96.94513663332035,0.0,88.63919099999998,0.0131136544585966,-0.66502702,0.714881,-0.21566699,1.0,0.0,0.0,0.0,178.4972428179524
5.9501,2273.1475,6.640568714203095,-7.332758498574698,3.6369792983523883,-2.229687171898191,-3.5879262816240707,2.8747026197333714,-5.186333355875615,21.821440512892295,-35.995823949616906,92.631111,96.52858141204781,0.0,92.63111100000003,0.0280833529201712,-0.66869903,0.69159901,-0.27155799,1.0,0.0,0.0,0.0,176.78146164831958
5.9742,2273.1675,6.466660596746804,-6.78296481997918,4.727543929644147,-2.729120120701766,-3.2724607705182125,3.2480007933102844,-4.431800996809338,21.1764774563476,-36.70913934135194,97.166977,95.98381470376012,0.0,97.16697699999997,0.0401971522414034,-0.67286903,0.66606498,-0.31935701,1.0,0.0,0.0,0.0,175.39250428063403
5.9927,2273.1875,6.394222077107558,-6.298316399222756,5.680648809079742,-3.2052827245647366,-3.004382755892064,3.5336238900052126,-4.14012352134009,21.143268214300203,-36.794465072117944,102.622932,94.28111173110747,0.0,102.62293199999999,0.0543634272872752,-0.68264598,0.63575703,-0.356163,1.0,0.0,0.0,0.0,173.76733755525515
6.0207,2273.2076,6.306674230965484,-5.5878815731338225,6.63310129594095,-3.743080862547647,-2.7809302893047563,3.6995769849256357,-4.048202323275479,21.18504363154095,-36.5562976132757,109.650887,91.25080757527134,0.0,109.65088700000001,0.0695041233815628,-0.69761801,0.59680998,-0.390277,1.0,0.0,0.0,0.0,172.02898757830314
6.0355,2273.2276,6.064920782306063,-4.446689489330729,7.580334627182271,-4.379847878377887,-2.539492905288733,3.7432025656064427,-3.7301390313951375,20.884401247971148,-36.318209013801365,117.796638,87.94955533738552,0.0,117.79663800000003,0.0774198995385537,-0.71195799,0.551709,-0.42748001,1.0,0.0,0.0,0.0,171.1194464622535
6.0521,2273.2476,5.696478703778844,-2.8304872378546424,8.346966903096124,-5.047705498015653,-2.236059759831905,3.7165271879554735,-3.0346315791286678,20.1731528477019,-36.20548250715645,126.135788,85.25285277522073,0.0,126.13578799999999,0.0722754102592233,-0.72263002,0.50368398,-0.46785101,1.0,0.0,0.0,0.0,171.71062042863596
6.07,2273.2677,5.268446379214106,-0.846667427818173,8.73820841649296,-5.65684887622456,-1.8902772224406434,3.6659170944433037,-2.01799579981514,19.252921974873225,-36.12292153989374,133.977219,83.23882116297642,0.0,133.977219,0.0563371267740863,-0.72982001,0.45315799,-0.50875998,1.0,0.0,0.0,0.0,173.54082096655014
6.0917,2273.2877,4.779890430073767,1.336349000680535,8.647114464046787,-6.155848787820767,-1.5878239875907494,3.595595392621834,-0.9647679738532711,18.42093732416618,-35.87629555996986,141.33255,81.1511924223971,0.0,141.33254999999997,0.0365483952772159,-0.73558599,0.39763901,-0.54723001,1.0,0.0,0.0,0.0,175.81092943565872
6.1191,2273.3077,4.208145656124333,3.565320852072622,8.037841283155977,-6.541211136600482,-1.3770612822748591,3.4985821556274894,-0.21473897039305895,17.86589449782229,-35.38749166590404,148.062286,78.42993200890244,0.0,148.06228599999997,0.0151671053394862,-0.74098802,0.33682701,-0.58073598,1.0,0.0,0.0,0.0,178.26191111024815
6.1339,2273.3277,3.4759768713515657,5.714349428473201,6.917210545481016,-6.829746376845305,-1.2811548321609132,3.34244264410145,0.08744772375510013,17.609979571527496,-34.755023111751676,154.038391,75.00456997794038,0.0,154.038391,0.0085136442807876,0.745341,-0.27156201,0.60880899,1.0,0.0,0.0,0.0,179.02439644298954
6.1552,2273.3478,2.4806416818424246,7.609840121148647,5.3278781946867895,-7.035358677330256,-1.3142017297721251,3.0743225766553284,0.10434856198629561,17.602142676276138,-34.13356926339868,159.114883,71.7169928036116,0.0,159.11488299999996,0.0353741789555539,0.74591398,-0.203861,0.63308901,1.0,0.0,0.0,0.0,175.94557181124145
6.1758,2273.3678,1.2328837279837432,9.078629592459462,3.3300182075146694,-7.147291377486553,-1.4820604094309027,2.6787938523062715,0.007615438314334533,17.705170457700998,-33.68084116847339,163.276245,69.93149273292389,0.0,163.27624500000002,0.0663992448384706,0.74026698,-0.13500001,0.65526402,1.0,0.0,0.0,0.0,172.3856048772863
6.1908,2273.3878,-0.0965038464779755,9.919861962045662,1.0807231116654528,-7.148514715459485,-1.773720264611265,2.189980530285558,-0.1535753895264449,17.94075582327808,-33.43797311219163,166.389679,71.48745431144827,0.0,166.389679,0.1008755653592065,0.72743499,-0.067853,0.67532098,1.0,0.0,0.0,0.0,168.4208167173235
6.2108,2273.4078,-1.3366157010165953,10.065539244992609,-1.1852559432292544,-7.051687161311395,-2.158331173929014,1.625781793041178,-0.24436817031546898,18.345750932327014,-33.39981830808925,168.367935,80.11676356628006,0.0,168.367935,0.1370552662363579,0.70602697,-0.00543,0.69477499,1.0,0.0,0.0,0.0,164.2450343644309
6.2596,2273.4278,-2.2954917975996567,9.640790802665565,-3.2722776844200903,-6.880236808959819,-2.5921555654821464,1.033288872114105,-0.26828338825078557,18.852582110266262,-33.52859465101932,169.047974,97.40207961856834,0.0,169.047974,0.1744946867643229,0.67661703,0.050458,0.713579,1.0,0.0,0.0,0.0,159.90149330051295
6.262,2273.4478,-2.821383344762119,8.837197017848542,-4.978121490596972,-6.672812105043917,-3.033719153747598,0.47256415073641733,-0.43287953994843065,19.690235294618688,-33.53823714620638,168.295471,113.89159917568927,0.0,168.29547100000002,0.2111129863805634,0.64379501,0.095515,0.72927099,1.0,0.0,0.0,0.0,155.62483188420535
6.2766,2273.4678,-2.9187606579421836,7.821667409982135,-6.1027725922291225,-6.474126686078955,-3.4618246159629527,-0.059949437545049555,-1.1438741500877168,21.624648159348872,-32.7957391956639,166.603989,121.8929970882554,0.0,166.603989,0.2393125742784519,0.61589998,0.122336,0.74056101,1.0,0.0,0.0,0.0,152.3080569936247
6.295,2273.4878,-2.734601036360007,6.892487665529869,-7.045949088026583,-6.3123201529591935,-3.8477253531433373,-0.5518305275706981,-2.1504117239020832,23.584162458220284,-31.858187001717408,163.828079,124.99359292461362,0.0,163.828079,0.2690761175740789,0.587291,0.14246701,0.74992698,1.0,0.0,0.0,0.0,148.78140426275337
6.312,2273.5078,-2.3394447468607256,6.088002847949874,-7.9162958196308155,-6.168602568234142,-4.166133046851135,-1.0650634941372057,-3.2071614052439053,25.376362403843356,-30.873567443089982,159.830978,125.5876534477532,0.0,159.83097799999996,0.3011022179486225,0.55519599,0.157277,0.75918299,1.0,0.0,0.0,0.0,144.95236617539987
6.3307,2273.5278,-1.7252642627399832,5.399569246188632,-8.740932794480278,-5.984818147217385,-4.374417428542613,-1.658541762560294,-4.115675062523337,26.80175897691486,-29.934351597827057,154.557159,124.79939045821776,0.0,154.557159,0.3354762721409062,0.51829702,0.167615,0.76858902,1.0,0.0,0.0,0.0,140.79699519528907
6.3572,2273.5478,-0.8229572481931384,4.803826177661266,-9.4367937002556,-5.702587097505555,-4.417774855471332,-2.3604835905998898,-4.819579905695571,27.84721755289106,-28.945736860410914,148.170364,122.75768584203824,0.0,148.170364,0.3717793392218554,0.47871199,0.172454,0.77644998,1.0,0.0,0.0,0.0,136.3492086710525
6.3716,2273.5677,0.42415939480682263,4.265244087951546,-9.873163778458593,-5.291179097375819,-4.248581519505072,-3.1605433143258073,-5.241155191889169,28.641431811778723,-27.827210048466327,140.81427,119.26198481648413,0.0,140.81426999999996,0.4110406683691032,0.43926001,0.169394,0.78064197,1.0,0.0,0.0,0.0,131.4595505183136
6.3949,2273.5877,1.9896701009336013,3.6940208395592293,-9.914234457030627,-4.746765770628875,-3.850103893895623,-3.999340364836478,-5.345579194442667,29.43029477310759,-26.512544308548364,132.84285,114.30631127483777,0.0,132.84285,0.4538549023557415,0.40324301,0.15550999,0.779248,1.0,0.0,0.0,0.0,126.01743838328892
6.4165,2273.6077,3.731758507052904,2.9389856413417306,-9.56507562005822,-4.08614591644449,-3.360554185644017,-4.684311601913034,-5.2635763218606115,29.81283175892033,-25.62278670327136,124.12484,108.30914337161089,0.0,124.12484,0.5031128307877267,0.368512,0.13925099,0.76921099,1.0,0.0,0.0,0.0,119.58768438775162
6.4348,2273.6277,5.436288015699299,1.8822652158133635,-8.872731900526324,-3.3731645454057846,-2.929776014331243,-5.078653430157278,-5.231611706075904,29.57964906512032,-25.52574669810882,114.607376,101.50377543800748,0.0,114.60737599999999,0.5584148413650012,0.33450601,0.12853099,0.74817002,1.0,0.0,0.0,0.0,112.1075116051533
6.4764,2273.6477,6.845693219149448,0.5301822274817403,-7.796750422172664,-2.564138676059997,-2.5074487905542444,-5.274683345132759,-5.1734294430333705,29.34190367681455,-25.60697734380059,105.350594,94.58837225833993,0.0,105.350594,0.6125600687206761,0.303518,0.114443,0.72079802,1.0,0.0,0.0,0.0,104.45031262898888
6.4775,2273.6677,7.684609239581709,-0.9802695257205113,-6.3181306128165495,-1.4981595921023372,-2.0683355005872484,-5.362484103025643,-4.613826982554446,29.352078093143902,-25.698122904771907,97.110519,88.4037892118071,0.0,97.11051900000001,0.6619330325336543,0.271972,0.087014,0.69304001,1.0,0.0,0.0,0.0,97.10507201885066
6.4969,2273.6877,7.807154899792656,-2.3439692181599168,-4.628353741786045,-0.13226964156683807,-1.7443347783749006,-5.304091449014083,-3.5037597001804883,29.19647511846004,-26.16483597134822,89.937096,83.23513744853005,0.0,89.937096,0.7057657776913668,0.237179,0.048967,0.66576499,1.0,0.0,0.0,0.0,90.21711336950723
6.5114,2273.7077,7.538526093478013,-3.216412511100684,-3.2046079848831948,1.2914825083004904,-1.666142603367168,-5.11932992902733,-2.82336661939226,28.557966724262524,-26.99737921159297,83.732269,78.50422164958526,0.0,83.73226899999997,0.7425030217205987,0.209987,0.014558,0.63591099,1.0,0.0,0.0,0.0,84.10985325290459
6.5374,2273.7277,7.30967033963937,-3.4471285553361923,-2.1015999836679846,2.6317444606995695,-1.831916230862845,-4.969508800747507,-2.8730171409686496,27.559347287614145,-27.89443792126894,78.709938,74.44135497025523,0.0,78.70993799999997,0.7705525565634831,0.193516,-0.017949,0.60702401,1.0,0.0,0.0,0.0,79.19293218290532
6.5649,2273.7477,7.366129219526896,-3.3672322105351533,-1.0981243650833417,3.727828744615368,-2.054796711173972,-4.99164724462666,-3.376435784241047,26.918043988432885,-28.250920414717495,74.777954,71.02644762800182,0.0,74.777954,0.789939886216894,0.192893,-0.05988,0.57896602,1.0,0.0,0.0,0.0,75.6402117538058
6.5714,2273.7677,7.607620532082227,-3.478724073865987,0.2702815801426457,4.457224063792824,-2.172574571539467,-5.154786836771361,-3.6385087703647283,26.79613575832049,-28.280847110031633,71.018021,68.06097884618524,0.0,71.018021,0.8037637333105544,0.201645,-0.115759,0.54763401,1.0,0.0,0.0,0.0,73.01793891359588
6.5955,2273.7877,7.657878103953619,-4.390474662243019,2.2000320407816716,4.793215109281503,-2.0316858520847356,-5.320261599035517,-3.086428212952156,27.200548296557862,-28.27281799725881,66.399574,65.1501847718113,0.0,66.399574,0.8149370136275441,0.212809,-0.18284,0.50710899,1.0,0.0,0.0,0.0,70.8377311682338
6.6193,2273.8078,7.089492778454227,-6.2478895559664585,4.380465371854605,4.863304815600122,-1.6122396661085832,-5.314439607924765,-1.65459316959286,27.690256744322216,-28.582116529149044,60.470924,61.92410588556994,0.0,60.470924,0.8258137133722592,0.219063,-0.249458,0.45586601,1.0,0.0,0.0,0.0,68.65784743068343
6.6367,2273.8278,5.92258289399677,-8.437582901370892,6.252246175198259,4.86891494479479,-1.048490488910255,-5.079231350247676,0.010339666089464572,27.610884008483033,-29.47774534783578,53.7094,57.885682366793105,0.0,53.70940000000002,0.8386948401755192,0.21798401,-0.30027199,0.39863601,1.0,0.0,0.0,0.0,65.99489296955764
6.6542,2273.8478,4.756929701548798,-10.608460852607418,7.180688598286423,5.007067418785799,-0.34525891700621925,-4.716781289618286,0.8886623160320717,27.52202091554529,-30.149811191415193,47.845024,53.385288560303906,0.0,47.845023999999995,0.8488832923680381,0.226734,-0.33287001,0.342325,1.0,0.0,0.0,0.0,63.81916588832221
6.6718,2273.8678,3.9691200301323546,-12.475335579900321,6.941572216803969,5.353579990002361,0.29474405575953133,-4.3248863187089865,0.9781356847438047,27.584333306529665,-30.374583803668845,43.506363,48.98128754711795,0.0,43.50636299999999,0.8541744053535084,0.24963699,-0.35208601,0.290005,1.0,0.0,0.0,0.0,62.662708029527494
6.6927,2273.8879,3.5710273725194357,-13.907122107787284,5.56174509303424,5.806389961967197,0.7582791353817515,-4.022101970318866,0.5612282566879543,27.844007017459074,-30.12558410111356,40.849014,45.15399257954004,0.0,40.84901400000001,0.852446724677607,0.28684399,-0.36408499,0.241862,1.0,0.0,0.0,0.0,63.04241133707271
6.7174,2273.9079,2.905888896562755,-14.893200969710664,3.314352759087768,6.23630309670958,0.9640867447819228,-3.7912536263220638,0.6233291213659591,28.276349614717837,-29.503460856431992,38.946362,41.781680669750735,0.0,38.94636199999999,0.8427257322659845,0.33153501,-0.37907201,0.19026899,1.0,0.0,0.0,0.0,65.14184104031153
6.7404,2273.9279,1.5500057813034114,-15.353565099611583,0.5730791832165281,6.509241696738432,0.8854226591658505,-3.56850248518312,1.4421599376405272,28.758157879621937,-28.714008467520937,37.050182,38.47004400372253,0.0,37.05018200000001,0.8257800488065934,0.37699601,-0.39893201,0.12967101,1.0,0.0,0.0,0.0,68.66468767242807
6.7513,2273.948,-0.42165309544839946,-15.092778520132228,-2.22685110987019,6.544824008247231,0.5357458284898113,-3.3130372801793273,2.4908048242415735,29.006638796900805,-28.07918916140489,35.072601,35.11185018172854,0.0,35.07260099999999,0.8038920614278883,0.41791499,-0.41847399,0.06312,1.0,0.0,0.0,0.0,72.99321835481457
6.7792,2273.968,-2.578787539445263,-14.059131436269386,-4.72010871670035,6.368959596463904,-0.025258926685701955,-3.006941389970989,2.983776501033674,28.860740597707952,-27.834008986090637,33.890396,32.3246699014033,0.0,33.89039600000001,0.7790875737309894,0.45339999,-0.43295199,0.001891,1.0,0.0,0.0,0.0,77.64577947282393
6.8005,2273.988,-4.496486197369533,-12.494663752969725,-6.784488690737991,6.080244996190359,-0.7562088044658397,-2.682751962770924,2.441052137898543,28.378504375453126,-27.973644274353624,34.56337,30.730297230807402,0.0,34.56336999999999,0.7530881172054169,0.48600101,-0.44115099,-0.045245,1.0,0.0,0.0,0.0,82.28281414511362
6.8167,2274.008,-6.09876509909635,-10.67628323096851,-8.623954325335607,5.763137825796703,-1.6834969994551126,-2.3705192033015114,1.3722433633088391,27.884906262735043,-28.119598008327394,37.755302,30.875237021768093,0.0,37.755302,0.7228550536401883,0.51825398,-0.4497,-0.081629,1.0,0.0,0.0,0.0,87.41859033830147
6.836,2274.0281,-7.338365111735459,-8.65323797419506,-10.501049185980108,5.3929844855218185,-2.8240986241851216,-2.0554454614084547,0.8549315160963795,27.715279546999955,-27.940129270275715,44.280491,34.09971439661581,0.0,44.280490999999984,0.6818598613043737,0.54946101,-0.46938801,-0.11329,1.0,0.0,0.0,0.0,94.0216986494854
6.8539,2274.0481,-7.888763824533951,-6.631645807645489,-11.91042934746981,4.838749601205167,-4.146684639630768,-1.6706707899994928,0.3531696341125956,26.517652264357963,-28.79486345625631,48.840149,39.090620929744375,0.0,48.840149,0.6493603509625757,0.56085598,-0.496086,-0.13293,1.0,0.0,0.0,0.0,99.013215155675
6.8767,2274.0681,-7.430773009615903,-5.023690956268283,-13.10092175630032,4.163603620309178,-5.347058471624836,-1.2360631395884738,-0.8956357733741314,25.181886328508483,-29.711572954329363,52.984123,44.76850415887121,0.0,52.98412300000001,0.6215177962036321,0.56858802,-0.52006,-0.14128301,1.0,0.0,0.0,0.0,103.1458861887664
6.8966,2274.0882,-5.871735550701008,-4.016293741119479,-13.959389736891847,3.493314356334384,-6.291284409276788,-0.7144879158092565,-2.840152277008455,23.75839342498539,-30.561300110101165,57.173187,50.52060936692383,0.0,57.173186999999984,0.5977383037540421,0.576931,-0.54001898,-0.135052,1.0,0.0,0.0,0.0,106.58382653064055
6.9178,2274.1082,-3.285226681913289,-3.4845210345912454,-14.278262464960559,2.7872870457947725,-6.912511617713918,-0.1062241594558313,-4.333582326536817,22.562661416416425,-31.227001596155603,61.702801,57.682999032603334,0.0,61.702800999999994,0.5689203693920264,0.58638,-0.56470799,-0.116589,1.0,0.0,0.0,0.0,110.65005181299202
6.933,2274.1282,-0.08237972399666926,-3.393363505793812,-13.604215138551691,1.9402105980924993,-7.124360494706725,0.5252176262882648,-4.926249957771978,21.794473546703276,-31.79791928018351,65.471329,65.90296857469419,0.0,65.471329,0.5331029490942052,0.59363198,-0.59596097,-0.090735,1.0,0.0,0.0,0.0,115.56930132775302
6.9539,2274.1482,3.0402360066239487,-3.7999256378123105,-11.670381429126333,1.0474007961102352,-6.844716879169661,1.2817829992763508,-4.9883757242892965,20.571577382772603,-32.85373617097294,67.272079,73.35733022909993,0.0,67.27207900000002,0.5016800427572532,0.59336102,-0.62746799,-0.050237,1.0,0.0,0.0,0.0,119.77757376036412
6.9737,2274.1683,5.4903513482876685,-4.221121759790115,-8.653503102555831,0.3121862495229458,-6.093705663644804,2.161958055770624,-4.710554139064446,18.06212364493075,-34.65251394727832,68.502686,79.00682921854397,0.0,68.50268599999998,0.479507573758517,0.58816302,-0.65106499,0.015847,1.0,0.0,0.0,0.0,122.69350835942876
6.9926,2274.1883,6.9318541966081835,-4.260191873591155,-5.3919075789317334,-0.24386816971096661,-5.156632483318008,2.742326634077757,-4.377245205692008,15.961640787908818,-36.01312086734491,71.017563,82.83959624509362,0.0,71.017563,0.4555424632764763,0.58837801,-0.66297799,0.082174,1.0,0.0,0.0,0.0,125.80031459517224
7.0141,2274.2083,7.415903869878124,-4.005526107381995,-2.356157833124338,-0.6762329505884821,-4.1794862164663735,3.1492564646902554,-3.6826740564656033,14.037962085821597,-37.1330865875659,73.991119,85.9057977179276,0.0,73.991119,0.431255983985799,0.58884001,-0.66719401,0.14878801,1.0,0.0,0.0,0.0,128.90541104442025
7.0326,2274.2284,7.172934038877516,-3.834496890103482,0.13019940790311857,-1.0991790226931561,-3.266276396145975,3.4280396866494196,-2.425045107468818,12.99956591614159,-37.80795151397785,77.254456,88.8058421067795,0.0,77.254456,0.4019222407330295,0.59027702,-0.66830301,0.208333,1.0,0.0,0.0,0.0,132.6031957003928
7.0584,2274.2484,6.647492617002321,-3.907462597555517,1.9213853638455056,-1.5895438257381211,-2.4407306703188456,3.6996302902089515,-0.9161323228660235,12.761880719058892,-38.11233249828435,80.743393,91.15791423484276,0.0,80.74339299999997,0.3714483459710906,0.59337699,-0.66490197,0.260452,1.0,0.0,0.0,0.0,136.3900634189783
7.0791,2274.2684,6.383339838693196,-4.097231914811148,2.9703943827889887,-2.16120214819544,-1.7510544994512307,4.03336391747533,0.3470225141475215,12.895051541058454,-38.197028151739666,84.598602,92.38928189710862,0.0,84.59860200000003,0.3467888826306278,0.599141,-0.65329802,0.30654401,1.0,0.0,0.0,0.0,139.41793175571613
7.0953,2274.2884,6.80161008521862,-4.040711640373428,3.3702503879067027,-2.714462353819531,-1.2547284982549423,4.455615047696466,0.8867868066749439,12.719164765618256,-38.297784108737936,88.95787,92.10533343604548,0.0,88.95787000000001,0.3356040154239807,0.60745502,-0.62965,0.34915501,1.0,0.0,0.0,0.0,140.78145602396785
7.1112,2274.3085,7.81172997009947,-3.4191126264027587,3.3673307403761275,-3.1274213854977604,-1.0121453436758672,4.91439840229089,0.8525746839578936,11.942324579931688,-38.49993054582577,94.163673,90.7274295587639,0.0,94.16367300000002,0.3341824011640646,0.61806101,-0.593355,0.39274999,1.0,0.0,0.0,0.0,140.95434428377533
7.1333,2274.3285,8.88348732175607,-2.1406335297718515,3.286993093381957,-3.3523568097668033,-1.0290712687446,5.298017744263834,0.8409787785479796,10.760885046076373,-38.7150060704299,100.249359,89.38257480244143,0.0,100.24935900000003,0.3319174845399062,0.62858701,-0.54868603,0.44005999,1.0,0.0,0.0,0.0,141.2295992248259
7.1541,2274.3485,9.561031558120643,-0.31356444789237914,3.3376419788409404,-3.358406009694167,-1.2543751104450724,5.526879173921453,0.8759146800464712,9.629673337589502,-38.83362000309199,107.168839,88.40403043236775,0.0,107.16883899999999,0.3221327052054791,0.639925,-0.499044,0.487526,1.0,0.0,0.0,0.0,142.41609801073918
7.1764,2274.3686,9.507147341326823,1.7803319923121501,3.643992046753194,-3.181957942081885,-1.582633312777436,5.544951168502105,0.8638316607153043,8.867599829390356,-38.82109273340423,114.75293,87.81073475122464,0.0,114.75292999999999,0.3023005710837463,0.65262198,-0.447157,0.53174198,1.0,0.0,0.0,0.0,144.80833343981485
7.1934,2274.3886,8.6114790274168,3.737052960752262,4.263581063173856,-2.9473070404851804,-1.839452909800059,5.342386687838466,0.989539911170084,8.35061703522145,-38.73738637589908,122.348663,87.98025756435808,0.0,122.34866299999999,0.2764679570698184,0.662121,-0.39631701,0.57279497,1.0,0.0,0.0,0.0,147.90097212966097
7.2139,2274.4085,7.088135957880946,5.276490633210433,5.1105252128585885,-2.8023309767367266,-1.8785184383241638,4.988961995842401,1.5367452329269518,7.74448663061708,-38.65953435462734,129.229614,89.55736991776524,0.0,129.22961399999997,0.2523110712089334,0.66281098,-0.34854999,0.61280799,1.0,0.0,0.0,0.0,150.77137655832973
7.2339,2274.4285,5.464881003815675,6.2630199849462445,5.999026437993534,-2.7913302078949975,-1.71469973401291,4.59577149655612,2.186733592141353,7.249377965754176,-38.550271439818225,134.987839,92.13200281073294,0.0,134.987839,0.2336729717050721,0.65748298,-0.30546501,0.64792299,1.0,0.0,0.0,0.0,152.9731761844212
7.2553,2274.4485,4.057092208648271,6.855418772233529,6.822600196041876,-2.9153815173081217,-1.4464387057075192,4.2323711745458175,2.540167404660468,7.113492391384218,-38.38617794880214,140.163208,94.94927337240775,0.0,140.163208,0.2177644710083343,0.65185601,-0.26396701,0.676745,1.0,0.0,0.0,0.0,154.84447306317603
7.2752,2274.4685,2.871380168089633,7.348780090859486,7.453299182508431,-3.1819822975301486,-1.159203386461896,3.906336043573532,2.5026825294673047,7.277633710474538,-38.194801816647356,145.358856,97.90816073988435,0.0,145.358856,0.2024992069262982,0.64772999,-0.21919701,0.70099401,1.0,0.0,0.0,0.0,156.63371193652065
7.2936,2274.4885,1.8129750942945528,7.9360387699152355,7.715912126775407,-3.5937901611906704,-0.9017106031139159,3.5728635123712746,2.322625553623316,7.555210276257753,-37.98819748204837,150.354584,101.61331848572551,0.0,150.354584,0.1905352872920905,0.64254898,-0.170726,0.72227401,1.0,0.0,0.0,0.0,158.03195081302457
7.3191,2274.5085,0.820500796889251,8.635708740581988,7.445544846909861,-4.102295307264503,-0.7280976559718888,3.1867610959192563,2.2224594452647546,7.889825804514132,-37.741525405933594,154.880173,106.72830345340807,0.0,154.880173,0.1837608174437617,0.63445902,-0.119328,0.74125201,1.0,0.0,0.0,0.0,158.82221213941216
7.3379,2274.5285,-0.01783464335918472,9.345766208829204,6.54655553723088,-4.616454614106178,-0.6977387843776137,2.765642407224642,2.1113082902132794,8.303359201839132,-37.459285090977815,158.897507,113.33229827986266,0.0,158.89750700000002,0.1824068212147771,0.624286,-0.064796,0.75683302,1.0,0.0,0.0,0.0,158.98003634584992
7.3536,2274.5485,-0.5353214657782004,9.894566646671183,5.061539917141138,-5.063525814643701,-0.8048520449437682,2.3687607392288323,1.95204646279264,8.866984792538195,-37.198695169689046,161.915573,120.55727488130722,0.0,161.915573,0.1887530296686115,0.61226201,-0.01094,0.76771599,1.0,0.0,0.0,0.0,158.23995723984146
7.3757,2274.5685,-0.7468377339196912,10.177515105511901,3.115941587474019,-5.38962010344707,-1.0214827170784542,2.055558043630951,1.6956302023481244,9.49506123632381,-37.09639065416128,163.976212,127.75300773506407,0.0,163.97621200000003,0.2021324421309937,0.59785002,0.042163,0.77455801,1.0,0.0,0.0,0.0,156.67662756761155
7.3932,2274.5885,-0.8850041513075442,10.1476587215505,0.8874006556794285,-5.578751864880411,-1.2913787128464853,1.8035407323821098,1.6043662031594437,9.933636030419807,-37.29371241288676,165.103073,135.26940245206046,0.0,165.103073,0.2212448273064016,0.57652801,0.095698,0.78070998,1.0,0.0,0.0,0.0,154.435683584378
7.4132,2274.6085,-1.1339108979425836,9.726016443547579,-1.317456028202308,-5.624421528152012,-1.5985826110411474,1.5592728640054663,1.7226531624769228,10.234777115733488,-37.77706637178009,165.532364,142.88417461097868,0.0,165.53236400000003,0.2407460655997508,0.54669398,0.148857,0.788041,1.0,0.0,0.0,0.0,152.13884414095858
7.4353,2274.6285,-1.441747370633692,8.96402979289855,-3.242110159941964,-5.538295779050026,-1.9246156154523535,1.3240817187831504,1.6766721819209538,10.50642199754058,-38.41546598483673,165.446686,148.97534430513977,0.0,165.446686,0.2577205726751729,0.513403,0.199367,0.79388303,1.0,0.0,0.0,0.0,150.130296260073
