AppTimestamp(s),SensorTimestamp(s),acc_x,acc_y,acc_z,gyro_x,gyro_y,gyro_z,mag_x,mag_y,mag_z
50.0007,2317.1937,0.05429226629366314,-0.028350705616266948,-0.03855867612941033,-0.01355,-0.01768,0.01838,15.4,-24.3,-27.0
50.0173,2317.2137,0.06965281212444485,-0.02635501488339811,-0.02672605695923025,-0.00195,-0.01035,0.00555,15.4,-24.3,-26.9
50.0494,2317.2338,0.08373478340854285,-0.021457517035563894,-0.023385393249492736,0.01027,0.00186,0.00494,15.4,-24.3,-26.9
50.067,2317.2538,0.0926193112947796,-0.005303681882917601,-0.03367755551558638,0.01882,0.02263,0.01044,15.3,-24.3,-26.9
50.08,2317.2738,0.09497006761336542,0.021453820413585557,-0.05765137598158354,0.01821,0.00553,0.00677,15.3,-24.4,-26.8
50.0987,2317.2938,0.09175975508758527,0.05252673415647379,-0.09018032004423127,0.00722,-0.0128,5e-05,15.3,-24.3,-26.7
50.122,2317.3139,0.08374906277601854,0.0797074218586181,-0.12269632523572938,0.02005,-0.0073,-0.00117,15.2,-24.4,-26.7
50.1412,2317.3339,0.07312748729736973,0.09801410275404317,-0.14615827172858964,0.03104,-0.00974,0.00616,15.2,-24.3,-26.6
50.1601,2317.3539,0.06107783636190289,0.10334814457120547,-0.15407857870779473,0.01943,-0.04334,5e-05,15.1,-24.3,-26.5
50.1807,2317.3739,0.048830492832905414,0.09540245547361359,-0.14478082919054813,0.00294,-0.05067,-0.0085,15.1,-24.3,-26.4
50.201,2317.394,0.038309276638217774,0.07522992694552703,-0.12208055605768386,-0.02149,-0.02746,-0.00728,15.1,-24.4,-26.4
50.2178,2317.414,0.028647565539988696,0.04461570801591565,-0.09419669498500838,-0.00989,-0.00241,-0.00911,15.1,-24.4,-26.3
50.2399,2317.434,0.016806795044780807,0.008516791576969076,-0.0712112619561811,0.0286,-0.00547,-0.01033,15.2,-24.4,-26.3
50.2802,2317.454,0.0009057583141988097,-0.03106307528436169,-0.0618113462647738,0.04265,-0.01463,-0.003,15.1,-24.4,-26.2
50.2808,2317.474,-0.012157067462354405,-0.042648436525309225,-0.07032280763146659,0.03776,-0.00913,0.01105,15.1,-24.4,-26.2
50.3026,2317.494,-0.02197643098006597,-0.043622950820203614,-0.09553937596452755,0.01882,0.00553,0.00861,15.1,-24.3,-26.1
50.3181,2317.514,-0.024743987515170787,-0.02793940651754974,-0.13094304801445844,0.00416,0.02447,0.0025,15.1,-24.3,-26.1
50.3369,2317.534,-0.019086473843111153,-0.0035902536634678205,-0.166717964183821,0.01577,0.0208,0.01166,15.1,-24.4,-26.1
50.3589,2317.554,-0.0064369605926495035,0.022187633005667513,-0.19257374142831374,0.01821,-0.00302,0.01899,15.1,-24.4,-26.0
50.3771,2317.574,0.011653713845221349,0.045787885648383334,-0.20088590856598643,0.00966,-0.00791,0.01655,15.1,-24.4,-25.9
50.4036,2317.594,0.030983669764691118,0.06441428990551823,-0.1891505631183552,-0.00072,-0.00547,0.02021,15.2,-24.4,-26.1
50.4192,2317.614,0.05276070448586769,0.07559773408709416,-0.16084798632564024,-0.01783,-0.02807,0.01288,15.2,-24.4,-26.1
50.4372,2317.634,0.07006317365797589,0.07868582918502086,-0.12419859191809124,-0.02699,-0.01768,-0.003,15.2,-24.4,-26.2
50.4572,2317.654,0.07960436916681936,0.07204871179996734,-0.08923111723207455,-0.016,-0.00608,-0.01583,15.3,-24.4,-26.2
50.4793,2317.674,0.07903514340356241,0.05625042507028653,-0.0643208532203019,0.01638,0.01347,-0.00483,15.4,-24.4,-26.3
50.4974,2317.694,0.06706386054236282,0.03888068412259543,-0.053691153939023906,0.04631,0.01042,-0.01033,15.4,-24.3,-26.3
50.5192,2317.714,0.04712756830085482,0.02553437773708142,-0.056893193955433574,0.02615,0.00492,-0.02072,15.3,-24.3,-26.3
50.5585,2317.734,0.025875335794588204,0.022395370512928368,-0.0703564307042317,-0.0105,0.00553,-0.02377,15.2,-24.3,-26.3
50.5806,2317.754,0.002692056754306463,0.024796965154664428,-0.08978350195453366,-0.02882,0.00919,-0.0085,15.1,-24.3,-26.3
50.5814,2317.774,-0.01742000862125027,0.02895491193409922,-0.11202327205333695,-0.00317,0.0153,0.00555,15.2,-24.3,-26.2
50.6011,2317.7939,-0.029451155379710513,0.034229457134606844,-0.13528994077855394,0.03837,0.00553,0.00433,15.3,-24.3,-26.2
50.6223,2317.8139,-0.03279792413569008,0.04248910609097062,-0.15822182042915145,0.03776,-0.01646,5e-05,15.3,-24.3,-26.2
50.6386,2317.8339,-0.02785945200713692,0.05627219258063629,-0.17872409692649427,0.00355,0.00919,0.01105,15.3,-24.3,-26.2
50.6584,2317.8539,-0.017136129935222927,0.07151492129727496,-0.1935252376943719,-0.01844,0.03668,0.01288,15.4,-24.3,-26.2
50.6782,2317.8739,-0.004867528423711562,0.08453051132347673,-0.1988408959293526,-0.01172,0.01286,0.00128,15.5,-24.3,-26.1
50.6984,2317.8939,0.00658697516588104,0.09264630593246477,-0.19172816137116833,-0.01966,-0.00791,-0.00605,15.5,-24.2,-25.9
50.7188,2317.9139,0.017315217968513905,0.09409294107282154,-0.17145297598651332,-0.0441,0.00186,-0.00361,15.5,-24.2,-25.9
50.7372,2317.9339,0.027878047713367157,0.08577641817813891,-0.14016700273519156,-0.06486,0.02141,-0.003,15.5,-24.2,-25.8
50.7578,2317.9539,0.038783810225016035,0.06867345266923247,-0.10268990029379133,-0.02149,0.02569,-0.00911,15.4,-24.1,-25.8
50.7816,2317.9739,0.04973295429367166,0.046493246269973934,-0.06545208720015339,0.0402,0.00064,0.00189,15.4,-24.2,-25.8
50.8064,2317.9939,0.06028861413410105,0.02887900734590347,-0.035250659733975453,0.02677,-0.00058,0.00372,15.4,-24.2,-25.8
50.8199,2318.0139,0.06802419672975099,0.02174743344504795,-0.018168205890940925,-0.03432,0.02202,-0.00911,15.4,-24.2,-25.8
50.8444,2318.0339,0.07345499390544757,0.026335466788159713,-0.01876521963501432,-0.04226,0.0263,-0.01888,15.5,-24.2,-25.8
50.8648,2318.0539,0.0718719408709452,0.035531568266340983,-0.03891178023431685,0.00661,-0.00302,-0.01216,15.6,-24.1,-25.7
50.879,2318.0739,0.06208629605724352,0.04862829618547534,-0.07663838846418969,0.0341,0.00186,-0.00728,15.5,-24.1,-25.8
50.9046,2318.0939,0.04799134864424443,0.06436084955661561,-0.12554409413953493,-0.00195,0.02508,-0.01644,15.5,-24.1,-25.7
50.9212,2318.1139,0.02823042221146549,0.08431496263603197,-0.17563754723134295,-0.02149,0.0263,-0.01094,15.5,-24.1,-25.7
50.9381,2318.1339,0.007947577840994998,0.10451333920398158,-0.21580439847886979,-0.02333,-0.00791,-0.00117,15.5,-24.2,-25.7
50.9593,2318.1539,-0.008239280258725612,0.12369914896612484,-0.23700643188862003,-0.05204,-0.01096,-0.00361,15.5,-24.1,-25.7
50.9775,2318.1739,-0.016403112247025262,0.13582462281823712,-0.23477950831553152,-0.08502,0.01652,0.00922,15.4,-24.1,-25.7
51.0114,2318.1939,-0.016440758066919615,0.1543711938653264,-0.21036756880331886,-0.08075,-0.02318,-0.01461,15.5,-24.1,-25.8
51.0214,2318.2138,-0.00458970215333345,0.14786912885899756,-0.16837859828754098,-0.06975,-0.02868,-0.02805,15.4,-24.1,-25.8
51.0463,2318.2338,0.010857111985611944,0.1436971009081353,-0.11561631248083515,-0.07097,-0.03601,-0.03232,15.4,-24.2,-25.8
51.0619,2318.2538,0.02805924035525658,0.12248953768497235,-0.05677959661934473,-0.04898,-0.04212,-0.04149,15.5,-24.2,-25.9
51.0789,2318.2738,0.03523201712226105,0.08684727908927177,0.0054276421779011486,0.00111,-0.05189,-0.04026,15.5,-24.1,-25.9
51.0997,2318.2938,0.018054615785570376,0.0348532789311785,0.0692117552164202,0.01394,-0.09282,-0.08119,15.5,-24.1,-25.9
51.1186,2318.3138,-0.028011534671689594,-0.03017949732689935,0.13021463165879865,0.02371,-0.14535,-0.10196,15.5,-24.0,-25.8
51.1399,2318.3338,-0.10042695797671258,-0.10396135935400849,0.17861942102909367,0.07441,-0.20033,-0.09463,15.6,-24.0,-26.0
51.1605,2318.3538,-0.17383029596734167,-0.17865758987947275,0.1994247986301776,0.18987,-0.17956,-0.09646,15.7,-24.1,-25.9
51.1814,2318.3738,-0.2271640867401191,-0.2488873051390314,0.17666569620184092,0.276,-0.03479,-0.05676,15.7,-24.1,-25.9
51.1986,2318.3938,-0.25401302614183036,-0.2857838100445068,0.10107561259166609,0.42505,0.23033,0.16804,15.7,-24.0,-25.8
51.2215,2318.4138,-0.2537879890835834,-0.3162780578716103,-0.024811126977750675,0.60403,0.16863,0.25173,15.8,-24.1,-25.9
51.242,2318.4338,-0.2386727156301873,-0.28182247819029826,-0.18031195923771648,0.52401,-0.00913,0.15521,15.8,-24.1,-25.9
51.259,2318.4538,-0.20937612815165618,-0.18172430306685095,-0.3355334019000864,0.31204,0.08922,0.16621,15.7,-24.2,-25.8
51.2773,2318.4738,-0.16923135895902078,-0.05440416081078446,-0.4611581058291172,0.1245,0.02019,0.17843,15.8,-24.2,-25.8
51.3031,2318.4938,-0.12548375968823142,0.08069103687990777,-0.5363854635051055,-0.04715,-0.00608,0.18942,15.7,-24.3,-25.8
51.3204,2318.5138,-0.06947212709773455,0.1868338845265609,-0.5545026230070871,-0.16627,0.02569,0.15338,15.8,-24.4,-25.7
51.3386,2318.5338,-0.01036315314079411,0.25584393536722383,-0.523271248946708,-0.20109,0.04035,0.1094,15.8,-24.5,-25.7
51.3598,2318.5538,0.04715415798727765,0.2880617984198442,-0.45948164257901425,-0.13267,0.16435,0.0868,15.8,-24.5,-25.7
51.3801,2318.5738,0.09492325876195316,0.2889677613915104,-0.38091443204537967,-0.04654,0.05929,0.04098,15.8,-24.6,-25.7
51.403,2318.5938,0.13159521731640425,0.28017230416024796,-0.3002183636076303,-0.08625,0.00675,0.01716,15.8,-24.7,-25.5
51.4183,2318.6137,0.15707986333144133,0.2651817513173489,-0.22191416057451008,-0.16199,0.03546,-0.00178,15.7,-24.9,-25.6
51.4404,2318.6337,0.17856472937429296,0.26811059254161884,-0.1464977548411568,-0.23346,0.07944,-0.02133,15.7,-24.9,-25.5
51.4575,2318.6537,0.18845714367381253,0.25722973037897745,-0.07291274521951685,-0.26767,0.06295,-0.02072,15.6,-24.9,-25.5
51.4773,2318.6737,0.18657946361085123,0.2417792154291506,-0.005079628046253504,-0.24812,0.01408,-0.04393,15.6,-25.0,-25.6
51.5057,2318.6937,0.1735913872029076,0.22309713489645297,0.04980754874843285,-0.13634,0.00736,-0.0537,15.6,-25.1,-25.7
51.5206,2318.7137,0.14761259386503112,0.17814918143945516,0.08510043233795805,-0.05143,3e-05,-0.03232,15.5,-25.1,-25.6
51.5516,2318.7337,0.1217362367323497,0.134119768235987,0.09711101941236855,0.00111,0.04829,-0.01583,15.5,-25.1,-25.6
51.5657,2318.7537,0.0847022309600183,0.10077027022191366,0.0894613222450964,0.02066,0.05623,-0.01155,15.5,-25.0,-25.7
51.582,2318.7737,0.04482649597726932,0.0788197427879903,0.07041903815452599,0.0005,-0.00486,-0.01277,15.5,-25.0,-25.8
51.6078,2318.7937,0.004982448412586091,0.0693903848674687,0.048783878194143426,-0.03188,-0.03357,-0.02255,15.5,-24.9,-25.8
51.6253,2318.8138,-0.027931762245368162,0.05974255624071142,0.029578745690693964,-0.04654,-0.00058,-0.0201,15.4,-24.9,-25.8
51.6434,2318.8339,-0.04880259136049453,0.04699807527241081,0.012036397650341257,-0.03676,0.00309,-0.00239,15.4,-24.8,-25.8
51.6597,2318.8539,-0.05558147778260827,0.03070327085595689,-0.008927650562633005,0.03348,0.01103,0.01716,15.4,-24.8,-25.8
51.6835,2318.874,-0.04821310812432959,0.012521177371253444,-0.03908196479719628,0.07747,0.02202,0.02571,15.4,-24.8,-25.9
51.7003,2318.894,-0.031157657191558635,0.00932302036119465,-0.08130304458584803,0.06036,0.02813,0.02999,15.4,-24.7,-25.9
51.7229,2318.9141,-0.006793180346741342,0.01905794262383211,-0.1339305821630976,0.00722,0.02202,0.02693,15.4,-24.7,-25.9
51.7399,2318.9342,0.019997780607005057,0.04042533681430086,-0.1917420239627674,-0.0276,0.01591,0.02266,15.4,-24.7,-25.9
51.7614,2318.9542,0.046529918935746324,0.06746710717694922,-0.24821659541818875,-0.02882,0.0153,0.01533,15.5,-24.7,-25.9
51.7779,2318.9743,0.07048016470669934,0.09248514833094301,-0.2977320057442583,-0.03799,0.00553,0.008,15.5,-24.7,-25.9
51.8066,2318.9944,0.09117232888465972,0.12326598880106686,-0.33684090960132806,-0.06242,-0.00913,-0.00117,15.5,-24.7,-25.9
51.8206,2319.0144,0.11106195944425251,0.14539062966302896,-0.3636092495683485,-0.0722,-0.01402,-0.01339,15.4,-24.7,-25.9
51.8387,2319.0345,0.12989387284443146,0.16876344217650432,-0.3768348555200376,-0.0667,-0.03906,-0.0201,15.4,-24.7,-26.0
51.8599,2319.0545,0.14830327456393028,0.1900131340978609,-0.3743117785089005,-0.07403,-0.04639,-0.03049,15.5,-24.7,-26.0
51.8785,2319.0746,0.16784137031615576,0.2030129023143422,-0.35257129179307434,-0.0722,-0.04273,-0.04698,15.4,-24.7,-26.1
51.9008,2319.0947,0.18628913124556137,0.21131900999230666,-0.3082621582053289,-0.08686,-0.02807,-0.07142,15.4,-24.7,-26.1
51.923,2319.1147,0.20103300800989743,0.21145725761598463,-0.24029452769286763,-0.13511,-0.04395,-0.10807,15.5,-24.6,-26.0
51.9425,2319.1348,0.20398547458450453,0.1956418695932421,-0.15232920906680825,-0.17849,0.01836,-0.1099,15.5,-24.7,-26.1
51.9585,2319.1548,0.18637372637423527,0.157452728376897,-0.05421435680007036,-0.18337,0.03302,-0.07264,15.5,-24.7,-26.2
51.9807,2319.1749,0.14679936100179808,0.11074778367947732,0.03887360278220697,-0.10579,-0.04823,-0.12029,15.5,-24.6,-26.1
51.9996,2319.195,0.08531037747892259,0.04847759995569438,0.11108484827742338,-0.06975,-0.06961,-0.1325,15.5,-24.6,-26.2
52.0285,2319.215,0.010178250825306306,-0.011228184766795855,0.150092096387052,-0.03554,-0.07449,-0.10318,15.5,-24.5,-26.2
52.0446,2319.2351,-0.06380208888222415,-0.057510888186811895,0.15148482470038438,0.0231,-0.03662,-0.10074,15.5,-24.4,-26.2
52.0599,2319.2552,-0.13051751380914223,-0.08024256765881435,0.11945940392431176,-0.01172,-0.02135,-0.08425,15.4,-24.4,-26.2
52.0832,2319.2753,-0.1836283925778219,-0.07601755098524676,0.06439626929907938,-0.07097,0.00614,-0.04943,15.5,-24.3,-26.3
52.1014,2319.2954,-0.22232481081315847,-0.05681802324190549,-0.0011913650773642814,-0.0502,-0.01585,-0.03171,15.5,-24.3,-26.4
52.1221,2319.3155,-0.2434445285563878,-0.027111901209325762,-0.06591715813318189,-0.0331,-0.00791,-0.01155,15.6,-24.2,-26.4
52.1412,2319.3356,-0.24638139201774129,0.006200655960164321,-0.12185770923256634,-0.04104,0.00186,-0.01644,15.6,-24.1,-26.4
52.1624,2319.3557,-0.23189342283750963,0.04213619238488943,-0.1650247467984478,-0.0667,0.0153,-0.00239,15.5,-24.1,-26.5
52.1806,2319.3758,-0.20149018362598153,0.07440883606184237,-0.19453693129305627,-0.0893,-0.00241,0.01655,15.6,-24.0,-26.5
52.2291,2319.3959,-0.15115819033699196,0.1294529976596715,-0.21146758461215853,-0.09785,0.02019,0.03426,15.6,-23.9,-26.5
52.2346,2319.4159,-0.10206155379439133,0.13630353929362263,-0.21664715689251324,-0.10396,0.08189,0.04098,15.6,-23.9,-26.6
52.2442,2319.4359,-0.04998330445083063,0.13859733852356196,-0.21167607266569455,-0.14061,0.07395,0.05381,15.6,-23.8,-26.5
52.2597,2319.4559,-0.0019059185924430694,0.1394416562213551,-0.19813791076729892,-0.17482,0.0263,0.02815,15.6,-23.7,-26.5
52.29,2319.476,0.03621701135606714,0.14877418889735464,-0.1783621385400469,-0.15161,0.0153,-0.00972,15.6,-23.6,-26.6
52.3247,2319.496,0.058801840010433454,0.14449121483172025,-0.15502766317010064,-0.10152,0.00492,-0.03293,15.7,-23.5,-26.6
52.3258,2319.516,0.06481040158594248,0.10233215383776478,-0.1313897097385066,-0.05815,-0.01829,-0.04149,15.7,-23.4,-26.5
52.3439,2319.5361,0.06016161751613119,0.07063764222713319,-0.1116118712582761,-0.05387,-0.0128,-0.03293,15.7,-23.4,-26.7
52.3588,2319.5561,0.0469950107359915,0.04503811969784515,-0.0982831333271097,-0.05448,0.00064,-0.02805,15.7,-23.4,-26.8
52.3788,2319.5761,0.029170154449739735,0.03384160970711257,-0.09308347985444243,-0.05326,-0.0128,-0.02316,15.6,-23.3,-26.7
52.4014,2319.5961,0.010789634461101497,0.034861201618041786,-0.09635615225745653,-0.04898,-0.03845,-0.01827,15.7,-23.2,-26.6
52.4217,2319.6162,-0.004557071972141283,0.040626485226392194,-0.10676677782268662,-0.0386,-0.01035,-0.01277,15.7,-23.2,-26.8
52.4398,2319.6362,-0.01656564617865707,0.04727695706875463,-0.12096880768741869,-0.016,0.02202,-0.00911,15.7,-23.1,-26.7
52.4621,2319.6562,-0.026268492188506517,0.05273433888149716,-0.1338284376778187,0.02371,-0.01952,-0.02377,15.8,-22.9,-26.6
52.4861,2319.6763,-0.03416680532331257,0.058161530825484815,-0.13963240339474403,0.00233,-0.00669,-0.00361,15.7,-22.9,-26.6
52.5086,2319.6963,-0.039566510919159865,0.06441739674708849,-0.13407532533276978,-0.03371,0.00675,0.00677,15.7,-22.8,-26.6
52.5276,2319.7163,-0.04260612138688352,0.06603445893384816,-0.11619254889302155,-0.05143,0.02691,-0.01461,15.7,-22.7,-26.5
52.5475,2319.7364,-0.04353413437230233,0.05879483724022319,-0.08924365613735219,-0.04593,0.0263,-0.00728,15.7,-22.7,-26.7
52.5681,2319.7565,-0.043267566579615786,0.03922406530050566,-0.05981304468492965,-0.00683,0.01408,-0.00972,15.8,-22.6,-26.7
52.5897,2319.7765,-0.04199539520561402,0.011648065058275743,-0.035502629553640475,0.07441,0.03729,-0.01094,15.8,-22.6,-26.8
52.6132,2319.7966,-0.03897035777666311,-0.012961721718896415,-0.02224617310199406,0.07258,0.05745,-0.01339,15.8,-22.6,-26.8
52.6402,2319.8167,-0.03252908566214902,-0.02408705177603203,-0.022647085965770586,0.03226,0.05134,-0.00544,15.8,-22.6,-26.9
52.6477,2319.8367,-0.0361771255977748,-0.01623292631071135,-0.03597391954139617,0.00355,0.05195,0.00066,15.8,-22.6,-26.9
52.6603,2319.8567,-0.03666089730551704,-0.0016925178188320481,-0.05893393339928821,0.01272,0.08005,0.0025,15.8,-22.6,-27.0
52.6797,2319.8767,-0.034813703228983216,0.01099135355375061,-0.08673821850760177,0.05242,0.066,-0.00178,15.8,-22.6,-26.9
52.7033,2319.8968,-0.03472201862321863,0.017436778814900213,-0.11396983756135981,0.06403,0.03241,0.00494,15.8,-22.6,-27.0
52.7199,2319.9168,-0.036432710214244324,0.026381219244295505,-0.1355389014891788,0.05609,0.00736,0.0196,15.8,-22.6,-27.0
52.7401,2319.9368,-0.03385295140453826,0.03421817654960742,-0.14772446704873765,0.01882,0.00675,0.01471,15.9,-22.6,-27.1
52.7615,2319.9569,-0.024572102484663638,0.04204786084814469,-0.14923984128555823,-0.0221,0.03913,0.01105,15.9,-22.7,-27.2
52.7801,2319.9769,-0.011265252275571817,0.04530458107221365,-0.14158350988062018,-0.02394,0.03729,0.01533,15.9,-22.8,-27.2
52.8028,2319.9969,0.0030497770678775344,0.04237157430235172,-0.12843999199903422,-0.01111,0.02019,0.02693,15.9,-22.7,-27.0
52.836,2320.0169,0.01426687520705718,0.031612705439852784,-0.11428039313663874,0.01455,0.01164,0.02143,16.0,-22.8,-27.2
52.8542,2320.037,0.020811848060869855,0.023175447087249987,-0.10289436205433589,0.03287,0.00858,0.00983,16.1,-22.8,-27.1
52.8611,2320.057,0.022885212797715045,0.021325604677139297,-0.09639170158445864,0.02615,-0.00547,0.00616,16.1,-22.8,-26.9
52.8821,2320.077,0.020755777851186732,0.022321777437610064,-0.09514254427763369,-0.00256,0.01775,0.00433,16.1,-22.9,-26.8
52.9012,2320.0971,0.01329773853475334,0.025306383145986596,-0.09827549734303176,-0.00622,0.01714,-0.00056,16.2,-23.0,-26.9
52.9212,2320.1171,0.001522798537065195,0.0260552029252919,-0.10420367337641245,0.02371,0.00309,-0.00544,16.2,-22.9,-26.8
52.9438,2320.1371,-0.011942703184753005,0.022795512754158472,-0.1109573672174129,0.03226,-0.01035,-0.00178,16.3,-22.9,-26.7
52.9614,2320.1571,-0.02481422668605096,0.019032494723468116,-0.11642312119496623,0.01272,0.01775,-0.00056,16.3,-22.8,-26.5
52.9832,2320.1772,-0.03511848709235812,0.015007972764449535,-0.11874376616575866,0.00905,0.01652,0.00616,16.4,-22.8,-26.5
53.0099,2320.1972,-0.04272328274896562,0.012197940363133689,-0.11699042471930987,-0.00928,-0.00852,0.00555,16.4,-22.8,-26.5
53.0242,2320.2172,-0.04591398375011098,0.008026640745789163,-0.1117089180750721,-0.01355,-0.01768,-0.00056,16.4,-22.9,-26.5
53.0407,2320.2373,-0.045190190371050064,0.0038441753466333687,-0.10498844211435276,0.00294,0.00064,-0.00239,16.4,-22.9,-26.5
53.0632,2320.2573,-0.041465987370582005,0.00010466798727020699,-0.09979505722460225,0.01516,0.02019,0.00433,16.4,-22.9,-26.5
53.0823,2320.2773,-0.037856766575278394,-0.0006513303179479246,-0.09888285149707521,0.01699,0.00553,0.00433,16.4,-22.9,-26.5
53.1047,2320.2973,-0.036219100751413276,0.001209281514686417,-0.103741709967343,0.02493,-0.00669,-0.00544,16.4,-22.9,-26.5
53.1241,2320.3173,-0.03699366864389519,0.006512514027936314,-0.11406191674386079,0.01943,0.00247,-0.00483,16.3,-22.9,-26.3
53.1417,2320.3373,-0.03930288086887962,0.013272292433189154,-0.12786642317328045,0.02371,0.00247,0.00494,16.3,-22.9,-26.4
53.1614,2320.3573,-0.04234181892155067,0.018790113518208126,-0.1422254062952355,0.01149,0.00797,0.00066,16.3,-22.9,-26.5
53.1909,2320.3773,-0.04516991450452206,0.02093231087553288,-0.1542741861886121,0.00294,0.01103,-0.01094,16.3,-22.9,-26.5
53.2126,2320.3973,-0.048340821789579984,0.01889368127278155,-0.16216856945153246,-0.00256,-0.00424,-0.00361,16.3,-22.9,-26.5
53.2252,2320.4173,-0.049757533466953635,0.01294013343588787,-0.16558204518310227,0.00172,-0.00424,0.00677,16.3,-22.9,-26.4
53.2429,2320.4373,-0.048019005389594874,0.00559636261099322,-0.16563912089860366,0.00233,0.00309,0.00189,16.3,-23.0,-26.5
53.2608,2320.4573,-0.042719061017188704,0.0004911523867279164,-0.1643029635971942,-0.00317,-0.0018,0.00372,16.3,-23.0,-26.6
53.2823,2320.4773,-0.034894023685718166,6.364988462837308e-05,-0.16346851431593024,-0.02516,-0.00669,0.01594,16.3,-23.0,-26.7
53.3079,2320.4974,-0.02612533309007106,0.0034809952648236662,-0.16402501402249037,-0.01783,0.00309,0.0141,16.3,-23.1,-26.7
53.3231,2320.5174,-0.019708512580131888,0.007578215601258215,-0.16519663371810545,0.00722,0.01164,0.008,16.2,-23.0,-26.7
53.3448,2320.5374,-0.019204585503085212,0.01088607137280633,-0.16450784436312027,0.02005,0.00064,-0.00605,16.2,-23.0,-26.6
53.3732,2320.5574,-0.029165824156099404,0.01140044300617911,-0.15862659912419907,0.00233,-0.02257,-0.00544,16.2,-23.0,-26.7
53.3819,2320.5775,-0.04284302317751571,0.010983847149604348,-0.14485836103338912,-0.00378,-0.03601,-0.00178,16.2,-23.1,-26.7
53.4089,2320.5975,-0.06889664105195009,0.007366197602110567,-0.12279040163618227,0.01272,-0.05922,-0.00239,16.2,-23.0,-26.7
53.4257,2320.6175,-0.08667827257431356,0.0014664446317132138,-0.0948798517269065,0.01088,-0.07511,-0.00667,16.2,-23.1,-26.9
53.4424,2320.6376,-0.09586211103383406,-0.006025934263971675,-0.06626073637943897,-0.00867,-0.04029,0.00616,16.2,-23.1,-26.8
53.4625,2320.6576,-0.09547084642347675,-0.015283858260384219,-0.04307515562887154,0.0176,-0.00302,0.02876,16.2,-23.1,-26.8
53.4848,2320.6776,-0.08654919926113566,-0.023857279671262152,-0.030362390660650718,0.0738,-0.00913,0.02876,16.1,-23.1,-26.8
53.5122,2320.6976,-0.07281687623322158,-0.027630913251483404,-0.030389613434387286,0.07686,-0.02257,0.01349,16.1,-23.1,-26.9
53.5261,2320.7177,-0.05543342998322312,-0.016790263220487447,-0.04210370632721805,0.00294,-0.00241,0.01044,16.1,-23.1,-26.8
53.5487,2320.7377,-0.03974123108295854,-0.003094935599250033,-0.06192051311794344,-0.00622,0.01591,0.02327,16.1,-23.1,-26.9
53.5646,2320.7577,-0.028617776304501807,0.008014112340052696,-0.08480233573843776,0.02615,0.00858,0.00861,16.1,-23.1,-26.9
53.587,2320.7778,-0.02349194024555816,0.009580700016560329,-0.10555922842344678,0.04143,0.00186,-0.00056,16.1,-23.1,-26.8
53.6058,2320.7978,-0.024119131331373788,0.005427806103263235,-0.11999900677430908,0.03287,0.00309,0.00922,16.1,-23.1,-26.8
53.623,2320.8178,-0.027988039179972637,-0.0014435502962825337,-0.12588594655812813,0.01638,0.00858,0.01533,16.1,-23.1,-26.8
53.6451,2320.8378,-0.03203604383266357,-0.008847092798292235,-0.12362006437250983,-0.00561,0.01469,-0.00056,16.1,-23.0,-26.8
53.6639,2320.8579,-0.03462710829711322,-0.016385951109187856,-0.11630329998964406,-0.01416,0.00675,0.00311,16.1,-23.0,-26.8
53.6814,2320.8779,-0.03436164428264335,-0.023756388957735738,-0.10887887543409747,0.00355,0.00858,0.008,16.1,-23.0,-26.8
53.7041,2320.8979,-0.030346821147576787,-0.02972962796224513,-0.10646730130365967,0.01943,0.01469,0.01166,16.1,-23.0,-26.8
53.7245,2320.918,-0.023766122257203953,-0.029498958160397746,-0.11249542919559907,0.02921,0.01103,0.01471,16.1,-23.0,-26.7
53.7439,2320.938,-0.01613075184104263,-0.020399358945907654,-0.1274200244641559,0.03226,0.01164,0.01594,16.1,-23.1,-26.7
53.7625,2320.958,-0.009252734333924702,-0.003864583558740186,-0.14851921407932522,0.00477,0.0037,0.00738,16.1,-23.0,-26.7
53.7904,2320.9781,-0.004477759602672739,0.014618770431505373,-0.17068930682674122,-0.00744,0.00125,0.00677,16.2,-23.0,-26.7
53.8062,2320.9982,-0.0023301736961474956,0.028830708207936193,-0.1878807810004357,0.00416,-0.00302,0.00311,16.2,-23.0,-26.6
53.8251,2321.0182,-0.0028685056385860845,0.034976933207926005,-0.19477087567234364,0.01149,0.00675,0.00128,16.1,-23.1,-26.7
53.8443,2321.0383,-0.005503089571183578,0.033278738382769936,-0.18829599242766903,-0.00195,-0.00119,-0.00361,16.2,-23.0,-26.7
53.8634,2321.0583,-0.009097141556684868,0.026182254408894143,-0.16868617823806886,-0.01538,-0.0128,-0.01033,16.1,-23.1,-26.7
53.8819,2321.0784,-0.012567493021752833,0.0160764274851308,-0.13968972389342582,-0.02516,-0.00363,-0.01461,16.2,-23.0,-26.6
53.9117,2321.0984,-0.014858712016851038,0.007568181756629704,-0.10776717648977296,-0.02394,0.01103,-0.0085,16.2,-23.1,-26.6
53.9286,2321.1184,-0.01782066371347356,-0.0025061791573194147,-0.0802904963049702,-0.00805,0.0037,-0.01583,16.2,-23.1,-26.5
53.9501,2321.1385,-0.020485790187872468,-0.00947651122607475,-0.06327121514080858,0.02188,-0.01219,-0.02255,16.2,-23.2,-26.5
53.9697,2321.1585,-0.023177539891442778,-0.010766425810821396,-0.05943134848305398,0.02738,0.00492,-0.014,16.1,-23.2,-26.5
53.983,2321.1785,-0.02637600629507454,-0.003556710870349641,-0.06745126503565047,0.02799,0.00247,-0.00911,16.2,-23.2,-26.5
54.0024,2321.1985,-0.03072083453127345,0.00691701419042141,-0.0826988409498064,0.03593,-0.00913,-0.01094,16.2,-23.1,-26.5
54.0295,2321.2186,-0.038579529265119976,0.018322787381248734,-0.09909319892915036,0.02249,-0.01646,-0.01644,16.3,-23.2,-26.5
54.043,2321.2386,-0.04658850617347071,0.029709599948459904,-0.11131836740852918,-0.00011,-0.0299,-0.01949,16.3,-23.2,-26.5
54.0661,2321.2586,-0.05693162567313417,0.03521617039233602,-0.11653583770128151,0.00844,-0.03906,-0.01644,16.3,-23.2,-26.5
54.0845,2321.2787,-0.06516687619897048,0.03596448022224469,-0.11494366312172488,0.0176,-0.01158,-0.0085,16.2,-23.2,-26.5
54.106,2321.2987,-0.07141942660068927,0.03292589181376598,-0.10927911521242883,0.02188,0.00736,-0.00361,16.3,-23.2,-26.6
54.1234,2321.3187,-0.07500664442580691,0.028284434045978853,-0.1035596400051908,-0.00256,-0.01646,-0.00239,16.3,-23.2,-26.5
54.1457,2321.3387,-0.07610045003858977,0.021748731409624945,-0.10168190075977357,0.00477,-0.01952,-0.00239,16.3,-23.2,-26.4
54.1645,2321.3588,-0.07393866795687087,0.01623005678323574,-0.10626732487981627,0.02371,-0.00424,-0.00117,16.3,-23.2,-26.4
54.1825,2321.3788,-0.06976261472721101,0.014702145719230383,-0.11800695974298314,0.02921,0.00125,0.00494,16.3,-23.2,-26.4
54.2156,2321.3988,-0.06634614993624674,0.019996199296408855,-0.13557745236341745,-0.00317,-0.00547,0.00189,16.3,-23.2,-26.4
54.2264,2321.4189,-0.06449499035222664,0.026197946818902255,-0.15598637910884783,-0.03066,-0.01402,-0.00728,16.3,-23.2,-26.5
54.249,2321.4389,-0.06625070968488819,0.030949907224611384,-0.1752271474425875,-0.01416,0.01652,0.0025,16.4,-23.1,-26.4
54.2815,2321.4589,-0.07277086559670429,0.02818289238772531,-0.1890110153026825,0.03471,0.02324,0.00861,16.4,-23.1,-26.3
54.2843,2321.4789,-0.08822146088151396,0.02965772253785703,-0.19390026672737015,0.04265,0.00675,0.008,16.4,-23.1,-26.3
54.3011,2321.499,-0.10747849291432367,0.030934806391372107,-0.18838531552344584,-0.02333,-0.01402,-0.00117,16.3,-23.1,-26.4
54.3236,2321.519,-0.1266896684387432,0.03476737133011639,-0.17400473323216126,-0.07158,-0.00669,0.00983,16.2,-23.1,-26.5
54.3416,2321.539,-0.13805965075389617,0.03247987175615429,-0.1550171415401138,-0.03554,-0.01035,0.02143,16.2,-23.1,-26.5
54.367,2321.559,-0.13798565412830555,0.02473515141620093,-0.13677475337189193,0.0286,0.00309,0.02327,16.2,-23.1,-26.5
54.3866,2321.579,-0.12439780989971437,0.017265570971869825,-0.1229444904435173,0.03165,0.01836,0.02693,16.2,-23.1,-26.4
54.4042,2321.599,-0.0998959538808543,0.014774032114461858,-0.11329200672550499,-0.01294,-0.00119,0.02693,16.2,-23.0,-26.4
54.4223,2321.619,-0.0699459500925886,0.013798237209950867,-0.10318009105996673,-0.02394,-0.0128,0.02204,16.2,-23.1,-26.6
54.4444,2321.639,-0.04327640006186803,0.004983590698459304,-0.08521993818427909,0.00111,-0.01341,0.01288,16.1,-23.1,-26.6
54.4676,2321.659,-0.029248447921223393,-0.019805158720808982,-0.05256831200062351,0.04265,-0.00363,0.02021,16.1,-23.1,-26.6
54.4835,2321.679,-0.031882563545979285,-0.05403113041757584,-0.0029011502945461842,0.0622,-0.00302,0.01594,16.1,-23.1,-26.7
54.5144,2321.699,-0.05527622621832593,-0.10366267283162667,0.05816314274444778,0.08113,-0.0409,-0.01949,16.1,-23.1,-26.7
54.5354,2321.719,-0.08978238814031016,-0.14815346701924986,0.11637769020771316,0.11962,-0.08366,-0.05248,16.0,-23.1,-26.6
54.5681,2321.739,-0.14267486189038384,-0.22292091348969684,0.15034291060769256,0.21674,-0.10504,-0.08425,16.0,-23.2,-26.7
54.5907,2321.759,-0.2034719028878922,-0.2752704484565787,0.1408459940766562,0.39512,-0.0971,-0.07386,16.0,-23.3,-26.7
54.5972,2321.779,-0.2188362135816306,-0.2211753800122306,0.0807878758809224,0.64557,-0.34511,0.04037,16.0,-23.3,-26.7
54.6059,2321.799,-0.2123697815966489,-0.13608161324211038,-0.02763732450256029,0.61869,-0.4178,0.0587,16.0,-23.4,-26.6
54.6319,2321.819,-0.20720539508859925,-0.09628900873380623,-0.16520535540968773,0.45009,-0.25959,0.00738,16.1,-23.5,-26.5
54.6594,2321.839,-0.15167303810930313,-0.008703238509618695,-0.2995080418113183,0.3548,0.01408,-0.11296,16.1,-23.6,-26.3
54.6634,2321.859,-0.07947493239649919,0.14030173843681976,-0.403747960611744,0.1807,-0.0635,-0.10685,16.1,-23.7,-26.2
54.6841,2321.879,-0.023185008997706112,0.2509332205153192,-0.4586572752282425,-0.00744,-0.07633,-0.014,16.1,-23.8,-26.1
54.7019,2321.899,0.008638836701280359,0.3212438001338799,-0.4572484470477125,-0.08075,-0.04151,0.02021,16.0,-23.9,-26.0
54.7217,2321.9189,0.021714578669062092,0.3443215724731525,-0.406192640905072,-0.0667,0.01286,0.02021,16.0,-24.1,-25.9
54.7461,2321.9389,0.025556082335149166,0.3282231658015137,-0.32257382396614886,-0.05692,0.06539,0.00189,15.9,-24.2,-25.9
54.7656,2321.9589,0.018568371913809466,0.2844723828185324,-0.22758030499179505,-0.06853,0.088,0.00189,15.9,-24.2,-25.7
54.7867,2321.9789,0.003942570603802586,0.23659611893044513,-0.14087692878584512,-0.09113,0.05562,0.01105,15.9,-24.4,-25.6
54.809,2321.9989,-0.014450908515420524,0.19756690768098223,-0.07571419760243003,-0.10029,0.08555,0.00555,15.9,-24.5,-25.6
54.8271,2322.0189,-0.036985651515355704,0.16451156268738337,-0.03736980639484244,-0.10029,0.14603,0.01594,15.8,-24.6,-25.6
54.8446,2322.0389,-0.058692017436269964,0.13816209816113026,-0.024073681900890875,-0.08686,0.15091,0.0422,15.8,-24.7,-25.7
54.8638,2322.0589,-0.07709698984960407,0.1165831146145,-0.028810401107904227,-0.04959,0.08677,0.0703,15.7,-24.8,-25.7
54.8821,2322.0789,-0.09143315969968288,0.09972942453938582,-0.042272308005751213,-0.00867,0.07883,0.07641,15.8,-24.8,-25.7
54.9107,2322.0989,-0.0931433493222018,0.09643295395691115,-0.0559214496528071,-0.03005,0.06662,0.05442,15.7,-24.8,-25.6
54.9269,2322.1189,-0.08624722979703793,0.09599370398159872,-0.06447066405376312,-0.0948,0.07456,0.0477,15.6,-24.8,-25.7
54.9449,2322.1389,-0.06721344159958015,0.10117831565860719,-0.06721348732033405,-0.12656,0.07333,0.04709,15.6,-24.8,-25.6
54.9647,2322.1589,-0.040076161212405405,0.10571066581867948,-0.06715708712935609,-0.05692,0.09349,0.05686,15.7,-24.8,-25.7
54.9867,2322.1789,-0.009789042928908467,0.10814724598454101,-0.06869427571299269,0.01333,0.06845,0.05381,15.7,-24.8,-25.7
55.0095,2322.1989,0.01889540137090432,0.11403406329138138,-0.07488247805615167,0.02799,0.05073,0.03182,15.7,-24.7,-25.6
55.0254,2322.2189,0.041655098092374325,0.12909262932561896,-0.0857569480454572,-0.01538,0.03668,0.02632,15.7,-24.7,-25.6
55.0487,2322.2389,0.05957529948344844,0.14963042354599787,-0.09846596770294447,-0.02394,0.03607,0.0251,15.7,-24.7,-25.5
55.0704,2322.2589,0.06940156003487835,0.1679952865106949,-0.10891647451444264,0.00355,0.0153,0.01899,15.7,-24.8,-25.6
55.0866,2322.2789,0.06983704927841745,0.1785389146200952,-0.11393497911589456,0.006,0.00858,0.00861,15.8,-24.7,-25.6
55.1075,2322.2989,0.061046222957640894,0.18099938410068359,-0.11285139607496397,-0.016,0.0098,-0.00178,15.8,-24.7,-25.6
55.1254,2322.3189,0.04279839580003467,0.17479176428748755,-0.10770696584723716,-0.03005,0.00431,-0.0085,15.9,-24.7,-25.6
55.142,2322.3388,0.01689924442068431,0.15992915485844048,-0.10233523784831178,-0.016,0.00309,-0.003,15.9,-24.6,-25.4
55.1645,2322.3588,-0.012834877788971329,0.1371518033186175,-0.1005520935307107,0.00783,0.00431,-0.00056,15.9,-24.6,-25.4
55.1938,2322.3788,-0.04146932304888124,0.10749444586436087,-0.10430361969738122,0.0341,0.02202,-0.00483,16.0,-24.6,-25.3
55.2114,2322.3988,-0.07022408282580216,0.08367034117012505,-0.11289153036960897,0.03715,0.03607,0.00066,16.0,-24.7,-25.3
55.2243,2322.4188,-0.09543902444404753,0.06727798126205695,-0.12319707945476388,0.01516,0.02202,-0.00728,16.0,-24.7,-25.1
55.2425,2322.4388,-0.11224239853307653,0.057578306377183884,-0.13148769284245532,-0.0221,0.00492,-0.00667,16.1,-24.7,-25.2
55.2621,2322.4588,-0.11848734065268848,0.052475917409763394,-0.13522047495385436,-0.01416,0.01714,0.01288,16.1,-24.7,-25.2
55.2964,2322.4788,-0.11098119640797091,0.04903232889657083,-0.1338372770120948,0.01455,0.01347,0.01716,16.1,-24.6,-25.3
55.3153,2322.4988,-0.09102686091789887,0.04791908946032614,-0.12845628198666326,0.01638,0.00858,0.01044,16.1,-24.6,-25.2
55.3274,2322.5188,-0.06143368277965945,0.05192884495660878,-0.12072538961656143,0.02005,0.02324,0.0196,16.1,-24.6,-25.2
55.3451,2322.5388,-0.026375440129988565,0.05863232685462809,-0.11187247567969472,0.02066,0.0153,0.02143,16.1,-24.7,-25.3
55.3667,2322.5588,0.008223884277874838,0.0680987486483482,-0.10261559319339852,0.01882,-0.01035,0.00616,16.1,-24.6,-25.2
55.3816,2322.5788,0.038604525972226494,0.08061148760224267,-0.09376366362591426,0.01272,-0.00974,-0.00483,16.1,-24.6,-25.2
55.4105,2322.5988,0.061019612176379225,0.09387658133620477,-0.08694687952137059,-0.00378,3e-05,-0.014,16.1,-24.6,-25.1
55.4236,2322.6188,0.07205765473174212,0.1051568369131508,-0.08474002695098903,-0.00683,0.00309,-0.01644,16.1,-24.6,-25.1
55.4426,2322.6388,0.0712076604330321,0.1125656844055519,-0.08987206756011545,0.01516,0.00919,-0.02866,16.0,-24.6,-25.1
55.464,2322.6588,0.05774555663663591,0.11447220391445818,-0.10375337442832766,0.03532,0.0098,-0.03538,16.1,-24.7,-25.1
55.4817,2322.6788,0.03203879039213029,0.11451833405030552,-0.1252820224122111,0.0457,0.01286,-0.0366,16.0,-24.6,-25.1
55.5066,2322.6988,0.0008830439260317586,0.11140192177195263,-0.15044775311733183,0.02921,0.00919,-0.03415,16.0,-24.6,-25.1
55.5256,2322.7187,-0.033538023534755074,0.10978236746331223,-0.1733950338364867,0.01088,-0.0018,-0.04087,16.0,-24.6,-25.2
55.5478,2322.7387,-0.06469968904450236,0.10628894175031098,-0.1881753712577563,-0.01538,0.01591,-0.04637,16.0,-24.6,-25.2
55.5754,2322.7587,-0.09007524519254657,0.09873481676728765,-0.1908585119340369,-0.02577,0.01897,-0.02866,16.0,-24.6,-25.2
55.5893,2322.7787,-0.11116981298623921,0.08438005572707073,-0.18087933228966513,-0.00867,-0.0018,-0.01766,15.9,-24.6,-25.2
55.6119,2322.7987,-0.12355000892011626,0.07097423213126254,-0.16125057441610124,-0.00256,-0.01158,-0.00972,15.9,-24.7,-25.4
55.6363,2322.8188,-0.1269911074191758,0.06536264137296764,-0.13769418616484685,-0.01905,0.01225,-0.014,16.0,-24.6,-25.4
55.6447,2322.8388,-0.12559684310298855,0.06446698280596039,-0.11705948881582984,-0.04226,0.0263,-0.01339,16.0,-24.6,-25.4
55.668,2322.8588,-0.11664769903685289,0.0773431529561506,-0.1053645879407803,-0.0502,0.01652,-0.00422,16.0,-24.6,-25.5
55.6857,2322.8789,-0.10627707615682777,0.09247395653652722,-0.10581221733925261,-0.01111,0.01164,0.00311,16.0,-24.6,-25.5
55.7071,2322.8989,-0.0939412542820762,0.10948608225372147,-0.1174942872988467,0.02738,0.02447,0.00372,16.1,-24.7,-25.6
55.7257,2322.919,-0.08123663662225243,0.12964919220730176,-0.1354911640993226,0.01272,0.0208,0.00983,16.1,-24.6,-25.5
55.7462,2322.9391,-0.0685023968644549,0.15199778376073003,-0.15241384561268134,-0.02577,0.00064,0.01471,16.3,-24.7,-25.4
55.783,2322.9591,-0.05706540274401883,0.1781885492398512,-0.1611651668468017,-0.05143,-0.00119,0.00433,16.3,-24.7,-25.4
55.7929,2322.9792,-0.04756637476423157,0.18385128166913914,-0.15696499622992377,-0.0441,0.00675,0.00922,16.4,-24.7,-25.4
55.8084,2322.9992,-0.042026250349889806,0.180071528278598,-0.139920293849908,-0.02088,0.00919,0.00861,16.4,-24.6,-25.5
55.8304,2323.0193,-0.04097184041503878,0.16823978190504216,-0.11406222818655998,-0.01538,0.00186,-0.00483,16.4,-24.6,-25.4
55.8483,2323.0394,-0.044163441784434994,0.1515410736841036,-0.08600715902942824,-0.02149,-0.00241,-0.01339,16.4,-24.6,-25.4
55.8662,2323.0594,-0.04921294609695666,0.13571359377276715,-0.06277080474257346,-0.0105,0.01103,-0.00605,16.4,-24.6,-25.4
55.8898,2323.0795,-0.05268117240871927,0.12436857122467249,-0.04961928665577098,-0.005,0.01591,0.00922,16.5,-24.6,-25.5
55.9113,2323.0996,-0.05274895518585268,0.11931558294008018,-0.04874397129543695,0.01333,0.01164,0.00555,16.5,-24.5,-25.4
55.9244,2323.1196,-0.04774435678043978,0.12214022274367248,-0.058977640531825415,0.01638,0.00797,0.00861,16.5,-24.6,-25.4
55.9486,2323.1397,-0.03645660608930673,0.12889508824400825,-0.07648294289655944,0.00355,0.00553,0.01166,16.6,-24.5,-25.4
55.9682,2323.1597,-0.021017960364161595,0.13841587006180472,-0.09632483178929974,0.0121,0.01164,0.01166,16.7,-24.5,-25.3
55.9886,2323.1798,-0.004880371994053241,0.14777772787453544,-0.11402866417153312,0.01821,0.00919,0.00311,16.7,-24.5,-25.4
56.0109,2323.1999,0.007433790955501581,0.1567679860380786,-0.12691874278567283,0.0121,-0.00302,-0.00056,16.7,-24.5,-25.2
56.0249,2323.2199,0.012453881271177589,0.16303628276179,-0.134573686136239,-0.01966,-0.00302,-0.00544,16.7,-24.4,-25.3
56.0458,2323.24,0.008222606686837976,0.16559721910444547,-0.13844892235786155,-0.03493,-0.01158,-0.01094,16.5,-24.4,-25.3
56.0687,2323.26,-0.004691656036926148,0.1599097854899199,-0.14052313879597733,-0.00072,-0.0018,-0.00911,16.6,-24.4,-25.3
56.0934,2323.2801,-0.024498063720949346,0.14686417879789276,-0.14194155949945397,0.04326,0.00675,-0.00239,16.6,-24.4,-25.3
56.1171,2323.3002,-0.048898926254134174,0.13365643304711125,-0.14216231919813715,0.02005,0.00186,-0.01094,16.5,-24.5,-25.4
56.13,2323.3202,-0.07462011737160355,0.12292759271348556,-0.13919245318938778,-0.03493,-0.00241,-0.01766,16.5,-24.5,-25.4
56.148,2323.3403,-0.09606894229244649,0.1148570804236494,-0.13108708885304488,-0.05265,-0.00791,-0.00972,16.6,-24.5,-25.4
56.1684,2323.3604,-0.10869417940781669,0.10502002323793988,-0.11752108900200042,-0.04104,-0.00791,0.00494,16.6,-24.6,-25.5
56.1878,2323.3804,-0.10922166905017523,0.08961208246687095,-0.10059966088841321,-0.02027,-0.00486,0.00555,16.5,-24.6,-25.4
56.2071,2323.4005,-0.09754446537505401,0.07287035478669557,-0.08451613157453686,0.01027,0.00247,0.02021,16.5,-24.6,-25.4
56.2239,2323.4205,-0.0758165748306659,0.062258822021624444,-0.07423278291741653,0.00966,-0.01219,0.02388,16.5,-24.6,-25.4
56.2575,2323.4405,-0.051279786598441256,0.0649909146236678,-0.07408093843484309,-0.01783,-0.0128,0.01105,16.4,-24.6,-25.4
56.2753,2323.4606,-0.022643305549426333,0.07545458699358973,-0.08645407482305423,-0.04715,-0.00852,0.008,16.4,-24.6,-25.5
56.286,2323.4806,0.0028191637745287367,0.08972954233341679,-0.11109254765210785,-0.03432,-0.00058,0.00861,16.4,-24.6,-25.4
56.307,2323.5006,0.021041615930751146,0.10901886526317904,-0.14446433637482592,-0.00805,0.01714,0.00066,16.4,-24.6,-25.5
56.3232,2323.5205,0.027873852769380165,0.12665752127999105,-0.17980380971040155,-0.0221,0.00492,-0.00789,16.5,-24.6,-25.4
56.3451,2323.5405,0.02303762297760756,0.14326763510830826,-0.20851170984481548,-0.04348,0.00309,-0.00361,16.5,-24.6,-25.5
56.3671,2323.5605,0.008366514239704137,0.15568593836076536,-0.22230304106313703,-0.05387,-0.0128,0.00433,16.5,-24.6,-25.5
56.3844,2323.5805,-0.010737618392235204,0.15854019792839724,-0.21582831537128477,-0.06548,-0.02196,-0.00544,16.4,-24.6,-25.4
56.4094,2323.6005,-0.030669542298882916,0.16060198392456948,-0.1889398357115244,-0.09663,0.00064,-0.00361,16.4,-24.5,-25.3
56.4265,2323.6205,-0.0473964289957524,0.1483692914919486,-0.14661694816295068,-0.10335,-0.00363,-0.01216,16.4,-24.5,-25.3
56.4492,2323.6405,-0.059885349282951014,0.13585743814315873,-0.09849545599075604,-0.09419,-0.01035,-0.00728,16.4,-24.5,-25.3
56.4643,2323.6605,-0.06730697667688769,0.11555529376903223,-0.05530836379189452,-0.05631,-0.00791,-0.00728,16.4,-24.5,-25.3
56.4863,2323.6805,-0.07023770686274758,0.10031301701364821,-0.0262315539053688,-0.02272,-0.00791,0.00189,16.3,-24.4,-25.4
56.507,2323.7005,-0.06839458554406348,0.09023500436707049,-0.015868178938427846,-0.01477,-0.0128,0.00555,16.3,-24.4,-25.4
56.5274,2323.7205,-0.06282972880552662,0.0878296735650397,-0.023577512796247646,0.0005,-0.01829,0.00555,16.3,-24.3,-25.4
56.5511,2323.7405,-0.05572205693194125,0.09235815017783,-0.04433580397803105,-0.00133,-0.0073,0.00372,16.3,-24.3,-25.5
56.5721,2323.7605,-0.04910540867066677,0.10061008076038717,-0.07092388874048616,-0.00317,3e-05,-0.00605,16.3,-24.2,-25.4
56.5851,2323.7805,-0.0453414612307777,0.107496775846162,-0.09642370583200233,-0.01355,-0.01463,-0.01216,16.4,-24.2,-25.4
56.6096,2323.8005,-0.046476412845129725,0.11134317270453147,-0.11615210201684079,-0.00928,-0.01524,-0.00911,16.3,-24.2,-25.4
56.6386,2323.8206,-0.0522781393730095,0.10904394958149731,-0.12833075471999145,0.00172,-0.0073,0.00494,16.2,-24.1,-25.5
56.6465,2323.8406,-0.057576270653617,0.10459456144525713,-0.13372512651678292,0.02127,-0.01096,0.00372,16.2,-24.1,-25.6
56.6692,2323.8606,-0.06537062826284544,0.09719445721094591,-0.134435091045237,0.01638,-0.02501,0.0025,16.2,-24.1,-25.7
56.685,2323.8807,-0.07125360645583484,0.09239738685893471,-0.13271394943411785,0.00233,-0.00302,0.0025,16.2,-24.0,-25.8
56.7078,2323.9007,-0.07601841943565826,0.09004950432589205,-0.13010633314684128,0.00416,-0.00302,0.00494,16.2,-24.0,-25.8
56.7269,2323.9207,-0.07901135651834673,0.09076837911184985,-0.12721022445917285,0.01027,-0.00974,0.00738,16.1,-24.0,-25.9
56.7445,2323.9407,-0.08035886942926322,0.09324746850049054,-0.1238183546267706,-0.00378,-0.00302,0.0025,16.1,-24.0,-25.9
56.7668,2323.9608,-0.08005811340139463,0.09565353706351987,-0.11926999704133223,-0.00439,-0.00913,0.0025,16.1,-24.0,-25.9
56.7972,2323.9808,-0.07747107795469128,0.09564228228511829,-0.1128179621127181,0.01088,-0.01707,0.00677,16.1,-24.0,-25.8
56.8174,2324.0008,-0.070693331874617,0.09506644022603841,-0.10403878868855365,0.01821,0.00064,0.00861,16.2,-24.0,-25.9
56.8265,2324.0209,-0.06085799131613987,0.09463420207780197,-0.09322252225402927,0.01088,0.00736,0.00494,16.2,-24.0,-25.8
56.8471,2324.0409,-0.0500417257118183,0.09331239353857732,-0.08174816059250745,-0.00867,-0.00547,0.00677,16.3,-24.0,-25.8
56.8712,2324.0609,-0.03860349144661599,0.0918360131137851,-0.07226061043742682,-0.00439,-0.00791,0.00433,16.3,-24.0,-25.8
56.8873,2324.0809,-0.028218084903197767,0.09032676005863946,-0.06827534202617258,0.00111,0.01775,0.00128,16.3,-24.0,-25.7
56.9113,2324.101,-0.019926684862660998,0.09021667353695154,-0.07315383989773316,0.01272,0.01591,-0.00056,16.4,-24.1,-25.7
56.9255,2324.121,-0.017198102031239525,0.0941459748208637,-0.08870884837210369,0.00905,0.00492,5e-05,16.4,-24.1,-25.7
56.9457,2324.141,-0.019335796264138987,0.10037786574594607,-0.11389888396309189,0.01272,0.00675,0.00128,16.5,-24.0,-25.4
56.969,2324.1611,-0.026006620475408818,0.10653403941701235,-0.14434687937184343,0.01455,0.00431,0.00311,16.5,-24.0,-25.4
56.996,2324.1811,-0.03643071227803255,0.11038067949653904,-0.17294167022427231,0.02371,0.02141,0.00066,16.5,-24.0,-25.5
57.0152,2324.2011,-0.05176128993693526,0.11344556523282308,-0.19168501643631686,0.01516,0.01225,-0.01033,16.5,-24.0,-25.5
57.0274,2324.2211,-0.07010638302938564,0.11159017851350066,-0.19412235049652615,-0.02516,-0.00791,-0.01155,16.5,-24.1,-25.4
57.046,2324.2412,-0.08751241832004493,0.10590409311850223,-0.17785073820039976,-0.05692,-0.00424,-0.01216,16.5,-24.0,-25.4
57.069,2324.2612,-0.09992096065671396,0.09422660142640835,-0.14559813552911827,-0.0441,0.00247,-0.00239,16.5,-24.0,-25.4
57.0887,2324.2813,-0.10405915649759627,0.07423184669788355,-0.10461623113318907,-0.00072,0.00736,0.00555,16.5,-24.0,-25.4
57.1096,2324.3013,-0.09864657773190538,0.0528667824316534,-0.06452250894683509,0.02127,0.01164,0.00983,16.4,-24.0,-25.3
57.1264,2324.3214,-0.08469409917907249,0.04009991626982768,-0.03437621084705178,0.02738,0.00736,0.01471,16.5,-24.0,-25.4
57.1485,2324.3414,-0.06467261697948765,0.039636000003598716,-0.02040493079807071,0.02188,-0.00302,0.01716,16.4,-24.0,-25.3
57.1687,2324.3615,-0.042131353999311005,0.0531864493391955,-0.024988744837374455,0.00233,3e-05,0.00861,16.3,-24.0,-25.4
57.1867,2324.3815,-0.021765098842722777,0.07502982131394147,-0.04653812520723477,0.00233,0.01225,-0.00422,16.4,-24.0,-25.5
57.2139,2324.4016,-0.0075624807850801865,0.09654147497887347,-0.07991813720068919,0.02188,-0.00363,-0.00483,16.3,-24.0,-25.6
57.228,2324.4216,-0.0037053949534557795,0.11669429112607675,-0.11739236150297394,0.03471,0.0037,-0.00117,16.3,-23.9,-25.5
57.2479,2324.4416,-0.0098508598195385,0.12778831549048916,-0.1499071821395379,0.02554,0.01042,-0.003,16.3,-24.0,-25.6
57.2707,2324.4617,-0.02582130431633349,0.12963910796651804,-0.16930751159839197,0.01699,0.00675,-0.01216,16.3,-24.0,-25.7
57.2885,2324.4817,-0.04954170527940325,0.12227680453203711,-0.17063413575210262,-0.00561,-0.01035,-0.00483,16.3,-23.9,-25.5
57.3185,2324.5017,-0.0782112719786662,0.10797797448242684,-0.1540190409612876,-0.0221,-0.01768,-0.00239,16.3,-24.0,-25.5
57.3296,2324.5217,-0.1034565421491992,0.08261559213614753,-0.12499709605295273,-0.02088,-0.02074,-0.01033,16.4,-23.9,-25.6
57.3613,2324.5418,-0.12479788306676176,0.05802906080076147,-0.0933608146221463,-0.01416,-0.00547,-0.01216,16.4,-23.9,-25.6
57.3711,2324.5618,-0.13769098545433647,0.03699213444262957,-0.06964803516063434,0.00966,0.00797,0.00922,16.4,-24.0,-25.6
57.3876,2324.5818,-0.1420722257269163,0.025790960432207015,-0.061701279460338654,0.03043,0.00431,0.01655,16.5,-24.0,-25.7
57.412,2324.6019,-0.13812759817389597,0.025583352952199136,-0.07192335774242054,0.03287,0.01042,0.01471,16.5,-23.9,-25.6
57.4267,2324.6219,-0.12782659586996883,0.04086405804931658,-0.09682886956281145,0.0231,0.00919,0.01838,16.5,-24.0,-25.6
57.4477,2324.6419,-0.11349562369616992,0.06282684538179843,-0.12875490018897118,0.00966,0.01714,0.02999,16.5,-23.9,-25.6
57.4678,2324.6619,-0.09812323246939911,0.08746855573782042,-0.15906887395071223,-0.00133,0.00431,0.01716,16.5,-23.9,-25.5
57.4872,2324.682,-0.08407907513342143,0.1088538087031216,-0.1812463072559627,-0.03249,-0.00913,0.00311,16.5,-24.0,-25.3
57.5143,2324.702,-0.07322961850070332,0.12581173292074696,-0.1927295751312439,-0.04593,-0.00302,0.00433,16.6,-24.0,-25.3
57.5555,2324.722,-0.06669209792265346,0.1379757043653048,-0.19479181686489078,-0.04837,0.0098,0.01166,16.6,-24.0,-25.3
57.5674,2324.7421,-0.0619890935740528,0.13094504966181272,-0.19062009094634647,-0.03554,-0.00302,0.01166,16.6,-24.0,-25.3
57.5859,2324.7621,-0.05970813523446765,0.12360861214313267,-0.1838277940632178,-0.02455,-0.0073,0.01349,16.6,-24.0,-25.3
57.6146,2324.7821,-0.05820661531898319,0.12633196935928798,-0.1762090800572249,-0.04715,0.00858,0.01227,16.5,-24.0,-25.4
57.6181,2324.8021,-0.057889461210114464,0.11646336968945685,-0.16720689531097932,-0.1064,0.01225,0.01716,16.5,-24.1,-25.3
57.6293,2324.8222,-0.05965107365233012,0.11502302980309001,-0.15575908772976277,-0.11312,0.0153,0.01044,16.4,-24.1,-25.4
57.6464,2324.8422,-0.06575320690460536,0.11615003927523124,-0.14065939071300093,-0.07464,-0.01341,0.00494,16.4,-24.0,-25.4
57.6749,2324.8622,-0.07906637271969091,0.11632411256885333,-0.12180174493679097,-0.03738,-0.01952,0.00128,16.4,-24.0,-25.4
57.6904,2324.8822,-0.09361645576780224,0.10411458109879575,-0.10013868486034916,-0.03066,-0.02135,0.00128,16.3,-24.0,-25.4
57.7098,2324.9022,-0.1100703047943319,0.08828376683624066,-0.0777433915321879,-0.01538,-0.03173,0.00616,16.3,-24.0,-25.5
57.7256,2324.9222,-0.12356396173970627,0.0715543226286481,-0.056833308144558004,0.01272,-0.02013,0.00555,16.3,-24.0,-25.6
57.7468,2324.9422,-0.1333536885337032,0.0568943826130882,-0.03959283378689449,0.00355,-0.01219,5e-05,16.3,-24.0,-25.6
57.7648,2324.9622,-0.13620520372765624,0.04528645952910292,-0.028030715890723812,-0.016,-0.01707,0.00922,16.2,-24.0,-25.7
57.7871,2324.9822,-0.132976184829142,0.036240914773394986,-0.024120402967193755,-0.00439,-0.02868,0.01716,16.2,-24.0,-25.8
57.8145,2325.0022,-0.12539329398599802,0.027307047177893614,-0.02958767883655611,0.02799,-0.02501,0.02082,16.1,-24.0,-25.9
57.8243,2325.0222,-0.10734678911450019,0.027646439251434243,-0.04533180353019084,0.03837,-0.02929,0.02327,16.1,-24.0,-25.9
57.8451,2325.0422,-0.09316113006973813,0.03011768436559012,-0.0710135724714327,0.05303,-0.04762,0.01777,16.1,-24.0,-26.0
57.8674,2325.0622,-0.08100245478207993,0.04001415495717929,-0.10418728382622078,0.04326,-0.05617,0.01227,16.1,-24.0,-26.0
57.89,2325.0822,-0.07238518279312736,0.05437731185681351,-0.14038746474348685,0.02554,-0.05495,0.008,16.1,-24.0,-26.0
57.9098,2325.1022,-0.07018246208430208,0.06832652675877512,-0.17350001911631097,0.05242,-0.06228,-0.00117,16.1,-24.0,-26.1
57.9302,2325.1223,-0.08127679145611097,0.07609324678346453,-0.19677921118973352,0.08663,-0.0861,-0.00728,16.1,-24.0,-26.0
57.9485,2325.1423,-0.10365941557468741,0.07975038093292763,-0.20447169491325923,0.09274,-0.17651,-0.00911,16.0,-24.0,-26.0
57.9678,2325.1623,-0.13470852385435786,0.07936885929384435,-0.19373132079153876,0.0457,-0.23271,-0.0085,16.0,-24.1,-26.0
57.9892,2325.1824,-0.16456657501759492,0.07696824379205132,-0.16599762856236921,0.02249,-0.19422,-0.01216,16.0,-24.1,-26.0
58.0125,2325.2024,-0.181653608346384,0.0730580770607912,-0.12712214255383714,0.02249,-0.1649,-0.02682,16.0,-24.1,-26.0
58.0316,2325.2224,-0.18033594122898058,0.06624941306371927,-0.08598927017349567,0.02554,-0.08488,-0.01216,15.9,-24.1,-25.9
58.0491,2325.2424,-0.1735644468031038,0.056185441289662845,-0.052026775287171034,0.03654,-0.07877,-0.00667,16.0,-24.1,-25.9
58.0656,2325.2625,-0.16916770064677572,0.045874363143426564,-0.0318525975824695,0.08113,-0.13192,0.0025,16.0,-24.2,-25.8
58.0884,2325.2825,-0.17675581570055973,0.03517389941144637,-0.02776798751024856,0.10068,-0.17956,0.00128,15.9,-24.2,-25.8
58.1107,2325.3025,-0.177767475271974,0.03804334377077403,-0.03759896733093804,0.05975,-0.13986,-0.00117,15.9,-24.1,-25.7
58.1267,2325.3225,-0.16176506359672668,0.05463516560668169,-0.056892649941520546,-0.01477,-0.05128,0.00433,15.8,-24.2,-25.8
58.1506,2325.3426,-0.13701971071487093,0.07771490790628884,-0.08097416803670576,-0.05326,0.0379,-0.00239,15.8,-24.2,-25.8
58.1689,2325.3626,-0.1134269320196185,0.09272511096386589,-0.1054247168780158,-0.01416,0.0544,0.01105,15.7,-24.2,-25.8
58.1868,2325.3826,-0.09723765896034212,0.09675485176515572,-0.1262440447222346,0.03898,0.00125,-0.00178,15.7,-24.2,-25.8
58.2167,2325.4027,-0.08928237332859126,0.08963165933878621,-0.13994067765734108,0.0402,-0.02318,-0.02621,15.7,-24.2,-25.8
58.2361,2325.4227,-0.08388256537677435,0.08568275069942081,-0.14435590496541728,-0.01783,-0.01035,-0.01033,15.6,-24.2,-25.8
58.2766,2325.4427,-0.07605412559664536,0.09678280698197192,-0.13972374487312145,-0.05876,0.01225,-0.00728,15.5,-24.2,-25.8
58.2776,2325.4627,-0.0750416631190104,0.08115633959600327,-0.12898170572812262,-0.07586,0.03729,-0.00056,15.5,-24.2,-25.8
58.2941,2325.4828,-0.07289148340252452,0.07246693729132689,-0.11792385792664994,-0.06364,0.01836,-0.01033,15.5,-24.2,-25.8
58.3082,2325.5028,-0.07559699297058348,0.05851756905272412,-0.11201327242543258,-0.00011,-0.0018,-0.00361,15.5,-24.3,-25.8
58.3295,2325.5228,-0.0822795226157758,0.042807587687750406,-0.11412619283448144,0.05548,0.02141,-0.00911,15.4,-24.4,-25.8
58.3475,2325.5429,-0.09157808457252374,0.035375114233664344,-0.12302081885512628,0.04265,-0.03479,-0.02866,15.2,-24.3,-25.9
58.3658,2325.5629,-0.10011309373697991,0.03766348988984133,-0.13389287157302832,0.006,-0.0525,-0.03721,15.2,-24.3,-26.0
58.3867,2325.5829,-0.1048234467722542,0.04605597957169129,-0.1407272857209776,-0.016,-0.03662,-0.01949,15.1,-24.3,-26.0
58.4148,2325.6029,-0.10433821590820799,0.0543739864787832,-0.13892171832033817,0.00477,-0.0073,-0.01094,15.2,-24.3,-26.0
58.4342,2325.623,-0.09961244851003846,0.05828177818513051,-0.12702970999707652,0.02554,0.00431,-0.02133,15.1,-24.3,-26.0
58.4493,2325.643,-0.0940633309913246,0.058312890553689926,-0.1071472490134866,0.00172,-0.01829,-0.02988,15.2,-24.3,-26.0
58.4684,2325.663,-0.08895154632122117,0.05486373912390432,-0.08403435060200692,0.00355,-0.02807,-0.03538,15.1,-24.3,-26.0
58.4862,2325.683,-0.08495404698933583,0.05058063233986633,-0.06365548114537489,0.02677,0.01469,-0.02805,15.1,-24.3,-26.1
58.5152,2325.703,-0.08023622152391502,0.044931391443958045,-0.051439163578333336,0.0341,0.03607,-0.02194,15.2,-24.2,-26.1
58.5313,2325.723,-0.0826680088036425,0.04600262305745724,-0.050960724446028394,0.02249,0.00553,-0.02255,15.2,-24.2,-26.1
58.5591,2325.743,-0.08807912734256555,0.047686981117006394,-0.06271976560657677,0.02738,-0.00424,-0.02805,15.3,-24.2,-26.1
58.5761,2325.763,-0.09893002555918197,0.055937324299257817,-0.0842234413372438,0.03898,-0.00363,-0.02621,15.3,-24.2,-26.1
58.5884,2325.783,-0.1120905662494906,0.06723456814313836,-0.11037113693745049,0.03959,3e-05,-0.01766,15.3,-24.2,-26.1
58.6202,2325.8031,-0.12621661998152345,0.07214867489242414,-0.13483087161388063,0.0286,-0.01463,-0.01827,15.4,-24.2,-26.1
58.6313,2325.8231,-0.1407822869504271,0.07964020117777812,-0.15198954009311727,0.0176,-0.01402,-0.02255,15.5,-24.2,-26.1
58.6492,2325.8431,-0.1553345546771677,0.08163347370789927,-0.1583896421604294,-0.00317,0.00309,-0.02072,15.5,-24.2,-26.1
58.6695,2325.8631,-0.17026677625128062,0.07684635116752665,-0.15393926996348029,-0.01416,-0.00119,-0.01583,15.5,-24.2,-26.0
58.6866,2325.8832,-0.1844292055811688,0.06575375312941409,-0.14180454853588564,0.00661,-0.02257,-0.01827,15.5,-24.3,-26.0
58.716,2325.9032,-0.19605332179076454,0.052036101868470755,-0.12731845263851405,0.01638,-0.01952,-0.0085,15.5,-24.3,-26.1
58.7269,2325.9232,-0.20100397773039344,0.04287935494222949,-0.11615790351846478,0.00172,0.01225,0.00433,15.5,-24.3,-26.0
58.7465,2325.9433,-0.198628115812591,0.041252709206887506,-0.11260732936004736,-0.01722,0.02324,0.00861,15.5,-24.3,-26.0
58.7777,2325.9633,-0.18810736201165174,0.047619089750093706,-0.11818696559742214,-0.02149,0.01652,0.00433,15.5,-24.4,-26.1
58.7883,2325.9833,-0.17813222625732192,0.05762739009092274,-0.13130992764320482,0.00355,0.02935,0.00738,15.5,-24.4,-26.2
58.8194,2326.0033,-0.16248407766067294,0.07198639950995381,-0.1473380882707378,0.00844,0.0263,0.00677,15.5,-24.5,-26.2
58.8318,2326.0234,-0.14879370783454451,0.08582519640196173,-0.1604914529917849,-0.01966,0.01042,0.0025,15.5,-24.5,-26.3
58.847,2326.0434,-0.13356828051878286,0.09705957882369803,-0.1653859221299463,-0.04898,0.01469,0.00128,15.5,-24.5,-26.3
58.8675,2326.0634,-0.11660462066410235,0.1029396315326337,-0.15903819104199712,-0.03066,0.01652,0.00677,15.5,-24.5,-26.3
58.8893,2326.0834,-0.09820631022189562,0.10128642743919886,-0.14180567183569437,-0.00805,0.00736,0.00983,15.5,-24.5,-26.2
58.9165,2326.1035,-0.0786030989559558,0.09613392317860225,-0.11739975105571254,-0.02638,0.00186,0.00494,15.4,-24.4,-26.3
58.9371,2326.1235,-0.0603081991548802,0.087653798710142,-0.09184199352510447,-0.0441,0.01103,0.00677,15.4,-24.5,-26.3
58.9524,2326.1435,-0.046227236103415066,0.07768911669695887,-0.0719109640287634,-0.0331,0.01164,0.00677,15.4,-24.5,-26.3
58.9819,2326.1636,-0.03929294305907358,0.07109719261379688,-0.06326495620897354,-0.01294,-0.01158,-0.01461,15.5,-24.4,-26.3
58.9884,2326.1836,-0.03905034686179607,0.06657481086932392,-0.06863483902484191,0.01516,-0.02501,-0.02255,15.5,-24.4,-26.2
59.0131,2326.2036,-0.04571359359114458,0.06587569153054677,-0.08688644440486293,0.01699,-0.00241,-0.01277,15.5,-24.4,-26.2
59.0274,2326.2236,-0.05792418152523177,0.07150523330461321,-0.11309671206793048,-0.00622,0.0153,-0.00911,15.6,-24.4,-26.3
59.0485,2326.2437,-0.07364310046328049,0.07898486393122243,-0.13984237230404872,0.00905,-0.00058,-0.014,15.6,-24.4,-26.2
59.072,2326.2637,-0.09279488887438822,0.08593085524818321,-0.15949900819581586,0.01149,-0.00791,-0.01277,15.6,-24.3,-26.1
59.0884,2326.2837,-0.11344370753174063,0.08945477351362681,-0.16662188414293766,-0.00561,-0.01158,-0.01216,15.6,-24.3,-26.2
59.1149,2326.3038,-0.13477240592973735,0.09007099295747352,-0.15981311523737318,-0.03554,-0.02746,-0.01277,15.6,-24.2,-26.1
59.1295,2326.3238,-0.151320463528532,0.0824890663703532,-0.14203831398889477,-0.02882,-0.01768,-0.01094,15.6,-24.2,-26.0
59.1559,2326.3438,-0.16348152624399095,0.07315756158890419,-0.11978814585993547,-0.00989,-0.00363,-0.01033,15.6,-24.1,-26.0
59.1684,2326.3639,-0.17112201879646458,0.061215433695540576,-0.10043186346831057,-0.00195,0.00797,-0.00483,15.6,-24.2,-26.0
59.1895,2326.3838,-0.17340538989592935,0.05236241641571241,-0.08961180708729977,-0.00195,0.01042,-0.00667,15.7,-24.2,-26.0
59.2232,2326.4038,-0.17120183159801394,0.046302282634925855,-0.08928946262329696,-0.00256,0.01897,0.00677,15.8,-24.2,-25.9
59.2308,2326.4238,-0.1670805033846174,0.04809015025695716,-0.09743925516923113,0.01699,0.00736,0.01044,15.8,-24.2,-26.0
59.249,2326.4438,-0.15838682428125903,0.05278312727047404,-0.10907991196168254,0.02432,0.00186,0.00066,15.8,-24.2,-25.9
59.2675,2326.4638,-0.14557458043469804,0.06049437639908051,-0.11874751011931117,-0.00683,0.00614,0.0025,15.7,-24.2,-26.1
59.2875,2326.4838,-0.1307436535175522,0.06828288700172555,-0.12269229805139581,-0.0386,0.03607,0.01594,15.7,-24.2,-26.1
59.3152,2326.5038,-0.11663399721831104,0.07386323291558244,-0.120183310858204,-0.01966,0.02996,0.00433,15.7,-24.1,-26.0
59.3419,2326.5238,-0.10712254310386679,0.0753285884995605,-0.11339954083505432,0.01699,-0.00913,-0.00605,15.7,-24.1,-25.9
59.3486,2326.5439,-0.10254262740840284,0.07490478492143653,-0.10615054371102595,-0.00378,-0.00241,5e-05,15.7,-24.0,-25.8
59.37,2326.5639,-0.09969709476872633,0.07716848284536035,-0.10218425797378394,-0.02577,0.01836,0.00128,15.7,-24.0,-25.9
59.3885,2326.5839,-0.09972980386359098,0.08143094617283715,-0.10378183575067368,-0.00989,0.02385,0.0025,15.8,-24.0,-25.9
59.414,2326.604,-0.10288865182634774,0.08724743695981581,-0.11099263533803416,0.01516,-0.01158,-0.00056,15.8,-24.1,-25.9
59.4306,2326.624,-0.10878907636716288,0.0944809704402106,-0.1216956679012835,0.00844,-0.01463,-0.003,15.8,-24.1,-25.9
59.4527,2326.644,-0.1168945301975508,0.10213868566491023,-0.13236811772655876,-0.01661,-0.00486,-0.00117,15.8,-24.0,-25.9
59.4693,2326.664,-0.12607850051474198,0.10660015196665786,-0.13925819395075756,-0.01966,-0.00547,-0.00361,15.8,-24.0,-26.0
59.4906,2326.6841,-0.1376974567671267,0.10603474654419119,-0.13970072655917498,-0.01966,-0.01402,-0.00178,15.8,-23.9,-26.0
59.5179,2326.7041,-0.15235118237518963,0.09987918745517708,-0.13300560458364252,-0.00439,-0.0128,-0.00728,15.7,-23.9,-26.1
59.5402,2326.7241,-0.16662915693098554,0.0877967121662873,-0.12080769356346899,-0.01477,-0.02257,-0.0085,15.7,-23.9,-26.1
59.5616,2326.7442,-0.17758469740689997,0.07272766661459912,-0.10693251201532306,-0.03615,-0.01891,-0.00544,15.7,-23.9,-26.2
59.593,2326.7642,-0.18251334933635074,0.058844648325468624,-0.09643106173118454,-0.02149,0.00736,-0.00117,15.7,-23.9,-26.1
59.6044,2326.7842,-0.18250266408656002,0.04703428118326024,-0.09408888974506624,0.006,0.01714,0.00128,15.7,-23.9,-26.2
59.6123,2326.8042,-0.17714244957342848,0.04352160452877972,-0.1026885094630714,0.00783,0.0037,0.00738,15.7,-23.9,-26.2
59.6279,2326.8243,-0.16696988274811536,0.05044098571077644,-0.12178085108152636,-0.02455,-0.01463,-0.00117,15.7,-23.9,-26.2
59.6475,2326.8443,-0.15298547017294692,0.0648861762744053,-0.14741066183963092,-0.02882,-0.0018,-0.00667,15.7,-23.9,-26.3
59.6734,2326.8643,-0.13742098249230225,0.08241651762354457,-0.1729678715586065,-0.00133,0.01042,0.00738,15.7,-23.9,-26.3
59.6869,2326.8844,-0.12517646139390656,0.09834363474933827,-0.19104100324238615,0.0005,0.00614,5e-05,15.8,-23.9,-26.3
59.7095,2326.9044,-0.11978681236701827,0.11518123182384485,-0.1958701076292897,-0.0502,-0.01402,-0.01155,15.7,-23.9,-26.4
59.7295,2326.9244,-0.1207073298261306,0.1255796973954292,-0.1853274865817678,-0.07647,-0.04334,-0.00911,15.8,-23.9,-26.5
59.7501,2326.9444,-0.12565218680922316,0.12535969736248212,-0.16198022770448084,-0.05753,-0.01768,-0.00544,15.8,-23.9,-26.5
59.7689,2326.9645,-0.13188281485951445,0.1114926766911334,-0.13219475193112373,-0.02333,0.00064,-0.01216,15.8,-24.0,-26.5
59.7891,2326.9845,-0.13852595321742278,0.09009031658159992,-0.10394125321537828,0.02005,-0.00486,-0.00483,15.8,-24.0,-26.5
59.8072,2327.0045,-0.14455566092335898,0.07086462948561913,-0.08408148710903696,0.01272,-0.01891,0.00189,15.8,-24.0,-26.6
59.829,2327.0246,-0.14916525609185854,0.06079173185566635,-0.07664876280590249,-0.03799,-0.01463,0.00189,15.8,-23.9,-26.5
59.8545,2327.0446,-0.15115296673802323,0.06025251759522035,-0.08243088922369957,-0.05998,-0.00669,-0.00728,15.8,-23.9,-26.5
59.8786,2327.0646,-0.1504500003134588,0.06112449849038534,-0.09929056502040723,-0.03005,0.00309,-0.0085,15.9,-23.9,-26.5
59.888,2327.0846,-0.14941445110951979,0.05930163146970466,-0.12270893854894283,-0.00072,-0.0073,-0.01277,15.9,-23.9,-26.6
59.9115,2327.1047,-0.14702414738501696,0.06097210323175736,-0.1463691004001113,-0.00256,0.0037,-0.01766,15.9,-23.9,-26.6
59.9297,2327.1247,-0.14394288153846543,0.06738830136082273,-0.16328511864325357,-0.01966,0.00797,-0.01339,15.8,-23.9,-26.7
59.9606,2327.1447,-0.13707129114524752,0.08196074986212143,-0.16749559752232202,-0.0331,0.00125,-0.01339,15.8,-23.9,-26.8
59.9702,2327.1647,-0.13060626201268766,0.09105805043831675,-0.15589879139043994,-0.03615,0.01469,-0.003,15.8,-23.8,-26.7
59.9903,2327.1847,-0.12226778792568548,0.10175795190089633,-0.12958944936307404,-0.02699,0.01286,-0.00361,15.8,-23.8,-26.7
60.0224,2327.2046,-0.11534644244324467,0.1128451590792855,-0.0939327287119962,-0.01783,-0.01402,-0.00544,15.9,-23.7,-26.7
60.0332,2327.2246,-0.11158128151761168,0.11917095679089976,-0.05739938443828052,-0.01783,-0.0073,-0.01583,15.9,-23.7,-26.6
60.0497,2327.2446,-0.11262330029555673,0.12742702057893016,-0.02974030202181055,-0.02638,-0.00363,-0.01705,15.9,-23.6,-26.5
60.0678,2327.2646,-0.11917835728689802,0.1359722075049833,-0.019171734296257625,-0.01233,-0.00302,-0.01949,15.8,-23.5,-26.5
60.0929,2327.2846,-0.13064777971276878,0.14235106081947946,-0.029948107726632145,0.01882,0.00064,-0.01644,15.8,-23.5,-26.5
60.1156,2327.3046,-0.14635630729437543,0.14697674235347022,-0.06075687271450114,0.02005,0.00797,-0.00544,15.8,-23.4,-26.5
60.1281,2327.3246,-0.16424291390899162,0.15328815523838826,-0.10457086247229874,0.02677,0.00431,-0.01094,15.8,-23.4,-26.5
60.1495,2327.3446,-0.17963762622715573,0.15607279917892225,-0.15013681923153577,0.0231,0.00492,-0.02499,15.8,-23.4,-26.5
60.1677,2327.3646,-0.19181169101717793,0.15290423817574889,-0.1854770785493276,-0.02088,-0.00363,-0.01888,15.9,-23.4,-26.5
60.2018,2327.3846,-0.19893005382451986,0.14074990606215335,-0.20157956334183424,-0.01722,0.00858,-0.00972,15.9,-23.4,-26.4
60.2158,2327.4046,-0.20454292969916477,0.12347916985072598,-0.19583078265241483,0.00172,0.00125,-0.003,15.8,-23.4,-26.4
60.2341,2327.4247,-0.20623832830672248,0.1119880900205579,-0.17318615670438042,0.00783,0.01164,-0.02072,15.8,-23.4,-26.4
60.2714,2327.4447,-0.1964644687228605,0.12203285284233238,-0.14515354195525632,-0.01477,0.00309,-0.02194,15.8,-23.4,-26.4
60.2761,2327.4647,-0.19009769274269855,0.13866841473160146,-0.12643333863307937,-0.03615,0.00675,-0.01033,15.8,-23.5,-26.4
60.2886,2327.4847,-0.17469944545364854,0.166456353126661,-0.12898902657670241,0.07075,0.12526,-0.05309,15.8,-23.4,-26.3
60.3098,2327.5048,-0.15531797209720902,0.185939023002351,-0.15680190771613667,0.26317,0.01408,-0.09097,15.7,-23.4,-26.2
60.3335,2327.5248,-0.14000701686700207,0.21658999851817465,-0.20377440752514708,0.26684,-0.0525,-0.07447,15.8,-23.5,-26.2
60.3481,2327.5448,-0.12179489544489219,0.28548875062026774,-0.2550208173513955,0.05548,-0.01341,-0.03538,15.8,-23.5,-26.2
60.3684,2327.5649,-0.09159940236459668,0.36888246436014566,-0.2914242574410437,-0.1626,0.06906,-0.02499,15.8,-23.5,-26.1
60.3897,2327.5849,-0.05117532191271226,0.4456545984371907,-0.2974943832437802,-0.29088,0.09472,-0.01705,15.8,-23.6,-26.1
60.4122,2327.6049,-0.015979043087290933,0.4928396714078028,-0.2666797249796691,-0.21453,0.11243,-0.15144,15.8,-23.6,-26.1
60.4305,2327.6249,-0.009630749474923043,0.49204165485189477,-0.20430884362541235,-0.16749,0.11121,-0.11296,15.8,-23.6,-26.2
60.4501,2327.645,-0.02996918489380207,0.4670079568899438,-0.1288990632078164,-0.27928,-0.1313,-0.05309,15.8,-23.6,-26.3
60.4681,2327.665,-0.06811390786209338,0.42842272949592924,-0.06402930348980718,-0.13267,0.00186,-0.15083,15.8,-23.5,-26.3
60.4885,2327.685,-0.10954517160929061,0.39543427561940536,-0.031103275470220737,-0.03982,0.09472,-0.14289,15.9,-23.5,-26.3
60.5124,2327.7051,-0.1475984583114586,0.37707051802447555,-0.04087536353337207,-0.01722,0.12098,-0.14655,16.0,-23.4,-26.3
60.5282,2327.7251,-0.2048181337004307,0.37922655967415975,-0.09040002062059393,-0.02088,0.09899,-0.12273,16.1,-23.3,-26.3
60.5491,2327.7451,-0.25945058011254163,0.40118270614382406,-0.1631151572512568,0.03715,0.00614,-0.11906,16.2,-23.2,-26.4
60.572,2327.7651,-0.30427670203611235,0.4393179004827361,-0.2356868205603604,0.06769,-0.07205,-0.11173,16.2,-23.1,-26.4
60.6019,2327.7852,-0.3246683087485193,0.4885504801699806,-0.28589273118653225,0.01638,-0.0971,-0.09341,16.3,-23.1,-26.4
60.6124,2327.8052,-0.30125342835479135,0.5392394184443289,-0.29985365592527913,-0.04471,-0.0861,-0.08058,16.3,-23.0,-26.5
60.6319,2327.8252,-0.250771319611302,0.593682020627714,-0.2781984846621146,-0.08502,-0.06411,-0.08302,16.3,-22.9,-26.5
60.6485,2327.8453,-0.17996037035813017,0.6484847360031478,-0.23199001858651336,-0.06059,-0.07083,-0.09646,16.4,-22.9,-26.6
60.6694,2327.8653,-0.09739753428572034,0.7135062370704859,-0.17798404437890447,-0.04959,-0.1142,-0.13189,16.5,-22.8,-26.7
60.6899,2327.8853,-0.0031103264424933714,0.7817856166822904,-0.12804703668747486,-0.07036,-0.08244,-0.16183,16.5,-22.7,-26.7
60.7099,2327.9053,0.09967417274765515,0.8420094722382014,-0.08333505189057,-0.00256,-0.00852,-0.16183,16.6,-22.6,-26.7
60.7285,2327.9254,0.20217833645605637,0.8847222319355734,-0.033614241574918324,0.13611,-0.01158,-0.10868,16.6,-22.5,-26.7
60.7501,2327.9454,0.2935368816370045,0.9019122037999329,0.03632740921602284,0.21064,-0.12825,-0.08913,16.6,-22.4,-26.6
60.7682,2327.9654,0.37402306502575083,0.9078480132576502,0.13240391605201474,0.08296,-0.26325,-0.11662,16.6,-22.3,-26.5
60.788,2327.9855,0.4355736789066156,0.9008830393998013,0.2437490310513848,-0.09968,-0.27241,-0.14228,16.7,-22.3,-26.6
60.8108,2328.0055,0.47192252659923306,0.8835411930770031,0.33620891734737235,-0.18826,-0.23393,-0.17465,16.6,-22.3,-26.7
60.8283,2328.0254,0.48164067172208125,0.8461654859146424,0.3603354563773564,-0.08441,-0.15574,-0.18198,16.6,-22.2,-26.7
60.8483,2328.0454,0.44943379275128914,0.8167290853646343,0.26583417853644953,0.07869,-0.10382,-0.15388,16.6,-22.2,-26.7
60.8723,2328.0654,0.37819781326024493,0.8204652706637136,0.02606376837562152,0.16482,-0.08488,-0.13739,16.6,-22.1,-26.8
60.8881,2328.0854,0.2782702584159004,0.9083623113169048,-0.34790425593139496,0.18315,-0.00302,-0.11662,16.7,-22.1,-26.7
60.9182,2328.1054,0.1674963525451502,1.0442174449994621,-0.7961838539593291,0.16543,-0.01585,-0.07508,16.8,-22.0,-26.8
60.9305,2328.1254,0.06367270806182075,1.2538061719255844,-1.2387230490495842,0.10373,-0.04151,-0.03782,16.8,-22.0,-26.8
60.9586,2328.1454,-0.023429499583391335,1.4732240596739818,-1.582965602633756,-0.04348,-0.10015,-0.01888,16.8,-22.0,-26.9
60.9683,2328.1654,-0.060622086512993785,1.6383704863098525,-1.752879382095518,-0.20659,-0.13741,-0.01277,16.8,-21.9,-26.8
60.9901,2328.1854,-0.05735190726829778,1.7579832766494727,-1.7208116584010043,-0.30738,-0.10931,-0.01644,16.8,-21.9,-27.0
61.0125,2328.2054,-0.007102552124847748,1.7955020944542102,-1.489961775263616,-0.32021,-0.06839,-0.00667,16.7,-21.8,-27.0
61.0283,2328.2254,0.0780079581469198,1.7373575312518224,-1.1029686863723587,-0.27745,-0.04395,-0.02072,16.7,-21.8,-27.0
61.0518,2328.2454,0.17935103039086617,1.641137989427318,-0.6395828083287931,-0.24324,-0.03845,-0.04393,16.7,-21.8,-27.2
61.0724,2328.2654,0.27884694808564264,1.5108516641974576,-0.173602571837975,-0.23285,-0.05067,-0.03415,16.7,-21.8,-27.3
61.0899,2328.2854,0.36199620637038177,1.3688615253736558,0.22732914065834997,-0.20109,-0.02501,-0.0592,16.7,-21.7,-27.3
61.1188,2328.3054,0.43191729016296904,1.2464439398139933,0.5159125274853711,-0.14367,0.06906,-0.1154,16.7,-21.6,-27.4
61.1334,2328.3254,0.4358683546527954,1.1274275160871672,0.6809488553792917,0.00172,0.17413,-0.17221,16.6,-21.5,-27.4
61.1524,2328.3454,0.39068422101948985,1.0309551402358774,0.730859930182536,0.10557,0.17901,-0.16183,16.6,-21.4,-27.5
61.1734,2328.3655,0.2863840118149402,0.963573904026709,0.697199420846486,0.16177,0.16313,-0.1264,16.7,-21.4,-27.5
61.192,2328.3855,0.1267868820931747,0.9362474719348678,0.6201331247487687,0.17887,0.13442,-0.07936,16.6,-21.3,-27.7
61.2209,2328.4055,-0.04825786735677807,0.909203794577143,0.5424879770657629,0.23812,0.13015,-0.0311,16.6,-21.2,-27.7
61.2379,2328.4256,-0.23604342228873584,0.9202687832840257,0.49136974067518757,0.25279,0.09533,0.01594,16.7,-21.2,-27.7
61.2578,2328.4456,-0.40436206616131626,0.9118613564191094,0.4894478895138139,0.21552,0.08616,0.10085,16.7,-21.1,-27.7
61.2754,2328.4656,-0.5365379557546872,0.8766364263476755,0.5427371286928597,0.1355,0.03119,0.16254,16.8,-21.1,-27.7
61.2915,2328.4856,-0.6149184642760043,0.7924955969673354,0.6488518779304187,0.04937,-0.0018,0.23157,16.8,-21.1,-27.7
61.3177,2328.5057,-0.6376042297839818,0.6540190991582595,0.7951102552840954,-0.0893,0.05134,0.31465,16.8,-21.2,-27.8
61.3301,2328.5257,-0.5961150593652296,0.4247227018961314,0.9616411274588632,-0.25362,0.12709,0.40994,16.9,-21.2,-27.7
61.3524,2328.5457,-0.5335638431082904,0.16309916919658513,1.1089222350142816,-0.38679,0.19612,0.55838,16.9,-21.2,-27.6
61.3693,2328.5658,-0.48996927833470877,-0.13522381036159362,1.1893796517676343,-0.23469,0.06356,0.57488,16.9,-21.2,-27.7
61.3896,2328.5858,-0.5109123074950289,-0.38992780209867073,1.148647695101447,-0.12534,-0.27791,0.36963,16.9,-21.3,-27.7
61.4114,2328.6058,-0.5735630938870393,-0.5591173772654084,0.9454046023976623,-0.15833,-0.50271,0.28716,16.9,-21.4,-27.7
61.4295,2328.6258,-0.6094707147979818,-0.6197218594364303,0.5711282185598048,-0.00378,-0.09404,0.30488,17.0,-21.4,-27.6
61.4505,2328.6459,-0.6146032162135096,-0.5710997076405618,0.06449724083135244,0.39939,0.358,0.51074,16.9,-21.5,-27.6
61.4778,2328.6659,-0.5936266572316421,-0.4470256648283421,-0.48349211407855996,0.56005,0.50949,0.48142,16.9,-21.7,-27.5
61.49,2328.6859,-0.6345244849336288,-0.16263096149700706,-0.9521207949138883,0.45376,0.40015,0.32992,16.8,-21.9,-27.4
61.5177,2328.7059,-0.6702681805022771,0.10546128281598133,-1.234656813197594,0.1862,0.0825,-0.01461,16.8,-22.1,-27.4
61.5321,2328.726,-0.7029926916855318,0.3382323440157744,-1.2718841833815269,-0.19742,-0.05006,-0.05737,16.7,-22.2,-27.4
61.5558,2328.746,-0.6967453335573429,0.4958156795108201,-1.0713510981091776,-0.42833,0.00675,0.12467,16.6,-22.4,-27.3
61.5756,2328.766,-0.6304916756593418,0.524900959565651,-0.7044638873206601,-0.40573,0.08311,0.24012,16.5,-22.5,-27.3
61.5999,2328.7861,-0.5079946714935971,0.4738351536821972,-0.2959796047962566,-0.2133,0.12098,0.23707,16.4,-22.6,-27.3
61.6118,2328.8061,-0.35213135498617765,0.3807471376422412,0.018747945629570495,-0.00072,0.0996,0.19431,16.4,-22.7,-27.2
61.6299,2328.8261,-0.18711235080819072,0.3208930661760786,0.1364472203034115,0.19475,0.15763,0.18454,16.3,-22.8,-27.4
61.6522,2328.8461,-0.04200231479809907,0.33102508272916087,0.020144132999250886,0.32487,0.212,0.23402,16.2,-23.0,-27.4
61.6749,2328.8662,0.05535141500437444,0.43726875917348934,-0.29651462001967666,0.36213,0.18329,0.26211,16.1,-23.1,-27.3
61.689,2328.8862,0.08965945929930251,0.6437393983712245,-0.7295096371111249,0.32303,0.13198,0.22852,16.1,-23.2,-27.3
61.7135,2328.9062,0.0667058282926679,0.8454266975446003,-1.1705888066929315,0.26989,0.08067,0.19187,16.1,-23.4,-27.2
61.7283,2328.9262,-0.0006000117919040208,1.0425050995855967,-1.530899917049485,0.23018,0.01775,0.15766,16.0,-23.6,-27.1
61.7531,2328.9462,-0.10709333257590191,1.1625478448649085,-1.7460761616787615,0.19659,-0.02868,0.11551,16.0,-23.8,-27.1
61.7773,2328.9662,-0.2332024292993899,1.2154917961274811,-1.7964088611556477,0.17398,-0.03784,0.08924,15.9,-24.0,-27.1
61.7893,2328.9862,-0.35496141477203225,1.2144031309422345,-1.6903937147124228,0.11351,-0.06594,0.08252,15.8,-24.1,-27.0
61.8129,2329.0062,-0.4710489973707746,1.1371260462438928,-1.4462776030906035,0.15932,0.00492,0.0868,15.8,-24.2,-27.0
61.8317,2329.0262,-0.5639021465272994,1.0168250090381714,-1.0925225895242345,0.30165,0.0825,0.0758,15.7,-24.3,-27.0
61.8544,2329.0462,-0.628924390353362,0.8512924973615404,-0.6486820566327758,0.34564,0.13015,0.07091,15.7,-24.5,-27.0
61.8712,2329.0662,-0.6738729082415117,0.6885331967402022,-0.13565919136695115,0.18742,0.13686,0.05014,15.7,-24.7,-27.0
61.8933,2329.0862,-0.684302832812141,0.5295622949016172,0.4298332236122828,-0.08991,0.0941,0.00311,15.6,-24.9,-26.9
61.9092,2329.1062,-0.6526950479124081,0.3586181466175363,1.0177436583195334,-0.33914,0.15153,-0.04637,15.6,-25.1,-26.8
61.9288,2329.1262,-0.5382207434193738,0.18459505260452577,1.5793916781357158,-0.33792,0.44291,-0.07508,15.6,-25.3,-26.6
61.9522,2329.1462,-0.32372254809152695,0.00529627837872049,2.048344647177073,-0.20353,0.65732,-0.04943,15.6,-25.4,-26.5
61.9705,2329.1662,-0.1054194015663685,-0.1770256348664505,2.3520148780538346,-0.10274,0.62311,-0.05004,15.7,-25.5,-26.4
61.9893,2329.1862,0.10822267038941945,-0.30316026232583465,2.439232561958857,-0.07281,0.36411,-0.0702,15.8,-25.7,-26.2
62.0145,2329.2062,0.30263133339351483,-0.3389902084075243,2.289696302230535,-0.04837,0.10449,0.00128,15.8,-25.8,-26.3
62.0311,2329.2262,0.48253255343341966,-0.2828634986508673,1.9204492169271177,0.05609,-0.07999,0.05198,16.0,-25.8,-26.2
62.0497,2329.2461,0.6790232089801986,-0.15485294136019506,1.3848155351709917,0.17093,-0.15452,0.04526,16.1,-25.9,-26.1
62.0814,2329.2661,0.8866213909810636,-0.028361086184418082,0.7667334239740615,0.29616,-0.08182,0.02143,16.3,-26.0,-26.0
62.0891,2329.2861,1.0893278756217484,0.18375682220279638,0.16366112376520192,0.35297,-0.01158,-0.01644,16.4,-26.1,-26.0
62.1141,2329.3061,1.2244656712769237,0.29045033713065427,-0.33063418838585257,0.34014,-0.05617,-0.08547,16.4,-26.1,-25.9
62.1343,2329.3261,1.2494865085382758,0.3332021401174467,-0.6552726403978433,0.18254,-0.21072,-0.20398,16.5,-26.2,-25.7
62.1489,2329.3461,1.1524651033942244,0.27629909738991176,-0.7974614611795499,-0.06242,-0.34633,-0.34936,16.6,-26.2,-25.7
62.1763,2329.3661,0.9250679402418905,0.13301050287793276,-0.7929724572590775,-0.15222,-0.31823,-0.46237,16.7,-26.3,-25.7
62.1943,2329.3861,0.6161106223467657,-0.07615551274984105,-0.7205710025264889,-0.13817,-0.22416,-0.49597,16.8,-26.2,-25.7
62.2192,2329.4061,0.26761282485191557,-0.283681547480056,-0.6719227650836928,-0.06059,-0.12214,-0.4416,16.9,-26.2,-25.8
62.2584,2329.4261,-0.061583311510344144,-0.45814558988950543,-0.7252389932307715,0.13489,-0.0244,-0.32126,16.9,-26.1,-25.8
62.2629,2329.4461,-0.3701892550158655,-0.4459703765788568,-0.9109592481737661,0.33586,-0.02257,-0.21803,17.0,-26.1,-25.8
62.2767,2329.4661,-0.5854758341134958,-0.30580083438617356,-1.2131881114923875,0.38656,-0.13741,-0.1661,17.1,-26.1,-25.9
62.2895,2329.4861,-0.6862573041225127,-0.027069739768546066,-1.5630457045114188,0.27783,-0.25531,-0.09707,17.2,-26.1,-25.9
62.3122,2329.5061,-0.6919617485551516,0.3130734200010763,-1.87109915816022,0.13672,-0.3054,-0.00544,17.2,-26.1,-25.9
62.3288,2329.5261,-0.5907426361503075,0.6543624276636872,-2.047813629295046,0.0567,-0.29074,0.0868,17.2,-26.1,-25.9
62.3494,2329.5461,-0.4473830010235024,0.9178063322835825,-2.0376232811853043,-0.02027,-0.24248,0.132,17.1,-26.2,-25.8
62.3746,2329.5661,-0.310070760927182,1.0706675991883605,-1.8263779722003841,-0.18276,-0.18628,0.08863,17.1,-26.1,-25.8
62.3894,2329.5861,-0.1967623762499484,1.0728020789497006,-1.435160054374796,-0.31165,-0.19789,-0.04026,17.1,-26.1,-25.7
62.4092,2329.6061,-0.14621951363312116,0.968042318483043,-0.9243217142973634,-0.3367,-0.20522,-0.1044,17.1,-26.1,-25.7
62.4316,2329.6261,-0.13982778447687005,0.7696106116109184,-0.3633076119661993,-0.23896,-0.10504,-0.00605,17.1,-26.1,-25.8
62.4506,2329.6461,-0.14530034487774382,0.5079981997372954,0.17426280995662857,-0.01722,0.05012,0.11367,17.0,-26.0,-25.9
62.4708,2329.6661,-0.14246744692734004,0.25619925100831076,0.6246615304090479,0.18498,0.16863,0.19064,17.0,-26.0,-25.9
62.4948,2329.6862,-0.134327819144915,0.0891174070386371,0.9491216278816932,0.14833,0.08067,0.27555,16.9,-26.0,-25.7
62.5109,2329.7062,-0.10178001406807588,0.047124482765291735,1.1362219866522594,-0.01966,-0.09893,0.30915,16.9,-26.1,-25.7
62.5301,2329.7262,-0.04883754223302834,0.08541588762420514,1.1966500842481587,-0.04226,-0.1252,0.31587,16.8,-26.2,-25.7
62.5501,2329.7463,0.03897550714227271,0.12136171619885057,1.1605130642904378,0.2198,0.09472,0.33542,16.7,-26.2,-25.7
62.5729,2329.7663,0.13681812041913236,0.09484708058064141,1.0712166625440798,0.57654,0.52293,0.38917,16.6,-26.3,-25.6
62.5898,2329.7863,0.16299406162468144,0.07549598356382994,0.9735533681241773,0.5124,0.48384,0.42766,16.5,-26.4,-25.6
62.6188,2329.8063,0.0887156851680819,0.07554431175789524,0.8991926469352336,-0.04165,0.10449,0.35863,16.4,-26.6,-25.6
62.6318,2329.8264,-0.0590074227184034,0.04384587442091714,0.8520070646049387,-0.73437,-0.13864,0.19431,16.3,-26.7,-25.5
62.6512,2329.8464,-0.23975245206233853,0.031028909629835878,0.8061711822698001,-0.95917,-0.05372,0.1827,16.2,-26.8,-25.6
62.6734,2329.8664,-0.36852966209945576,-0.053307330457245075,0.7226422976146551,-0.41856,0.27187,0.32809,16.1,-26.8,-25.8
62.6898,2329.8865,-0.4313464324665913,-0.21520021366625544,0.5706430661801392,0.33831,0.54737,0.51318,16.0,-26.9,-25.8
62.7125,2329.9065,-0.4246048950326966,-0.3917050187442132,0.3547202712098123,0.58693,0.45024,0.55594,15.9,-27.0,-25.8
62.732,2329.9265,-0.4063783294981378,-0.4579226512267102,0.1233910472660984,0.33953,0.19245,0.46492,15.9,-27.2,-25.7
62.7583,2329.9465,-0.39489443438096067,-0.4253431012065612,-0.060386487399112454,-0.09907,-0.16368,0.30854,15.8,-27.3,-25.7
62.7768,2329.9666,-0.34356894090134615,-0.35759173250885307,-0.15803197034299288,-0.42222,-0.24676,0.19675,15.7,-27.5,-25.7
62.8015,2329.9866,-0.27924601568172347,-0.28609632350151076,-0.18264965854133308,-0.5108,-0.10992,0.13444,15.6,-27.6,-25.7
62.8176,2330.0066,-0.18705816069594547,-0.3076657883309548,-0.19735821710469104,-0.38374,0.06173,0.05137,15.4,-27.7,-25.7
62.8302,2330.0267,-0.11792851192680236,-0.3553696767249781,-0.28494467101083565,-0.13756,0.18024,-0.00789,15.3,-27.8,-25.5
62.8536,2330.0467,-0.06593363719914634,-0.3762784564842047,-0.507478268897982,0.15016,0.26698,0.008,15.2,-27.9,-25.6
62.8704,2330.0667,-0.08185697702498831,-0.30255453322628273,-0.8704690196242666,0.34136,0.29752,0.03854,15.1,-27.9,-25.6
62.8914,2330.0867,-0.13159283799396426,-0.1295491438681274,-1.3154379938975058,0.30532,0.26576,0.03121,15.0,-28.0,-25.6
62.9181,2330.1068,-0.19882197676625046,0.12849904847324878,-1.7404127533240032,0.12573,0.18512,0.01105,14.9,-28.0,-25.5
62.9412,2330.1268,-0.274143985869964,0.4205626611342777,-2.039392097561949,-0.09968,0.07395,-0.00789,14.9,-28.1,-25.5
62.9509,2330.1468,-0.33070324776846316,0.6555913795538253,-2.1337019151497776,-0.19437,0.02324,0.0196,14.9,-28.1,-25.3
62.9743,2330.1669,-0.36634928091315283,0.8279644104253066,-2.0006729805055237,-0.2188,-0.07999,0.01288,14.8,-28.2,-25.2
62.9912,2330.1869,-0.3751029056164726,0.8967490815903076,-1.6671998587833734,-0.27378,-0.12397,-0.0421,14.9,-28.3,-25.1
63.0261,2330.2069,-0.3830595069178248,0.934177842095348,-1.210749895057285,-0.3086,-0.09038,-0.08852,14.9,-28.3,-25.0
63.0326,2330.2269,-0.37874202217540204,0.8483935516421028,-0.7027771304721373,-0.20353,-0.04639,-0.08669,14.8,-28.3,-25.1
63.0504,2330.2469,-0.38483319323846776,0.7230534215546183,-0.22408675326154004,0.04509,-0.01829,-0.06836,14.8,-28.2,-25.1
63.0704,2330.2669,-0.41274528623735346,0.5536733810061957,0.18290699982908976,0.29127,-0.03906,-0.03293,14.8,-28.2,-25.0
63.0919,2330.2869,-0.4714193884098938,0.3813589645766307,0.503665162877935,0.30593,-0.16551,-0.02377,14.8,-28.2,-25.0
63.1143,2330.3069,-0.5490535524995921,0.2602591682309258,0.7461045667209483,0.06403,-0.28769,-0.06653,14.8,-28.2,-24.9
63.1301,2330.3269,-0.5904547669567158,0.18833090719692364,0.9276828913645634,-0.17726,-0.28952,-0.13373,14.8,-28.2,-24.8
63.1581,2330.3469,-0.5849753704713991,0.14370771507144628,1.0576277286630944,-0.16566,-0.18262,-0.19787,14.8,-28.2,-24.7
63.1707,2330.3669,-0.4994264837948603,0.037026407899314225,1.1406685124044031,0.08541,-0.0299,-0.15511,14.9,-28.2,-24.7
63.1906,2330.3869,-0.34885898706097,-0.15349504224871796,1.177350406426383,0.50141,0.14603,0.01777,15.0,-28.3,-24.7
63.2189,2330.4069,-0.17842892164223803,-0.39734446315323746,1.172919450334314,0.65351,-0.02685,0.08008,15.0,-28.3,-24.8
63.2324,2330.4269,0.007009764010201079,-0.49418984094054447,1.14611396709096,0.265,-0.29807,-0.03721,15.0,-28.3,-24.8
63.2521,2330.4469,0.1812832087965425,-0.4920663600724515,1.0987148641675777,-0.567,-0.36954,-0.25162,15.0,-28.3,-24.8
63.2744,2330.4669,0.36021216087187596,-0.4352679462733934,1.0094884016725914,-0.69406,-0.14474,-0.26628,15.0,-28.3,-24.9
63.3083,2330.4868,0.5425884976944314,-0.4128476689759551,0.8427418745036217,-0.15649,0.08067,-0.15022,15.0,-28.2,-24.9
63.3243,2330.5068,0.6660466002388542,-0.464444062209797,0.5785345985225909,0.47758,0.0544,-0.12945,15.0,-28.2,-24.9
63.3378,2330.5268,0.7139232625202431,-0.48224948495479975,0.2326046481577606,0.6022,-0.06289,-0.19298,15.0,-28.2,-24.9
63.3507,2330.5468,0.6870005680700523,-0.4299741477288625,-0.14915970988804617,0.28333,-0.08244,-0.284,15.0,-28.3,-24.8
63.369,2330.5668,0.598522372597679,-0.3162782818318224,-0.5091037598802597,-0.16505,-0.13802,-0.3573,15.1,-28.3,-24.8
63.3913,2330.5868,0.46593017395869035,-0.16341142746113715,-0.8027292723889818,-0.3984,-0.14902,-0.37929,15.1,-28.3,-24.8
63.4122,2330.6068,0.3072084064722658,-0.04636257295250571,-1.0161564887757013,-0.37702,-0.13558,-0.36463,15.2,-28.2,-24.8
63.4301,2330.6268,0.13410136544420903,0.011907375346909926,-1.164035882092218,-0.23591,-0.07816,-0.32309,15.2,-28.2,-24.9
63.4516,2330.6468,-0.03791501278198406,0.04671851366506007,-1.2785347817576405,-0.05998,0.00125,-0.30232,15.3,-28.1,-24.8
63.4746,2330.6668,-0.20131374737699168,0.0913584483040314,-1.3876372353740454,0.04387,0.03913,-0.30294,15.3,-28.0,-24.9
63.4957,2330.6868,-0.3529149619500988,0.17553500322182344,-1.4982375282949612,0.0512,0.01652,-0.28339,15.3,-27.9,-24.8
63.512,2330.7068,-0.4829072265568988,0.2969921051912104,-1.5918069359040068,-0.02149,-0.02807,-0.23085,15.4,-27.8,-24.8
63.5392,2330.7268,-0.5696608653533891,0.4391864261483593,-1.6326409656605225,-0.0838,-0.05189,-0.16427,15.4,-27.6,-24.8
63.5598,2330.7468,-0.6129584595527058,0.5633694959534692,-1.5846390394990628,-0.10213,-0.0244,-0.10013,15.5,-27.4,-24.9
63.5856,2330.7668,-0.6114945884497478,0.6616329032974955,-1.4278976683916937,-0.11068,0.02447,-0.04576,15.6,-27.3,-24.9
63.5936,2330.7868,-0.5840969433399461,0.7034129094844906,-1.1652855113312768,-0.13695,0.08494,-0.00911,15.8,-27.3,-25.0
63.6169,2330.8068,-0.523635233524164,0.7335938679724817,-0.8261168168037152,-0.15649,0.1332,0.02021,15.8,-27.2,-25.1
63.6384,2330.8269,-0.4476921935078597,0.7303622189743916,-0.44943135049316396,-0.10091,0.19306,0.03609,15.9,-27.1,-25.1
63.6599,2330.8469,-0.36423572030663104,0.6970090933632923,-0.07585486191022994,0.02799,0.28897,0.06175,16.0,-26.9,-25.1
63.67,2330.8669,-0.30645438260843044,0.6683580317605053,0.2629249247093508,0.19659,0.31646,0.11551,16.1,-26.7,-25.1
63.6933,2330.8869,-0.24709136443848334,0.6210051996983045,0.5593400744508248,0.24118,0.11487,0.19248,16.2,-26.7,-25.1
63.7138,2330.907,-0.1908569468285762,0.5941862560014791,0.8159388229508497,0.10007,-0.05495,0.20286,16.3,-26.5,-25.1
63.7303,2330.927,-0.11329721303283197,0.5608541544444984,1.0470697055417322,-0.00683,-0.00913,0.18881,16.4,-26.5,-25.1
63.7582,2330.947,-0.012792395049944536,0.4693472084375683,1.2639700292897942,0.00966,0.17413,0.1882,16.5,-26.5,-25.2
63.7702,2330.9671,0.05265157171692683,0.3302548112458502,1.4634472376198335,0.15932,0.38915,0.23829,16.6,-26.5,-25.0
63.7904,2330.9871,0.06236801838423539,0.14033509637336378,1.629592512154522,0.1245,0.20345,0.22302,16.7,-26.6,-25.0
63.8149,2331.0072,-0.025355937762504163,-0.036177749299788294,1.7332954017304196,-0.16932,-0.02257,0.11123,16.7,-26.5,-24.9
63.8387,2331.0272,-0.19703491955508734,-0.19017951316040102,1.7400972113378703,-0.36969,-0.02807,0.02571,16.8,-26.6,-24.9
63.861,2331.0473,-0.40141179593980175,-0.3596433290406161,1.6191037068638021,-0.21208,0.02141,0.12895,16.8,-26.6,-24.8
63.8748,2331.0673,-0.5875336347181913,-0.5372493295886381,1.3604473419510086,0.22469,0.1277,0.3739,16.8,-26.6,-24.6
63.9006,2331.0874,-0.7360743192808314,-0.7486813670301226,0.9836300400316738,0.5631,0.05684,0.53884,16.7,-26.6,-24.5
63.9119,2331.1075,-0.7967476894256711,-0.7911585003424688,0.5593091010194158,0.52218,-0.04395,0.5254,16.8,-26.7,-24.3
63.9405,2331.1275,-0.8225368511170753,-0.7916487842286996,0.14501747465620518,0.14833,-0.14535,0.402,16.7,-26.7,-24.1
63.9519,2331.1476,-0.7306782748970903,-0.7114140599845585,-0.19411272074208696,-0.20781,-0.17345,0.30549,16.7,-26.9,-24.1
63.9728,2331.1676,-0.6138462425492704,-0.6262258542984538,-0.4513867151572626,-0.23835,-0.08366,0.267,16.6,-27.0,-24.0
63.9955,2331.1877,-0.4813211051989343,-0.5896219309818127,-0.6493672994954593,-0.03554,0.00858,0.2218,16.6,-27.1,-24.0
64.0129,2331.2078,-0.36331666270747115,-0.586332885756822,-0.830431660300599,0.1526,0.07089,0.15827,16.4,-27.2,-24.0
64.032,2331.2278,-0.28145683733783616,-0.5686946941290997,-1.0319487298263823,0.17765,0.12037,0.09901,16.3,-27.3,-23.8
64.0543,2331.2479,-0.23425511901002813,-0.4959963985390406,-1.266215885379708,0.11229,0.21017,0.05992,16.2,-27.3,-23.6
64.0719,2331.268,-0.226574818575978,-0.3491945044389525,-1.5146080556612915,0.09152,0.26392,0.08252,16.0,-27.4,-23.6
64.0923,2331.288,-0.2329276675890954,-0.15435424386858235,-1.7345974611350012,0.10618,0.22361,0.12345,15.9,-27.5,-23.5
64.1248,2331.3081,-0.23597324403195147,0.053240971323009346,-1.874485218959304,0.0848,0.12159,0.12528,15.8,-27.6,-23.5
64.1325,2331.3281,-0.2350775592177362,0.2677785828037136,-1.893327638795923,0.02249,0.02508,0.08069,15.7,-27.7,-23.4
64.1521,2331.3482,-0.21575816682157103,0.45465480951238263,-1.7744524938504895,-0.05143,-0.02257,0.03304,15.6,-27.8,-23.3
64.1972,2331.3683,-0.18820383762944878,0.6372399481922182,-1.5336630879355617,-0.13573,-0.03051,0.00066,15.5,-27.9,-23.1
64.2033,2331.3883,-0.14376950590504153,0.7190798776067499,-1.2011105456784854,-0.1681,-0.01768,-0.06042,15.5,-28.0,-23.1
64.2188,2331.4083,-0.10676301293177484,0.7543116663111923,-0.8298918627175702,-0.10457,-0.05617,-0.08363,15.4,-28.0,-23.0
64.2568,2331.4284,-0.08856932133843827,0.7057730475140658,-0.46363078667260993,0.09701,-0.11359,-0.08363,15.4,-28.0,-23.0
64.2625,2331.4484,-0.07672505296661031,0.6557707483481585,-0.14091417420290675,0.21308,-0.13436,-0.10563,15.3,-28.0,-23.0
64.2718,2331.4684,-0.0765958623679925,0.5842483297274574,0.12737306840427287,0.15077,-0.18812,-0.15877,15.3,-28.0,-22.9
64.2947,2331.4884,-0.09171491466546824,0.5262068157074723,0.3434723276802618,-0.07525,-0.23454,-0.22963,15.3,-28.0,-22.8
64.311,2331.5085,-0.0854823761918136,0.46777305045320033,0.5223843172888145,-0.24507,-0.22293,-0.27789,15.4,-28.0,-22.7
64.331,2331.5285,-0.052508432224634326,0.38214951401319885,0.6803616437209232,-0.20842,-0.15757,-0.27545,15.4,-27.9,-22.6
64.3555,2331.5485,0.00771609881862599,0.2234822644079049,0.8286303119717608,0.09946,-0.00852,-0.16977,15.5,-27.9,-22.6
64.3741,2331.5686,0.06909190324685471,0.03681311188593505,0.9662281760146332,0.31326,-0.08182,-0.13373,15.6,-27.8,-22.5
64.397,2331.5886,0.10518764884739515,-0.11382386012493172,1.082523061333843,0.11534,-0.2602,-0.23085,15.6,-27.7,-22.5
64.4157,2331.6086,0.1222776301705059,-0.16991758543313978,1.1538142073558522,-0.37213,-0.39276,-0.37135,15.6,-27.6,-22.6
64.432,2331.6286,0.13280616716516228,-0.16454323575557922,1.1425533975182738,-0.65252,-0.3164,-0.37624,15.6,-27.5,-22.7
64.4518,2331.6486,0.1400373788624219,-0.13679690326532976,1.013407795093654,-0.32876,-0.14963,-0.28339,15.7,-27.3,-22.8
64.4766,2331.6686,0.14674283182694853,-0.17019774054494288,0.7569854045207496,0.34197,0.05134,-0.17221,15.7,-27.2,-22.9
64.4995,2331.6886,0.12632256649113427,-0.2344139624888733,0.40831687055271004,0.68833,-0.00974,-0.1771,15.7,-27.0,-23.0
64.5242,2331.7085,0.06830829779464805,-0.2720149872501722,0.0410698773711804,0.45926,-0.1594,-0.26079,15.8,-26.9,-23.1
64.5424,2331.7285,-0.01315150101357511,-0.23215734588368897,-0.2601452440963854,-0.02333,-0.26081,-0.38785,15.7,-26.9,-23.1
64.5582,2331.7485,-0.09793842033710087,-0.1934068412145612,-0.4392069323776564,-0.48025,-0.30174,-0.43183,15.8,-26.7,-23.1
64.572,2331.7685,-0.17453897707071964,-0.21067445636465582,-0.4887822297179838,-0.72338,-0.25226,-0.42572,15.9,-26.5,-23.2
64.595,2331.7885,-0.24781426599279632,-0.23043877434589555,-0.45317715350661025,-0.63053,-0.26692,-0.37318,15.9,-26.3,-23.3
64.6173,2331.8085,-0.30423911471975607,-0.3019811535126654,-0.4118119961171409,-0.14916,-0.27547,-0.26384,15.9,-26.1,-23.4
64.6355,2331.8285,-0.3246658022305305,-0.35621902879486833,-0.4358997746713946,0.13244,-0.2828,-0.20153,15.9,-25.9,-23.5
64.6533,2331.8485,-0.30179549631796815,-0.3238720081373392,-0.5557546770378821,0.18803,-0.19789,-0.16244,15.8,-25.7,-23.7
64.6711,2331.8685,-0.23724232087554506,-0.18500215451218244,-0.7516527509808384,0.13306,-0.10443,-0.10685,15.9,-25.5,-23.8
64.6912,2331.8885,-0.14947388793501723,0.02926102567586642,-0.9688772168963826,0.01699,-0.10076,-0.08791,15.9,-25.3,-24.0
64.7132,2331.9085,-0.06239029927551291,0.2616523547460268,-1.1432313742113767,-0.0612,-0.19606,-0.09646,15.9,-25.1,-24.1
64.7362,2331.9285,0.007032527940833022,0.455472497862801,-1.226425948531599,-0.03493,-0.26447,-0.10196,15.9,-24.9,-24.1
64.7517,2331.9485,0.06679820016940821,0.5803542523820002,-1.2030098250173946,-0.04043,-0.24309,-0.08547,15.9,-24.8,-24.2
64.7755,2331.9685,0.09771181934229278,0.6431207028523812,-1.09219002289802,-0.005,-0.16735,-0.09158,15.9,-24.6,-24.2
64.7926,2331.9885,0.12069881591629382,0.6617995508408895,-0.9330918347968975,0.04631,-0.04151,-0.07386,15.9,-24.5,-24.3
64.8202,2332.0085,0.1449959434347139,0.6450746551375688,-0.7628362439974214,0.08358,0.11182,-0.05431,15.9,-24.4,-24.4
64.8492,2332.0285,0.16842177573623382,0.5922978840269887,-0.599596569969659,0.13672,0.13931,-0.03904,15.9,-24.2,-24.5
64.8568,2332.0485,0.15368088429762533,0.5671427545876739,-0.43956006865396446,0.26317,0.1222,-0.03354,15.9,-24.1,-24.5
64.8724,2332.0685,0.1364843557699655,0.504318490433836,-0.2521644292943499,0.35236,0.06845,-0.03415,15.8,-24.0,-24.7
64.8942,2332.0885,0.10735493617876726,0.4212338157792378,-0.007881344167836701,0.16054,-0.13192,-0.02682,15.8,-24.0,-24.7
64.9182,2332.1084,0.07762387197015366,0.32728415820863266,0.3077667354381983,-0.15649,-0.22782,-0.03843,16.0,-24.0,-24.6
64.933,2332.1284,0.06496515359564713,0.17954110515029575,0.6809067878837691,-0.28294,-0.10321,-0.02072,16.0,-23.9,-24.6
64.9553,2332.1484,0.05041459453103846,-0.008079430052105855,1.0623058521150774,-0.06609,0.19917,0.09291,15.9,-23.9,-24.6
64.9838,2332.1684,0.017935935307078165,-0.22147857837412943,1.3811129471756516,0.11962,0.19429,0.15888,16.0,-23.9,-24.6
64.9929,2332.1884,-0.07839586736612189,-0.4171035310925576,1.5675803092831977,-0.016,0.02691,0.07458,16.0,-23.8,-24.5
65.0192,2332.2084,-0.19079660718717528,-0.5764961539103373,1.5775781684198105,-0.02577,0.11487,-0.05065,16.0,-23.8,-24.4
65.0333,2332.2284,-0.3424363586132206,-0.6757332007816875,1.4106611607433752,0.21247,0.30424,-0.00178,15.9,-23.8,-24.2
65.0547,2332.2484,-0.46859018209651065,-0.7629276461984159,1.111450275849844,0.45009,0.38976,0.17843,15.9,-23.7,-24.1
65.0745,2332.2684,-0.5745664181237959,-0.7862261762746248,0.7626964962028726,0.42444,0.32257,0.33542,15.9,-23.7,-24.0
65.0917,2332.2884,-0.6517403321230206,-0.7385600394526965,0.4494740189353017,0.13978,0.28958,0.33603,15.9,-23.8,-23.8
65.119,2332.3084,-0.6950875773164441,-0.6397494474708844,0.22724392540217409,-0.3422,0.10449,0.21813,15.9,-23.8,-23.6
65.1349,2332.3284,-0.7100184384597749,-0.6009790554640171,0.09875434636685654,-0.40939,-0.07022,0.12223,15.9,-23.8,-23.5
65.1522,2332.3484,-0.7077122028447043,-0.6250343391848175,0.02796906448307901,-0.18521,-0.22293,0.19858,15.8,-23.8,-23.5
65.1712,2332.3684,-0.6856232726001841,-0.6937345521365683,-0.04656699497349237,0.17032,-0.11298,0.17904,15.8,-23.7,-23.4
65.1938,2332.3884,-0.6341034525323115,-0.7387670084106016,-0.17948769023104738,0.21002,0.0599,0.1265,15.8,-23.7,-23.3
65.2118,2332.4084,-0.5612385303971384,-0.6827705296520642,-0.39571419394847673,-0.11373,0.12831,0.13139,15.6,-23.7,-23.3
65.2318,2332.4284,-0.48019845859924837,-0.5150342918014817,-0.6857470167909412,-0.22064,0.1442,0.13017,15.5,-23.6,-23.1
65.2544,2332.4484,-0.39895718562980786,-0.2645817038190453,-1.008909253980038,-0.02455,0.01897,0.24196,15.5,-23.6,-23.0
65.2752,2332.4684,-0.2940002664722488,0.02197736669732262,-1.3056452069641509,-0.02577,-0.28891,0.34764,15.4,-23.6,-22.8
65.2906,2332.4884,-0.14257802081630652,0.31310396323912026,-1.5195413220431462,-0.04104,-0.01585,0.30976,15.3,-23.7,-22.8
65.3148,2332.5084,0.02679931332517936,0.5818807957258316,-1.6180227381382526,-0.06609,0.16313,0.14361,15.2,-23.8,-22.8
65.3307,2332.5283,0.16622884967648097,0.7903621209381122,-1.5947232953396888,-0.06914,0.22239,-0.01277,15.1,-23.8,-22.8
65.3515,2332.5483,0.2362041081153853,0.9230604914831564,-1.466430148904573,-0.10213,0.11304,-0.07997,15.1,-23.8,-22.8
65.3733,2332.5683,0.20531788810694,0.9708183445231041,-1.2640022177515498,-0.01233,-0.09649,-0.13067,15.1,-23.8,-22.8
65.3914,2332.5883,0.08948002311859535,0.950468105938915,-1.0265356286646679,0.08724,-0.21744,-0.18198,15.0,-23.7,-22.8
65.4148,2332.6083,-0.0736722863655483,0.879972841171962,-0.7880409777300681,0.16299,-0.06655,-0.15694,14.9,-23.7,-22.9
65.4336,2332.6283,-0.23949707027610753,0.7933154753681324,-0.5709854042606768,0.16849,-0.07938,-0.1044,14.9,-23.6,-22.9
65.4528,2332.6483,-0.38225420030476304,0.6993157294905838,-0.38104908612484145,0.2479,-0.05922,-0.10502,14.9,-23.6,-22.8
65.4719,2332.6683,-0.48724758616843783,0.6146897504830864,-0.21405287813604623,0.24362,-0.09893,-0.13189,14.9,-23.6,-22.7
65.4925,2332.6883,-0.5488083532374892,0.5506261958479357,-0.05976799334174565,0.11901,-0.07816,-0.15266,15.0,-23.6,-22.6
65.5129,2332.7083,-0.5680312378652291,0.5052760582287504,0.09364955569433242,-0.01844,-0.00974,-0.17465,15.0,-23.5,-22.6
65.5322,2332.7283,-0.5508503655679743,0.44342295542338545,0.25794330940839316,-0.13817,-0.07083,-0.1545,15.0,-23.5,-22.6
65.5509,2332.7483,-0.5061715602689846,0.3246832015215386,0.44248063796039894,-0.05815,-0.02746,-0.10379,14.9,-23.5,-22.7
65.5741,2332.7683,-0.44139077468506305,0.13429938390615867,0.6520320332252023,0.13916,0.11915,-0.06164,14.9,-23.4,-22.7
65.5966,2332.7883,-0.37393711328403406,-0.07476221985073903,0.883666341596637,0.11534,0.06967,-0.02927,15.0,-23.3,-22.6
65.6177,2332.8083,-0.31015624910290585,-0.23529938260544325,1.12541958378816,-0.2579,-0.10931,-0.12395,15.0,-23.2,-22.6
65.6392,2332.8283,-0.24403228382591804,-0.3197343231952334,1.347239935125291,-0.72216,-0.14413,-0.18076,15.0,-23.2,-22.6
65.6539,2332.8483,-0.1625962593337452,-0.4223491506338191,1.4963453935705502,-0.68489,-0.06961,-0.16793,14.9,-23.1,-22.6
65.6737,2332.8683,-0.06083231828477819,-0.5193134013036926,1.520169966348746,-0.15161,0.00614,-0.09524,14.9,-23.0,-22.6
65.6908,2332.8883,0.05822092593733137,-0.6331702646034092,1.3872321990171415,0.44093,0.01286,-0.05798,14.9,-22.8,-22.7
65.7134,2332.9083,0.18830883092326445,-0.7397482281943837,1.1085141914879273,0.62297,-0.05189,-0.11112,14.9,-22.7,-22.6
65.7346,2332.9282,0.31598877106503476,-0.7452221201525975,0.7391843518806365,0.34319,-0.07694,-0.30782,14.9,-22.6,-22.5
65.7502,2332.9482,0.421025964256876,-0.6676995142261068,0.3436616042413263,-0.00805,-0.09343,-0.40862,14.9,-22.5,-22.5
65.7808,2332.9682,0.49321583205743313,-0.5751156912778489,-0.029980057312231523,-0.13939,-0.06044,-0.3799,14.8,-22.4,-22.5
65.7946,2332.9882,0.4910491869076651,-0.5291468368585208,-0.36014737848576495,-0.02699,-0.06716,-0.38052,14.8,-22.2,-22.5
65.8184,2333.0082,0.4383954135490148,-0.5085738959920585,-0.6536729834150403,0.11229,-0.01646,-0.43366,14.8,-22.1,-22.5
65.8355,2333.0282,0.3238608484091407,-0.4582562467828765,-0.9304721527667414,0.09518,0.06723,-0.44282,14.9,-21.9,-22.5
65.8585,2333.0482,0.19045446326589793,-0.34780778759858777,-1.2103411718029893,0.02493,0.11182,-0.36769,15.0,-21.7,-22.4
65.8742,2333.0682,0.03745136206206588,-0.153250542844903,-1.4923825088143605,0.07258,0.09472,-0.26079,15.0,-21.6,-22.5
65.8914,2333.0882,-0.09045574973328921,0.0997602236643642,-1.7534793653992509,0.12817,0.00858,-0.14045,15.1,-21.4,-22.5
65.9159,2333.1082,-0.17141214394215148,0.3749995699414792,-1.949470736856295,0.11412,-0.08854,-0.05187,15.2,-21.3,-22.6
65.931,2333.1282,-0.18575767070664434,0.6400587747614698,-2.03131744123477,0.01027,-0.10382,-0.01827,15.3,-21.2,-22.6
65.9516,2333.1482,-0.1472195007213999,0.8495360906005256,-1.9623716766704797,-0.13084,-0.07816,-0.0085,15.4,-21.0,-22.5
65.9793,2333.1682,-0.08108035820302525,0.9780042917228996,-1.7321063322787893,-0.17116,-0.07877,0.00372,15.6,-20.9,-22.4
66.0055,2333.1882,-0.015897320495406337,1.0039358835062753,-1.359131610168129,-0.14733,-0.10992,0.00738,15.6,-20.8,-22.3
66.0191,2333.2082,0.034342457129385294,0.9263963749714026,-0.8906510250840061,-0.13511,-0.10015,0.01105,15.8,-20.7,-22.3
66.0343,2333.2282,0.056528573855823175,0.7995545868327747,-0.39617371223355313,-0.11557,-0.05922,0.01471,15.8,-20.6,-22.3
66.053,2333.2482,0.06276120206308053,0.6570633963080738,0.05697884817225862,-0.06425,-0.01463,0.01655,15.9,-20.4,-22.3
66.0717,2333.2682,0.06920112513666633,0.5183081065597472,0.41698803464263356,0.06769,0.07822,0.03304,16.0,-20.3,-22.2
66.0949,2333.2882,0.08241971114766777,0.3938004337603618,0.6578740273916068,0.2876,0.17657,0.07763,16.1,-20.2,-22.3
66.1166,2333.3082,0.09160479366244312,0.3265808904696778,0.7819037467624916,0.38168,0.08738,0.14239,16.0,-20.2,-22.3
66.1319,2333.3282,0.10098345491977306,0.3441695390634703,0.8159640600378513,0.2595,-0.0073,0.14605,16.0,-20.1,-22.2
66.163,2333.3482,0.09573461540854047,0.3712113135582645,0.8015883715832235,0.12634,-0.03662,0.11673,16.0,-20.0,-22.3
66.1705,2333.3681,0.08562852420485229,0.41436550803006084,0.7770807454219817,0.10007,0.06539,0.07641,16.0,-20.0,-22.3
66.1903,2333.3881,0.051371978269632634,0.3657305900836984,0.7767505716472449,0.20331,0.34028,0.08741,15.9,-20.0,-22.3
66.2154,2333.4081,-0.03557505083916069,0.23576468867284994,0.8165495121355217,0.19842,0.32074,0.12223,15.9,-20.0,-22.3
66.2302,2333.4281,-0.2183286045982152,0.08364060419509792,0.8939654635746077,-0.02455,0.16008,0.0813,15.9,-19.9,-22.3
66.259,2333.4481,-0.4458011138219113,-0.0113964211912414,0.9904178177803811,-0.41489,-0.02379,0.00189,15.9,-19.9,-22.2
66.2746,2333.4681,-0.677089108478068,-0.16215330315606777,1.0717651343485404,-0.60059,0.01103,0.07152,15.8,-19.8,-22.2
66.2908,2333.4881,-0.8513630768292626,-0.32644103452367595,1.0971243785973037,-0.28966,0.15397,0.21813,15.8,-19.8,-22.3
66.3119,2333.5081,-0.934128244479396,-0.5194473702657902,1.0350615833222658,0.30104,0.28714,0.40384,15.7,-19.8,-22.2
66.336,2333.5281,-0.930219031996232,-0.7112556163382454,0.8787666266490923,0.57471,0.1723,0.46614,15.7,-19.7,-22.2
66.3601,2333.5481,-0.8574998282045326,-0.8076674754791898,0.6551512006026439,0.38168,-0.03112,0.37818,15.7,-19.7,-22.2
66.372,2333.5681,-0.7043269433548,-0.7800378958642209,0.4030392046846316,-0.01722,-0.15696,0.27067,15.5,-19.7,-22.3
66.396,2333.5881,-0.5480863355678398,-0.7004301997520989,0.13338928576217057,-0.24263,-0.09893,0.21325,15.4,-19.8,-22.4
66.4107,2333.6081,-0.38601427010475164,-0.6483021414413551,-0.16153235301639768,-0.16566,0.01225,0.16804,15.3,-19.8,-22.2
66.4326,2333.6281,-0.26869384253389905,-0.6084354015733202,-0.5038164055378047,0.02493,0.06662,0.11245,15.3,-19.8,-22.2
66.4552,2333.6481,-0.20745720404259033,-0.5579600346439477,-0.9114480136808947,0.17215,0.13259,0.07152,15.2,-19.8,-22.1
66.4726,2333.6681,-0.20478580383223072,-0.42976749440316037,-1.3750831004247814,0.27111,0.20223,0.04953,15.1,-19.8,-22.1
66.4937,2333.6881,-0.22894776630138713,-0.2203939247189735,-1.8517978895415501,0.31998,0.21872,0.05809,15.1,-19.8,-22.1
66.5139,2333.7081,-0.26600777307444035,0.06322594356816322,-2.267505730342468,0.3267,0.16435,0.11917,15.0,-19.8,-22.1
66.545,2333.7281,-0.30880517532667007,0.3399712701599375,-2.536030612571916,0.36091,0.00309,0.1937,15.0,-19.8,-22.0
66.5642,2333.748,-0.3230318687249798,0.613876101688533,-2.5870272280922393,0.35175,-0.26631,0.24318,15.0,-19.8,-22.1
66.5815,2333.768,-0.31096174673688975,0.8078994899830564,-2.3877688281108167,0.18254,-0.4569,0.18698,15.0,-19.9,-22.1
66.5908,2333.788,-0.2657759504776816,0.8923221015849575,-1.9551888699347488,-0.005,-0.40803,0.0422,14.9,-20.0,-22.0
66.63,2333.808,-0.2707393547803961,0.8957239673778294,-1.3594195668652915,-0.1345,-0.21805,-0.14167,14.8,-20.1,-22.1
66.6328,2333.828,-0.29038121803177624,0.7581131948123383,-0.685285845384481,-0.14672,-0.05189,-0.21864,14.8,-20.2,-22.0
66.6533,2333.848,-0.3459451869797073,0.5643307257102216,-0.04214942864238225,0.00844,0.01836,-0.12945,14.8,-20.2,-22.1
66.6721,2333.868,-0.44765136897272323,0.33217263038783995,0.4847309514409197,0.29616,0.02813,-0.04087,14.8,-20.3,-22.2
66.6934,2333.888,-0.5693972807815889,0.10774311166949617,0.8441874905441917,0.4336,-0.02929,-0.02927,14.8,-20.3,-22.1
66.7141,2333.908,-0.6722577481580932,-0.03229252838791388,1.028584148376554,0.32975,-0.05922,-0.03599,14.7,-20.3,-22.2
66.7305,2333.928,-0.7178493432855385,-0.05529450505764461,1.0668639049323438,0.10496,-0.05556,-0.05187,14.6,-20.5,-22.3
66.7525,2333.948,-0.6878085266037857,-0.0029346118722487807,1.0054730291402016,-0.0331,-0.01891,-0.05676,14.7,-20.5,-22.2
66.7712,2333.968,-0.5793882458992685,0.05395726415730048,0.8962236656828981,-0.01294,0.02935,-0.003,14.7,-20.5,-22.2
66.7907,2333.988,-0.40607391416151667,0.05687111516026561,0.7880974687209257,0.14955,0.12831,0.08802,14.7,-20.6,-22.2
66.8175,2334.008,-0.19152515392563266,-0.022917938304886476,0.7188059718653594,0.30532,0.1723,0.13322,14.6,-20.6,-22.1
66.8306,2334.028,0.0173618720837037,-0.0919895273966164,0.7076530748676273,0.17948,0.05929,0.10024,14.6,-20.7,-22.2
66.8507,2334.048,0.18968899874563028,-0.1414753365937161,0.7516783873095783,-0.28905,-0.10809,-0.0256,14.6,-20.7,-22.1
66.8768,2334.068,0.29296869786416185,-0.1291051717530514,0.821880995806648,-0.77591,-0.21683,-0.11845,14.6,-20.7,-22.1
66.8912,2334.088,0.3577612658701454,-0.21778528003820505,0.8651503501977622,-0.59998,-0.30968,-0.10013,14.6,-20.6,-22.1
66.9119,2334.108,0.3689360456615352,-0.33679442175511337,0.8325311755033482,-0.03615,-0.16429,-0.0702,14.7,-20.6,-22.2
66.9332,2334.128,0.3532999186937192,-0.49230628530464526,0.6975656482310022,0.42444,-0.00852,-0.05431,14.6,-20.5,-22.2
66.9517,2334.148,0.3155826640069804,-0.589611238402717,0.4778548906240214,0.42077,0.00919,-0.10318,14.5,-20.5,-22.2
66.9764,2334.1679,0.25938685509681636,-0.5974750282864154,0.22018198732414973,0.02554,-0.0806,-0.18809,14.5,-20.5,-22.1
66.9936,2334.1879,0.18838289993862553,-0.5249287628280763,-0.02798381986023024,-0.36724,-0.14291,-0.26628,14.5,-20.5,-22.1
67.0158,2334.2079,0.11848936181547712,-0.4078793727066437,-0.2441823926514175,-0.50041,-0.13375,-0.27545,14.5,-20.4,-22.2
67.0447,2334.2279,0.06733827302089743,-0.2930334858796357,-0.43828813629068186,-0.36846,-0.0806,-0.24796,14.6,-20.3,-22.2
67.058,2334.2479,0.02431719095226825,-0.2457214152687567,-0.6412149632649271,-0.10824,0.03057,-0.21314,14.6,-20.3,-22.4
67.0761,2334.2679,0.006955718583963738,-0.1822142185812525,-0.8780913601270619,0.17521,0.10877,-0.18504,14.5,-20.2,-22.5
67.0917,2334.2879,0.0018085220351184796,-0.05645247749046476,-1.1509594245418384,0.31082,0.12159,-0.16732,14.6,-20.1,-22.5
67.1195,2334.3079,0.025118571939642946,0.11699123571704194,-1.4290664080202813,0.22469,0.11671,-0.16121,14.7,-20.0,-22.6
67.1316,2334.328,0.03285619370414464,0.36386980663347473,-1.658973738219487,0.05425,0.10082,-0.14655,14.7,-19.9,-22.7
67.1527,2334.348,0.05052589463394197,0.6063660013098806,-1.7841034900238864,-0.10946,0.03913,-0.14472,14.8,-19.8,-22.9
67.1746,2334.368,0.0586887502867146,0.7850178999899003,-1.7629503969174962,-0.16444,0.02202,-0.13128,14.8,-19.7,-23.0
67.195,2334.3881,0.04562287756842992,0.8569962892384463,-1.583141033949051,-0.0838,0.01469,-0.09097,14.8,-19.7,-23.0
67.2228,2334.4081,0.0076044559150030815,0.8247124315395986,-1.2681343699649137,0.01638,-0.01952,-0.05248,15.0,-19.6,-23.0
67.2366,2334.4281,-0.048154098583212575,0.7229637898017833,-0.868541114993338,0.02615,-0.05128,-0.03477,15.1,-19.5,-23.0
67.2611,2334.4481,-0.10452590952753782,0.6012008530289312,-0.4455661317497661,-0.06242,-0.02868,-0.0201,15.1,-19.4,-23.0
67.2729,2334.4682,-0.14667249084107722,0.47582328416399483,-0.05384843423909835,-0.09235,0.08067,0.00677,15.2,-19.3,-23.0
67.2971,2334.4882,-0.14672147853841447,0.35452028863835344,0.2673849216805344,0.08174,0.20467,0.06603,15.3,-19.2,-23.1
67.3176,2334.5082,-0.12343700859269525,0.25469014392934003,0.5013686192921405,0.37801,0.19673,0.13811,15.4,-19.1,-23.1
67.3331,2334.5283,-0.07917075488312282,0.2147652216192609,0.6572126416851436,0.47209,0.09166,0.16621,15.5,-19.1,-23.1
67.354,2334.5483,-0.019940591821536433,0.20126326423330534,0.7641518239778691,0.31937,0.01164,0.16254,15.6,-19.1,-23.0
67.3754,2334.5683,0.04955671499279315,0.2080540644223526,0.8552138068655317,0.11595,0.00858,0.1149,15.6,-19.1,-22.9
67.3934,2334.5883,0.1014616787443735,0.19059116153771175,0.9550981726129422,0.10679,0.2065,0.07947,15.7,-19.1,-23.0
67.4175,2334.6084,0.10369283604401387,0.10308910419563617,1.0710353317820438,0.17887,0.28469,0.08619,15.7,-19.2,-23.0
67.4378,2334.6284,0.008350333489293826,-0.026123975023866028,1.189704848327537,0.09763,0.15091,0.05442,15.7,-19.2,-22.9
67.4585,2334.6484,-0.18157117963363545,-0.16526922465251487,1.2821075315397188,-0.16199,0.03546,-0.05309,15.7,-19.3,-23.0
67.476,2334.6685,-0.4394190733583579,-0.30443832751915084,1.311882415298097,-0.31288,0.08677,-0.08302,15.7,-19.4,-23.2
67.4988,2334.6885,-0.7082387921001326,-0.4324118457913794,1.2481210535002667,-0.17238,0.12282,0.01166,15.7,-19.5,-23.3
67.5207,2334.7085,-0.9506087656167018,-0.5679506485864024,1.0758596556998263,0.14527,0.1723,0.20347,15.7,-19.5,-23.2
67.537,2334.7285,-1.1276337904336782,-0.6608083956325571,0.8103208639213957,0.32426,0.13564,0.36657,15.7,-19.6,-23.3
67.5534,2334.7486,-1.2124596848728306,-0.6929556421857984,0.4913055786402776,0.1807,0.00675,0.37085,15.8,-19.7,-23.3
67.5765,2334.7686,-1.2110269371980524,-0.6663606449523579,0.1651197369537556,-0.09174,-0.07816,0.28594,15.7,-19.8,-23.3
67.5941,2334.7886,-1.1157818445666607,-0.617799789674718,-0.1322580468905663,-0.30738,-0.02563,0.26211,15.8,-19.9,-23.4
67.6198,2334.8087,-0.9771241833015764,-0.5594145347573772,-0.394415027721303,-0.3422,0.04524,0.23035,15.8,-20.0,-23.4
67.6311,2334.8287,-0.8225606999301657,-0.5666519051536941,-0.6408815487919561,-0.29027,0.08067,0.21813,15.7,-20.1,-23.4
67.6537,2334.8487,-0.6886743292894107,-0.545038067407643,-0.8938126209165684,-0.19559,0.13503,0.19248,15.7,-20.2,-23.4
67.6714,2334.8687,-0.5930909531112676,-0.489202432181403,-1.1705482408224128,-0.13389,0.16374,0.19125,15.7,-20.2,-23.6
67.6921,2334.8888,-0.5340086886918929,-0.36697253394903706,-1.4598167952563958,-0.09785,0.18268,0.24684,15.7,-20.2,-23.6
67.7163,2334.9088,-0.5084539683474527,-0.18725108747929775,-1.7217165063995274,-0.02638,0.1839,0.34031,15.7,-20.3,-23.7
67.7313,2334.9288,-0.5074098717974359,0.03158595668593157,-1.8957197893556268,0.04753,0.16374,0.37451,15.7,-20.3,-23.8
67.7574,2334.9488,-0.5285772105665046,0.2559185808160827,-1.9241696345963755,0.00722,0.07883,0.35374,15.6,-20.3,-23.7
67.7753,2334.9687,-0.5353661890349665,0.46289112146519407,-1.7740133103048095,-0.20536,-0.01341,0.30121,15.6,-20.4,-23.5
67.7933,2334.9887,-0.5198149585570014,0.6330415615491896,-1.4561384678346716,-0.40756,0.0715,0.27006,15.6,-20.4,-23.5
67.8252,2335.0087,-0.4707027969623198,0.7996868546609845,-1.0270181158134992,-0.4436,0.28714,0.2725,15.5,-20.5,-23.5
67.8387,2335.0287,-0.40965823051690586,0.8420175961715385,-0.557611959719317,-0.23652,0.3189,0.28472,15.4,-20.5,-23.5
67.8578,2335.0487,-0.3459562110666653,0.8206546647202819,-0.13525364687263774,0.14955,0.13259,0.26639,15.4,-20.5,-23.5
67.8716,2335.0687,-0.28303144077802433,0.7741049348595371,0.17922881345199215,0.48614,-0.17407,0.23524,15.3,-20.5,-23.6
67.8968,2335.0887,-0.24798325143839697,0.659454721854449,0.371652244369745,0.5686,-0.26203,0.18637,15.2,-20.5,-23.5
67.9167,2335.1087,-0.19134811524582596,0.6047837288766094,0.4575910755192041,0.4165,-0.21377,0.1491,15.2,-20.6,-23.5
67.9318,2335.1287,-0.11530973303562082,0.5856312904955284,0.48607055080379347,0.20636,-0.2437,0.01288,15.1,-20.7,-23.5
67.9535,2335.1487,-0.057622749142112,0.5336208623147597,0.5104930254328561,0.09824,-0.35977,-0.13128,15.1,-20.8,-23.7
67.971,2335.1687,-0.006561535071382751,0.4094309222988041,0.5697129771588756,0.00661,-0.37076,-0.2052,15.1,-20.8,-23.7
67.9922,2335.1887,0.015407415724151363,0.18392282297063867,0.6793061352823564,0.10373,-0.193,-0.19054,15.0,-20.9,-23.6
68.0194,2335.2087,-0.0011503421255599393,-0.11195364895181195,0.8296395809556572,0.21674,-0.09038,-0.16916,14.9,-21.0,-23.7
68.0356,2335.2287,-0.06325878290617153,-0.3855209631416379,0.9946446878259803,-0.02455,-0.16124,-0.22108,14.8,-21.1,-23.7
68.0519,2335.2487,-0.17080170841307712,-0.5957986229774026,1.1356898670356355,-0.4998,-0.23698,-0.32859,14.7,-21.1,-23.7
68.0761,2335.2687,-0.3073155847435608,-0.678678703749398,1.206139333314196,-0.69039,-0.21072,-0.31271,14.6,-21.0,-23.8
68.0942,2335.2887,-0.42804000745876514,-0.7583243034362374,1.1516511545394987,-0.39595,-0.14841,-0.18687,14.5,-21.0,-24.0
68.1173,2335.3087,-0.5140083748238916,-0.8201900682472825,0.9494153660102214,0.11045,-0.07266,-0.01277,14.5,-21.0,-24.1
68.1345,2335.3287,-0.5381228123629364,-0.8321109684720859,0.6208297826769993,0.4165,-0.15696,0.11856,14.4,-21.0,-24.2
68.1594,2335.3487,-0.5209180946891824,-0.7928663684524317,0.22425288720908476,0.35602,-0.30479,0.17476,14.4,-21.1,-24.3
68.1738,2335.3687,-0.3919451374678544,-0.6456090735017208,-0.1537450387915129,0.04081,-0.40375,0.1149,14.3,-21.2,-24.4
68.1946,2335.3887,-0.2124251398285451,-0.46206817026175,-0.45708722972340077,-0.32326,-0.40253,-0.0537,14.2,-21.2,-24.5
68.2223,2335.4086,0.01718128697938022,-0.27403771194744947,-0.6608063008196119,-0.44788,-0.24554,-0.09097,14.0,-21.2,-24.7
68.2348,2335.4286,0.27921092055844243,-0.19820037431459492,-0.7853514767443972,-0.38679,0.03363,-0.05981,13.9,-21.1,-24.9
68.2542,2335.4486,0.5177160159518727,-0.13467338245890811,-0.8731479339863455,-0.27134,0.20834,-0.05737,13.8,-21.0,-25.0
68.2719,2335.4686,0.6831058127444182,-0.07279375556029986,-0.9724280535255811,-0.21941,0.223,-0.15205,13.6,-20.9,-25.0
68.3128,2335.4886,0.8043563725041383,0.06473194341664214,-1.1165395975322259,-0.22858,0.1558,-0.23146,13.6,-20.9,-25.1
68.317,2335.5086,0.7629784131971455,0.1848853686216852,-1.2929274204484198,-0.22674,0.06967,-0.24612,13.5,-20.8,-25.3
68.3313,2335.5286,0.6702590064333823,0.35447265548056844,-1.4788407571109303,-0.2133,0.01836,-0.22352,13.4,-20.7,-25.3
68.351,2335.5486,0.5473472643265815,0.5354804804834165,-1.6244769112681805,-0.20475,-0.00669,-0.20398,13.4,-20.6,-25.3
68.3742,2335.5686,0.4235057099032153,0.6934338108809833,-1.6787752159979288,-0.18643,-0.03173,-0.17771,13.4,-20.5,-25.5
68.3945,2335.5886,0.31728549452559607,0.7953051158494022,-1.6046918720752341,-0.18398,-0.03357,-0.1661,13.4,-20.4,-25.6
68.4117,2335.6086,0.2381601620013123,0.8264473912051375,-1.3922926819821324,-0.21025,-0.04762,-0.16244,13.3,-20.4,-25.7
68.4338,2335.6286,0.1844594680815254,0.7983146022668464,-1.063259944682109,-0.20842,-0.11298,-0.14961,13.3,-20.3,-25.8
68.4522,2335.6486,0.14722949490870327,0.7109890452446582,-0.6628952154654772,-0.10824,-0.13864,-0.13678,13.2,-20.1,-25.9
68.4724,2335.6686,0.11677998070488661,0.5938497678681531,-0.25315875456834647,0.00538,-0.13497,-0.11296,13.1,-20.0,-26.0
68.4943,2335.6886,0.08957479611775576,0.4698527769138256,0.10566307680856646,0.09946,-0.09771,-0.10196,13.1,-19.8,-26.0
68.5232,2335.7086,0.06559510162624024,0.34516977259645854,0.3702895850426362,0.22224,-0.03906,-0.06836,13.2,-19.6,-26.0
68.5442,2335.7286,0.040915866588396105,0.2850480159751606,0.523014238978762,0.3719,0.01225,-0.04149,13.2,-19.5,-26.0
68.5644,2335.7486,0.010735969897249278,0.2909426267212757,0.5791209647514304,0.41528,0.05257,-0.02194,13.2,-19.4,-26.0
68.5833,2335.7686,-0.024824834825472805,0.3600105353051797,0.5771250846967249,0.34136,0.01347,-0.0085,13.3,-19.4,-26.2
68.592,2335.7886,-0.05951012316629267,0.4733541511980476,0.5665267265006424,0.23935,-0.06839,-0.00728,13.2,-19.4,-26.2
68.6229,2335.8086,-0.09582649940786812,0.4838430479817541,0.5996696647984905,0.18192,-0.02563,-0.01827,13.3,-19.3,-26.2
68.6338,2335.8286,-0.14728532809040082,0.45641381349473387,0.7034503784294994,0.25584,0.12159,0.02266,13.2,-19.3,-26.2
68.6565,2335.8486,-0.23041778525876525,0.30366063268289994,0.8855623122501655,0.24851,0.05684,0.06481,13.1,-19.3,-26.3
68.6761,2335.8687,-0.36094988835601544,0.09924707995180952,1.1177586156147115,-0.07953,-0.08793,0.03365,13.1,-19.3,-26.3
68.7006,2335.8887,-0.539217228985807,-0.09977442231570449,1.3481716416836864,-0.51202,-0.12214,-0.04882,13.0,-19.3,-26.2
68.7131,2335.9087,-0.7371802633308835,-0.3765144903010508,1.5051833390127012,-0.57982,-0.03234,-0.05492,13.0,-19.3,-26.3
68.7342,2335.9288,-0.9328640210548711,-0.6308994538377506,1.516544995683315,-0.18093,0.03974,0.06969,13.0,-19.4,-26.3
68.7525,2335.9488,-1.0924289252593686,-0.8761901398127055,1.3353105698604573,0.31937,0.11121,0.26945,12.9,-19.4,-26.2
68.7745,2335.9688,-1.1915416109707495,-1.0584598419074038,0.9686619103268086,0.52096,0.14908,0.40689,12.8,-19.5,-26.2
68.7954,2335.9888,-1.2217199539239956,-1.0912880448960887,0.4855478671590614,0.43116,0.13503,0.42338,12.8,-19.7,-26.3
68.8163,2336.0089,-1.1888762698643283,-0.9851773300197834,-0.019440322871867366,0.18315,0.03729,0.39284,12.7,-19.9,-26.3
68.8322,2336.0289,-1.096781540160622,-0.8125265769933938,-0.4603318895295221,-0.0893,-0.07816,0.34275,12.6,-20.1,-26.3
68.8549,2336.0489,-0.9838863026379122,-0.6455109558012546,-0.7872063244091017,-0.24996,-0.10809,0.31893,12.5,-20.3,-26.2
68.8763,2336.069,-0.8508979499926945,-0.5367064682584415,-0.989089018116454,-0.30005,-0.02318,0.26395,12.3,-20.4,-26.2
68.9005,2336.089,-0.7173992999972284,-0.47127351544525253,-1.0939935298930408,-0.33975,0.07089,0.16987,12.2,-20.5,-26.2
68.9156,2336.109,-0.6023119359969079,-0.4556358655269691,-1.153874692757741,-0.38129,0.16558,0.11062,12.1,-20.6,-26.3
68.9448,2336.129,-0.49615841826438994,-0.38911333886972277,-1.211687303720872,-0.32876,0.22788,0.11367,12.1,-20.8,-26.2
68.9547,2336.1491,-0.44805905981642086,-0.3305055636765952,-1.3005782265097778,-0.19192,0.23521,0.11795,12.0,-20.9,-26.3
68.9765,2336.1691,-0.41575222252645694,-0.20662920852928748,-1.4121969243936903,-0.08563,0.17413,0.12162,11.9,-20.9,-26.3
68.995,2336.1891,-0.4093518384817031,-0.038628321751345965,-1.520698397531234,-0.05937,0.05806,0.16254,11.8,-21.0,-26.4
69.0234,2336.2092,-0.42440296200454086,0.17031228488326838,-1.5884919683475704,-0.11129,0.00431,0.19492,11.7,-21.1,-26.4
69.0474,2336.2292,-0.4460382731823396,0.3850112744335178,-1.5829184986639877,-0.18276,-0.01646,0.15582,11.5,-21.2,-26.4
69.0646,2336.2492,-0.4668734454993549,0.5710107841520575,-1.4861357799919421,-0.19864,-0.05556,0.08619,11.4,-21.4,-26.5
69.0819,2336.2692,-0.4928323996909218,0.7200704208273082,-1.3001350382866885,-0.13695,-0.06167,0.07702,11.3,-21.4,-26.5
69.0948,2336.2893,-0.5190927754429843,0.821969309998775,-1.040064586475392,-0.06792,-0.06716,0.11001,11.2,-21.4,-26.5
69.1203,2336.3093,-0.5645976088711789,0.8810367579873075,-0.7295265603926726,-0.02699,-0.08549,0.18881,11.1,-21.4,-26.6
69.1341,2336.3294,-0.5868211042878749,0.8986605210444645,-0.38674273609841414,0.06891,-0.09343,0.23096,10.9,-21.4,-26.8
69.1579,2336.3495,-0.6165617449237539,0.8655460798146833,-0.028763564323892155,0.11412,-0.14841,0.17232,10.9,-21.4,-26.8
69.1768,2336.3695,-0.6238736664521022,0.814710634093206,0.3305909825682214,0.04509,-0.13741,0.08496,10.8,-21.5,-27.0
69.1957,2336.3896,-0.6222237376922046,0.7566643948258798,0.6767900671105238,-0.10457,-0.09099,0.00372,10.6,-21.5,-27.1
69.2239,2336.4096,-0.6243471556996986,0.7111725840129408,0.991854294500774,-0.22735,-0.07938,-0.04454,10.5,-21.6,-27.3
69.2385,2336.4296,-0.6147176811951042,0.5903485145866124,1.2642730006302045,-0.22308,-0.07511,-0.05859,10.3,-21.7,-27.6
69.2581,2336.4497,-0.5943226690761649,0.4017616610212529,1.4767824902123738,0.0286,0.01042,-0.04026,10.1,-21.8,-27.7
69.2753,2336.4697,-0.5589667798605702,0.15963744345950076,1.6203668285900932,0.36213,0.11976,-0.03354,10.0,-21.8,-27.7
69.2938,2336.4897,-0.5076441721818528,-0.08386875461984791,1.694596957131557,0.30471,0.05562,-0.12334,9.8,-21.9,-27.6
69.32,2336.5097,-0.44214080070533407,-0.2525930844116955,1.703838895541125,-0.15344,-0.02807,-0.22841,9.7,-22.1,-27.6
69.3367,2336.5298,-0.3784313153920489,-0.3786182210159751,1.6430894990856189,-0.5053,-0.03906,-0.25712,9.6,-22.2,-27.7
69.363,2336.5498,-0.2994694648188881,-0.45206678507913156,1.496674562789801,-0.40878,-0.06228,-0.15938,9.5,-22.3,-27.6
69.375,2336.5698,-0.1922464757852248,-0.5785367985953356,1.2417623787290264,0.10312,-0.03296,-0.08241,9.4,-22.4,-27.7
69.3975,2336.5899,-0.04864717048237401,-0.7361377474355704,0.8758302457292189,0.56677,0.06906,-0.03599,9.3,-22.5,-27.8
69.4249,2336.6099,0.1136007331523961,-0.8680456497968545,0.4304726150650424,0.64435,0.1613,-0.04882,9.3,-22.6,-27.7
69.4347,2336.6299,0.22462802409244662,-0.8053682004136747,-0.02019157372773961,0.33464,0.07639,-0.12884,9.3,-22.7,-27.5
69.4564,2336.6499,0.30013637227667167,-0.6917947780759228,-0.42293611098842376,-0.03005,-0.00852,-0.15816,9.3,-22.9,-27.6
69.4748,2336.67,0.31831339111532986,-0.5502903904273603,-0.7356101785508606,-0.28661,-0.06472,-0.14167,9.3,-23.1,-27.5
69.5023,2336.69,0.2888032981265187,-0.40526904658024177,-0.9522950181364589,-0.33731,-0.06839,-0.15999,9.3,-23.2,-27.3
69.5174,2336.71,0.21977302146651342,-0.3347066135133653,-1.1003885374846387,-0.20536,0.0153,-0.17771,9.4,-23.3,-27.0
69.5398,2336.7301,0.1307661448882249,-0.2820265189001658,-1.215441352827206,-0.016,0.12404,-0.19115,9.5,-23.4,-26.8
69.5585,2336.7501,0.020001297910224647,-0.2171201517055106,-1.3270791294210618,0.11229,0.06845,-0.17038,9.7,-23.5,-26.6
69.576,2336.7701,-0.09583890056035198,-0.10767818372702015,-1.4426004562623724,0.13855,0.05195,-0.09646,9.8,-23.6,-26.6
69.6073,2336.7902,-0.19005382811459065,0.05143529527472601,-1.5452395707842985,-0.01355,0.09472,-0.01705,9.9,-23.7,-26.7
69.619,2336.8103,-0.2714643695015751,0.22964249205457368,-1.60490171894868,-0.15466,0.07639,0.00311,10.0,-23.8,-26.6
69.6389,2336.8303,-0.3207351368529054,0.4078050527421403,-1.5923101436770963,-0.21208,0.05318,0.01716,10.1,-23.8,-26.6
69.6589,2336.8504,-0.3423140585783018,0.5412844501122158,-1.4916025270377435,-0.20353,0.00247,0.03548,10.2,-23.9,-26.5
69.6748,2336.8705,-0.34173353212312935,0.609131999415272,-1.306850395106629,-0.16505,0.03546,0.05748,10.4,-24.0,-26.4
69.6961,2336.8905,-0.32613755760260693,0.6308070745121882,-1.0623974651468728,-0.1064,0.07761,0.09718,10.5,-24.1,-26.4
69.7188,2336.9105,-0.3024090982341928,0.6202209388929169,-0.7915299393758684,-0.08441,0.06723,0.14177,10.6,-24.2,-26.3
69.7389,2336.9306,-0.27158147843796593,0.5900951090494487,-0.5265953914061843,-0.05876,0.04524,0.16682,10.7,-24.3,-26.3
69.7565,2336.9506,-0.23205192203054945,0.5510218431250022,-0.2913041690269633,0.00783,0.04585,0.1827,10.7,-24.3,-26.3
69.7767,2336.9706,-0.18599436091828683,0.5096450516015022,-0.09667335717098524,0.11656,0.06356,0.18637,10.9,-24.3,-26.2
69.8047,2336.9907,-0.1429578372848774,0.47252887268018867,0.0586784798719755,0.21613,0.10388,0.1992,10.9,-24.4,-26.3
69.8244,2337.0107,-0.100819627074431,0.4838791202252648,0.18350259645740508,0.14344,0.01286,0.17782,11.0,-24.4,-26.3
69.8404,2337.0307,-0.05578253466904858,0.5156904120321992,0.29334251846062287,-0.00805,-0.02624,0.15338,11.0,-24.5,-26.2
69.8571,2337.0507,-0.00627457001667638,0.5181248922385516,0.40368857937884783,-0.0557,-0.02257,0.11123,11.1,-24.6,-26.1
