AppTimestamp(s),SensorTimestamp(s),acc_x,acc_y,acc_z,gyro_x,gyro_y,gyro_z,mag_x,mag_y,mag_z
50.0007,2317.1937,0.04844280212916172,-0.08402672131735367,0.07670946905522447,0.0005304723737482619,-0.0014600210100139466,0.030487989848971803,-0.2032132120988808,-0.727039030124404,-0.3388562054811856
50.0173,2317.2137,0.06380334795994343,-0.08203103058448488,0.08854208822540457,0.010681381512136323,-0.005722747902909447,0.01526675458041442,-0.19440870303562444,-0.6566029576183531,-0.2684201329751347
50.0494,2317.2338,0.07788531924404143,-0.07713353273665058,0.09188275193514206,0.02234781621737583,0.0020587297390065825,0.005160939077608908,-0.19440870303562444,-0.6566029576183531,-0.2684201329751347
50.067,2317.2538,0.08676984713027823,-0.06097969758400437,0.08159058966904847,0.03058743132778292,0.0203456506222633,-0.00634743471897332,-0.293953873381871,-0.6529643203883284,-0.2596156239118785
50.08,2317.2738,0.08912060344886404,-0.03422219528750127,0.05761676920305127,0.030279287272383517,0.00566049817906811,0.0031658373238750447,-0.2815107270885904,-0.6534191500420815,-0.11874347889978168
50.0987,2317.2938,0.08591029092308383,-0.0031492815446130737,0.025087825140403572,0.019414572246543676,-0.011667222027650625,0.0123110808878793,-0.27634485525535857,-0.5120921753762292,-0.11874347889977915
50.122,2317.3139,0.07789959861151713,0.02403140615753132,-0.007428180051094538,0.03187867754374408,-0.009094379650047427,0.00644815830265697,-0.3722513883715824,-0.579344440306006,-0.039502897330474414
50.1412,2317.3339,0.06727802313286833,0.04233808705295632,-0.030890126543954843,0.04355284502754589,-0.0060610397796328685,0.012362147040446187,-0.36708551653835086,-0.4380174656401561,-0.03950289733047439
50.1601,2317.3539,0.055228372197401426,0.04767212887011863,-0.03881043352315994,0.032680277355869945,-0.03376158115304046,0.03274722687460335,-0.45782617782134105,-0.36394275590408054,0.039737684238832706
50.1807,2317.3739,0.042981028668404024,0.03972643977252673,-0.029512684005913337,0.015779205349826228,-0.04438015720139023,0.033339770334560495,-0.4490216687580847,-0.29350668339802966,0.11017375674488361
50.201,2317.394,0.03245981247371632,0.019553911244440232,-0.006812410873049027,-0.009276792456278885,-0.026178139650231125,0.020001819554633624,-0.44538303152806014,-0.3643975855578311,0.18060982925093205
50.2178,2317.414,0.022798101375487222,-0.011060307685171175,0.021071450199626474,0.0011978461619069991,-0.010131030704744052,4.728021366968465e-05,-0.4365785224648041,-0.2939615130517827,0.25104590175698044
50.2399,2317.434,0.010957330880279424,-0.04715922412411777,0.044056883228453664,0.03951670951684447,-0.014560123865244313,-0.0020455515906663228,-0.33703335211855756,-0.2976001502818073,0.24224139269372422
50.2802,2317.454,-0.004943705850302575,-0.08673909098544838,0.053456798919860965,0.0544814756350991,-0.01640199491920727,0.008332323242193808,-0.42777401340154775,-0.22352544054573179,0.3214819742630314
50.2808,2317.474,-0.018006531626855775,-0.09832445222639596,0.04494533755316826,0.05065062528090378,-0.0024287977527698854,0.014785147934654302,-0.42777401340154775,-0.22352544054573179,0.3214819742630314
50.3026,2317.494,-0.027825895144567278,-0.09929896652129037,0.019728769220107273,0.031048515778259542,0.006934326226076278,0.0044081535527005,-0.4226081415683162,-0.08219846587988193,0.3214819742630313
50.3181,2317.514,-0.030593451679672076,-0.08361542221863648,-0.015674902829823645,0.015228080410368121,0.016590843282944925,-0.011945341581391638,-0.4226081415683162,-0.08219846587988193,0.3214819742630313
50.3369,2317.534,-0.024935938007612478,-0.05926626936455458,-0.05144981899918624,0.027725305704103566,0.020018645632828465,-0.003930596981109483,-0.41896950433829167,-0.1530893680396834,0.39191804676907976
50.3589,2317.554,-0.012286424757150876,-0.033488382695419275,-0.07730559624367894,0.03166630176308054,0.008206614104644254,0.017795409583381612,-0.4101649952750353,-0.08265329553363247,0.4623541192751307
50.3771,2317.574,0.005804249680719925,-0.009888130052703475,-0.08561776338135163,0.02311828903788118,0.003332512303049374,0.02027387888468824,-0.40136048621177894,-0.012217223027581568,0.5327901917811816
50.4036,2317.594,0.025134205600189724,0.008738274204431427,-0.07388241793372044,0.013018962639243325,0.008017901113946551,0.022047107010028048,-0.3194243339920451,-0.156728005269708,0.3831135377058235
50.4192,2317.614,0.046911240321366225,0.01992171838600732,-0.04557984114100544,-0.0038362545073506397,-0.012543836058805168,0.03430914678242501,-0.3194243339920451,-0.156728005269708,0.3831135377058235
50.4372,2317.634,0.06421370949347444,0.02300981348393403,-0.00893044673345643,-0.014730802558511509,-0.016030220468092105,0.016612083565279972,-0.3282288430553012,-0.2271640777757564,0.31267746519977513
50.4572,2317.654,0.07375490500231793,0.016372696098880528,0.02603702795256027,-0.0053424887689576045,-0.01724371015166087,-0.0015630644939998806,-0.22868367270905285,-0.2308027150057811,0.30387295613651877
50.4793,2317.674,0.07318567923906102,0.0005744093691997243,0.05094729196433287,0.027147379807645523,0.0031852384611641277,-0.010436248727949517,-0.13794301142606263,-0.30487742474185664,0.22463237456721166
50.4974,2317.694,0.06121439637786142,-0.016795331578491376,0.06157699124561087,0.056567979729313884,-0.003939962165488979,-0.014797122066980334,-0.1415816486560872,-0.23398652258205513,0.15419630206116325
50.5192,2317.714,0.041278104136353425,-0.030141637964005374,0.05837495122920127,0.035785009943489536,-0.014423720452083762,-0.016466456985373714,-0.24112681900233376,-0.23034788535203052,0.16300081112441947
50.5585,2317.734,0.020025871630086824,-0.03328064518815847,0.04491171448040307,-0.0009890282019424281,-0.01480602561553946,-0.01581756466741173,-0.3406719893485821,-0.22670924812200585,0.17180532018767583
50.5806,2317.754,-0.0031574074101949757,-0.030879050546422374,0.02548464323010116,-0.018014428998034532,-0.0007892319842763403,-0.006026950589070794,-0.44021715969482866,-0.22307061089198124,0.18060982925093202
50.5814,2317.774,-0.023269472785751578,-0.026721103766987574,0.0032448731312978707,0.008533619984410795,0.012505159875286317,-0.002692683006815655,-0.33186748028532576,-0.15627317561595494,0.24224139269372674
50.6011,2317.7939,-0.035300619544211875,-0.02144655856647997,-0.020021795593919145,0.05013276359304345,0.0032083087443475276,-0.0003277918724250309,-0.2323223099390774,-0.1599118128459796,0.23343688363047038
50.6223,2317.8139,-0.038647388300191376,-0.013186909610116176,-0.042953675244516626,0.049948841392906396,-0.015373068856748934,0.012200144073682272,-0.2323223099390774,-0.1599118128459796,0.23343688363047038
50.6386,2317.8339,-0.03370891617163827,0.0005961768795494232,-0.06345595174185945,0.015929624164912184,0.011803193319297446,0.004893282002085919,-0.2323223099390774,-0.1599118128459796,0.23343688363047038
50.6584,2317.8539,-0.022985594099724276,0.01583890559618812,-0.07825709250973714,-0.006799497652903695,0.033380218776770415,-0.01124450265995644,-0.13277713959283083,-0.16355045007600422,0.22463237456721416
50.6782,2317.8739,-0.010716992588212876,0.028854495622389932,-0.08357275074471784,-0.00026466186878175695,0.008078905049745901,-0.003228877608767961,-0.024427460183328198,-0.09675301479998043,0.2862639380100064
50.6984,2317.8939,0.0007375110013796244,0.03697029023137793,-0.07646001618653353,-0.00805817395593433,-0.011519191647474683,0.006936808555667692,-0.01045707928684015,0.11501003237192536,0.35670001051605726
50.7188,2317.9139,0.011465753804012522,0.038416925371734724,-0.05618483080187853,-0.032527678424787036,-0.0019852273982962944,0.003925666456034058,-0.01045707928684015,0.11501003237192536,0.35670001051605726
50.7372,2317.9339,0.022028583548865725,0.030100402477052125,-0.024898857550556736,-0.053850901861851846,0.013058985105185206,-0.007587109595079799,-0.0016525702235840984,0.18544610487797378,0.42713608302210565
50.7578,2317.9539,0.032934346060514624,0.012997436968145627,0.01257824489084347,-0.011371850659894564,0.010211394720843443,-0.018723933109192615,-0.10483637779985525,0.25997564426779984,0.36550451957931346
50.7816,2317.9739,0.04388349012917022,-0.009182769431112875,0.049816057984481465,0.051917539549784515,-0.0020434836017239073,0.001236769388115603,-0.10119774056983069,0.1890847421079984,0.43594059208536184
50.8064,2317.9939,0.05443914996959962,-0.026797008355183373,0.08001748545065937,0.03875413706234745,-0.0011307035012204814,0.004567515166745439,-0.10119774056983069,0.1890847421079984,0.43594059208536184
50.8199,2318.0139,0.06217473256524952,-0.03392858225603887,0.09709993929369387,-0.024009958028976146,0.008076535768190833,-0.015009310735404808,-0.10119774056983069,0.1890847421079984,0.43594059208536184
50.8444,2318.0339,0.06760552974094614,-0.029340548912927075,0.09650292554962046,-0.032929778763393334,0.004517969892853279,-0.024206500902882275,-0.0016525702235840984,0.18544610487797378,0.42713608302210565
50.8648,2318.0539,0.06602247670644383,-0.020144447434745874,0.07635636495031797,0.017376457429711577,-0.013312140562307437,-0.003124103950915212,0.10305847195589428,0.32313444231380156,0.41833157395885195
50.879,2318.0739,0.056236831892742124,-0.007047719515611471,0.03862975672044516,0.04499351930335655,-0.007415645573147584,-0.005544463492404352,-0.005291207453608646,0.25633700703777523,0.35670001051605726
50.9046,2318.0939,0.04214188447974302,0.008684833855528824,-0.010275948954900138,0.007456100798528552,0.0039050063882283747,-0.025177638252559437,0.0035133016096477168,0.3267730795438262,0.4271360830221082
50.9212,2318.1139,0.022380958046964022,0.028638946934945127,-0.060369402046708126,-0.011555168862855302,0.009354849097157527,-0.02044257327834023,0.0035133016096477168,0.3267730795438262,0.4271360830221082
50.9381,2318.1339,0.002098113676493524,0.04883732350289472,-0.10053625329423493,-0.011281821665354687,-0.007948373322837543,0.010697214376584432,0.007151938839672265,0.2558821773840247,0.4975721555281566
50.9593,2318.1539,-0.014088744423226975,0.06802313326503803,-0.12173828670398523,-0.03996509165738988,-0.010784533259119081,0.013654648970932201,0.0035133016096477168,0.3267730795438262,0.4271360830221082
50.9775,2318.1739,-0.022252576411526576,0.08014860711715033,-0.11951136313089672,-0.0726653678355771,0.018933257315383104,0.006239491437857798,-0.09603186873659889,0.3304117167738508,0.4359405920853644
51.0114,2318.1939,-0.022290222231420978,0.09869517816423964,-0.09509942361868404,-0.06906836459124656,-0.026150716729972424,0.017041743607566877,-0.005291207453608646,0.25633700703777523,0.35670001051605726
51.0214,2318.2138,-0.010439166317834776,0.09219311315791073,-0.05311045310290613,-0.05910159682360967,-0.03991657458887741,0.01048062345362833,-0.10483637779985525,0.25997564426779984,0.36550451957931346
51.0463,2318.2338,0.005007647821110525,0.08802108520704854,-0.0003481672962003385,-0.06042528832987412,-0.048076106638993,0.01274338228288518,-0.10119774056983069,0.1890847421079984,0.43594059208536184
51.0619,2318.2538,0.022209776190755124,0.06681352198388552,0.058488548565290066,-0.03912035811708051,-0.059666664936644145,0.008651926921190005,-0.01045707928684015,0.11501003237192536,0.35670001051605726
51.0789,2318.2738,0.02938255295775962,0.031171263388184926,0.12069578736253586,0.011205608028206028,-0.06754893577435182,0.011989716307070448,-0.014095716516864698,0.18590093453172685,0.2862639380100089
51.0997,2318.2938,0.012205151621068923,-0.020822736769908277,0.18447990040105497,0.02186286204228781,-0.12586090366169755,0.010860097794254682,-0.014095716516864698,0.18590093453172685,0.2862639380100089
51.1186,2318.3138,-0.03386099883619088,-0.08585551302798608,0.24548277684343336,0.03167110478960975,-0.17808496168312204,0.03237039388669601,-0.008929844683633326,0.3272279091975792,0.2862639380100064
51.1399,2318.3338,-0.10627642214121387,-0.15963737505509518,0.29388756621372836,0.08478639941856116,-0.21374260465151074,0.07179522457014477,0.07300630753610082,0.1827171269554553,0.13658728393465083
51.1605,2318.3538,-0.17967976013184297,-0.23433360558055946,0.3146929438148124,0.19880438563180416,-0.2045087149455668,0.04571098601934184,0.18499462417562842,0.1786236600716776,0.26865491988349643
51.1814,2318.3738,-0.23301355090462048,-0.30456332084011817,0.29193384138647566,0.2827703758312327,-0.07705079335013844,-0.0358795190189474,0.18499462417562842,0.1786236600716776,0.26865491988349643
51.1986,2318.3938,-0.2598624903063317,-0.3414598257455936,0.21634375777630077,0.4412882335822724,0.2638120686581797,-0.07740246421217016,0.19016049600885981,0.31995063473753,0.26865491988349394
51.2215,2318.4138,-0.2596374532480848,-0.37195407357269705,0.09045701820688418,0.6290677122739496,0.2725078981915963,0.009246231282959814,0.2845397945218768,0.17498502284165293,0.2598504108202401
51.242,2318.4338,-0.24452217979468868,-0.337498493891385,-0.06504381405308163,0.5473815963551196,0.0814189708409569,0.07351386473929238,0.2845397945218768,0.17498502284165293,0.2598504108202401
51.259,2318.4538,-0.21522559231615748,-0.23740031876793766,-0.22026525671545163,0.33376559505340897,0.16660096042727182,0.030650873266642044,0.19743777046890904,0.17816883041792456,0.40952706489559326
51.2773,2318.4738,-0.17508082312352208,-0.11008017651187117,-0.3458899606444824,0.1506662448734734,0.13309615898778732,0.10439215847503834,0.29698294081515736,0.17453019318789986,0.4007225558323369
51.3031,2318.4938,-0.13133322385273277,0.025015021178820922,-0.4211173183204707,-0.01827955447948009,0.12845976416415925,0.14574957889787188,0.20107640769893373,0.10727792825812055,0.47996313740164415
51.3204,2318.5138,-0.07532159126223587,0.13115786882547414,-0.4392344778224523,-0.1411869015103058,0.1299309879175536,0.10847480932767024,0.31306472433846294,0.10318446137434534,0.6120307733504871
51.3386,2318.5338,-0.016212617305295475,0.200167919666137,-0.40800310376207316,-0.1802541771288107,0.11061278296951454,0.07023682646594842,0.3167033615684876,0.03229355921454135,0.682466845856538
51.3598,2318.5538,0.041304693822776226,0.23238578271875743,-0.34421349739437945,-0.118647100791435,0.1801093936685201,-0.039046500929000645,0.3167033615684876,0.03229355921454135,0.682466845856538
51.3801,2318.5738,0.08907379459745172,0.23329174569042366,-0.2656462868607449,-0.03312031935113264,0.07022364519093881,-0.004903495232599302,0.32034199879851233,-0.03859734294526269,0.7529029183625889
51.403,2318.5938,0.1257457531519028,0.22449628845916114,-0.18495021842299555,-0.07283520055383999,0.017644595569280018,0.01882201534015729,0.3415896541550493,0.0313838999070352,0.9642111358807366
51.4183,2318.6137,0.15123039916693992,0.20950573561626212,-0.10664601538987523,-0.15094293933940822,0.027412685284734253,-0.008072238044465217,0.24051724920559384,-0.17719533968859658,1.0434517174500415
51.4404,2318.6337,0.17271526520979152,0.21243457684053202,-0.031229609656522023,-0.22540942676150233,0.04742078590798144,-0.046527692280049486,0.2493217582688502,-0.10675926718254565,1.1138877899560924
51.4575,2318.6537,0.18260767950931112,0.20155371467789063,0.042355399965117974,-0.25881011075243654,0.037405313980508274,-0.031471101330975,0.14977658792260362,-0.10312062995252098,1.1226922990193486
51.4773,2318.6737,0.18072999944634982,0.18610319972806383,0.11018851713838126,-0.23961435448901394,-0.014298635912111444,-0.015118486647789182,0.14461071608937193,-0.2444476046183759,1.1226922990193486
51.5057,2318.6937,0.1677419230384062,0.16742111919536612,0.16507569393306756,-0.12895844718960162,-0.03001137751681281,-0.02710846709013153,0.13944484425614057,-0.38577457928422826,1.122692299019351
51.5206,2318.7137,0.1417631297005297,0.12247316573836833,0.20036857752259277,-0.04228552690191834,-0.023238015215346814,-0.014362179319255475,0.04870418297315004,-0.3116998695481553,1.2019328805886558
51.5516,2318.7337,0.11588677256784834,0.07844375253490024,0.21237916459700326,0.009711362815320855,0.020677102522566798,-0.04136560861626236,0.04870418297315004,-0.3116998695481553,1.2019328805886558
51.5657,2318.7537,0.07885276679551693,0.04509425452082682,0.20472946742973117,0.02926036880985554,0.028609150478844277,-0.04566485039185038,0.03626103667986931,-0.3112450398943997,1.0610607355765564
51.582,2318.7737,0.038977031812767925,0.023143727086903522,0.18568718333916068,0.011307490941302479,-0.01482387246958021,-0.0017197847553258423,0.027456527616612943,-0.38168111240045066,0.9906246630705055
51.6078,2318.7937,-0.0008670157519153759,0.01371436916638192,0.16405202337877817,-0.020741663454458662,-0.040887107635669356,0.014464663804751775,0.023817890386588266,-0.31079021024064657,0.9201885905644545
51.6253,2318.8138,-0.033781226409869476,0.004066540539624623,0.14484689087532868,-0.036319661377353804,-0.015241091018830515,-0.005755771709922502,-0.07572727995965832,-0.307151573010622,0.9289930996277107
51.6434,2318.8339,-0.05465205552499588,-0.008677940428675972,0.12730454283497597,-0.025158403148730087,-0.0005210251898407167,0.0032723718835404453,-0.07936591718968287,-0.23626067085082056,0.8585570271216623
51.6597,2318.8539,-0.061430941947109574,-0.024972744845129975,0.10634049462200176,0.0461944982282764,0.0163221858262111,0.005265712735461658,-0.07936591718968287,-0.23626067085082056,0.8585570271216623
51.6835,2318.874,-0.05406257228883088,-0.04315483832983338,0.07618618038743857,0.09033731795691911,0.02853474365535288,-0.0003260309706123805,-0.08817042625293892,-0.306696743356869,0.7881209546156139
51.7003,2318.894,-0.03700712135605998,-0.04635299533989218,0.03396510059878677,0.07345965156382914,0.03650341251063299,-0.00010855959674994544,-0.0918090634829636,-0.23580584119706494,0.717684882109563
51.7229,2318.9141,-0.012642644511242675,-0.036618073077254676,-0.018662436978462843,0.020514250799252377,0.031950206394018986,0.006718456730898937,-0.0918090634829636,-0.23580584119706494,0.717684882109563
51.7399,2318.9342,0.014148316442503625,-0.015250678886785975,-0.07647387877813264,-0.014301009317557336,0.02587812545954127,0.011080210520836077,-0.0918090634829636,-0.23580584119706494,0.717684882109563
51.7614,2318.9542,0.04068045477124493,0.01179109147586243,-0.13294845023355392,-0.016138635223015077,0.020327118215879316,0.00645432145900125,0.007736106863282987,-0.23944447842708955,0.7088803730463068
51.7779,2318.9743,0.06463070054219792,0.036809132629856224,-0.18246386055962352,-0.0255568030007292,0.008571775994166364,0.008980335109249464,0.007736106863282987,-0.23944447842708955,0.7088803730463068
51.8066,2318.9944,0.08532286472015833,0.06758997309998002,-0.22157276441669324,-0.05014963737949631,-0.0073908990359705115,0.014998217053985104,0.007736106863282987,-0.23944447842708955,0.7088803730463068
51.8206,2319.0144,0.10521249527975113,0.08971461396194214,-0.24834110438371373,-0.060783136686340965,-0.01910889349072777,0.010696333925678102,-0.0918090634829636,-0.23580584119706494,0.717684882109563
51.8387,2319.0345,0.12404440867993004,0.11308742647541753,-0.2615667103354028,-0.054987820113043706,-0.041786360904349736,0.023123018017557954,-0.10061357254621997,-0.3062419137031158,0.647248809603512
51.8599,2319.0545,0.1424538103994288,0.13433711839677412,-0.2590436333242657,-0.06293255748213514,-0.054034259857081074,0.021613044713209514,-0.0010684021999733764,-0.30988055093314043,0.6384443005402559
51.8785,2319.0746,0.16199190615165432,0.14733688661325542,-0.2373031466084395,-0.06269591853194867,-0.06312114825558937,0.007259053587382869,-0.10941808160947633,-0.37667798620916676,0.5768127370974612
51.9008,2319.0947,0.1804396670810599,0.15564299429121983,-0.1929940130206941,-0.0799744867376899,-0.06940969390151923,-0.01899070973380927,-0.10941808160947633,-0.37667798620916676,0.5768127370974612
51.923,2319.1147,0.19518354384539602,0.15578124191489784,-0.12502638250823284,-0.13065406840930954,-0.10472634727447636,-0.029372106370294703,-0.004707039429997928,-0.23898964877333898,0.5680082280342075
51.9425,2319.1348,0.19813601042000312,0.13996585389215532,-0.03706106388217342,-0.1762651206793974,-0.06026476543517914,-0.07073040724403455,-0.00987291126322974,-0.38031662343919137,0.568008228034205
51.9585,2319.1548,0.1805242622097338,0.10177671267581023,0.06105378838456447,-0.1783757891332466,-0.023450113065972628,-0.054382194815380376,-0.01867742032648579,-0.45075269594523976,0.4975721555281566
51.9807,2319.1749,0.1409498968372966,0.05507176797839052,0.15414174796684166,-0.10238760179787482,-0.11743461438299843,-0.03754621258462179,-0.013511548493254292,-0.3094257212793899,0.4975721555281566
51.9996,2319.195,0.07946091331442114,-0.007198415745392477,0.22635299346205806,-0.06680861232193173,-0.14250269857545392,-0.03426036980221457,-0.02231605755651034,-0.3798617937854383,0.4271360830221082
52.0285,2319.215,0.004328786660804925,-0.06690420046788258,0.2653602415716868,-0.029995161992308728,-0.12655509593846986,-0.013183255555685454,-0.025954694786535018,-0.3089708916256343,0.35670001051605726
52.0446,2319.2351,-0.06965155304672548,-0.11318690388789857,0.26675296988501906,0.02721500400086359,-0.10012376799309129,-0.0433017201592724,-0.029593332016559698,-0.2380799894658303,0.2862639380100064
52.0599,2319.2552,-0.13636697797364358,-0.13591858335990106,0.23472754910894647,-0.006550380674193393,-0.07641684539354718,-0.039376670018872774,-0.12913850236280627,-0.2344413522358057,0.2950684470732626
52.0832,2319.2753,-0.1894778567423233,-0.13169356668633347,0.17966441448371406,-0.06346542542305264,-0.03024720338442118,-0.028997034284199995,-0.042036478309840614,-0.23762515981207974,0.14539179299790705
52.1014,2319.2954,-0.2281742749776598,-0.11249403894299217,0.11407678010727057,-0.04042959820924574,-0.034110585673965924,-0.0028555664244858977,-0.05084098737309666,-0.30806123231812815,0.07495572049185864
52.1221,2319.3155,-0.24929399272088917,-0.08278791691041247,0.049350987051452966,-0.021921292848949007,-0.014904142791592117,0.0042461505859365855,0.04506554574312523,-0.24080896738834878,-0.004284861077448473
52.1412,2319.3356,-0.25223085618224256,-0.04947535974092247,-0.006589564047931526,-0.03061121472500765,-0.01113351780006125,-0.0053806996238277855,0.04142690851310068,-0.16991806522854733,-0.07472093358349688
52.1624,2319.3557,-0.237742887002011,-0.013539823316197373,-0.04975660161381304,-0.05540650475618242,0.0092241619505406,-0.0026918025559093304,-0.06692277089640225,-0.2367155005045736,-0.13635249702629157
52.1806,2319.3758,-0.2073396477904829,0.018732820360755527,-0.07926878610842142,-0.07559173658441615,0.010832307324670911,0.02511283706585387,0.028983762219819634,-0.16946323557479423,-0.2155930785955987
52.2291,2319.3959,-0.1570076545014933,0.07377698195858473,-0.09619943942752374,-0.08336590210790314,0.03963898313677493,0.02242129864521644,0.025345124989794954,-0.09857233341499023,-0.2860291511016496
52.2346,2319.4159,-0.10791101795889267,0.08062752359253583,-0.10137901170787844,-0.0911014881779332,0.08833429457653443,-0.015766498514844844,0.01654061592653859,-0.16900840592104116,-0.3564652236077005
52.2442,2319.4359,-0.05583276861533198,0.08292132282247514,-0.09640792748105972,-0.126166266800953,0.09307606559237629,0.0020899263163451365,0.021706487759770406,-0.027681431255188755,-0.356465223607698
52.2597,2319.4559,-0.007755382756944375,0.08376564052026833,-0.08286976558266412,-0.16074609596192888,0.042467432304569196,0.02059084121096547,0.018067850529745726,0.04320947090461522,-0.4269012961137489
52.29,2319.476,0.030367547191565723,0.09309817319626784,-0.06309399335541213,-0.14057567941151736,0.007150764707861054,-0.00037885802499191656,0.005624704236464816,0.0436643005583658,-0.5677734411258483
52.3247,2319.496,0.05295237584593202,0.08881519913063343,-0.03975951798546584,-0.09237933959418751,-0.018378516753500017,-0.013825984717303171,0.10153123735268671,0.11091656548814517,-0.6470140226951553
52.3258,2319.516,0.05896093742144102,0.046656138136677926,-0.016121564553871842,-0.04911573748974622,-0.042439699917969836,-0.00732561567590109,0.1066971091859184,0.2522435401540001,-0.6470140226951554
52.3439,2319.5361,0.05431215335162972,0.01496162652604633,0.003656273926358672,-0.04430129940704047,-0.03267419525632384,-0.005540061237872725,0.08908809105940599,0.11137139514190075,-0.7878861677072547
52.3588,2319.5561,0.041145546571490124,-0.010637896003241672,0.016985011857525073,-0.04496789774758099,-0.01968698198064793,-0.011515681539104731,0.08028358199614963,0.04093532263584984,-0.8583222402133056
52.3788,2319.5761,0.023320690285238324,-0.021834405993974272,0.022184665330192366,-0.04283387333244824,-0.025814786659585913,0.0012878355406824899,-0.014095716516865142,0.1859009345317268,-0.8495177311500469
52.4014,2319.5961,0.004940170296600024,-0.020814814083045072,0.018911992927178267,-0.037209489098934324,-0.04070971279147459,0.02242217909612276,0.0906153256626128,0.3235892719675546,-0.8583222402133056
52.4217,2319.6162,-0.010406536136642577,-0.015049530474694671,0.008501367361948162,-0.027414909480151718,-0.017293075841213767,0.0055897186689894875,0.07300630753610038,0.1827171269554553,-0.9991943852254049
52.4398,2319.6362,-0.022415110343158375,-0.008399058632332174,-0.005700662502783838,-0.005773282821543705,0.0074099374276503215,-0.01662229679579335,0.0781721793693322,0.32404410162130765,-0.9991943852254024
52.4621,2319.6562,-0.032117956353007876,-0.002941676819589671,-0.018560292493183944,0.033976853199629814,-0.03380897440296153,-0.001185351055186187,0.17924458431878723,0.5326233412169393,-1.0784349667947122
52.4861,2319.6763,-0.04001626948781388,0.0024855151243980272,-0.024364258210109235,0.01400224765014252,-0.009735818798859883,0.005860017097231454,0.0796994139725389,0.536261978446964,-1.0696304577314557
52.5086,2319.6963,-0.04541597508366118,0.008741381046001633,-0.018807180148134928,-0.021448956545594183,0.008414547635246492,0.006877818344943875,0.07606077674251434,0.6071528806067655,-1.1400665302375041
52.5276,2319.7163,-0.04845558555138488,0.010358443232761326,-0.0009244037083867285,-0.041704314034246286,0.008291687726029664,-0.02082116716806025,0.08122664857574602,0.7484798552726204,-1.1400665302375041
52.5475,2319.7364,-0.04938359853680368,0.0031188215391363266,0.026024489047282662,-0.03556176346376287,0.012822092289896973,-0.01571279100955898,0.0636176304492336,0.6076077102605211,-1.2809386752496035
52.5681,2319.7565,-0.04911703074411708,-0.016451950400581172,0.055455100499705166,0.0035902095899852304,0.0010178767198818028,-0.01226670616220049,0.15952416356545737,0.674859975190298,-1.3601792568189084
52.5897,2319.7765,-0.04784485937011538,-0.04402795064281108,0.07976551563099438,0.08350876326761579,0.013656306140926259,-0.03662702183841785,0.150719654502201,0.6044239026842471,-1.4306153293249593
52.6132,2319.7966,-0.044819821941164475,-0.06863773741998318,0.09302197208264076,0.08073782691265673,0.026288815301253765,-0.05239149531617815,0.150719654502201,0.6044239026842471,-1.4306153293249593
52.6402,2319.8167,-0.03837854982665038,-0.07976306747711878,0.09262105921886427,0.04152349343433334,0.0290241474746667,-0.038938205467522614,0.14191514543894496,0.5339878301781987,-1.5010514018310077
52.6477,2319.8367,-0.042026589762276176,-0.07190894201179807,0.07929422564323867,0.013458954393681331,0.03479783514945062,-0.03254349053487961,0.14191514543894496,0.5339878301781987,-1.5010514018310077
52.6603,2319.8567,-0.042510361470018375,-0.057368533519918774,0.05633421178534657,0.02172679241955917,0.0556805393564733,-0.05184737665606891,0.1331106363756886,0.4635517576721478,-1.5714874743370586
52.6797,2319.8767,-0.04066316739348458,-0.04468466214733617,0.028529926677033066,0.061380620589930296,0.041261164719442286,-0.04846116247034057,0.14191514543894496,0.5339878301781987,-1.5010514018310077
52.7033,2319.8968,-0.04057148278771998,-0.03823923688618658,0.0012983076232749718,0.07475169612174565,0.021759768973965157,-0.021090585145395895,0.1331106363756886,0.4635517576721478,-1.5714874743370586
52.7199,2319.9168,-0.04228217437874568,-0.029294796456791273,-0.02027075630454403,0.06905002925104817,0.014616434008385379,0.007578657266379071,0.1331106363756886,0.4635517576721478,-1.5714874743370586
52.7401,2319.9368,-0.03970241556903958,-0.021457839151479377,-0.03245632186410283,0.03154119945691187,0.012095795655294918,0.007845433890995736,0.22385129765867887,0.3894770479360721,-1.6507280559063657
52.7615,2319.9569,-0.030421566649164976,-0.013628154852942172,-0.03397169610092343,-0.010693120015569525,0.03396123987544378,-0.013936921531500198,0.21868542582544737,0.24815007327022226,-1.6507280559063655
52.7801,2319.9769,-0.017114716440073174,-0.010371434628873175,-0.026315364695985333,-0.012080967237000646,0.03573846210399479,-0.009464230927366028,0.22232406305547203,0.17725917111041828,-1.5802919834003146
52.8028,2319.9969,-0.0027996870966238755,-0.013304441398735073,-0.013171846814399424,0.0023342081360947686,0.03131986508875811,0.009621303369054519,0.23629444395195978,0.3890222182823216,-1.5098559108942662
52.836,2320.0169,0.008417411042555726,-0.024063310261234074,0.0009877520479960739,0.027704354331629745,0.02045103465303789,0.00951036655485749,0.3218692334017186,0.17362053388039372,-1.5890964924635709
52.8542,2320.037,0.014962383896368423,-0.03250056861383688,0.012373783130298965,0.045031048786963214,0.009444590295705619,0.0018821399024522845,0.430218912811223,0.24041796915641744,-1.527464929020779
52.8611,2320.057,0.017035748633213624,-0.03435041102394758,0.018876443600176165,0.03852971638789237,-0.0028560688968610774,0.009785067237631085,0.4478279309377357,0.38129011416851927,-1.3865927840086771
52.8821,2320.077,0.014906313686685324,-0.033354238263476776,0.020125600907001162,0.008944283900815572,0.01336047120652453,-0.00533139437307355,0.4602710772310163,0.3808352845147661,-1.2457206389965803
52.9012,2320.0971,0.007448274370251925,-0.030369632555100275,0.016992647841603065,0.004892585860052855,0.009616886880422794,-0.008023813244617308,0.5546503757440296,0.2358696726188892,-1.2545251480598338
52.9212,2320.1171,-0.004326665627436275,-0.029620812775794873,0.01106447180822237,0.03476802383321611,-0.004869609334271131,-0.004200014958445124,0.5598162475772611,0.37719664728474156,-1.2545251480598363
52.9438,2320.1371,-0.017792167349254377,-0.032880502946928375,0.004310777967221874,0.044090413773250715,-0.01213048981399433,0.007091767915181002,0.6681659269867658,0.44399408256076783,-1.1928935846170416
52.9614,2320.1571,-0.030663690850552275,-0.03664352097761868,-0.0011549760103314322,0.023724245436528874,0.009360163492230927,-0.010121047303484943,0.6821363078832536,0.6557571297326685,-1.1224575121109908
52.9832,2320.1772,-0.040967951256859474,-0.040668042936637276,-0.0034756209811238337,0.02070735593180173,0.013355047454413809,-0.004198254056632472,0.7816814782294984,0.6521184925026441,-1.1312620211742468
53.0099,2320.1972,-0.048572746913466976,-0.04347807533795317,-0.0017222795346750336,0.003318133464446974,-0.004158732284424246,0.014623144967890389,0.7816814782294984,0.6521184925026441,-1.1312620211742468
53.0242,2320.2172,-0.05176344791461228,-0.047649374955297676,0.0035592271095626626,-0.0011371016428324697,-0.0148006131426598,0.01714739771632595,0.785320115459523,0.5812275903428425,-1.0608259486681986
53.0407,2320.2373,-0.05103965453555138,-0.05183184035445347,0.010279703070282073,0.014450176090865546,-0.003702391273075667,0.0015026655618259415,0.785320115459523,0.5812275903428425,-1.0608259486681986
53.0632,2320.2573,-0.047315451535083375,-0.055571347713816575,0.015473087960032564,0.02649490533775793,0.01444544270206336,-0.008610193548230175,0.785320115459523,0.5812275903428425,-1.0608259486681986
53.0823,2320.2773,-0.043706230739779674,-0.05632734601903468,0.016385293687559574,0.028850006173015856,0.003986249384126793,0.0015546121652991534,0.785320115459523,0.5812275903428425,-1.0608259486681986
53.1047,2320.2973,-0.042068564915914576,-0.05446673418640038,0.01152643521729177,0.03633833363253674,-0.011847130939706163,0.0025812179220748304,0.785320115459523,0.5812275903428425,-1.0608259486681986
53.1241,2320.3173,-0.042843132808396474,-0.04916350167315048,0.0012062284407740737,0.03058375759850876,-0.00472373921192995,-0.002956818278713343,0.7033839632397906,0.7257383725849664,-0.9111492945928431
53.1417,2320.3373,-0.045152345033380975,-0.042403723267897674,-0.012598277988645629,0.03570449142480826,0.0020021313984660708,0.0035479530172203657,0.6945794541765345,0.6553023000789181,-0.9815853670988914
53.1614,2320.3573,-0.04819128308605198,-0.036885902182878676,-0.026957261110600733,0.02296311357293817,0.0033311085835053085,-0.002264783866341403,0.6857749451132782,0.5848662275728671,-1.0520214396049423
53.1909,2320.3773,-0.051019378669023376,-0.03474370482555397,-0.03900604100397734,0.01331933615775758,-0.0023591107379394042,-0.01183792657081991,0.6857749451132782,0.5848662275728671,-1.0520214396049423
53.2126,2320.3973,-0.05419028595408128,-0.03678233442830527,-0.04690042426689764,0.009045342208075442,-0.007821062335396506,0.0045648738140264605,0.6857749451132782,0.5848662275728671,-1.0520214396049423
53.2252,2320.4173,-0.05560699763145498,-0.04273588226519898,-0.05031389999846744,0.014219783539660807,-0.0006655316827135799,0.011499305152247074,0.6945794541765345,0.6553023000789181,-0.9815853670988914
53.2429,2320.4373,-0.053868469554096174,-0.05007965309009357,-0.05037097571396884,0.014130636927525204,0.0010712954202015924,0.002845353193972518,0.6894135823433029,0.5139753254130631,-0.9815853670988915
53.2608,2320.4573,-0.048568525181690074,-0.05518486331435887,-0.04903481841255944,0.008994704434887417,-0.0009061645209007047,0.008062905264858165,0.6806090732800465,0.44353925290701224,-1.0520214396049423
53.2823,2320.4773,-0.04074348785021947,-0.0556123658164584,-0.04820036913129544,-0.011641438156174163,0.005034694750606642,0.02205062881365335,0.6718045642167905,0.37310318040096385,-1.1224575121109908
53.3079,2320.4974,-0.031974797254572376,-0.05219502043626317,-0.048756868837855544,-0.004862638857654587,0.010405089138763252,0.01322058667411367,0.6754432014468152,0.30221227824115987,-1.0520214396049399
53.3231,2320.5174,-0.025557976744633178,-0.04809780009982857,-0.04992848853347062,0.019225247778054528,0.011258182224436192,0.0006961725316316709,0.5722593938705421,0.3767418176309885,-1.1136530030477345
53.3448,2320.5374,-0.025054049667586578,-0.04478994432828047,-0.04923969917848542,0.031160109705393218,-0.006902922356854307,-0.0025817461926186274,0.5810639029337982,0.4471778901370369,-1.043216930541686
53.3732,2320.5574,-0.035015288320600774,-0.04427557269490767,-0.04335845393956422,0.014418940726412841,-0.02228227418869731,0.015756285284331466,0.5722593938705421,0.3767418176309885,-1.1136530030477345
53.3819,2320.5775,-0.048692487342017074,-0.044692168551482475,-0.02959021584875432,0.009148008693687643,-0.0290097304504989,0.028338809186630957,0.5758980311005669,0.30585091547118454,-1.0432169305416836
53.4089,2320.5975,-0.07474610521645136,-0.048309818098976276,-0.007522256451547429,0.02636378199662124,-0.04649354402703014,0.04280461757756096,0.5722593938705421,0.3767418176309885,-1.1136530030477345
53.4257,2320.6175,-0.09252773673881487,-0.054209571069373574,0.020388293457728274,0.024733497330193845,-0.06070582135844932,0.05114424856227726,0.5582890129740544,0.1649787704590852,-1.184089075553783
53.4424,2320.6376,-0.10171157519833537,-0.06170194996505837,0.04900740880519587,0.005135061556823767,-0.0262733075454099,0.03737663774006349,0.5670935220373106,0.23541484296513362,-1.1136530030477345
53.4625,2320.6576,-0.10132031058797807,-0.07095987396147098,0.07219298955576327,0.03191927675944856,0.01511041407558848,0.02473072137250855,0.5670935220373106,0.23541484296513362,-1.1136530030477345
53.4848,2320.6776,-0.09239866342563698,-0.07953329537234888,0.08490575452398406,0.08808598322879384,0.008734065830350678,0.024086231309078193,0.46754835169106573,0.23905348019515818,-1.1048484939844785
53.5122,2320.6976,-0.07866634039772287,-0.08330692895257018,0.08487853175024757,0.09027664975114508,-0.011660601990839415,0.022527833204881838,0.4587438426278097,0.16861740768910977,-1.175284566490527
53.5261,2320.7177,-0.061282894147724476,-0.07246627892157417,0.07316443885741677,0.015690773039197074,0.0031723843135765453,0.012687913875786666,0.46754835169106573,0.23905348019515818,-1.1048484939844785
53.5487,2320.7377,-0.04559069524745988,-0.05877095130033677,0.05334763206669137,0.007035455607756119,0.02552984486204891,0.009627466525398797,0.4587438426278097,0.16861740768910977,-1.175284566490527
53.5646,2320.7577,-0.03446724046900317,-0.04766190336103417,0.030465809446197062,0.03823419832912369,0.008829786632989464,0.0016144828269292943,0.4587438426278097,0.16861740768910977,-1.175284566490527
53.587,2320.7778,-0.029341404410059477,-0.046095315684526475,0.009708916761188069,0.05288184329878728,-0.0029490536097018364,-0.0014565299343344805,0.46754835169106573,0.23905348019515818,-1.1048484939844785
53.6058,2320.7978,-0.029968595495875078,-0.05024820959782357,-0.004730861589674229,0.045177102465605704,0.0051230197248455294,0.005319420240747521,0.46754835169106573,0.23905348019515818,-1.1048484939844785
53.623,2320.8178,-0.033837503344473975,-0.057119565997369275,-0.01061780137349333,0.029100298195346184,0.013918585562769424,0.0072079874348159835,0.46754835169106573,0.23905348019515818,-1.1048484939844785
53.6451,2320.8378,-0.03788550799716488,-0.06452310849937898,-0.008351919187875034,0.005588958011300564,0.007857864090404471,-0.006351836973504948,0.46390971446104096,0.30994438235496213,-1.1752845664905294
53.6639,2320.8579,-0.040476572461614575,-0.07206196681027457,-0.0010351548050092363,-0.0023101207746180894,0.0051252338030552515,0.0025785765693558537,0.46390971446104096,0.30994438235496213,-1.1752845664905294
53.6814,2320.8779,-0.04021110844714468,-0.07943240465882248,0.006389269750537371,0.01568328232558602,0.009222458604688125,0.0031746418329383005,0.46390971446104096,0.30994438235496213,-1.1752845664905294
53.7041,2320.8979,-0.03619628531207807,-0.08540564366333188,0.00880084388097517,0.0315909796735307,0.015554037388245602,5.080201729498743e-05,0.46390971446104096,0.30994438235496213,-1.1752845664905294
53.7245,2320.918,-0.029615586421705278,-0.08517497386148448,0.002772715989035765,0.041728208982441874,0.014751871859534927,0.003915981496064476,0.4727142235242973,0.3803804548610131,-1.1048484939844785
53.7439,2320.938,-0.021980216005543975,-0.07607537464699438,-0.012151879279521133,0.04485043645237731,0.015939691619018388,0.004084147619172671,0.4763528607543221,0.3094895527012091,-1.0344124214784276
53.7625,2320.958,-0.015102198498426075,-0.059540599259826875,-0.03325106889469043,0.017020710944443247,0.00528188755554593,0.006067803511124302,0.4727142235242973,0.3803804548610131,-1.1048484939844785
53.7904,2320.9781,-0.010327223767174076,-0.041057245269581474,-0.05542116164210642,0.004901684752016237,0.003559678016129859,0.008438857801859205,0.5722593938705421,0.3767418176309885,-1.1136530030477345
53.8062,2320.9982,-0.008179637860648776,-0.026845307493150675,-0.07261263581580094,0.016282049290187752,-0.0024674056784980115,0.007847194792808387,0.5810639029337982,0.4471778901370369,-1.043216930541686
53.8251,2321.0182,-0.008717969803087375,-0.020699082493160777,-0.07950273048770884,0.023062092903336658,0.0029029432266932218,-0.0009687601322300843,0.4763528607543221,0.3094895527012091,-1.0344124214784276
53.8443,2321.0383,-0.011352553735684875,-0.022397277318316873,-0.07302784724303424,0.009541589311671796,-0.005681085506625666,0.0023628660973060763,0.5722593938705421,0.3767418176309885,-1.1136530030477345
53.8634,2321.0583,-0.014946605721186175,-0.029493761292192673,-0.05341803305343404,-0.003996544292474124,-0.018156154339793038,0.00698963561004723,0.4763528607543221,0.3094895527012091,-1.0344124214784276
53.8819,2321.0784,-0.018416957186254176,-0.03959958821595597,-0.024421578708791025,-0.014442557974237697,-0.014314263793901633,-0.0016229351556300235,0.5810639029337982,0.4471778901370369,-1.043216930541686
53.9117,2321.0984,-0.020708176181352376,-0.04810783394445707,0.007500968694861873,-0.013223575610170141,0.00033759511863883264,-0.0077526343654690175,0.584702540163823,0.3762869879772329,-0.9727808580356352
53.9286,2321.1184,-0.023670127877974876,-0.05818219485840617,0.034977648879664563,0.0022154935524726182,-0.010599851580219097,-0.009151670855620433,0.5935070492270793,0.44672306048328386,-0.9023447855295843
53.9501,2321.1385,-0.026335254352373775,-0.06515252692716147,0.05199693004382627,0.03199587948390441,-0.027686764128764713,-0.005327872569448251,0.5971456864571039,0.37583215832348243,-0.8319087130235359
53.9697,2321.1585,-0.029027004055944078,-0.06644244151190808,0.05583679670158087,0.0376010785477992,-0.009735171617606514,-0.011841448374445214,0.4976005161108591,0.379470795553507,-0.8231042039602798
53.983,2321.1785,-0.032225470459575876,-0.05923272657143638,0.04781688014898437,0.03872799119224014,-0.008049870462078995,-0.006725148157787014,0.5971456864571039,0.37583215832348243,-0.8319087130235359
54.0024,2321.1985,-0.03657029869577477,-0.048759001510665374,0.03256930423482837,0.046892837120557404,-0.01785110303554081,-0.0005426218935684832,0.5935070492270793,0.44672306048328386,-0.9023447855295843
54.0295,2321.2186,-0.044428993429621276,-0.037353228319838075,0.016174946255484463,0.033296430336503535,-0.026432357307971804,0.0019296842513938691,0.6966908568033522,0.37219352109345777,-0.8407132220867922
54.043,2321.2386,-0.052437970337972074,-0.025966415752626874,0.003949777776105667,0.01101971715553772,-0.037286062755698283,0.011237811233068364,0.6966908568033522,0.37219352109345777,-0.8407132220867922
54.0661,2321.2586,-0.06278108983763547,-0.020459845308750772,-0.0012676925166467262,0.020132665916841402,-0.041942472665268814,0.019085270161148644,0.6966908568033522,0.37219352109345777,-0.8407132220867922
54.0845,2321.2787,-0.07101634036347176,-0.019711535478842176,0.00032448206290996984,0.0289501840293694,-0.01720232776504485,0.004515568563272224,0.5971456864571039,0.37583215832348243,-0.8319087130235359
54.106,2321.2987,-0.07726889076519057,-0.022750123887320874,0.0059890299722059614,0.03295209992201533,-0.00048700062387737925,-0.005757532611735152,0.6878863477400958,0.30175744858740683,-0.9111492945928431
54.1234,2321.3187,-0.08085610859030827,-0.027391581655107973,0.011708505179443968,0.009597398688156178,-0.015624610494750623,0.014031481958839569,0.6966908568033522,0.37219352109345777,-0.8407132220867922
54.1457,2321.3387,-0.08194991420309107,-0.03392728429146187,0.013586244424861268,0.01700540197377483,-0.0180605842098014,0.015541455263188016,0.7054953658666085,0.44262959359950865,-0.7702771495807412
54.1645,2321.3588,-0.07978813212137217,-0.039445958917851076,0.009000820304818566,0.035410688479177964,-0.007058292166576358,0.003970569452256665,0.7054953658666085,0.44262959359950865,-0.7702771495807412
54.1825,2321.3788,-0.07561207889171237,-0.040973869981856474,-0.002738814558348332,0.04122386716805815,0.0009371373444651204,0.003923025103315081,0.7054953658666085,0.44262959359950865,-0.7702771495807412
54.2156,2321.3988,-0.07219561410074807,-0.035679816404677975,-0.020309307178782626,0.008967119905371732,-0.004796840757026189,0.009358928998969484,0.7054953658666085,0.44262959359950865,-0.7702771495807412
54.2264,2321.4189,-0.07034445451672797,-0.029478068882184575,-0.04071823392421303,-0.018894117420745038,-0.01631673936596035,0.011342584890921112,0.6966908568033522,0.37219352109345777,-0.8407132220867922
54.249,2321.4389,-0.07210017384938947,-0.024726108476475474,-0.059959002257952726,-0.0027193231372773584,0.011621614901781098,-0.004732687756772126,0.8014018989828288,0.5098818585292856,-0.8495177311500457
54.2815,2321.4589,-0.07862032976120557,-0.027493123313361473,-0.07374287011804773,0.04622184069284082,0.018910925542726473,-0.009465111378272354,0.8102064080460848,0.5803179310353339,-0.7790816586439974
54.2843,2321.4789,-0.09407092504601527,-0.026018293163229775,-0.07863212154273533,0.05467203099227802,0.0065024479382241014,0.0010210589160658254,0.8102064080460848,0.5803179310353339,-0.7790816586439974
54.3011,2321.499,-0.11332795707882497,-0.024741209309714674,-0.07311717033881104,-0.011059500930600184,-0.012279807444801505,0.01500085840670408,0.701856728636584,0.5135204957593101,-0.8407132220867897
54.3236,2321.519,-0.1325391326032446,-0.020908644370970474,-0.058736588047526433,-0.05838826173466695,0.0024201061226644255,0.021834037890697246,0.5935070492270793,0.44672306048328386,-0.9023447855295843
54.3416,2321.539,-0.14390911491839747,-0.023196143944932572,-0.039748996355479044,-0.021357685167922927,0.00668471865661655,0.029409437488722916,0.5935070492270793,0.44672306048328386,-0.9023447855295843
54.367,2321.559,-0.14383511829280687,-0.030940864284885874,-0.021506608187257137,0.04216355721520845,0.015174657721667593,0.015591640964848573,0.5935070492270793,0.44672306048328386,-0.9023447855295843
54.3866,2321.579,-0.13024727406421568,-0.03841044472921697,-0.007676345258882528,0.044966310037459406,0.028466680299675185,0.007145475420466864,0.6023115582903357,0.5171591329893348,-0.8319087130235333
54.4042,2321.599,-0.10574541804535567,-0.040901983586624974,0.0019761384591298614,0.0012904721585377153,0.016229977268301683,0.024841658186705577,0.5986729210603109,0.5880500351491388,-0.9023447855295842
54.4223,2321.619,-0.07579541425708997,-0.04187777849113598,0.012088054124668068,-0.009667591290336817,0.004955469677305425,0.03054345825607032,0.584702540163823,0.3762869879772329,-0.9727808580356352
54.4444,2321.639,-0.04912586422636938,-0.050692425002627474,0.030048207000355764,0.014484176538306916,-0.0028403876935447136,0.022315644536457364,0.4851573698175782,0.3799256252072575,-0.9639763489723792
54.4676,2321.659,-0.03509791208572467,-0.07548117442189567,0.06269983318401126,0.05612475209337816,0.0077442167470252446,0.016932567695182497,0.4851573698175782,0.3799256252072575,-0.9639763489723792
54.4835,2321.679,-0.03773202771048058,-0.10970714611866257,0.11236699489008867,0.07518768467196524,0.0044576773757218965,0.011774005835020668,0.4763528607543221,0.3094895527012091,-1.0344124214784276
54.5144,2321.699,-0.06112569038282727,-0.15933868853271338,0.17343128792908247,0.09229046364013141,-0.048040090878948616,0.011832996045744483,0.4763528607543221,0.3094895527012091,-1.0344124214784276
54.5354,2321.719,-0.09563185230481147,-0.20382948272033657,0.23164583539234787,0.12925667344599218,-0.10299041243206272,0.015325744791138237,0.38561219947132974,0.38356426243728214,-0.9551718399091228
54.5681,2321.739,-0.1485243260548852,-0.2785969291907836,0.26561105579232724,0.22391569099664993,-0.14405827202680058,-0.0005435023444748065,0.3804463276380982,0.24223728777143233,-0.9551718399091228
54.5907,2321.759,-0.20932136705239357,-0.3309464641576655,0.256114139261291,0.4021102465558936,-0.13760182755285155,-0.014523301835113052,0.3840849648681229,0.17134638561162835,-0.8847357674030719
54.5972,2321.779,-0.224685677746132,-0.2768513957133174,0.19605602106555717,0.6705027005852107,-0.24207219531831475,0.21857343426187686,0.3840849648681229,0.17134638561162835,-0.8847357674030719
54.6059,2321.799,-0.2182192457611503,-0.19175762894319706,0.08763082068207456,0.6480037507099393,-0.27971379432048604,0.28505099949308677,0.3965281111614035,0.17089155595787525,-0.743863622390975
54.6319,2321.819,-0.21305485925310058,-0.151965024434893,-0.04993721022505293,0.46989543149328183,-0.197570348053745,0.15231069905181044,0.508516427800933,0.16679808907409746,-0.6117959864421296
54.6594,2321.839,-0.1575225022738045,-0.06437925421070537,-0.18423989662668352,0.35448563395621224,-0.08485872835030218,-0.11682465354289995,0.52976408315747,0.2367793319263928,-0.40048776892397936
54.6634,2321.859,-0.08532439656100047,0.08462572273573293,-0.2884798154271092,0.1845383026502144,-0.12921737879828482,-0.04254805418345766,0.542207229450751,0.23632450227264226,-0.25961562391188003
54.6841,2321.879,-0.029034473162207475,0.19525720481423242,-0.3433891300436077,0.005895842982631023,-0.06606705613895186,0.04845359059254616,0.5546503757440316,0.23586967261888664,-0.11874347889978072
54.7019,2321.899,0.0027893725367789243,0.2655677844327931,-0.3419803018630777,-0.06533567233115722,-0.014619178649257733,0.0544785161445324,0.46754835169106423,0.23905348019516076,0.03093317517557496
54.7217,2321.9189,0.015865114504560622,0.2886455567720657,-0.2909244957204372,-0.053327902959473907,0.023412976324208686,0.014945389999605565,0.4836301352143699,0.1677077483816037,0.2422413926937277
54.7461,2321.9389,0.019706618170647724,0.27254715010042696,-0.20730567878151404,-0.04711674749693144,0.047392220024548445,-0.035819648357317255,0.38772360209814793,0.10045548345182684,0.32148197426303227
54.7656,2321.9589,0.012718907749308023,0.2287963671174456,-0.11231215980716022,-0.05949663765183927,0.06384309878528574,-0.05072304084869108,0.4053326202246603,0.24132762846392616,0.4623541192751316
54.7867,2321.9789,-0.001906893560698876,0.18092010322935834,-0.025608783601210328,-0.08000916238481484,0.048162900921481296,-0.01947407728138205,0.4214144037479656,0.1699818966503691,0.6736623367932794
54.809,2321.9989,-0.020300372679921876,0.14189089197989543,0.03955394758220476,-0.09070079210995652,0.06583986312034783,-0.04362308474008126,0.4250530409779903,0.09909099449056509,0.7440984092993302
54.8271,2322.0189,-0.04283511567985707,0.10883554698629652,0.07789833878979237,-0.0919866514150031,0.11603298867997526,-0.07890451345836164,0.3291465078617684,0.03183872956078572,0.8233389908686374
54.8446,2322.0389,-0.06454148160077128,0.08248608246004344,0.09119446328374398,-0.07648323645431625,0.13750030836547003,-0.06502772672376349,0.3239806360285369,-0.10948824510506411,0.8233389908686373
54.8638,2322.0589,-0.08294645401410537,0.06090709891341322,0.08645774407673057,-0.03457486250015721,0.11046729999874226,-0.003338933972058656,0.22807410291231323,-0.17674051003484342,0.9025795724379445
54.8821,2322.0789,-0.09728262386418417,0.04405340883829902,0.07299583717888357,0.00698588450535594,0.10765327604284748,0.002954529106356909,0.32761927325856155,-0.1803791472648681,0.8937750633746882
54.9107,2322.0989,-0.09899281348670316,0.04075693825582432,0.05934669553182767,-0.015788706851895692,0.08428654518483442,-0.002051714747010602,0.23687861197556928,-0.10630443752879502,0.973015644943993
54.9269,2322.1189,-0.09209669396153927,0.04031768828051193,0.050797481130871666,-0.08112477545620536,0.08753799635035717,-0.0066767233579391,0.12852893256606665,-0.17310187280481887,0.9113840815012008
54.9449,2322.1389,-0.07306290576408148,0.04550229995752033,0.04805465786430077,-0.11274927382552993,0.08739200939576051,-0.0034437076299114098,0.1373334416293227,-0.10266580029877047,0.9818201540072492
54.9647,2322.1589,-0.045925625376906774,0.05003465011759262,0.048111058055278766,-0.0432993659264964,0.10603127258802872,-0.01689347567494164,0.22807410291231323,-0.17674051003484342,0.9025795724379445
54.9867,2322.1789,-0.015638507093409776,0.05247123028345422,0.046573869471642174,0.027273693477710907,0.08357574782168721,-0.007589750947798769,0.22807410291231323,-0.17674051003484342,0.9025795724379445
55.0095,2322.1989,0.013045937206402923,0.058358047590294525,0.04038566712848317,0.040575670424621034,0.05499156339696815,-0.011888112272480466,0.2332399747455446,-0.03541353536899104,0.9025795724379422
55.0254,2322.2189,0.03580563392787292,0.07341661362453214,0.029511197139177575,-0.002570089422206899,0.04273548462234476,-0.0020473124924789746,0.2332399747455446,-0.03541353536899104,0.9025795724379422
55.0487,2322.2389,0.05372583531894702,0.09395440784491102,0.01680217748169037,-0.011176375327314211,0.04175519738148627,-0.0017233065589511425,0.24204448380880095,0.03502253713705986,0.9730156449439931
55.0704,2322.2589,0.06355209587037693,0.11231927080960813,0.006351670670192169,0.016406381449780228,0.02172725159824177,0.006182262128946633,0.23687861197556928,-0.10630443752879502,0.973015644943993
55.0866,2322.2789,0.06398758511391603,0.12286289891900842,0.001333166068740274,0.018175846504354935,0.009562972034839426,0.0033885914031754265,0.33278514509179297,-0.03905217259901571,0.8937750633746857
55.1075,2322.2989,0.05519675879313942,0.12532336839959674,0.0024167491096708654,-0.004683270837698013,0.003910033298415855,-0.0028520446208605936,0.33278514509179297,-0.03905217259901571,0.8937750633746857
55.1254,2322.3189,0.03694893163553322,0.11911574858640073,0.007561179337397667,-0.019061269096468172,-0.004203952771745423,-0.002481374789297507,0.43233031543803957,-0.04269080982904032,0.8849705543114296
55.142,2322.3388,0.011049780256182924,0.10425313915735362,0.012932907336323074,-0.004546533290135087,-0.0017060663210807336,0.0010148957597215461,0.44630069633452774,0.16907223734286292,0.955406626817483
55.1645,2322.3588,-0.018684341953472676,0.08147578761753074,0.014716051653924062,0.019345519450312706,1.0355602501611754e-05,-0.00022389866547860627,0.44630069633452774,0.16907223734286292,0.955406626817483
55.1938,2322.3788,-0.04731878721338258,0.051818430163274025,0.010964525487253574,0.044475680509833374,0.00860164407866692,-0.018018691933225788,0.5546503757440303,0.23586967261888672,1.0170381902602752
55.2114,2322.3988,-0.07607354699030347,0.027994325469038232,0.0023766148150258654,0.047483947222148215,0.022317777777185625,-0.02431655726617298,0.5582890129740549,0.16497877045908524,1.0874742627663236
55.2243,2322.4188,-0.10128848860854887,0.01160196556097013,-0.007928934270129029,0.025406114774204427,0.00756511819363536,-0.018076801693043282,0.5758980311005673,0.30585091547118454,1.228346407778423
55.2425,2322.4388,-0.11809186269757788,0.0019022906760970265,-0.01621954765782052,-0.011008501225187104,-0.0027718098014968677,-0.0023220131752525676,0.6666386923835596,0.23177620573511148,1.149105826209118
55.2621,2322.4588,-0.12433680481718977,-0.0032000982913234777,-0.01995232976921954,-0.0018279746473375135,0.01937240282129986,0.002141872919818345,0.6666386923835596,0.23177620573511148,1.149105826209118
55.2964,2322.4788,-0.11683066057247227,-0.0066436868045159775,-0.018569131827460034,0.02726181473331925,0.018740717866553954,0.005213766131988447,0.6541955460902786,0.23223103538886206,1.0082336811970187
55.3153,2322.4988,-0.09687632508240017,-0.007756926240760673,-0.013188136802028433,0.028669757702152954,0.010474261617223583,0.003763663489270143,0.663000055153535,0.30266710789491297,1.0786697537030696
55.3274,2322.5188,-0.06728314694416078,-0.0037471707444780775,-0.005457244431926633,0.03259613426613288,0.027185274129062968,-0.0004334459811841054,0.663000055153535,0.30266710789491297,1.0786697537030696
55.3451,2322.5388,-0.032224904294489876,0.0029563111535412245,0.003395669504940066,0.033653390117166525,0.022823320937332175,0.0063944507973711096,0.6578341833203032,0.16134013322906057,1.0786697537030672
55.3667,2322.5588,0.0023744201133734247,0.012422732947261421,0.012652551991236272,0.03141062089833767,-0.006048832813298657,0.013867718090263003,0.663000055153535,0.30266710789491297,1.0786697537030696
55.3816,2322.5788,0.03275506180772502,0.024935471901155824,0.021504481558720562,0.0243485542740616,-0.013135365807507241,0.006234208732419844,0.663000055153535,0.30266710789491297,1.0786697537030696
55.4105,2322.5988,0.05517014801187782,0.03820056563511793,0.028321265663264275,0.0067607328284568545,-0.012067937372345204,-0.005653639404788729,0.671804564216791,0.37310318040096135,1.149105826209118
55.4236,2322.6188,0.06620819056724073,0.04948082121206402,0.030528118233645762,0.0033984328125141175,-0.011506337499887099,-0.009259085866192158,0.671804564216791,0.37310318040096135,1.149105826209118
55.4426,2322.6388,0.06535819626853073,0.05688966870446512,0.02539607762451937,0.023990547893092407,-0.016589416855260834,-0.02409908589231055,0.5722593938705427,0.376741817630986,1.1579103352723745
55.464,2322.6588,0.051896092472134524,0.05879618821337133,0.011514770756307163,0.04344499553874181,-0.021623835690065554,-0.031037039034156465,0.6754432014468156,0.30221227824115987,1.2195418987151665
55.4817,2322.6788,0.026189326227628824,0.05884231834921872,-0.010013877227576323,0.05355902691087176,-0.020691584713025946,-0.0349656109781814,0.5722593938705427,0.376741817630986,1.1579103352723745
55.5066,2322.6988,-0.0049664202384696755,0.055725906070865826,-0.03517960793269703,0.03749327677916733,-0.020967585766661433,-0.02920305979628019,0.5722593938705427,0.376741817630986,1.1579103352723745
55.5256,2322.7187,-0.039387487699256374,0.054106351762225426,-0.05812688865185192,0.019054870277229158,-0.03282483778216682,-0.02458157298897699,0.5634548848072867,0.30630574512493763,1.087474262766326
55.5478,2322.7387,-0.07054915320900366,0.05061292604922412,-0.07290722607312153,-0.008214342107611744,-0.023188536860893987,-0.038617721337620085,0.5634548848072867,0.30630574512493763,1.087474262766326
55.5754,2322.7587,-0.09592470935704787,0.04305880106620082,-0.07559036674940214,-0.017109149050722874,-0.008166992405783021,-0.027384048223811453,0.5634548848072867,0.30630574512493763,1.087474262766326
55.5893,2322.7787,-0.11701927715074056,0.02870404002598393,-0.06561118710503033,0.0016373160281196518,-0.01576527177504282,-0.006512079038456212,0.4639097144610401,0.30994438235496224,1.0962787718295823
55.6119,2322.7987,-0.12939947308461758,0.015298216430175725,-0.04598242923146642,0.008774462676994294,-0.017328098584045694,0.005431237505850874,0.4499393335645523,0.09818133518306149,1.0258426993235314
55.6363,2322.8188,-0.13284057158367718,0.009686625671880826,-0.02242604098021203,-0.008884456152924061,-0.0028494492233925193,-0.0129164789310688,0.5458458666807743,0.1654336001128383,0.9466021177542268
55.6447,2322.8388,-0.13144630726748988,0.00879096710487353,-0.0017913436311950276,-0.032446411215820564,0.008384910273435419,-0.020339560522300133,0.5458458666807743,0.1654336001128383,0.9466021177542268
55.668,2322.8588,-0.12249716320135418,0.021667137255063827,0.009903557243854472,-0.03918706553911557,0.008199675687075421,-0.006292846762781131,0.5370413576175179,0.09499752760678741,0.8761660452481759
55.6857,2322.8789,-0.11212654032132907,0.03679794083544042,0.00945592784538217,0.0005480775603942383,0.008480820483153866,-0.001134284902619302,0.5370413576175179,0.09499752760678741,0.8761660452481759
55.7071,2322.8989,-0.09979071844657757,0.05381006655263463,-0.002226142114211932,0.03844988397533839,0.016605271802707013,-0.013130428501305925,0.6314206561305344,-0.04996808428908965,0.867361536184917
55.7257,2322.919,-0.08708610078675377,0.07397317650621493,-0.020223018914687835,0.024528055492685445,0.018840643941483503,-0.004951039581540882,0.6365865279637662,0.09135889037676274,0.8673615361849195
55.7462,2322.9391,-0.07435186102895627,0.09632176805964324,-0.03714570042804652,-0.012623671265725129,0.009386829874198938,0.016075008512421343,0.8481200149495403,0.083626786262963,0.9906246630705063
55.783,2322.9591,-0.06291486690852018,0.12251253353876443,-0.04589702166216694,-0.03901428295602863,0.001711936351770882,0.012311961338785624,0.8481200149495403,0.083626786262963,0.9906246630705063
55.7929,2322.9792,-0.053415838928732876,0.12817526596805234,-0.04169685104528892,-0.031575989272519464,0.010518285819844275,0.009518290613014421,0.947665185295785,0.07998814903293844,0.9818201540072503
55.8084,2322.9992,-0.047875714514391175,0.12439551257751122,-0.024652148665273238,-0.00860409097181939,0.010973472225444845,0.0053255833970918,0.9352220390025041,0.08044297868668897,0.840948008995151
55.8304,2323.0193,-0.04682130457954008,0.11256376620395533,0.001205916998074874,-0.004045720511916642,-0.003889564095333176,0.0005376913684930575,0.9440265480657605,0.15087905119273987,0.911384081501202
55.8483,2323.0394,-0.05001290594893627,0.09586505798301684,0.029260986155206573,-0.01072622658616501,-0.012723612689320133,-0.0019460606382515277,0.9440265480657605,0.15087905119273987,0.911384081501202
55.8662,2323.0594,-0.05506241026145798,0.08003757807168033,0.05249734044206136,0.00037100575641522266,0.0015742460513217462,-0.007210276607172432,0.9440265480657605,0.15087905119273987,0.911384081501202
55.8898,2323.0795,-0.05853063657322058,0.06869255552358564,0.06564885852886387,0.007012873162592829,0.0155891853007426,-0.00037621667227293997,1.0347672093487525,0.0768043414566643,0.8321434999318946
55.9113,2323.0996,-0.058598419350353974,0.06363956723899333,0.06652417388919787,0.02509174721416044,0.009310177713283465,-0.0015674667485315076,1.0399330811819842,0.21813131612251918,0.8321434999318946
55.9244,2323.1196,-0.05359382094494108,0.06646420704258563,0.05629050465280937,0.028530830873398517,0.00875284698718807,0.0029043434046963344,1.0435717184120088,0.1472404139627152,0.9025795724379456
55.9486,2323.1397,-0.04230607025380808,0.07321907254292143,0.038785202288075374,0.016116505792816947,0.00963824634253556,0.00790090229809425,1.1394782515282325,0.21449267889249451,0.8233389908686383
55.9682,2323.1597,-0.026867424528662875,0.08273985436071793,0.018943313395335074,0.024405297122666557,0.013658576981332417,0.0028444727430661926,1.2478279309377334,0.28129011416851835,0.8849705543114306
55.9886,2323.1798,-0.010729836158554575,0.09210171217344862,0.0012394810131016731,0.029823868118049438,0.005677144944395473,-0.0019900831835678082,1.2390234218744771,0.21085404166246996,0.8145344818053822
56.0109,2323.1999,0.0015843267910001244,0.10109197033699183,-0.011650597601038037,0.023862810333058256,-0.005341317335533998,0.00456311291221381,1.2566324400009896,0.3517261866745693,0.9554066268174816
56.0249,2323.2199,0.006604417106676125,0.10736026706070323,-0.019305540951604222,-0.008182395811196671,-0.007622966489573413,0.003922144652408755,1.2441892937077088,0.3521810163283223,0.8145344818053797
56.0458,2323.24,0.002373142522336524,0.10992120340335862,-0.023180777173226724,-0.023555723974657564,-0.017009591797260533,0.007421937005053109,1.0450989530152157,0.35945829078837155,0.8321434999318921
56.0687,2323.26,-0.010541120201427476,0.10423376978883314,-0.025254993611342536,0.010303942595554692,-0.010032259235562512,-0.001189753309717817,1.1446441233614641,0.3558196535583469,0.8233389908686357
56.0934,2323.2801,-0.030347527885450677,0.09118816309680594,-0.02667341431481912,0.0543644680397178,-0.0008380556822576342,-0.006350956522598624,1.1446441233614641,0.3558196535583469,0.8233389908686357
56.1171,2323.3002,-0.054748390418635474,0.07798041734602443,-0.02689417401350233,0.030685177837993682,-0.009482377296050552,-0.006885390222738277,1.0399330811819842,0.21813131612251918,0.8321434999318946
56.13,2323.3202,-0.08046958153610487,0.06725157701239873,-0.023924308004752926,-0.02448105001770164,-0.015242200141613151,-0.003770354916158219,1.0399330811819842,0.21813131612251918,0.8321434999318946
56.148,2323.3403,-0.10191840645694777,0.05918106472256262,-0.015818943668410024,-0.0412212511357827,-0.012903809086261589,0.007256412234663894,1.1394782515282325,0.21449267889249451,0.8233389908686383
56.1684,2323.3604,-0.11454364357231797,0.04934400753685302,-0.002252943817365627,-0.02837331582991006,-0.003000326639280533,0.01656013696180676,1.134312379695001,0.07316570422663958,0.8233389908686383
56.1878,2323.3804,-0.11507113321467657,0.033936066765784124,0.01466848429622157,-0.007755054879224463,-0.001164239033795751,0.013012800260220822,1.0435717184120088,0.1472404139627152,0.9025795724379456
56.2071,2323.4005,-0.10339392953955537,0.017194339085608724,0.030752013610097967,0.023670069064231906,0.0132467525138552,0.015486867306995824,1.0435717184120088,0.1472404139627152,0.9025795724379456
56.2239,2323.4205,-0.08166603899516726,0.006582806320537628,0.04103536226721827,0.023919393225662913,0.005461345805303266,0.028451506902640634,1.0435717184120088,0.1472404139627152,0.9025795724379456
56.2575,2323.4405,-0.05712925076294258,0.00931489892258102,0.041187206749791774,-0.004552996928232989,-0.0030077754258639655,0.02226457838389048,0.9440265480657605,0.15087905119273987,0.911384081501202
56.2753,2323.4606,-0.028492769713927675,0.019778571292502926,0.028814070361580568,-0.03416391207362695,-0.0010550965890156994,0.019683096326543748,0.9352220390025041,0.08044297868668897,0.840948008995151
56.286,2323.4806,-0.0030303003899726758,0.03405352663232993,0.00417559753252697,-0.02162746700898157,0.004536463928147403,0.013390513699034514,0.9440265480657605,0.15087905119273987,0.911384081501202
56.307,2323.5006,0.015192151766249724,0.053342849562092225,-0.029196191190191123,0.003178324253288262,0.010542794026306054,-0.00700337064418591,0.9352220390025041,0.08044297868668897,0.840948008995151
56.3232,2323.5205,0.022024388604878722,0.07098150557890423,-0.06453566452576673,-0.01111591623575883,-0.003631129886070677,-0.0031813332598263767,1.0435717184120088,0.1472404139627152,0.9025795724379456
56.3451,2323.5405,0.017188158813106123,0.08759161940722143,-0.09324356466018063,-0.0319552536065696,-0.0011358288525568706,0.0030047148080174562,1.0347672093487525,0.0768043414566643,0.8321434999318946
56.3671,2323.5605,0.002517050075202725,0.10000992265967854,-0.10703489587850223,-0.0410207393300712,-0.006429714640569643,0.02070441937788147,1.0347672093487525,0.0768043414566643,0.8321434999318946
56.3844,2323.5805,-0.016587082556736576,0.10286418222731042,-0.10056017018664992,-0.05310483497248035,-0.019382479779842813,0.021296962837838617,0.9440265480657605,0.15087905119273987,0.911384081501202
56.4094,2323.6005,-0.036519006463384275,0.10492596822348263,-0.07367169052688963,-0.08477436503346425,-0.0009387202677139541,0.00940999515153637,0.9491924198989918,0.29220602585859223,0.9113840815011994
56.4265,2323.6205,-0.05324589316025378,0.09269327579086184,-0.031348802978315826,-0.0920612161959184,-0.009743529567347154,0.006986994257328251,0.9491924198989918,0.29220602585859223,0.9113840815011994
56.4492,2323.6405,-0.06573481344745237,0.08018142244207194,0.016772689193878768,-0.08226870212805762,-0.011403417024460934,0.014351085637835772,0.9491924198989918,0.29220602585859223,0.9113840815011994
56.4643,2323.6605,-0.07315644084138898,0.05987927806794543,0.05995978139274027,-0.04464977434931188,-0.011051994794495071,0.009297297435526689,0.9491924198989918,0.29220602585859223,0.9113840815011994
56.4863,2323.6805,-0.07608717102724886,0.044637001312561424,0.08903659127926597,-0.010405178148906942,-0.005815225191255566,0.012798850689983696,0.8372041032594664,0.2962994927423724,0.7793164455523561
56.507,2323.7005,-0.07424404970856477,0.03455898866598362,0.09939996624620696,-0.001991162714116928,-0.006993101712935464,0.01812117641872209,0.8372041032594664,0.2962994927423724,0.7793164455523561
56.5274,2323.7205,-0.06867919297002797,0.03215365786395293,0.09169063238838716,0.01340914598168333,-0.011440632146533406,0.020643668265345003,0.8335654660294418,0.36719039490217387,0.7088803730463077
56.5511,2323.7405,-0.06157152109644257,0.036682134476743226,0.07093234120660377,0.011026460616909714,-0.004872115064722321,0.011774886285926994,0.8247609569661855,0.296754322396123,0.6384443005402568
56.5721,2323.7605,-0.054954872835168075,0.04493406505930033,0.044344256444148675,0.008067916838097832,-0.006490465295217387,-0.00010767914584362418,0.8299268287994171,0.43808129706197785,0.6384443005402568
56.5851,2323.7805,-0.05119092539527908,0.05182076014507523,0.01884443935263247,-0.0022694031296859444,-0.020809025037487598,0.006828513094189641,0.9294719991456619,0.4344426598319533,0.6296397914770008
56.6096,2323.8005,-0.052325877009631074,0.05566715700344462,-0.0008839568322059344,0.0022719088576312646,-0.019248529138949925,0.009030520810910027,0.8299268287994171,0.43808129706197785,0.6384443005402568
56.6386,2323.8206,-0.058127603537510876,0.05336793388041052,-0.013062609535356623,0.01417000332304197,-0.004123773415664264,0.012365668844071488,0.7179385121598879,0.4421747639457531,0.5063766645914138
56.6465,2323.8406,-0.06342573481811838,0.04891854574417032,-0.018456981332148126,0.03365684323778042,-0.008289054097756677,0.012363027491352511,0.7091340030966315,0.3717386914397022,0.43594059208536295
56.6692,2323.8606,-0.07122009242734677,0.04151844150985912,-0.01916694586060222,0.029192897928095683,-0.0189306165752346,0.021830516087071948,0.7003294940333755,0.3013026189336538,0.36550451957931457
56.685,2323.8807,-0.07710307062033617,0.036721371157847925,-0.017445804249483027,0.014406665167565573,-0.002830478659475465,0.007578657266379072,0.6878863477400945,0.3017574485874069,0.22463237456721274
56.7078,2323.9007,-0.08186788360015956,0.03437348862480522,-0.014838187962206428,0.01644317180604534,-0.0011784255516372982,0.0091361749196691,0.6878863477400945,0.3017574485874069,0.22463237456721274
56.7269,2323.9207,-0.08486082068284807,0.03509236341076303,-0.011942079274538026,0.02298472815720214,-0.004445974742382945,0.015050163657458317,0.5795366683305936,0.23496001331138303,0.16300081112442039
56.7445,2323.9407,-0.08620833359376456,0.03757145279940372,-0.008550209442135831,0.008324455259409886,-0.0026081579247209607,0.008116612770144027,0.5795366683305936,0.23496001331138303,0.16300081112442039
56.7668,2323.9608,-0.08590757756589597,0.03997752136243302,-0.004001851856697436,0.007939550455052284,-0.006917396359581771,0.01247396430554954,0.5795366683305936,0.23496001331138303,0.16300081112442039
56.7972,2323.9808,-0.08332054211919257,0.03996626658403143,0.0024501830719166617,0.023804958299989187,-0.01009413360008656,0.019729760224579004,0.5883411773938497,0.30539608581743144,0.2334368836304688
56.8174,2324.0008,-0.07654279603911837,0.039390424524951624,0.011229356496081172,0.030619219599695637,0.003489956797565062,0.007906185003532204,0.6790818386768384,0.23132137608135847,0.15419630206116436
56.8265,2324.0209,-0.06670745548064118,0.03895818637671513,0.022045622930605566,0.022754916708836583,0.005935533670692597,0.0012332475844903002,0.6878863477400945,0.3017574485874069,0.22463237456721274
56.8471,2324.0409,-0.05589118987631968,0.03763637783749053,0.033519984592127364,0.003921795578615055,-0.001159435371079599,0.013280457335743812,0.7874315180863428,0.2981188113573822,0.21582786550395638
56.8712,2324.0609,-0.04445295561111728,0.036159997412698326,0.04300753474720796,0.008056281596703572,-0.004763547226371462,0.012903624347836444,0.7874315180863428,0.2981188113573822,0.21582786550395638
56.8873,2324.0809,-0.03406754906769908,0.03465074435755263,0.04699280315846227,0.012329054126093518,0.011078633008748106,-0.007802820067129575,0.7962360271495992,0.3685548838634331,0.28626393801000727
56.9113,2324.101,-0.025776149027162278,0.03454065783586472,0.042114305286901674,0.023791196361561327,0.008055770892490554,-0.008825023569373628,0.8994198347258686,0.29402534447360457,0.3478955014528022
56.9255,2324.121,-0.023047566195740877,0.03846995911977693,0.026559296812531163,0.02059148234671963,0.0008280587737570141,-0.0003313136760503328,0.8994198347258686,0.29402534447360457,0.3478955014528022
56.9457,2324.141,-0.025185260428640277,0.04470185004485922,0.001369261221542975,0.024286498498595495,0.0028581879887639187,-0.0010770555937081358,1.021739895031861,0.572585826921534,0.4799631374016451
56.969,2324.1611,-0.03185608463991017,0.05085802371592552,-0.029078734187208632,0.026358080380202004,0.002350843041615988,0.0017694421864426053,1.021739895031861,0.572585826921534,0.4799631374016451
56.996,2324.1811,-0.04228017644253387,0.054704663795452226,-0.05767352503963752,0.03463850054553423,0.012414204364273821,-0.012807303018684421,1.0129353859686048,0.5021497544154832,0.4095270648955942
57.0152,2324.2011,-0.057610754101436575,0.05776954953173622,-0.07641687125168203,0.02549307210514852,-0.0015092231588119131,-0.013343497620636729,1.0129353859686048,0.5021497544154832,0.4095270648955942
57.0274,2324.2211,-0.07595584719388697,0.05591416281241383,-0.07885420531189133,-0.014017406323457002,-0.015193050587656073,0.00354707256631404,1.0253785322618858,0.50169492476173,0.550399209907696
57.046,2324.2412,-0.09336188248454627,0.050228077417415425,-0.06258259301576494,-0.04582019791705279,-0.011865383336422387,0.0033287207415452825,1.021739895031861,0.572585826921534,0.4799631374016451
57.069,2324.2612,-0.10577042482121526,0.03855058572532153,-0.030329990344483443,-0.03244245910131846,-0.0006934728105476876,0.004355326498320962,1.021739895031861,0.572585826921534,0.4799631374016451
57.0887,2324.2813,-0.10990862066209757,0.01855583099679673,0.010651914051445763,0.0112613844539578,0.0067872756316623584,0.0026842306781149293,1.021739895031861,0.572585826921534,0.4799631374016451
57.1096,2324.3013,-0.10449604189640667,-0.0028092332694333727,0.05074563623779976,0.03337246672755981,0.012035933820478444,0.0007481191351048822,0.9309992337488687,0.6466605366576071,0.5592037189709499
57.1264,2324.3214,-0.09054356334357377,-0.015576099431259177,0.08089193433758307,0.040040070351447465,0.01221676281157961,0.006662107872894097,1.021739895031861,0.572585826921534,0.4799631374016451
57.1485,2324.3414,-0.07052208114398897,-0.016040015697488072,0.09486321438656406,0.035158486998930205,0.0067840959914416375,0.016183303973899395,0.9309992337488687,0.6466605366576071,0.5592037189709499
57.1687,2324.3615,-0.047980818163812375,-0.0024895663618912725,0.09027940034726037,0.014833642235814777,0.003635337886518174,0.009734001085064198,0.8226495543393679,0.5798631013815834,0.49757215552815753
57.1867,2324.3815,-0.027614563007224077,0.019353805612854623,0.06873001997740007,0.013259382253489991,0.0032612580279198972,-0.007910235077701304,0.9133902156223563,0.5057883916455078,0.41833157395885057
57.2139,2324.4016,-0.013411944949581475,0.04086545927778663,0.035350007983945664,0.03324457114302331,-0.009137230855813536,0.001124071672105923,0.8050405362128552,0.4389909563694815,0.3567000105160557
57.228,2324.4216,-0.009554859117957075,0.06101827542498992,-0.002124216318339131,0.04607174942120117,-0.0018298046303907103,-0.0025905507016818837,0.8102064080460869,0.5803179310353364,0.3567000105160557
57.2479,2324.4416,-0.015700323984039876,0.07211229978940234,-0.03463903695490314,0.036537818362735085,0.001978746901880595,-0.007805461419848554,0.8050405362128552,0.4389909563694815,0.3567000105160557
57.2707,2324.4617,-0.03167076848083478,0.07396309226543124,-0.054039366413757145,0.0273537512542786,-0.006763789965771241,-0.010919616275522286,0.7962360271495992,0.3685548838634331,0.28626393801000727
57.2885,2324.4817,-0.05539116944390458,0.06660078883095033,-0.05536599056746783,0.0061241202366976895,-0.012900838106418526,0.008277735286001618,0.8102064080460869,0.5803179310353364,0.3567000105160557
57.3185,2324.5017,-0.08406073614316757,0.05230195878134002,-0.03875089577665283,-0.009809336223294173,-0.015778489786353406,0.016611203114373647,0.8138450452761116,0.5094270288755324,0.4271360830221066
57.3296,2324.5217,-0.10930600631370056,0.026939576435060723,-0.009728950868317932,-0.009182620865453751,-0.02358476692363004,0.013066507765506684,0.9009470693290753,0.5062432212992609,0.27745942894674874
57.3613,2324.5418,-0.1306473472312631,0.0023530450996746277,0.021907330562488475,-0.0032099278390683075,-0.014293222712546495,0.0004302763579213315,0.9009470693290753,0.5062432212992609,0.27745942894674874
57.3711,2324.5618,-0.14354044961883777,-0.018683881258457276,0.045620110024000474,0.021895102931416586,0.00942702345133263,0.003925666456034059,0.9045857065591,0.43535231913945693,0.3478955014527996
57.3876,2324.5818,-0.14792168989141768,-0.029885055268879773,0.05356686572429617,0.04334917944928766,0.011239635594301184,0.009837894292010622,0.9953263678420924,0.3612776094033839,0.2686549198834949
57.412,2324.6019,-0.14397706233839727,-0.030092662748887673,0.043344787442214275,0.04539375790421767,0.014186263233741229,0.004023396506636203,1.0004922396753237,0.5026045840692362,0.2686549198834924
57.4267,2324.6219,-0.1336760600344702,-0.014811957651770277,0.01843927562182336,0.03603607548194014,0.01625480385552109,0.008334964594912782,1.0041308769053483,0.43171368190943227,0.33909099238954327
57.4477,2324.6419,-0.11934508786067127,0.00715082968071163,-0.013486755004336326,0.02339013642986165,0.03055729143889313,0.012096250866735849,1.0004922396753237,0.5026045840692362,0.2686549198834924
57.4678,2324.6619,-0.10397269663390046,0.03179254003673363,-0.043800728766077435,0.011787340852605493,0.012824926820843912,0.013063866412787709,1.00929674873858,0.5730406565752871,0.33909099238954327
57.4872,2324.682,-0.08992853929792277,0.053177793002034825,-0.06597816207132792,-0.019978934906957235,-0.005465279255657948,0.015377691394611447,1.0305444040951173,0.6430218994275825,0.5503992099076935
57.5143,2324.702,-0.07907908266520466,0.07013571721966014,-0.07746142994660912,-0.0334727115256756,0.00021450779459513344,0.013116693467167245,1.1300895744413655,0.6393832621975578,0.5415947008444372
57.5555,2324.722,-0.07254156208715477,0.08229968866421802,-0.07952367168025593,-0.035722716460676505,0.014554468314587935,0.009464583107728557,1.1300895744413655,0.6393832621975578,0.5415947008444372
57.5674,2324.7421,-0.06783855773855417,0.07526903396072593,-0.07535194576171164,-0.02248459781236387,0.004999417501089033,0.01736486909018838,1.1300895744413655,0.6393832621975578,0.5415947008444372
57.5859,2324.7621,-0.06555759939896898,0.06793259644204583,-0.06855964887858304,-0.011227727402008687,0.0028543807839304727,0.02070089757425617,1.1300895744413655,0.6393832621975578,0.5415947008444372
57.6146,2324.7821,-0.06405607948348448,0.07065595365820113,-0.06094093487259014,-0.034410166502960124,0.014074867976318942,0.010646148224017543,1.021739895031861,0.572585826921534,0.4799631374016451
57.6181,2324.8021,-0.06373892537461577,0.06078735398837002,-0.051938750126344524,-0.0930936774262601,0.022276780589919144,0.016722139928570676,1.0341830413251418,0.5721309972677785,0.6208352824137444
57.6293,2324.8222,-0.06550053781683148,0.05934701410200322,-0.040490942545127945,-0.10048575431809448,0.019950165455244237,0.010432198653780417,0.9258333619156374,0.5053335619917548,0.5592037189709523
57.6464,2324.8422,-0.07160267106910667,0.06047402357414442,-0.025391245528366135,-0.061620368018597674,-0.005676744148781422,0.0233924359948936,0.9221947246856127,0.5762244641515588,0.48876764646490145
57.6749,2324.8622,-0.08491583688419227,0.06064809686776653,-0.00653359975215613,-0.024629761844546738,-0.013941894756373988,0.02183755969432255,0.9221947246856127,0.5762244641515588,0.48876764646490145
57.6904,2324.8822,-0.09946591993230357,0.04843856539770893,0.015129460324285665,-0.0178737393359695,-0.015483714687756035,0.022534876812132443,0.8226495543393679,0.5798631013815834,0.49757215552815753
57.7098,2324.9022,-0.11591976895883327,0.03260775113515383,0.03752475365244687,-0.0018558867202995092,-0.019960893762396112,0.03193809249169011,0.8138450452761116,0.5094270288755324,0.4271360830221066
57.7256,2324.9222,-0.12941342590420757,0.01587830692756132,0.05843483704007677,0.025640516723027158,-0.01318966621578279,0.02086378099192641,0.8050405362128552,0.4389909563694815,0.3567000105160557
57.7468,2324.9422,-0.13920315269820457,0.0012183669120014243,0.07567531139774036,0.015739068807733264,-0.01110124953813392,0.012204546328213897,0.8050405362128552,0.4389909563694815,0.3567000105160557
57.7648,2324.9622,-0.1420546678921576,-0.010389556171983873,0.08723742929391097,-0.00273707301703221,-0.007390384136257716,0.023822096037180506,0.6966908568033509,0.37219352109345777,0.2950684470732637
57.7871,2324.9822,-0.13882564899364339,-0.01943510092769187,0.09114774221744107,0.009941645062195463,-0.010450639502436338,0.03657014470986922,0.6878863477400945,0.3017574485874069,0.22463237456721274
57.8145,2325.0022,-0.13124275815049938,-0.028368968523193174,0.08568046634807866,0.042363078265683494,-0.006449173874532117,0.03371220106793624,0.5795366683305936,0.23496001331138303,0.16300081112442039
57.8243,2325.0222,-0.11319625327900147,-0.028029576449652573,0.06993634165444397,0.053067311093118755,-0.00813531125505002,0.0375386407068274,0.5795366683305936,0.23496001331138303,0.16300081112442039
57.8451,2325.0422,-0.09901059423423947,-0.025558331335496676,0.04425457271320207,0.06784334727166298,-0.025537021826696264,0.04528484778068024,0.5707321592673372,0.16452394080533211,0.09256473861836949
57.8674,2325.0622,-0.08685191894658127,-0.015661860743907574,0.011080861358414074,0.05794463961352266,-0.03511668309181876,0.04829334852759489,0.5707321592673372,0.16452394080533211,0.09256473861836949
57.89,2325.0822,-0.07823464695762868,-0.0012987038442732746,-0.02511931955885202,0.03988489151696037,-0.03661466786431713,0.045986567153021754,0.5707321592673372,0.16452394080533211,0.09256473861836949
57.9098,2325.1022,-0.07603192624880337,0.012650511057688323,-0.05823187393167614,0.06610197193389175,-0.04924802452886609,0.04232389138270717,0.5619276502040809,0.0940878682992812,0.022128666112318576
57.9302,2325.1223,-0.08712625562061227,0.02041723108237773,-0.08151106600509872,0.10048514259376973,-0.07168265924984223,0.05178609727298865,0.5707321592673372,0.16452394080533211,0.09256473861836949
57.9485,2325.1423,-0.10950887973918877,0.02407436523184083,-0.08920354972862443,0.1096959219057331,-0.13728642475413533,0.1136404147950827,0.4711869889210889,0.16816257803535678,0.10136924768162586
57.9678,2325.1623,-0.1405579880188592,0.023692843592757522,-0.07846317560690394,0.06496849540341824,-0.1749858367726541,0.15779678864912539,0.47482562615111357,0.0972716758755528,0.17180532018767677
57.9892,2325.1824,-0.17041603918209627,0.02129222809096453,-0.05072948337773442,0.04014130486450268,-0.14943336108397864,0.13015151064140715,0.47482562615111357,0.0972716758755528,0.17180532018767677
58.0125,2325.2024,-0.18750307251088538,0.01738206135970443,-0.01185399736920234,0.03778371539998609,-0.13897407680011134,0.09917372595324637,0.47482562615111357,0.0972716758755528,0.17180532018767677
58.0316,2325.2224,-0.18618540539348188,0.01057339736263243,0.02927887501113917,0.03919894661275428,-0.07203222709796582,0.052868171436862836,0.3840849648681234,0.17134638561162832,0.2510459017569839
58.0491,2325.2424,-0.17941391096760517,0.000509425588576029,0.06324136989746376,0.050409962163659706,-0.06423410269072244,0.05146297179036715,0.4836301352143699,0.1677077483816037,0.2422413926937277
58.0656,2325.2625,-0.17501716481127708,-0.009801652557660273,0.08341554760216527,0.09753846278990988,-0.09707609768072092,0.0914328015848315,0.4960732815076505,0.16725291872785064,0.38311353770582446
58.0884,2325.2825,-0.1826052798650611,-0.020502116289640472,0.08750015767438626,0.11862557535841317,-0.13241919713269468,0.12240794492027325,0.39652811116140396,0.17089155595787525,0.3919180467690807
58.1107,2325.3025,-0.1836169394364754,-0.017632671930312774,0.07766917785369676,0.07622148768332475,-0.10451189853340205,0.09632282591856402,0.40169398299463577,0.3122185306237276,0.3919180467690832
58.1267,2325.3225,-0.16761452776122798,-0.001040850094405174,0.05837549524311427,-0.0006984301185751777,-0.035131240948601455,0.044365657034476286,0.29698294081515736,0.17453019318789986,0.4007225558323369
58.1506,2325.3426,-0.14286917487937228,0.02203889220520202,0.034293977147929075,-0.042849965875632404,0.024756472994940767,-0.01979368096037825,0.29698294081515736,0.17453019318789986,0.4007225558323369
58.1689,2325.3626,-0.11927639618411986,0.03704909526277903,0.009843428306618968,-0.0033448533951022786,0.04449737283918174,-0.025391587822796564,0.19743777046890904,0.17816883041792456,0.40952706489559326
58.1868,2325.3826,-0.10308712312484347,0.04107883606406893,-0.010975899537599837,0.05035776730183565,-0.004151661585314839,-0.0016704795045716066,0.19743777046890904,0.17816883041792456,0.40952706489559326
58.2167,2325.4027,-0.09513183749309256,0.03395564363769942,-0.024672532472706232,0.05031019589120138,-0.038722232870389,-0.0017778945151433352,0.19743777046890904,0.17816883041792456,0.40952706489559326
58.2361,2325.4227,-0.08973202954127567,0.030006734998334027,-0.02908775978078243,-0.006524547578092776,-0.01633018062474226,0.005479662305698783,0.09789260012266247,0.18180746764794917,0.41833157395884946
58.2766,2325.4427,-0.08190358976114667,0.04110679128088513,-0.024455599688486623,-0.04782218028836789,0.003328757693056814,-0.004686904309643195,-0.0016525702235840984,0.18544610487797378,0.42713608302210565
58.2776,2325.4627,-0.08089112728351176,0.025480323894916425,-0.013713560543487824,-0.06516385617092346,0.026435350632612247,-0.016085221742934717,-0.0016525702235840984,0.18544610487797378,0.42713608302210565
58.2941,2325.4828,-0.07874094756702588,0.01679092159024003,-0.0026557127420151344,-0.05317084286244857,0.005689457100411456,-0.010709188508910462,-0.0016525702235840984,0.18544610487797378,0.42713608302210565
58.3082,2325.5028,-0.08144645713508476,0.002841553351637327,0.0032548727592022625,0.01139541613314589,-0.006180470934832916,0.002630523172829066,0.0019860670064405814,0.1145552027181698,0.4975721555281566
58.3295,2325.5228,-0.08812898678027717,-0.012868428013336375,0.0011419523501533663,0.06540380062905674,0.00437660503245392,-0.022486099831922006,-0.09392046610978144,0.047302937788392924,0.5768127370974612
58.3475,2325.5429,-0.09742754873702507,-0.020300901467422472,-0.007752673670491428,0.05295578787504051,-0.048767496999675954,0.00445833925436106,-0.30545395309555695,0.05503504190219528,0.45354961021187695
58.3658,2325.5629,-0.10596255790148126,-0.018012525811245475,-0.01862472638839352,0.01636410007166997,-0.06601099942664031,0.01413713606759864,-0.3142584621588133,-0.015401030603855632,0.38311353770582607
58.3867,2325.5829,-0.11067291093675558,-0.009620036129395576,-0.025459140536342822,-0.004553493990623262,-0.04147175192498613,0.017370151795626333,-0.41380363250505986,-0.011762393373831021,0.39191804676908226
58.4148,2325.6029,-0.11018768007270927,-0.0013020292223035745,-0.02365357313570332,0.01580797497935741,-0.015420000165140741,0.0009118830036814471,-0.3142584621588133,-0.015401030603855632,0.38311353770582607
58.4342,2325.623,-0.10546191267453978,0.0026057624840437263,-0.011761564812441727,0.035146272586194724,-0.015263619310442315,-0.016412749480087852,-0.41380363250505986,-0.011762393373831021,0.39191804676908226
58.4493,2325.643,-0.09991279515582598,0.0026368748526031244,0.008120896171148168,0.011504159498795857,-0.036440524009633185,-0.004419247234120205,-0.3142584621588133,-0.015401030603855632,0.38311353770582607
58.4684,2325.663,-0.09480101048572247,-0.0008122765771824761,0.031233794582627872,0.01319744683874949,-0.04731422529000412,-0.0015657058467188575,-0.41380363250505986,-0.011762393373831021,0.39191804676908226
58.4862,2325.683,-0.09080351115383717,-0.005095383361220472,0.05161266403925997,0.035401324627926174,-0.012683202976590622,-0.028565613340100438,-0.4226081415683162,-0.08219846587988193,0.3214819742630313
58.5152,2325.703,-0.08608568568841637,-0.010744624257128771,0.06382898160630146,0.04245800047829177,0.006510203826334099,-0.03996657212611094,-0.32670160845209434,-0.014946200950102545,0.24224139269372422
58.5313,2325.723,-0.08851747296814387,-0.009673392643629576,0.06430742073860647,0.03195833850585616,-0.015147091953150777,-0.017862852122806156,-0.32670160845209434,-0.014946200950102545,0.24224139269372422
58.5591,2325.743,-0.09392859150706687,-0.007989034584080477,0.052548379578058066,0.03669734419468195,-0.026125046442544476,-0.015285772319991054,-0.22715643810584604,-0.018584838180127225,0.23343688363046786
58.5761,2325.763,-0.10477948972368327,0.00026130859817102836,0.03104470384739097,0.04838439123450735,-0.02481867012394122,-0.015440731679504365,-0.22715643810584604,-0.018584838180127225,0.23343688363046786
58.5884,2325.783,-0.11794003041399197,0.011558552442051527,0.0048970082471843646,0.04961122817590897,-0.01622397459272831,-0.012050115239244385,-0.22715643810584604,-0.018584838180127225,0.23343688363046786
58.6202,2325.8031,-0.13206608414602478,0.01647265919133733,-0.019562726429245836,0.03915093066749218,-0.02664635466006263,-0.0011862315060925134,-0.12761126775959947,-0.022223475410151836,0.22463237456721163
58.6313,2325.8231,-0.1466317511149285,0.02396418547669133,-0.03672139490848242,0.0278019332543945,-0.028828333964844056,-0.0036620594546801694,-0.028066097413352878,-0.025862112640176446,0.21582786550395544
58.6492,2325.8431,-0.16118401884166908,0.02595745800681242,-0.04312149697579462,0.006664953059279388,-0.014654175525764937,-0.012595994801166271,-0.028066097413352878,-0.025862112640176446,0.21582786550395544
58.6695,2325.8631,-0.17611624041578197,0.021170335466439823,-0.038671124778845434,-0.0036887869951348655,-0.013844095961078958,-0.005169391406309636,-0.019261588350096514,0.04457395986587446,0.2862639380100064
58.6866,2325.8832,-0.19027866974567018,0.010077737428327231,-0.02653640335125082,0.017549855504416435,-0.031474955964668566,0.006342504193897894,-0.015622951120071832,-0.02631694229392952,0.35670001051605726
58.716,2325.9032,-0.2019027859552659,-0.003639913832616075,-0.012050307453879222,0.028024640747209145,-0.022786674022326908,0.010215607730824314,-0.024427460183328198,-0.09675301479998043,0.2862639380100064
58.7269,2325.9232,-0.2068534418948948,-0.012796660758857374,-0.0008897583338299264,0.013404942239286293,0.009305737914290313,-0.0018342433731481733,-0.015622951120071832,-0.02631694229392952,0.35670001051605726
58.7465,2325.9433,-0.20447757997709237,-0.014423306494199276,0.0026608158245874647,-0.005471966267965211,0.020800469856278262,-0.004892929821723389,-0.015622951120071832,-0.02631694229392952,0.35670001051605726
58.7777,2325.9633,-0.1939568261761531,-0.008056925950993075,-0.0029188204127873346,-0.009854861607799666,0.013177307137602616,-0.0027983371155747313,-0.02078882295330365,-0.16764391695978192,0.35670001051605477
58.7883,2325.9833,-0.18398169042182327,0.0019513743898359262,-0.01604178245857002,0.014872949416717716,0.0235097953337417,-0.011891634076105774,-0.029593332016559698,-0.2380799894658303,0.2862639380100064
58.8194,2326.0033,-0.1683335418251743,0.01631038380886702,-0.03206994308610303,0.019797979176879074,0.020740033415032593,-0.010603534400151384,-0.025954694786535018,-0.3089708916256343,0.35670001051605726
58.8318,2326.0234,-0.15464317199904587,0.030149180700874932,-0.04522330780715014,-0.007972350635289435,0.007497394917684472,4.816066457601088e-05,-0.034759203849791385,-0.37940696413168523,0.2862639380100063
58.847,2326.0434,-0.1394177446832842,0.04138356312261123,-0.050117776945311526,-0.03742177940110281,0.01073196479117747,-0.0012372976586593994,-0.034759203849791385,-0.37940696413168523,0.2862639380100063
58.8675,2326.0634,-0.12245408482860366,0.04726361583154693,-0.04377004585736233,-0.01876832370740706,0.015229610340743494,-0.00027232346532651684,-0.034759203849791385,-0.37940696413168523,0.2862639380100063
58.8893,2326.0834,-0.10405577438639697,0.045610411738112026,-0.026537526651059545,0.0043415564554852674,0.010068651643882098,0.006344265095710546,-0.025954694786535018,-0.3089708916256343,0.35670001051605726
58.9165,2326.1035,-0.08445256312045717,0.040457907477515424,-0.0021316058710777325,-0.014135488714523671,0.0033922902838106083,0.00838779164929232,-0.13794301142606263,-0.30487742474185664,0.22463237456721166
58.9371,2326.1235,-0.06615766331938157,0.03197778300905523,0.023426151659530367,-0.031947433418014294,0.01182673265588562,0.004777942933357262,-0.13430437419603797,-0.3757683269016606,0.2950684470732625
58.9524,2326.1435,-0.05207670026791637,0.022013100995872024,0.043357181155871366,-0.02101966036703028,0.011858917063757708,0.003379786894112171,-0.13430437419603797,-0.3757683269016606,0.2950684470732625
58.9819,2326.1636,-0.045142407223574876,0.01542117691271002,0.052003188975661266,-0.0019888664981393676,-0.02039473198511498,0.0029008216010710302,-0.038397841079816065,-0.30851606197188125,0.21582786550395547
58.9884,2326.1836,-0.04489981102629738,0.010898795168237128,0.04663330615979287,0.025772917329525784,-0.03653046136379381,0.004293694934878171,-0.029593332016559698,-0.2380799894658303,0.2862639380100064
59.0131,2326.2036,-0.051563057755645875,0.01019967582945993,0.028381700779771868,0.027633342919262994,-0.013687056645896098,-0.004897332076255019,-0.029593332016559698,-0.2380799894658303,0.2862639380100064
59.0274,2326.2236,-0.06377364568973307,0.015829217603526423,0.0021714331167043688,0.0042067512601769,0.0022902100814151515,-0.012750073709773256,0.0611473292664305,-0.31215469920190586,0.20702335644069927
59.0485,2326.2437,-0.07949256462778177,0.02330884823013562,-0.024574227119413927,0.019554573870983485,-0.012967209032132162,-0.0063535978753176,0.06995183832968686,-0.24171862669585492,0.2774594289467502
59.072,2326.2637,-0.09864435303888958,0.030254839547096422,-0.04423086301118104,0.02235848359787077,-0.01738593121703391,-0.0005391000899431804,0.07511771016291836,-0.10039165203000504,0.27745942894675013
59.0884,2326.2837,-0.11929317169624197,0.03377875781254002,-0.051353738958302836,0.005523504960290309,-0.01893576031767756,0.0039811348631325705,0.06631320109966231,-0.17082772453605344,0.20702335644070174
59.1149,2326.3038,-0.14062187009423868,0.03439497725638673,-0.04454497005273833,-0.023746256437499346,-0.029533851499994806,0.01737191269743898,0.0714790729328937,-0.029500749870201057,0.20702335644069925
59.1295,2326.3238,-0.1571699276930334,0.026813050669266432,-0.02677016880425992,-0.01725155719547037,-0.021556257563763018,0.011180581924157199,0.08028358199615006,0.04093532263584985,0.27745942894675013
59.1559,2326.3438,-0.16933099040849228,0.017481545887817328,-0.004520000675300631,0.0011348225255415733,-0.011855219795667457,4.728021366968447e-05,0.0766449447661255,0.11182622479565131,0.20702335644070174
59.1684,2326.3639,-0.17697148296096588,0.005539417994453726,0.01483628171632427,0.009100875130829814,-4.679895336152165e-05,-0.004948398228821904,0.08028358199615006,0.04093532263584985,0.27745942894675013
59.1895,2326.3838,-0.17925485406043068,-0.0033135992853743773,0.02565633809733507,0.008849725551930298,0.000394004415442334,-0.007970105739331445,0.17982875234239662,0.03729668540582524,0.26865491988349394
59.2232,2326.4038,-0.17705129576251527,-0.009373733066160975,0.025978682561337868,0.009114722547752724,0.015943980382021744,-0.004472074288499743,0.28817843175190133,0.10409412068185145,0.3302864833262885
59.2308,2326.4238,-0.1729299675491188,-0.007585865444129675,0.017828890015403664,0.029321374615471362,0.009587196923770837,0.004569276068558089,0.27937392268864497,0.033658048175800544,0.2598504108202376
59.249,2326.4438,-0.16423628844576038,-0.002892888430612771,0.006188233222952269,0.035957079663116155,-0.0014671626950708133,0.000909241650962471,0.28817843175190133,0.10409412068185145,0.3302864833262885
59.2675,2326.4638,-0.1514240445991994,0.004818360697993726,-0.003479364934676335,0.0049550283935790975,0.003996427148632744,0.001933206055019172,0.17102424327914026,-0.03313938710022567,0.19821884737744302
59.2875,2326.4838,-0.1365931176820536,0.012606871300638721,-0.007424152866761027,-0.02657619033026828,0.03583667735785371,-0.006884509771831951,0.17102424327914026,-0.03313938710022567,0.19821884737744302
59.3152,2326.5038,-0.12248346138281237,0.018187217214495628,-0.004915165673569227,-0.008522217834178659,0.022638457326570688,-0.012426067776245428,0.17619011511237206,0.1081875875656267,0.19821884737744555
59.3419,2326.5238,-0.11297200726836806,0.01965257279847373,0.0018686043495804716,0.02846952235017147,-0.013717621198628304,0.004569276068558089,0.18499462417562842,0.1786236600716776,0.26865491988349643
59.3486,2326.5439,-0.10839209157290416,0.019228769220349724,0.009117601473608863,0.008086549100256957,-0.003901407197944385,0.005961268951458901,0.19016049600885981,0.31995063473753,0.26865491988349394
59.37,2326.5639,-0.10554655893322767,0.021492467144273532,0.013083887210850867,-0.014450883350080806,0.012489133199353524,-0.005865828073213205,0.18135598694560376,0.2495145622314816,0.19821884737744555
59.3885,2326.5839,-0.10557926802809227,0.02575493047175032,0.011486309433961173,0.0012645435275465814,0.016662548220372605,-0.010271604408466625,0.2809011572918521,0.2458759250014569,0.18941433831418916
59.414,2326.604,-0.10873811599084907,0.03157142125872902,0.004275509846600661,0.027220359892543525,-0.011520920859651887,0.01032302274139604,0.2845397945218768,0.17498502284165293,0.2598504108202401
59.4306,2326.624,-0.11463854053166417,0.03880495473912383,-0.006427522716648731,0.02042707285964802,-0.015157217122815841,0.011344345792733768,0.2845397945218768,0.17498502284165293,0.2598504108202401
59.4527,2326.644,-0.12274399436205218,0.04646266996382343,-0.01709997254192394,-0.004703364653602647,-0.006030717228821207,0.00795725115609909,0.2809011572918521,0.2458759250014569,0.18941433831418916
59.4693,2326.664,-0.13192796467924328,0.050924136265571025,-0.023990048766122735,-0.00793212668320348,-0.008070813465627873,0.006936808555667693,0.27209664822859575,0.175439852495406,0.11897826580813826
59.4906,2326.6841,-0.14354692093162807,0.05035873084310432,-0.02443258137454013,-0.007459900684178785,-0.012843005473430313,0.014248072881795672,0.2684580109985711,0.24633075465521,0.04854219330208736
59.5179,2326.7041,-0.158200646539691,0.04420317175409023,-0.017737459399007727,0.007212007455007728,-0.016407740359938222,0.00817032027542989,0.16010833158906637,0.17953331937918376,-0.013089370140707185
59.5402,2326.7241,-0.1724786210954869,0.03212069646520053,-0.005539548378834136,-0.0028727013801310235,-0.023815411041048225,0.015106512515463152,0.16010833158906637,0.17953331937918376,-0.013089370140707185
59.5616,2326.7442,-0.18343416157140127,0.01705165091351233,0.008335633169311768,-0.024019214945441875,-0.018287519563535047,0.01656630011815104,0.15130382252581032,0.10909724687313538,-0.08352544264675558
59.593,2326.7642,-0.18836281350085207,0.0031686326243818286,0.018837083453450268,-0.010005810436008504,0.002809716511931919,-0.00022037686185330456,0.16010833158906637,0.17953331937918376,-0.013089370140707185
59.6044,2326.7842,-0.18835212825106137,-0.008641734517826571,0.02117925543956857,0.017219008643128145,0.010468269145025104,-0.007803700518035901,0.15130382252581032,0.10909724687313538,-0.08352544264675558
59.6123,2326.8042,-0.18299191373792978,-0.012154411172307075,0.01257963572156337,0.020066793157038403,0.005170545256307177,0.0057983855337886605,0.15130382252581032,0.10909724687313538,-0.08352544264675558
59.6279,2326.8243,-0.1728193469126167,-0.0052350299903103775,-0.006512705896891527,-0.012251756321721244,-0.012667850573770003,0.015537933459562713,0.15130382252581032,0.10909724687313538,-0.08352544264675558
59.6475,2326.8443,-0.15883493433744827,0.00921016057331852,-0.03214251665499612,-0.017453420250597238,-0.0072911620047779735,0.0030029539062048044,0.14249931346255396,0.038661174367084467,-0.1539615151528065
59.6734,2326.8643,-0.14327044665680358,0.026740501922457728,-0.05769972637397172,0.01070393913146453,0.010267713051716193,0.0018715744915763777,0.14249931346255396,0.038661174367084467,-0.1539615151528065
59.6869,2326.8844,-0.1310259255584079,0.04266761904825143,-0.07577285805775133,0.01203597890790922,0.002004031263273716,-0.00043784823571573313,0.24204448380880228,0.03502253713705979,-0.16276602421606287
59.7095,2326.9044,-0.12563627653151957,0.05950521612275803,-0.08060196244465492,-0.038721196243402735,-0.018613369947221868,0.010055365665873051,0.1336948043992979,-0.03177489813896394,-0.2243975876588549
59.7295,2326.9244,-0.12655679399063197,0.06990368169434244,-0.07005934139713302,-0.06359003403637511,-0.03672407229100101,0.034738806824711914,0.22443546568228986,-0.10584960787503953,-0.30363816922816217
59.7501,2326.9444,-0.1315016509737245,0.06968368166139532,-0.04671208251984604,-0.04534672760339877,-0.016637620827190204,0.01758234046405081,0.22443546568228986,-0.10584960787503953,-0.30363816922816217
59.7689,2326.9645,-0.13773227902401577,0.055816660990046625,-0.016926606746488937,-0.012560540694573656,-0.009628125556589274,-0.0030659941910977213,0.22807410291231453,-0.17674051003484353,-0.23320209672211126
59.7891,2326.9845,-0.14437541738192408,0.03441430088051312,0.01132689196925657,0.0314676497636163,-0.009942601891069661,0.002151557879787926,0.22807410291231453,-0.17674051003484353,-0.23320209672211126
59.8072,2327.0045,-0.15040512508786028,0.015188613784532325,0.031186658075597867,0.025273880317105677,-0.014902757463154621,0.017426500653631175,0.21926959384905817,-0.24717658254089442,-0.30363816922816217
59.829,2327.0246,-0.15501472025635987,0.005115716154579529,0.03861938237873237,-0.025361209238921194,-0.010023473911369566,0.01887660329634948,0.22443546568228986,-0.10584960787503953,-0.30363816922816217
59.8545,2327.0446,-0.15700243090252458,0.004576501894133528,0.03283725596093527,-0.04834747347522544,-0.01005358780180357,0.008761102833574383,0.22443546568228986,-0.10584960787503953,-0.30363816922816217
59.8786,2327.0646,-0.15629946447796017,0.005448482789298527,0.015977580164227567,-0.019016877722261873,-0.005068821778095019,-0.0016220547047236982,0.3239806360285365,-0.10948824510506415,-0.31244267829141836
59.888,2327.0846,-0.15526391527402109,0.003625615768617828,-0.007440793364308029,0.010181822611490867,-0.016509219108073105,0.00010627042439350144,0.31517612696528013,-0.17992431761111508,-0.3828787507974693
59.9115,2327.1047,-0.15287361154951828,0.005296087530670526,-0.03110095521547654,0.007519400888623986,-0.01208859289100816,-0.010924018530053913,0.31517612696528013,-0.17992431761111508,-0.3828787507974693
59.9297,2327.1247,-0.1497923457029668,0.011712285659735928,-0.048016973458618745,-0.00928224051330525,-0.005431724106442033,-0.009418447480237097,0.20682644755577745,-0.24672175288713885,-0.4445103142402615
59.9606,2327.1447,-0.14292075530974888,0.026284734161034627,-0.05222745233768722,-0.02241659498598318,-0.009706559887865484,-0.0035018173897289058,0.1980219384925211,-0.31715782539318976,-0.5149463867463124
59.9702,2327.1647,-0.13645572617718899,0.03538203473722993,-0.04063064620580514,-0.0250269670335867,0.007250463731306374,-0.005381580074734111,0.2031878103257529,-0.17583085072733737,-0.5149463867463099
59.9903,2327.1847,-0.1281172520901868,0.04608193619980953,-0.014321304178439243,-0.01589574987384689,0.00519020100922482,-0.005328753020354573,0.2031878103257529,-0.17583085072733737,-0.5149463867463099
60.0224,2327.2046,-0.12119590660774597,0.05716914337819872,0.021335416472638563,-0.005960469098557643,-0.01548755278846119,0.011508990112216656,0.29909434344197483,-0.108578585797558,-0.594186968315617
60.0332,2327.2246,-0.11743074568211297,0.06349494108981293,0.05786876074635427,-0.007119774012087621,-0.018041992096701015,-0.0005426218935684834,0.3078988525052309,-0.0381425132915096,-0.5237508958095686
60.0497,2327.2446,-0.11847276446005807,0.07175100487784333,0.08552784316282427,-0.015871839073605367,-0.01598851258884295,-0.0032341603142059146,0.3130647243384627,0.10318446137434277,-0.5237508958095661
60.0678,2327.2646,-0.12502782145139937,0.08029619180389652,0.09609641088837717,-0.0021227683482042746,-0.017785946785634228,-0.006619494049027938,0.2098809167621914,0.1777140007641714,-0.5853824592523608
60.0929,2327.2846,-0.13649724387727008,0.08667504511839264,0.08532003745800266,0.029020915618462057,-0.01417647505230359,-0.009791758664519161,0.2098809167621914,0.1777140007641714,-0.5853824592523608
60.1156,2327.3046,-0.1522057714588768,0.09130072665238342,0.05451127247013367,0.030947105101718275,-0.0012769591862538444,-0.0073150502650251815,0.20624227953216673,0.24860490292397538,-0.6558185317584118
60.1281,2327.3246,-0.17009237807349298,0.09761213953730144,0.010697282712336068,0.03728546667312588,-0.007990066614993033,-0.009202737008187318,0.20624227953216673,0.24860490292397538,-0.6558185317584118
60.1495,2327.3446,-0.1854870903916571,0.10039678347783543,-0.034868674046900944,0.032372929710927964,-0.017320362312576342,-0.01920553975495273,0.20624227953216673,0.24860490292397538,-0.6558185317584118
60.1677,2327.3646,-0.1976611551816793,0.09722822247466203,-0.07020893336469283,-0.010557977220419372,-0.01747761776335502,-0.0050073884395457225,0.30578744987841333,0.24496626569395077,-0.6646230408216679
60.2018,2327.3846,-0.2047795179890212,0.08507389036106652,-0.08631141815719942,-0.00655240856133847,-0.0025030684907078027,-0.007477933682695422,0.3145919589416697,0.3154023382000017,-0.594186968315617
60.2158,2327.4046,-0.2103923938636661,0.06780315414963914,-0.08056263746778003,0.013159821820252321,-0.0036552254379814725,0.0007507604878238587,0.2150467885954231,0.3190409754300263,-0.5853824592523608
60.2341,2327.4247,-0.21208779247122378,0.05631207431947113,-0.05791801151974563,0.017303818314199443,-0.008993253486404491,-0.019586774997391726,0.2150467885954231,0.3190409754300263,-0.5853824592523608
60.2714,2327.4447,-0.20231393288736188,0.06635683714124552,-0.02988539677062152,-0.004989701711456981,-0.01509141369165589,-0.01243399183440236,0.2150467885954231,0.3190409754300263,-0.5853824592523608
60.2761,2327.4647,-0.19594715690719988,0.08299239903051464,-0.011165193448444521,-0.025383429751859424,-0.0035412380148754407,-0.0049519200324472075,0.21868542582544775,0.24815007327022232,-0.5149463867463099
60.2886,2327.4847,-0.18054890961814987,0.11078033742557422,-0.013720881392067619,0.07295340029152797,0.04646340233222381,-0.12795619435157482,0.22385129765867914,0.3894770479360747,-0.5149463867463124
60.3098,2327.5048,-0.16116743626171037,0.13026300730126422,-0.041533762531501844,0.26520850591095624,-0.06603575271235024,-0.09326818954415787,0.13311063637568718,0.4635517576721503,-0.43570580517700513
60.3335,2327.5248,-0.1458564810315034,0.16091398281708783,-0.08850626234051223,0.2727371623258512,-0.10174650139319072,-0.03507302598875312,0.23629444395196017,0.38902221828232164,-0.37407424173421056
60.3481,2327.5448,-0.12764435960939347,0.22981273491918092,-0.1397526721667607,0.0643578295816339,-0.038811163346928794,-0.01646381563265474,0.23629444395196017,0.38902221828232164,-0.37407424173421056
60.3684,2327.5649,-0.09744886652909797,0.31320644865905883,-0.17615611225640895,-0.15481627354139038,0.03490601166887702,-0.0480332633298663,0.24509895301521623,0.45945829078837,-0.30363816922816217
60.3897,2327.5849,-0.05702478607721358,0.3899785827361039,-0.18222623805914542,-0.2827474143551577,0.06335688515873843,-0.049220111151593235,0.2487375902452409,0.388567388628566,-0.23320209672211129
60.4122,2327.6049,-0.021828507251792275,0.43716365570671606,-0.1514115797950343,-0.2192214591793456,-0.02152547343476475,-0.1630756201030913,0.2487375902452409,0.388567388628566,-0.23320209672211129
60.4305,2327.6249,-0.015480213639424374,0.43636563915080795,-0.08904069844077753,-0.16896304458672373,0.0030018433062100848,-0.1392541403815452,0.23993308118198484,0.3181313161225176,-0.30363816922815967
60.4501,2327.645,-0.03581864905830338,0.411331941188857,-0.013630918023181643,-0.2661492717940889,-0.12267797435271152,0.08357301634406265,0.23112857211872848,0.2476952436164667,-0.3740742417342106
60.4681,2327.665,-0.07396337202659467,0.3727467137948424,0.051238841694827675,-0.13365683404338377,-0.10245847234707016,-0.09197216581004657,0.2274899348887038,0.3185861457762707,-0.4445103142402615
60.4885,2327.685,-0.11539463577379197,0.33975825991831854,0.08416486971441407,-0.04390890388907182,-0.034415031112574615,-0.15996146524741756,0.3270351052349504,0.31494750854624604,-0.45331482330351774
60.5124,2327.7051,-0.15344792247595998,0.32139450232338873,0.07439278165126277,-0.022689446559139664,-0.01919937247311736,-0.18302575718952363,0.42294163835117227,0.38219977347602546,-0.5325554048728248
60.5282,2327.7251,-0.21066759786493208,0.3235505439730729,0.024868124564040875,-0.023435429408062248,-0.017877235264498033,-0.15043674734278695,0.5188481714673961,0.4494520384058022,-0.6117959864421296
60.5491,2327.7451,-0.26530004427704296,0.34550669044273724,-0.047847012066622036,0.03803223309456422,-0.08322593524348634,-0.08756110676935519,0.6059501955203602,0.4462682308295333,-0.7614726405174849
60.572,2327.7651,-0.3101261662006137,0.38364188478164934,-0.12041867537572562,0.07192374908280094,-0.13460380733759236,-0.030013074630099747,0.6023115582903357,0.5171591329893348,-0.8319087130235333
60.6019,2327.7852,-0.3305177729130207,0.4328744644688938,-0.17062458600189742,0.023371586864651378,-0.13759110508278904,0.00505264361613087,0.701856728636584,0.5135204957593101,-0.8407132220867897
60.6124,2327.8052,-0.3071028925192927,0.4835634027432421,-0.1845855107406443,-0.0367111892823578,-0.11853331425886246,0.011720298329734815,0.6894135823433029,0.5139753254130631,-0.9815853670988915
60.6319,2327.8252,-0.2566207837758034,0.5380060049266272,-0.16293033947747984,-0.07785281379695581,-0.10319631037564647,-0.001938136580094585,0.6857749451132782,0.5848662275728671,-1.0520214396049423
60.6485,2327.8453,-0.18580983452263147,0.592808720302061,-0.11672187340187853,-0.05447273827761166,-0.11831570622089337,-0.008822382216654642,0.7765156063962666,0.5107915178367917,-1.1312620211742495
60.6694,2327.8653,-0.10324699845022167,0.6578302213693991,-0.06271589919426962,-0.04506413013397451,-0.1744168410717961,-0.004198254056632482,0.8636176304492345,0.50760771026052,-1.2809386752496026
60.6899,2327.8853,-0.008959790606994675,0.7261096009812036,-0.012778891502840034,-0.06953136321268473,-0.17223470570147792,-0.04582861426042694,0.8599789932192098,0.578498612420324,-1.3513747477556535
60.7099,2327.9053,0.09382470858315373,0.7863334565371146,0.03193309329406477,-0.004729418358363525,-0.12229914686690824,-0.10386441620178677,0.9558855263354336,0.6457508773501008,-1.4306153293249584
60.7285,2327.9254,0.1963288722915549,0.8290462162344866,0.08165390360971647,0.13810080822713652,-0.09207733418290782,-0.07648151256415353,0.9522468891054089,0.7166417795099047,-1.5010514018310093
60.7501,2327.9454,0.2876874174725031,0.8462361880988459,0.15159555440065758,0.21825830326433068,-0.16372737388535458,0.012904504798742783,0.9574127609386403,0.8579687541757572,-1.5010514018310117
60.7682,2327.9654,0.3681736008612494,0.8521719975565634,0.24767206123664948,0.09365083048528672,-0.2741471561177063,0.09987192352196259,0.9625786327718721,0.9992957288416096,-1.5010514018310093
60.788,2327.9855,0.4297242147421142,0.8452070236987144,0.3590171762360196,-0.09008440649045997,-0.29206905192367966,0.10433052691159554,1.0533192940548604,0.9252210191055341,-1.5802919834003162
60.8108,2328.0055,0.4660730624347316,0.8278651773759163,0.45147706253200703,-0.18251168557305503,-0.28436728458444005,0.06222560366929156,0.9449696146453597,0.8584235838295102,-1.6419235468431086
60.8283,2328.0254,0.4757912075575798,0.7904894702135555,0.4756036015619912,-0.08262444713297051,-0.23787937706376408,-0.007154808200073934,0.941330977415335,0.9293144859893143,-1.7123596193491595
60.8483,2328.0454,0.4435843285867877,0.7610530696635475,0.3811023237210842,0.08031861229870445,-0.18721490161036453,-0.038292834953185924,0.941330977415335,0.9293144859893143,-1.7123596193491595
60.8723,2328.0654,0.3723483490957435,0.7647892549626267,0.14133191356025626,0.1668195731710912,-0.16530721463127043,-0.047601842385766764,0.9288878311220541,0.9297693156430649,-1.8532317643612588
60.8881,2328.0854,0.27242079425139903,0.852686295615818,-0.23263611074676013,0.18391631099149844,-0.09331331206801265,-0.0922451055910075,1.0372375105315552,0.9965667509190912,-1.791600200918464
60.9182,2328.1054,0.1616468883806488,0.9885414292983751,-0.6809157087746943,0.17040113702763227,-0.07250470377894186,-0.05238885396345916,1.1243395345845224,0.9933829433428196,-1.941276854993822
60.9305,2328.1254,0.05782324389731932,1.1981301562244977,-1.1234549038649495,0.11319600131419152,-0.062205789486467926,-0.002638095050623469,1.1243395345845224,0.9933829433428196,-1.941276854993822
60.9586,2328.1454,-0.029278963747892676,1.4175480439728951,-1.4676974574491213,-0.029543173064251405,-0.0850791845140113,0.06496732779158956,1.1155350255212664,0.9229468708367713,-2.0117129274998704
60.9683,2328.1654,-0.06647155067749508,1.5826944706087658,-1.6376112369108833,-0.19001758868034263,-0.10125450944274107,0.10987648717054066,1.1207008973544976,1.0642738455026235,-2.0117129274998726
60.9901,2328.1854,-0.06320137143279907,1.702307260948386,-1.6055435132163698,-0.2916947484165834,-0.08025178733266664,0.09637301162022457,1.1030918792279854,0.9234017004905242,-2.152585072511972
61.0125,2328.2054,-0.012952016289349076,1.7398260787531235,-1.3746936300789814,-0.3050951235910528,-0.04389478872842203,0.0755617935474058,0.9999080716517122,0.9979312398803504,-2.2142166359547644
61.0283,2328.2254,0.07215849398241843,1.6816815155507356,-0.9877005411877241,-0.2646559252134031,-0.038021201707224714,0.044686141164378815,0.9999080716517122,0.9979312398803504,-2.2142166359547644
61.0518,2328.2454,0.17350156622636473,1.5854619737262312,-0.5243146631441583,-0.23284517403918514,-0.05171519231348115,0.021451922197351925,0.9822990535251999,0.857059094868251,-2.3550887809668635
61.0724,2328.2654,0.2729974839211412,1.455175648496371,-0.05833442665334024,-0.2211967083843146,-0.05386746707451696,0.03603306965701058,0.9734945444619435,0.7866230223622002,-2.4255248534729144
61.0899,2328.2854,0.35614674220588033,1.313185509672569,0.34259728584298466,-0.1927203661159166,-0.05447672892733284,-0.0024813747892975103,0.969855907231919,0.8575139245220043,-2.4959609259789652
61.1188,2328.3054,0.4260678259984676,1.1907679241129066,0.6311806726700059,-0.14393252943893578,-0.029464035511486367,-0.11338121004826043,0.9574127609386384,0.8579687541757574,-2.636833070991062
61.1334,2328.3254,0.430018890488294,1.0717515003860805,0.7962170005639265,-0.008028764008950137,-0.00028391207160112936,-0.24020399994812228,0.854228953362369,0.9324982935655858,-2.698464634433857
61.1524,2328.3454,0.3848347568549884,0.9752791245347906,0.8461280753671708,0.09608523793956808,0.006708103516544654,-0.24547349862248113,0.841785807069088,0.9329531232193389,-2.8393367794459587
61.1734,2328.3655,0.28053454765043884,0.9078978883256221,0.8124675660311208,0.15572687682739844,0.01836121461918758,-0.21428088391317693,0.9413309774153327,0.9293144859893143,-2.8481412885092148
61.192,2328.3855,0.12093741792867334,0.880571456233781,0.7354012699334035,0.1779353947687025,0.030519358149619834,-0.16243113003966095,0.8205381517125511,0.862971880367041,-3.0506449969641065
61.2209,2328.4055,-0.054107331521279375,0.8535277788760561,0.6577561222503977,0.24132033408250328,0.059328872660026316,-0.13064773277221223,0.8168995144825264,0.9338627825268451,-3.1210810694701574
61.2379,2328.4256,-0.24189288645323717,0.8645927675829388,0.6066378858598223,0.26133222511914805,0.06724400095318418,-0.07428038529833947,0.916444684828771,0.9302241452968205,-3.1298855785334134
61.2578,2328.4456,-0.4102115303258176,0.8561853407180225,0.6047160346984487,0.23204131181070595,0.12190669448564741,-0.004732687756772119,0.9128060475987464,1.0011150474566217,-3.200321651039462
61.2754,2328.4656,-0.5423874199191886,0.8209604106465886,0.6580052738774945,0.15981692702610645,0.12930161620885158,0.08448340258120333,1.0123512179449947,0.9974764102265974,-3.2091261601027186
61.2915,2328.4856,-0.6207679284405057,0.7368195812662486,0.7641200231150534,0.08135681083543489,0.15767068668347906,0.16392560740805803,1.0123512179449947,0.9974764102265974,-3.2091261601027186
61.3177,2328.5057,-0.6434536939484832,0.5983430834571727,0.9103784004687302,-0.051301262577987526,0.25890609937609976,0.19722338023438682,1.007185346111763,0.8561494355607449,-3.209126160102721
61.3301,2328.5257,-0.601964523529731,0.36904668619504466,1.076909272643498,-0.20924033750630727,0.385703499949542,0.22545415809481162,1.1155350255212642,0.9229468708367712,-3.147494596659926
61.3524,2328.5457,-0.5394133072727918,0.10742315349549833,1.2241903801989162,-0.33124697888279275,0.5440403689376582,0.2931124079914042,1.1243395345845202,0.9933829433428196,-3.0770585241538773
61.3693,2328.5658,-0.4958187424992101,-0.19089982606268036,1.3046477969522692,-0.17356265327859324,0.45615497377125414,0.3847127593837094,1.1155350255212642,0.9229468708367712,-3.147494596659926
61.3896,2328.5858,-0.5167617716595303,-0.44560381779975744,1.2639158402860817,-0.07035640980794056,0.0655349215364756,0.47103304669077994,1.119173662751289,0.8520559686769673,-3.077058524153875
61.4114,2328.6058,-0.5794125580515407,-0.6147933929664953,1.0606727475822972,-0.10227778363653946,-0.1507160690923157,0.574189316228609,1.1228122999813135,0.7811650665171657,-3.006622451647827
61.4295,2328.6258,-0.6153201789624831,-0.6753978751375171,0.6863963637444396,0.03825941737165251,0.14585153897322006,0.28521212200894436,1.2311619793908177,0.8479625017931895,-2.9449908882050346
61.4505,2328.6459,-0.6204526803780109,-0.6267757233416487,0.17976538601598718,0.4412725472796323,0.5966365782370575,0.07631545952322051,1.135255446274594,0.7807102368634102,-2.8657503066357273
61.4778,2328.6659,-0.5994761213961435,-0.5027016805294289,-0.36822396889392517,0.5931081643608015,0.6775315148864117,-0.06518532743599584,1.1513372297978999,0.7093645050498556,-2.654442089117577
61.49,2328.6859,-0.6403739490981302,-0.21830697719809378,-0.8368526497292536,0.4779412575162514,0.4971762601300106,-0.0855228629212114,1.0678738429749604,0.6416574104663256,-2.434329362536171
61.5177,2328.7059,-0.6761176446667785,0.049785267114894526,-1.1193886680129592,0.19282215582336962,0.03905344658695662,-0.0808987347611892,1.07515111743501,0.4998756061467176,-2.293457217524069
61.5321,2328.726,-0.7088421558500332,0.28255632831468763,-1.1566160381968922,-0.1879944572222306,-0.07107945777784468,0.016128716017707205,0.9792445843187861,0.43262334121694096,-2.2142166359547644
61.5558,2328.746,-0.7025947977218443,0.44013966380973335,-0.9560829529245428,-0.4038935915803747,0.10581746735700251,0.12466630149499848,0.8957811974958466,0.3649162466334084,-1.9941039093733606
61.5756,2328.766,-0.6363411398238432,0.4692249438645642,-0.5891957421360253,-0.3740100407574404,0.24044587394047712,0.15020994318931746,0.799874664379623,0.29766398170362907,-1.9148633278040532
61.5999,2328.7861,-0.5138441356580985,0.41815913798111043,-0.18071145961162186,-0.18410175890559705,0.25814212875522363,0.10444498552941787,0.7039681312633992,0.23041171677384978,-1.835622746234746
61.6118,2328.8061,-0.357980819150679,0.32507112194115445,0.13401609081420518,0.02452449678078556,0.20513217424628444,0.07066912786095432,0.7164112775566801,0.22995688712009926,-1.6947506012226468
61.6299,2328.8261,-0.19296181497269208,0.26521705047499183,0.2517153654880463,0.216133739536531,0.23227611629224787,0.005703296835905501,0.6028957263139476,0.021832477178220407,-1.756382164665439
61.6522,2328.8461,-0.04785177896260038,0.27534906702807405,0.13541227818388557,0.3480400592136023,0.3009366737088182,-0.009197454302749352,0.5106278304277485,-0.11631068991136034,-1.6067055105900834
61.6749,2328.8662,0.04950195083987302,0.3815927434724025,-0.18124647483504183,0.38864842902922264,0.299013632233781,0.027529674803717718,0.42352580637478454,-0.11312688233509136,-1.457028856514728
61.689,2328.8862,0.08380999513480113,0.5880633826701377,-0.6142414919264901,0.3486358175922179,0.24040274073774356,0.043453509895522956,0.4271644436048091,-0.18401778449489278,-1.3865927840086796
61.7135,2328.9062,0.06085636412816652,0.7897506818435135,-1.0553206615082968,0.2943776462612646,0.18014737009011647,0.05845815424112423,0.4432462271281147,-0.2553635163084474,-1.1752845664905294
61.7283,2328.9262,-0.0064494759564053756,0.9868290838845101,-1.4156317718648503,0.2541256671113614,0.11289153689089153,0.08217662120663019,0.3597828403051717,-0.3230706108919823,-0.9551718399091227
61.7531,2328.9462,-0.11294279674040326,1.1068718291638218,-1.630808016494127,0.21866676308779506,0.05151030470236025,0.08814871970423692,0.36706011476522094,-0.4648524152115877,-0.8142996948970235
61.7773,2328.9662,-0.23905189346389127,1.1598157804263944,-1.681140715971013,0.19417995471186145,0.02733583769489156,0.07808780719765401,0.2747922188790236,-0.6029955823011686,-0.6646230408216679
61.7893,2328.9862,-0.3608108789365336,1.1587271152411478,-1.5751255695277881,0.13441578425607204,0.004882474048576252,0.09847112612999853,0.187690194826058,-0.599811774724897,-0.5149463867463099
61.8129,2329.0062,-0.476898461535276,1.081450030542806,-1.3310094579059688,0.17781592143839967,0.05646357150719731,0.04754144345359282,0.19132883205608256,-0.6707026768846985,-0.4445103142402615
61.8317,2329.0262,-0.5697516106918008,0.9611489933370846,-0.9772544443395995,0.3157072116322016,0.09853389305761291,-0.027382287321998787,0.09542229893985893,-0.7379549418144778,-0.3652697326709542
