AppTimestamp(s),SensorTimestamp(s),acc_x,acc_y,acc_z,gyro_x,gyro_y,gyro_z,mag_x,mag_y,mag_z,yaw_deg_ori,yaw_deg_ori_cal,yaw_deg,yaw_error,Quat_w,Quat_x,Quat_y,Quat_z,q_w,q_x,q_y,q_z,quat_angle_error_deg
0.0325,956.6478,-0.06923269907099527,-0.5144340116981112,0.002160483790330403,0.08782921135862592,0.24424644898364742,-0.40510575506865115,-0.13824551106991123,20.498487954131587,-35.53024956652732,94.446548,108.4907898747917,0.0,94.446548,0.5887432911615722,0.19955701,0.356336,0.69755501,1.0,0.0,0.0,0.0,107.86424208394094
0.0339,956.6678,-0.145951361221889,-0.4971657520275542,0.08211330378299664,0.23363587975462974,0.05754617602396735,-0.401028095312295,-0.03365974561479845,20.660642831645294,-35.45285502474559,94.154976,107.96796125916183,0.0,94.15497600000003,0.5907164537131159,0.203292,0.35563299,0.69516301,1.0,0.0,0.0,0.0,107.58426714566653
0.0365,956.6878,-0.2712236069787739,-0.5290073529289048,0.15577528327402312,0.37754733614446506,-0.13636399503352628,-0.4134621123053327,0.24203018144260113,21.095597392977993,-35.214059824721204,94.379234,107.38174412090363,0.0,94.379234,0.5924108321520796,0.20715401,0.350833,0.69502002,1.0,0.0,0.0,0.0,107.34344908669682
0.0566,956.7078,-0.41375859671166193,-0.5723010811575828,0.20575858053856422,0.5371185994227919,-0.34751998852689714,-0.45020970876230537,0.5877406378357364,21.60870123073408,-34.91134810089017,94.841034,106.84856268549812,0.0,94.84103399999998,0.5937369284188744,0.210327,0.34439,0.69615698,1.0,0.0,0.0,0.0,107.15471425100523
0.0814,956.7279,-0.5408614094377882,-0.5754399168339068,0.20780325396009403,0.7539922401499153,-0.5958108401897956,-0.504497675761212,1.0337039854802335,21.90633692542756,-34.709813953501516,94.772232,106.0105157414947,0.0,94.77223200000003,0.5970523027712554,0.21217801,0.33892199,0.69544297,1.0,0.0,0.0,0.0,106.68185038633588
0.1014,956.7479,-0.6245230530811545,-0.5375442154591308,0.14907250295080132,1.061234379174061,-0.885407294811209,-0.5621897300708655,1.5044690384855457,22.001308861540853,-34.58926466926389,94.416176,105.04887005794414,0.0,94.41617600000001,0.6014120343258352,0.212558,0.33399799,0.69395101,1.0,0.0,0.0,0.0,106.05781153352912
0.1167,956.7679,-0.6507723367345157,-0.4867906197797984,0.046920799785089784,1.4379596274147297,-1.1834634564634867,-0.6140760318487513,2.0082135617014742,22.186813677689745,-34.33938140588638,94.495712,104.0702430093212,0.0,94.49571200000003,0.605498514173321,0.21292301,0.32519799,0.69446498,1.0,0.0,0.0,0.0,105.47055376949942
0.1334,956.788,-0.5842302819351239,-0.387551290479718,-0.04354172104095966,1.789183656365266,-1.420564112574368,-0.6485034998474163,2.504381410594892,22.546018756418263,-33.87771024201704,95.263779,103.09906895476634,0.0,95.263779,0.6088455090144288,0.214232,0.31029299,0.69794703,1.0,0.0,0.0,0.0,104.98785503222935
0.1578,956.808,-0.43466456246853014,-0.23526553306716402,-0.06238544576783944,1.9782767297015602,-1.5147218225351733,-0.6379283197841773,3.0375901914069487,23.024879102680202,-33.21502404778158,96.563713,102.00993967190435,0.0,96.563713,0.6121890926635328,0.216271,0.287738,0.70402998,1.0,0.0,0.0,0.0,104.5040850294589
0.1792,956.828,-0.24239226581924633,-0.23983997862497775,0.004675026553464079,1.9007369845325357,-1.419692192566927,-0.5784169872315492,3.694580040970486,23.93509611049228,-32.128304161881815,98.387619,100.40574339202178,0.0,98.38761899999997,0.6162227097222076,0.223983,0.252951,0.71141899,1.0,0.0,0.0,0.0,103.91836325477993
0.1934,956.848,-0.01702323892555313,-0.19308181949989756,0.0986517662406996,1.6037192665377409,-1.1560666611593133,-0.43415949144197197,3.895204041477367,24.169545991390706,-31.57460193248822,99.634605,99.4188334792765,0.0,99.63460499999997,0.6188547309556579,0.227649,0.224282,0.71755999,1.0,0.0,0.0,0.0,103.53490197766907
0.2179,956.8681,0.2486090281511455,0.047762081471548146,0.10237870394733939,1.226678899423835,-0.8237625858594675,-0.23226829488687062,3.2380905738926984,23.213547397077658,-32.10959972534053,100.002342,99.45581178718074,0.0,100.002342,0.6191660288857581,0.224343,0.215455,0.72102898,1.0,0.0,0.0,0.0,103.48948194097147
0.2387,956.8881,0.47728429330603994,0.17681092288577616,-0.04620240192613778,0.8874053507520014,-0.551494475671766,-0.029705073581236308,2.310289747998425,22.179125131164295,-32.783975722617555,100.010757,99.2216191276271,0.0,100.01075700000001,0.6199435461209831,0.22566099,0.212773,0.72074598,1.0,0.0,0.0,0.0,103.37597594075751
0.2622,956.9081,0.5951111382065122,0.16270845292137426,-0.2822966928987629,0.639406080702906,-0.3968307495747237,0.16312151117414134,1.3639336490571559,21.58536444588242,-33.1795706597886,100.44281,99.09053721931106,0.0,100.44281000000001,0.6187835402619234,0.231224,0.209281,0.72100198,1.0,0.0,0.0,0.0,103.54528708868705
0.2782,956.9282,0.5715047220062757,0.1497168971735311,-0.4878087402547422,0.4612471865246755,-0.3382043615831932,0.32585634144476433,0.7115755708046905,21.279712322464615,-33.362884407015045,101.335655,99.49833277188989,0.0,101.33565499999997,0.6153327960997363,0.233969,0.203813,0.72462702,1.0,0.0,0.0,0.0,104.04778834679017
0.2948,956.9482,0.47470110386359154,0.20367351166806524,-0.5855524768828211,0.3212842643269438,-0.30302177538713404,0.42345729806851373,0.4938675871114242,21.065441124171908,-33.437673856196746,102.291962,100.26810956777929,0.0,102.29196200000001,0.6113353055580212,0.231598,0.197258,0.73056197,1.0,0.0,0.0,0.0,104.62776600050343
0.3174,956.9682,0.38214067811171626,0.3050908167767543,-0.5808015600705474,0.2111206394177978,-0.2323826453979177,0.43591909461162404,0.6006976708502485,20.850044918250955,-33.478404239044174,102.97831,101.01111948627319,0.0,102.97830999999996,0.6083733651451054,0.226146,0.19136301,0.73628801,1.0,0.0,0.0,0.0,105.05604123718983
0.3393,956.9882,0.3567023977972914,0.42619955661592857,-0.5353832924790041,0.13581320384554402,-0.1246815839595795,0.3686220313689399,0.5698810753710184,20.559922324914254,-33.59762428764649,103.565758,101.85289939706185,0.0,103.56575800000002,0.6048753164446038,0.221057,0.190008,0.74105102,1.0,0.0,0.0,0.0,105.56025945020858
0.359,957.0083,0.4202655989879882,0.43818923243516605,-0.4965715174606089,0.08867092654327849,-0.02885074650623822,0.2478863939179309,0.25317654804130996,20.542783522674423,-33.633573953735116,104.168045,102.36570935826286,0.0,104.168045,0.6013824415380611,0.222772,0.190237,0.74331802,1.0,0.0,0.0,0.0,106.0620559580834
0.3734,957.0283,0.5051700259498735,0.37869754791450283,-0.4635081605664233,0.05757841163526589,0.02408339542579188,0.10731475501799274,-0.09445329947799408,20.635540313512493,-33.66999710157521,104.385551,102.3227774233763,0.0,104.38555100000002,0.600244224748776,0.227735,0.191229,0.74247903,1.0,0.0,0.0,0.0,106.22521808363489
0.3998,957.0483,0.508619788925706,0.3102779414069412,-0.399935448591652,0.04126226547006065,0.046424732806174165,-0.034767085503412155,-0.2600821344712756,20.658356559430924,-33.76638728607871,104.513519,102.41232610868033,0.0,104.51351899999997,0.5994385443534302,0.22881401,0.191819,0.74264598,1.0,0.0,0.0,0.0,106.34060615756349
0.4185,957.0684,0.419200762738281,0.23429871013137538,-0.2939717720360875,0.04704959782432076,0.0735130965218789,-0.17011275710444626,-0.09547506550767082,20.641452388419072,-33.866332581558446,104.47139,102.45253956436277,0.0,104.47138999999999,0.5999241587398858,0.225917,0.18977199,0.74366599,1.0,0.0,0.0,0.0,106.27106778244699
0.4356,957.0884,0.33734933790900623,0.18977791117269605,-0.18722864486352542,0.06909567261513964,0.11966518151254779,-0.2862215628567466,0.06334550107611037,20.49295806681348,-34.01228956344589,104.151711,102.23288365292795,0.0,104.15171099999998,0.6018839678170202,0.223373,0.188627,0.74314201,1.0,0.0,0.0,0.0,105.99010720967557
0.457,957.1084,0.3043280236896475,0.138978851066486,-0.13198394714399875,0.08255846885329943,0.16321046400438907,-0.362422978408653,-0.02585689674008762,20.40925162136999,-34.09128200141117,103.901688,101.8281210194721,0.0,103.90168799999998,0.6036203992803255,0.225447,0.18815701,0.74122399,1.0,0.0,0.0,0.0,105.74073585820751
0.4775,957.1284,0.2860303128596282,0.07807958665474402,-0.1551151298127813,0.06435873710322793,0.170250374429734,-0.3809342141652278,-0.20372387401125636,20.4517726424847,-34.07288125707507,103.569527,101.01957487004861,0.0,103.569527,0.6063212590866165,0.231841,0.18688101,0.73736,1.0,0.0,0.0,0.0,105.35204253250018
0.4967,957.1485,0.20307366240177682,0.10087162893752699,-0.24410570652371533,0.010604430347124494,0.12400264194112748,-0.3438487498657292,-0.267228708640733,20.331261380595784,-34.13568804326563,103.063408,100.21889595573364,0.0,103.06340799999998,0.6096971303836028,0.235724,0.186249,0.733495,1.0,0.0,0.0,0.0,104.86478651862122
0.5277,957.1685,0.0832450476375115,0.18284379118788907,-0.3624550908601698,-0.06645282437618862,0.038817207918745905,-0.27445100104838177,-0.2989856252505376,20.146338948142724,-34.22244780074787,102.685234,99.71013642390999,0.0,102.68523399999998,0.6120604882841563,0.237444,0.186051,0.73101801,1.0,0.0,0.0,0.0,104.52272147341036
0.5553,957.1885,-0.057860637568706075,0.31791384583352367,-0.47100724921430626,-0.14528253408022204,-0.05984827669535921,-0.20428974467363642,-0.26095110398071597,19.88219150350304,-34.341776896206326,102.425591,99.55113206733749,0.0,102.425591,0.6134235127349779,0.236091,0.186288,0.73025298,1.0,0.0,0.0,0.0,104.32508195884107
0.5622,957.2085,-0.1676329241641339,0.4653993483365876,-0.5423943602529135,-0.2088254862947384,-0.14841399227463498,-0.15323595546308305,-0.1811648392117391,19.605410176601488,-34.454725340345945,102.162727,99.48013520193275,0.0,102.16272700000002,0.6146662035076759,0.23357099,0.18680599,0.729886,1.0,0.0,0.0,0.0,104.14465990925308
0.5798,957.2285,-0.21310528389464523,0.5652408975189974,-0.5612777727774105,-0.24568270292901803,-0.2108636488613971,-0.12701101103835755,-0.030383752186416757,19.454378081075472,-34.487643912401346,101.774391,99.14330432771612,0.0,101.77439099999998,0.6169899432727894,0.23223799,0.186115,0.728526,1.0,0.0,0.0,0.0,103.80668833356822
0.5954,957.2484,-0.21423861129333943,0.6422380523983334,-0.5288087268064654,-0.2417302332547543,-0.24035280232102313,-0.12691270343571487,0.1382898042964733,19.27828836775949,-34.53305074083957,101.414772,98.94227101524243,0.0,101.41477199999997,0.6189782467957496,0.229554,0.185812,0.72776699,1.0,0.0,0.0,0.0,103.51688205247632
0.6176,957.2684,-0.16911669968726173,0.7072750869214038,-0.45358892984757304,-0.18627405973886368,-0.23161718991141672,-0.15534355330571653,0.2740102742158719,19.033990862628627,-34.618215929444276,101.047516,98.86083528338416,0.0,101.04751599999997,0.6206806010395359,0.225722,0.186674,0.72729498,1.0,0.0,0.0,0.0,103.26829476349286
0.6425,957.2884,-0.10667201759684453,0.7231137220358397,-0.34940437445198924,-0.08330122046479589,-0.18459633378293216,-0.21109030109773522,0.4159524666895855,18.88470459892808,-34.65100754438429,100.816597,98.85362022275167,0.0,100.816597,0.6218437388664937,0.222027,0.186525,0.72747701,1.0,0.0,0.0,0.0,103.09820117049567
0.6568,957.3084,-0.024313048089971367,0.6680118658776122,-0.23970271908909346,0.042910103410470996,-0.10944822964375056,-0.27941630051587807,0.5477639077577905,18.921151654992734,-34.57944336328339,100.581619,98.5940971788003,0.0,100.58161899999999,0.6235813639809481,0.22094899,0.184669,0.72679102,1.0,0.0,0.0,0.0,102.84372214360843
0.6789,957.3284,0.0680588248100813,0.5411842927186769,-0.1499909445701224,0.16306450980360937,-0.025831349100503907,-0.33925410312360205,0.5864748644964131,19.136552293996058,-34.40677415459615,100.399521,98.12830559630426,0.0,100.399521,0.6254355137902707,0.22325499,0.181751,0.725227,1.0,0.0,0.0,0.0,102.57167969817904
0.6945,957.3484,0.13865764942495584,0.38779635225314757,-0.08949528869502643,0.25942297400287057,0.04814530100424701,-0.3746410766023196,0.5518670967268484,19.376876031482258,-34.220484814181006,100.200356,97.56388615141304,0.0,100.200356,0.6273993771405256,0.22700401,0.179052,0.72303498,1.0,0.0,0.0,0.0,102.28297428619538
0.718,957.3684,0.1631000934607325,0.23011939620088517,-0.03766975658312077,0.33113588311029596,0.10758944533600685,-0.379864688289392,0.4922269530943595,19.612235198510337,-34.04359288023831,100.043091,97.02782584361479,0.0,100.043091,0.6291115686103212,0.230921,0.17636199,0.72096503,1.0,0.0,0.0,0.0,102.03078789253058
0.7632,957.3884,0.1479900081709875,0.08807458152517467,0.04281040334858233,0.3886146522578139,0.15908656884556266,-0.3582780151472005,0.4327210096285192,19.85865535473354,-33.870676695331,99.907089,96.48496239142025,0.0,99.90708899999998,0.6307522210015276,0.23503201,0.173411,0.718916,1.0,0.0,0.0,0.0,101.78871626689984
0.769,957.4084,0.10609397881687421,0.0023710357365092083,0.18864314894531375,0.447591254343249,0.21394779877743322,-0.3224608479157202,0.3716863524532634,20.097765193438473,-33.71153240840386,99.730736,95.88873824592653,0.0,99.73073599999998,0.6325926044710449,0.239343,0.17057601,0.71655101,1.0,0.0,0.0,0.0,101.51667947324442
0.7904,957.4284,0.03793538674646868,0.005124591996173544,0.42344631559867096,0.523747956831273,0.28489967336935235,-0.2978037019114303,0.28855292188322323,20.371314557848667,-33.53773920228531,99.589905,95.27548823678649,0.0,99.58990499999999,0.6342622680863808,0.244278,0.16765,0.71409601,1.0,0.0,0.0,0.0,101.26942055577747
0.8004,957.4484,-0.05301319386693759,0.13654423404674165,0.7513420064605185,0.6277526604302504,0.3833352147718185,-0.3278941294007499,0.13545509356463725,20.687677806065793,-33.33933239336597,99.517853,94.64837353323269,0.0,99.517853,0.6355287429715977,0.25039601,0.164984,0.71146703,1.0,0.0,0.0,0.0,101.08157723053648
0.813,957.4684,-0.17771127332414327,0.395989367411993,1.1533545058288368,0.7617037982930681,0.5231169651759727,-0.46299939740292545,-0.14417363040471898,21.093840138982248,-33.08254560739038,99.782272,94.2537445025267,0.0,99.78227200000003,0.6349439790787843,0.257734,0.162276,0.70999002,1.0,0.0,0.0,0.0,101.16834075201912
0.8354,957.4884,-0.357927311310001,0.7512777064840386,1.580679235771477,0.9200884048407,0.7162247290113424,-0.727495239397139,-0.5615703041388755,21.533824200032395,-32.80030123341878,100.593834,94.43456580547002,0.0,100.59383400000002,0.6312114140911426,0.26462299,0.159659,0.71137601,1.0,0.0,0.0,0.0,101.72088974484748
0.8527,957.5084,-0.4039105501146141,1.082512229464602,1.9730996100790996,1.1127641237799735,0.9364547464779239,-1.1066364491207468,-0.8345523822463221,22.100265576091402,-32.434964007561966,100.475494,93.0157001868053,0.0,100.47549400000003,0.6334366356375354,0.27840999,0.15554,0.70502001,1.0,0.0,0.0,0.0,101.39174227621105
0.872,957.5284,-0.31084077764908624,1.2757772434534194,2.2723393450549274,1.3490700087269798,1.1840967952957502,-1.5492562741099563,-0.9272384602118358,22.780884882673256,-31.980154982780803,99.907249,90.49403597525678,0.0,99.90724899999998,0.6388836161797543,0.29730001,0.14879601,0.69375801,1.0,0.0,0.0,0.0,100.58275229228697
0.8999,957.5484,-0.0830197198559155,1.3072142150070678,2.4357010909264254,1.654507150424759,1.4646099771400332,-2.0349076376551287,-0.8627758583525456,23.35641385416004,-31.553919297511836,99.117607,87.24112561778101,0.0,99.11760700000002,0.6457730114922423,0.31929001,0.14072201,0.679138,1.0,0.0,0.0,0.0,99.55268403198777
0.9201,957.5684,0.2398813775254105,1.1809483238201413,2.4472710135215685,2.0702561998820803,1.7898221042413773,-2.58264020818715,-0.6089232809411236,23.607851653277233,-31.27792109930524,98.226112,83.44741740812681,0.0,98.226112,0.6532094622423038,0.34321001,0.131686,0.66195399,1.0,0.0,0.0,0.0,98.43195813540899
0.9427,957.5884,0.6345971736785927,0.9026097354987966,2.3152757443382512,2.6188934887556736,2.1717966309418286,-3.228449306733231,-0.21805151677616053,23.3556052416384,-31.25762272780174,97.383949,79.16007843485683,0.0,97.38394900000003,0.6602785157427277,0.36958101,0.122173,0.64227402,1.0,0.0,0.0,0.0,97.35776511192418
0.9619,957.6084,1.0710667148026847,0.39572070843033536,2.057884145101468,3.295248541109353,2.611738296091366,-3.963251698245574,0.40082132389478886,22.654923472636344,-31.459104921880375,96.632362,73.94748958682571,0.0,96.632362,0.6672301814757782,0.40105999,0.109318,0.618065,1.0,0.0,0.0,0.0,96.29270572173489
0.9743,957.6284,1.5185950111410094,-0.4626827629724447,1.657436918520192,4.05408869970968,3.0895870302057715,-4.710071974114568,1.2748240041779262,21.72160391255905,-31.789060202160485,96.041985,67.21683134856642,0.0,96.04198500000001,0.674058487487206,0.44131801,0.089819,0.58550501,1.0,0.0,0.0,0.0,95.23784207112081
0.9928,957.6483,1.8351072772355144,-1.6603553815749312,1.0381834237856253,4.84012514723915,3.529242627184434,-5.350866396434302,2.3553213655640413,20.542479971157718,-32.33711715102562,95.559563,59.215913787417115,0.0,95.55956300000003,0.6804759202698063,0.48833501,0.063455,0.54263699,1.0,0.0,0.0,0.0,94.23831133056312
1.0153,957.6683,1.8142052645518927,-3.101079307262949,0.09623909811133657,5.599460160013095,3.834699148945932,-5.761710282323536,3.4768929690152497,19.118345586553687,-33.109173424624,95.467972,50.868867056019276,0.0,95.46797200000003,0.6845009408781988,0.53903502,0.031195,0.48982301,1.0,0.0,0.0,0.0,93.60725678392706
1.0352,957.6883,1.3193635502158152,-4.596551176337442,-1.2688543437740325,6.241150325495805,3.955541526961947,-5.875580321440134,4.197671617025442,17.584438324815906,-33.98615284716734,96.874741,43.00829673903377,0.0,96.87474099999997,0.6815352226652702,0.59259802,-0.003104,0.42933401,1.0,0.0,0.0,0.0,94.07254489722364
1.0641,957.7083,0.23132202664128432,-5.78263563783345,-3.0082714110957838,6.75777876199524,3.7894141781989696,-5.668915097395885,4.496817756796908,15.746823598455462,-34.97567442800724,100.041229,36.55836776933161,0.0,100.04122899999999,0.6714519190938096,0.64281201,-0.036752,0.366871,1.0,0.0,0.0,0.0,95.64155249667024
1.085,957.7283,-1.3364727111192616,-6.331717432521922,-4.934381153141103,7.129874171098697,3.221761225063824,-5.206162082423475,4.267564644695405,13.38494003001621,-36.09075054625911,104.418076,31.5624553593433,0.0,104.41807599999999,0.6572591940402203,0.685606,-0.06719,0.30568001,1.0,0.0,0.0,0.0,97.81764636977806
1.0981,957.7483,-3.095698106908782,-6.127539122174046,-6.914303995713886,7.330107526252386,2.2693959275509124,-4.501536317370311,3.498193652415873,11.11598868371986,-37.042023792012046,110.691849,27.960652189576166,0.0,110.69184899999999,0.6358785434774475,0.724617,-0.09779,0.247034,1.0,0.0,0.0,0.0,101.02965021674036
1.1217,957.7683,-4.610292086609288,-5.130022433929399,-8.78001425259569,7.309680116930524,0.9621810932695369,-3.6657009950100283,2.163146774631139,9.545645292653937,-37.69582984013509,118.652992,25.702100977036114,0.0,118.65299199999998,0.604426256019293,0.76242501,-0.13118,0.190181,1.0,0.0,0.0,0.0,105.62486602557348
1.1365,957.7883,-5.314239183260316,-3.652645991507688,-10.306796324146035,7.093343663586352,-0.4893937060796909,-2.832962968973516,0.4095750795592856,8.04188454723916,-38.21996821007487,125.634125,24.891880538104868,0.0,125.63412499999998,0.5694331781312184,0.792853,-0.158471,0.14838099,1.0,0.0,0.0,0.0,110.57858201196574
1.157,957.8083,-4.977498175725423,-2.1363389299316995,-11.552486818197641,6.859655255621941,-1.8813403419424928,-2.0600508004388454,-1.3586909330482317,6.257900660075743,-38.59285651112153,130.138458,25.392330544922626,0.0,130.138458,0.5353800548179578,0.81549698,-0.180517,0.125485,1.0,0.0,0.0,0.0,115.26062106970409
1.1829,957.8283,-3.615802667934763,-0.7646822753211352,-12.586895143100342,6.758550685786771,-3.0647653419557024,-1.369190347997774,-2.9537046426837996,4.142585933112773,-38.74566041896686,132.381119,26.95912761496994,0.0,132.381119,0.5027408615927293,0.832412,-0.201015,0.118046,1.0,0.0,0.0,0.0,119.63699955774467
1.1987,957.8483,-1.352448708645503,0.651926440035127,-13.3092226152847,6.765140503741365,-4.0528599507978065,-0.7974982841170544,-4.0826771538374835,2.924458799869015,-38.60278865466002,133.180984,30.1800940388896,0.0,133.18098399999997,0.4583367483446636,0.84977102,-0.232518,0.117269,1.0,0.0,0.0,0.0,125.44033422595007
1.2143,957.8683,1.6321180887851918,2.2051318174569734,-13.240644522820133,6.854514674148038,-4.747426756880116,-0.2935222487112762,-4.322740328573408,2.958415415414006,-38.37384019386146,133.505844,34.9737468673393,0.0,133.50584400000002,0.3929189085185121,0.86907703,-0.27129999,0.129291,1.0,0.0,0.0,0.0,133.72751045420236
1.2417,957.8883,4.755988536340398,3.8170619243826556,-11.87274415912411,6.990241426289218,-5.063144213654133,0.11520082471529258,-4.5041144370565505,3.297749082233665,-38.18893770197376,134.321579,39.273899683790155,0.0,134.32157900000004,0.3159897792188536,0.886684,-0.303065,0.14863899,1.0,0.0,0.0,0.0,143.15884760394945
1.2554,957.9083,7.37142908998555,5.242171174164472,-9.081929383876291,7.097885253663926,-4.980610910907586,0.5851346199711206,-4.3237596330398125,3.39132057357058,-38.26719334660425,135.379379,42.750661751310915,0.0,135.37937899999997,0.2330125561500053,0.89874798,-0.32644701,0.17717101,1.0,0.0,0.0,0.0,153.05100266958607
1.2735,957.9283,8.99670218218818,6.0935046488428934,-5.351201052652101,7.055372284538988,-4.601241619529332,1.1357092079391156,-4.019228742376922,3.1301751471353123,-38.696283039822845,136.526321,45.14992917378725,0.0,136.526321,0.1500816620210477,0.903786,-0.343023,0.20732,1.0,0.0,0.0,0.0,162.73668195952217
1.3002,957.9483,9.357223394907622,5.90279143875016,-1.0208967071708202,6.758384925540643,-4.117906026963989,1.8013359276914551,-2.6918001751702207,4.0897180121016135,-39.3939523039329,138.095139,46.51601232120973,0.0,138.09513900000002,0.0484665550799689,0.90181702,-0.356121,0.239906,1.0,0.0,0.0,0.0,174.4439652492525
1.315,957.9683,9.141431403662374,4.818071370655462,2.506378526473405,6.2231912619028495,-3.7372995117529526,2.372908728175254,-2.368220850234559,5.164998654054192,-40.11288289408507,139.88765,45.503858548225296,0.0,139.88765,0.0454038375867043,-0.89616001,0.35953999,-0.25606,1.0,0.0,0.0,0.0,174.79531416890197
1.3405,957.9883,8.851084374978514,3.395916814697424,5.027706894801764,5.451502690185457,-3.624575712843888,2.8724323470016393,-2.696491024263837,5.999676886301774,-40.76259982805793,141.782791,42.820975832909596,0.0,141.78279099999997,0.1258530667207592,-0.887959,0.354994,-0.26394901,1.0,0.0,0.0,0.0,165.53995606950247
1.3573,958.0083,8.362483343905794,2.1022200315165325,6.940718283754574,4.483527154384978,-3.785617695051595,3.2586614526715203,-2.85902888253783,6.700355340974278,-41.28773030943018,144.786255,38.24658165602355,0.0,144.78625499999998,0.197648219327166,-0.87770098,0.339645,-0.27425799,1.0,0.0,0.0,0.0,157.2010662300501
1.3844,958.0283,7.611776958278313,1.2219400883906442,8.508576345742792,3.4611999475767727,-4.107391585446729,3.4075365080871696,-2.85100512321276,7.184991750450104,-41.72043744144389,149.967987,31.15157333615946,0.0,149.967987,0.2610032592027534,-0.86769801,0.31017399,-0.28769699,1.0,0.0,0.0,0.0,149.74079936742902
1.3953,958.0483,6.534132823276659,0.6760721068996887,9.87807839357918,2.441469421572607,-4.528728886812747,3.3212717384092088,-2.419117732140994,7.445226514075113,-42.11069610268048,157.164597,22.63714936389944,0.0,157.16459699999996,0.3134676512503319,-0.85537601,0.27384901,-0.30834499,1.0,0.0,0.0,0.0,143.4633358797764
1.4138,958.0682,5.335835369523016,0.3615221614953352,11.021585084149347,1.5009537779706383,-4.978300217874167,3.0691749967036825,-1.8466165029168735,7.629078694707513,-42.397857941637,165.840347,13.607729767607555,0.0,165.840347,0.3540599476370347,-0.84071201,0.23651899,-0.33452001,1.0,0.0,0.0,0.0,138.5283165099247
1.4416,958.0882,4.133589428286705,0.2644382374540477,11.986998795253069,0.659270234400629,-5.427800615255515,2.784270886465658,-1.2064272917640506,7.868382182007618,-42.53598907621553,175.609436,4.206658344311758,0.0,175.60943599999996,0.3841075301963754,-0.82386398,0.199691,-0.365832,1.0,0.0,0.0,0.0,134.82330836458797
1.4531,958.1082,2.956832645055473,0.43003546560693806,12.864732112340885,-0.07344935791319228,-5.889027911613322,2.5623669559840483,-0.6403927757466938,8.252228599554496,-42.49393917209662,-174.017944,-5.890531202533769,0.0,174.017944,0.4058550738456766,-0.80588198,0.161143,-0.399836,1.0,0.0,0.0,0.0,132.11055685863448
1.4782,958.1282,1.556087557747667,0.8706813614399493,13.716331863373494,-0.6987183283987091,-6.392358542950516,2.4290067061621192,-0.10073592420008737,8.841342126976475,-42.20663028116154,-163.211945,-17.388332638914545,0.0,163.211945,0.4225764194136248,-0.78620899,0.116012,-0.43571299,1.0,0.0,0.0,0.0,130.00529039466736
1.5014,958.1482,-0.3670281041938077,1.5398222045131575,14.444561285898615,-1.2487389287628972,-6.953055401230251,2.353619609099347,0.37815242966458573,9.611480182191398,-41.57844394727957,-152.703812,-30.24380636426938,0.0,152.703812,0.4351289750905581,-0.76298398,0.062806,-0.473892,1.0,0.0,0.0,0.0,128.41299790721064
1.5187,958.1682,-2.9556990905038596,2.340455137279653,14.794118958600091,-1.7871336135664602,-7.556187317539964,2.2751087192624277,0.648787083804601,10.538973141700327,-40.56868240204062,-143.587265,-43.78647604958284,0.0,143.587265,0.442134569980972,-0.734056,0.004476,-0.51542097,1.0,0.0,0.0,0.0,127.5196907870736
1.5382,958.1882,-6.126753297388121,3.2446639813181957,14.44457823415308,-2.327361012124756,-8.172104649154708,2.1432361125819694,0.49347174884782596,11.537248195693538,-39.2863622977579,-136.417938,-57.42054901259217,0.0,136.417938,0.4417620536006674,-0.69876403,-0.056896,-0.55976599,1.0,0.0,0.0,0.0,127.56727752645493
1.5556,958.2082,-9.640401600351845,4.326254761876095,13.091188796568069,-2.768035144296503,-8.778671017839674,1.9864422644101682,-0.3337212784351147,12.271065283258654,-38.01590784258401,-130.996597,-70.61157627866163,0.0,130.996597,0.4323963739311414,-0.65845698,-0.123884,-0.60342401,1.0,0.0,0.0,0.0,128.76052708786017
1.5745,958.2282,-13.102956187951767,5.434844298670627,10.558959985733651,-3.065306238708406,-9.341619400949735,1.8098236109616557,-1.8542548076503254,12.742490803684705,-36.96431889532522,-127.222252,-83.04725850322123,0.0,127.222252,0.4130580271565233,-0.61342603,-0.192808,-0.644916,1.0,0.0,0.0,0.0,131.2058387921648
1.5986,958.2482,-16.226026507557187,6.257189315529688,6.711740866248732,-3.1199239589083674,-9.823873505752287,1.637559289989251,-3.7495739196307567,12.941427859127979,-36.35900493497613,-124.387955,-95.15055549838729,0.0,124.387955,0.3850433879520071,-0.560929,-0.26465601,-0.68341601,1.0,0.0,0.0,0.0,134.70713226809843
1.6149,958.2682,-18.465675361836517,6.517500063035003,1.6669502890955457,-2.9655983784198066,-10.142845332316021,1.477515265038161,-5.48070422783797,13.022754168361985,-36.383936179503515,-122.546425,-107.31916686619547,0.0,122.546425,0.3480012897641895,-0.49867299,-0.33523399,-0.71960998,1.0,0.0,0.0,0.0,139.26977259661643
1.6355,958.2882,-19.15634193144977,6.156124060666342,-3.92389723706303,-2.7158717931016416,-10.220366163415717,1.3116156526086178,-6.704299849478971,13.244105690006968,-37.013322846237465,-122.151031,-119.40298029376491,0.0,122.151031,0.3028693849753698,-0.42871299,-0.39737201,-0.75270897,1.0,0.0,0.0,0.0,144.7399463458608
1.661,958.3082,-18.123829477909972,5.140803639412161,-9.200660759463855,-2.374051245187075,-10.05007042724788,1.1250121713269214,-7.334511235435908,13.508686468084282,-38.095543352931855,-123.000832,-131.01295043532713,0.0,123.000832,0.2545849592426462,-0.352658,-0.45065099,-0.77957201,1.0,0.0,0.0,0.0,150.50201312798328
1.7163,958.3282,-15.654205078706898,3.6846469003284654,-13.373548895359216,-1.9629871442614908,-9.665128863032114,0.8174587195404313,-7.396535556201776,13.846595452061615,-39.33774254201466,-125.53273,-141.95132501795524,0.0,125.53273,0.2068584357282047,-0.27237299,-0.49307701,-0.799936,1.0,0.0,0.0,0.0,156.1233764280975
1.7184,958.3482,-12.382089528039504,2.1340286356851204,-16.04080496120971,-1.452330033960264,-9.136174443689791,0.3582350466295443,-7.060324669407397,14.097914385746073,-40.531229904609035,-130.588531,-152.12914939481303,0.0,130.588531,0.1611086082816161,-0.191037,-0.525172,-0.81347603,1.0,0.0,0.0,0.0,161.4575006856026
1.7213,958.3682,-9.061135962192783,0.8668550506197263,-17.214608200336187,-0.8568622601985283,-8.554457588887077,-0.16185474468362004,-6.655617349829565,14.041517919019556,-41.545488575564235,-139.542557,-161.45773169157084,0.0,139.542557,0.115287327199305,-0.116953,-0.54833102,-0.819978,1.0,0.0,0.0,0.0,166.75960417346013
1.7373,958.3882,-6.226959321676349,0.12735946418303712,-17.36511792623557,-0.22943073311912632,-8.034087464058343,-0.6575299834963388,-6.160811434270606,13.840882160285297,-42.26889409497662,-154.955368,-170.33711703419442,0.0,154.955368,0.0645824453247082,-0.054752,-0.56238401,-0.82252997,1.0,0.0,0.0,0.0,172.5942427050471
1.7535,958.4082,-4.2999949770741654,-0.0041504268747551976,-16.897755526823403,0.3814420580193012,-7.659003895720409,-1.1292447671381693,-7.175751195363638,14.052000526425145,-42.28767373669932,-171.861771,-177.00221464372348,0.0,171.861771,0.0191722186306118,-0.018314,-0.56301099,-0.826024,1.0,0.0,0.0,0.0,177.80289096309284
1.7732,958.4282,-3.0547969284147745,0.41139661771781233,-16.35354924193042,0.910457551061711,-7.430526149966197,-1.635437048632831,-9.63012517490511,14.757787683197359,-41.50680866167315,175.643311,178.28844074057295,0.0,175.64331100000004,0.0201480883291625,0.003401,0.55139202,0.833996,1.0,0.0,0.0,0.0,177.69104291055015
1.7953,958.4482,-1.9500096433178875,1.2542355472667195,-15.994189913260659,1.4556826825421312,-7.2436892602309815,-2.2473062868476017,-11.874239125700809,15.684818218197178,-40.26228264593935,165.215164,173.38071272217775,0.0,165.21516399999996,0.0597361342179041,-0.013216,0.52752602,0.84733301,1.0,0.0,0.0,0.0,173.1506655896357
1.8253,958.4682,-0.7654785594312925,2.45962163447615,-15.667352679501633,2.065766013422875,-6.925563898803452,-3.0265031922651513,-13.511186020408362,16.6814249973803,-38.76647736088778,157.091965,167.7615217297808,0.0,157.09196499999996,0.1020228672864076,-0.036007,0.48885,0.86563301,1.0,0.0,0.0,0.0,168.28866377917774
1.8488,958.4882,0.6903091927047582,3.8904680167735,-15.070339753122084,2.671812494908711,-6.407525359719085,-3.8409779436466795,-13.839092038964631,17.72362455515849,-37.35731943135512,149.410095,160.42550193929097,0.0,149.410095,0.1594348686427142,-0.06096,0.437444,0.88289702,1.0,0.0,0.0,0.0,161.65180898190115
1.8655,958.5082,2.4325216228645887,5.293964388212604,-13.815013338139812,3.2838771142474696,-5.714992047465771,-4.510158717085668,-12.844428401678721,18.942971638393495,-36.06678038876446,141.763885,151.2660492289576,0.0,141.76388499999996,0.2339887823353501,-0.083477,0.37456101,0.8933,1.0,0.0,0.0,0.0,152.9359550817719
1.8759,958.5283,4.086896697130872,6.423739518305318,-11.574745121875587,4.050082097715645,-4.830766615127847,-4.883752966764203,-11.029001324959228,20.259510579502365,-34.81747043242638,135.327316,141.51639757281418,0.0,135.327316,0.3116283843171221,-0.10726,0.29694501,0.896218,1.0,0.0,0.0,0.0,143.68521615530824
1.8949,958.5483,5.154657898038178,7.002060085406546,-8.487242921245691,4.836905251072929,-3.882320497556057,-4.882093394768776,-8.957550392486176,21.471475099066375,-33.61649989711597,129.879318,132.34222146421595,0.0,129.879318,0.3843351503264821,-0.127371,0.210153,0.88988698,1.0,0.0,0.0,0.0,134.79505642884675
1.9205,958.5683,5.424504972868723,6.954124684789647,-5.1826152459734365,5.462439919346913,-3.030014268538628,-4.61615119280017,-7.354774043732764,22.345406503182026,-32.47303396750673,124.927177,124.63044898440154,0.0,124.92717700000003,0.4466336626225116,-0.136801,0.124835,0.87533998,1.0,0.0,0.0,0.0,126.94418502127473
1.941,958.5884,5.1173852241645275,6.454940439883014,-2.20014431977407,5.884070995714173,-2.405799491700453,-4.231356717718614,-6.240494404511761,22.849152164139895,-31.451318605720523,119.758049,118.08947125431665,0.0,119.75804900000003,0.5001086366008886,-0.13641401,0.046195,0.85390198,1.0,0.0,0.0,0.0,119.98562480006495
1.9548,958.6084,4.645098664550934,5.817708619384442,0.24036105256140772,6.0917243860100605,-2.072637469142993,-3.9002445386205196,-5.774319963546743,22.942161413538283,-30.638624852073306,114.113785,112.42999605189094,0.0,114.11378500000001,0.5462630826948304,-0.127031,-0.022135,0.82762903,1.0,0.0,0.0,0.0,113.77795878030673
1.9755,958.6284,4.24546797856587,5.159140669848279,2.3953156515146112,6.110208339157495,-1.930392188467683,-3.7291490413647654,-5.838812911396617,22.933965288083783,-30.004351835627766,108.122742,107.54546034103741,0.0,108.12274200000002,0.5854984554184751,-0.111342,-0.085473,0.79842901,1.0,0.0,0.0,0.0,108.32357718002886
1.9942,958.6484,3.8916419859105904,4.310533524148391,4.637549306893252,5.96439573339542,-1.7722917013809902,-3.7362830431123353,-6.172704447903734,23.11643331409506,-29.55013379417355,101.947502,103.60009680348004,0.0,101.94750199999999,0.6167218086259635,-0.092345,-0.14986201,0.76724702,1.0,0.0,0.0,0.0,103.84572644768635
2.0171,958.6685,3.4109550970270135,3.07535042361993,7.086643917923677,5.690856780995913,-1.5130932568575763,-3.814940030736241,-6.03020506881713,23.433784382251535,-29.55102579696517,94.882988,99.81373831323349,0.0,94.88298800000001,0.644541041306882,-0.077992,-0.21402,0.72984898,1.0,0.0,0.0,0.0,99.73745391767187
2.0797,958.6885,2.839401554514655,1.556548368947912,9.51971752265301,5.324270761083183,-1.1411390137451742,-3.9022998198039205,-5.283388408526438,23.611636506124356,-30.150999336812866,86.517242,95.18297260770542,0.0,86.51724200000001,0.6744270503078298,-0.070856,-0.268462,0.68414599,1.0,0.0,0.0,0.0,95.1806536747764
2.0875,958.7085,2.6356412525785355,-0.3585007662671442,11.669556231500813,4.922273112982008,-0.45585252415093364,-4.045571427275351,-5.148776824842146,24.01599511379925,-30.598939782901937,78.00058,90.25787899302419,0.0,78.00058000000001,0.7036937364946625,-0.053604,-0.31066099,0.63673502,1.0,0.0,0.0,0.0,90.55178123473875
2.092,958.7286,2.8550401785638115,-2.3352930853587397,13.428852142630287,4.644134816201571,0.4344939545218168,-4.121149914392541,-5.394833913535059,24.324824911507623,-30.952740626944284,70.285934,85.10069056093062,0.0,70.285934,0.7315563503541609,-0.030548,-0.34024599,0.59002101,1.0,0.0,0.0,0.0,85.96594488037093
2.1017,958.7486,3.610728013208785,-4.081285021421403,14.884884788122303,4.624188990835023,1.3399951111789965,-4.140133561412925,-5.706551869358691,24.160105854870906,-31.39759238722621,63.51738,79.19462691703356,0.0,63.51738,0.7605130398577133,-0.006573,-0.35543099,0.543365,1.0,0.0,0.0,0.0,80.98110550843634
2.1155,958.7686,4.732446780271542,-5.829661355462553,16.138044978424272,4.981023511054437,2.224885867496846,-4.11702387156148,-5.8311359076990446,23.537337234349565,-31.88849670242122,57.759361,73.22987120993007,0.0,57.75936100000001,0.7873179615566761,0.018994,-0.36300501,0.49799299,1.0,0.0,0.0,0.0,76.12885498291251
2.1338,958.7886,5.9915329150691115,-8.117484366493828,17.03102091259963,5.730143179203813,3.0160578867649015,-4.055251088669032,-5.389440209840927,22.66855948477552,-32.317794159938245,52.216045,66.87331123633521,0.0,52.21604500000001,0.8130321304024458,0.047637,-0.36793599,0.44870099,1.0,0.0,0.0,0.0,71.21350890711588
2.1558,958.8087,7.334021067595648,-11.657658692275875,16.871182255455242,6.711390166818009,3.7133131041066845,-3.9213920733738563,-4.662085972009596,22.099085923455632,-32.323342827368876,46.844238,60.03579443533707,0.0,46.84423799999999,0.8367496507942384,0.089522,-0.37201399,0.391716,1.0,0.0,0.0,0.0,66.40306847348663
2.1746,958.8287,8.448151520533983,-16.318092524874295,14.750017373014035,7.695015027173916,4.206108803644231,-3.7020846664368317,-3.871819986849763,21.997565183323914,-31.959152697905676,41.736855,52.45100367471806,0.0,41.73685499999999,0.8568760001998539,0.14701,-0.37262499,0.324503,1.0,0.0,0.0,0.0,62.06478139442166
2.1945,958.8487,8.954188061939906,-20.931449976856463,10.140641424343933,8.402038004252223,4.425772322032912,-3.4599362319615574,-3.452551800668968,22.30739581627499,-31.472597614986107,37.359882,44.36433829137798,0.0,37.359882,0.8697781725548186,0.218247,-0.36486501,0.25045499,1.0,0.0,0.0,0.0,59.13425610424686
2.2187,958.8688,8.216362865863557,-24.0225087595813,3.565079526572516,8.679511100429023,4.3364680768399575,-3.178398330859315,-3.311582386686815,23.102395121721592,-31.010274725843594,33.683239,36.243828963267916,0.0,33.683239000000015,0.8712430044731606,0.29700801,-0.35057101,0.17269,1.0,0.0,0.0,0.0,58.79318504216395
2.2348,958.8888,6.052065266500167,-24.55062089429078,-3.307224388057005,8.51642144352842,3.923936049898442,-2.823022556729816,-3.0985048644686524,24.225713611752784,-30.714044575804028,30.604132,28.75908625428128,0.0,30.604131999999993,0.8597324190577088,0.37343901,-0.33487999,0.096223,1.0,0.0,0.0,0.0,61.42689563402414
2.2543,958.9088,3.134989298314718,-22.660314167288576,-8.823974556668928,7.983709271074679,3.265238745378329,-2.4309189040435863,-2.7794149464403572,25.441687605235803,-30.57900587017807,28.235533,22.360305691613913,0.0,28.235533000000004,0.8376763401756074,0.441861,-0.319958,0.026155,1.0,0.0,0.0,0.0,66.2088915518507
2.2764,958.9288,0.371012715274734,-19.42804833255105,-12.110213631545577,7.232385309190968,2.4898168424591565,-2.0711850634791515,-2.5800830703769635,26.354822735366703,-30.657747343220816,26.834972,17.296079890248922,0.0,26.834971999999993,0.8101411241930383,0.49928799,-0.305507,-0.032378,1.0,0.0,0.0,0.0,71.78055615365871
2.296,958.9489,-1.8060483493534785,-16.11650129833027,-13.29128682926694,6.479994396161505,1.6622495148795986,-1.7812158087871661,-2.583700634331992,26.611654048702558,-31.066158673727102,26.259253,13.451691515613565,0.0,26.259253,0.7822932475709344,0.54403502,-0.29292601,-0.078978,1.0,0.0,0.0,0.0,77.05794960887548
2.3224,958.9689,-3.321712357913636,-13.414866386926182,-13.288632255559467,5.913913828223455,0.8302051730402634,-1.505763658064972,-2.526510777237296,26.389993724909893,-31.604136151232378,27.993231,11.084098838916855,0.0,27.99323100000001,0.7529081040120368,0.580962,-0.286645,-0.115962,1.0,0.0,0.0,0.0,82.31416259778209
2.3599,958.9889,-4.283646682003805,-11.426438084791386,-12.967712531325063,5.604207849473919,0.023426794468366985,-1.2385198913889814,-2.298906727279086,25.936552324402264,-32.110030319982734,35.377995,10.246641296647573,0.0,35.377995,0.7199029184524672,0.61470801,-0.28737301,-0.145913,1.0,0.0,0.0,0.0,87.9070684250183
2.3646,959.009,-4.811525827904714,-9.963555430317578,-12.872264536344371,5.528700403554503,-0.7253519242976249,-1.0134917577966969,-2.1145369901948436,25.4609460926621,-32.50866657077331,55.637913,10.759429690886188,0.0,55.637913,0.6822960690182084,0.64896101,-0.29105499,-0.16914099,1.0,0.0,0.0,0.0,93.95334485677226
2.3785,959.029,-5.010299506455175,-8.747870467765921,-13.198461566403049,5.636521337690194,-1.40711470912763,-0.8657328584296504,-2.1711994849481826,24.993255382144522,-32.87259276443488,91.754128,12.346723223790178,0.0,91.75412799999998,0.6411428090648447,0.68455499,-0.29392299,-0.1842,1.0,0.0,0.0,0.0,100.24582245846825
2.3963,959.049,-5.060340207688828,-7.664412558844489,-13.46611298530842,5.841241417390781,-2.0939610500117003,-0.8192319161828291,-3.069463834771299,22.92118405595712,-34.318498522259056,109.963463,13.32322367476481,0.0,109.96346299999999,0.6170826779224151,0.70400703,-0.29466599,-0.191716,1.0,0.0,0.0,0.0,103.79318453413366
2.4192,959.069,-5.019379047484573,-6.3926495516194874,-14.029230875228748,6.035891779988983,-2.837984639697749,-0.8007814887911797,-4.230131172238539,20.54091191353576,-35.70005875940973,120.516991,14.558691046667942,0.0,120.51699100000002,0.5951787631318004,0.71955001,-0.29802001,-0.19797499,1.0,0.0,0.0,0.0,106.94924646749716
2.4351,959.089,-4.722565190542608,-4.87694639239589,-14.923157093931428,6.129237006640009,-3.6180695241244836,-0.7142532492484541,-5.425258112644826,18.566237706858406,-36.54318041126002,127.541969,16.800714744833265,0.0,127.541969,0.5675641967076498,0.73811901,-0.30451101,-0.200809,1.0,0.0,0.0,0.0,110.83891230048648
2.4633,959.109,-4.120108383762564,-3.1279766895838397,-15.968800579164979,5.977896599737462,-4.525660044960355,-0.5469414339246907,-6.612682993988866,17.42076305430929,-36.68675748888606,131.805099,20.22790118144092,0.0,131.80509900000004,0.5306798183190119,0.75829202,-0.31758901,-0.20617799,1.0,0.0,0.0,0.0,115.89720214627353
2.4831,959.129,-3.1290532661430017,-1.3938615456851078,-16.961507550538755,5.513660469800781,-5.582375220682675,-0.3127630828309541,-8.046378008239868,16.796034359779046,-36.268727463339374,132.902115,24.800472420788807,0.0,132.90211499999998,0.4896739399704254,0.77435201,-0.33834001,-0.214766,1.0,0.0,0.0,0.0,121.36169430037414
2.4943,959.149,-1.6156529921778646,-0.06834251164402261,-17.88177392887271,5.066532922509082,-6.502139108630002,-0.006560085491977785,-10.185728138096701,15.757576689341885,-35.57384615412469,132.534454,28.99779922585534,0.0,132.53445399999998,0.4548463261889003,0.79001802,-0.35326299,-0.210218,1.0,0.0,0.0,0.0,125.88990595523916
2.5166,959.169,0.4636239709370247,0.8803290492921447,-18.709363443964623,4.944254277457576,-7.158021004874545,0.3386720528543093,-12.594343763723678,13.779400433693345,-34.87966745092926,131.421921,32.34028273132126,0.0,131.421921,0.4270410554152607,0.80832201,-0.360659,-0.18486901,1.0,0.0,0.0,0.0,129.44015176929142
2.5434,959.189,3.301273829144079,1.5888759381785031,-19.179109509604757,5.127293976980362,-7.559972177366296,0.8427750324136053,-14.210669324650912,10.747933271675947,-34.62546127880092,128.235352,36.458423098493235,0.0,128.23535200000003,0.4021408965699951,0.82465202,-0.37325999,-0.137509,1.0,0.0,0.0,0.0,132.5758306860387
2.5659,959.209,7.621488695243238,3.066270687005278,-17.86191128998548,5.350827264901796,-7.810551599200929,1.3293378000800118,-11.94918810813645,10.540964280742292,-35.09323631200692,125.728607,44.58079529888473,0.0,125.72860700000001,0.3165571643773672,0.85614502,-0.40447199,-0.056654,1.0,0.0,0.0,0.0,143.0903119866892
2.5791,959.229,11.624116911074887,4.5255525214523615,-14.305465314138095,5.4927391781834,-7.890316581530672,1.8059997202742943,-10.034934626836222,11.423847534555655,-35.400263100261654,125.316589,50.45853890094379,0.0,125.31658900000002,0.211864003859409,0.87731099,-0.43030599,0.016608,1.0,0.0,0.0,0.0,155.53677992561478
2.598,959.249,14.245849525886912,5.461390067678043,-8.601235296655243,5.3268207009109645,-7.809406445200304,2.3814816517975026,-8.471536448182198,13.053621098133375,-35.74167638606775,126.43364,53.424557537659226,0.0,126.43363999999997,0.0931345538668637,0.88802201,-0.44227099,0.084494,1.0,0.0,0.0,0.0,169.31207687465465
2.6155,959.269,14.628538420498867,5.5793286325656215,-1.9038312875893721,4.7865417010529825,-7.576746930965278,2.9064113210278117,-7.632844438760484,14.786431208436332,-36.254036387939266,129.702438,52.17007932133669,0.0,129.70243800000003,0.0273820139639038,-0.89074302,0.42977199,-0.145338,1.0,0.0,0.0,0.0,176.86186009761644
2.6397,959.2889,13.068681915869504,4.7966218365364535,4.205262691678872,3.8257661600078343,-7.300226172288437,3.3096507484134094,-7.144147370060697,15.764282371711362,-37.29353912330947,134.686691,47.51176851697073,0.0,134.686691,0.1302915152995758,-0.88462102,0.39945501,-0.202251,1.0,0.0,0.0,0.0,165.0271236217838
2.6541,959.3089,11.114930002040595,3.7387970462870594,8.482650729989405,2.636763853964724,-7.029136960016244,3.569218590946428,-7.432647916658829,15.431482872116522,-38.763555384127955,140.400909,41.74141165178631,0.0,140.400909,0.1952070071259729,-0.87529701,0.36568901,-0.24903999,1.0,0.0,0.0,0.0,157.48636675410265
2.6748,959.3289,9.133622411306547,2.7537431304195277,11.536592410078622,1.327262023880275,-6.815383279558145,3.7633705065740655,-7.045549527445197,14.774222674941901,-40.217345343696174,147.12825,35.595116411264996,0.0,147.12824999999998,0.2391081833369134,-0.86195397,0.33222899,-0.29914299,1.0,0.0,0.0,0.0,152.3321787797556
2.699,959.3489,7.400391106733479,2.09010813760597,13.759055137603116,0.08960037156556644,-6.668145940994686,3.903312926910197,-6.274804960519563,14.272288785762838,-41.27339752852529,155.459183,28.073606218967086,0.0,155.459183,0.2706562880676521,-0.84714401,0.294826,-0.34952801,1.0,0.0,0.0,0.0,148.59335292469993
2.7248,959.3689,5.874354645699723,1.7688678861232212,15.524093694193297,-0.941008314482449,-6.668328974273747,3.927243355509286,-5.641813398865154,14.27063798130915,-41.73670352845734,166.023376,17.06314100466302,0.0,166.02337599999998,0.2997968578532801,-0.83269399,0.246584,-0.39489099,1.0,0.0,0.0,0.0,145.10919530352933
2.7483,959.3889,4.24221964142388,1.9349281435194392,16.96924838595148,-1.7901358514139216,-6.861086557426241,3.819107302657908,-5.213942005040325,14.508812994794917,-41.73713709072069,178.275864,2.256949929776432,0.0,178.275864,0.325699916391699,-0.81729501,0.187315,-0.43687701,1.0,0.0,0.0,0.0,141.98403080785292
2.7571,959.4089,2.1852050149841724,2.794258035450392,17.93625569743224,-2.564649871745255,-7.176727972919741,3.626424907730506,-4.733569897412837,14.573462874277139,-41.50608649898684,-170.177994,-14.154763335662123,0.0,170.177994,0.339425490106385,-0.79897398,0.12415,-0.480643,1.0,0.0,0.0,0.0,140.3162486053194
2.7751,959.4289,-0.6110932029799745,4.228138257506526,18.088833214383065,-3.2798806568446044,-7.540514316864218,3.356948491957028,-3.8942123095818926,14.54976061246394,-41.106564523580985,-160.751984,-31.584009462935516,0.0,160.751984,0.3395958657552231,-0.77530098,0.060143,-0.529118,1.0,0.0,0.0,0.0,140.29549210353005
2.7951,959.4489,-4.118899270798819,5.8531852295493465,17.03703196623929,-3.8218415553256326,-7.918876967537226,3.006174336762326,-2.886596339369894,14.617954122900606,-40.49515211685267,-153.324295,-50.09668482496315,0.0,153.324295,0.3304750940010154,-0.74495101,-0.006463,-0.579476,1.0,0.0,0.0,0.0,141.40477141696135
2.8164,959.4689,-7.929396961884627,7.247936235757511,14.545326130828606,-4.02175762181041,-8.296291974240845,2.64281835969903,-2.32389069933416,14.589083227679462,-39.76350666304728,-147.13028,-68.09473305931732,0.0,147.13028,0.3161130924678379,-0.70877701,-0.079921,-0.62555599,1.0,0.0,0.0,0.0,143.14395350563774
2.8478,959.4889,-11.473364251340286,7.97904905302172,10.712166898078006,-3.971917461543841,-8.577698343782172,2.279228388380326,-2.127729386316963,14.480308483781002,-39.0318973797133,-142.355438,-84.36083957957891,0.0,142.355438,0.2951035672428905,-0.66523802,-0.154643,-0.66817498,1.0,0.0,0.0,0.0,145.67250436224683
2.8924,959.5089,-14.144715670415478,7.7769125111595425,6.036531946665399,-3.8233770960909084,-8.693937714520626,1.8229283167678838,-2.0942443249922738,14.672016853003093,-38.279376962107634,-139.219345,-99.17643601713645,0.0,139.219345,0.2682648587024023,-0.612602,-0.222397,-0.70943099,1.0,0.0,0.0,0.0,148.87791622258388
2.8963,959.5289,-15.597271381521079,6.751165451006978,1.1804801883612477,-3.6197374462098013,-8.63861794334281,1.20236368463812,-2.3143737114483773,15.285895194053918,-37.52706426978729,-137.563126,-112.67157357229999,0.0,137.563126,0.2384760130432821,-0.55131,-0.28053901,-0.74865502,1.0,0.0,0.0,0.0,152.40677827070675
2.9067,959.5489,-15.773539949630127,5.341747006378411,-3.2657730619258674,-3.352679305501755,-8.428026277719049,0.45563455756013704,-3.0212266767421543,15.950588382245131,-36.982327892105324,-137.303558,-124.5460133951669,0.0,137.303558,0.2057765595955963,-0.486065,-0.330336,-0.78248,1.0,0.0,0.0,0.0,156.25007624183544
2.9203,959.5689,-14.89455631174443,4.0327198367441905,-6.939589784707814,-3.0259604863667877,-8.109784620841706,-0.3121760879764357,-4.1033873761206525,16.139130323164096,-36.93373577761923,-138.548111,-135.01346523279838,0.0,138.548111,0.1668621297809053,-0.422878,-0.37443799,-0.80816299,1.0,0.0,0.0,0.0,160.78914701854183
2.9521,959.5889,-13.304404383147503,3.1971079406450356,-9.71982051201735,-2.706078244278175,-7.745984871822571,-1.0775714061689756,-4.9425870657798185,15.951599943128508,-37.33706298443438,-142.248276,-145.079884313876,0.0,142.248276,0.1170160702241349,-0.365042,-0.40988499,-0.82767498,1.0,0.0,0.0,0.0,166.56015481307978
2.9608,959.609,-11.398718746491268,2.799750451671658,-11.6245183319331,-2.3136321955756394,-7.42737582264045,-1.8850125973996827,-5.416893336158209,16.005381152015765,-37.789393996948334,-148.831345,-154.92485731504993,0.0,148.831345,0.0625815842218773,-0.310415,-0.43231401,-0.844293,1.0,0.0,0.0,0.0,172.82398940272557
2.976,959.629,-9.461584610810258,2.803577614271293,-12.846437239259556,-1.8391045660549028,-7.207256706994052,-2.6327089882838175,-5.647990190754916,16.249094043000795,-38.17915954664687,-158.429688,-164.51781542204316,0.0,158.429688,0.0058056445688517,-0.258991,-0.44374299,-0.857894,1.0,0.0,0.0,0.0,179.334718400392
2.9975,959.649,-7.698602545856891,3.1954699293732167,-13.43030851497196,-1.4558936136330782,-7.083106114762647,-3.246528464351371,-6.722805984597056,16.84484025091071,-38.210655465185155,-169.201385,-172.69356856517638,0.0,169.201385,0.048956884920301,0.22469699,0.443838,0.86609602,1.0,0.0,0.0,0.0,174.38771080704424
3.0152,959.6691,-6.106562798588308,3.8749416770847462,-13.661516869926132,-1.2559755035653404,-7.005610407126913,-3.7969585188576116,-8.939648449059304,18.129871407997037,-37.54217412109082,-179.127121,-179.4078632247776,0.0,179.127121,0.0994096087794309,0.210796,0.43258399,0.87094998,1.0,0.0,0.0,0.0,168.58965170012948
3.0398,959.6891,-4.377906495037161,4.6783575254950245,-13.973121662006367,-1.0824091869770625,-6.940898855745319,-4.31953204157273,-10.626053673954232,19.65101161607896,-36.58360172800815,169.907013,172.93799381418515,0.0,169.907013,0.1549633389198872,0.196529,0.41429001,0.875058,1.0,0.0,0.0,0.0,162.17065992499707
3.0596,959.7091,-2.3974272589660575,5.5221741741286134,-14.1717419175393,-0.8066164305274861,-6.764355390902157,-4.92003366310634,-11.713101378728645,21.386740493070153,-35.30723178820281,158.988831,164.46453264421183,0.0,158.988831,0.2112906790915771,0.176999,0.38530999,0.88066101,1.0,0.0,0.0,0.0,155.6039998808903
3.0747,959.7291,-0.10588952244091754,6.346268999562894,-13.96074627666572,-0.4206743929987769,-6.373556569714592,-5.594769484063669,-12.070824341198955,23.181987889157796,-33.767931457383646,148.694382,155.03795821714,0.0,148.69438200000002,0.2714275414268045,0.154155,0.343784,0.88564998,1.0,0.0,0.0,0.0,148.5015368977303
3.099,959.7492,2.439215169812626,6.942240241477545,-13.104840355531177,0.027302110516827766,-5.75129365674572,-6.248628896545722,-11.71122436411295,25.00143560015492,-31.959399670793132,138.979263,144.49860659569669,0.0,138.979263,0.3395487954138551,0.133874,0.289736,0.884781,1.0,0.0,0.0,0.0,140.3012267184691
3.1161,959.7692,4.960557314576894,7.036086124064558,-11.575511965760375,0.6081963145996583,-5.013259575623735,-6.72744788987145,-11.02563434611508,26.484632590578073,-30.122505969607047,129.905746,133.58322429929657,0.0,129.90574600000002,0.4113228413519236,0.115742,0.227806,0.87494099,1.0,0.0,0.0,0.0,131.42407849557074
3.1451,959.7892,7.102793948271708,6.544860010627044,-9.422377467738457,1.4117434131678617,-4.315967906331098,-6.904372624298472,-10.13902290443416,27.35202332937227,-28.755569569523622,121.359268,123.13205982461277,0.0,121.35926799999999,0.4815686388740643,0.093566,0.161075,0.85638303,1.0,0.0,0.0,0.0,122.42419500537538
3.1585,959.8093,8.544076928091023,5.559913402530816,-6.784672947004861,2.3279683569765286,-3.754403164997258,-6.748390142071983,-9.168205851297973,27.744676579793737,-28.009050957473303,113.306839,113.69310573905204,0.0,113.30683899999997,0.5468002394559823,0.069011,0.091365,0.82939702,1.0,0.0,0.0,0.0,113.70445650234952
3.1821,959.8293,9.168964481799025,4.259567582155587,-3.9547154318423594,3.1320486442113054,-3.3561403585805785,-6.348142246806466,-8.239868002441375,27.97708567823992,-27.690131775385538,105.534492,105.32246765913736,0.0,105.534492,0.6051544328775754,0.048664,0.021405,0.79433101,1.0,0.0,0.0,0.0,105.52008886679765
3.1985,959.8493,9.082832407564766,2.929025507758345,-1.1577569701582178,3.6943706821107636,-3.0547324013315835,-5.860292510422802,-7.623962215628307,28.195276002862624,-27.592574462480385,98.299217,98.40057307811372,0.0,98.299217,0.6524473495853279,0.035605,-0.046494,0.75556803,1.0,0.0,0.0,0.0,98.54724660806853
3.2224,959.8694,8.572107707151215,1.6340052037485244,1.5827926479109315,3.9589767769893323,-2.7035843909131207,-5.448312139094743,-7.3665551122211825,28.580717331045523,-27.499397292065858,91.514244,92.8423868750042,0.0,91.51424400000002,0.6887291721224237,0.031702,-0.111935,0.71562397,1.0,0.0,0.0,0.0,92.94080833889373
3.2387,959.8894,7.736556871013929,0.32174376213761746,4.409873796781115,4.017866535085718,-2.2084830189847833,-5.12526142047984,-6.904194625020675,28.98613038300687,-27.667412049365478,84.688766,88.13580037138729,0.0,84.68876599999999,0.7176572668079373,0.029479,-0.17431299,0.67358297,1.0,0.0,0.0,0.0,88.27720552831228
3.2558,959.9095,6.554607991420277,-0.9233437388159182,7.33211801332282,4.035011102775215,-1.5253987590718432,-4.834456045900269,-5.757439603980954,29.075388390511346,-28.432382660164727,77.515678,83.72414707169219,0.0,77.51567799999998,0.7425704963648634,0.021612,-0.230289,0.62856102,1.0,0.0,0.0,0.0,84.09830956325246
3.2763,959.9296,5.544376955963709,-2.12992409997533,10.029825192075808,4.108119756697833,-0.5854946639771156,-4.6284582056380525,-4.625774519441714,28.91558000007164,-29.341503647838103,70.392723,79.15264934637608,0.0,70.39272299999999,0.7655338326857273,0.01869,-0.273065,0.58227497,1.0,0.0,0.0,0.0,80.09098492378992
3.3002,959.9496,5.435506107170158,-3.6255068540309505,12.15567796295549,4.297082407227622,0.5764023669484103,-4.524424449526418,-4.295908426543633,28.816966427664987,-29.808538957527055,63.948677,74.1417350382122,0.0,63.948677,0.7885478202102644,0.033178,-0.29949799,0.53609002,1.0,0.0,0.0,0.0,75.89998122986499
3.3177,959.9697,6.276227096222574,-5.6189073244929055,13.488107462731048,4.664368957933981,1.7255152189168779,-4.44401136951813,-4.420931944844721,28.714109449728273,-29.881494245577223,58.099373,68.35124837282024,0.0,58.099373000000014,0.81310963670221,0.061453,-0.312242,0.487423,1.0,0.0,0.0,0.0,71.19825279872572
3.3397,959.9897,7.613318120624205,-8.321917689648219,13.820550096840176,5.232700837038157,2.663480438814579,-4.337864580010237,-4.491891665378798,28.631609301373594,-29.567793279689855,52.415798,61.640746660463435,0.0,52.415797999999995,0.8382572598480372,0.099913,-0.31709701,0.43219399,1.0,0.0,0.0,0.0,66.08690890805937
3.3717,960.0098,8.844150228039751,-11.518856130912464,13.114109453470245,5.970376400607108,3.2882197119370002,-4.208887106723273,-4.338934379315875,28.31266866762308,-29.146820285548497,47.010895,54.5167580606384,0.0,47.010895000000005,0.8601862043889102,0.144159,-0.317783,0.371903,1.0,0.0,0.0,0.0,61.3250073197196
3.3817,960.0299,9.655761939894752,-14.864140464558055,11.382169311711923,6.77382152462649,3.6328714246624747,-4.110463283244892,-4.144164859749081,27.66149737311216,-28.78475202185509,42.160664,47.44391873890567,0.0,42.160664,0.8759280537258525,0.193997,-0.31540099,0.30925301,1.0,0.0,0.0,0.0,57.68999706207991
3.4006,960.0499,9.775404427236326,-18.08183800883788,8.607313220898238,7.552552961273774,3.7799121443360457,-4.050213839382961,-3.8384083416038717,26.90109969858008,-28.475320792158485,37.84568,40.5665247913166,0.0,37.845680000000016,0.8833101679426993,0.25039899,-0.31245399,0.24379499,1.0,0.0,0.0,0.0,55.911436028079606
3.4181,960.07,9.067009850076401,-20.708124254602573,4.828460565629836,8.195863777166482,3.8068155601368323,-4.020983903629457,-3.4239787141662266,26.21064732442531,-28.26715675869419,34.105778,33.940069622797694,0.0,34.10577799999999,0.8809253725483219,0.31252,-0.30878001,0.175945,1.0,0.0,0.0,0.0,56.49161439105882
3.4434,960.0901,7.355173369021333,-22.232210901489385,0.25815566241710997,8.599327225273626,3.6909976322356446,-4.0130633629879515,-2.9094025659587492,25.74737641354032,-28.19233452299146,30.385828,27.102491062350484,0.0,30.385828000000004,0.869198825815003,0.37717,-0.30275899,0.102826,1.0,0.0,0.0,0.0,59.268658082440695
3.4655,960.1101,4.5705915187057515,-22.213059406898235,-4.74477224093237,8.688141936636004,3.4211827409383284,-3.923763857674966,-2.3060287835257665,25.95978312726,-27.94864892344164,26.517729,20.03278435264039,0.0,26.517729000000003,0.8449432300954426,0.445292,-0.29545599,0.022175,1.0,0.0,0.0,0.0,64.6682920742185
3.4807,960.1302,1.32025183245639,-20.299319337975756,-9.000876079841014,8.38802711823034,3.0105893935788846,-3.7880632173360707,-2.0621526579073564,26.585231349408605,-27.72430343870043,22.367247,13.155711436112275,0.0,22.367246999999992,0.8100828042245678,0.51002002,-0.28329301,-0.058228,1.0,0.0,0.0,0.0,71.79195519658856
3.4962,960.1502,-1.6413519513320836,-17.110972021417673,-11.436340716458243,7.766717810664225,2.475137685498182,-3.5913797985091596,-2.260078165947501,27.166029646515877,-27.82470465857156,17.858166,7.3920820960264475,0.0,17.85816600000001,0.7702506363070916,0.56396902,-0.26898801,-0.127665,1.0,0.0,0.0,0.0,79.24719777840787
3.5156,960.1703,-3.961157494085245,-13.721286265815088,-12.179314964267933,6.993023582720725,1.805781735977688,-3.2902319156211752,-2.564492018917934,27.759427463659016,-28.05632900799629,13.136428,3.200455004262373,0.0,13.136427999999995,0.7273460913762442,0.60834801,-0.25806299,-0.185159,1.0,0.0,0.0,0.0,86.67126701829616
3.5416,960.1903,-5.725015830252982,-10.83746373985605,-11.881222308044979,6.229787997825417,0.9242512897127718,-2.8988925118596596,-2.4343340528865545,28.409833329636907,-28.263412483288636,8.467885,0.6777457050521349,0.0,8.467884999999995,0.6814290413001188,0.64371997,-0.256414,-0.23565,1.0,0.0,0.0,0.0,94.08917090218237
3.5601,960.2103,-7.006632061059366,-8.75323512076794,-11.247159600358579,5.544523645076127,-0.13223305102988606,-2.512740933262172,-2.159636470510143,28.98282491033308,-28.402744420986902,-176.012024,-0.32506388960880306,0.0,176.012024,0.6349659716496621,0.67155898,-0.260775,-0.27896801,1.0,0.0,0.0,0.0,101.16507861263932
3.5763,960.2304,-7.868319595473957,-7.4897428817278,-10.629205699252925,5.00072417410426,-1.3224475442601509,-2.2495605275636925,-2.671656942082853,28.571372077322668,-29.18838989416755,-177.389587,-0.5300700417747176,0.0,177.389587,0.6013710094749491,0.68735898,-0.26563299,-0.30875501,1.0,0.0,0.0,0.0,106.06369560055458
3.5981,960.2504,-8.368822508397711,-6.726767242669491,-10.289654387279487,4.673787236536359,-2.604916892750464,-2.1343115787149447,-4.58608520530214,26.59827513193968,-30.81577629533477,-176.251282,-0.9582884610211304,0.0,176.251282,0.5878034720508207,0.690449,-0.26876,-0.324862,1.0,0.0,0.0,0.0,107.99741927844529
3.6156,960.2704,-8.548970314371008,-5.898591004360636,-10.90087588095095,4.570493788407894,-3.8912292411341776,-2.1417166108514216,-6.664374581786452,24.532147295491452,-31.797557982527874,177.5065,0.7916455714766696,0.0,177.50649999999996,0.5693262086986857,0.69941902,-0.27646601,-0.33203501,1.0,0.0,0.0,0.0,110.59349281568629
3.6428,960.2904,-8.248498820154502,-4.616239609826333,-12.311423154856614,4.515082796095516,-5.1444894266739105,-2.251259428828619,-8.52676895473844,22.671744644480484,-32.13295653530701,167.093674,5.247644713638364,0.0,167.09367399999996,0.5413789682730202,0.71336901,-0.29302701,-0.33488601,1.0,0.0,0.0,0.0,114.4448787703025
3.6594,960.3105,-7.178781280288315,-2.8281248025085866,-14.097595804861989,4.317660751415915,-6.287350437892394,-2.350460384496867,-10.132788693673538,21.314279389553647,-31.925148332372192,156.182739,12.590141275278105,0.0,156.18273899999997,0.5035643714718699,0.72996002,-0.318589,-0.33478701,1.0,0.0,0.0,0.0,119.52780312961502
3.6809,960.3305,-5.2120515471986275,-0.7373969325786689,-15.711258995615779,3.7381260339902758,-7.278167163230194,-2.415409843592716,-11.332641449729202,21.103235792415916,-31.032615997770144,146.768784,23.0836959314926,0.0,146.76878399999998,0.4529365753691567,0.74505699,-0.354316,-0.337933,1.0,0.0,0.0,0.0,126.13550348929745
3.7276,960.3505,-2.4344135406277063,0.8424134122924518,-16.74929032185551,2.9603868838465193,-7.980478361370116,-2.3170257220368424,-12.657862274992493,21.22989666546616,-29.879855303547338,138.71196,34.540382860371345,0.0,138.71195999999998,0.4029466758205356,0.756769,-0.39164099,-0.333994,1.0,0.0,0.0,0.0,132.4749617419465
3.729,960.3706,0.6908425668135791,1.5609407412620573,-17.11941545509798,2.298718913862129,-8.33371894227538,-2.1262115540012285,-14.501388986551586,21.30069113123831,-28.572196833136083,132.664215,43.688633685870215,0.0,132.664215,0.3585643302144256,0.76878101,-0.42202899,-0.31984201,1.0,0.0,0.0,0.0,137.97589444339027
3.7413,960.3906,3.79380511389654,1.6242017289805837,-16.850199194358567,1.9137043352957264,-8.381307514723517,-2.0079712237475906,-16.558571952551326,21.503269913516196,-27.120802986477266,128.426651,50.379788932721574,0.0,128.426651,0.3130729415839058,0.78350699,-0.44600701,-0.29863,1.0,0.0,0.0,0.0,143.51096366840216
3.756,960.4106,7.1331557376268435,1.4009145404292735,-15.466133854246923,1.8769690087585422,-8.15897162448684,-2.1247945751115083,-16.275690169762118,23.01656528702258,-26.206418822113918,123.923531,57.48956883305567,0.0,123.92353100000003,0.2288140725400421,0.81044102,-0.476347,-0.25283,1.0,0.0,0.0,0.0,153.54547740065746
3.7783,960.4306,10.033131877037109,0.5133486738584887,-12.933146929126204,2.0383196196057645,-7.90711726006816,-1.8783150844773666,-14.376775095668568,24.118171866804705,-26.789242771386448,118.630692,62.88178127271667,0.0,118.63069200000001,0.1363591230957391,0.82850999,-0.51269603,-0.179221,1.0,0.0,0.0,0.0,164.32556253270374
3.7957,960.4507,11.991454150199267,-0.5798455715400097,-9.960727690304942,2.2767993542238134,-7.656456304091115,-1.4328423618092552,-12.874569812355084,24.917187883582287,-27.472338983230433,115.535057,65.39844510458005,0.0,115.535057,0.0483349179645465,0.83685201,-0.53499198,-0.10548,1.0,0.0,0.0,0.0,174.4590674513632
3.8177,960.4707,13.227046121589705,-1.723802997123106,-6.898705877437725,2.4492639297701473,-7.466951667162453,-0.7573414189091315,-11.89984707871077,25.24259553604466,-28.39700228339996,113.950035,66.08220359601717,0.0,113.95003500000001,0.028758608501801,-0.83774799,0.544258,0.033682,1.0,0.0,0.0,0.0,176.70405178669785
3.8373,960.4907,13.871315668680744,-2.951432990309434,-3.6119555190014037,2.3864024100623684,-7.347080675238834,0.13653839798108489,-10.769864083232516,25.22884325880182,-29.79804633007824,113.296181,65.88032176993745,0.0,113.29618099999999,0.0970545633906979,-0.83172101,0.54507297,-0.041425,1.0,0.0,0.0,0.0,168.86083164046786
3.854,960.5106,13.943306518739846,-4.250590668337577,-0.18397101393136062,2.033137619205072,-7.249301184003884,0.9720918149027387,-9.645923166442932,25.584388030311366,-30.994631028875457,114.057739,64.25279563688983,0.0,114.05773899999997,0.1659963297175534,-0.82158703,0.53379798,-0.111802,1.0,0.0,0.0,0.0,160.88976366093496
3.8754,960.5306,13.58704337027451,-5.551859361212808,3.137770745380953,1.3867765421464546,-7.193650745365424,1.5765829848561286,-8.993528422921495,26.33958471056839,-31.70785723902646,116.646652,60.36885326271675,0.0,116.64665200000002,0.2338041952316933,-0.81048399,0.50863701,-0.172452,1.0,0.0,0.0,0.0,152.9577106731743
3.9074,960.5506,13.3465630271589,-6.8020933047374275,5.896777702185117,0.4960932095458561,-7.242643506483391,1.865641041117995,-9.627916348961614,27.247362365931114,-31.71734450506422,120.400673,54.95991664773324,0.0,120.40067299999998,0.2882869476585435,-0.80124199,0.47807801,-0.215275,1.0,0.0,0.0,0.0,146.48914832188922
3.9288,960.5706,12.709834220648787,-7.773509762998106,8.686487984331428,-0.6702827351311103,-7.394051126339924,1.9873596032106249,-9.947420650350837,27.879766458714755,-31.697218509275373,126.166092,48.65213634725744,0.0,126.16609199999999,0.329534196750564,-0.79022598,0.44477201,-0.26292199,1.0,0.0,0.0,0.0,141.5189888452381
3.9438,960.5907,11.352583879016317,-7.940720800792391,11.663142892143565,-1.958268421329267,-7.57199267746717,2.0493037140538948,-9.608377995157323,27.920802890297537,-32.01096320200976,136.124481,41.01002822663242,0.0,136.124481,0.3544256945503806,-0.77877301,0.40553999,-0.32160899,1.0,0.0,0.0,0.0,138.4834987228273
3.9586,960.6107,9.10655638974464,-7.082612848290363,14.544611699557347,-3.1800734884506894,-7.737554049601864,2.044689838182685,-8.725566659109674,27.628449245083026,-32.412043664253055,151.01355,30.637012724423407,0.0,151.01355,0.3672296711858669,-0.766307,0.35737199,-0.38755801,1.0,0.0,0.0,0.0,136.91026989002506
3.9762,960.6307,6.047119891078314,-5.327697619086436,16.79439114520899,-4.2314535165509275,-7.87508969597436,1.9521567390791286,-7.620468365830856,27.384033377372134,-32.50606134754302,168.002014,15.855622868568057,0.0,168.00201400000003,0.3717186424319874,-0.75139099,0.30139399,-0.45431101,1.0,0.0,0.0,0.0,136.35670095846046
3.9964,960.6508,2.400115737644428,-2.8175080567422732,17.97178508407865,-5.073705797222589,-7.963287551715069,1.8039963323031536,-6.663634769445431,27.23115200013367,-32.23202176266719,-177.087814,-5.120630301073542,0.0,177.087814,0.3679983150327167,-0.73438603,0.23831201,-0.51813298,1.0,0.0,0.0,0.0,136.81555791184257
4.0182,960.6708,-1.7696317472546474,0.21791083999882765,17.753554145409055,-5.754127192270225,-7.949849287312398,1.5782707893294505,-5.744584848573179,27.103915058700075,-31.77609087411634,-166.139359,-32.492080534648515,0.0,166.139359,0.3544167346391519,-0.71299702,0.16907801,-0.58089298,1.0,0.0,0.0,0.0,138.4845967291373
4.0451,960.6908,-6.027557995685481,3.3051245811075862,15.90722523817821,-6.232984447621244,-7.841924161522909,1.223897257711759,-5.120387988007543,27.01377416928234,-31.206445030808982,-158.881195,-61.025528011698,0.0,158.881195,0.3319287537068151,-0.68648398,0.095179,-0.639925,1.0,0.0,0.0,0.0,141.22823026204998
4.0605,960.7108,-9.793755623007689,5.968918808430493,12.53020216927105,-6.438223759467523,-7.688001496079609,0.7612188423744932,-5.085726225438511,26.829983597579186,-30.717867724049558,-154.234024,-83.9150298192502,0.0,154.234024,0.3015794697188113,-0.65580702,0.017306,-0.69185799,1.0,0.0,0.0,0.0,144.89501108428672
4.0853,960.7309,-12.522921089185676,7.87949017173879,8.091126668829428,-6.445881458028748,-7.458939325919397,0.21483037506040825,-5.350691459278567,26.63729917560785,-30.39104862857034,-151.933884,-101.42922906116027,0.0,151.933884,0.2613125889862931,-0.62091798,-0.057786,-0.73677498,1.0,0.0,0.0,0.0,149.70407842475421
4.1036,960.7509,-13.979323867178193,8.812530430143607,3.3141225630431457,-6.312881778988185,-7.170564343057038,-0.46265613984600445,-5.709644105680454,26.798589268276864,-30.03040138683466,-151.5112,-116.13264816101672,0.0,151.5112,0.2145230655083028,-0.580661,-0.123508,-0.77560198,1.0,0.0,0.0,0.0,155.2249037615073
4.1245,960.7709,-14.258435925511215,8.918448018575852,-1.1997050875240571,-6.056993266615587,-6.864223262397612,-1.272604281823822,-6.191578406328215,27.382433295909703,-29.622531336238822,-152.613052,-129.23173100601088,0.0,152.613052,0.164489441786027,-0.53510702,-0.17835,-0.80919403,1.0,0.0,0.0,0.0,161.0648472069846
4.1488,960.791,-13.550502001485555,8.598680168975907,-5.120404520223829,-5.69442308997844,-6.5932684735940414,-2.0713469439743224,-7.042607380953513,27.945843254819852,-29.529242736668117,-155.071991,-140.77543160208847,0.0,155.071991,0.1103886569897465,-0.489122,-0.226382,-0.83506,1.0,0.0,0.0,0.0,167.32455916228983
4.1711,960.811,-12.092826228453834,8.18052854750982,-8.372113362553922,-5.2736885727239535,-6.379623597356025,-2.7895953471010513,-7.949786599581669,28.26917914098844,-29.967000633217477,-159.207382,-151.6421117944697,0.0,159.207382,0.0493692138000981,-0.44517201,-0.26840901,-0.85284299,1.0,0.0,0.0,0.0,174.34040419278026
4.1918,960.831,-10.094532843680748,7.823367254799684,-10.982600486077793,-4.820998552835015,-6.219877047074995,-3.440665407203245,-8.286587371373715,28.453127106099846,-30.791499437311792,-165.710541,-162.8679857414079,0.0,165.710541,0.0199454241118087,0.402459,0.301424,0.86416,1.0,0.0,0.0,0.0,177.71427118708638
4.2038,960.851,-7.791408322978672,7.510346829047805,-12.966660688177987,-4.305969463708994,-6.127816424326386,-4.050795505600125,-7.911664340122117,28.58362477103113,-31.635900790898088,-174.850372,-174.50680098835232,0.0,174.850372,0.0934435141187431,0.3592,0.32341999,0.87042701,1.0,0.0,0.0,0.0,169.27651756588438
4.2174,960.8711,-5.422965511690563,7.211115007960403,-14.366356069923794,-3.718266209428957,-6.131255139287968,-4.590928195726523,-7.35508743879824,28.448330103183352,-32.302693353592694,174.040482,174.2549337362808,0.0,174.040482,0.1654377456437294,0.31635201,0.33709601,0.87115902,1.0,0.0,0.0,0.0,160.9546701210588
4.243,960.8911,-3.218415648935901,7.23455779473489,-14.863703767671385,-3.2107094079452487,-5.947099811592064,-5.292898208604795,-7.829646938537918,29.518580900888306,-31.12794468598444,163.908615,164.785242263716,0.0,163.908615,0.2228756479945702,0.29152501,0.32541299,0.87146199,1.0,0.0,0.0,0.0,154.24401999948012
4.2656,960.9111,-0.86064283348973,7.489036731459217,-14.964906154722955,-2.6669141004924777,-5.574870243967791,-6.120019677012898,-7.886027365663585,30.83706603826581,-29.27573509734017,153.241135,154.27971268357905,0.0,153.24113499999999,0.2837940914385622,0.269761,0.29710299,0.87087297,1.0,0.0,0.0,0.0,147.02644176947643
4.2774,960.9312,1.7804504701839754,7.688762158724586,-14.655800176374623,-2.0056711000539256,-5.062149450495572,-6.923281117198098,-7.367804085801728,31.921413656983926,-27.361762414299093,142.114899,142.53968165651506,0.0,142.11489900000004,0.352307458124264,0.247945,0.257415,0.86495101,1.0,0.0,0.0,0.0,138.742970660373
4.2973,960.9512,4.600021694595548,7.546797140091919,-13.740375228251432,-1.1881990097733632,-4.462470277064957,-7.581109182855387,-6.525336199843075,32.721494126990834,-25.543071070501597,131.221909,130.34879534772523,0.0,131.22190899999998,0.4254169794448737,0.2272,0.207976,0.850968,1.0,0.0,0.0,0.0,129.64588059226872
4.3267,960.9712,7.288977754088516,6.902966490327888,-11.984042471577578,-0.12884421622069642,-3.823221239500679,-8.021825270105225,-5.467400511311855,33.30672415920115,-23.84310970546619,121.082428,118.81429425194949,0.0,121.082428,0.4975392839857168,0.20446999,0.147011,0.83008099,1.0,0.0,0.0,0.0,120.32533312668416
4.3455,960.9912,9.438771190827376,5.688814425037424,-9.372250723584896,1.1148620793046564,-3.240076986811585,-8.154406004959629,-4.143136755721018,33.616103322529,-22.41671591216551,111.492554,108.46931766826587,0.0,111.49255399999998,0.5665259114048357,0.179143,0.07615,0.80072302,1.0,0.0,0.0,0.0,110.98335889591156
4.368,961.0113,10.709232938187924,4.078728380141003,-6.245322032684069,2.342040291101572,-2.8125675385562534,-7.975138220617618,-3.0558838626337756,33.53986773393496,-21.38233811140167,102.541016,99.7469143604349,0.0,102.54101600000001,0.6273836827559033,0.155692,0.002858,0.76298201,1.0,0.0,0.0,0.0,102.28528382111269
4.3817,961.0313,11.218605221791378,2.313502110945316,-3.019927778182284,3.306302285432495,-2.5416552425528707,-7.632283688638837,-2.7106029586562412,33.14586775645907,-20.784385970258967,94.121025,92.32860812760077,0.0,94.12102500000003,0.6782030362182846,0.14091501,-0.065414,0.718265,1.0,0.0,0.0,0.0,94.59323791768479
4.3981,961.0513,11.22131320144688,0.38596264703216077,0.3452420895644135,3.99655671995484,-2.303197063815576,-7.2543450044676225,-2.8756905263830657,32.69566063592489,-20.616523704009232,85.95134,85.91312897777311,0.0,85.95134000000002,0.7196438875256012,0.133209,-0.13194799,0.668549,1.0,0.0,0.0,0.0,87.94982608878145
4.4174,961.0714,10.693776573962378,-1.8486342002724516,4.00630301079077,4.521837775283942,-1.939724336822227,-6.837089603712257,-3.1754032210522816,32.31408890143224,-21.085094246819956,78.068871,80.78023369334991,0.0,78.068871,0.7504358201174565,0.12698799,-0.200124,0.61698502,1.0,0.0,0.0,0.0,82.74371182794096
4.4563,961.0914,9.553556876953825,-4.609843776538385,7.721859785817845,4.918276811656794,-1.3676252899910102,-6.3489521845597325,-3.122265728543372,32.075381977557555,-22.242555670881664,70.076965,76.39675838658157,0.0,70.076965,0.7735046462575903,0.121362,-0.26646,0.56210399,1.0,0.0,0.0,0.0,78.66069066434603
4.4609,961.1114,8.443179796733595,-8.155033472446057,10.615136620764886,5.072373947059628,-0.5440626633279133,-5.919726021663475,-3.024480199930622,32.3083270453463,-23.28942257388961,61.679478,70.81648679929346,0.0,61.67947800000002,0.7970731686741311,0.13006,-0.317002,0.49726099,1.0,0.0,0.0,0.0,74.29697497820163
4.4835,961.1314,7.459138045360922,-12.139570886788496,12.350546705970341,5.2590750949553104,0.4520043172444441,-5.426277947032391,-2.863748788233506,32.91457099989265,-23.89127130728186,53.852116,64.5528400237871,0.0,53.852115999999995,0.818113192055219,0.14998899,-0.35375401,0.42784601,1.0,0.0,0.0,0.0,70.20727873341546
4.5029,961.1515,6.978933962482015,-15.98730332966981,12.806318700640507,5.61826266137108,1.4764919132781342,-4.879677789956764,-3.0306546786158464,33.52321676043015,-24.050651937769477,47.759224,58.45586563140063,0.0,47.75922400000002,0.8334383996180641,0.180335,-0.37599599,0.362611,1.0,0.0,0.0,0.0,67.09283574849346
4.5186,961.1715,7.126385235337767,-19.342664293863944,12.165687509942476,6.188969560954066,2.341254810429621,-4.409241106688134,-3.4313941825736354,33.71054767015114,-24.091197115043478,43.259094,52.56159919327687,0.0,43.259094000000005,0.8444164211670565,0.21675301,-0.38454399,0.30348799,1.0,0.0,0.0,0.0,64.78107191303575
4.5404,961.1915,7.535089839473292,-22.3619317238549,10.442377520089462,6.945965194067279,2.955907094497064,-4.125904795395768,-3.716691391231116,33.452962035682056,-24.073511121612675,39.488361,46.4002865789499,0.0,39.488361,0.8523067235824318,0.25804099,-0.383396,0.24494,1.0,0.0,0.0,0.0,63.0730903933351
4.5605,961.2115,7.254185379009684,-25.447632253148367,7.209708509053435,7.842890979628935,3.316482215239424,-3.8963087239937555,-3.2671560930288486,33.2474881742954,-23.594890941745536,35.890499,40.01310946188383,0.0,35.890499000000005,0.8524429832937096,0.30823699,-0.38277099,0.17837401,1.0,0.0,0.0,0.0,63.04323137714759
4.5761,961.2315,5.713894570693526,-28.06042549701877,2.3546988889212166,8.7099638726216,3.346747630977352,-3.6429373131710587,-2.0991065388433263,33.12028191558588,-22.85461727635672,32.230171,33.16460109867844,0.0,32.230170999999984,0.8426665614780497,0.36552501,-0.38231301,0.100704,1.0,0.0,0.0,0.0,65.15443503303909
4.5965,961.2515,3.1107644767706573,-29.07161093672795,-3.5935805142885044,9.292178672078553,3.0621419884633605,-3.403022902717813,-1.0245740944548611,32.902837986902355,-22.258978276306685,28.815653,25.97699613086613,0.0,28.815652999999998,0.8226148640784824,0.42660701,-0.375496,0.01772,1.0,0.0,0.0,0.0,69.30517028938313
4.6233,961.2715,-0.0807495600393402,-27.761061710873403,-9.809036078358455,9.445368065625019,2.570601656690479,-3.0747265080036916,-0.4555567211106667,32.88837566421961,-21.640683487008165,27.071737,19.575043386597272,0.0,27.071736999999985,0.7882246831379107,0.49270701,-0.363305,-0.062858,1.0,0.0,0.0,0.0,75.96017296216118
4.6411,961.2915,-3.3810881864856426,-24.15045041849561,-15.05124630740037,9.180763225459353,1.81933025181012,-2.5885765493368695,-0.07446690319175686,33.21186940111327,-20.943853421906944,29.914873,15.152323941588728,0.0,29.914873,0.7380211231908874,0.55965197,-0.351803,-0.13545901,1.0,0.0,0.0,0.0,84.87376530856167
4.6577,961.3115,-6.1666072263262155,-19.349602137788725,-17.989608577266846,8.533522200582535,0.768502596645407,-2.1836714948027405,-0.2274827845142804,33.38350317198297,-20.918073128212924,42.378689,12.41116031982629,0.0,42.37868900000001,0.6844945084936767,0.615444,-0.339459,-0.193555,1.0,0.0,0.0,0.0,93.60826787008351
4.6789,961.3314,-8.34547869319073,-14.575012582248382,-18.936867013075656,7.64142352139951,-0.6000807781904576,-1.9626341104964689,-0.816217876318817,33.35899030541013,-21.5128950720194,81.182159,11.135018718124352,0.0,81.18215900000001,0.6334031282665408,0.657754,-0.33014199,-0.239095,1.0,0.0,0.0,0.0,101.3967043087773
4.6968,961.3514,-9.70810431601279,-10.198128986072737,-19.159159054165237,6.638849257958409,-2.2019739173521526,-1.8891649087513,-1.328287813317134,33.51022454999172,-21.930390341696146,127.717667,12.890011227559336,0.0,127.717667,0.5784500614651014,0.69452602,-0.33059901,-0.271539,1.0,0.0,0.0,0.0,109.31679619859989
4.7251,961.3714,-10.00909702010528,-6.344091748836141,-19.379314231175048,5.619511330481027,-3.829595052902004,-2.055100061652869,-1.903637958834814,33.79386368808378,-21.971150207101463,139.257217,17.94743471635267,0.0,139.25721699999997,0.5206591390070473,0.72879201,-0.339522,-0.28723001,1.0,0.0,0.0,0.0,117.24704873952903
4.7423,961.3914,-9.04589296438225,-3.0748287558015575,-19.882290225835238,4.741386261975253,-5.273375603694342,-2.4274616175550676,-2.6612185703353095,33.93272123058133,-21.842784581511367,138.433853,25.617765096585202,0.0,138.433853,0.4628241002640418,0.761383,-0.35618901,-0.281459,1.0,0.0,0.0,0.0,124.86101558245339
4.76,961.4114,-6.787118711571237,-0.22914031834024007,-20.488695856197342,4.023732648484641,-6.462207109129561,-2.9006865009392238,-2.925481922162227,33.971878226486034,-21.55215364365752,133.49173,35.35128669942403,0.0,133.49172999999996,0.4002410340427621,0.78927398,-0.38633299,-0.260001,1.0,0.0,0.0,0.0,132.8135049136557
4.7791,961.4314,-3.402128650764452,2.0319339897671322,-20.603927530726303,3.3638773243070164,-7.3225188690880545,-3.37721865812476,-2.4133372846679837,34.199623977540185,-20.87995234550183,127.307663,46.13845067272561,0.0,127.30766299999999,0.3285658264404554,0.80802298,-0.43035901,-0.23223799,1.0,0.0,0.0,0.0,141.6364998076238
4.7987,961.4514,0.29578186352292324,3.208396895687644,-19.788770037204735,2.636515840216064,-7.821669847251957,-3.8012363004164578,-1.8922158237441025,34.71427015447153,-19.76819328165006,121.446503,56.09252501682883,0.0,121.446503,0.2556689412047129,0.81231803,-0.479298,-0.21224099,1.0,0.0,0.0,0.0,150.37354666919418
4.8226,961.4714,3.876260579280357,3.504619050106606,-18.018679397899103,2.1944716888637057,-7.790000197271894,-4.311259577903604,-1.642550980773347,36.17384781632733,-16.940119504053435,117.346733,63.982743705105854,0.0,117.34673299999997,0.1624838918147256,0.81562698,-0.52013201,-0.19445901,1.0,0.0,0.0,0.0,161.29780060910568
4.8461,961.4914,7.1199653470707505,2.5597240919423903,-15.277310803656405,2.3597157064934238,-7.659065501616215,-4.170241414515891,-0.8791329632798863,37.03963691649909,-15.386576533633553,112.383614,69.2104546839308,0.0,112.38361399999997,0.0643313951140428,0.81577802,-0.55843598,-0.136077,1.0,0.0,0.0,0.0,172.62307088863847
4.8643,961.5114,9.123648794873235,0.9775800580269822,-11.781018078675347,2.722009670983224,-7.496657221723976,-3.5856300426098686,-0.013413432224320232,37.58276321194183,-14.781989989671583,108.074379,72.23072454239175,0.0,108.07437900000002,0.0327534452621116,-0.80698597,0.58637297,0.06219,1.0,0.0,0.0,0.0,176.24606024277796
4.8873,961.5314,9.773533784020069,-0.8424035039773536,-8.193852384879643,2.9902808192822676,-7.29717135709828,-2.8006217438179726,0.7517953775516801,38.05395111806183,-14.47503308463476,104.626328,73.56887217497331,0.0,104.626328,0.1270083286047812,-0.78950101,0.600393,-0.009235,1.0,0.0,0.0,0.0,165.40650189056151
4.8966,961.5514,9.51607056498112,-2.8036212124311266,-5.076492081837351,2.98645772452086,-7.1243220235943685,-2.0003445699046183,1.3611920998129614,38.52359682598235,-14.207226734590149,101.600044,73.4081915845365,0.0,101.60004400000003,0.2154710197289184,-0.765674,0.60179901,-0.071788,1.0,0.0,0.0,0.0,155.11367508868085
4.9335,961.5714,8.927003689810206,-4.8386263543015415,-2.590699616827899,2.6605546246514735,-7.04330009592406,-1.3312932714786525,1.6427666907703957,38.97011630567096,-14.086506172310752,98.970276,71.52973482195439,0.0,98.97027600000001,0.2941175460739104,-0.73983097,0.59180802,-0.126128,1.0,0.0,0.0,0.0,145.79074175425694
4.942,961.5914,8.361809294789701,-6.87544059916018,-0.5154499368245844,2.033881797300487,-7.0875870990034,-0.889433872551654,1.6287607570241853,39.340607497579036,-14.347776505255801,96.995323,67.85932665753725,0.0,96.99532299999998,0.3599983531721211,-0.71486998,0.57270402,-0.177122,1.0,0.0,0.0,0.0,137.79981022636667
4.9574,961.6114,7.7864146762248545,-8.8840023994341,1.5100377935708647,1.183777346742268,-7.241652526045452,-0.737209249606108,1.5111916662491494,39.658422744009464,-14.928318807581903,96.034584,62.177939391889225,0.0,96.034584,0.4146081670038824,-0.69045198,0.54619402,-0.230322,1.0,0.0,0.0,0.0,131.0107133614192
4.9834,961.6314,6.983492446182279,-10.813534650503906,3.6978549200609674,0.23581164857789488,-7.464045620134775,-0.8884123231723511,1.3453189828989025,39.94038569661289,-15.668639162079089,97.026093,53.65794869884158,0.0,97.026093,0.4593164929651877,-0.66565102,0.51304901,-0.28760701,1.0,0.0,0.0,0.0,125.3139783325492
4.9977,961.6514,5.759821322821393,-12.701803919642868,5.93925000130589,-0.7303931844929571,-7.710692217198953,-1.334731519171073,1.299104268298898,40.25209084419405,-16.150240665249203,101.15258,41.58622672114836,0.0,101.15258,0.4944324940858963,-0.63773,0.478634,-0.346044,1.0,0.0,0.0,0.0,120.73532936744836
5.0164,961.6714,3.8703147382794527,-14.383632461399245,8.144368219611422,-1.7046531777247091,-7.9334294856469505,-1.9292666549036248,1.7000845213188251,40.49152271479075,-16.336083744969528,119.072136,23.909401437315484,0.0,119.072136,0.5172323779044381,-0.60587698,0.44642001,-0.407545,1.0,0.0,0.0,0.0,117.70642538504586
5.0384,961.6914,1.0820492352362572,-15.465002977087597,10.224503439166764,-2.611977932224981,-8.098694958771809,-2.5385229348883405,2.466064212596,40.55875384971134,-16.286908604499672,-162.412659,-8.649729720296218,0.0,162.412659,0.529115452839888,-0.57082999,0.411412,-0.47426799,1.0,0.0,0.0,0.0,116.10858199418632
5.0611,961.7114,-2.6313394423048617,-15.595858976067499,11.84705285311319,-3.412355556365542,-8.16792344900991,-3.121906161129176,3.416977689375587,40.44189760334198,-15.980220360186603,-131.321777,-54.49292781023472,0.0,131.321777,0.5307550891965708,-0.53247899,0.37136701,-0.54484099,1.0,0.0,0.0,0.0,115.88702526074259
5.0831,961.7314,-6.952671607488831,-14.493622720935665,12.586219037670876,-4.006463147170312,-8.13819263818852,-3.6664019659843468,4.136043768694219,40.12630026914305,-15.58050207603149,-126.722084,-84.37420264736832,0.0,126.722084,0.5232669924260075,-0.49224201,0.32278201,-0.61619902,1.0,0.0,0.0,0.0,116.8966977233851
5.1013,961.7513,-11.355981272664291,-12.13063171998009,12.039410581395241,-4.383405610795431,-7.9972481371662045,-4.161732554700739,4.607266594996828,39.60821547440357,-15.267605036836539,-127.571022,-100.70084514840165,0.0,127.571022,0.5046077205089115,-0.45016801,0.26731399,-0.68648601,1.0,0.0,0.0,0.0,119.38936912076149
5.1183,961.7713,-15.063544045438167,-8.954034687282615,10.026483050100335,-4.5788991591337,-7.703781394603038,-4.643848481126486,4.843104233024411,39.07983664505295,-14.823043276014106,-130.360825,-112.23002418917751,0.0,130.360825,0.474316930869139,-0.40555999,0.212486,-0.75192702,1.0,0.0,0.0,0.0,123.3702304396497
5.1364,961.7913,-17.45859308426509,-5.514914298717477,6.854989356961191,-4.562519454795165,-7.301118983934408,-5.085333735359361,4.627036409685914,38.68396976328906,-14.34124694925233,-134.084274,-121.61539919566876,0.0,134.084274,0.4348862899807715,-0.359972,0.16009299,-0.80973101,1.0,0.0,0.0,0.0,128.44388289008575
5.1589,961.8113,-18.378039911498686,-2.256876559696254,3.017538151241947,-4.34075165810952,-6.8411472684997605,-5.426969330805066,4.001453289363402,38.44701388429476,-14.137855054180516,-138.495987,-129.99371920488412,0.0,138.495987,0.3876697778897389,-0.31456199,0.10909,-0.85957098,1.0,0.0,0.0,0.0,134.38083266645705
5.1862,961.8313,-17.968597424151493,0.45936579697323054,-1.0544944671545657,-3.9590509663600018,-6.280318356338643,-5.69477111048875,3.322229937515022,38.43597048903179,-14.180167115505196,-143.600311,-138.1944476968516,0.0,143.600311,0.3331766054416479,-0.26734501,0.062042,-0.90203702,1.0,0.0,0.0,0.0,141.0766073028933
5.2049,961.8513,-16.486802604653597,2.386898989180338,-4.890683727204836,-3.4161932578680654,-5.588291498410067,-5.927153399565046,2.6854974692238915,38.66464868094243,-14.416589551428292,-149.283554,-146.25232431355835,0.0,149.283554,0.2741506034196165,-0.217783,0.021014,-0.93646699,1.0,0.0,0.0,0.0,148.1771958469313
5.2187,961.8713,-14.288079408120119,3.5273084489318967,-7.955640191735341,-2.738215333193798,-4.7737785426239405,-6.13716518174046,2.0133583596818703,39.04608558848408,-14.865792200141922,-155.47525,-154.03407348117375,0.0,155.47525,0.2133825223084582,-0.169772,-0.011822,-0.96203202,1.0,0.0,0.0,0.0,155.35869854530756
5.2426,961.8913,-11.808589621751139,4.140829011872065,-9.926886206853986,-1.9825549336844337,-3.918963740706385,-6.3175858642008,1.3824750559152097,39.38205111630664,-15.684796099239987,-162.194046,-161.64598297754674,0.0,162.194046,0.1511487448107974,-0.128621,-0.037154,-0.97940302,1.0,0.0,0.0,0.0,162.6129922782321
5.2611,961.9113,-9.406200707467896,4.5411913235359656,-10.768701562163988,-1.1983433400401025,-3.078857180759923,-6.511306431446353,1.0119106507501145,39.692878106380505,-16.430694932645956,-169.432526,-169.2918087458666,0.0,169.432526,0.087312918492283,-0.095897,-0.051194,-0.99023199,1.0,0.0,0.0,0.0,169.98192006237613
5.2792,961.9313,-7.257880960425456,4.940965626100824,-10.664806749302162,-0.46996283464108346,-2.3587549777286445,-6.698310781136998,0.9047594104250054,39.95472669530589,-16.88429220827186,-177.017929,-177.000039223922,0.0,177.017929,0.0219286448350056,-0.074701,-0.0543,-0.99548501,1.0,0.0,0.0,0.0,177.48696096796485
5.2958,961.9513,-5.336084391546354,5.400886959628735,-9.56239297647158,-0.1376560410949576,-1.5668313017541713,-6.920838734542042,0.47402156335231993,40.735074733959856,-15.527123467917006,175.270279,175.20687416337904,0.0,175.27027899999996,0.0440255571003926,0.085377,0.031023,0.994892,1.0,0.0,0.0,0.0,174.9534116206373
5.3185,961.9713,-3.505929347928892,5.739268292925586,-8.411315758653243,0.18508146672207387,-0.9510342476117988,-7.086399912656638,0.5203828420553958,41.30608736572224,-13.986809449991133,167.288422,167.04394738299095,0.0,167.28842199999997,0.1116265274472837,0.097454,0.004254,0.98895103,1.0,0.0,0.0,0.0,167.18182750247385
5.3413,961.9913,-1.784819864657672,5.846298070170466,-7.344885907350429,0.5463251992684973,-0.4510692921652537,-7.178011660418692,0.992695811478308,41.640977134069665,-12.432966122648034,159.007141,158.55361543081662,0.0,159.007141,0.1804206775963318,0.107156,-0.0259,0.97739202,1.0,0.0,0.0,0.0,159.21147192522847
5.356,962.0113,-0.26811438419939426,5.641740758440037,-6.349140155026902,0.9767024768500908,0.018328783440225004,-7.191576043473001,1.633407019887013,41.76830665767886,-10.847765542583886,150.60495,150.05935689704938,0.0,150.60495000000003,0.2479570806045656,0.114766,-0.060432,0.96004897,1.0,0.0,0.0,0.0,151.2866887873046
5.3813,962.0313,0.9232719603302644,5.147129390843778,-5.384678182053309,1.534126898894628,0.466153250134608,-7.119150566845811,2.092773605273603,41.656810094697406,-9.47918386907828,142.542969,142.2208498796436,0.0,142.54296899999997,0.3098847557820806,0.118276,-0.097103,0.93837798,1.0,0.0,0.0,0.0,143.89542904251428
5.4005,962.0513,1.9038735675365923,4.3497502281138445,-4.3344622088794456,2.112727685235511,0.927869076688199,-6.969818456684995,2.5050835479262474,41.37632744117358,-8.143681082396299,134.257065,134.4964549401662,0.0,134.257065,0.3695526918944031,0.126058,-0.137058,0.91035998,1.0,0.0,0.0,0.0,136.62393343113501
5.4185,962.0713,2.7409194850636442,3.1939620356779326,-3.1376282412122354,2.688596536003711,1.3803119902022383,-6.734003944023846,2.849588716508677,40.936909402742046,-6.894465613601206,125.643028,126.84655116106474,0.0,125.64302800000002,0.4267634293938503,0.138752,-0.179232,0.875498,1.0,0.0,0.0,0.0,129.47533221485003
5.4421,962.0913,3.410791765172828,1.646243695268021,-1.761774242004222,3.2854109892772336,1.7951898035018172,-6.378747704078805,2.8394752837083796,40.373471894963984,-6.0236076776307135,117.26741,119.90235034309156,0.0,117.26740999999998,0.4773598414777472,0.15198,-0.221211,0.83671701,1.0,0.0,0.0,0.0,122.97377879694514
5.4608,962.1113,3.931781230542219,-0.353074370934372,-0.24109355185069603,3.901778563204418,2.1532378083298376,-5.86771339630636,2.5030249778311457,39.78750568673029,-5.809034803373832,109.352913,113.83536636233264,0.0,109.352913,0.520761600264343,0.16360199,-0.261114,0.79615402,1.0,0.0,0.0,0.0,117.23329597398514
5.4807,962.1313,4.37825973619211,-2.9436130754763883,1.2408761779883193,4.4932299206408945,2.4269069502383904,-5.1819400437413385,2.2361322045561023,39.32777892223471,-6.194030610926801,101.55822,108.07074389220075,0.0,101.55822,0.5603005516950701,0.177,-0.29846001,0.752101,1.0,0.0,0.0,0.0,111.84682911476625
5.4973,962.1513,4.912982916159137,-6.236616450035813,2.2849771311807068,4.965662165291274,2.6519565063662176,-4.350875167906755,1.9173787716417516,39.18142258634265,-6.590821000689327,94.219574,102.15883370806529,0.0,94.21957399999997,0.5948302298196518,0.20369101,-0.332158,0.70310599,1.0,0.0,0.0,0.0,106.99893897064851
5.5215,962.1712,5.286183259707708,-9.835815767806922,2.7872389175224406,5.443806265036901,2.7045915603632666,-3.3877080939631004,1.8932113024286195,39.22041987031313,-7.348062056526092,87.767647,96.49517421612241,0.0,87.76764700000001,0.6238240276422669,0.23425201,-0.36056501,0.65265799,1.0,0.0,0.0,0.0,102.80814766286241
5.5363,962.1912,5.284319422719108,-13.019728165131136,3.1262230600803242,6.0215962259227345,2.594816721001374,-2.361623627536176,2.1377416455299083,39.150754403476526,-9.075877982370459,82.863892,92.11291130526244,0.0,82.86389200000002,0.6443239439788808,0.258277,-0.38262501,0.609703,1.0,0.0,0.0,0.0,99.76998796188649
5.5565,962.2112,5.362669172164715,-15.726789328476926,3.070361412303207,6.63971485011977,2.6158737827911436,-1.3918879003299085,1.9632619969227578,39.11841278615153,-10.47284759358502,80.140846,89.04847036836482,0.0,80.14084600000001,0.6500067100007199,0.29265201,-0.403501,0.573614,1.0,0.0,0.0,0.0,98.91578443862682
5.5809,962.2312,5.698366491642556,-18.101860243614233,2.1994921991281853,7.252319506932072,2.8509500762527535,-0.5704210872081571,1.5005015698282858,39.33384575545362,-10.602752736763414,79.303421,86.56080179657513,0.0,79.30342100000001,0.6405016594684972,0.34536999,-0.42725801,0.53658903,1.0,0.0,0.0,0.0,100.34152567882407
5.6055,962.2512,5.940417293332954,-20.060365694934944,0.5529986473007558,7.80302236621884,3.1780696494945166,0.10824618009589221,1.5336848112485804,39.667924076562436,-9.837924359621802,79.439133,84.07293129092751,0.0,79.43913299999997,0.6209626505354727,0.40663299,-0.45375499,0.49311399,1.0,0.0,0.0,0.0,103.22706711435758
5.6287,962.2712,6.17550215059517,-21.345168481892756,-1.7003475531710261,8.195392773434909,3.5669163091145055,0.5732423129756459,1.8423200764326166,39.94098286729105,-8.912638967206634,80.653587,80.76221709189825,0.0,80.65358700000002,0.596940921950422,0.47229701,-0.47330201,0.443376,1.0,0.0,0.0,0.0,106.69775989242916
5.6391,962.2912,6.420228147687498,-21.777440420197728,-4.394886554471379,8.372284667366467,3.9842230173153808,0.8265805029151494,2.069195491582506,40.0943081290904,-8.164132010033534,83.231987,76.30829900705115,0.0,83.231987,0.5705876685958601,0.54017103,-0.48124599,0.388648,1.0,0.0,0.0,0.0,110.4175683105384
5.6567,962.3112,6.491311934749712,-21.321689118080226,-7.305920323611355,8.301669066935183,4.347218847580753,0.9446439374509792,2.1031212051244617,40.154851676653735,-7.567617937884072,87.309723,70.97484995180173,0.0,87.30972300000002,0.5410358655759145,0.60757297,-0.478892,0.32984501,1.0,0.0,0.0,0.0,114.49163484324409
5.7171,962.3312,6.108874114701964,-20.13946480171861,-10.257861472086145,7.998608029166014,4.524341627880317,1.0450634815769138,2.193557427669397,40.253345626132344,-6.690689778568602,92.827705,65.31028671483755,0.0,92.82770499999998,0.5052105058771634,0.67238098,-0.47168499,0.26491401,1.0,0.0,0.0,0.0,119.30934558328764
5.7176,962.3512,5.278721687209231,-18.47763859623517,-12.74181870051229,7.507987026091256,4.490385070860388,1.1292026271538882,2.3815514843058168,40.4084478738129,-5.789309721772487,99.542442,59.707125103132455,0.0,99.542442,0.4656137672571549,0.73001999,-0.459721,0.19731,1.0,0.0,0.0,0.0,124.50009751007607
5.7196,962.3712,4.186029440435278,-16.74761151907135,-14.296469648913547,6.92054828948362,4.292854977500687,1.1585304898303512,2.646776312545752,40.54719208933801,-5.548007051170956,106.552505,54.595228098699735,0.0,106.552505,0.4292277186592212,0.77534002,-0.443205,0.134836,1.0,0.0,0.0,0.0,129.16288157883704
5.7452,962.3912,3.038252263657022,-15.198590167136036,-15.167495411510686,6.349585657436295,3.9824246736825692,1.1576524689542418,2.9050161814250153,40.706408463744744,-5.747943583444863,113.578468,50.049344177881004,0.0,113.57846799999999,0.3957110574982455,0.81083101,-0.424014,0.0786,1.0,0.0,0.0,0.0,133.379343448836
5.7625,962.4112,1.9550392935567769,-13.842357779709213,-15.703752370175,5.881488990693613,3.602101064336726,1.1470945988127288,3.0682769564964136,40.93362246199334,-5.976737362046887,120.58712,46.03610144446847,0.0,120.58712000000003,0.3620479574947488,0.83991998,-0.40331599,0.028141,1.0,0.0,0.0,0.0,137.54795703064983
5.7758,962.4312,0.8684179052923342,-12.56794742633956,-16.194246631273195,5.5861345638500595,3.1547455735168244,1.0911359367219062,3.2137041695523756,41.240414157707335,-5.779017574635434,127.47654,42.47992673063032,0.0,127.47654,0.325203447496148,0.864667,-0.38228101,-0.021329,1.0,0.0,0.0,0.0,142.04419750855894
5.8028,962.4512,-0.15233732494969754,-11.34718899096623,-16.558381763206324,5.469695197254995,2.707805936907604,0.9378541193388243,3.1616608202380725,41.513474957098595,-5.565636979019741,133.732117,39.345776629783025,0.0,133.73211700000002,0.2884251595255513,0.88468301,-0.360367,-0.065441,1.0,0.0,0.0,0.0,146.47260782198012
5.8245,962.4712,-1.02424044109263,-10.191971303780281,-16.69979140733283,5.516585978556082,2.3033305683834167,0.6894489385513096,2.827362372232546,41.638481510498124,-5.911260751917888,138.779861,36.723527714108016,0.0,138.77986099999998,0.2557149219833673,0.89997602,-0.339084,-0.098362,1.0,0.0,0.0,0.0,150.36809648682703
5.8432,962.4912,-1.8814696734890948,-9.114298396141848,-16.49301269989903,5.689311584488457,1.8591472092796386,0.30591563020845447,2.556252391666531,41.435108166277665,-7.566790912584461,142.050797,34.916310671836534,0.0,142.050797,0.2348883897086016,0.90805501,-0.323935,-0.123813,1.0,0.0,0.0,0.0,152.829912354074
5.8562,962.5112,-2.7479296123647425,-7.925312326857247,-16.05615816114777,5.847298530060224,1.248745594583528,-0.17802989756497634,2.3509189732395814,40.880673315352965,-10.00170434139439,144.129913,33.936359997911325,0.0,144.129913,0.221085965080237,0.91037601,-0.315707,-0.15055101,1.0,0.0,0.0,0.0,154.45435010646543
5.8781,962.5312,-3.476553048478029,-6.399528063117312,-15.645045239915971,5.82916613431513,0.3951364128995798,-0.6599938642469478,2.135705278012834,40.27149748451797,-11.807730590397059,145.571854,33.95762206539477,0.0,145.57185400000003,0.1988632627186828,0.910833,-0.31265599,-0.181887,1.0,0.0,0.0,0.0,157.05901278899736
5.8995,962.5512,-3.87268890427738,-4.727864557242089,-15.184591040932148,5.5606332135036585,-0.6726151362957693,-1.13097250647222,1.6411095924306842,39.492657071537366,-13.597360221321846,146.226196,34.731622890983274,0.0,146.22619599999996,0.1764063082515463,0.90907902,-0.31345499,-0.210243,1.0,0.0,0.0,0.0,159.6789861012483
5.9161,962.5711,-3.8335372437958535,-3.0279066515014597,-14.767459032847649,5.089864494331876,-1.8688237326027177,-1.5932276476349247,0.6967381362771228,38.481375534712804,-15.422549756002898,146.228973,35.95117584603721,0.0,146.228973,0.1567660902811559,0.90620798,-0.31686401,-0.231967,1.0,0.0,0.0,0.0,161.96152382992128
5.9399,962.5911,-3.2507158849761755,-1.3861655038951397,-14.497123772951007,4.551909034652109,-3.0763475459960254,-1.9856867567628254,-0.4606815888806892,37.16090247071766,-17.227063361098182,145.257111,37.66864001945857,0.0,145.257111,0.1391641123563814,0.90427202,-0.32468,-0.23980901,1.0,0.0,0.0,0.0,164.00104014002386
5.9562,962.6111,-2.092768300684984,0.12917725822974602,-14.33213343530324,4.048052177461543,-4.172478135347617,-2.31059226195652,-1.5880684301070538,35.616815551542885,-18.723067830911354,143.160782,40.08245134699583,0.0,143.16078200000004,0.1195257911080287,0.90331,-0.338714,-0.234558,1.0,0.0,0.0,0.0,166.27052912686563
5.977,962.6311,-0.42309661702971013,1.410201545385016,-14.10438570310568,3.5800847747160223,-5.056159525524295,-2.6418607697461267,-2.8152205649102733,34.17047502584392,-19.464876880030936,140.175644,43.3549435651865,0.0,140.17564400000003,0.0928443251689617,0.90089601,-0.358881,-0.225767,1.0,0.0,0.0,0.0,169.34547936355213
6.0011,962.6511,1.6094516832162742,2.286750863411383,-13.711716786247797,3.1206643920425807,-5.6782280842192385,-3.02450683796127,-4.615724775902201,33.10255489573539,-19.24096891997334,136.787781,47.266127998386374,0.0,136.787781,0.0583973299802302,0.89480901,-0.382393,-0.222895,1.0,0.0,0.0,0.0,173.3043495927577
6.0221,962.6711,4.0698089815044725,2.672775157848396,-12.905533198552213,2.880911056898806,-6.022398738308457,-3.324151404102869,-5.811440798636676,32.796148323478825,-18.04475400106796,132.65834,50.98939332251125,0.0,132.65834,0.0027295914639012,-0.891137,0.40682599,0.20089801,1.0,0.0,0.0,0.0,179.68721147023226
6.0363,962.6911,6.56717342032051,2.3715542705930357,-11.647438262549326,2.809758513116353,-6.337504589721042,-3.279311441723166,-6.894756885483188,32.23808925056106,-17.96875369466574,128.375854,53.650130629449365,0.0,128.375854,0.0595873509533678,-0.88586801,0.431512,0.159639,1.0,0.0,0.0,0.0,173.16774532084315
6.0606,962.7111,8.803028769463827,1.5806248729818395,-9.814878144908754,2.8403980739329424,-6.603907894391305,-3.049383699362983,-7.85456902511399,31.879403100120978,-18.36364521647778,124.815582,54.940984664112094,0.0,124.815582,0.1192756889167261,-0.87863898,0.449577,0.107923,1.0,0.0,0.0,0.0,166.29939523094828
6.0763,962.7311,10.467602895331279,0.3204501032463005,-7.071102234192888,2.935412949548147,-6.831680430533512,-2.6450513237783877,-7.778304883829966,31.948501306452762,-19.14547797345345,122.157074,54.348188280019485,0.0,122.15707399999997,0.1925522784593292,-0.86745203,0.457322,0.036155,1.0,0.0,0.0,0.0,157.7964602790164
6.0986,962.7511,11.317559380073794,-1.4444860568306597,-3.9819567428085456,2.8159201104311045,-7.06857127970809,-2.2110562758580037,-7.306970261653578,32.325606618139304,-20.10990882279179,120.222824,52.62752890493766,0.0,120.222824,0.264442214790036,-0.84810102,0.45770499,-0.036071,1.0,0.0,0.0,0.0,149.33237649490596
6.1267,962.7711,11.383913389367088,-3.62211348763839,-0.9232209574522425,2.443060909400604,-7.290758189724068,-1.8877124815487223,-6.733736642988383,33.01658680471042,-20.994022814795542,119.122299,49.45240756591512,0.0,119.122299,0.332956303635296,-0.82214898,0.44987401,-0.104041,1.0,0.0,0.0,0.0,141.10338070166353
6.1499,962.7911,10.772381723540608,-5.924758108499652,2.0083540088955694,1.8527221689985185,-7.519783956011002,-1.6288654733538093,-5.914605192120929,33.64227447668459,-22.224939963836924,119.991074,44.402065005781644,0.0,119.99107400000003,0.3907894795361816,-0.79316401,0.43357801,-0.173737,1.0,0.0,0.0,0.0,133.99273591293186
6.1706,962.8111,9.736386187489614,-8.006078434009215,4.804725013354059,1.1063032628995646,-7.762381479762538,-1.3937631933873207,-4.938417601955846,33.90370743708135,-23.887861419191424,124.793274,37.591432530919846,0.0,124.793274,0.4312851085789072,-0.76506501,0.41091099,-0.244583,1.0,0.0,0.0,0.0,128.90171192146124
6.182,962.8311,8.467941932636808,-9.94392624716093,7.395438901882738,0.26540051979048407,-7.981114764700035,-1.2631290910360777,-3.9826870009256163,34.13048290017524,-25.1624436479937,134.422821,29.171291532714317,0.0,134.422821,0.4600042790997045,-0.73642403,0.38662201,-0.31080401,1.0,0.0,0.0,0.0,125.22523274908721
6.1984,962.8511,6.749868652077366,-11.788047669920728,9.806574318434127,-0.6165892176510843,-8.133290419378106,-1.22504847800196,-2.969239659246235,34.489179486240644,-25.654794917467065,152.236145,17.412937943415255,0.0,152.23614499999996,0.4832570828398058,-0.70493603,0.359382,-0.374663,1.0,0.0,0.0,0.0,122.20331160293385
6.2211,962.8712,4.15133745768938,-13.271744693562589,12.01986334606249,-1.5713320697496231,-8.173485115955442,-1.2287658340056344,-1.6488302287228822,34.78791719046653,-25.497789340939754,-178.612579,-1.0017117122984378,0.0,178.612579,0.5006854196461878,-0.66923797,0.32556,-0.442092,1.0,0.0,0.0,0.0,119.90928526235474
6.2438,962.8912,0.7428106302602986,-14.093771620977002,13.695390042600856,-2.614232177849307,-8.057982139776676,-1.3629078857732095,-0.3720999366764073,35.04170777858642,-24.565855947632194,-152.829849,-27.073287517971476,0.0,152.829849,0.5109825950319633,-0.62977499,0.28606701,-0.51033902,1.0,0.0,0.0,0.0,118.54139581722222
6.2674,962.9112,-2.9086873643694044,-13.67573810055487,14.738498970277814,-3.608659963923975,-7.850793286212498,-1.633312743999481,0.1157558137141157,35.049010921621154,-23.285405246508788,-140.064224,-53.549389346959735,0.0,140.064224,0.5109519368373113,-0.59293002,0.23828,-0.574965,1.0,0.0,0.0,0.0,118.54548279910404
6.2796,962.9313,-6.279567761081786,-11.582663688537721,15.23514933831078,-4.448382177510764,-7.678991836204413,-1.9424886540367177,-0.3428970249208808,34.64995896161703,-22.318842526037063,-136.372025,-73.11859483717721,0.0,136.372025,0.4952317118830128,-0.56458902,0.182891,-0.63445699,1.0,0.0,0.0,0.0,120.62993831909247
6.3015,962.9513,-9.331050084309354,-8.096532686099831,14.906848408593646,-5.102922541343332,-7.59338249549712,-2.2698351521217397,-1.0626053435492706,34.132311917668694,-21.662313630126842,-136.94313,-88.43981575054715,0.0,136.94313,0.4630457526435157,-0.540793,0.125323,-0.69095999,1.0,0.0,0.0,0.0,124.83236067114008
6.3173,962.9713,-12.152697525914386,-4.060304535405503,13.28494837911639,-5.520313579152547,-7.587578430897043,-2.661667856523085,-1.5210744042907063,33.8789461260566,-20.99575451149127,-138.983139,-102.37398321165456,0.0,138.983139,0.4194636189316779,-0.51293701,0.068338,-0.745839,1.0,0.0,0.0,0.0,130.3985437094751
6.3491,962.9913,-14.634248501394719,-0.39646155529409377,10.185610497420523,-5.613542042360887,-7.668291419057466,-3.1326431940511785,-1.974242149660487,33.95878930028369,-20.25149064405349,-141.119705,-114.7880204916435,0.0,141.119705,0.3720513760209993,-0.47641799,0.010264,-0.79655403,1.0,0.0,0.0,0.0,136.31562659502563
6.3626,963.0114,-16.45015871648016,2.422121196989986,5.83990683984603,-5.38779792027239,-7.794137636336796,-3.6054635207357184,-2.826709321305307,34.13552923215748,-19.75491095358835,-143.319885,-125.37659363547714,0.0,143.319885,0.3229409819890003,-0.43329901,-0.049938,-0.839921,1.0,0.0,0.0,0.0,142.3182468413797
6.3787,963.0314,-17.23290857740072,4.438077614616186,0.6541601735380755,-4.989435744270862,-7.791186147113329,-4.068390720346026,-3.6540180922862824,34.29556629707659,-19.791107764595676,-146.643768,-135.6350244685892,0.0,146.643768,0.2660283435743259,-0.38493699,-0.107918,-0.87715799,1.0,0.0,0.0,0.0,149.14386782014788
6.3989,963.0514,-16.692361174338906,5.657619209182555,-4.769881051836874,-4.448177810540203,-7.5176284515602365,-4.641117407616068,-4.104195597944216,34.57294826954788,-20.229334554017328,-151.724869,-146.29971231244028,0.0,151.724869,0.2005625015218436,-0.32985699,-0.15688699,-0.90904099,1.0,0.0,0.0,0.0,156.86029097998883
6.4199,963.0715,-14.834244385196152,6.205784653414389,-9.65827487853803,-3.6869494087512225,-6.968176056043177,-5.35012345168208,-4.195966068905232,34.87739189460513,-21.046263188663012,-158.73204,-157.09342347739442,0.0,158.73204,0.1294635049526276,-0.269952,-0.19435,-0.93412697,1.0,0.0,0.0,0.0,165.12281714092276
6.4389,963.0915,-12.070349227035052,6.379341587182137,-13.307439415901044,-2.673163892674944,-6.228136778514401,-6.1327844739380835,-4.134240196813759,35.03510250228684,-22.05743089803306,-167.450256,-167.52047993912404,0.0,167.450256,0.0564457807980277,-0.212128,-0.21837699,-0.95085597,1.0,0.0,0.0,0.0,173.52835028840371
6.4588,963.1115,-8.992191389240212,6.609737786524775,-15.447017145010491,-1.5261769898175108,-5.463406389602774,-6.86055827542386,-4.156774507331855,34.86543069321163,-23.009963372175633,-177.270294,-177.41582630934695,0.0,177.270294,0.0177520149611254,0.16714101,0.229215,0.958754,1.0,0.0,0.0,0.0,177.96566207202034
6.4796,963.1315,-5.857308969361129,7.186032168158979,-16.339507770851426,-0.40756977353417967,-4.863469411929568,-7.443987771423519,-4.111294231141434,34.31957674379298,-23.716695235115253,171.952148,172.51052607409758,0.0,171.95214799999997,0.0975533005562592,0.13812099,0.228466,0.958754,1.0,0.0,0.0,0.0,168.80340807925927
6.4971,963.1516,-2.6252478138917654,8.113781734512319,-16.083235169663453,0.4967437013451379,-4.3789218848763225,-7.921868991598496,-4.167983513578335,33.952296061254145,-23.447176499637692,160.813232,161.89955104049318,0.0,160.81323199999997,0.1823757830519695,0.126706,0.208381,0.95250303,1.0,0.0,0.0,0.0,158.98365373532224
6.5238,963.1716,0.7412277723560519,9.092183020603768,-14.466027441987547,1.2546836037600937,-3.5935194808888546,-8.409681624211567,-4.588270740743788,34.67835438584738,-21.14681178444298,150.705154,151.12152505493574,0.0,150.705154,0.2627887228629868,0.12713499,0.15233099,0.94423199,1.0,0.0,0.0,0.0,149.52880068751017
6.5432,963.1916,4.063136883646422,9.218263421982954,-11.862894018414112,2.1893819529810425,-2.749116056987436,-8.570842413993287,-4.713883674704405,35.35366506833047,-18.99447461579498,141.016342,140.5045150832891,0.0,141.016342,0.339329050495002,0.116014,0.081416,0.92992902,1.0,0.0,0.0,0.0,140.32799703607836
6.5597,963.2117,6.760451189812758,8.087395482813179,-8.714680867132158,3.0379640725018584,-1.955878029346032,-8.362724694173863,-4.484736249706675,35.94643358068316,-17.412471410104228,131.296005,130.31256824198127,0.0,131.29600500000004,0.4142968728350711,0.106034,0.006862,0.90391803,1.0,0.0,0.0,0.0,131.04990995916447
6.5791,963.2317,8.411011031130096,5.830415909807429,-5.672382603194826,3.725218243952371,-1.2770133217600934,-7.869261653334508,-3.9958338875578114,36.555988135832614,-16.103902955050074,121.406723,120.78078855745193,0.0,121.406723,0.4848569655660934,0.103644,-0.066222,0.86590201,1.0,0.0,0.0,0.0,121.99379678349175
6.5988,963.2517,8.803675315828107,3.1096370987094066,-3.067834186222238,4.397966095635837,-0.7716267680865743,-7.141702363724454,-3.4781685533469897,37.017464520927994,-15.047759367181492,111.976257,112.86936279363199,0.0,111.97625700000003,0.5434034082123147,0.102133,-0.137238,0.82185602,1.0,0.0,0.0,0.0,114.16874895385406
6.6168,963.2717,8.21059833040631,0.6525856870614757,-0.9935834999264923,5.0298587823758405,-0.4924751850304754,-6.316857611038638,-3.2560331050542204,37.11118724478237,-14.554774525859788,103.516335,106.96065952137975,0.0,103.51633500000003,0.5870651823358288,0.099923,-0.201932,0.777556,1.0,0.0,0.0,0.0,108.10195989487296
6.6415,963.2918,7.285083066570978,-1.3276833138223043,0.6742989172310327,5.5016747962149,-0.36477651866527144,-5.608743667737071,-3.5065935974995406,36.93735782885818,-14.511941027035624,95.921974,102.41725483138224,0.0,95.92197399999998,0.6191257383955378,0.103427,-0.25836599,0.73432499,1.0,0.0,0.0,0.0,103.4953613390046
6.6589,963.3118,6.443970706773134,-3.1491298707537707,2.2582413761090017,5.787741982908239,-0.2934283075451531,-5.09308034753776,-3.920291079490241,36.73406510408944,-14.758296046269633,88.650879,98.50415107142013,0.0,88.65087900000003,0.6446154681385635,0.112915,-0.30946299,0.68989402,1.0,0.0,0.0,0.0,99.72629857563264
6.6771,963.3318,5.645368816064202,-5.349826714299298,3.975554089781646,5.9103609196991895,-0.1311159837575293,-4.664854674208243,-4.095375373919238,36.75376609647191,-15.155163070276501,81.345039,95.15488002495925,0.0,81.34503899999999,0.6646281424403874,0.125246,-0.36072099,0.64223301,1.0,0.0,0.0,0.0,96.69239236331866
6.7025,963.3519,4.605843576760588,-8.205298269126835,5.739594705647788,5.898180271602801,0.19747917998671127,-4.145624113020346,-3.604482883356555,36.992883326631464,-15.954823666999722,73.894554,92.28946881339024,0.0,73.894554,0.6807117689711846,0.135352,-0.41094601,0.59113002,1.0,0.0,0.0,0.0,94.20142350129191
6.7246,963.372,3.2222849859948486,-11.631625276760762,7.145140537822307,5.7993200773267795,0.7280964470098326,-3.420771713605985,-2.3676263230700947,37.3725807773468,-17.014122363217083,66.531578,89.46329492949893,0.0,66.531578,0.6949950123515413,0.145248,-0.45574301,0.53682703,1.0,0.0,0.0,0.0,91.946360480078
6.7413,963.392,1.9534616422246671,-15.43345114972838,7.531174420993427,5.703190368225853,1.4478882773637078,-2.493808004347063,-0.9468500237795006,37.98073097350287,-17.43963204783093,60.0214,85.9194752142514,0.0,60.0214,0.7084044175276999,0.16798601,-0.491119,0.47827399,1.0,0.0,0.0,0.0,89.78951559974313
6.7582,963.4121,1.59319826218103,-18.618038068880782,7.058327151059693,5.729361582574198,2.207835613643601,-1.460943010022219,-0.42939384747267795,38.20592106576617,-17.996175892183032,56.504124,82.28900213918926,0.0,56.50412399999999,0.7175789611733184,0.20227601,-0.50791597,0.43149301,1.0,0.0,0.0,0.0,88.29008992001884
6.7799,963.4321,2.374760733622514,-20.895882066321292,5.773003012369257,5.93975081938439,2.835063699908231,-0.5244257533442654,-0.7677187212710024,38.01586447380609,-18.533299679197434,55.600288,78.33631944222779,0.0,55.600288000000006,0.7235025403556505,0.248254,-0.50869101,0.39515501,1.0,0.0,0.0,0.0,87.31116203620599
6.8004,963.4521,3.73294608524032,-22.36531829247365,3.503001685130126,6.318975841638944,3.227688532488803,0.21589156426005546,-1.3612868571195698,37.70594657179204,-18.531986850679875,56.331573,74.25877208293781,0.0,56.33157299999999,0.7236291328795434,0.305428,-0.50268,0.361092,1.0,0.0,0.0,0.0,87.29014599587246
6.8209,963.4722,4.7817323113895425,-23.07552264702648,0.43567758227075437,6.779282758596546,3.3321995429199998,0.7398548283888313,-1.4623060167111959,37.412066612860656,-18.039399523456265,57.758018,70.08848946034908,0.0,57.75801799999999,0.7174143879657697,0.36764601,-0.49623901,0.322335,1.0,0.0,0.0,0.0,88.31716389550454
6.8416,963.4922,5.023704991101505,-23.053977551547554,-3.0029826441264547,7.184710564718482,3.1857931416324092,1.1108684991104925,-0.7792454068733861,37.13984635877709,-17.29802485764903,59.607296,66.0294414349788,0.0,59.60729599999999,0.7043703204078376,0.42976701,-0.49236101,0.277026,1.0,0.0,0.0,0.0,90.44260876736254
6.8572,963.5122,4.708182888959504,-22.263837639962187,-6.574644677513844,7.383872096171039,2.919518156724918,1.4719222187715064,0.22316640981048597,36.978418804686896,-16.147843160156036,63.044338,62.611368546264096,0.0,63.04433800000001,0.6795583056307676,0.49469301,-0.49083099,0.229269,1.0,0.0,0.0,0.0,94.3817257548781
6.8793,963.5322,4.205541513735348,-20.636285399085246,-9.743259490520003,7.3551447270041495,2.613743427653734,1.791315760079911,0.972379409074458,36.73341936075768,-15.058955558409881,68.696983,59.403359885258624,0.0,68.69698299999999,0.6461996635840038,0.55988699,-0.48455101,0.18483201,1.0,0.0,0.0,0.0,99.48863635234207
6.9039,963.5523,3.6094913015544123,-18.411561727073423,-12.099690395017738,7.209343577967791,2.2706614324809107,1.9759422427387774,1.1971391955565078,36.26693771917222,-14.608510365189254,76.279907,55.92314420841039,0.0,76.27990699999998,0.6105125705432604,0.62064898,-0.46943101,0.147322,1.0,0.0,0.0,0.0,104.74685122783387
6.9269,963.5723,2.7799461735412434,-15.968203046956138,-13.67630205598514,7.114366494863953,1.8207977354320628,1.9676946404045528,1.0794376705087316,35.632239178988485,-14.918995221876061,84.999641,52.26901816830199,0.0,84.999641,0.575300497490885,0.67410201,-0.44866499,0.115393,1.0,0.0,0.0,0.0,109.75864213161167
6.9428,963.5924,1.6717563267386994,-13.512845361859892,-14.721382794925425,7.17585460578516,1.2183226146641712,1.744948046711821,0.903124855550324,34.96055481867579,-15.749789723004517,94.165237,48.91168149547069,0.0,94.16523699999999,0.5392073776851717,0.72005302,-0.42828801,0.085723,1.0,0.0,0.0,0.0,114.74060420328883
6.9643,963.6124,0.5208215250384973,-10.966437709837372,-15.538007453788145,7.358117195142345,0.499767676256186,1.3781506562205754,0.8055873443100499,34.570441041814135,-16.379773221189026,103.983681,46.5688221673623,0.0,103.98368099999999,0.4931880805405176,0.763129,-0.41366199,0.057301,1.0,0.0,0.0,0.0,120.89931773792689
6.9813,963.6325,-0.45596262296942824,-8.232158715432528,-16.115966067232204,7.560974442428712,-0.26852546047197734,0.904306179323362,0.9198669793836132,34.588747172965896,-16.51112709458141,113.322769,45.58317724565361,0.0,113.322769,0.4330435910057542,0.80359203,-0.40721601,0.029803,1.0,0.0,0.0,0.0,128.6782605523946
7.0008,963.6525,-1.0923992486090326,-5.5035483607035545,-16.154037813860672,7.686968831458175,-0.9931514802814354,0.3608275126810625,1.143773459334172,34.53865487421261,-17.048710024079277,119.813271,45.82662356183825,0.0,119.81327099999999,0.3701690017155936,0.83474803,-0.407536,0.009222,1.0,0.0,0.0,0.0,136.54791913659233
7.0258,963.6726,-1.263653495647914,-3.209565229840461,-15.57294954760091,7.691848657898985,-1.6227638332046608,-0.06201519090741581,1.240425332696585,33.38605429233833,-19.73699738006142,122.244469,46.92164465002446,0.0,122.24446899999998,0.3281106386877448,0.85020399,-0.411558,0.010798,1.0,0.0,0.0,0.0,141.69172198820888
7.0435,963.6927,-1.044342226144245,-1.1172987613154755,-14.839093676364431,7.554901027709464,-2.2036352183814087,-0.3858839718928959,1.000561900649096,31.836049311129166,-22.65382823366651,123.746048,48.14393237039587,0.0,123.74604799999997,0.289086991877946,0.86207598,-0.415647,0.022165,1.0,0.0,0.0,0.0,146.39339308501772
7.0649,963.7127,-0.4603103088780105,0.7973734932445776,-13.97851621609823,7.187123890856029,-2.873353233060411,-0.6603431103923711,1.0387103672065408,30.79954799105431,-24.411514577386633,124.586876,50.17345884978395,0.0,124.58687600000002,0.2366003799680794,0.87230098,-0.426633,0.033099,1.0,0.0,0.0,0.0,152.62804302410794
7.0806,963.7328,0.5880856612422851,2.2204598998736262,-12.89175945913885,6.573751122822339,-3.6268305647915615,-0.8121250870479689,1.844123866805063,30.546896698893278,-24.883867668437038,124.34317,53.31589226302223,0.0,124.34316999999999,0.1651555060972531,0.87801999,-0.44634199,0.050827,1.0,0.0,0.0,0.0,160.98746349990677
7.0987,963.7529,1.988948081599824,2.9511524931969992,-11.481473811218553,5.864528705603313,-4.337217980735494,-1.0647898809040397,3.044288370942599,31.70350317405006,-23.28877164529709,123.54184,56.53044308827173,0.0,123.54183999999998,0.0638970197693058,0.87813997,-0.468988,0.069553,1.0,0.0,0.0,0.0,172.67294925836174
7.1201,963.7729,3.560561072935764,2.815329443671869,-10.300040607978172,5.183129232871835,-5.090075829924279,-1.31436182873847,2.9706197425981813,31.37272744554339,-23.609239006580513,121.64444,59.08214215869874,0.0,121.64444000000003,0.0019985329769405,0.868397,-0.48840299,0.085704,1.0,0.0,0.0,0.0,179.77098483795413
7.1445,963.793,5.298797158672842,2.2411442559184716,-8.982670162912688,4.756231035715324,-5.789258567311941,-1.267990871059364,2.7605582691669186,30.65345968384402,-24.425463761846725,119.760109,61.28306357770355,0.0,119.760109,0.0538463416272589,-0.85425001,0.50428402,-0.114259,1.0,0.0,0.0,0.0,173.8266781264811
7.1602,963.813,6.943515770711921,1.385349598518307,-7.0854493301738195,4.5804396055760215,-6.367557129605361,-0.9905742500129124,2.460016919438943,30.173897837085057,-25.126234971683456,118.382942,62.58565169986555,0.0,118.38294200000001,0.1157064877815385,-0.83700901,0.51352698,-0.14939199,1.0,0.0,0.0,0.0,166.7112483032528
7.18,963.8331,8.092676201147349,0.09639918707194672,-4.365528706575806,4.468407584490844,-6.809257555048714,-0.5654268803342499,2.3145058926402053,30.351013936993834,-25.40905994570106,117.511894,62.38435335168904,0.0,117.51189399999998,0.1905437713739276,-0.814897,0.51401502,-0.188214,1.0,0.0,0.0,0.0,158.03096046521665
7.2092,963.8532,8.198752818117054,-1.9609757622421173,-0.9599040698300758,4.1253274699137,-7.1671899788998985,-0.06408493110695679,2.84956976468227,31.223512192094468,-25.258319652910405,117.07814,59.87547296982499,0.0,117.07814000000002,0.2783833771169894,-0.78345299,0.503941,-0.233982,1.0,0.0,0.0,0.0,147.67251345020222
7.2197,963.8732,7.2950883631846,-4.769999637596962,2.2771543513564545,3.355225332069394,-7.46767149313378,0.2638738586820594,3.2018578961157296,32.37763917453418,-25.134721046892835,117.128502,54.50458566853687,0.0,117.12850200000003,0.3592561945956949,-0.74778599,0.48548299,-0.275785,1.0,0.0,0.0,0.0,137.89095316098025
7.2619,963.8933,5.475174820136121,-7.869274520828674,5.011704227580266,2.196802256805723,-7.680754886989504,0.33314753319366974,3.529210017751817,33.52137422656013,-25.129252066038504,120.081841,44.55027331239204,0.0,120.081841,0.4291678740433625,-0.71076602,0.455881,-0.32062301,1.0,0.0,0.0,0.0,129.1704741473983
7.2728,963.9134,3.1471943322478593,-10.534897629773235,7.210612911995863,0.8480495820763957,-7.802380110453609,0.08953308337700694,3.6432375498737133,34.29947387515274,-25.431213621278992,132.761047,28.359252874796756,0.0,132.76104699999996,0.4819763152137662,-0.67707801,0.41532001,-0.369829,1.0,0.0,0.0,0.0,122.37088396678331
7.2838,963.9334,0.7076425420965491,-12.345953567033703,8.998953679837921,-0.5008072738588265,-7.894407190855598,-0.4806440921561308,3.5884078556485806,34.70706331272628,-25.785709047154505,166.115051,7.317458425454653,0.0,166.115051,0.5155568721531889,-0.64643902,0.372531,-0.42135301,1.0,0.0,0.0,0.0,117.9306312753225
7.3086,963.9534,-1.8987408169126172,-13.02189223005822,10.54715945083236,-1.7297815701428565,-7.997182988228856,-1.2219560631329351,3.815954479852426,34.7665490630225,-25.965821669058077,-155.684341,-16.961233808982485,0.0,155.684341,0.530217816115339,-0.61581802,0.33260801,-0.478549,1.0,0.0,0.0,0.0,115.95965406881264
7.327,963.9735,-4.815914242906882,-12.423418785274839,11.841995004408307,-2.7087126179191747,-8.137353691878529,-1.9412861883550965,4.401124890269255,34.5088330335622,-25.939600876842352,-139.081772,-44.11875608370565,0.0,139.081772,0.5291995916764661,-0.58377302,0.29113099,-0.54258603,1.0,0.0,0.0,0.0,116.0972191984389
7.3433,963.9935,-8.025092348424593,-10.876605394547806,12.530567398423035,-3.3657556281057297,-8.330046903232601,-2.5871667284587385,5.008688224498358,34.20071062788425,-25.505528003428154,-133.242294,-69.08325291424185,0.0,133.242294,0.5188292365207071,-0.54795599,0.244849,-0.60877699,1.0,0.0,0.0,0.0,117.49249656574813
7.3591,964.0135,-11.405568011590297,-8.806690351358089,12.255221047378921,-3.7123434513328726,-8.558995240552573,-3.1591464692207216,5.207032967556449,33.94878072707132,-24.717002295754718,-131.165558,-87.45122951556509,0.0,131.165558,0.5028199411467679,-0.50779998,0.192919,-0.67237902,1.0,0.0,0.0,0.0,119.62651633148538
7.3847,964.0336,-14.849256446723322,-6.490833945501816,10.7018086888075,-3.8334014833307943,-8.744541814822048,-3.7028484053961037,4.982889726678963,33.72277308553546,-23.76454717599189,-130.900681,-100.91280993834472,0.0,130.900681,0.4806812856769025,-0.46184,0.13754,-0.73262,1.0,0.0,0.0,0.0,122.54018537759012
7.4044,964.0536,-18.020524889761283,-4.029569797218153,7.652747432114449,-3.7733082836641794,-8.794053883013744,-4.258514326117849,4.526530161843752,33.491169679011236,-22.884573131820506,-132.02269,-111.99370675262402,0.0,132.02269,0.4503016222201734,-0.40858099,0.080904,-0.78977501,1.0,0.0,0.0,0.0,126.47392527100068
7.4224,964.0736,-20.248858921976726,-1.451367086990917,3.206600738996503,-3.53711454488987,-8.650808464189947,-4.787265518688638,4.047949378404031,33.23803826199084,-22.361461283250364,-134.622833,-122.10256300979303,0.0,134.622833,0.4092462880420537,-0.34861401,0.02473,-0.84283698,1.0,0.0,0.0,0.0,131.6850068286671
7.458,964.0936,-20.753434003374192,1.079306092290734,-1.9112008214199108,-3.196523308579576,-8.267934109839121,-5.213262421725839,3.6351392923840375,33.073396584281454,-22.243808201838082,-138.941971,-131.8593737511361,0.0,138.941971,0.3566138368577971,-0.28697199,-0.025329,-0.88872498,1.0,0.0,0.0,0.0,138.21522965204466
