AppTimestamp(s),SensorTimestamp(s),acc_x,acc_y,acc_z,gyro_x,gyro_y,gyro_z,mag_x,mag_y,mag_z
45.0127,1001.6656,0.12430063418660489,0.004938385130749917,-0.23757401558845004,-0.00133,-0.03845,-0.0647,18.1,-22.4,-29.0
45.0304,1001.6856,0.16562582330142755,0.03611529755817047,-0.22852679218318173,-0.06242,-0.0635,-0.07936,18.1,-22.3,-29.1
45.0546,1001.7056,0.17641862869924627,0.09381623527126705,-0.20070143159978393,-0.26156,-0.13741,-0.014,18.1,-22.3,-29.2
45.0722,1001.7256,0.15772125211027962,0.1157485533235928,-0.14608444742217763,-0.40084,-0.26447,-0.13128,18.1,-22.3,-29.3
45.0915,1001.7456,0.10145775985988927,0.09691612215356186,-0.07275097673340092,-0.26156,-0.37321,-0.27178,18.0,-22.3,-29.3
45.1113,1001.7656,0.028269965062531308,0.023172592202548442,-0.001079431668205899,0.09579,-0.31273,-0.20153,18.0,-22.2,-29.3
45.1328,1001.7856,-0.03532736223832067,-0.08150627641101416,0.04741401819707569,0.32181,-0.16796,-0.07997,18.1,-22.2,-29.3
45.1611,1001.8056,-0.06595531053592806,-0.17785473496673038,0.061924784546778966,0.22163,-0.00852,0.03365,18.1,-22.1,-29.4
45.1781,1001.8256,-0.07368360869214473,-0.20661347237772307,0.04654530152375891,-0.09419,0.1161,-0.17588,18.1,-22.1,-29.5
45.1971,1001.8456,-0.06997808589732768,-0.19644997342824697,0.012928966693007027,-0.1119,0.07028,-0.06103,18.0,-22.0,-29.4
45.2122,1001.8655,-0.07342049261732402,-0.18140481930088476,-0.026647182303653594,-0.10885,-0.03845,-0.12151,18.0,-21.9,-29.4
45.2342,1001.8855,-0.081332730336983,-0.1684294226999358,-0.06430119037318427,-0.08258,-0.03845,-0.11418,17.9,-21.9,-29.5
45.2524,1001.9055,-0.09327535307265118,-0.17201732523370775,-0.09908315069284157,-0.01661,0.03974,-0.03904,17.9,-21.8,-29.5
45.2764,1001.9255,-0.1022555970511077,-0.1841820107400651,-0.13346530230779408,0.04998,0.09533,0.0306,17.8,-21.8,-29.4
45.2914,1001.9455,-0.11245833420690361,-0.1821157843260353,-0.16874622364811742,0.12389,0.04829,0.06053,17.8,-21.7,-29.4
45.3174,1001.9655,-0.11489070713805184,-0.17449058865377925,-0.2021732527887039,0.08968,0.01775,0.03365,17.8,-21.6,-29.4
45.3314,1001.9855,-0.10886529435771967,-0.14571662773254399,-0.22597158351121927,-0.00195,0.04646,0.03915,17.7,-21.6,-29.4
45.363,1002.0055,-0.08515025098618392,-0.10647740930211119,-0.23100971750311317,-0.03432,0.06478,0.04953,17.7,-21.6,-29.3
45.379,1002.0255,-0.05844554700682001,-0.07412093342215996,-0.21072193446956256,-0.06425,0.10021,0.06969,17.7,-21.6,-29.4
45.3951,1002.0455,-0.030231014502351345,-0.052832999207693444,-0.16367729036021927,-0.08441,0.09105,0.06603,17.7,-21.6,-29.5
45.4166,1002.0655,-0.0035416962327822826,-0.04593383984119178,-0.09492464351271579,-0.13634,0.06417,-0.03538,17.7,-21.6,-29.4
45.4322,1002.0855,0.010718225365397144,-0.06775967677080859,-0.014405650583201535,-0.00195,0.00553,-0.02866,17.6,-21.5,-29.5
45.4528,1002.1055,0.012413415956209494,-0.1164948389053382,0.06625266314061129,0.10862,-0.00608,-0.05615,17.6,-21.5,-29.5
45.4725,1002.1255,-0.006901630543131086,-0.18151121217838945,0.13671011506060715,0.14833,-0.05067,-0.07508,17.7,-21.5,-29.5
45.4995,1002.1455,-0.05832376879774957,-0.2631582358474379,0.18885182199988293,0.22591,-0.22599,-0.15755,17.7,-21.5,-29.6
45.511,1002.1655,-0.09064443759197606,-0.29710916786343367,0.21861408504452662,0.25401,-0.36282,-0.21436,17.7,-21.5,-29.6
45.5326,1002.1855,-0.1304034787427325,-0.33596036260747214,0.21914983978105518,0.25645,-0.28097,-0.17649,17.7,-21.5,-29.5
45.5736,1002.2055,-0.15780555852626646,-0.4251809980307493,0.18336805063341188,0.29249,-0.06044,-0.0763,17.7,-21.5,-29.6
45.5832,1002.2255,-0.13647766220838184,-0.3831430724973246,0.11589645956815708,0.47392,0.0153,0.05014,17.7,-21.6,-29.5
45.6041,1002.2455,-0.10106598970455986,-0.3704872917729117,0.011822151762244104,0.54844,0.05195,0.04892,17.8,-21.6,-29.5
45.6168,1002.2655,-0.06587775911147521,-0.28467699295825677,-0.11621869465048462,0.47331,0.03363,0.03732,17.8,-21.7,-29.4
45.6311,1002.2854,-0.03729487350977,-0.17791717527445233,-0.2554003828440692,0.37985,0.01286,0.05198,17.8,-21.8,-29.4
45.6519,1002.3054,-0.01880199874961175,-0.07024783088509563,-0.3881986015687211,0.24301,-0.09282,0.02021,17.8,-21.9,-29.5
45.7043,1002.3254,-0.00955835709550413,0.01169520798248961,-0.4975543590949165,0.07258,-0.03968,0.03854,17.9,-22.1,-29.4
45.7104,1002.3454,0.014830369847721884,0.09152860026882215,-0.570082478937703,-0.02149,0.08433,0.06786,17.9,-22.2,-29.3
45.7199,1002.3654,0.03901558023198114,0.12612822779412802,-0.5972699313819305,-0.03982,0.22116,0.12162,18.0,-22.3,-29.2
45.7321,1002.3854,0.060874082768165944,0.1223752384397443,-0.5761712409797806,-0.09358,0.20223,0.10757,17.9,-22.5,-29.1
45.7515,1002.4054,0.08334064084222094,0.10923111131375388,-0.5104689824050723,-0.28539,0.17413,0.07458,18.0,-22.6,-28.9
45.7729,1002.4254,0.09482463494020686,0.09213654283347184,-0.4101368568208503,-0.41733,0.24254,0.05137,17.9,-22.7,-28.8
45.7932,1002.4454,0.08361475539750644,0.055707909712802144,-0.29146485772240105,-0.39901,0.23949,0.05503,17.9,-22.8,-28.8
45.8129,1002.4654,0.04629471355648796,-0.004004973280869957,-0.17510606128024264,-0.22858,0.15091,0.04587,17.9,-22.9,-28.7
45.8336,1002.4854,-0.011661687532379856,-0.0775313032636994,-0.08061821069006747,-0.09052,0.06051,0.00983,17.9,-23.0,-28.7
45.8548,1002.5054,-0.07705674561790907,-0.14682144929334276,-0.019855932203078908,0.04509,0.02508,0.008,18.0,-23.0,-28.6
45.8701,1002.5254,-0.1326751108965079,-0.18764225105266671,0.007120648675922325,0.04326,0.04096,0.04526,18.0,-23.0,-28.6
45.8908,1002.5454,-0.16445003068408443,-0.19760312299126848,0.010452039806036595,-0.00928,0.077,0.08069,18.0,-23.1,-28.6
45.9189,1002.5654,-0.1684972488535446,-0.18101877684242831,0.005171412967943212,-0.04471,0.0715,0.0813,18.0,-23.0,-28.6
45.9308,1002.5854,-0.1515362737728666,-0.16308166755671932,0.00443956235078069,-0.04471,0.03485,0.09046,18.0,-23.0,-28.5
45.9528,1002.6054,-0.11571599470239272,-0.1438170065096231,0.015578914859130322,-0.03066,0.04401,0.09352,18.0,-22.9,-28.5
45.9723,1002.6254,-0.06697055280002155,-0.13172715342418262,0.03701489771263766,-0.03554,0.04646,0.10512,18.0,-22.9,-28.4
45.9905,1002.6454,-0.012772845083604326,-0.12563397524131564,0.05972937404225931,-0.04776,0.04218,0.09535,17.9,-22.8,-28.5
46.0102,1002.6654,0.038151184900488064,-0.12469947911689251,0.07097441525088044,-0.02027,0.05318,0.07519,17.9,-22.8,-28.6
46.0321,1002.6853,0.07794393094724175,-0.13084791675040616,0.05941294597810831,0.04387,0.03668,0.0422,17.9,-22.7,-28.6
46.0532,1002.7053,0.10061202321367148,-0.1411270975050457,0.01979061076252897,0.09701,0.02569,0.01716,17.9,-22.7,-28.7
46.071,1002.7253,0.10320974108044272,-0.14481787558113668,-0.044698963505055644,0.11045,0.0263,0.01044,18.0,-22.7,-28.7
46.0932,1002.7453,0.08772502000215436,-0.14278580969763405,-0.12352387879122873,0.10496,0.04401,0.00555,17.9,-22.7,-28.7
46.1118,1002.7653,0.05478929678088662,-0.12616328807730973,-0.20191194293353298,0.03165,0.01469,-0.01277,17.9,-22.7,-28.7
46.1388,1002.7853,0.011479248834734196,-0.10243172880850245,-0.26573623643187005,-0.02516,0.00492,-0.02744,18.0,-22.7,-28.6
46.1632,1002.8053,-0.039103034464002484,-0.08194996503630363,-0.3046729392389924,-0.02638,0.01286,-0.03538,18.0,-22.8,-28.6
46.173,1002.8253,-0.09063293307852026,-0.0743676284381284,-0.3136370167051403,-0.016,-0.00119,-0.01155,18.0,-22.9,-28.5
46.1986,1002.8453,-0.1330511922951975,-0.0772150009280315,-0.2922576246384079,0.01394,0.00675,0.01349,17.9,-22.9,-28.5
46.2142,1002.8653,-0.16113656156952735,-0.08449501985868058,-0.24386813462646018,0.00905,0.02141,0.01044,17.9,-22.9,-28.5
46.2317,1002.8853,-0.1707549934563806,-0.09241960476745936,-0.17471280215725038,-0.04043,0.0153,0.02571,18.0,-22.9,-28.4
46.2586,1002.9053,-0.16079321735087374,-0.09402129260536776,-0.09377827810804895,-0.0893,0.04401,0.03243,18.0,-22.9,-28.3
46.2748,1002.9253,-0.1390459550874911,-0.10937877024456054,-0.013078686242119275,-0.09358,0.04157,0.03365,18.1,-23.0,-28.3
46.2944,1002.9453,-0.10869121650206115,-0.13124494685081253,0.054122106372137324,-0.03615,0.02508,0.03365,18.3,-22.9,-28.1
46.3134,1002.9653,-0.07479343373415387,-0.1594186902544406,0.09511355959217127,0.01027,0.00858,0.03854,18.3,-23.0,-28.2
46.3329,1002.9853,-0.040592463756820824,-0.18493608167715916,0.10091796266073416,0.03471,0.03363,0.03976,18.3,-23.0,-28.2
46.3533,1003.0053,-0.009115700862720014,-0.198668763050308,0.06869834254930396,0.04326,0.04096,0.04404,18.3,-23.0,-28.2
46.3792,1003.0253,0.01733231953027353,-0.19728656900976865,0.002749178824057452,0.04631,0.03913,0.04281,18.3,-23.0,-28.2
46.3951,1003.0453,0.03356172415211816,-0.17454698624217035,-0.08593856588169047,0.03471,0.04401,0.0422,18.3,-23.0,-28.2
46.4206,1003.0653,0.04315971569715965,-0.14104004741371584,-0.1821162138521153,0.02371,0.05684,0.04343,18.4,-22.9,-28.1
46.4331,1003.0853,0.04005211115847257,-0.09870480525270629,-0.2686034704548259,0.006,0.05623,0.04709,18.4,-22.9,-28.1
46.464,1003.1052,0.034247107390366405,-0.05467688616413192,-0.32981101547609626,-0.01966,0.06234,0.03793,18.4,-23.0,-28.1
46.4708,1003.1252,0.013259942605560366,-0.026226006990701253,-0.3544158118777698,-0.04776,0.0379,0.01533,18.4,-22.9,-28.3
46.4972,1003.1452,-0.0114942792680979,-0.0022286181232656827,-0.33757676441917184,-0.06792,0.00797,5e-05,18.5,-22.9,-28.2
46.5161,1003.1652,-0.03812432301012515,-0.000979765644527749,-0.28205768444719403,-0.07769,-0.02807,-0.00117,18.5,-22.9,-28.2
46.5317,1003.1852,-0.059579807997839775,-0.019762836769830976,-0.19775665028417144,-0.08563,-0.02135,0.01227,18.4,-22.9,-28.3
46.557,1003.2052,-0.07333896607333286,-0.044222409562701015,-0.09998074942834378,-0.07769,0.0098,0.02143,18.4,-22.9,-28.3
46.5741,1003.2252,-0.076860851379241,-0.08178637971594753,-0.006602578054861752,-0.05998,0.0037,0.01533,18.4,-22.9,-28.3
46.6051,1003.2452,-0.07427189383537766,-0.11485037346984052,0.06558421789045354,-0.04043,0.0037,0.01105,18.3,-22.9,-28.3
46.6161,1003.2652,-0.06965823085734336,-0.14783640563638828,0.10407423758534584,-0.0105,0.01103,0.02327,18.3,-22.8,-28.2
46.6333,1003.2852,-0.06680997777879329,-0.17061662746980596,0.10354596295206342,0.03776,0.00919,0.03243,18.3,-22.8,-28.1
46.6541,1003.3052,-0.06755240558488633,-0.18162271942443783,0.06664280842034032,0.05364,0.01347,0.02632,18.4,-22.8,-28.2
46.6745,1003.3252,-0.07256166603098596,-0.17914994698692033,0.003162330026079019,0.03654,0.01469,0.008,18.4,-22.8,-28.1
46.6932,1003.3452,-0.08126882956921815,-0.16645267038750017,-0.07261083619139619,0.0286,0.0153,0.01166,18.4,-22.8,-28.1
46.711,1003.3652,-0.0909459560078503,-0.15008111057007595,-0.14535098623936804,0.04081,0.01408,0.02693,18.4,-22.8,-28.0
46.7331,1003.3852,-0.09770140017288183,-0.13687198738200615,-0.20208094460513415,0.0231,0.00553,0.02754,18.5,-22.8,-28.1
46.7558,1003.4052,-0.0984397295390683,-0.12968332881084754,-0.2347420073766422,-0.00011,0.01225,0.02266,18.4,-22.8,-28.1
46.7716,1003.4252,-0.091617438781921,-0.12985393485095806,-0.24151135645073651,0.00233,0.00858,0.02449,18.4,-22.8,-28.0
46.7925,1003.4452,-0.07941700731612282,-0.13683387332455693,-0.2265430013913452,0.00294,0.00309,0.03976,18.3,-22.7,-28.1
46.8144,1003.4652,-0.06418601713937488,-0.14686088692771138,-0.19825641486747614,-0.00744,3e-05,0.03609,18.3,-22.8,-28.2
46.8407,1003.4852,-0.049265663752865486,-0.15520529447510864,-0.16679737561575614,-0.02027,0.01164,0.02632,18.3,-22.8,-28.0
46.8596,1003.5051,-0.03761971067591922,-0.1611318735661672,-0.1412762372963421,-0.01722,0.01714,0.02082,18.3,-22.8,-28.0
46.8756,1003.5251,-0.03222912352901817,-0.16292167158628396,-0.12733965852622653,-0.00805,0.00492,0.01533,18.4,-22.8,-28.0
46.8911,1003.5451,-0.03335914661220807,-0.1601845449488203,-0.12597467489773884,0.00294,0.01775,0.02754,18.5,-22.8,-28.0
46.9226,1003.5652,-0.040444308007757265,-0.15498584602522333,-0.13381144350074337,0.00783,0.0098,0.03793,18.5,-22.9,-27.9
46.9354,1003.5852,-0.04728793691043815,-0.14471830017899814,-0.14463142352833813,0.00538,0.00125,0.03854,18.4,-22.9,-28.0
46.9585,1003.6052,-0.05430609186306611,-0.13161720568474553,-0.1519650488110127,-0.01355,-0.00241,0.03426,18.4,-23.0,-27.9
46.9781,1003.6253,-0.058057592644925195,-0.119981759187777,-0.15121123533810277,-0.03676,0.00919,0.02999,18.3,-23.0,-27.9
46.9926,1003.6453,-0.05906041001102557,-0.11512961386183046,-0.14088921828399315,-0.03432,0.00064,0.02082,18.3,-23.0,-28.0
47.0155,1003.6653,-0.05937818722525039,-0.11606787374962521,-0.1224798613214908,-0.01477,0.00736,0.02266,18.3,-23.0,-28.0
47.0359,1003.6853,-0.05920264726872988,-0.12325117944891592,-0.09945076355925941,0.01027,0.00247,0.02449,18.3,-22.9,-27.8
47.0556,1003.7054,-0.05846358970189643,-0.13096544687567432,-0.07587554265881735,0.01455,0.0037,0.02204,18.3,-22.9,-27.8
47.0745,1003.7254,-0.0561983490847131,-0.13450189543365576,-0.05564607231758778,-0.00744,-0.00302,0.01166,18.3,-22.9,-27.7
47.0919,1003.7454,-0.051335438415935596,-0.1328461810833182,-0.0422252629712343,-0.02088,-0.00058,0.02204,18.3,-22.9,-27.7
47.1138,1003.7655,-0.04403651411155375,-0.1268063177914151,-0.03850910920593975,-0.00989,0.00186,0.01899,18.3,-23.0,-27.6
47.1333,1003.7855,-0.03473720153716873,-0.118765864631765,-0.04639619107417481,0.00722,-0.0018,0.00372,18.3,-23.0,-27.7
47.1553,1003.8055,-0.02554402641033105,-0.1087468613729086,-0.06597637133208245,0.01455,-0.00424,-0.00178,18.3,-23.0,-27.7
47.1744,1003.8255,-0.018189593651047744,-0.09536939497893807,-0.09484741384970974,0.01455,-0.01096,-0.0085,18.1,-23.0,-27.8
47.1917,1003.8456,-0.014241285280032866,-0.07990251811307574,-0.12809120054455114,-0.00867,-0.02135,-0.02805,18.1,-22.9,-27.8
47.2186,1003.8656,-0.015777015897829098,-0.06357694993451546,-0.15907896348739925,-0.02516,-0.03112,-0.03721,18.1,-22.9,-27.9
47.236,1003.8856,-0.0228133453044795,-0.05413244775911526,-0.18110064375134804,-0.02394,-0.02501,-0.02744,18.1,-22.8,-27.9
47.2617,1003.9057,-0.03886691920787224,-0.04917957815825216,-0.18912700048042552,-0.05326,-0.04823,-0.04637,18.1,-22.8,-28.0
47.2725,1003.9257,-0.056171236532098996,-0.062033060191782695,-0.18142148827513616,-0.06975,-0.06777,-0.04515,18.1,-22.8,-28.0
47.2968,1003.9457,-0.08076475309308816,-0.07784944052548229,-0.16003635577047248,-0.03738,-0.06167,-0.03232,18.1,-22.8,-28.0
47.3115,1003.9657,-0.10187430809920794,-0.10355369229763005,-0.13052259733007254,-0.0331,-0.03234,-0.02988,18.1,-22.7,-28.0
47.3315,1003.9858,-0.12128927696155664,-0.12796315987007045,-0.10050580327807701,-0.03921,-0.01219,-0.01888,18.1,-22.8,-28.1
47.358,1004.0058,-0.13863078693931508,-0.14873387309657127,-0.07790754160920343,-0.02027,-0.00974,-0.00178,18.1,-22.8,-28.1
47.372,1004.0258,-0.15323406529654124,-0.1653130211869187,-0.06889890816313837,0.02005,-0.00486,0.00494,18.1,-22.7,-28.1
47.3942,1004.0459,-0.1656563452733511,-0.17785221626001918,-0.07630471309548348,0.03837,-0.02318,0.00616,18.1,-22.7,-28.2
47.4165,1004.0659,-0.1712965731318884,-0.18232790792038747,-0.09877631566222611,0.05364,-0.02929,0.01838,18.2,-22.7,-28.2
47.4371,1004.0859,-0.16701944853135525,-0.17513560200584655,-0.13163252269759163,0.0457,0.0037,0.02266,18.2,-22.6,-28.3
47.4528,1004.106,-0.1531177189126156,-0.15766555849867792,-0.16869164968881734,0.006,0.01775,0.03243,18.2,-22.6,-28.3
47.4747,1004.1261,-0.1330045113927642,-0.13583315787724398,-0.20413957919640247,-0.01844,0.00309,0.02999,18.2,-22.6,-28.4
47.4926,1004.1461,-0.10929194127705492,-0.11714435007134134,-0.23362329712493057,-0.02699,-0.00974,0.02815,18.1,-22.7,-28.4
47.5124,1004.1662,-0.08522162385589226,-0.10446822444441796,-0.2543732338310303,-0.00072,0.00247,0.02449,18.1,-22.7,-28.5
47.5352,1004.1862,-0.0628437588295035,-0.09679920733320287,-0.2645946822323033,0.01333,-0.01402,0.01838,18.1,-22.7,-28.5
47.554,1004.2062,-0.04248225389603649,-0.09211100161205411,-0.26277421284306435,-0.03188,-0.01463,-0.00117,18.1,-22.7,-28.4
47.5806,1004.2262,-0.02641184574598044,-0.08698349999415753,-0.24751827627149758,-0.0557,-0.00058,0.00066,18.1,-22.7,-28.4
47.594,1004.2463,-0.01585064199252333,-0.09310511170777441,-0.21829529277865234,-0.05448,0.00858,0.00128,18.1,-22.7,-28.5
47.6135,1004.2663,-0.010798681221295802,-0.1021332751811896,-0.17626626198314277,-0.03493,0.00125,-0.01094,18.1,-22.7,-28.6
47.6325,1004.2863,-0.009999695550657762,-0.11343087790358564,-0.12563851196225784,-0.03615,-0.00913,-0.01766,18.1,-22.7,-28.6
47.6556,1004.3064,-0.010569177740320145,-0.11913977093224745,-0.07386763726692536,-0.04532,-0.01035,-0.02866,18.1,-22.7,-28.7
47.6737,1004.3264,-0.011132336749770266,-0.11988818407265614,-0.030874958936808028,-0.06242,-0.0073,-0.04149,18.1,-22.7,-28.8
47.6925,1004.3464,-0.011547331274793331,-0.11296692698054193,-0.006446633629048293,-0.03432,0.00247,-0.03232,18.1,-22.7,-28.8
47.7261,1004.3664,-0.01342983359674927,-0.10035635727531513,-0.006944478543177368,0.01394,-0.01524,-0.03232,18.0,-22.8,-28.8
47.7353,1004.3865,-0.019243843211058438,-0.08263454452564906,-0.03229734067181944,0.02615,-0.03234,-0.05004,18.0,-22.7,-28.8
47.7574,1004.4065,-0.03005965373091757,-0.06694711625847397,-0.07510978167627158,0.00538,-0.03479,-0.06409,18.0,-22.7,-28.7
47.7741,1004.4265,-0.045589589252883464,-0.052869205341743844,-0.12234174858080493,-0.02577,-0.01891,-0.06409,18.0,-22.7,-28.7
47.7933,1004.4466,-0.06485409345202156,-0.04161063541302081,-0.15950503168637198,-0.07342,0.00125,-0.05737,18.0,-22.6,-28.7
47.8124,1004.4666,-0.08693885532438608,-0.034992533185721035,-0.1755098804266737,-0.16505,0.01836,-0.05309,18.0,-22.6,-28.7
47.8313,1004.4866,-0.1091944335397412,-0.036431593951531574,-0.1663299619077705,-0.25607,0.01042,-0.05309,18.0,-22.6,-28.8
47.8524,1004.5066,-0.1273779332371278,-0.04500805440732993,-0.13591745172600866,-0.24751,0.0098,-0.04515,18.0,-22.6,-28.8
47.8707,1004.5267,-0.14036250991323315,-0.07347918173450844,-0.09413850590640038,-0.16016,-0.01035,-0.02316,18.0,-22.4,-28.8
47.8915,1004.5467,-0.1483641712547538,-0.10822160707804497,-0.0522404017929059,-0.07525,-0.00974,-0.00605,18.0,-22.4,-28.8
47.9114,1004.5667,-0.15356745989511753,-0.14261580945098784,-0.018699642015564066,-0.02699,-0.05861,-0.02805,18.0,-22.3,-28.8
47.9344,1004.5867,-0.15919049888164036,-0.16624401560409174,0.002963928433942442,-0.00317,-0.12092,-0.05615,18.0,-22.2,-28.8
47.9542,1004.6068,-0.1599315354764838,-0.1781799581514221,0.013460224732030568,-0.03066,-0.09404,-0.06103,18.0,-22.1,-28.8
47.9719,1004.6268,-0.15766689095626332,-0.18486499689150568,0.015168553317000288,-0.016,-0.05434,-0.04149,18.0,-22.1,-28.8
47.992,1004.6468,-0.15786679124782815,-0.19425934835353612,0.01021657882590965,0.00416,-0.01707,-0.02194,18.1,-22.0,-28.7
48.0148,1004.6669,-0.1664035268933065,-0.21319505481980144,-0.0002477576468216114,0.06281,-0.04945,-0.03354,18.1,-22.0,-28.5
48.033,1004.6869,-0.17974920280704285,-0.23580848664062254,-0.015289221445826229,0.09091,-0.14108,-0.04149,18.1,-21.9,-28.6
48.0555,1004.707,-0.1988309153519774,-0.26301364205416405,-0.0340143254796228,0.09152,-0.16002,-0.03232,18.1,-21.8,-28.7
48.0747,1004.727,-0.20528834725236275,-0.28012804085448684,-0.05410984055574275,0.10251,-0.16002,0.02021,18.1,-21.8,-28.7
48.0929,1004.747,-0.198154535667805,-0.2859024644411847,-0.07360555192870777,0.08235,-0.1533,0.03976,18.1,-21.7,-28.7
48.1147,1004.767,-0.1885403281825279,-0.2847080073717673,-0.09141684393197735,0.04509,-0.1478,0.06419,18.1,-21.7,-28.7
48.1369,1004.7871,-0.1785442817900935,-0.28160080417378625,-0.10721085164176003,0.07319,-0.19178,0.06481,18.1,-21.7,-28.6
48.1591,1004.8071,-0.1713313200028971,-0.2832212942690403,-0.1214630376064143,0.16849,-0.25592,0.03487,18.1,-21.7,-28.5
48.1759,1004.8271,-0.15597455814284597,-0.27896073180791486,-0.1339396696894113,0.24973,-0.2156,-0.04698,18.0,-21.7,-28.6
48.1978,1004.8472,-0.15163704209042245,-0.2872102413319006,-0.1451470003353439,0.26561,-0.20339,-0.05004,17.9,-21.8,-28.6
48.2161,1004.8672,-0.14387063429382344,-0.27722972416740665,-0.15306280046728737,0.29249,-0.14841,-0.06348,17.8,-21.9,-28.6
48.236,1004.8872,-0.1381748346274767,-0.2560664961913854,-0.1575545772508864,0.29249,-0.06716,-0.01094,17.8,-22.0,-28.6
48.2575,1004.9072,-0.12990918045512884,-0.21792472587538794,-0.1597515402222598,0.18987,-0.00669,-0.01522,17.8,-22.0,-28.6
48.28,1004.9273,-0.11402077787567397,-0.16314196550512364,-0.16341464478261614,0.0567,0.02569,-0.02438,17.8,-22.1,-28.6
48.3051,1004.9473,-0.08908604689593286,-0.10187648780520209,-0.1740792513121896,0.02677,0.06417,-0.0201,17.7,-22.1,-28.6
48.3149,1004.9673,-0.07891653852406677,-0.047692130426616866,-0.1964459124915745,0.00172,0.11487,-0.03904,17.6,-22.2,-28.8
48.3328,1004.9873,-0.07193587574254759,-0.008277697968292183,-0.23081666411364132,-0.02394,0.05501,-0.05004,17.5,-22.3,-28.8
48.3579,1005.0074,-0.07757285109800066,0.016727903942922406,-0.2721103789270529,-0.04898,-0.04945,-0.06042,17.5,-22.5,-28.7
48.3754,1005.0274,-0.09199036422458991,0.02547048792511681,-0.31027865898578,-0.09358,-0.05617,-0.08058,17.4,-22.5,-28.7
48.3936,1005.0474,-0.10653046618805252,0.026092901524024152,-0.3334587889225027,-0.15405,0.02996,-0.09891,17.4,-22.6,-28.7
48.4139,1005.0675,-0.11656659242952619,0.023541181180039582,-0.3324148395602311,-0.24202,0.10388,-0.07875,17.4,-22.7,-28.7
48.4374,1005.0875,-0.12398539990326347,0.01759850106350206,-0.30440363526340164,-0.30493,0.11426,-0.04454,17.4,-22.7,-28.7
48.4552,1005.1075,-0.14287187289802183,-0.01856377903177801,-0.25474977908067586,-0.24385,0.06967,-0.02927,17.4,-22.7,-28.7
48.4809,1005.1276,-0.16014219963324774,-0.05240301183607895,-0.19472219490346987,-0.16077,0.02141,-0.01461,17.4,-22.7,-28.8
48.4979,1005.1476,-0.17312038124622242,-0.09989080800772733,-0.1380143627159729,-0.13389,0.03057,0.0196,17.5,-22.7,-28.8
48.5165,1005.1676,-0.17093152620138943,-0.1318710143609461,-0.09566252478530402,-0.151,0.05012,0.03365,17.5,-22.6,-28.8
48.5382,1005.1876,-0.15057626937412374,-0.14261942880395134,-0.07339960348616259,-0.1681,0.10815,0.05381,17.6,-22.5,-28.8
48.5556,1005.2077,-0.12352505281468354,-0.14715421049491917,-0.07072784285323763,-0.12839,0.11426,0.06908,17.6,-22.5,-28.9
48.5736,1005.2277,-0.09498034089016812,-0.14400273171746436,-0.08066424990546395,-0.05692,0.13564,0.06419,17.7,-22.5,-28.9
48.598,1005.2477,-0.06805699952877454,-0.13080691021517113,-0.09269520876724613,-0.05692,0.09349,0.05442,17.8,-22.4,-28.9
48.6156,1005.2677,-0.05154259370027707,-0.1163390934221143,-0.09693605360989288,-0.08991,0.03852,0.03915,17.9,-22.3,-28.8
48.6331,1005.2877,-0.04135550090187039,-0.10131230764508008,-0.08756457039808829,-0.12534,0.05867,0.02754,18.1,-22.2,-28.8
48.6534,1005.3077,-0.03724028897168358,-0.09152902338889256,-0.06525376049687104,-0.10579,0.08861,0.00494,18.1,-22.0,-28.9
48.6752,1005.3277,-0.042768827613455664,-0.09582625422438916,-0.036532685669875775,-0.04226,0.05073,-0.0201,18.1,-22.0,-29.0
48.6958,1005.3477,-0.06119723568347243,-0.1125176459508321,-0.01074572768533244,0.02982,0.02874,-0.03477,18.2,-21.8,-29.1
48.7136,1005.3677,-0.09082769987038786,-0.13011346011079802,0.0038250145453044837,0.02982,0.03974,-0.0311,18.2,-21.8,-29.2
48.7356,1005.3877,-0.12302411017181798,-0.1426571846145928,0.0029050136775286006,0.02127,0.0544,-0.0256,18.2,-21.7,-29.3
48.761,1005.4077,-0.15324709071560905,-0.14876378302724713,-0.012789742127884196,0.02982,0.04646,-0.01033,18.3,-21.6,-29.3
48.7767,1005.4277,-0.18277287210068813,-0.1491973424903492,-0.03849715247250529,0.04081,0.03302,0.00616,18.3,-21.6,-29.2
48.7994,1005.4477,-0.20307863549959426,-0.15498956393834987,-0.06735311830517787,0.06281,0.02385,0.01227,18.3,-21.6,-29.2
48.815,1005.4678,-0.21394852195168837,-0.15765154922681374,-0.0926609170572501,0.07441,0.00492,0.01471,18.4,-21.5,-29.1
48.8443,1005.4878,-0.21567706418836746,-0.1665270595765745,-0.11044689655896889,0.05731,3e-05,0.01899,18.4,-21.5,-29.0
48.862,1005.5078,-0.2096875570391614,-0.16706215155491547,-0.11987537977993235,0.02493,0.00919,0.02082,18.4,-21.5,-29.1
48.8748,1005.5279,-0.20258532216730152,-0.1676823718478158,-0.12375689513086563,-0.00256,0.02202,0.03243,18.3,-21.4,-29.0
48.895,1005.5479,-0.1998260591407512,-0.17543484553628325,-0.12621925000128797,0.0341,0.01836,0.02876,18.3,-21.4,-29.0
48.9169,1005.5679,-0.20537632797615557,-0.1934743798288531,-0.13026584627828441,0.10557,0.03057,0.02449,18.2,-21.3,-29.1
48.9389,1005.5879,-0.21846418957091635,-0.21560285706187363,-0.13590397040523605,0.13489,0.02324,0.03304,18.1,-21.4,-29.0
48.9565,1005.608,-0.2354162626065554,-0.22640422881169997,-0.14020467956006932,0.13367,0.01652,0.04587,18.2,-21.4,-29.0
48.9752,1005.628,-0.2520314695598422,-0.22844218627188825,-0.13994830710106676,0.10373,0.02874,0.0703,18.2,-21.4,-28.9
48.9936,1005.648,-0.26659954053767027,-0.22360328408317331,-0.13391266192768825,0.0793,0.00614,0.08069,18.2,-21.4,-28.8
49.017,1005.6681,-0.28280151432550743,-0.22679021479618428,-0.12466131321031426,0.14649,-0.08549,0.08985,18.2,-21.5,-28.7
49.0355,1005.6881,-0.28467681623461105,-0.2281332190754755,-0.11614711072188477,0.22163,-0.14047,0.09779,18.2,-21.5,-28.6
49.0726,1005.7081,-0.3011039409540074,-0.2780987125902516,-0.11522238961450704,0.26867,-0.14658,0.11612,18.1,-21.6,-28.6
49.0852,1005.7281,-0.2653327881937792,-0.2575407603150276,-0.11884952920855874,0.25645,-0.09038,0.08252,18.1,-21.7,-28.5
49.0988,1005.7482,-0.22416854425619706,-0.22874616746590723,-0.1286304418964761,0.16604,-0.04578,0.04953,18.1,-21.7,-28.4
49.1139,1005.7682,-0.18583056891378388,-0.19342702607999776,-0.14043626398801123,0.07319,-0.06411,0.0251,18.1,-21.8,-28.5
49.1341,1005.7882,-0.15507554029145643,-0.1572502635179531,-0.14960710224586649,0.02127,-0.06594,0.03732,18.1,-21.9,-28.5
49.1577,1005.8083,-0.12584985407492338,-0.12536095773152228,-0.15317985867566897,-0.00195,-0.01524,0.06481,18.1,-22.0,-28.4
49.1771,1005.8283,-0.09319488055223894,-0.10336495783502873,-0.15125127961623974,0.01638,0.04157,0.04159,18.2,-22.2,-28.3
49.1985,1005.8483,-0.060727807758282765,-0.09199466983438888,-0.14624991149506172,0.03104,0.05318,0.0141,18.2,-22.3,-28.4
49.2152,1005.8683,-0.03488320492468021,-0.08475229290586442,-0.1409253636779404,0.03959,0.00125,-0.00422,18.2,-22.4,-28.4
49.2444,1005.8884,-0.017737330041250676,-0.08213399820388914,-0.13671166735519513,0.0402,-0.06228,-0.0421,18.1,-22.5,-28.3
49.2609,1005.9084,-0.007382469162035737,-0.0736825833939598,-0.1331783142594638,-0.01477,-0.0244,-0.08486,18.1,-22.6,-28.1
49.2839,1005.9285,-0.001716093954677698,-0.06038719151927377,-0.12927449172073047,-0.08563,0.04462,-0.05737,18.1,-22.7,-28.2
49.2965,1005.9486,-0.014359894418579338,-0.06363259316954815,-0.12493013102071338,-0.11007,0.07272,-0.02316,18.1,-22.8,-28.2
49.3243,1005.9686,-0.03564161834164452,-0.0703294804099583,-0.12156875116401977,-0.07953,0.05195,-0.01033,18.0,-22.8,-28.2
49.3429,1005.9887,-0.07849549819287059,-0.09755542824942837,-0.12204024271620284,-0.01172,0.01225,-0.02805,18.0,-22.9,-28.2
49.3599,1006.0087,-0.13087033321872635,-0.12976794287035573,-0.12828769640570137,0.00722,-0.00791,-0.05126,18.0,-22.9,-28.2
49.3793,1006.0288,-0.18201659857686106,-0.15602802597360788,-0.1397460039284617,-0.04593,0.02447,-0.04943,18.0,-22.8,-28.2
49.3983,1006.0488,-0.2263961942673033,-0.17427925684313877,-0.15309599530332818,-0.08075,0.05867,-0.02194,18.0,-22.9,-28.3
49.4173,1006.0688,-0.26105781880868745,-0.18863840155479966,-0.1633121910619284,-0.05387,0.04829,0.01105,18.1,-22.8,-28.2
49.4473,1006.0889,-0.2829275651541772,-0.1994474553685532,-0.16523271289302421,-0.01477,0.01103,0.03304,18.1,-22.8,-28.2
49.465,1006.1089,-0.29007524269751245,-0.21168846302222516,-0.15563809341286294,-0.01844,-0.0018,0.03915,18.0,-22.8,-28.4
49.4847,1006.1289,-0.2812422845367432,-0.2174260351411976,-0.1342905167951507,-0.04654,0.01225,0.03976,17.9,-22.7,-28.4
49.4981,1006.1489,-0.2599062849436991,-0.2206435216029135,-0.1050438671093179,-0.08075,0.04157,0.03609,17.9,-22.6,-28.5
49.5175,1006.169,-0.232050488150597,-0.21657084837258742,-0.07446429773105123,-0.06975,0.02874,0.04159,17.9,-22.6,-28.5
49.5345,1006.189,-0.20341432060516587,-0.21338077802315758,-0.05018485879071655,-0.03676,0.01897,0.04159,17.9,-22.6,-28.6
49.562,1006.209,-0.17425953954793968,-0.20796142673453094,-0.03777198259701464,-0.00133,0.04462,0.04526,17.9,-22.6,-28.7
49.5805,1006.2291,-0.1481508828315777,-0.19877441079386354,-0.03934143769392939,0.01149,0.06051,0.04404,17.9,-22.6,-28.6
49.5968,1006.2491,-0.12464888791211276,-0.1835493258550774,-0.05292880797787092,0.00233,0.03119,0.05625,18.0,-22.6,-28.7
49.6195,1006.2691,-0.10389314598235443,-0.16522126556613828,-0.07382678353177319,-0.00195,0.03607,0.04648,18.0,-22.6,-28.7
49.6435,1006.2891,-0.08877510052974727,-0.14883057007758105,-0.0965697932380305,-0.00378,0.0263,0.0306,18.0,-22.6,-28.7
49.6579,1006.3092,-0.0813084986066727,-0.1385564717329632,-0.11685407127626135,0.00233,0.0098,0.02266,18.0,-22.6,-28.8
49.6943,1006.3292,-0.08321210211534691,-0.135039377779124,-0.1327146677358204,0.00538,0.00125,0.01227,18.0,-22.6,-28.8
49.6978,1006.3492,-0.09424318370030509,-0.1373876863540647,-0.1445596732530543,-0.00195,0.00247,0.00494,18.0,-22.6,-28.9
49.7144,1006.3693,-0.11399003335043162,-0.14314454953297798,-0.15416825875586326,-0.0105,0.01286,0.01166,18.0,-22.6,-28.9
49.7373,1006.3893,-0.1395249368926707,-0.15168079161699538,-0.16321111330035087,0.00477,0.00247,0.00555,18.0,-22.6,-29.0
49.7573,1006.4093,-0.16736865619689378,-0.16021094239344072,-0.17191944028799,0.01272,0.01103,-0.00544,18.0,-22.6,-28.9
49.7755,1006.4293,-0.19300961299193278,-0.16507743133488126,-0.17865116345429577,0.01516,0.01164,-0.00178,18.0,-22.6,-28.9
49.7946,1006.4494,-0.21233426248340853,-0.16431000368307327,-0.1806449840944424,-0.0221,0.00125,0.00861,18.1,-22.6,-28.9
49.8192,1006.4694,-0.22322732859864203,-0.157101613280344,-0.17556239979435162,-0.0557,0.01836,0.01471,18.0,-22.6,-28.8
49.8592,1006.4894,-0.22729742730191094,-0.14131571170734983,-0.16301658348903203,-0.06181,0.01286,0.01838,18.0,-22.6,-28.8
49.8736,1006.5094,-0.22204028489712216,-0.14144133942593942,-0.1454695380155382,-0.04287,-0.01402,0.0196,18.0,-22.5,-28.8
49.8848,1006.5294,-0.21032724266664193,-0.1447706950865677,-0.12698810491758117,-0.04471,-0.02074,0.01655,18.0,-22.5,-28.8
49.896,1006.5494,-0.19545325971503838,-0.14794043364567028,-0.11236559622182085,-0.07158,0.01103,0.02876,17.9,-22.4,-28.7
49.9192,1006.5694,-0.18169932004887213,-0.14306166756606498,-0.1051000760366616,-0.06914,0.02447,0.02632,17.9,-22.4,-28.6
49.9422,1006.5894,-0.171712950214646,-0.14095642996625948,-0.1062767452929716,-0.0441,-0.01219,0.02999,17.9,-22.4,-28.7
49.9576,1006.6094,-0.16707350122106038,-0.14659608332829147,-0.1137294159269242,-0.02394,-0.00058,0.02388,17.9,-22.4,-28.7
49.9751,1006.6294,-0.16880567163258467,-0.15669691612135836,-0.1227356038523979,-0.005,-0.0018,0.00372,17.8,-22.4,-28.6
49.996,1006.6494,-0.1757487570243998,-0.16914432207997393,-0.1278755926903834,0.0005,-0.01219,0.00189,17.8,-22.4,-28.6
50.0146,1006.6694,-0.1843466238618093,-0.18086159446661165,-0.12521740443670737,-0.02149,-0.01585,0.00922,17.8,-22.4,-28.7
50.0388,1006.6894,-0.19151544103214957,-0.18800042564249347,-0.11416548157796136,-0.05387,0.00247,0.01227,17.7,-22.4,-28.7
50.0586,1006.7094,-0.19364138824192723,-0.1964847177979244,-0.0981446834384272,-0.04898,0.01775,0.01594,17.7,-22.4,-28.7
50.0831,1006.7294,-0.18914277335186083,-0.2050221901297594,-0.0831327226145735,-0.01844,0.01897,0.02327,17.7,-22.4,-28.7
50.0985,1006.7494,-0.17980159600850804,-0.2128816093965703,-0.07541971277115245,0.02554,0.02324,0.02449,17.7,-22.4,-28.7
50.1234,1006.7694,-0.16607913002084443,-0.21819142334178043,-0.07903256654465274,0.03776,0.01897,0.03487,17.7,-22.4,-28.8
50.135,1006.7893,-0.15202062870314614,-0.2105204475176917,-0.0943425070644377,0.01882,0.01714,0.02204,17.7,-22.4,-28.8
50.1587,1006.8093,-0.13948773356002717,-0.1950889495713982,-0.11875442332945241,-0.005,0.01225,0.01227,17.8,-22.4,-28.8
50.1778,1006.8293,-0.13143082319216637,-0.17546732285193764,-0.14763330771461725,-0.02027,-0.0018,-0.00178,17.8,-22.4,-28.8
50.1946,1006.8493,-0.1294775519006549,-0.15915133958722,-0.17571698457471996,-0.02638,0.00431,0.00066,17.8,-22.4,-28.8
50.2147,1006.8693,-0.13391583201848586,-0.1501011639479658,-0.19783725344134595,-0.01477,0.0153,0.00738,17.8,-22.5,-28.9
50.238,1006.8893,-0.1439112136853645,-0.14861751847951746,-0.20941063565358675,0.00844,0.00614,0.00372,17.8,-22.5,-28.9
50.2575,1006.9093,-0.15735247298786376,-0.14904834501790878,-0.20695640097396684,-0.00378,0.00064,0.008,17.8,-22.5,-28.9
50.2738,1006.9293,-0.1716837287957167,-0.1491689410175346,-0.18916893044132976,-0.06792,0.00492,-0.00239,17.9,-22.5,-29.0
50.2954,1006.9493,-0.18470261914773872,-0.14386911599402144,-0.15779101564138998,-0.11984,0.01652,0.00128,18.0,-22.5,-29.0
50.3142,1006.9693,-0.19626139686494493,-0.14626396806523842,-0.11816580490184592,-0.10701,0.00858,0.00738,17.9,-22.6,-29.0
50.3351,1006.9893,-0.20573706429621502,-0.15660255071869755,-0.07761482995971214,-0.04593,-0.00852,0.01166,18.0,-22.5,-28.9
50.3555,1007.0093,-0.21164330629371506,-0.17507651215312264,-0.04350232905084361,-0.00317,-0.01707,0.00922,18.0,-22.5,-28.8
50.3738,1007.0293,-0.21283236219059704,-0.19385289556081198,-0.020954287204633104,0.02127,-0.00608,0.00738,18.0,-22.4,-28.7
50.394,1007.0493,-0.21058797918897695,-0.2074818181515186,-0.011925919955148245,0.0176,0.00186,0.00433,18.0,-22.4,-28.7
50.4168,1007.0693,-0.20719349966804262,-0.21461168563734026,-0.015518677441699325,-0.00317,3e-05,0.01044,18.0,-22.3,-28.6
50.4345,1007.0893,-0.20393349448120937,-0.21697916135678713,-0.029179899769566475,-0.00011,-0.00852,0.0025,17.9,-22.3,-28.6
50.4611,1007.1093,-0.20147634211336746,-0.2175321612919528,-0.04998975239489667,0.03043,-0.00974,-0.00056,17.9,-22.3,-28.7
50.4763,1007.1293,-0.19760021523790164,-0.21422548553229384,-0.0751863575905034,0.01394,3e-05,0.01594,18.0,-22.3,-28.7
50.4961,1007.1493,-0.19257356268545636,-0.20932064937609632,-0.10245139658491809,0.01027,0.02324,0.01777,18.0,-22.2,-28.7
50.515,1007.1693,-0.18751095228616926,-0.20296972672099037,-0.12929594117170673,0.01943,0.01103,0.0141,18.0,-22.2,-28.7
50.5368,1007.1893,-0.1833526500277247,-0.1969175060925726,-0.15282857452091925,0.03837,-0.01158,0.0141,18.0,-22.2,-28.7
50.5552,1007.2092,-0.178494293532865,-0.1892190616435221,-0.16985821808757962,0.03226,-0.02196,0.01533,18.0,-22.2,-28.7
50.5747,1007.2292,-0.17231508124983608,-0.1815871850195487,-0.17789458549470183,-0.00133,-0.01585,0.01838,18.0,-22.1,-28.7
50.5959,1007.2492,-0.16512157947654535,-0.17645789217837413,-0.17593204389511996,-0.01111,-0.00424,0.02266,17.9,-22.1,-28.7
50.6152,1007.2692,-0.15875315266416679,-0.17686540991488384,-0.16485853058200028,-0.00989,-0.00547,0.0141,17.9,-22.0,-28.7
50.6375,1007.2892,-0.1569150362735964,-0.1825664490307857,-0.14717928710640038,0.0121,-0.01463,0.00616,17.9,-22.0,-28.8
50.6557,1007.3092,-0.16021921558624166,-0.19020186352798651,-0.12638173153160714,0.01149,-0.02379,-0.00483,17.9,-22.0,-28.9
50.6746,1007.3292,-0.16919698496766952,-0.196889056064519,-0.10650591596027681,-0.03127,-0.02135,-0.01339,17.9,-22.1,-29.0
50.6938,1007.3492,-0.1825790769206033,-0.20205923482726715,-0.09170000600644101,-0.05081,-0.01402,-0.01339,17.9,-22.1,-29.1
50.7163,1007.3692,-0.1986453910632837,-0.20478084288315865,-0.08562780339313214,-0.00011,-0.01219,-0.01827,17.9,-22.1,-29.2
50.7344,1007.3892,-0.21343681243725782,-0.2034136639550701,-0.09064913756512993,0.00844,-0.02135,-0.01277,17.8,-22.1,-29.2
50.7578,1007.4092,-0.22363787443733363,-0.19365262955778512,-0.10707949602164213,-0.02333,-0.0128,-0.00911,17.8,-22.1,-29.2
50.7759,1007.4292,-0.22660731360327102,-0.17855243825495712,-0.13304563326845908,-0.04471,0.00736,5e-05,17.8,-22.1,-29.2
50.7953,1007.4492,-0.22279114517933665,-0.16122470534223252,-0.164624659784403,-0.02272,0.03424,0.01349,17.8,-22.1,-29.3
50.8219,1007.4692,-0.21436633164609453,-0.1436770906822404,-0.1966055371685549,-0.00133,0.01042,0.00677,17.7,-22.2,-29.2
50.8577,1007.4892,-0.20429497896615675,-0.12117899284955529,-0.22355839947227096,-0.04348,-0.01646,-0.01033,17.8,-22.2,-29.2
50.8753,1007.5092,-0.1928319353854762,-0.1078816505383642,-0.2412130479953749,-0.09785,-0.01768,-0.02682,17.8,-22.2,-29.2
50.8884,1007.5292,-0.18008368279798467,-0.10492535931972191,-0.2466525405856963,-0.13878,-0.00058,-0.04576,17.9,-22.2,-29.1
50.9026,1007.5492,-0.1654991526138961,-0.11169061961197038,-0.23834512383476358,-0.12778,-0.00913,-0.05981,17.9,-22.2,-29.2
50.9149,1007.5692,-0.1482824416529526,-0.134694561739179,-0.21569153967067933,-0.09724,-0.04762,-0.07325,17.9,-22.2,-29.2
50.9515,1007.5892,-0.12958777909960434,-0.1561287863656137,-0.17852371741647133,-0.06303,-0.04151,-0.06775,17.9,-22.2,-29.1
50.9585,1007.6092,-0.10990650104044392,-0.1988609487439305,-0.12908226123704125,-0.03982,-0.02501,5e-05,18.0,-22.1,-29.1
50.9765,1007.6292,-0.10903444159753205,-0.2341729898486007,-0.07274926685193783,-0.05753,-0.13069,-0.00605,18.0,-22.1,-29.1
50.9948,1007.6491,-0.13392651091759372,-0.26376786403856267,-0.02042916219838098,-0.05143,-0.28524,-0.11845,18.0,-22.0,-29.1
51.0166,1007.6691,-0.19503659978111954,-0.29244243327626634,0.012682573373023587,0.02249,-0.39886,-0.17771,17.9,-22.0,-29.2
51.0345,1007.6891,-0.2570635977339402,-0.320921890609251,0.013318839335868304,0.12634,-0.42757,-0.15083,17.9,-21.9,-29.1
51.0548,1007.7091,-0.3164106511316823,-0.350325402691462,-0.023877427780247373,0.29493,-0.3335,-0.13556,17.9,-21.9,-29.3
51.076,1007.7291,-0.3499036466341111,-0.36021481566287744,-0.08933120400605432,0.36152,-0.16307,-0.11418,17.9,-21.8,-29.4
51.0949,1007.7491,-0.35277685094344957,-0.32604376840465205,-0.16094208689473355,0.17765,0.01775,0.03732,17.8,-21.8,-29.4
51.125,1007.7691,-0.33232261348080444,-0.25644458048741015,-0.21322290836327795,-0.05448,0.07578,0.10573,17.8,-21.8,-29.4
51.1426,1007.7891,-0.30625986808342376,-0.1818002294750183,-0.2268774050923721,-0.21208,0.05379,0.05381,17.7,-21.7,-29.5
51.1606,1007.8091,-0.2781570454495078,-0.12697496770983074,-0.19517367537874897,-0.21575,0.01775,-0.00605,17.7,-21.7,-29.5
51.1799,1007.8291,-0.2535535468409371,-0.11046706323254708,-0.1277225979861889,-0.18032,0.00675,-0.02805,17.6,-21.6,-29.5
51.1975,1007.8491,-0.23778877773253035,-0.14165326196957312,-0.04708098280453221,-0.11618,-0.01096,-0.07997,17.5,-21.6,-29.4
51.2144,1007.8691,-0.23364685763590043,-0.20191032731469838,0.019946213900649212,0.08052,0.00858,-0.03965,17.5,-21.6,-29.4
51.2363,1007.8891,-0.24065403148323247,-0.27079085529570696,0.0521215668405155,0.22957,-0.02868,-0.03049,17.4,-21.6,-29.5
51.2716,1007.9091,-0.2567872170164669,-0.3292358672781839,0.04070231271397873,0.18254,-0.00913,-0.03782,17.3,-21.6,-29.5
51.279,1007.9291,-0.2846692716839075,-0.3131475149412498,-0.007583934348861732,0.02615,0.02324,-0.00544,17.3,-21.7,-29.5
51.2986,1007.9491,-0.32059720364028077,-0.27741940373741214,-0.07927290550547106,0.00416,0.03241,0.02632,17.2,-21.7,-29.6
51.3167,1007.9691,-0.3618723821972675,-0.2355530673997316,-0.153916681599906,0.10923,0.03546,0.03304,17.2,-21.7,-29.5
51.3386,1007.9891,-0.4018446456932358,-0.20811260161278142,-0.21017333939570015,0.1581,0.04279,0.07641,17.2,-21.7,-29.4
51.357,1008.0091,-0.44280890289487507,-0.19107924703350543,-0.23039424256393737,0.06464,0.05318,0.03854,17.1,-21.8,-29.3
51.3755,1008.0291,-0.48704904916056485,-0.18611957920575467,-0.2059617473334754,-0.04104,0.01836,-0.06531,17.1,-21.8,-29.4
51.3948,1008.049,-0.5330492090758441,-0.19017982809938905,-0.14092833142771788,-0.07953,-0.16063,-0.0366,17.1,-21.8,-29.4
51.4139,1008.069,-0.5592016991126197,-0.20480303311140086,-0.05270115512861473,-0.11862,-0.23515,0.04892,17.1,-21.8,-29.3
51.4359,1008.089,-0.5379093550057922,-0.23215127172612485,0.03046202460055447,-0.0783,-0.19361,0.03854,17.2,-21.8,-29.2
51.4579,1008.109,-0.44922415077466227,-0.28217237633638975,0.07628137123196055,0.02188,0.0996,0.0025,17.3,-21.8,-29.1
51.4753,1008.129,-0.3262616143786257,-0.32798097991178793,0.059138889961767305,0.38962,0.31218,0.1094,17.3,-21.8,-29.1
51.4982,1008.149,-0.20402200989666924,-0.3733232994872677,-0.02733807863166504,0.50874,0.09166,0.08252,17.3,-21.9,-29.1
51.517,1008.169,-0.11516283714043611,-0.35127197218629,-0.16338380822854504,0.3719,-0.06533,0.09474,17.3,-21.9,-29.1
51.5417,1008.189,-0.056876102894977486,-0.2892446261491745,-0.3161344235322048,0.15871,-0.11176,0.06297,17.2,-22.0,-29.1
51.5623,1008.209,-0.0057143933144147,-0.19026378253503634,-0.44899463672315854,0.00477,0.07395,0.00555,17.3,-22.1,-29.0
51.5801,1008.229,0.03477477678409467,-0.10093684158330453,-0.534870567613762,-0.09235,0.2065,-0.00972,17.3,-22.2,-29.0
51.5947,1008.249,0.05190897809943996,-0.04850973531291335,-0.5600415490007737,-0.14977,0.18085,5e-05,17.3,-22.2,-29.0
51.6156,1008.269,0.05861604612496286,-0.023141533100833202,-0.5260707449368578,-0.16627,0.19123,-0.01949,17.3,-22.3,-29.0
51.6347,1008.289,0.04425799599729266,-0.027616847088784074,-0.44626191082095445,-0.17665,0.23094,-0.01644,17.3,-22.3,-29.1
51.6626,1008.309,0.03730573991209903,-0.02988287259343386,-0.3393468492873719,-0.2072,0.23033,-0.04576,17.3,-22.3,-29.1
51.6784,1008.329,-0.0079176355089627,-0.06647882659682162,-0.2235231674231848,-0.24263,0.24193,-0.07264,17.4,-22.3,-29.1
51.6948,1008.349,-0.06849137808902231,-0.11010461468236545,-0.11327639076630192,-0.22369,0.15091,-0.0702,17.4,-22.4,-29.1
51.7161,1008.369,-0.14185722835037087,-0.15105789741299197,-0.01815047211807652,-0.19681,0.04585,-0.04943,17.4,-22.4,-29.1
51.7488,1008.389,-0.2245806243323342,-0.17455942128629495,0.056032878844783696,-0.19437,-0.03784,-0.0256,17.4,-22.4,-29.1
51.7563,1008.409,-0.28719220266979073,-0.24320049008721667,0.10432206463974936,-0.18154,-0.04273,0.01655,17.4,-22.4,-29.1
51.7736,1008.4289,-0.3258917939083162,-0.28961657449798717,0.12459242544488447,-0.13084,0.02019,0.04343,17.4,-22.4,-29.2
51.7963,1008.4489,-0.34010687714170607,-0.3259835761894703,0.11443378211777855,-0.05204,0.05195,0.0758,17.4,-22.3,-29.3
51.8145,1008.4689,-0.34218409604677424,-0.35565356654371505,0.07434691325621756,0.0402,-0.01341,0.06664,17.5,-22.3,-29.2
51.8339,1008.4889,-0.3422613358891339,-0.3713189011727786,0.010637364080409384,0.13061,-0.12275,0.05625,17.6,-22.3,-29.2
51.8535,1008.5089,-0.33723574260065303,-0.3623998992827327,-0.06427320876183273,0.15444,-0.16063,0.04343,17.6,-22.2,-29.1
51.8737,1008.5289,-0.31966316882895524,-0.32316869235535245,-0.13534680413994238,0.0457,-0.07327,0.05442,17.6,-22.1,-29.2
51.8998,1008.5489,-0.28810793338095536,-0.2562618962019834,-0.19004974362248817,-0.06486,0.04401,0.06847,17.6,-22.1,-29.2
51.9171,1008.5689,-0.252340310275893,-0.192312624204372,-0.2225011337582412,-0.13695,0.0825,0.05014,17.6,-22.0,-29.4
51.9385,1008.5889,-0.22139620451506997,-0.14054019099401466,-0.2324154547883115,-0.13206,0.07578,0.03426,17.6,-22.0,-29.4
51.9536,1008.6089,-0.20559768829134203,-0.12009301119118623,-0.22439610096748197,-0.06059,0.04585,0.0196,17.6,-22.0,-29.4
51.975,1008.6289,-0.19902869847324275,-0.11582974302365846,-0.20406227630619433,-0.0331,0.01408,0.00677,17.6,-21.9,-29.3
51.9945,1008.6489,-0.2001676193149154,-0.12189032914306126,-0.17674321934126525,-0.0838,-0.00852,0.008,17.6,-21.9,-29.3
52.0312,1008.6689,-0.21415516120815764,-0.11373865576619364,-0.14629634264155555,-0.13756,-0.01096,0.01227,17.6,-21.9,-29.3
52.0585,1008.6889,-0.23831460773241306,-0.12581417248125898,-0.11650052723607907,-0.12351,-0.05861,0.02449,17.6,-21.9,-29.3
52.06,1008.7089,-0.24500039259051593,-0.16880885640097848,-0.090560219634499,-0.04837,-0.12581,0.0141,17.6,-21.9,-29.4
52.0739,1008.7289,-0.2665392205031336,-0.2078211944432608,-0.07279502878813382,-0.01416,-0.14413,-0.00483,17.6,-21.8,-29.3
52.0955,1008.7489,-0.2876492561421045,-0.23800216875235966,-0.06601242731580292,-0.03738,-0.04701,-0.00483,17.6,-21.8,-29.3
52.1142,1008.7689,-0.2995365253387854,-0.2548353915738757,-0.07124075958482301,-0.06059,0.04768,0.00861,17.6,-21.8,-29.3
52.1342,1008.7889,-0.30733571728940356,-0.25811868112747344,-0.08725270496952398,-0.07647,0.04279,0.02388,17.6,-21.8,-29.4
52.1701,1008.8089,-0.31222277041529367,-0.249775634913186,-0.1098110535171184,-0.03615,0.02202,0.04037,17.6,-21.8,-29.4
52.1806,1008.8288,-0.31611335292972453,-0.2428664568136355,-0.13269334051662796,0.00844,0.00797,0.05137,17.6,-21.7,-29.4
52.2045,1008.8488,-0.3132679721676159,-0.22919114807620516,-0.14823120174226823,0.01149,0.01225,0.05564,17.6,-21.7,-29.4
52.2267,1008.8688,-0.2991288938796851,-0.20677180578997162,-0.15070357474821172,-0.04593,0.01958,0.06969,17.6,-21.7,-29.3
52.235,1008.8888,-0.2749062949667991,-0.19141941576210236,-0.1388841659939004,-0.08563,0.00614,0.06847,17.6,-21.7,-29.1
52.2551,1008.9088,-0.251104942270808,-0.176688766273861,-0.11609704645621832,-0.06914,-0.00424,0.03671,17.6,-21.6,-29.2
52.2764,1008.9288,-0.23218229310238486,-0.17720710066357037,-0.08963542749853026,-0.01233,-0.03112,0.0141,17.6,-21.6,-29.2
52.2944,1008.9488,-0.21900709184168185,-0.18947390143859139,-0.06762550173427684,0.02554,-0.04823,0.008,17.5,-21.6,-29.1
52.3142,1008.9688,-0.2132292427002846,-0.2039581961940579,-0.05648830110654934,0.02738,-0.0354,5e-05,17.6,-21.6,-29.2
52.338,1008.9888,-0.2134808195019531,-0.21362542411954893,-0.05892026153961538,0.006,3e-05,0.0025,17.5,-21.6,-29.3
52.3724,1009.0088,-0.2179130172006689,-0.21895030453458234,-0.07350157775958266,-0.00683,0.00125,-0.00056,17.5,-21.6,-29.2
52.3773,1009.0288,-0.22705519671858496,-0.21679723045981347,-0.09535311777548294,0.02493,0.00614,0.00861,17.4,-21.6,-29.2
52.3991,1009.0488,-0.23722669369864482,-0.217381195924508,-0.11811780848450226,0.05792,-0.01035,-0.00178,17.3,-21.6,-29.1
52.4162,1009.0688,-0.2461535219722756,-0.21360835656063243,-0.13551556731218817,0.02249,0.00797,0.00616,17.3,-21.6,-29.2
52.4426,1009.0888,-0.25215789784585185,-0.20800395975770042,-0.14381149802118465,-0.02027,3e-05,0.01533,17.4,-21.6,-29.2
52.4638,1009.1088,-0.25317164900245775,-0.2060710569454299,-0.14264258154148735,-0.01966,-0.00547,0.01288,17.3,-21.6,-29.2
52.4761,1009.1288,-0.24983163846222262,-0.21216796544259592,-0.13479515925814844,0.00905,-0.00669,-0.00117,17.3,-21.6,-29.3
52.4941,1009.1488,-0.24472015370665928,-0.2254064381951157,-0.12489637641340856,0.03532,0.01591,0.00494,17.3,-21.6,-29.3
52.5164,1009.1688,-0.24094529238907283,-0.23999702709488985,-0.11784381738466543,0.03104,0.00064,0.02204,17.3,-21.6,-29.3
52.5365,1009.1888,-0.24160229662482066,-0.24856143806540792,-0.11762886776126535,-0.01233,0.00431,0.01105,17.3,-21.6,-29.5
52.5655,1009.2088,-0.24830571948735541,-0.24977809472867293,-0.12671313444648646,-0.02149,-0.00119,-0.00911,17.3,-21.6,-29.6
52.5792,1009.2288,-0.25976517159972456,-0.24859892545106924,-0.14537280487372328,0.00233,-0.00669,5e-05,17.4,-21.6,-29.6
52.5966,1009.2487,-0.27445939009462056,-0.24497459067753188,-0.17087624323182027,0.03226,0.00492,0.01594,17.4,-21.6,-29.6
52.6228,1009.2687,-0.28932659749616757,-0.2409180650887471,-0.1975277758120999,0.02982,0.02324,0.00738,17.4,-21.6,-29.6
52.6446,1009.2887,-0.3026231993537943,-0.23148827829225382,-0.21751861012520024,0.01333,0.00797,0.01594,17.5,-21.7,-29.6
52.658,1009.3087,-0.3115597704402548,-0.22030033991642284,-0.22346760519039321,-0.016,-0.00424,0.02082,17.4,-21.7,-29.7
52.6751,1009.3287,-0.3143105221993485,-0.21098930218415607,-0.2110316761289308,-0.03982,0.01408,0.02571,17.4,-21.7,-29.8
52.7028,1009.3487,-0.31144618817669,-0.2020530008429498,-0.1809910314221046,-0.0441,0.00858,0.03121,17.5,-21.7,-29.9
52.7143,1009.3687,-0.3013415601314134,-0.2081974114739726,-0.13996970412287624,-0.04776,-0.00424,0.02266,17.5,-21.7,-29.9
52.734,1009.3887,-0.2877693926022762,-0.21759119662445386,-0.09803367458289713,-0.02943,-0.00424,0.01349,17.5,-21.7,-29.9
52.7591,1009.4087,-0.27170178375457565,-0.23111528744576287,-0.06590750349623598,0.01882,0.01958,0.01471,17.5,-21.7,-29.9
52.7743,1009.4287,-0.25591280032426966,-0.2402647712218793,-0.05102596910051105,0.0402,0.0153,0.02143,17.6,-21.7,-29.9
52.8082,1009.4487,-0.2402904037346234,-0.24873843485714933,-0.055595920283085576,0.03532,0.00797,0.01044,17.6,-21.6,-29.8
52.8175,1009.4687,-0.22953416767636614,-0.24129370687036739,-0.07589813386808153,0.01943,0.01164,0.00738,17.6,-21.6,-29.8
52.8403,1009.4887,-0.2224189891105466,-0.23013670015167448,-0.10502673285237307,-0.00256,0.00125,0.01044,17.7,-21.6,-29.7
52.8735,1009.5087,-0.22003475685128215,-0.21819059074391592,-0.13489135704481647,-0.005,-0.00669,0.00738,17.7,-21.6,-29.6
52.8789,1009.5287,-0.2183885321883579,-0.21357764836570972,-0.15876713910084206,-0.0105,-0.01158,0.00616,17.6,-21.6,-29.7
52.8944,1009.5487,-0.22043737076366549,-0.21558754302787628,-0.17252829269849457,0.00416,3e-05,-0.00239,17.5,-21.6,-29.8
52.9292,1009.5687,-0.2262162831870298,-0.22396077016817592,-0.17480025392949372,0.00477,-0.00547,-0.003,17.5,-21.6,-29.7
52.9434,1009.5887,-0.2351200258090591,-0.2354104052220879,-0.16644297500952376,-0.00011,-0.01219,-0.00117,17.5,-21.5,-29.6
52.9579,1009.6087,-0.247510912265799,-0.24770465762442326,-0.1500438703051863,-0.01172,-0.01463,-0.00056,17.5,-21.5,-29.6
52.9777,1009.6286,-0.2630423183614266,-0.25850419379338785,-0.12924272112165092,0.00783,-0.01952,0.00311,17.5,-21.5,-29.6
52.9954,1009.6486,-0.277531843673066,-0.26556759720789586,-0.10795588388628907,0.01027,-0.02501,0.00738,17.5,-21.6,-29.6
53.0149,1009.6686,-0.28915430341044396,-0.26791104935612425,-0.08972182997396061,0.0005,-0.01096,0.00066,17.5,-21.6,-29.7
53.0336,1009.6886,-0.296953237651083,-0.26634286503137955,-0.07683739010767177,0.00844,0.01591,-0.00544,17.4,-21.6,-29.7
53.0621,1009.7086,-0.3009344174086047,-0.26503298649049817,-0.06990645004796292,0.01455,0.01042,0.00555,17.4,-21.5,-29.7
53.074,1009.7286,-0.3021511260612451,-0.2612736916406842,-0.06776903856281358,0.02677,-0.00058,0.01288,17.4,-21.5,-29.8
53.0933,1009.7486,-0.2990718992333235,-0.2601983161974027,-0.06876671359485087,0.02738,-0.00974,0.00372,17.4,-21.6,-29.8
53.1156,1009.7686,-0.29189694179870773,-0.2589015669076821,-0.07180804762307424,0.01088,0.00675,0.00372,17.4,-21.5,-29.8
53.1368,1009.7886,-0.28294423241222877,-0.25525996807353285,-0.07760081791103168,0.00111,0.01164,0.01044,17.3,-21.6,-29.9
53.1739,1009.8086,-0.27716098677885964,-0.25094160525180315,-0.0885924143851593,0.01272,-0.00974,0.01044,17.4,-21.6,-30.0
53.184,1009.8286,-0.2704804676713684,-0.24314742423823615,-0.10692686392558848,0.02554,-0.03234,0.00433,17.5,-21.6,-29.8
53.2059,1009.8486,-0.2685600045540843,-0.24147225326361055,-0.13320661425956537,0.05609,-0.00486,0.01288,17.6,-21.6,-29.9
53.2188,1009.8686,-0.2712315569923503,-0.23428728992988068,-0.1636316144817176,0.08113,0.01897,0.01166,17.6,-21.6,-30.0
53.2403,1009.8886,-0.28087562145393064,-0.2319773442768506,-0.19164341739554835,0.07258,0.00186,0.00738,17.6,-21.6,-30.1
53.2588,1009.9086,-0.2973772768133561,-0.22643509135244355,-0.20923033261684765,0.01394,-0.02807,0.00128,17.6,-21.7,-30.0
53.2744,1009.9286,-0.3165283856744454,-0.2244114936209028,-0.2110723271016024,-0.04593,-0.02013,0.00861,17.6,-21.6,-29.9
53.2955,1009.9486,-0.3341500697325278,-0.22945535882740395,-0.19667446110193865,-0.04043,-0.0073,0.01655,17.6,-21.6,-30.0
53.3162,1009.9686,-0.3437011505877003,-0.24586965558552637,-0.1706020623869975,0.00355,-0.00241,0.02266,17.6,-21.6,-29.9
53.3344,1009.9886,-0.34222112376854125,-0.2663325073386188,-0.14041663234579183,0.04692,-0.00486,0.03365,17.7,-21.6,-29.9
53.358,1010.0086,-0.33063509965600546,-0.28219094436789455,-0.11403859895877844,0.04081,0.0037,0.04465,17.7,-21.7,-29.8
53.3739,1010.0286,-0.3090138474326632,-0.28228780458639574,-0.09728412288515997,0.01088,3e-05,0.04709,17.7,-21.7,-29.8
53.3968,1010.0486,-0.2835067448913844,-0.2705139062446403,-0.0936845839252971,-0.00989,0.00125,0.04465,17.7,-21.7,-29.8
53.4155,1010.0685,-0.25648044954146904,-0.2516842978538411,-0.10374101337807495,0.01638,-0.0018,0.02876,17.7,-21.7,-29.8
53.434,1010.0885,-0.23323988041194124,-0.2306904952978162,-0.1254025902578384,0.03654,0.01103,0.02449,17.7,-21.7,-29.8
53.4538,1010.1085,-0.217433573560654,-0.21001663476888247,-0.1542507687852055,0.02921,0.02569,0.01777,17.6,-21.7,-29.9
53.4803,1010.1285,-0.21003695456519286,-0.1920980416663343,-0.184183475540733,0.00233,0.03302,0.00616,17.5,-21.7,-29.9
53.4961,1010.1485,-0.21481183409536034,-0.17892569668212613,-0.2086057460547739,-0.01294,0.01714,0.00372,17.4,-21.8,-30.0
53.5178,1010.1685,-0.22608668074063076,-0.1733173192019627,-0.22164810645931432,0.00111,0.00797,0.00066,17.4,-21.8,-29.9
53.5385,1010.1885,-0.23989984705250558,-0.17402559020594632,-0.21982400113977363,-0.00867,-0.01035,0.00555,17.4,-21.8,-29.8
53.557,1010.2085,-0.2507754898538898,-0.17813681801569775,-0.20310471027321597,-0.04165,-0.00424,0.0141,17.4,-21.9,-29.9
53.5755,1010.2285,-0.25584944844973473,-0.18247025541507128,-0.17529707991998933,-0.0722,-0.0073,0.00677,17.4,-21.9,-29.9
53.596,1010.2485,-0.25527872078637004,-0.18511745742443894,-0.14318356012505085,-0.04776,-0.00058,0.00922,17.3,-21.9,-29.9
53.6137,1010.2685,-0.2516612318569651,-0.18740966258732075,-0.11456418795488688,-0.0105,0.00614,0.01166,17.3,-21.9,-29.8
53.6483,1010.2885,-0.2504215290274389,-0.1866122494414363,-0.0957171195334574,-0.00072,-0.00913,0.00861,17.3,-21.9,-29.9
53.6643,1010.3085,-0.2506342773271588,-0.18334061073418856,-0.08943964946519323,0.00233,-0.00913,0.01349,17.2,-22.0,-30.0
53.6755,1010.3285,-0.25388706044913395,-0.17795671904683755,-0.0946107937248506,0.0176,-0.03968,-0.00361,17.2,-22.0,-30.0
53.7232,1010.3485,-0.26774457417171865,-0.18123432786742733,-0.1072944625796044,0.02799,-0.01341,-0.00422,17.2,-22.0,-30.0
53.7327,1010.3685,-0.2778515759332697,-0.1814246751089519,-0.12119936691131805,0.00722,-0.01035,0.00311,17.2,-22.0,-30.0
53.7388,1010.3885,-0.29032261652934904,-0.1882081517236774,-0.1317224252740612,-0.01416,-0.01891,-0.00483,17.3,-22.0,-29.9
53.761,1010.4085,-0.30529364074506676,-0.19857368533454836,-0.1362028401711033,-0.02882,-0.01402,-0.01583,17.4,-22.0,-29.8
53.7792,1010.4285,-0.3200081980549325,-0.216023284530135,-0.13485481825599166,-0.02272,0.00186,-0.01155,17.4,-22.0,-29.9
53.7935,1010.4485,-0.33254748915762505,-0.23609451803320292,-0.12987793054067254,0.00416,-0.01096,-0.00728,17.4,-21.9,-29.8
53.8143,1010.4684,-0.3406954581802634,-0.25214373708422183,-0.12401817717920416,0.01699,-0.00302,-0.00178,17.3,-22.0,-29.9
53.8331,1010.4884,-0.34298210527530326,-0.2595086564350199,-0.11919315378738204,-0.02333,0.01103,0.00189,17.2,-21.9,-30.0
53.8565,1010.5084,-0.33901825481179615,-0.2575007395776027,-0.11572923981906236,-0.0386,0.02691,0.008,17.2,-21.9,-30.0
53.8776,1010.5284,-0.33096204470301804,-0.2512744205938517,-0.11254303792320641,-0.00195,0.01225,0.01105,17.2,-21.9,-30.0
53.8979,1010.5484,-0.319824388340805,-0.2437676436610121,-0.10766348599786113,0.01699,-0.00119,0.00677,17.2,-22.0,-30.0
53.9141,1010.5684,-0.3063734020154354,-0.23613928054317845,-0.09959990651009143,-0.00011,-0.00058,0.00128,17.2,-21.9,-30.1
53.9349,1010.5884,-0.29192293562123556,-0.22979476632650966,-0.08862935640084935,-0.01416,0.00919,0.01166,17.2,-21.9,-30.1
53.9587,1010.6084,-0.2788370561001165,-0.22646240998275208,-0.07730035048271944,0.00844,0.00919,0.01471,17.2,-21.9,-30.1
53.9732,1010.6284,-0.2685778756932369,-0.2264531217402405,-0.06974498713052668,0.02249,-0.01035,0.00983,17.2,-21.9,-30.0
53.9929,1010.6484,-0.262711688525498,-0.2313256354667484,-0.07023084199647478,0.03471,-0.00791,0.00189,17.1,-21.9,-30.0
54.0152,1010.6684,-0.26052690495569436,-0.2405569616789434,-0.08113971818215582,0.04631,0.00736,0.00311,17.1,-21.9,-30.0
54.0332,1010.6884,-0.2625739627446684,-0.2483897093784802,-0.10161675266131631,0.0738,0.00736,0.00066,17.1,-21.8,-30.1
54.0581,1010.7084,-0.26866315888013803,-0.2602537121190273,-0.1277995394554452,0.08235,0.00858,-0.00178,17.0,-21.9,-30.1
54.0753,1010.7284,-0.28024377367978215,-0.2631955853924908,-0.15342351417368683,0.07136,0.00797,-0.00605,17.0,-21.9,-29.9
54.0934,1010.7484,-0.29344768931601484,-0.2626677878059879,-0.17279463858565158,0.04692,-0.03845,0.00189,17.0,-21.9,-29.9
54.1144,1010.7684,-0.30298051681953664,-0.2597842152078763,-0.18234316193945865,0.02799,-0.03173,0.01044,17.1,-22.0,-29.9
54.1355,1010.7884,-0.3021482631495502,-0.25469576974594393,-0.1816405338028293,0.03776,-0.00363,0.00555,17.1,-22.0,-29.9
54.158,1010.8084,-0.2892137138735366,-0.24845340206571412,-0.17318253264184058,0.04631,0.01286,0.00861,17.1,-22.0,-29.9
54.1756,1010.8284,-0.2688740198784879,-0.23792911684001009,-0.16090003665585328,0.03715,0.01591,0.00616,17.1,-22.0,-29.8
54.1979,1010.8484,-0.24680533049762754,-0.22633909692416992,-0.14880655544702925,0.0341,0.01225,0.00189,17.2,-22.0,-29.8
54.216,1010.8683,-0.22995271550813343,-0.21171394571607302,-0.1399263599709144,0.02677,-0.00608,-0.00056,17.2,-22.1,-29.8
54.2436,1010.8883,-0.2223924199604529,-0.1989137881433946,-0.1363954175866926,0.00538,-0.01585,-0.01705,17.2,-22.1,-29.8
54.2573,1010.9083,-0.22522833932054842,-0.18926855348771138,-0.13938148486913526,0.00538,-0.00913,-0.0311,17.1,-22.2,-29.7
54.2764,1010.9283,-0.23913529465213185,-0.18623916947552357,-0.149176397781158,0.00416,3e-05,-0.0311,17.2,-22.2,-29.6
54.294,1010.9483,-0.2639682391041471,-0.18937932794563112,-0.16467006825216401,0.01455,0.01347,-0.0311,17.2,-22.2,-29.4
54.3154,1010.9683,-0.2958938157717054,-0.19745327055802717,-0.1829888210701256,0.02249,0.00309,-0.02988,17.2,-22.2,-29.4
54.3338,1010.9883,-0.3301994585030443,-0.2075026343868465,-0.19969827834476028,0.00722,-0.01096,-0.01949,17.2,-22.3,-29.4
54.3632,1011.0083,-0.3594259948590634,-0.21940144893829144,-0.20972539888539288,-0.00805,-0.01096,-0.014,17.2,-22.3,-29.4
54.3825,1011.0283,-0.3760161183514846,-0.23335970079392238,-0.20882134941559016,-0.005,-0.00486,-0.00789,17.2,-22.3,-29.5
54.3941,1011.0483,-0.37636657588289585,-0.2487116828578407,-0.19518541808633927,0.006,-0.00852,0.01105,17.2,-22.3,-29.4
54.4192,1011.0683,-0.36200270832123194,-0.2617316282823484,-0.170411043062078,-0.00622,0.0037,0.01349,17.3,-22.3,-29.3
54.4364,1011.0883,-0.3357076331712762,-0.2706112720834214,-0.13939152153884216,-0.02455,0.01164,0.01288,17.3,-22.3,-29.3
54.4582,1011.1083,-0.3030487138128615,-0.2718056711289255,-0.10903975988766312,-0.02027,0.00492,0.00555,17.3,-22.3,-29.3
54.4748,1011.1283,-0.27077535018291277,-0.26734307641889393,-0.0862501433754943,-0.01722,0.01714,0.00555,17.3,-22.3,-29.4
54.4984,1011.1483,-0.24290686674900216,-0.25746518149987,-0.07521011747775397,0.00905,0.02996,0.0025,17.3,-22.3,-29.4
54.5173,1011.1683,-0.2273121912456963,-0.24456638523479415,-0.07614253090074818,0.0121,0.03729,-0.00789,17.4,-22.3,-29.4
54.5393,1011.1883,-0.22489056004340724,-0.23167064466229145,-0.08505859271837402,0.01882,0.00614,-0.02133,17.3,-22.2,-29.3
54.5604,1011.2083,-0.2359454085707461,-0.2202264990936831,-0.09565064714246496,0.01638,0.00247,-0.01705,17.4,-22.3,-29.3
54.5738,1011.2283,-0.256772326726882,-0.21268182489218448,-0.10198331135616456,0.00294,0.00186,-0.014,17.4,-22.2,-29.2
54.6035,1011.2483,-0.28114092047947525,-0.20997125407142148,-0.10091262613885199,-0.01355,0.00309,-0.01216,17.4,-22.2,-29.4
54.6156,1011.2683,-0.3047239644923916,-0.21621531244282793,-0.09344908809548436,-0.01783,-0.01524,-0.01277,17.4,-22.2,-29.4
54.6344,1011.2882,-0.3236398038490753,-0.22686784761708723,-0.08385879585452294,-0.00195,3e-05,-0.00239,17.4,-22.2,-29.4
54.6637,1011.3082,-0.33663693360162467,-0.2393473514991954,-0.07793039904446886,0.02188,0.00064,0.00677,17.4,-22.2,-29.4
54.6876,1011.3282,-0.3424636532152144,-0.24776498980386127,-0.08027469365262974,0.01638,-0.00608,0.0196,17.4,-22.1,-29.4
54.6971,1011.3482,-0.33938754538708704,-0.24873388436513685,-0.09256866501197614,0.01394,-0.01952,0.00922,17.4,-22.2,-29.5
54.7163,1011.3682,-0.33228932188382265,-0.24876435160744903,-0.1134287956952722,0.01516,-0.01341,0.00738,17.4,-22.2,-29.5
54.7369,1011.3882,-0.3222626874376092,-0.24904168104591573,-0.13844948957260605,0.03776,-0.0018,0.00616,17.4,-22.2,-29.6
54.7617,1011.4082,-0.31255148121944176,-0.25020125953140104,-0.16232689876322048,0.03104,0.00186,0.01166,17.4,-22.2,-29.6
54.8042,1011.4282,-0.3060416040640189,-0.2487786534107929,-0.18075430096586054,-0.00256,-0.01402,0.0025,17.4,-22.2,-29.6
54.8114,1011.4482,-0.3037434116390426,-0.2514970606943287,-0.19220664393187903,-0.03066,0.00431,-0.01155,17.4,-22.2,-29.6
54.8161,1011.4682,-0.30611773000448744,-0.2564419794756179,-0.19762704774635864,-0.02821,3e-05,-0.0085,17.3,-22.2,-29.7
54.8394,1011.4882,-0.31237391229990114,-0.26158195052789834,-0.19933924041799145,0.01455,-0.01524,-0.00117,17.3,-22.2,-29.8
54.8549,1011.5082,-0.3198311902678662,-0.2631784147045953,-0.1990552890282551,0.02554,0.00186,0.01227,17.4,-22.2,-29.7
54.8738,1011.5282,-0.326637114467493,-0.2573283847223686,-0.19665680807642794,0.00783,0.0037,0.00983,17.4,-22.3,-29.8
54.9073,1011.5482,-0.3315527962954616,-0.2394536181140038,-0.19025108042648498,-0.03676,-0.01158,0.0025,17.5,-22.3,-29.8
54.9243,1011.5682,-0.331095871190121,-0.22447996537177642,-0.17789353266431718,-0.05143,-0.00974,0.00677,17.4,-22.3,-29.8
54.9383,1011.5882,-0.3261255231529659,-0.21622984370869114,-0.15866805419614494,-0.01844,0.00614,0.00738,17.4,-22.3,-29.8
54.9572,1011.6082,-0.31820178742659655,-0.21622585298254504,-0.13396267560864672,0.00844,-0.00547,0.00677,17.4,-22.3,-29.8
54.9756,1011.6282,-0.3082536933662568,-0.22246117609175556,-0.10756383317955098,0.00722,-0.02685,0.00189,17.4,-22.2,-29.7
54.9945,1011.6482,-0.2979571844253497,-0.2294712482950765,-0.08495765140616385,-0.00989,-0.01341,0.01471,17.3,-22.2,-29.7
55.0179,1011.6682,-0.28975687942274947,-0.23310744715428441,-0.0720376927352735,-0.00867,0.00309,0.01105,17.3,-22.3,-29.7
55.0352,1011.6881,-0.2843626631895596,-0.2336975435195711,-0.07331995072397213,-0.00622,-0.01219,-0.00789,17.3,-22.2,-29.7
55.0621,1011.7081,-0.2841612876336199,-0.2321431190633826,-0.090145430997433,0.01027,-0.02135,-0.01277,17.4,-22.2,-29.6
55.0743,1011.7281,-0.28919733191606306,-0.22532446901884504,-0.11928162888674265,0.03104,-0.0018,-0.00483,17.4,-22.3,-29.6
55.0985,1011.7481,-0.2987884973151324,-0.21986480983214957,-0.15350519812255037,0.03348,0.01958,0.00066,17.4,-22.2,-29.6
55.115,1011.7681,-0.3125447456642779,-0.21097259417111622,-0.18304946739096728,0.01699,-0.00608,-0.003,17.5,-22.2,-29.6
55.1416,1011.7881,-0.3285255107785147,-0.20276228080301145,-0.19914601908257978,-0.00805,-0.02318,-0.00605,17.5,-22.2,-29.5
55.1572,1011.8081,-0.34155768228827327,-0.19975224118191878,-0.1968759757557592,-0.02943,-0.01524,-0.00544,17.5,-22.2,-29.6
55.1736,1011.8281,-0.3500225203880978,-0.20233885853671288,-0.1770801969092961,-0.03799,0.00125,0.00066,17.4,-22.1,-29.6
55.1929,1011.8481,-0.3527691822961475,-0.20936949408966188,-0.1459264216744387,-0.02638,-0.00058,0.00311,17.4,-22.1,-29.8
55.2185,1011.8681,-0.3497378546160206,-0.21853770978231665,-0.11252942990917703,-0.00011,-0.01096,-0.00117,17.4,-22.1,-29.8
55.2377,1011.8881,-0.3430205466809086,-0.22545934901376602,-0.08562019104761553,0.00783,0.01225,5e-05,17.4,-22.1,-29.7
55.2595,1011.9081,-0.3350224336558564,-0.22617044830107969,-0.07070025511261768,0.01394,0.02263,0.008,17.4,-22.1,-29.7
55.2745,1011.9281,-0.3292370301727249,-0.21951246068184949,-0.06889145254189621,0.006,0.00553,0.00922,17.5,-22.2,-29.8
55.2932,1011.9481,-0.3266020355161258,-0.20968034193616938,-0.07741195358566699,-0.00928,-0.00302,-0.00544,17.5,-22.1,-29.7
55.3148,1011.9681,-0.32734125603194025,-0.20218826288509933,-0.09122868394228156,-0.01111,0.00431,-0.00667,17.5,-22.1,-29.7
55.3363,1011.9881,-0.33091419589410453,-0.20161600180499356,-0.10494646278394626,0.0121,0.01408,-0.00117,17.5,-22.1,-29.7
55.3567,1012.0081,-0.3363470752608911,-0.20858403951392893,-0.11431019289839384,0.02432,-0.0018,-0.00178,17.5,-22.1,-29.7
55.3733,1012.0281,-0.3417909021979325,-0.22041449878893865,-0.1171091597551932,-0.00133,0.00919,0.00372,17.4,-22.1,-29.6
55.3999,1012.0481,-0.34472201415403125,-0.23485270171750522,-0.11352615919820508,0.0005,-0.00363,0.00922,17.4,-22.1,-29.6
55.4152,1012.0681,-0.3428106489754942,-0.24674465745149246,-0.10576869783234955,0.01577,0.00431,0.01227,17.4,-22.1,-29.4
55.4352,1012.0881,-0.33575548381027487,-0.2545547947591181,-0.09745425267279195,0.0121,0.00797,0.00189,17.5,-22.1,-29.3
55.4633,1012.1081,-0.3249257129003941,-0.2592053052302424,-0.09240653353423234,-0.00805,0.0098,0.00555,17.6,-22.1,-29.2
55.4728,1012.128,-0.31354375389318756,-0.2567433062512109,-0.09327981361903426,0.01699,-0.0018,0.00433,17.6,-22.1,-29.1
55.4979,1012.148,-0.3032333509691975,-0.25526129543266696,-0.10112089219031972,0.0567,0.00247,0.00616,17.6,-22.1,-28.9
55.5224,1012.1681,-0.29535411619313184,-0.2476024233850496,-0.11465817510100251,0.04631,-0.00486,0.0025,17.7,-22.1,-29.0
55.5349,1012.1881,-0.2915076122860648,-0.2346897759323113,-0.13162182024210445,-0.01966,0.00675,-0.00789,17.6,-22.1,-29.0
55.5605,1012.2081,-0.2917781050637681,-0.22331311619471378,-0.14957837463962598,-0.01844,0.00186,-0.014,17.6,-22.2,-29.0
55.5809,1012.2282,-0.29694396154779207,-0.21773122767762737,-0.16646013729020837,0.01027,-0.0128,-0.00911,17.6,-22.2,-29.0
55.5938,1012.2482,-0.30508043890332215,-0.21634905019301956,-0.1805426794438123,0.0286,-0.01585,-0.00605,17.6,-22.2,-29.1
55.6149,1012.2682,-0.31540125152869475,-0.21578660358614288,-0.1904480760159455,-0.01172,-0.00791,-0.01155,17.6,-22.2,-29.1
55.6364,1012.2882,-0.3252698257209023,-0.21473174469334785,-0.1949550614272635,-0.06181,-0.00974,-0.01155,17.7,-22.3,-29.1
55.6607,1012.3083,-0.3333279353677938,-0.21543440252064835,-0.19319576326473076,-0.04898,-0.00241,-0.00789,17.7,-22.3,-29.2
55.6749,1012.3283,-0.34129297550248333,-0.22432749994752407,-0.185035555499363,-0.01783,0.0098,-0.01094,17.8,-22.3,-29.2
55.7146,1012.3483,-0.3443907776479379,-0.22488110370124342,-0.170569279123292,-0.0276,0.03668,-0.01705,17.8,-22.3,-29.2
55.7172,1012.3684,-0.3550832185714759,-0.24208284590351797,-0.15293811669783786,-0.07036,-0.00424,-0.01827,17.8,-22.3,-29.4
55.7344,1012.3884,-0.3638670820303884,-0.2496314611727733,-0.13482196295122684,-0.07281,-0.00608,-0.01827,17.7,-22.3,-29.5
55.7558,1012.4084,-0.3714204676022049,-0.2587941434109201,-0.12090394381757896,-0.04165,0.0037,-0.00911,17.6,-22.3,-29.5
55.774,1012.4284,-0.37526019693204843,-0.27344632098102567,-0.11461478668600833,0.03165,-0.01402,-0.01705,17.6,-22.3,-29.6
55.7939,1012.4485,-0.3738419218937842,-0.28848863300408356,-0.11642520909602183,0.0738,-0.03112,-0.00789,17.6,-22.3,-29.7
55.8165,1012.4685,-0.366722990149862,-0.2959249796602345,-0.1234046055037048,0.03837,-0.00302,0.00616,17.6,-22.2,-29.6
55.8376,1012.4885,-0.35594258996330946,-0.29009443317468864,-0.1307135399418602,-0.01844,0.02447,0.01044,17.6,-22.2,-29.6
55.8618,1012.5085,-0.3452296018125874,-0.2752921554000642,-0.13428648278769373,-0.05265,-0.00119,-0.00605,17.6,-22.2,-29.6
55.8782,1012.5286,-0.337530663511233,-0.26567863179401036,-0.132750745029389,-0.04959,-0.01341,-0.0201,17.6,-22.1,-29.5
55.8947,1012.5486,-0.3331889602535176,-0.26140946744186855,-0.12711087496599482,-0.01233,-0.0073,-0.01522,17.6,-22.0,-29.5
55.9184,1012.5687,-0.33107075943902786,-0.2612804040847816,-0.11995883039927335,0.00905,0.00736,0.00128,17.6,-21.9,-29.5
55.9393,1012.5888,-0.33118620504846735,-0.261022707164686,-0.11364371406932783,0.0121,0.01103,0.00128,17.6,-21.9,-29.4
55.9553,1012.6088,-0.33381152102924905,-0.25800429275987885,-0.1091422493777987,0.00355,-0.00119,-0.00178,17.6,-21.8,-29.3
55.9746,1012.6289,-0.33885361109929957,-0.25408489576852594,-0.10615647788190508,-0.0105,-0.02257,-0.00605,17.5,-21.8,-29.3
55.9967,1012.6489,-0.34549190421420906,-0.25137388940312855,-0.10395976175623645,-0.00378,-0.02685,-0.00911,17.5,-21.8,-29.4
56.0156,1012.669,-0.3508767686563498,-0.25176962237937667,-0.10238582850421629,0.00416,-0.0244,-0.00911,17.5,-21.8,-29.3
56.0417,1012.6891,-0.35582478449557714,-0.25568690234119423,-0.10239148836114609,0.00111,-0.01219,-0.01216,17.6,-21.8,-29.3
56.06,1012.7091,-0.3612554455329847,-0.26309551746490056,-0.10549417310531162,-0.00195,0.00309,-0.01216,17.6,-21.9,-29.4
56.0796,1012.7292,-0.36937746037473773,-0.2726520742842106,-0.11284149603312166,0.03348,-0.00669,-0.00422,17.6,-21.8,-29.3
56.0978,1012.7493,-0.38021770993178655,-0.27882079460113895,-0.12422860484491594,0.04937,-0.01463,-0.00422,17.7,-21.8,-29.3
56.1215,1012.7693,-0.3922302235387734,-0.27806316359715794,-0.13820247344214032,0.01882,-0.00974,-0.003,17.6,-21.9,-29.3
56.1351,1012.7893,-0.40205122032933654,-0.27137680076627174,-0.15267157958878563,-0.03249,-0.0073,5e-05,17.7,-21.9,-29.4
56.1596,1012.8093,-0.4087991928440116,-0.2625819539064142,-0.16562420901109753,-0.03921,0.0153,0.00372,17.7,-21.8,-29.3
56.1768,1012.8294,-0.41282107091278125,-0.260371783807764,-0.17528818970652615,0.01272,0.0098,0.00372,17.7,-21.9,-29.4
56.1953,1012.8494,-0.4137170397274727,-0.2632485953021783,-0.17950318287257083,0.0512,-0.00302,0.02449,17.7,-21.9,-29.3
56.2222,1012.8694,-0.4113978164602357,-0.26666291505307427,-0.17613395565246215,0.01516,0.00186,0.03304,17.7,-21.9,-29.3
56.238,1012.8895,-0.40437176555021526,-0.26737731060376757,-0.1639412410451353,-0.04776,0.01408,0.02571,17.7,-22.0,-29.3
56.2586,1012.9095,-0.39449457734928023,-0.26666975636185464,-0.14395903699539936,-0.05387,0.00919,0.02266,17.7,-22.0,-29.3
56.2753,1012.9295,-0.38240438260960014,-0.27045378607769727,-0.11974419535788172,-0.00683,0.00675,0.03732,17.7,-22.1,-29.4
56.2979,1012.9495,-0.3694289411107618,-0.27580113640113724,-0.09635066785218704,0.01455,0.00736,0.04343,17.7,-22.1,-29.3
56.3158,1012.9696,-0.3559734980809607,-0.2781286264685057,-0.0788420195919386,0.00294,0.02385,0.03609,17.6,-22.1,-29.4
56.3398,1012.9896,-0.34295187994286,-0.2741505938808075,-0.07076693187370608,-0.00561,0.0318,0.02938,17.6,-22.0,-29.5
56.3584,1013.0096,-0.33258966898529213,-0.2630608563764915,-0.07324815969847442,0.00111,0.02324,0.03793,17.5,-22.0,-29.4
56.3802,1013.0297,-0.32418900667617745,-0.2470294938132843,-0.08480662978689502,0.01577,0.0153,0.03304,17.5,-22.0,-29.4
56.3997,1013.0497,-0.31642766329000466,-0.22765372282722313,-0.1020446182694883,0.006,0.01347,0.0196,17.5,-22.0,-29.4
56.4196,1013.0697,-0.3077781111371084,-0.20722481875575158,-0.12073622609065104,-0.00439,0.01225,0.01655,17.6,-22.0,-29.3
56.4374,1013.0897,-0.29874312673225323,-0.18911981531848637,-0.13690619111898883,-0.00256,0.01347,0.01044,17.6,-22.0,-29.3
56.4635,1013.1098,-0.29110203531809253,-0.1771491701689716,-0.1475132988494572,0.00355,0.00614,0.008,17.5,-22.0,-29.1
56.481,1013.1298,-0.28713031527392635,-0.17226968919034247,-0.15077627436574126,0.00783,0.0098,0.00922,17.5,-22.1,-29.3
56.496,1013.1498,-0.2886567664242737,-0.175994143071332,-0.14635461767681335,0.00111,-0.01096,0.00555,17.5,-22.2,-29.4
56.5154,1013.1698,-0.2966581189698563,-0.18870371906392017,-0.13522712022591854,-0.03371,0.01958,-0.01522,17.4,-22.2,-29.5
56.5376,1013.1898,-0.3124267157305541,-0.21218534945250886,-0.11951734017838866,-0.0331,0.03057,-0.03721,17.4,-22.2,-29.3
56.5635,1013.2098,-0.33597076162901834,-0.24606302748424366,-0.10201517622072487,0.00294,-0.00608,-0.02255,17.5,-22.2,-29.3
56.5865,1013.2298,-0.3638715771699452,-0.2842133550921165,-0.085617712068629,0.02554,-0.02135,-0.00789,17.5,-22.2,-29.1
56.6008,1013.2498,-0.3873561504892743,-0.31717293816422093,-0.07293036821667975,0.00111,0.01103,0.01227,17.7,-22.3,-29.1
56.6271,1013.2698,-0.40112314210383443,-0.34094875485440224,-0.06663811240911954,-0.00561,0.00675,0.02632,17.7,-22.3,-29.0
56.6474,1013.2898,-0.4019536327587574,-0.353814599988726,-0.06912908278290608,0.01943,0.00186,0.02449,17.7,-22.3,-28.9
56.6666,1013.3098,-0.3926412341454214,-0.3563601139557313,-0.0821083934185598,0.04998,0.01225,0.02388,17.7,-22.3,-28.9
56.6746,1013.3298,-0.3772005476632561,-0.3420491603795322,-0.10538994713129135,0.05792,0.00858,0.02815,17.7,-22.3,-29.0
56.695,1013.3497,-0.3617289329847074,-0.32292577026666813,-0.13746785000337347,0.05059,-0.00913,0.02693,17.7,-22.3,-28.9
56.7172,1013.3697,-0.3485203970800707,-0.2956718907601315,-0.17418042858820648,0.01027,-0.00119,0.01716,17.6,-22.3,-29.0
56.7387,1013.3898,-0.33947380003808925,-0.2670112364361192,-0.21027931218771911,-0.00317,0.01225,0.00677,17.6,-22.3,-28.9
56.7893,1013.4098,-0.3343402758761675,-0.24658728560345025,-0.2398339674890586,0.01149,0.01591,0.00922,17.6,-22.3,-29.0
56.7902,1013.4298,-0.33707785982133637,-0.2315494570184572,-0.25704405219583926,0.01699,0.00858,0.01777,17.6,-22.3,-28.8
56.8022,1013.4499,-0.3427384716445955,-0.22610488178013427,-0.25754534265470674,-0.00378,-0.01035,0.01227,17.6,-22.3,-28.7
56.817,1013.4699,-0.3493715354462341,-0.22764357525576873,-0.2397363828655532,-0.0386,-0.00058,0.00861,17.7,-22.3,-28.6
56.838,1013.4899,-0.3559615154555588,-0.23370750513822697,-0.20573453243796358,-0.04471,-0.00058,0.01166,17.7,-22.2,-28.7
56.857,1013.5099,-0.3601645214992814,-0.24677851918311078,-0.16130546474879637,-0.01844,-0.02013,0.00922,17.7,-22.2,-28.7
56.8756,1013.53,-0.36131365056102965,-0.2631895291388727,-0.11447925323468056,-0.00683,-0.02624,0.01105,17.6,-22.3,-28.8
56.9113,1013.55,-0.36060044011377995,-0.27828051694050715,-0.07368078754093865,0.01027,0.00309,0.01288,17.4,-22.2,-28.8
56.9218,1013.57,-0.35768489606336,-0.28459658966892853,-0.045503065311605084,0.00294,0.0208,0.00922,17.3,-22.2,-28.8
56.9425,1013.59,-0.35558006193856373,-0.2826139992302878,-0.033743423079572565,0.00111,-0.00363,-0.00178,17.4,-22.2,-28.8
56.9602,1013.6101,-0.35611098986251927,-0.2735603008825549,-0.038425674013973676,0.00722,-0.00486,-0.00422,17.3,-22.3,-28.9
56.9772,1013.6301,-0.3591171433970997,-0.26068997458472176,-0.05601355482095194,0.02127,0.01042,-0.00117,17.4,-22.3,-28.8
56.9959,1013.6501,-0.3638414825227146,-0.24760273107871342,-0.08034170875957614,0.03471,0.00675,-0.00056,17.4,-22.2,-28.8
57.0176,1013.6702,-0.3697152708625398,-0.2372576497656048,-0.10417133838820547,0.02677,-0.00241,-0.00544,17.4,-22.2,-28.7
57.0371,1013.6902,-0.37624325173772105,-0.22990290570428196,-0.1210906639347833,0.01394,0.00492,-0.00667,17.4,-22.2,-28.8
57.058,1013.7102,-0.38190343313921815,-0.2275994148666769,-0.12745666410888568,0.0176,-0.02013,-0.00361,17.4,-22.2,-28.8
57.0795,1013.7302,-0.3848649882470648,-0.2310994311751153,-0.12348649829265845,0.01149,-0.01402,-0.00422,17.4,-22.2,-28.8
57.1058,1013.7503,-0.3842059465221427,-0.24175326037723308,-0.1132251164907867,-0.00805,-0.00608,-0.01033,17.4,-22.2,-28.8
57.1206,1013.7703,-0.37780821087554406,-0.25697290468079964,-0.1028507285619682,0.01272,-0.01646,-0.01827,17.4,-22.2,-28.9
57.1426,1013.7903,-0.3673433222097229,-0.27662083203995097,-0.09868087294606731,0.05914,-0.01891,-0.003,17.4,-22.2,-28.9
57.1637,1013.8104,-0.35332206003509387,-0.2913093317866281,-0.10444934241263049,0.07258,-0.00547,5e-05,17.5,-22.2,-28.9
57.1796,1013.8304,-0.3392426079593813,-0.294904506768313,-0.1206709217618922,0.02249,0.03057,0.00677,17.6,-22.2,-29.0
57.1979,1013.8504,-0.32853010426965495,-0.291897503227788,-0.1450555268345095,0.01638,0.00309,-0.00911,17.6,-22.3,-29.1
57.2151,1013.8704,-0.324455444441819,-0.28572652104516155,-0.1733675729272992,0.04143,-0.03234,-0.00544,17.6,-22.3,-29.0
57.2358,1013.8905,-0.3285388252412614,-0.28100250533577464,-0.2008959979136371,0.0402,-0.01402,-0.01339,17.6,-22.4,-29.0
57.2622,1013.9105,-0.3409297034109169,-0.27726162663550435,-0.22351890682943498,0.03959,-0.01829,-0.01644,17.6,-22.3,-28.9
57.2758,1013.9305,-0.3548819157205344,-0.26847505329979027,-0.2382566905536052,0.00783,-0.05067,-0.00483,17.6,-22.3,-29.0
57.3016,1013.9506,-0.3737685103928845,-0.25894358684076674,-0.2444991826967602,-0.01172,-0.04151,-0.00667,17.6,-22.3,-29.0
57.3206,1013.9706,-0.3902790699534086,-0.2529342692100758,-0.24246367708146366,-0.01172,-0.00913,-0.003,17.6,-22.3,-29.0
57.3439,1013.9906,-0.4058894545731636,-0.2528207828638961,-0.233008629016771,0.02432,-0.04151,0.0025,17.5,-22.3,-29.1
57.3658,1014.0106,-0.4174774562024765,-0.25475324913976044,-0.21628552348837538,0.04265,-0.04151,0.01044,17.6,-22.3,-29.1
57.3853,1014.0306,-0.42324357482535335,-0.2536010324500457,-0.1920835060143169,-0.00011,-0.03051,0.00311,17.5,-22.3,-29.2
57.3962,1014.0506,-0.42155685255473724,-0.25156280014389654,-0.16080342697211059,-0.04776,-0.0244,-0.01339,17.5,-22.4,-29.2
57.4231,1014.0706,-0.4180666172095786,-0.24404290048298666,-0.12442357955376515,-0.04226,-0.01707,-0.00728,17.5,-22.3,-29.1
57.4417,1014.0906,-0.40966647973054704,-0.24511656184179123,-0.08688418985321178,-0.02088,-0.02074,0.00066,17.5,-22.3,-29.2
57.4627,1014.1106,-0.39906128220023096,-0.2514871716043132,-0.05324694251154405,0.00538,-0.01707,0.00738,17.4,-22.3,-29.2
57.4843,1014.1306,-0.38675143700311454,-0.25815691747011565,-0.02846907433172241,0.02982,-0.00608,0.00189,17.3,-22.3,-29.2
57.4977,1014.1506,-0.37343286631758027,-0.25714946866658667,-0.01611723424232636,0.0286,-0.00424,-0.00483,17.3,-22.3,-29.4
57.5154,1014.1705,-0.3614801650956731,-0.24975405698364744,-0.017885461160298988,-0.01416,-0.0128,-0.01766,17.3,-22.3,-29.5
57.5359,1014.1905,-0.35226294138694536,-0.23959332136545675,-0.033021829005559056,-0.01905,0.00797,-0.01644,17.3,-22.3,-29.6
57.5631,1014.2105,-0.3468561981832755,-0.23327424774405986,-0.058510391407448736,0.01821,0.01469,-0.00544,17.4,-22.2,-29.6
57.5769,1014.2305,-0.3494750677632227,-0.2294976156853282,-0.08945102070428135,0.04631,0.00675,-0.00789,17.4,-22.2,-29.6
57.5978,1014.2505,-0.3581381188619507,-0.23132019994001896,-0.11997966975241603,0.01699,-0.00363,-0.02316,17.3,-22.3,-29.7
57.6197,1014.2705,-0.3729808380073002,-0.2366623178371115,-0.14464391125738807,-0.02149,-0.00974,-0.02194,17.4,-22.3,-29.7
57.6443,1014.2905,-0.39179997381159093,-0.24611396781960979,-0.1597358180978663,-0.00683,-0.00974,-0.01522,17.4,-22.4,-29.7
57.6664,1014.3105,-0.41039130036597793,-0.2599836117351883,-0.16404126343193504,-0.00072,-0.01585,-0.01888,17.3,-22.4,-29.8
57.6799,1014.3305,-0.4240649524984616,-0.2766927438663077,-0.15884983923432294,-0.01111,-0.02074,-0.014,17.3,-22.4,-29.7
57.6968,1014.3505,-0.43072361168250317,-0.29129230674105794,-0.1472466034184503,-0.02455,-0.00058,0.00372,17.3,-22.4,-29.8
57.7303,1014.3705,-0.4298380218660981,-0.3034463833853817,-0.13305335680525765,0.00661,0.01652,0.00983,17.3,-22.4,-29.9
57.7439,1014.3905,-0.42244779687494044,-0.30910809980556725,-0.11938398048363474,0.03043,-0.00424,0.00861,17.5,-22.4,-29.8
57.7586,1014.4105,-0.41105078934546896,-0.3088893462373248,-0.10824073320845073,0.03654,-0.01524,0.00494,17.6,-22.4,-29.6
57.7758,1014.4305,-0.3979523644231763,-0.3026231548144507,-0.10038733345206907,0.02799,0.00736,0.00128,17.6,-22.4,-29.6
57.7982,1014.4505,-0.3846049594137791,-0.2913936703135859,-0.09602165876636448,0.00416,0.03119,0.00066,17.6,-22.3,-29.3
57.8153,1014.4705,-0.37580615665393186,-0.2794048270325111,-0.09556908166323197,-0.00561,0.02324,-0.0085,17.6,-22.4,-29.4
57.8346,1014.4905,-0.3717322962824441,-0.27227184949796834,-0.09933626509645954,0.01943,0.03546,-0.01766,17.6,-22.4,-29.3
57.8592,1014.5105,-0.3719437851504962,-0.27405069084189904,-0.10710032186777951,0.04998,0.02324,-0.01277,17.7,-22.4,-29.3
57.8764,1014.5305,-0.37806775414552646,-0.2753493194116618,-0.11736162580809939,0.06158,0.01347,-0.00483,17.6,-22.4,-29.3
57.9189,1014.5504,-0.38347321993319505,-0.2861600229021131,-0.12791596793227455,0.04998,0.0098,0.00189,17.7,-22.3,-29.2
57.9219,1014.5704,-0.3888627001667651,-0.2771898725026899,-0.1355703468000371,0.02005,-0.00119,0.0025,17.7,-22.3,-29.2
57.94,1014.5905,-0.39075024271441716,-0.26777592553915136,-0.13937518831455797,0.00111,0.0037,-0.00544,17.7,-22.3,-29.1
57.9661,1014.6105,-0.38981685090311746,-0.260223500221099,-0.13969146461511173,0.00966,0.00858,-0.00056,17.7,-22.3,-29.0
57.9781,1014.6305,-0.390123268918644,-0.25471852214910756,-0.1383465858230455,0.03471,0.0098,-0.00361,17.7,-22.2,-29.0
57.997,1014.6506,-0.39202819212639095,-0.2566538355080778,-0.13756621002184133,0.05792,-0.00547,-0.01033,17.7,-22.2,-29.0
58.0201,1014.6706,-0.3961995403865225,-0.2626887228339206,-0.13876506079212447,0.04937,-0.00486,-0.00605,17.7,-22.3,-28.9
58.0385,1014.6906,-0.40147113215532165,-0.2651704562710033,-0.14216311098765289,0.02982,0.00125,0.00738,17.6,-22.3,-28.9
58.0628,1014.7106,-0.40600891304620984,-0.2659035219819416,-0.14750112412512628,0.00172,0.0153,0.00311,17.5,-22.3,-29.0
58.0796,1014.7307,-0.4098671406317322,-0.26732746612710656,-0.15444864805739655,-0.01661,0.0098,-0.00422,17.5,-22.3,-29.0
58.1,1014.7507,-0.41152259305469363,-0.2713238072238138,-0.16258502872203984,-0.00133,-0.0018,-0.01033,17.5,-22.4,-29.0
58.1191,1014.7707,-0.41022345129966026,-0.27740574688216046,-0.1710469511376811,0.02982,-0.00119,0.00677,17.6,-22.3,-28.8
58.1443,1014.7908,-0.4051331261867829,-0.28355002493656634,-0.1779811247636509,0.03287,0.01286,0.02021,17.6,-22.3,-28.8
58.1617,1014.8108,-0.3971145468720304,-0.28280693089430065,-0.1805355493490861,0.00172,0.01469,0.0141,17.6,-22.4,-28.8
58.1796,1014.8308,-0.3875773529517832,-0.2770482147570128,-0.1761031811533229,-0.01416,0.0037,0.00066,17.6,-22.4,-28.8
58.2177,1014.8508,-0.3781191906572784,-0.2631849836638337,-0.16327285657315826,-0.0276,-0.00913,0.0025,17.6,-22.5,-28.7
58.2265,1014.8709,-0.3694537357237268,-0.26090513429481055,-0.1435671386299724,-0.03066,0.00553,-0.00422,17.6,-22.5,-28.6
58.238,1014.8909,-0.3621751926032929,-0.2619119910827795,-0.12011672217552416,-0.01538,-0.00119,-0.00789,17.7,-22.5,-28.7
58.2676,1014.9109,-0.3566362746995838,-0.2682158921437977,-0.09777238566208979,0.01577,-0.00424,-0.00117,17.7,-22.6,-28.8
58.2799,1014.931,-0.35316828185955296,-0.27226185975300354,-0.08112438443714254,0.03348,3e-05,0.00738,17.7,-22.6,-28.9
58.2994,1014.951,-0.3528429943589656,-0.2749562451119882,-0.07380705456256287,0.02005,-0.00547,0.00677,17.7,-22.6,-28.8
58.3202,1014.971,-0.3562350103298762,-0.2738998921104387,-0.07751516576320228,-0.00989,-0.00608,-0.00483,17.8,-22.7,-28.8
58.3393,1014.991,-0.3634229029906129,-0.26978725976331297,-0.09205271804068182,0.02005,-0.00608,-0.01155,17.9,-22.8,-28.8
58.3606,1015.0111,-0.3740518395847943,-0.2643003472529695,-0.11532815064996527,0.02615,-0.01463,-0.01583,17.9,-22.8,-28.9
58.3891,1015.0311,-0.3866361653272116,-0.25944888143868683,-0.14343566818287812,0.01088,0.00431,-0.01583,17.9,-22.8,-28.9
58.4029,1015.0511,-0.402921241889584,-0.2540630657685172,-0.171126110332537,0.00416,0.01591,-0.00911,17.9,-22.8,-28.8
58.4179,1015.0712,-0.42015988509212837,-0.25261235510701746,-0.19263089903763309,0.02005,0.00064,0.00128,17.9,-22.9,-28.9
58.4372,1015.0912,-0.43702284707121053,-0.2561895053074456,-0.20308160064880987,0.02493,-0.01646,-0.00117,17.8,-22.9,-29.0
58.4655,1015.1112,-0.4523514056397869,-0.2618637167520697,-0.2000768701556872,-0.0105,-0.01707,-0.00789,17.8,-22.9,-29.0
58.4806,1015.1312,-0.4614150826849703,-0.27171010550794067,-0.18488739663636267,-0.03432,-0.0073,0.00066,17.8,-22.9,-29.0
58.4989,1015.1513,-0.4654080838075434,-0.28336558255553673,-0.1625718014467985,-0.03188,-0.00608,0.0025,17.9,-22.8,-29.0
58.5195,1015.1713,-0.4640201109338608,-0.29692943555618406,-0.14020995404590764,-0.00928,0.00858,0.0025,17.9,-22.9,-29.1
58.5379,1015.1913,-0.4570326147610919,-0.3077832306950026,-0.12414332630301672,0.02432,0.00553,0.01227,17.9,-22.9,-29.0
58.5643,1015.2113,-0.44332175898227966,-0.31021612699680745,-0.11762871613058756,0.04204,0.00919,0.01838,17.9,-22.9,-28.9
58.5801,1015.2313,-0.4235472155256219,-0.2946831519197218,-0.11992654852027407,0.01272,0.0098,0.00922,17.9,-22.8,-28.8
58.5978,1015.2513,-0.39896014168714294,-0.2670714053059258,-0.12769641738335302,-0.0276,0.00919,0.00738,17.9,-22.8,-28.9
58.6292,1015.2713,-0.37444689837300643,-0.23593060402130234,-0.13657259244274833,-0.02088,0.00614,0.01533,17.9,-22.8,-29.0
58.6396,1015.2913,-0.35261069526434863,-0.21253433822629278,-0.14279473206520876,0.02249,-0.00791,0.02082,17.9,-22.7,-29.1
58.6616,1015.3113,-0.3412568407842186,-0.20274053900101321,-0.14452655221054833,0.03593,-0.02135,0.00128,17.9,-22.7,-29.0
58.6794,1015.3313,-0.3419099545228279,-0.20460860724540456,-0.14177587648401158,0.00416,-0.01646,-0.01827,18.0,-22.6,-29.0
58.7007,1015.3513,-0.35668806803200603,-0.21854759683292177,-0.13650892009521165,-0.01966,-0.00424,-0.02438,18.0,-22.6,-29.0
58.7187,1015.3713,-0.3836113535944013,-0.24393420671824306,-0.13160835673511428,-0.00561,-0.01707,-0.02438,18.0,-22.6,-29.0
58.7465,1015.3912,-0.4177198481417119,-0.2776885148993512,-0.12985239890638134,0.02188,-0.03051,-0.02194,18.0,-22.6,-28.9
58.7695,1015.4112,-0.44941745544317657,-0.31010899125922914,-0.13265944590859569,0.04509,-0.01768,-0.00056,17.9,-22.6,-28.9
58.781,1015.4312,-0.46901896180201796,-0.3301989652089385,-0.13971429029815674,0.02188,-0.01341,0.01471,18.0,-22.6,-29.0
58.801,1015.4512,-0.47562842376382136,-0.34004051097900356,-0.15000233177357813,0.00844,-0.00486,0.0196,17.9,-22.6,-28.9
58.8216,1015.4712,-0.46728626172090615,-0.3374115023779073,-0.1614456420741206,0.03226,-0.02257,0.02082,17.9,-22.6,-28.9
58.8432,1015.4912,-0.44731919369978135,-0.32333358067552637,-0.17228637305286298,0.05059,-0.00608,0.02449,18.0,-22.6,-28.9
58.8641,1015.5112,-0.4221218918870961,-0.29951247893574456,-0.18154995445548394,0.00416,0.00919,0.01044,17.9,-22.6,-29.0
58.8819,1015.5312,-0.39977782879305107,-0.2718442357041395,-0.18924144722666902,-0.04043,0.00431,0.00311,17.8,-22.6,-28.9
58.8992,1015.5512,-0.38636150366918637,-0.24703864773561116,-0.1956271243903327,-0.01538,-0.01035,-0.00117,17.9,-22.6,-28.7
58.9219,1015.5713,-0.38453973375712186,-0.22890894797084926,-0.20032129956962308,0.02432,-0.01952,-0.003,17.8,-22.7,-28.8
58.9407,1015.5913,-0.39129246183619837,-0.21729345357291638,-0.20157592087407217,0.00905,-0.02318,0.00189,17.7,-22.8,-28.9
58.9602,1015.6113,-0.4041712103461002,-0.210864660822245,-0.19660930013429123,-0.03188,0.00431,0.00555,17.7,-22.8,-28.9
58.9773,1015.6314,-0.4206370656213179,-0.21087955299087094,-0.1824673293468102,-0.0331,0.00064,0.00372,17.6,-22.8,-29.0
59.0028,1015.6514,-0.4398268849261221,-0.21554853256519554,-0.15730926151974778,-0.02516,-0.02257,-0.00789,17.7,-22.7,-29.0
59.0212,1015.6714,-0.457358997021488,-0.23026696360997473,-0.12170062932666781,-0.04165,-0.01585,0.01044,17.6,-22.8,-29.0
59.0379,1015.6914,-0.4704726957057235,-0.2511885077659301,-0.07916667655859477,-0.04959,-0.01035,0.02143,17.6,-22.8,-29.0
59.0632,1015.7115,-0.4779127712830922,-0.2714602552942392,-0.03600363979816912,-0.03982,-0.00363,0.00677,17.6,-22.8,-29.0
59.0874,1015.7315,-0.47643079562737034,-0.293359048614787,-8.789048100688035e-05,-0.02455,-0.00302,0.01471,17.6,-22.8,-28.9
59.1059,1015.7515,-0.4658168490386798,-0.31214072100031676,0.02130652594338933,0.00538,0.00675,0.02693,17.5,-22.8,-29.0
59.1229,1015.7716,-0.4478005731789628,-0.3207674950506925,0.0233893158943399,0.03471,0.00919,0.03854,17.5,-22.7,-29.0
59.1376,1015.7916,-0.42547133765254525,-0.315014998580475,0.004825102685069638,0.02371,0.01347,0.03426,17.4,-22.7,-28.9
59.1636,1015.8116,-0.40395386184555143,-0.2977314108189084,-0.032368624399685686,-0.00317,0.01775,0.02571,17.5,-22.7,-28.9
59.1807,1015.8316,-0.3867501202481951,-0.2734108387320282,-0.08305294597712276,0.00966,-0.00913,0.00738,17.5,-22.7,-29.0
59.1989,1015.8517,-0.37764986086045643,-0.2511342817070259,-0.1398856634966137,0.0341,-0.0018,0.00677,17.5,-22.7,-29.1
59.2181,1015.8717,-0.37861050599746193,-0.23620838096609842,-0.19387995023624072,0.04815,0.01286,-0.00483,17.4,-22.6,-28.8
59.2415,1015.8917,-0.3900541576795088,-0.23043011021086632,-0.23577610743567057,0.02921,0.01408,-0.00239,17.5,-22.6,-28.8
59.2616,1015.9118,-0.4107826243307027,-0.2305841484068467,-0.2578938556038537,-0.00867,0.00064,-0.00056,17.5,-22.6,-28.7
59.2894,1015.9318,-0.4357878517375347,-0.23452653918293012,-0.2561808624223527,-0.03493,-0.02318,-0.00483,17.5,-22.6,-28.6
59.3068,1015.9518,-0.454626585541349,-0.24899708203026014,-0.2315650649232044,-0.04715,-0.03234,-0.003,17.5,-22.6,-28.6
59.322,1015.9718,-0.4626746902577484,-0.26885298330017326,-0.18978707795908,-0.04532,0.0098,0.01105,17.5,-22.6,-28.6
59.3379,1015.9919,-0.45875602383513736,-0.2875660754659046,-0.13988307030740543,-0.01722,0.01897,0.02449,17.6,-22.6,-28.7
59.3645,1016.0119,-0.44497558911251195,-0.2986463161120697,-0.09171963068903466,0.01333,-0.0073,0.0141,17.6,-22.6,-28.7
59.3814,1016.0319,-0.4251360657948863,-0.2985798793546074,-0.053715572798477496,-0.00195,-0.00363,-0.00361,17.6,-22.5,-28.8
59.3979,1016.052,-0.4043269981926864,-0.28857560444393715,-0.03145071753490569,-0.01966,0.03119,0.00128,17.6,-22.5,-28.7
59.4197,1016.072,-0.38622865865839645,-0.2743071050340482,-0.027033021736682983,-0.00317,0.04035,-0.01277,17.6,-22.5,-28.7
59.4379,1016.092,-0.3777557124017067,-0.26114653336896876,-0.03933435789118711,0.03043,0.01469,-0.03782,17.6,-22.5,-28.7
59.4637,1016.112,-0.37668990332305735,-0.2526411072763429,-0.06419373624753177,0.02188,0.01714,-0.02499,17.6,-22.5,-28.7
59.4819,1016.1321,-0.386643189955156,-0.24728377806874108,-0.09604910187851523,-0.00622,0.02996,-0.00117,17.7,-22.6,-28.6
59.4994,1016.1521,-0.40186939085242385,-0.2471714433212878,-0.12884119119894777,-0.00439,0.02752,0.00311,17.8,-22.5,-28.5
59.5241,1016.1721,-0.4190160581209943,-0.25315435177105394,-0.1574327564336908,0.00416,-0.01402,0.0196,17.8,-22.5,-28.6
59.542,1016.1921,-0.4337044577513675,-0.2634563857426445,-0.17811621340924866,0.00538,-0.01524,0.01777,17.8,-22.5,-28.5
59.5631,1016.212,-0.4450597448914002,-0.2741421657677983,-0.18904600738341415,0.01088,-0.0128,0.008,17.8,-22.5,-28.5
59.581,1016.232,-0.45163266159894194,-0.28089639781635845,-0.190008279265097,-0.00683,-0.01341,0.01227,17.8,-22.5,-28.6
59.6026,1016.252,-0.45606631680210097,-0.2823470682018228,-0.18241566676676335,-0.03066,-0.00669,0.01655,17.8,-22.5,-28.7
59.6177,1016.272,-0.4597809999515923,-0.2831301747033451,-0.16863768148228075,-0.02272,0.00186,0.00616,17.9,-22.5,-28.6
59.6408,1016.292,-0.4655564027907934,-0.28431796023488953,-0.1512155874184451,0.006,-0.00852,0.00677,17.9,-22.5,-28.6
59.6607,1016.312,-0.47220199515870426,-0.2865377870143232,-0.1322538863262004,0.02188,-0.01952,0.01166,17.9,-22.5,-28.6
59.6786,1016.332,-0.47799748463878416,-0.2873499108035714,-0.11351660187523827,0.02554,-0.00424,0.01838,17.9,-22.6,-28.6
59.7195,1016.352,-0.48409601352461373,-0.28864292794280094,-0.09726157963607207,0.00722,-0.01219,0.02021,18.0,-22.6,-28.6
59.7231,1016.372,-0.4844487351599759,-0.2858753469192508,-0.08587433933348088,-0.00683,0.01164,0.02693,18.0,-22.6,-28.6
59.7375,1016.392,-0.48355432993382874,-0.28388249854978265,-0.08311990464308217,0.01516,0.01408,0.00555,18.0,-22.6,-28.7
59.7639,1016.412,-0.4813367348369705,-0.28239224787474315,-0.09208003781327889,0.03104,0.00247,0.00311,17.9,-22.6,-28.9
59.7792,1016.432,-0.479185203459987,-0.27519143066391555,-0.11405680957874509,0.02188,0.01103,0.01349,17.9,-22.6,-29.0
59.7966,1016.452,-0.47582671518165226,-0.26438282625615744,-0.14751482900481605,0.00538,0.02447,0.01288,17.8,-22.6,-29.0
59.8178,1016.472,-0.4712318372779204,-0.2534120770329088,-0.18750646082365918,0.01149,0.03119,0.01533,17.8,-22.5,-28.9
59.8394,1016.492,-0.4672023963650818,-0.24369588374368528,-0.22619806762155292,0.04448,0.0208,0.02082,17.8,-22.5,-28.9
59.8603,1016.512,-0.46384998546310163,-0.23335317926245358,-0.25454694465062566,0.03837,-0.01096,0.02143,17.8,-22.6,-28.9
59.8777,1016.532,-0.4589249233072921,-0.22259656864846528,-0.26516196648916157,-0.0331,-0.01402,0.0196,17.8,-22.6,-29.0
59.9115,1016.552,-0.45385083245539803,-0.20584831221622546,-0.25502225382976995,-0.08563,0.00309,0.02143,17.7,-22.6,-28.9
59.9234,1016.572,-0.44376870197677043,-0.21227938588536774,-0.22713206301428635,-0.05998,-0.00119,0.00677,17.7,-22.7,-28.9
59.9421,1016.592,-0.43386640967324314,-0.22752939661386887,-0.1888557511068516,-0.00989,-0.00119,-0.00239,17.7,-22.7,-28.9
59.9606,1016.612,-0.4261057639669251,-0.2489298712426646,-0.15023061506882485,0.01333,-0.00302,0.01533,17.6,-22.7,-28.8
59.9778,1016.6321,-0.4221931100498209,-0.2649817719968732,-0.1209426686957773,0.01149,-0.00424,0.01288,17.6,-22.7,-28.9
60.0004,1016.6521,-0.4236709707234657,-0.2663315552342168,-0.10849018748612238,-0.03005,-0.00486,0.00311,17.6,-22.7,-28.9
60.02,1016.6721,-0.42999448033911436,-0.25198833081679506,-0.1169370737158335,-0.04593,0.00064,-0.00667,17.6,-22.7,-28.9
60.0379,1016.6922,-0.4405786480420784,-0.22443492735218545,-0.14579764199861245,-0.01233,-0.0018,-0.00728,17.7,-22.7,-28.8
60.0618,1016.7122,-0.4526935037277682,-0.18615443468000567,-0.18900630345095948,0.00722,0.00492,-0.00667,17.7,-22.7,-28.7
60.08,1016.7322,-0.46682581955575053,-0.14204338656285687,-0.23528986908407745,-0.00072,0.03424,-0.02927,17.7,-22.8,-28.7
60.0983,1016.7522,-0.4803382173182091,-0.09886918272301747,-0.2696408763049245,-0.00256,0.02569,-0.02744,17.7,-22.8,-28.7
60.1201,1016.7723,-0.4909733687170671,-0.066269340995845,-0.27719484267438155,0.00416,-0.00669,-0.0311,17.7,-22.9,-28.7
60.1415,1016.7923,-0.4981813176690761,-0.053049455353242625,-0.24815218444483378,-0.00256,-0.01096,-0.02316,17.7,-22.9,-28.8
60.1627,1016.8123,-0.5017578348062288,-0.06280065181446595,-0.18225536784326302,-0.03615,-0.02685,-0.04576,17.7,-22.9,-28.8
60.1849,1016.8324,-0.5038637874913771,-0.08986894366264427,-0.09126643382166932,-0.06486,-0.03173,-0.06042,17.7,-22.9,-28.8
60.2039,1016.8524,-0.5066721013087082,-0.12408440625269217,0.002371318972443248,-0.05143,-0.01096,-0.05859,17.7,-22.8,-28.9
60.2213,1016.8724,-0.510985577577538,-0.15169651182586197,0.0708497613262562,-0.03554,0.00247,-0.06348,17.7,-22.8,-29.0
60.2427,1016.8924,-0.5124102634786714,-0.16407409563286068,0.08933513448886998,0.00905,0.02935,-0.07569,17.8,-22.8,-29.0
60.2699,1016.9125,-0.5078671003311661,-0.17082590031623798,0.044249568017249885,0.05792,0.03974,-0.08302,17.8,-22.9,-29.2
60.2811,1016.9325,-0.5201496799796711,-0.12352117283876786,-0.06062279947668969,0.29249,0.10388,-0.14716,17.8,-22.8,-29.1
60.3037,1016.9525,-0.5267410907224352,-0.06721920472699065,-0.2025430160580406,0.30043,-0.07327,-0.08486,17.8,-22.8,-29.2
60.3222,1016.9726,-0.5281996553322866,0.03750031828899761,-0.34706130965005677,0.09091,-0.02379,-0.04332,17.8,-22.8,-29.2
60.3389,1016.9926,-0.5188659313371127,0.15878385763763783,-0.458754233545255,-0.13267,0.05073,-0.02988,17.8,-22.8,-29.2
60.36,1017.0126,-0.5039766221292292,0.2695975562281064,-0.5111699524783173,-0.27806,0.01469,0.01105,17.8,-22.8,-29.3
60.38,1017.0326,-0.5055584048025519,0.3354926766088276,-0.4940379408718947,-0.18215,0.06539,-0.15877,17.8,-22.7,-29.1
60.3993,1017.0527,-0.5335445484983437,0.3533736106850302,-0.4158120645971515,-0.15649,-0.05311,-0.14045,17.9,-22.7,-29.1
60.4205,1017.0727,-0.574146031394021,0.34245166905666163,-0.30081255428543585,-0.37641,-0.25592,-0.07569,17.9,-22.6,-29.3
60.4402,1017.0927,-0.5980234753926132,0.3099782257555523,-0.18035173404409655,-0.24079,0.12404,-0.20153,17.9,-22.6,-29.3
60.4602,1017.1128,-0.5903089320968457,0.2751249593731873,-0.0849326639187602,-0.06425,0.33417,-0.1545,17.9,-22.5,-29.3
60.4782,1017.1328,-0.5739409338273415,0.2536217710262091,-0.035605930378491024,-0.0105,0.358,-0.149,17.9,-22.4,-29.3
60.5001,1017.1528,-0.5563577255529436,0.2610016342892548,-0.03566106941475233,-0.01783,0.12037,-0.12884,18.0,-22.4,-29.4
60.5181,1017.1728,-0.5532071616496363,0.298400659201943,-0.07352609953055733,-0.01172,-0.16979,-0.10257,18.0,-22.3,-29.4
60.5437,1017.1928,-0.5502658471992247,0.35468631452144,-0.1278201869964679,0.03776,-0.19178,-0.10318,18.1,-22.2,-29.4
60.5615,1017.2128,-0.513910274156372,0.42370563529783345,-0.1771155706206997,0.03715,-0.14291,-0.1044,18.2,-22.1,-29.4
60.578,1017.2328,-0.4588366711872199,0.4981663106452997,-0.20994977782536672,-0.02272,-0.10137,-0.138,18.2,-22.0,-29.4
60.5978,1017.2528,-0.4028380999371822,0.5755251732137604,-0.22371136307444495,-0.08197,-0.10565,-0.1887,18.3,-21.9,-29.2
60.6197,1017.2728,-0.35945938944109096,0.6450387151302418,-0.22030901919236,-0.06486,-0.13802,-0.20398,18.5,-21.8,-29.3
60.6389,1017.2928,-0.33158989194197436,0.6900764520753122,-0.20084095272786406,0.03348,-0.11787,-0.15694,18.5,-21.7,-29.4
60.6585,1017.3128,-0.31544937609100576,0.7024081848736866,-0.16337098757418467,0.12634,-0.11848,-0.07569,18.6,-21.7,-29.4
60.6797,1017.3328,-0.30956378287578695,0.6821292448284776,-0.10399284422016208,0.14955,-0.11848,-0.05431,18.6,-21.6,-29.5
60.702,1017.3528,-0.3147159351247696,0.6440478359728476,-0.02202165882930629,0.08724,-0.16735,-0.07569,18.7,-21.5,-29.5
60.7208,1017.3728,-0.3247683082663999,0.6011370402513083,0.07502038524431676,-0.05081,-0.22293,-0.11723,18.6,-21.4,-29.5
60.7404,1017.3928,-0.34102928678188527,0.5578533388106696,0.1668963807782866,-0.19498,-0.17223,-0.12273,18.7,-21.4,-29.4
60.7603,1017.4128,-0.35929616803732245,0.5157584671900286,0.2223468801077928,-0.18093,-0.11298,-0.13006,18.7,-21.3,-29.4
60.7778,1017.4327,-0.3814655412031526,0.48551406982898876,0.20759481076279052,0.05486,0.03424,-0.06225,18.7,-21.2,-29.4
60.7991,1017.4527,-0.4107653386697705,0.490892314608816,0.10062353892533693,0.1691,-0.04884,0.00372,18.7,-21.2,-29.3
60.82,1017.4727,-0.4417100885545743,0.5631107722063614,-0.0966721461960276,0.24729,-0.14902,0.02388,18.7,-21.1,-29.3
60.8447,1017.4927,-0.463522896977041,0.700839250395189,-0.3545296153975137,0.19659,-0.22049,0.0477,18.6,-21.1,-29.3
60.8614,1017.5127,-0.43378898331329974,0.8971724182428384,-0.6234506510509394,0.11473,-0.16551,0.11184,18.6,-21.1,-29.3
60.8793,1017.5327,-0.3687008640157686,1.091055727705461,-0.8473947707213867,0.09396,-0.12642,0.09535,18.6,-21.1,-29.4
60.9028,1017.5527,-0.28536890079286326,1.2411809977334871,-0.9787893560412719,0.08541,-0.08488,0.01166,18.4,-21.1,-29.4
60.926,1017.5727,-0.19880215717161195,1.3270130521203563,-0.9890645073316318,-0.02027,-0.10198,-0.00361,18.3,-21.1,-29.4
60.9388,1017.5927,-0.1183484303165282,1.325618556378543,-0.8689249112141333,-0.13756,-0.16612,-0.03599,18.2,-21.1,-29.4
60.9587,1017.6127,-0.06133880960137925,1.248256077182385,-0.6324894699794914,-0.16077,-0.08793,-0.0537,18.2,-21.1,-29.4
60.9808,1017.6327,-0.021051507333585698,1.0963787383745738,-0.30633655157230955,-0.09724,-0.02318,-0.08486,18.1,-21.0,-29.4
60.9981,1017.6527,-0.0070228307107247905,0.8825865289453269,0.07156221340394175,0.01333,-0.0128,-0.09158,18.0,-21.0,-29.4
61.0204,1017.6727,-0.03792722884879615,0.6314722369190505,0.45708176575719506,0.06036,-0.04578,-0.08363,18.0,-21.0,-29.4
61.0428,1017.6927,-0.1468187885794874,0.36122970997252435,0.8050652859193281,0.11717,-0.15574,-0.10929,18.0,-21.0,-29.4
61.0693,1017.7127,-0.3520668918763852,0.06830046498235144,1.07117535775118,0.37862,-0.37626,-0.04393,17.9,-21.1,-29.6
61.0807,1017.7327,-0.5429637761439681,-0.13166266013351827,1.2226812336942778,0.69016,-0.52226,0.06786,17.8,-21.2,-29.6
61.1,1017.7527,-0.7591617177372075,-0.353561063172484,1.2395518381836315,0.87159,-0.10748,0.04892,17.7,-21.3,-29.7
61.1242,1017.7727,-0.936934464752234,-0.5775196514982841,1.1259269602818076,1.17214,0.22605,0.11856,17.6,-21.4,-29.7
61.1381,1017.7927,-1.0549018014660851,-0.5528425224189333,0.9253008012133357,1.36945,0.23644,0.17965,17.6,-21.6,-29.7
61.1637,1017.8127,-1.0674872458873992,-0.5639477895317312,0.6763767224001072,1.37006,0.3299,0.23646,17.5,-21.9,-29.6
61.1784,1017.8326,-1.0023065162586402,-0.29724278541143934,0.44510862548180263,1.23933,0.44047,0.2615,17.6,-22.3,-29.3
61.2007,1017.8526,-0.823248565870052,-0.043997402289678855,0.2628519646638754,0.8832,1.02812,0.5309,17.7,-22.6,-29.1
61.2256,1017.8726,-0.594101483450545,0.19612386376264668,0.1470528836564,0.80623,0.75445,0.93712,17.7,-23.3,-28.3
61.2482,1017.8926,-0.3756163266055674,0.3979969464951983,0.0910196587360037,0.69261,0.44047,0.52112,17.5,-24.6,-27.0
61.267,1017.9126,-0.20602931570199728,0.5162506858947333,0.07422141137440619,0.20941,0.13076,0.19736,17.6,-25.2,-26.8
61.28,1017.9326,-0.1174180368895006,0.5122951119478215,0.07335347582411345,-0.27317,-0.03906,0.02266,17.7,-26.0,-26.7
61.2978,1017.9526,-0.14195236799252262,0.4217839987340864,0.06681582536554309,-0.54623,-0.34572,-0.11112,17.7,-26.2,-26.7
61.32,1017.9726,-0.26246390165324635,0.28256274443936474,0.03922731802364865,-0.68489,-0.1142,0.08435,18.0,-25.8,-25.5
61.3426,1017.9926,-0.42329350786428777,0.07757309832883369,-0.02041062615663769,-0.41611,0.15336,0.27922,17.4,-26.4,-26.2
61.3597,1018.0126,-0.5735450560398782,-0.16335515691507396,-0.12066142110967881,0.09885,0.15458,0.29693,17.7,-26.4,-26.2
61.3781,1018.0326,-0.6910976572366726,-0.3727845134154944,-0.2561867099170154,0.42566,0.03485,0.21386,17.6,-26.7,-26.0
61.4,1018.0526,-0.773066111902552,-0.5162454191246876,-0.4038053898342735,0.38656,-0.1197,0.14116,17.8,-27.0,-25.7
61.4212,1018.0726,-0.8188547690808534,-0.562862340581972,-0.5317568931901562,0.06647,-0.19789,0.08619,17.8,-27.4,-25.4
61.4407,1018.0926,-0.8375377631543787,-0.5511725514944672,-0.6229504194244022,-0.27378,-0.20094,0.0025,17.8,-27.6,-25.2
61.4644,1018.1126,-0.8546723029172003,-0.5147514457472203,-0.6842239688631793,-0.40451,-0.07205,-0.07386,17.9,-27.9,-25.0
61.4786,1018.1326,-0.890558378806074,-0.5288667658735504,-0.7457727536388781,-0.32815,0.01469,-0.1435,17.7,-27.9,-24.9
61.502,1018.1526,-0.9514620428025665,-0.5265709889461537,-0.8374168831170117,-0.13817,0.03485,-0.15999,17.6,-28.0,-25.0
61.5204,1018.1726,-1.0460188156927943,-0.49426872308929326,-0.9824503644310507,0.07441,0.05257,-0.13678,17.5,-28.0,-25.1
61.5393,1018.1926,-1.1494235295731816,-0.3871596851602984,-1.1724061045792862,0.18681,0.07944,-0.07875,17.5,-28.0,-25.2
61.5676,1018.2126,-1.2347214573591687,-0.20669031290023884,-1.3700161072352675,0.17765,0.10632,0.02754,17.4,-28.0,-25.2
61.5825,1018.2326,-1.2894764893316153,0.053744955370614855,-1.5207280337173685,0.04998,0.07944,0.1265,17.4,-27.9,-25.2
61.5994,1018.2525,-1.2944085255222446,0.3259009403168895,-1.570727330217057,-0.1119,0.04524,0.16743,17.4,-27.9,-25.3
61.6212,1018.2725,-1.2493337322183808,0.5695968358236546,-1.4862206853524604,-0.25484,0.01714,0.14177,17.3,-28.0,-25.5
61.6448,1018.2925,-1.1688424399015678,0.7473304247799921,-1.264591322440527,-0.28905,0.0098,0.1039,17.3,-28.0,-25.6
61.6603,1018.3125,-1.082425340461897,0.8123352754952694,-0.9326869905733162,-0.24202,-0.00119,0.08802,17.2,-28.0,-25.5
61.6916,1018.3326,-1.0736011128627503,0.7898239878256705,-0.5507998688832654,-0.09541,-0.25592,0.10512,17.2,-28.0,-25.6
61.7005,1018.3526,-1.0301212166931437,0.7043315811529367,-0.16346179535400296,0.2253,-0.60534,0.10879,17.2,-28.0,-25.6
61.7189,1018.3726,-1.0448338180847296,0.5512798036957923,0.17259597396862958,0.50629,-0.64077,0.09168,17.1,-28.0,-25.7
61.7386,1018.3926,-1.0342128888529565,0.4079987317141722,0.4371038317850644,0.48369,-0.24248,0.02938,17.0,-27.9,-25.6
61.7637,1018.4127,-0.972884722068891,0.3195857987102553,0.6309704871259623,0.17093,0.14358,-0.01949,17.0,-27.9,-25.4
61.7804,1018.4327,-0.9027452835925296,0.3064264365484734,0.7655203130033925,-0.09358,0.23338,-0.06348,17.0,-28.0,-25.4
61.8044,1018.4527,-0.8387185261669788,0.3220100246251755,0.8615498999990159,-0.22491,0.09777,-0.06409,17.0,-28.0,-25.3
61.8247,1018.4728,-0.8075624760787468,0.2700873956736391,0.9384307886480663,-0.14428,-0.07266,-0.05553,17.0,-28.1,-25.2
61.8495,1018.4928,-0.781703062082706,0.11213149652263034,1.0123858742340328,0.09213,-0.02074,-0.03354,16.9,-28.1,-25.2
61.8693,1018.5128,-0.7357099615819401,-0.1227790620281901,1.090851243842117,0.23568,0.10632,-0.05492,16.8,-28.2,-25.3
61.8817,1018.5329,-0.6736697998308045,-0.38250185279933263,1.1727606740772583,-0.01538,0.10938,-0.10196,16.8,-28.2,-25.2
61.9188,1018.5529,-0.5539351869455135,-0.5095660272234478,1.2543991417123177,-0.47598,0.06356,-0.1545,16.7,-28.3,-25.2
61.9219,1018.573,-0.4589683145626137,-0.8108431068815595,1.2829621585336817,-0.79179,0.03913,-0.11968,16.6,-28.3,-25.2
61.9423,1018.5931,-0.33579602750625726,-0.9213431726584187,1.2293241347904367,-0.75087,-0.00547,-0.05553,16.5,-28.3,-25.2
61.9606,1018.6131,-0.18057060693423294,-1.0242265783861106,1.0286829172895242,-0.30249,-0.00547,-0.00178,16.5,-28.2,-25.3
61.982,1018.6332,0.010681463633441541,-1.090245714532285,0.6587004345572804,0.34564,0.088,0.01227,16.5,-28.2,-25.3
62.0016,1018.6533,0.21105818851506195,-1.0520591808034236,0.1560203924766963,0.70605,0.15397,0.008,16.5,-28.2,-25.5
62.0205,1018.6733,0.375603884944292,-0.8774659339995704,-0.3926856219740902,0.51912,0.14358,-0.02133,16.6,-28.2,-25.5
62.0399,1018.6934,0.4629355130024001,-0.6132231770559146,-0.889044921890747,0.02982,0.06478,-0.08058,16.7,-28.3,-25.7
62.0705,1018.7134,0.4489004709429467,-0.31721723360148946,-1.2570724693664044,-0.43322,-0.10809,-0.17465,16.7,-28.3,-25.7
62.0914,1018.7335,0.3442102646430486,-0.1447880790154056,-1.467944250960043,-0.65435,-0.26081,-0.2559,16.7,-28.2,-25.8
62.1032,1018.7536,0.17273522510507303,-0.14671486721924698,-1.5313469134603679,-0.64946,-0.2156,-0.32859,16.8,-28.1,-25.9
62.1252,1018.7736,-0.027993165601448766,-0.19848381630713238,-1.4929171957981993,-0.48819,-0.0635,-0.34447,16.8,-28.1,-25.9
62.1406,1018.7937,-0.23335769174722723,-0.2981542519610954,-1.415085726609611,-0.2634,0.09655,-0.2895,16.9,-27.9,-26.1
62.1645,1018.8137,-0.3895182614889338,-0.3399741058759145,-1.3445712826375615,-0.11434,0.10571,-0.19115,16.9,-27.7,-26.1
62.1825,1018.8338,-0.4898985331336567,-0.29280968221577963,-1.2999319642052694,-0.0722,0.0037,-0.08913,17.1,-27.6,-26.3
62.2012,1018.8539,-0.5057587527598874,-0.14481057078332893,-1.2666124476235883,-0.09541,-0.01768,-0.05859,17.2,-27.4,-26.3
62.2209,1018.8739,-0.435543677924689,0.07080500578736933,-1.2131121141568588,-0.11129,0.01469,-0.04149,17.3,-27.3,-26.4
62.2431,1018.894,-0.3011189187667875,0.30316998284290636,-1.109320067360997,-0.08563,-0.01707,-0.02927,17.4,-27.2,-26.5
62.267,1018.9141,-0.1413975753054869,0.5058998398866192,-0.9414002409983535,-0.04898,-0.08427,-0.04759,17.5,-27.1,-26.5
62.2979,1018.9341,0.0017189215353821624,0.6584375660776838,-0.718397685917413,-0.05631,-0.09404,-0.06836,17.5,-27.1,-26.6
62.3031,1018.9541,0.10952313607763149,0.7415499896145964,-0.4668607403034031,-0.07647,-0.07877,-0.08791,17.6,-26.9,-26.7
62.3228,1018.9741,0.16311511749690405,0.7848807726353961,-0.2232208420533297,-0.0441,-0.05922,-0.12212,17.6,-26.8,-26.8
62.3449,1018.9942,0.17184078293010088,0.7879110270827887,-0.01416774751368699,0.03776,0.00431,-0.14106,17.6,-26.7,-26.7
62.3751,1019.0142,0.15511966972692048,0.741866541365344,0.15240673722119524,0.16116,0.077,-0.138,17.7,-26.6,-27.0
62.3861,1019.0342,0.07895347958451146,0.7181480064640046,0.28491386055223167,0.27539,0.09899,-0.1154,17.7,-26.4,-27.0
62.4015,1019.0543,-0.01400816635394552,0.6718618598001604,0.41522088343399943,0.265,0.02996,-0.1099,17.8,-26.3,-27.2
62.4225,1019.0743,-0.1168734424908118,0.6043918169322414,0.5754377441805154,0.11534,-0.10015,-0.13067,17.8,-26.3,-27.4
62.4401,1019.0943,-0.21470069429299735,0.5088883032450396,0.7871249580977402,-0.06242,-0.15269,-0.17588,17.9,-26.3,-27.4
62.4639,1019.1143,-0.29036860368752215,0.35931395676252653,1.0508920091105836,-0.18521,-0.05067,-0.19664,17.9,-26.3,-27.4
62.484,1019.1343,-0.3577991268486679,0.12364606037960992,1.3397078279973353,-0.15833,0.15947,-0.16244,18.0,-26.2,-27.4
62.4998,1019.1543,-0.44102309859354555,-0.17834331254762154,1.6018486769656306,-0.03799,0.14175,-0.09707,18.0,-26.2,-27.5
62.5228,1019.1743,-0.5363274294051925,-0.48049853865211833,1.7785084121878612,-0.06242,0.02569,-0.10013,18.0,-26.1,-27.5
62.5422,1019.1943,-0.6475150954343348,-0.7519109718971192,1.8173971527729478,-0.23896,-0.11909,-0.10502,18.1,-26.1,-27.6
62.5631,1019.2143,-0.7450465004023363,-0.9701483742074516,1.6871493718228958,-0.16199,-0.04578,-0.09402,18.2,-26.0,-27.6
62.5825,1019.2343,-0.8110966126920011,-1.1353680019815007,1.3854636127844788,0.20025,0.13686,0.09535,18.2,-26.0,-27.6
62.6041,1019.2543,-0.8471718430461284,-1.2362701388793187,0.9464161776472313,0.48491,0.09777,0.2108,18.3,-25.9,-27.5
62.6321,1019.2743,-0.8704716292052832,-1.264812072131885,0.43465986479025887,0.46414,-0.05434,0.2334,18.4,-25.8,-27.4
62.6543,1019.2943,-0.8668803579236095,-1.1628065431545742,-0.061473904656896394,0.2479,-0.13925,0.17415,18.4,-25.8,-27.5
62.6692,1019.3143,-0.8328329714820192,-1.0065432568265464,-0.4810965620619303,0.02677,-0.10809,0.12834,18.5,-25.8,-27.5
62.6807,1019.3343,-0.794370486584752,-0.88213485384792,-0.794700442103828,-0.05631,-0.04212,0.09779,18.5,-25.9,-27.5
62.7054,1019.3543,-0.779706661119517,-0.8194045227170794,-1.0003668618200088,-0.01844,0.0037,0.03671,18.5,-25.9,-27.4
62.7218,1019.3743,-0.7944908330957539,-0.822988126467911,-1.122183520667349,-0.01966,-0.0244,-0.01644,18.6,-25.9,-27.2
62.7403,1019.3943,-0.8397190119482749,-0.851141766055089,-1.1988138903755559,-0.08136,-0.08305,-0.06592,18.6,-25.9,-27.2
62.7678,1019.4143,-0.899117587066489,-0.8540142629921819,-1.2707099489471716,-0.13634,-0.06655,-0.06103,18.6,-26.0,-27.2
62.7834,1019.4343,-0.9588491498524079,-0.8218468978035091,-1.3720727108679966,-0.09174,0.05929,-0.01949,18.5,-26.0,-27.3
62.8018,1019.4543,-1.0140683061154994,-0.7275747427092221,-1.5143438686224968,0.04692,0.13686,0.05381,18.6,-26.0,-27.2
62.8272,1019.4743,-1.0739267264425663,-0.5752446125302506,-1.6861632623561427,0.141,0.066,0.10573,18.6,-26.0,-27.1
62.8427,1019.4942,-1.1401800005060208,-0.35240878479857274,-1.8505081799634988,0.14894,-0.06228,0.12589,18.6,-26.1,-27.1
62.8618,1019.5142,-1.2092410555157118,-0.09683807264030296,-1.9611191969686619,0.10251,-0.17162,0.08435,18.6,-26.2,-27.0
62.8806,1019.5343,-1.2602227264817236,0.16190050620575253,-1.970394599358114,-0.01722,-0.1704,0.03304,18.5,-26.3,-27.0
62.9093,1019.5543,-1.289743759476685,0.3959218189744257,-1.8487459268584399,-0.0612,-0.12764,0.08802,18.5,-26.4,-26.9
62.9214,1019.5743,-1.2460861365701783,0.5729172485247649,-1.5814213572005933,-0.05448,-0.07572,0.1656,18.5,-26.5,-26.9
62.9469,1019.5944,-1.157902235652955,0.7156779155582815,-1.195553370154368,-0.18276,0.03913,0.28533,18.5,-26.5,-26.9
62.9648,1019.6144,-1.0052012731779727,0.7989363452613962,-0.7294671890658933,-0.22919,0.17291,0.27678,18.4,-26.5,-26.7
62.9807,1019.6344,-0.8182473431624072,0.8297466730874228,-0.24308619424732925,-0.11312,0.25415,0.11367,18.4,-26.5,-26.8
63.0008,1019.6544,-0.631563993450304,0.8154030430462935,0.2052775441202268,0.00966,0.18024,0.01716,18.4,-26.6,-26.8
63.0244,1019.6745,-0.489249993924073,0.7669028061162997,0.5721179007713868,-0.00378,0.02874,5e-05,18.3,-26.5,-26.8
63.0415,1019.6945,-0.4076518892791175,0.699280028813365,0.8393954320686259,-0.06059,-0.11298,-0.02621,18.2,-26.5,-26.9
63.0756,1019.7145,-0.3809374996883497,0.632463534601741,1.014764894077203,-0.11373,-0.15391,-0.10868,18.3,-26.5,-26.7
63.0831,1019.7346,-0.36388827526577777,0.46919187866965995,1.133632192498661,-0.15344,-0.08732,-0.14533,18.2,-26.5,-26.7
63.1088,1019.7546,-0.3395946789951767,0.2226694484423828,1.2322317935375722,-0.07647,0.0379,-0.0928,18.2,-26.5,-26.7
63.1218,1019.7746,-0.33548374936732167,-0.11300804154333931,1.3424293697393797,0.07441,0.13503,-0.07508,18.1,-26.5,-26.8
63.1437,1019.7946,-0.3365371209141643,-0.4807043355400071,1.4796750801691214,-0.06792,-0.05189,-0.14289,18.1,-26.5,-26.9
63.1747,1019.8147,-0.34262539997922425,-0.7381724959896722,1.6382262073767642,-0.52851,-0.23821,-0.26689,18.1,-26.4,-27.0
63.1821,1019.8347,-0.3129756175328051,-1.1045423066354296,1.755359810545631,-0.86449,-0.19483,-0.29744,18.1,-26.3,-27.1
63.213,1019.8547,-0.19788778164606177,-1.260011649545338,1.7820203649955175,-0.59632,0.05745,-0.23024,18.1,-26.2,-27.2
63.2258,1019.8748,-0.052148574436227786,-1.4608300810147257,1.6232778036030417,0.14772,0.26637,-0.03049,18.1,-26.1,-27.3
63.2424,1019.8948,0.13243882678251603,-1.5960611095869808,1.2661532304462444,0.9339,0.12159,0.0758,18.1,-26.0,-27.4
63.2625,1019.9148,0.3137999083661554,-1.6198156295828023,0.7590484915285565,0.96444,-0.09954,0.02204,18.2,-25.9,-27.6
63.281,1019.9348,0.467656539291918,-1.4501158093218605,0.20619316870062399,0.55822,-0.17529,-0.1264,18.2,-26.0,-27.6
63.3032,1019.9549,0.5655239147533252,-1.1766236155253802,-0.3099860163477679,0.02188,-0.16124,-0.27606,18.2,-25.9,-27.6
63.3226,1019.9749,0.5776986288045334,-0.9109623900886746,-0.7397289594162242,-0.26401,-0.13314,-0.36708,18.3,-25.9,-27.6
63.3478,1019.995,0.4807482138431239,-0.7371430187130862,-1.0689746534154594,-0.17299,-0.12947,-0.42389,18.3,-25.8,-27.5
63.373,1020.015,0.2744956416309084,-0.6738999534186084,-1.3125345857060395,0.06586,-0.15818,-0.44099,18.4,-25.7,-27.6
63.3871,1020.0351,-0.007582332135897447,-0.6412371635695402,-1.4971975876711046,0.15016,-0.13802,-0.40312,18.5,-25.7,-27.7
63.4055,1020.0551,-0.29414174810610494,-0.5865537453535633,-1.6466022573607493,0.03776,-0.06839,-0.32981,18.6,-25.6,-27.6
63.4311,1020.0752,-0.5278913566846687,-0.4727534702917611,-1.7619522308923088,-0.05876,-0.03968,-0.27728,18.6,-25.6,-27.5
63.444,1020.0953,-0.6841149327226983,-0.30811384534943687,-1.8251203559766607,-0.01111,-0.05434,-0.21864,18.7,-25.5,-27.4
63.4639,1020.1153,-0.7367636271715995,-0.11870606952792186,-1.8043944819700837,0.05059,-0.08977,-0.15755,18.8,-25.5,-27.3
63.4859,1020.1354,-0.6894271059558255,0.07047378680257249,-1.6731991736539644,-0.00989,-0.08549,-0.12456,18.9,-25.5,-27.1
63.5027,1020.1554,-0.5701360317716974,0.23380030655023953,-1.4277854866641668,-0.16077,0.04096,-0.12945,19.0,-25.5,-27.1
63.5214,1020.1754,-0.41911599800918753,0.35671504890332084,-1.0941847626215075,-0.26462,0.14725,-0.12823,19.0,-25.5,-27.1
63.5413,1020.1954,-0.2889896289229685,0.42264656989285065,-0.7230223619369198,-0.20353,0.10082,-0.19054,19.0,-25.4,-26.9
63.5649,1020.2155,-0.2153465700223088,0.428451849276407,-0.37485376689097016,-0.01294,-0.01952,-0.18382,19.1,-25.3,-26.9
63.5825,1020.2355,-0.2136084874820506,0.399762048849448,-0.10414761159564101,0.19231,-0.03112,-0.19909,19.2,-25.2,-26.8
63.6065,1020.2555,-0.24740958183239056,0.35444388414560296,0.05907761007641099,0.25401,0.07883,-0.18321,19.4,-25.0,-26.8
63.6232,1020.2756,-0.31085906344288344,0.34978952748694153,0.11449698971013511,0.22346,0.17046,-0.14289,19.4,-24.9,-26.8
63.6416,1020.2956,-0.37653422013466803,0.36579222244630477,0.0942296390699493,0.26256,0.17352,-0.08974,19.5,-24.8,-27.0
63.6625,1020.3156,-0.43873643547229485,0.39509538687609835,0.04690181270728999,0.29982,0.04035,-0.04454,19.6,-24.8,-27.0
63.7225,1020.3356,-0.5154543066157886,0.38101025301132296,0.024879174338371612,0.21125,-0.08671,-0.01705,19.6,-24.7,-27.0
63.7318,1020.3557,-0.5288954473995738,0.3968125664165945,0.06992520959481396,0.02615,-0.09099,-0.01827,19.7,-24.7,-26.9
63.7338,1020.3757,-0.5285958176206447,0.3372526675224478,0.2049300370579843,-0.07708,-0.03723,-0.02377,19.8,-24.6,-27.0
63.7436,1020.3957,-0.5331916992480932,0.17376103994305608,0.42652277170932784,0.00294,0.23888,0.0251,19.9,-24.6,-26.9
63.7625,1020.4158,-0.5675648371750578,-0.09055622421612386,0.7050589883301068,0.11717,0.30913,0.09901,19.9,-24.5,-26.9
63.7831,1020.4358,-0.6743768514138261,-0.370591574276498,0.9911867771289042,-0.10885,-0.0299,0.07214,19.9,-24.5,-26.9
63.8028,1020.4558,-0.8457914524754887,-0.6013142241668055,1.2290007789267303,-0.58593,-0.31212,-0.04698,20.0,-24.4,-27.0
63.8209,1020.4758,-1.032355905511012,-0.7975095821845576,1.3594910527134658,-0.79302,-0.24859,-0.07936,20.0,-24.4,-26.9
63.8463,1020.4959,-1.185237778822418,-0.9791109429939479,1.3373031621975304,-0.37763,0.01897,0.05809,20.1,-24.3,-27.0
63.8633,1020.5159,-1.2814943444217541,-1.2038469257772144,1.1470830242164656,0.41039,0.34456,0.34703,20.1,-24.3,-27.0
63.8831,1020.5359,-1.3234539883778937,-1.4073995533115304,0.8308483902881267,0.81051,0.2682,0.43927,20.1,-24.3,-27.1
63.9123,1020.556,-1.3352559383292937,-1.5295247176539455,0.47055736869041453,0.54295,0.04035,0.33786,20.1,-24.3,-27.1
63.9228,1020.576,-1.2838762647408684,-1.492593780228476,0.16633330365348797,-0.30616,-0.19056,0.1265,20.1,-24.4,-26.9
63.9407,1020.596,-1.2191421145567136,-1.4148218379919648,-0.05695638972524364,-0.65068,-0.12825,0.09168,20.0,-24.4,-26.8
63.9623,1020.616,-1.1480486695938978,-1.3802149174053655,-0.21774969056153992,-0.4265,-0.0244,0.13017,20.0,-24.4,-26.7
63.9831,1020.636,-1.0829723868847778,-1.4290781024721981,-0.373460901794326,-0.00928,0.0318,0.13994,19.9,-24.4,-26.7
64.0029,1020.656,-1.0278963436738464,-1.479802679191945,-0.5784618901263183,0.18131,0.02141,0.08313,19.8,-24.3,-26.7
64.0218,1020.676,-0.970805984251734,-1.434475829776692,-0.8600371973638374,0.0622,0.03363,0.02693,19.7,-24.4,-26.7
64.0492,1020.6959,-0.8903419839184336,-1.253746826685934,-1.2081833455793696,-0.05998,0.1161,0.0196,19.7,-24.4,-26.7
64.0699,1020.7159,-0.7956178499583663,-0.960863011663592,-1.5805647056333552,-0.08014,0.14725,0.06297,19.7,-24.4,-26.8
64.0817,1020.7359,-0.6948198867609846,-0.6199507209857988,-1.9106591033024616,-0.0612,0.06967,0.10879,19.6,-24.5,-26.8
64.1025,1020.7559,-0.602965183724302,-0.2724581833375724,-2.1271342252048786,-0.07953,-0.05434,0.11978,19.5,-24.5,-26.9
64.1211,1020.7759,-0.5340764219555335,0.03236046453845344,-2.1829767559347255,-0.20964,-0.1704,0.06603,19.5,-24.5,-26.9
64.1446,1020.7959,-0.5097916117050474,0.28308113929742457,-2.068492415102427,-0.37457,-0.21011,-0.00728,19.3,-24.6,-26.9
64.1671,1020.8159,-0.5349351769748416,0.45483421336132196,-1.8084358347539915,-0.42528,-0.13802,-0.05126,19.3,-24.6,-26.8
64.1831,1020.8359,-0.6181249760920207,0.5314328473147342,-1.4502954414771771,-0.33548,-0.08854,-0.10563,19.2,-24.5,-26.9
64.2024,1020.8559,-0.7551746002704617,0.5624303310105823,-1.0533986070959713,-0.24446,-0.13069,-0.12029,19.2,-24.5,-27.0
64.2274,1020.8759,-0.9256570596386199,0.5742805699864157,-0.6686597534092371,-0.16932,-0.2266,-0.08669,19.1,-24.4,-27.3
64.2438,1020.8959,-1.0728873058567336,0.5777913827943966,-0.3253699876454501,-0.0948,-0.25775,-0.07936,19.0,-24.3,-27.5
64.2845,1020.9159,-1.187764296084387,0.6330926101375515,-0.040541111529357465,-0.06731,-0.17651,-0.09646,19.0,-24.2,-27.7
64.2881,1020.9359,-1.2007293606780325,0.6505040942000013,0.20128725953140147,-0.15772,-0.09893,-0.07142,19.0,-24.1,-27.8
64.303,1020.9559,-1.1535230394492166,0.6886345701281769,0.4009751527459109,-0.29088,-0.09649,-0.07997,18.9,-24.0,-27.9
64.3252,1020.9759,-1.0702178438726462,0.7173424713318508,0.5689813672897941,-0.2298,-0.19972,-0.13434,18.8,-23.9,-28.0
64.3473,1020.9959,-0.9757278791997009,0.7086854271378323,0.7145060792462505,-0.12778,-0.2376,-0.1661,18.7,-23.8,-28.2
64.365,1021.0159,-0.8812366160763108,0.6645977077091978,0.844301254955818,-0.151,-0.23882,-0.1997,18.6,-23.6,-28.5
64.3819,1021.0359,-0.7985397246539953,0.5960530541887705,0.9636928183853506,-0.24935,-0.18323,-0.15877,18.5,-23.4,-28.6
64.4062,1021.0559,-0.7387528353460106,0.5051845717151024,1.0787265822514822,-0.28844,-0.19178,-0.08669,18.4,-23.2,-28.8
64.4233,1021.0759,-0.705256739020821,0.32272284005737484,1.1972165709773606,-0.16444,-0.07938,-0.01339,18.4,-23.0,-28.9
64.4448,1021.0959,-0.7124578895048742,0.06424633443638256,1.315751144991241,0.12023,-0.05556,0.08435,18.3,-22.8,-29.1
64.4699,1021.1158,-0.7534692855950685,-0.21191492403892925,1.424414583594734,0.19842,-0.18873,0.05442,18.3,-22.6,-29.3
64.4841,1021.1358,-0.773928681937192,-0.463383905614195,1.5087891939094575,-0.27378,-0.23393,-0.07447,18.2,-22.5,-29.5
64.5084,1021.1558,-0.7614084908082605,-0.6206687479637168,1.54508583779476,-0.66962,-0.07205,-0.18198,18.1,-22.4,-29.6
64.5319,1021.1758,-0.6941716492962556,-0.8012137851132408,1.4972025789222467,-0.421,0.15641,-0.09891,18.0,-22.2,-29.6
64.5472,1021.1958,-0.6193603592001518,-1.0333889905908789,1.337390471838571,0.25767,0.46246,0.07397,18.0,-22.0,-29.6
64.5664,1021.2158,-0.5214951684498674,-1.2800713782589137,1.0739508994620568,0.67367,0.2963,0.07519,18.0,-21.8,-29.7
64.5873,1021.2358,-0.42052515916377825,-1.4563388238251003,0.7516105417873185,0.60709,0.02324,0.01166,18.0,-21.7,-29.7
64.6016,1021.2558,-0.30564357271659043,-1.4916544185018303,0.4329736814952927,0.13672,-0.15146,-0.10379,18.0,-21.6,-29.7
64.6213,1021.2758,-0.1832513896139875,-1.4513072289493054,0.1466126488792785,-0.27867,-0.07449,-0.09097,18.1,-21.6,-29.8
64.643,1021.2958,-0.06639881246555596,-1.3903747069729548,-0.10951273272162787,-0.0838,0.07822,-0.21864,18.2,-21.5,-29.9
64.6629,1021.3158,0.018205494276695006,-1.3426879912709027,-0.3597250784080348,0.10801,-0.05128,-0.13006,18.1,-21.3,-29.7
64.6822,1021.3358,0.05758297625784724,-1.2730528947278368,-0.6230902020143301,0.38046,0.07822,-0.13373,18.1,-21.3,-29.7
64.703,1021.3558,0.056338989880006726,-1.1343943475173388,-0.9009218875188854,0.19964,0.02874,-0.12578,18.1,-21.3,-29.7
64.7212,1021.3758,0.024361324852925748,-0.8964870788343421,-1.1736536872681995,0.01455,0.01958,-0.22474,18.1,-21.3,-29.7
64.7419,1021.3958,-0.019074422447629667,-0.5909450995365345,-1.4147300237660332,-0.06914,-0.08854,-0.19359,18.2,-21.3,-29.6
64.7647,1021.4158,-0.053788908882957454,-0.27273732921918015,-1.5983213430125875,-0.17482,-0.26081,-0.00544,18.2,-21.3,-29.6
64.7829,1021.4358,-0.05934038727455779,-0.007840287350189493,-1.707625465276628,-0.06548,-0.06167,0.07519,18.3,-21.2,-29.5
