AppTimestamp(s),SensorTimestamp(s),gyro_x,gyro_y,gyro_z
0.063,19029.7283,0.36588,-0.65271,0.01539
0.0681,19029.7483,-0.14785,-0.894,0.01783
0.0723,19029.7683,-0.75566,-1.59711,-0.08051
0.0749,19029.7883,-1.17777,-2.2208,-0.22162
0.0778,19029.8083,-1.61943,-1.67408,-0.00538
0.0942,19029.8283,-1.80085,-0.70586,0.1229
0.1285,19029.8483,-1.33232,-0.76939,-0.08174
0.1319,19029.8683,-0.45451,-1.04,-0.40672
0.1779,19029.8883,-0.05256,-1.31367,-0.3157
0.1819,19029.9083,-0.18389,-0.59468,0.44727
0.1981,19029.9283,0.09771,-0.85246,1.28294
0.2212,19029.9483,0.45813,-0.99846,1.17237
0.2298,19029.9683,0.52532,-0.52137,0.66902
0.254,19029.9883,0.46912,-0.28741,0.19071
0.2723,19030.0083,0.41598,-0.18967,-0.1245
0.2918,19030.0283,0.45568,1.44989,-0.07929
0.312,19030.0483,1.04272,1.38819,0.20048
0.3301,19030.0683,1.75682,1.25441,0.42528
0.3509,19030.0882,1.97307,0.81031,0.56517
0.3732,19030.1082,1.69818,0.62644,0.81379
0.3915,19030.1282,1.22904,0.86651,1.10334
0.4111,19030.1482,0.78799,1.39491,1.19497
0.4317,19030.1682,0.29014,2.23913,1.04042
0.4503,19030.1882,-0.17229,3.1316,0.97995
0.4715,19030.2082,-0.62433,3.5305,1.24201
0.4943,19030.2282,-0.94442,3.06074,1.8486
0.5227,19030.2482,-0.88333,2.83838,2.40326
0.5383,19030.2682,-0.59378,3.00882,2.32324
0.5579,19030.2882,-0.53514,2.76203,1.66534
0.5761,19030.3082,-0.55225,2.36252,1.30065
0.59,19030.3282,-0.59928,2.39917,0.93413
0.6113,19030.3482,-0.87417,2.19392,0.32999
0.6319,19030.3682,-1.18144,1.67408,-0.2821
0.6528,19030.3882,-1.28467,0.8885,-0.60342
0.6732,19030.4082,-1.23092,0.28863,-0.60036
0.6904,19030.4282,-1.1063,-0.11393,-0.63213
0.7111,19030.4482,-0.88456,-0.72113,-0.58631
0.7406,19030.4682,-0.41602,-1.86467,-0.35846
0.7526,19030.4882,0.38055,-3.55127,-0.08662
0.7753,19030.5082,1.03967,-4.29591,-0.4
0.7964,19030.5281,1.29012,-4.07172,-0.91435
0.8103,19030.5481,1.52592,-3.33868,-1.2717
0.839,19030.5681,1.92298,-2.63191,-1.6034
0.8632,19030.5881,2.1771,-2.22019,-1.85813
0.8721,19030.6081,2.10319,-2.26662,-2.1037
0.8919,19030.6281,2.05187,-2.59526,-2.34621
0.9122,19030.6481,2.07081,-3.15298,-2.39386
0.9301,19030.6681,1.59433,-3.30203,-2.2216
0.95,19030.6881,0.8332,-2.94895,-1.8618
0.9719,19030.7081,0.20401,-2.48164,-1.71641
0.9903,19030.7281,0.04274,-2.28372,-1.85813
1.0286,19030.7481,0.14719,-2.08275,-2.05178
1.0483,19030.7681,0.1979,-1.51342,-1.82515
1.0528,19030.7881,-0.0043,-0.63805,-1.42197
1.0841,19030.8081,-0.5101,0.26176,-1.26254
1.1017,19030.8281,-1.21565,0.57879,-1.23688
1.1403,19030.8481,-1.72938,0.31246,-1.19107
1.1412,19030.8681,-1.7471,-0.14569,-0.96993
1.1546,19030.8881,-1.37752,-0.09438,-0.71276
1.1698,19030.908,-1.22603,0.19089,-0.62235
1.1891,19030.928,-1.54246,0.63255,-0.36762
1.2104,19030.948,-2.28832,1.22509,-0.03103
1.2304,19030.968,-3.13071,1.60199,0.17788
1.2512,19030.988,-3.29442,1.28129,0.33793
1.2734,19031.008,-2.88819,1.11513,0.94757
1.2968,19031.028,-1.61332,1.34726,1.7698
1.3175,19031.048,-0.46917,1.37964,1.66351
1.3309,19031.068,0.53937,0.94409,1.18214
1.3506,19031.088,1.08487,0.74984,0.9714
1.3748,19031.108,1.34571,0.77305,0.86205
1.403,19031.128,1.34571,1.13407,0.75148
1.4185,19031.148,1.24125,1.36253,0.77897
1.4319,19031.168,1.08976,1.31061,0.85228
1.4529,19031.188,0.88817,0.98258,1.01721
1.4741,19031.208,0.75195,0.53054,1.34769
1.4919,19031.228,0.76234,0.18173,1.8205
1.5151,19031.248,0.92544,0.32529,2.20595
1.5382,19031.268,1.24248,0.95387,2.25482
1.564,19031.288,1.44345,1.73455,2.11005
1.5733,19031.308,1.12336,2.3558,2.0062
1.5915,19031.3279,0.3665,2.6313,1.91091
1.6118,19031.348,-0.52476,2.60198,1.93351
1.6393,19031.368,-1.05254,2.32587,1.98604
1.6552,19031.388,-1.47587,2.35702,2.16991
1.6723,19031.4081,-1.8595,2.68445,2.28048
1.6937,19031.4281,-2.09651,3.02348,2.09478
1.7127,19031.4481,-1.90531,2.5696,1.7588
1.7339,19031.4681,-1.43006,1.88971,1.41916
1.7571,19031.4882,-1.06293,1.65636,0.99094
1.7733,19031.5082,-0.92121,1.30633,0.66413
1.7972,19031.5282,-0.85585,0.89095,0.56945
1.8226,19031.5483,-0.77216,0.47861,0.48881
1.8378,19031.5683,-0.72023,0.11087,0.21392
1.8515,19031.5883,-0.79781,-0.49083,-0.18803
1.8728,19031.6083,-0.70741,-1.47616,-0.38228
1.8942,19031.6284,-0.44596,-2.04487,-0.5857
1.9145,19031.6484,-0.31218,-1.91964,-0.75735
1.9361,19031.6684,-0.36532,-1.8384,-0.85082
1.9547,19031.6885,-0.24804,-2.05587,-0.95344
1.9759,19031.7085,0.43491,-2.8671,-0.92229
1.9999,19031.7285,1.21315,-3.40832,-0.86914
2.0173,19031.7485,1.79348,-3.81088,-0.81172
2.0357,19031.7686,2.003,-3.80233,-0.76285
2.0608,19031.7886,1.76538,-3.19941,-0.84349
2.1227,19031.8086,1.25042,-2.42605,-1.24543
2.1355,19031.8287,0.81609,-1.82496,-1.84164
2.1442,19031.8487,0.6536,-1.6081,-2.39814
2.1471,19031.8687,0.75134,-1.82801,-2.64187
2.1615,19031.8887,1.05677,-2.39001,-2.37798
2.1868,19031.9088,1.43368,-3.06807,-1.85935
2.1914,19031.9288,1.69696,-3.68932,-1.44641
2.2092,19031.9488,1.60105,-3.78095,-1.24238
2.2316,19031.9688,1.09342,-3.20552,-1.15686
2.2497,19031.9888,0.38116,-2.423,-1.05729
2.2757,19032.0088,-0.30668,-1.76021,-1.03591
2.2929,19032.0288,-1.0782,-1.42545,-1.1141
2.3128,19032.0488,-1.81185,-1.14995,-1.16052
2.3355,19032.0688,-2.3598,-0.53726,-1.29614
2.3582,19032.0888,-2.82222,0.02474,-1.53132
2.3795,19032.1088,-2.99143,0.1573,-1.47145
2.3941,19032.1288,-2.90347,0.01435,-1.04018
2.4138,19032.1487,-2.65484,-0.16646,-0.40916
2.4399,19032.1687,-2.3207,-0.35033,0.07098
2.4512,19032.1887,-1.84484,-0.46884,0.3587
2.4731,19032.2087,-1.0837,-0.05773,0.78691
2.4923,19032.2287,-0.45145,0.70891,1.23773
2.522,19032.2487,-0.29813,1.31183,1.46314
2.5379,19032.2687,-0.30546,1.48715,1.44421
2.5665,19032.2887,-0.04278,1.55251,1.36052
2.5726,19032.3087,0.32251,1.69607,1.24873
2.5927,19032.3287,0.59923,1.72478,1.09784
2.6113,19032.3487,0.73729,1.56779,0.96284
2.6352,19032.3687,0.81365,1.48165,0.82296
2.6606,19032.3887,0.77516,1.48776,0.71178
2.6767,19032.4087,0.73973,1.63437,0.6397
2.6913,19032.4287,0.76661,1.65941,0.79241
2.7211,19032.4487,0.8167,1.58672,1.11739
2.7305,19032.4687,0.94621,1.25502,1.41366
2.7502,19032.4887,1.1594,1.29228,1.38556
2.7733,19032.5087,1.22476,1.5574,1.24873
2.7928,19032.5287,1.02012,1.74982,1.21147
2.8118,19032.5487,0.75073,1.7767,1.38556
2.8336,19032.5686,0.47951,1.75288,1.70688
2.8513,19032.5886,0.13742,1.64231,1.96283
2.8703,19032.6086,-0.29507,1.72966,2.04224
2.9251,19032.6286,-0.78132,2.20186,1.99765
2.9338,19032.6486,-1.45755,3.26477,1.81622
2.9368,19032.6686,-2.34086,3.90251,1.74047
2.9564,19032.6886,-2.84177,3.19513,1.90174
2.9771,19032.7086,-2.69516,2.51524,1.94634
2.991,19032.7286,-1.94991,1.93369,1.65312
3.0136,19032.7486,-0.86929,1.45477,1.18703
3.032,19032.7686,-0.00186,1.03755,0.8932
3.0529,19032.7886,0.25043,0.85796,0.60915
3.0759,19032.8086,-0.21016,0.54764,0.25119
3.118,19032.8286,-0.77643,0.01374,-0.09884
3.119,19032.8486,-0.76483,-1.31244,-0.3383
3.1393,19032.8686,-0.40136,-2.10413,-0.51056
3.1487,19032.8886,-0.27369,-2.01616,-0.90763
3.1689,19032.9086,-0.50399,-1.71012,-1.1984
3.1945,19032.9286,-0.74772,-1.86772,-1.29675
3.2102,19032.9486,-0.50643,-2.49447,-1.21428
3.2297,19032.9685,0.07878,-3.12427,-1.14342
3.2518,19032.9885,0.52349,-3.32525,-1.13548
3.2716,19033.0085,0.66643,-3.12122,-1.17152
3.2921,19033.0285,0.62184,-2.71866,-1.30896
3.3122,19033.0485,0.6255,-2.4175,-1.48123
3.3296,19033.0685,0.69453,-2.19148,-1.63394
3.3513,19033.0885,0.7886,-2.07725,-1.80071
3.373,19033.1085,0.87351,-1.92698,-1.97114
3.3932,19033.1285,1.01951,-1.83412,-2.12386
3.4111,19033.1485,1.23942,-1.62582,-2.30712
3.435,19033.1685,1.47216,-1.6979,-2.35782
3.4581,19033.1885,1.62121,-1.68874,-2.28696
3.4788,19033.2085,1.64504,-1.88727,-2.11653
3.4939,19033.2285,1.62854,-1.98195,-1.8954
3.5203,19033.2485,1.4911,-1.52197,-1.97114
3.5356,19033.2685,0.95476,-0.90072,-2.22771
3.5547,19033.2885,0.12704,-0.58674,-2.44578
3.573,19033.3085,-0.59684,-0.10171,-2.38714
3.5944,19033.3285,-0.96091,-0.00031,-2.04872
3.6134,19033.3485,-1.05743,-0.03513,-1.67426
3.6357,19033.3685,-1.14479,-0.02841,-1.33768
3.6534,19033.3884,-1.23336,0.05284,-0.82882
3.6746,19033.4084,-1.41296,0.2361,-0.25705
3.6938,19033.4284,-1.75137,0.45296,0.13451
3.7204,19033.4484,-2.17226,0.74373,0.22614
3.7367,19033.4684,-2.48808,1.08948,0.11374
3.7522,19033.4884,-2.58459,1.32649,0.10091
3.7719,19033.5084,-2.45143,1.42362,0.23775
3.7966,19033.5284,-2.16127,1.52197,0.33304
3.8154,19033.5484,-1.90348,1.4957,0.37214
3.8368,19033.5684,-1.76359,1.39735,0.49736
3.8576,19033.5884,-1.57606,1.30145,0.87366
3.8796,19033.6084,-1.04827,1.17072,1.30432
3.9075,19033.6284,-0.50582,0.93187,1.43016
3.9181,19033.6484,0.11848,0.95875,1.40755
3.9361,19033.6684,0.58946,1.25441,1.3147
3.9516,19033.6884,0.82587,1.38269,1.11434
3.9784,19033.7084,1.18383,1.31977,0.88404
3.999,19033.7284,1.62793,0.9783,0.65436
4.0109,19033.7484,1.91504,0.67103,0.44544
4.0334,19033.7684,2.12579,0.51893,0.32999
4.0544,19033.7884,2.21375,0.67348,0.48393
4.0829,19033.8083,2.03294,0.9954,0.93352
4.1117,19033.8283,1.56562,0.94104,1.31592
4.1196,19033.8483,1.06288,0.67775,1.45642
4.1316,19033.8683,0.59496,0.55925,1.51812
4.154,19033.8883,0.20339,0.5116,1.62808
4.1709,19033.9083,-0.10387,0.98563,1.85043
4.1906,19033.9283,-0.46367,1.49631,1.91701
4.2116,19033.9483,-0.88395,1.69118,1.80217
4.2352,19033.9683,-1.29506,1.24036,1.91274
4.2557,19033.9883,-1.23458,1.20371,2.18396
4.2748,19034.0083,-0.90288,1.83412,2.12104
4.292,19034.0283,-0.61883,2.20431,1.7307
4.3113,19034.0483,-0.61272,1.82924,1.48452
4.3334,19034.0683,-0.58157,1.1078,1.40144
4.3523,19034.0883,-0.3922,0.7535,1.18825
4.3747,19034.1083,-0.32317,0.6802,0.79363
4.396,19034.1283,-0.60234,0.36866,0.53096
4.4137,19034.1483,-0.96886,0.07727,0.41795
4.4397,19034.1683,-1.2523,-0.21105,0.22064
4.4661,19034.1883,-1.37447,-0.64782,-0.05975
4.4795,19034.2082,-1.25902,-1.13346,-0.32181
4.4939,19034.2282,-0.89372,-1.60505,-0.42016
4.5179,19034.2482,-0.46123,-1.33688,-0.62541
4.5314,19034.2682,-0.25231,-0.96914,-0.85631
4.5492,19034.2882,-0.06661,-1.12674,-0.92656
4.5722,19034.3082,0.07817,-1.31855,-1.01941
4.5966,19034.3282,0.11604,-1.40591,-1.19412
4.6139,19034.3482,0.1533,-1.62521,-1.39693
4.6334,19034.3682,0.37688,-1.92026,-1.48856
4.65,19034.3882,0.70003,-2.0351,-1.65288
4.6699,19034.4082,0.98347,-1.84329,-1.88929
4.7004,19034.4282,1.20644,-1.64537,-2.08843
4.7159,19034.4482,1.35365,-1.54152,-2.17456
4.7356,19034.4682,1.45445,-1.51159,-2.30529
4.7556,19034.4882,1.54424,-1.62521,-2.41646
4.7723,19034.5082,1.67558,-2.10046,-2.28513
4.7902,19034.5282,1.83685,-2.57694,-1.97542
4.8127,19034.5482,1.76782,-2.78402,-1.77505
4.8307,19034.5682,1.5247,-2.69972,-1.75306
4.8504,19034.5882,1.17528,-2.21469,-1.88379
4.8731,19034.6082,0.63283,-1.62276,-1.81048
4.9022,19034.6281,-0.24009,-1.57084,-1.6315
4.9138,19034.6481,-0.99573,-1.48043,-1.73657
4.9355,19034.6681,-1.42212,-0.86407,-1.90089
4.9509,19034.6881,-1.58766,-0.57452,-1.74818
4.9815,19034.7081,-1.70984,-0.48167,-1.37127
5.0131,19034.7281,-2.18081,-0.42241,-1.08783
5.0182,19034.7481,-2.67439,-0.84697,-0.76529
5.0332,19034.7681,-2.76724,-1.18844,-0.30531
5.0944,19034.7881,-2.39645,-1.01495,0.1675
5.0956,19034.8081,-2.02626,-0.3656,0.70261
5.0966,19034.8281,-1.96762,0.10904,1.21452
5.11,19034.8481,-1.92791,0.45968,1.46497
5.1295,19034.8681,-1.63348,0.87323,1.41366
5.1487,19034.8881,-1.23214,1.08948,1.16443
5.1702,19034.9081,-0.80453,1.10903,0.88893
5.1894,19034.9281,-0.2572,0.91477,0.92375
5.2101,19034.9481,0.40498,0.96364,0.95307
5.2323,19034.9681,0.9853,1.28373,0.86022
5.2516,19034.9882,1.27852,1.65514,0.83395
5.2733,19035.0082,1.32433,1.56229,0.89504
5.2922,19035.0282,1.21315,1.58855,1.26339
5.3101,19035.0482,1.3335,1.71439,1.47475
5.3314,19035.0683,1.28585,1.27885,1.74536
5.3555,19035.0883,1.06349,0.75717,1.95245
5.3744,19035.1083,0.89062,0.4218,1.98665
5.3937,19035.1284,0.81487,0.40531,1.98971
5.4172,19035.1484,0.73668,0.48472,2.00131
5.4358,19035.1684,0.57663,0.92332,1.95916
5.4618,19035.1884,0.39704,1.60199,2.06301
5.4753,19035.2085,0.13986,1.57328,2.03491
5.4921,19035.2285,0.02869,1.41934,1.96955
5.5136,19035.2485,-0.13747,1.48165,1.84249
5.5379,19035.2686,-0.46611,1.51769,1.72032
5.5524,19035.2886,-0.74345,1.66369,1.66045
5.5716,19035.3086,-0.97863,2.06747,1.49674
5.5971,19035.3286,-1.10752,2.18537,1.35746
5.6142,19035.3487,-1.0501,1.86711,1.37945
5.6362,19035.3687,-0.79354,1.4279,1.44787
5.6552,19035.3887,-0.58096,1.29534,1.27438
5.6717,19035.4088,-0.60173,1.03633,0.94757
5.694,19035.4288,-0.73001,0.64232,0.65069
5.7131,19035.4488,-0.73917,0.00458,0.34892
5.7311,19035.4688,-0.62555,-0.86468,0.03738
5.7524,19035.4889,-0.25964,-1.58917,-0.17703
5.779,19035.5089,0.08855,-1.91781,-0.33402
5.7991,19035.5289,0.24738,-2.13039,-0.32975
5.819,19035.5489,0.22233,-2.06808,-0.39328
5.8365,19035.5689,0.15819,-2.04304,-0.56982
5.852,19035.5889,0.31824,-2.06747,-0.78667
5.8726,19035.6089,0.7208,-2.07114,-1.00414
5.8973,19035.6289,1.04578,-2.04365,-1.24299
5.9122,19035.6489,1.0415,-1.85306,-1.56186
5.9321,19035.6689,0.81426,-1.69668,-1.84469
5.9542,19035.6889,0.70308,-1.55007,-2.07438
5.9763,19035.7089,0.8558,-1.34971,-2.41768
5.9919,19035.7289,1.02745,-1.51892,-2.65165
6.0139,19035.7489,1.15329,-1.78281,-2.80192
6.032,19035.7689,1.32067,-1.97035,-2.81353
6.0678,19035.7889,1.37748,-2.10657,-2.51298
6.0944,19035.8089,1.12824,-2.03143,-2.33522
6.1109,19035.8289,0.67498,-1.67041,-2.35477
6.1141,19035.8488,0.26937,-1.1921,-2.34682
6.149,19035.8688,-0.09593,-0.88423,-2.34011
6.1527,19035.8888,-0.26331,-0.8488,-2.41585
6.1734,19035.9089,-0.42274,-1.30084,-2.31567
6.1949,19035.9289,-0.75444,-1.26296,-1.76956
6.2133,19035.949,-1.14662,-1.06565,-1.23933
6.2327,19035.9691,-1.42029,-0.70647,-0.92473
6.2553,19035.9891,-1.75504,-0.60567,-0.67122
6.2747,19036.0092,-1.90348,-0.77183,-0.09395
6.2949,19036.0292,-1.79963,-0.40103,0.35992
6.3183,19036.0493,-1.62859,0.354,0.6513
6.337,19036.0694,-1.62676,1.03267,0.90115
6.3578,19036.0895,-1.73122,1.13957,1.18275
6.3784,19036.1096,-1.6347,1.08093,1.34769
6.4102,19036.1297,-1.34698,1.22448,1.53156
6.4167,19036.1498,-0.85035,1.38758,1.90724
6.4355,19036.1699,0.04946,1.70279,1.88892
6.4545,19036.19,0.70858,1.58917,1.39473
6.4748,19036.2101,0.91505,1.49204,0.90542
6.5043,19036.2302,0.92299,1.53358,0.73499
6.5159,19036.2502,0.94498,1.5684,0.94268
6.5363,19036.2703,0.81915,1.58611,1.31776
6.5576,19036.2904,0.52104,1.30206,1.73986
6.5792,19036.3105,0.31824,1.04061,1.99459
6.5956,19036.3306,0.37016,1.19882,1.79912
6.6161,19036.3507,0.37505,1.43828,1.67084
6.6407,19036.3708,0.2712,1.51403,1.92801
6.6546,19036.3909,0.00181,1.67652,2.2365
6.676,19036.411,-0.54614,1.08276,2.18946
6.6941,19036.4311,-0.90899,0.37415,2.05446
6.7187,19036.4512,-0.8699,0.19028,2.04346
6.7446,19036.4713,-0.45939,1.13163,2.15892
6.7554,19036.4914,-0.57057,2.18109,2.15647
6.777,19036.5115,-1.32255,2.10351,1.95489
6.7961,19036.5315,-1.74832,1.49631,1.79118
6.8223,19036.5515,-1.55284,1.33932,1.60486
6.8365,19036.5715,-1.01101,1.30511,1.37029
6.8553,19036.5916,-0.66465,1.25808,1.33791
6.8806,19036.6116,-0.71901,0.97586,1.31409
6.8943,19036.6316,-0.81125,0.50183,1.26033
6.9206,19036.6517,-0.78315,-0.04979,1.00499
6.9399,19036.6716,-0.72634,-0.4554,0.40207
6.9546,19036.6916,-0.76422,-0.83475,-0.17459
6.9763,19036.7116,-0.76971,-1.10719,-0.35296
6.9949,19036.7316,-0.68603,-1.19394,-0.55699
7.0459,19036.7516,-0.50887,-1.49448,-0.70421
7.0506,19036.7716,-0.22177,-1.86161,-0.72437
7.0579,19036.7916,0.00792,-2.35458,-0.84532
7.0773,19036.8116,0.21806,-2.39307,-1.05118
7.0951,19036.8316,0.30419,-2.0687,-1.16175
7.1238,19036.8516,0.28525,-1.66552,-1.20512
7.1322,19036.8716,0.31946,-1.43034,-1.29491
7.1571,19036.8916,0.43858,-1.37231,-1.38227
7.1742,19036.9117,0.64138,-1.59161,-1.45007
7.1943,19036.9317,0.87351,-1.79992,-1.49833
7.2155,19036.9517,1.04272,-1.90437,-1.52155
7.2357,19036.9717,1.17406,-1.87383,-1.48795
7.2556,19036.9918,1.18628,-1.80419,-1.43786
7.2779,19037.0118,1.13435,-1.84573,-1.43419
7.2962,19037.0318,1.19972,-1.95263,-1.3896
7.3201,19037.0519,1.40802,-1.99417,-1.3505
7.3588,19037.072,1.5809,-1.81458,-1.42747
7.3713,19037.092,1.60044,-1.66797,-1.47207
7.3817,19037.1121,1.39275,-1.67163,-1.4684
7.3979,19037.1321,1.08243,-1.50792,-1.55209
7.4165,19037.1522,0.81426,-1.1579,-1.75734
7.4369,19037.1723,0.50027,-0.77733,-1.89356
7.4626,19037.1923,0.04518,-0.42608,-1.9742
7.4815,19037.2124,-0.45023,-0.2471,-2.01329
7.5014,19037.2324,-0.82897,-0.31612,-1.99497
7.5239,19037.2525,-1.14356,-0.73396,-2.10187
7.5387,19037.2726,-1.41784,-1.1188,-2.21182
7.5577,19037.2926,-1.87721,-0.92271,-2.18922
7.5843,19037.3127,-2.25351,-0.67226,-2.04506
7.6176,19037.3328,-2.32498,-0.45235,-1.65533
7.6245,19037.3528,-2.19731,-0.26603,-0.90213
7.6371,19037.3729,-2.1967,-0.11209,-0.15382
7.6565,19037.3929,-2.23274,-0.24282,0.28234
7.6758,19037.413,-1.94196,-0.23305,0.59144
7.6972,19037.4331,-1.2016,0.42974,1.1968
7.7157,19037.4531,-0.76116,1.24342,1.75391
7.7361,19037.4732,-0.53209,1.28801,1.96711
7.7622,19037.4932,0.20156,1.19882,1.95916
7.7809,19037.5132,1.00729,1.29534,1.7307
7.8016,19037.5333,1.21193,1.65819,1.34158
7.8181,19037.5533,0.88756,1.90498,1.14427
7.8403,19037.5733,0.6536,1.93064,1.30004
7.8622,19037.5934,0.51921,1.72233,1.63724
7.8806,19037.6134,0.3726,1.15423,1.8095
7.8963,19037.6334,0.35855,0.90683,1.83638
7.9153,19037.6534,0.44408,0.97341,1.86998
7.9418,19037.6734,0.47034,1.31061,1.57554
7.9596,19037.6934,0.53693,1.54213,1.11861
7.9827,19037.7134,0.71835,1.54335,0.93047
8.0058,19037.7334,0.92727,1.50975,1.11861
8.0215,19037.7534,1.07266,1.46027,1.53706
8.0531,19037.7734,0.96942,1.43889,1.93106
8.0654,19037.7934,0.49356,1.38025,1.961
8.0921,19037.8134,-0.0776,1.41934,1.78385
8.1211,19037.8334,-0.45817,1.60322,1.71726
8.1244,19037.8534,-0.66037,1.76387,1.87059
8.1369,19037.8734,-1.02933,1.77181,1.89258
8.154,19037.8933,-1.6066,1.69118,1.61403
8.1759,19037.9133,-1.93341,1.58428,1.42466
8.1945,19037.9333,-1.73977,0.93004,1.55783
8.2164,19037.9533,-1.14234,0.80787,1.69466
8.236,19037.9733,-0.56996,1.02717,1.49979
8.2556,19037.9933,-0.36288,0.71013,1.42954
8.2756,19038.0133,-0.31095,-0.04734,1.58226
8.298,19038.0333,-0.30423,-0.14325,1.49979
8.3154,19038.0533,-0.5382,0.22571,0.8309
8.3342,19038.0733,-0.79354,-0.03818,0.31594
8.3799,19038.0933,-0.92854,-0.43524,0.08564
8.39,19038.1133,-0.95053,-0.90255,-0.10984
8.3968,19038.1333,-0.77827,-1.30206,-0.26683
8.4185,19038.1533,-0.41236,-1.49326,-0.22407
8.4355,19038.1733,-0.06416,-1.61543,-0.37923
8.4644,19038.1933,0.07817,-1.76082,-0.76591
8.4867,19038.2133,0.08428,-1.80786,-1.16175
8.4978,19038.2333,0.15819,-1.80236,-1.39632
8.5151,19038.2533,0.37749,-1.83473,-1.5246
8.5374,19038.2733,0.6536,-1.9172,-1.53926
8.5581,19038.2933,0.86191,-2.07664,-1.50811
8.5799,19038.3132,0.99752,-2.03571,-1.64005
8.611,19038.3332,1.05005,-1.82985,-1.90517
8.6248,19038.3532,1.01585,-1.53724,-2.188
8.6453,19038.3732,0.8503,-1.24525,-2.42929
8.6645,19038.3932,0.69209,-1.09742,-2.56368
8.6774,19038.4132,0.73546,-1.02534,-2.593
8.6961,19038.4332,0.96759,-0.94226,-2.61499
8.7173,19038.4532,1.02379,-1.11514,-2.56429
8.7358,19038.4732,0.88573,-1.33199,-2.3456
8.7555,19038.4932,0.52043,-1.164,-2.11408
8.7792,19038.5132,-0.18451,-0.7364,-2.05911
8.7961,19038.5332,-1.06415,-0.31246,-2.19166
8.816,19038.5532,-1.67196,-0.14081,-2.32544
8.8383,19038.5732,-1.86255,0.02107,-2.37859
8.857,19038.5932,-1.93097,0.15363,-2.41952
8.885,19038.6132,-1.87966,0.07055,-2.24909
8.9092,19038.6332,-1.76298,-0.21167,-1.95526
8.9162,19038.6532,-1.5394,-0.75167,-1.57469
8.9363,19038.6732,-1.29261,-1.2031,-0.8331
8.9567,19038.6932,-1.27979,-1.36803,0.03738
8.9747,19038.7131,-1.3366,-0.82864,0.60671
9.0008,19038.7331,-1.438,-0.03268,0.92863
9.0505,19038.7531,-1.40562,0.66004,1.264
9.0533,19038.7731,-1.0727,0.96425,1.54011
9.0558,19038.7931,-0.62983,1.1133,1.56149
9.0782,19038.8131,-0.04462,0.9728,1.34097
9.0944,19038.8331,0.29502,0.99113,1.2585
9.1161,19038.8531,0.48134,1.0345,1.24934
9.1365,19038.8731,0.60412,1.10597,1.22613
9.1613,19038.8931,0.61939,1.12613,1.16993
9.1757,19038.9132,0.55098,0.96181,1.15282
9.1969,19038.9332,0.64322,0.6576,1.26828
9.2155,19038.9532,0.8613,0.59223,1.34402
9.2384,19038.9733,0.95781,0.8042,1.26828
9.2603,19038.9933,0.95476,1.05221,1.20963
9.279,19039.0133,0.99446,1.15851,1.34341
9.302,19039.0333,1.06899,1.2593,1.6519
9.3224,19039.0534,1.02623,1.33749,1.95306
9.3408,19039.0734,0.85641,1.23547,2.15464
9.3564,19039.0934,0.66643,0.99235,2.32813
9.3787,19039.1135,0.48195,0.51954,2.29942
9.3968,19039.1335,0.68537,0.6747,2.0007
9.4317,19039.1535,0.86679,0.6521,1.81683
9.4449,19039.1735,0.68964,0.62278,1.75269
9.4572,19039.1936,0.21195,0.74006,1.82416
9.4776,19039.2136,-0.37571,0.75167,2.09478
9.4998,19039.2336,-0.87173,0.46273,2.35256
9.5202,19039.2537,-0.84607,0.37354,2.52788
9.54,19039.2737,-0.48872,0.73029,2.28231
9.5622,19039.2937,-0.34333,0.92515,1.84249
9.6007,19039.3137,-0.45023,0.759,1.59448
9.6067,19039.3338,-0.70069,0.93432,1.33303
9.6234,19039.3538,-1.01711,0.84208,0.89015
9.6356,19039.3738,-1.01162,0.46334,0.54623
9.6547,19039.3939,-0.77032,-0.18357,0.35015
9.6801,19039.4139,-0.54919,-0.45784,0.22553
9.6988,19039.4339,-0.617,0.0223,-0.19719
9.716,19039.4539,-1.0165,0.43096,-0.75857
9.7378,19039.474,-1.3256,0.354,-1.05362
9.7568,19039.494,-1.1173,-0.2587,-1.23688
9.7774,19039.514,-0.62372,-0.8769,-1.47207
9.8023,19039.5339,-0.1222,-1.55496,-1.64922
9.821,19039.5539,0.1979,-1.78953,-1.83797
9.8388,19039.5739,0.22844,-1.42912,-2.39447
9.8633,19039.5939,-0.00063,-0.73029,-3.20509
9.8881,19039.6139,0.04946,-0.90683,-3.86482
9.9034,19039.6339,0.46057,-1.77182,-4.19958
9.9214,19039.6539,0.57358,-1.74921,-4.22524
9.9506,19039.6739,0.09344,-0.9893,-4.45003
9.9574,19039.6939,-0.51559,-2.21286,-4.71271
9.9774,19039.7139,-1.5559,-1.74433,-4.32969
9.9962,19039.7339,-2.72693,-0.88789,-3.20509
10.0177,19039.7539,-3.66155,-0.66737,-2.06338
10.0524,19039.7739,-4.17223,-1.59222,-1.19473
10.0619,19039.7939,-4.58701,-1.85978,-0.71093
10.0908,19039.8139,-4.79104,-0.84147,-0.25034
10.1105,19039.8339,-3.89307,0.87445,-0.16176
10.1183,19039.8539,-2.04215,3.16092,-0.87769
10.1362,19039.8739,-0.96458,1.85,-1.84775
10.1578,19039.8939,-0.7129,1.70889,-1.48428
10.1793,19039.9139,-0.4936,3.39122,-0.15993
10.1962,19039.9338,-0.5101,4.7394,0.09053
10.2207,19039.9538,-0.54186,4.23543,-1.2601
10.2358,19039.9738,-0.34638,2.75225,-1.99619
10.2555,19039.9938,-0.46856,-1.22753,-1.79888
10.2778,19040.0138,-0.05317,-6.35147,-1.53498
10.2975,19040.0338,1.56074,-8.00264,-2.06522
10.3179,19040.0539,0.63894,-3.50301,-1.61745
10.3403,19040.0739,-2.23946,-1.44439,1.264
10.3597,19040.0939,-2.73792,-0.30879,2.35562
10.3772,19040.1139,-1.52597,-0.60323,2.13326
10.4043,19040.134,-0.32867,-3.2666,1.68672
10.4201,19040.154,1.20888,-5.03078,0.88587
10.4398,19040.174,3.11417,-4.65938,0.73866
10.4599,19040.1941,3.99992,-3.87258,0.92863
10.4817,19040.2141,4.14286,-5.56407,0.78264
10.4998,19040.2341,4.92905,-7.35451,0.70567
10.5186,19040.2541,5.64193,-8.49988,0.40085
10.5398,19040.2742,6.19537,-7.47302,0.29578
10.5576,19040.2942,5.9272,-5.07537,0.44972
10.5815,19040.3143,4.74457,-3.29654,0.92314
10.5986,19040.3343,3.78429,-2.64841,1.34036
10.6208,19040.3544,4.1844,-3.60502,1.23407
10.6422,19040.3745,5.35177,-5.79925,0.94879
10.6675,19040.3945,6.73477,-8.03502,1.2078
10.6811,19040.4146,7.77507,-9.54202,1.54133
10.7023,19040.4347,8.52521,-9.49804,1.66778
10.7227,19040.4547,8.41892,-9.5017,1.24567
10.7383,19040.4748,7.71093,-8.88717,0.28784
10.7587,19040.4948,7.31692,-7.15171,0.05388
10.7795,19040.5149,7.54111,-5.07904,0.03799
10.8075,19040.535,7.47208,-3.3393,-0.13427
10.8194,19040.555,6.3768,-1.44622,-0.51973
10.8374,19040.5751,4.88873,0.6295,-0.659
10.859,19040.5952,3.38173,3.25683,-0.51789
10.884,19040.6152,1.53019,5.46327,-1.58141
10.9033,19040.6353,0.56319,7.14193,-2.8178
10.9228,19040.6553,0.68292,7.97576,-3.68279
10.9512,19040.6753,1.07632,7.65322,-4.45431
10.9672,19040.6954,0.64016,6.86826,-4.94361
10.9793,19040.7154,-0.51559,7.00632,-4.70171
11.0108,19040.7354,-1.49481,7.48401,-4.47691
11.0197,19040.7554,-1.72144,7.28915,-4.6785
11.0525,19040.7755,-1.30056,6.27695,-4.98149
11.0949,19040.7955,-0.68297,4.71191,-5.48179
11.0968,19040.8155,-0.66403,4.04607,-5.79882
11.0984,19040.8356,-1.23275,4.71313,-5.90756
11.122,19040.8556,-1.92364,6.06131,-6.18367
11.1361,19040.8756,-2.08124,5.69662,-6.44084
11.1575,19040.8956,-2.15821,4.66304,-6.79209
11.1794,19040.9156,-2.42821,4.48772,-6.82141
11.2,19040.9356,-2.98777,5.07171,-6.00469
11.2176,19040.9556,-3.64017,5.86522,-5.09511
11.2474,19040.9756,-4.08916,6.24457,-4.90452
11.2633,19040.9956,-4.04334,5.26657,-4.60703
11.2799,19041.0156,-4.45751,4.20794,-4.35535
11.3013,19041.0356,-4.50454,2.73026,-4.15621
11.3182,19041.0556,-2.75991,1.76326,-3.37552
11.3381,19041.0756,-0.95114,1.77304,-2.2051
11.3593,19041.0956,-0.97435,-0.03818,-2.1544
11.381,19041.1156,-0.24681,-1.97401,-1.7891
11.4096,19041.1356,1.44773,-3.11877,-0.72437
11.423,19041.1556,2.8014,-3.19086,0.14551
11.4388,19041.1756,4.18868,-2.90436,0.36908
11.4618,19041.1956,5.45806,-2.69239,0.27012
11.4843,19041.2157,6.13795,-3.02226,0.70323
11.5002,19041.2357,6.18499,-3.55676,1.13327
11.5261,19041.2557,5.82213,-3.57204,1.41611
11.5412,19041.2758,5.2467,-2.78952,1.9048
11.5593,19041.2958,4.75617,-2.74981,2.7203
11.5798,19041.3158,4.3249,-2.9459,3.25053
11.6008,19041.3358,4.0158,-2.87504,3.71418
11.6196,19041.3559,3.98587,-3.28249,4.61826
11.6407,19041.3759,4.29619,-3.30203,5.42521
11.666,19041.3959,4.57414,-3.17131,5.37818
11.6848,19041.416,4.72135,-3.75407,4.69889
11.7041,19041.436,4.67432,-4.14564,4.14789
11.7264,19041.456,4.2125,-3.85609,4.38186
11.7432,19041.476,3.53383,-2.97217,4.57
11.7628,19041.4961,2.60532,-2.7828,4.49548
11.7875,19041.5161,2.40312,-3.55004,4.95057
11.799,19041.5361,2.38724,-4.04179,4.98417
11.8193,19041.5562,2.09769,-4.18779,4.98906
11.8403,19041.5762,1.96757,-4.34967,5.07213
11.8586,19041.5962,2.28217,-4.773,5.14544
11.8781,19041.6162,2.76964,-5.26047,4.6769
11.9045,19041.6363,2.47887,-4.95748,4.41851
11.9192,19041.6563,1.84479,-4.52376,4.46616
11.9424,19041.6763,1.32372,-4.04301,4.10819
11.9627,19041.6964,1.17895,-3.97154,3.38431
11.988,19041.7164,0.56625,-3.89152,3.00313
12.0109,19041.7364,-0.09226,-3.79134,2.83453
12.0304,19041.7564,-0.51498,-3.52133,2.45091
12.0509,19041.7764,-0.93282,-3.29776,2.29453
12.0628,19041.7964,-1.90409,-3.2495,2.43075
12.0836,19041.8164,-2.46975,-3.57142,2.10638
12.0982,19041.8364,-2.69638,-3.85853,1.53828
12.1233,19041.8564,-3.13926,-3.65695,0.96407
12.1436,19041.8764,-3.85336,-3.31364,0.5615
12.1622,19041.8964,-4.25714,-3.61113,0.22431
12.1787,19041.9164,-4.17773,-4.51888,0.04899
12.1994,19041.9364,-4.15269,-4.30568,-0.22651
12.2196,19041.9564,-4.59678,-4.00575,-0.69627
12.2379,19041.9763,-4.84541,-4.42969,-1.2491
12.2596,19041.9963,-5.00851,-4.73879,-1.58446
12.2795,19042.0163,-5.04944,-4.30629,-1.59729
12.3005,19042.0363,-5.20704,-3.50117,-1.53804
12.3214,19042.0563,-4.94681,-2.71743,-1.69442
12.3424,19042.0763,-4.55158,-2.26356,-1.87585
12.3586,19042.0963,-4.22171,-1.32833,-1.34745
12.382,19042.1163,-3.73791,-0.5116,-0.96321
12.3993,19042.1363,-2.74892,-0.15485,-0.7036
12.4259,19042.1563,-1.38058,-0.30207,-0.49835
12.4416,19042.1763,-0.48261,-0.67409,-0.31753
12.459,19042.1963,-0.71901,-0.56352,0.22675
12.4789,19042.2163,-1.29628,0.68386,1.41061
12.5009,19042.2363,-1.73244,2.14322,2.87363
12.5218,19042.2563,-1.97739,3.03631,3.93837
12.5387,19042.2763,-2.10079,2.79379,4.25968
12.5721,19042.2963,-2.0116,1.71012,4.3562
12.5864,19042.3163,-1.89371,0.748,4.42523
12.6033,19042.3363,-2.24129,0.76816,4.46127
12.6198,19042.3563,-2.62002,1.39674,4.4405
12.6386,19042.3763,-2.54306,1.97401,4.21265
12.6635,19042.3962,-2.57482,1.76815,3.93654
12.7003,19042.4162,-2.9786,1.34238,3.84857
12.7065,19042.4362,-3.49051,1.299,3.90599
12.7225,19042.4562,-3.67193,2.07664,4.26824
12.7441,19042.4762,-3.84542,3.14687,4.81191
12.7604,19042.4962,-4.51004,4.09005,4.98845
12.7773,19042.5162,-5.26629,4.03629,5.12772
12.8024,19042.5362,-5.42023,5.19144,5.55594
12.8174,19042.5562,-4.37138,7.50234,6.49484
12.841,19042.5762,-3.32557,8.9898,7.20955
12.8749,19042.5962,-2.85643,9.35937,6.92244
12.8929,19042.6162,-2.59803,8.45957,6.07884
12.9137,19042.6362,-1.84178,7.247,5.65307
12.9194,19042.6562,-0.741,6.13889,6.53332
12.9375,19042.6762,-0.325,4.68564,6.64389
12.9599,19042.6962,1.03051,3.51461,5.45148
12.9802,19042.7162,2.60409,2.01799,4.91575
12.9985,19042.7362,2.86921,1.03633,5.39956
13.0411,19042.7562,1.74949,0.61239,6.10083
13.0446,19042.7762,1.09831,-0.1182,6.79172
13.0595,19042.7962,1.01157,0.77794,6.98781
13.0811,19042.8162,0.51249,0.90622,5.86565
13.1009,19042.8362,0.41231,0.53787,5.10634
13.1228,19042.8562,0.46179,-0.07728,5.10146
13.136,19042.8762,-0.09837,-0.01863,4.96706
13.1594,19042.8962,-0.9432,-0.10171,5.06664
13.1783,19042.9162,-1.01956,-0.56719,5.11489
13.1999,19042.9362,-0.50765,-1.54457,5.69216
13.2204,19042.9562,0.12459,-2.98988,6.60968
13.2422,19042.9762,0.36772,-4.19817,7.5382
13.2629,19042.9962,0.29991,-4.74612,8.72633
13.2805,19043.0162,-0.14236,-4.99413,9.32498
13.3013,19043.0362,-0.87417,-5.21038,9.14661
13.3193,19043.0562,-1.61637,-4.22688,8.46793
13.3385,19043.0761,-2.87537,-3.09739,7.24498
13.36,19043.0961,-3.63895,-2.59587,5.45698
13.3778,19043.1161,-3.3946,-2.49203,3.67264
13.3989,19043.1361,-2.63896,-2.79501,1.59875
13.4172,19043.1561,-1.38486,-2.35764,-0.46108
13.4407,19043.1761,-0.12464,-0.77061,-2.41341
13.4639,19043.1961,0.72446,1.19271,-3.24541
13.4852,19043.2161,0.5974,1.90926,-4.05969
13.5029,19043.2361,0.31274,2.14994,-5.41031
13.5237,19043.2561,0.17835,2.11817,-6.56302
13.5427,19043.2761,0.1307,1.91537,-7.44572
13.5659,19043.2961,0.0971,1.2483,-8.13661
13.5823,19043.3161,-0.12953,0.80115,-8.83788
13.5986,19043.3361,-0.75078,0.88789,-9.09872
13.6231,19043.356,-1.57972,1.93064,-8.59414
13.6417,19043.376,-2.08185,3.37045,-7.83789
13.6601,19043.396,-2.1686,3.32524,-7.2197
13.6788,19043.416,-1.93402,1.70095,-7.61676
13.702,19043.436,-1.59744,0.35461,-8.50862
13.7234,19043.456,-1.23947,-0.97097,-9.06695
13.7441,19043.476,-1.64203,-2.6258,-9.30458
13.7632,19043.496,-2.2309,-3.2495,-8.43654
13.7843,19043.516,-3.07023,-3.70948,-7.70289
13.8037,19043.536,-4.4459,-5.21648,-7.70717
13.8202,19043.556,-5.38297,-5.08637,-6.92587
13.8422,19043.576,-5.36525,-2.78768,-5.2014
13.8603,19043.596,-4.67192,-1.53724,-3.33398
13.8827,19043.616,-3.40132,-0.68081,-2.62599
13.8988,19043.6359,-3.08978,-0.82436,-2.57223
13.9198,19043.6559,-3.30297,-1.78587,-3.18921
13.9411,19043.6759,-3.34268,-2.91169,-3.84955
13.9601,19043.6959,-3.14842,-2.86282,-3.52152
13.9852,19043.7159,-2.48075,-2.17254,-1.81537
14.0007,19043.7359,-1.62493,-2.37963,-0.83738
14.019,19043.7559,-1.06965,-4.4865,-1.15319
14.0386,19043.7759,-0.12831,-5.80658,-2.56307
14.068,19043.7959,0.86924,-4.13953,-4.78784
14.0857,19043.8159,1.42757,-4.0931,-4.3975
14.1165,19043.8359,3.16976,-4.36738,-3.28023
14.1202,19043.8559,6.38474,-4.62883,-3.10124
14.1459,19043.8759,8.89662,-5.68807,-4.34558
14.1584,19043.8959,9.36637,-5.48771,-5.19468
14.1823,19043.9159,9.02856,-4.87562,-5.15864
14.2006,19043.9359,8.10982,-4.79132,-5.10305
14.2195,19043.956,7.16481,-4.31912,-4.62718
14.2401,19043.976,6.60404,-3.77912,-4.6223
14.2587,19043.996,6.17338,-3.79622,-5.01508
14.2808,19044.0161,5.42874,-3.29531,-5.05662
14.305,19044.0361,5.05183,-1.9398,-5.1452
14.323,19044.0561,5.55641,-1.22692,-5.02669
14.3468,19044.0761,6.0396,-1.26724,-4.36818
14.3733,19044.0962,5.87528,-0.43707,-4.25272
14.3903,19044.1162,5.6291,0.41569,-5.49095
14.4167,19044.1362,5.14957,0.28985,-6.09326
14.4239,19044.1563,4.30535,2.2318,-5.2295
14.4403,19044.1763,3.56804,3.44253,-3.19104
14.4601,19044.1963,3.34019,3.44986,-1.55698
14.4818,19044.2163,2.70305,3.81088,-1.29553
14.4985,19044.2364,1.40374,4.71863,-2.54963
14.5207,19044.2564,-0.10021,4.87806,-3.48548
14.549,19044.2764,-1.43678,5.79925,-3.58627
14.5614,19044.2965,-2.15577,6.65446,-3.39751
14.5835,19044.3165,-2.56138,7.54938,-3.0707
14.6008,19044.3365,-2.9896,7.79128,-3.08903
14.62,19044.3565,-3.24922,6.74792,-4.02121
14.6417,19044.3766,-3.27609,5.51397,-4.98943
14.6617,19044.3966,-3.76967,4.38815,-5.20384
14.6885,19044.4166,-4.35671,4.09066,-4.64368
14.7037,19044.4367,-4.18812,4.8127,-4.12933
14.7244,19044.4567,-4.30174,5.3466,-3.62842
14.7386,19044.4767,-4.79287,3.65511,-4.11467
14.7586,19044.4967,-4.5693,2.53417,-5.02852
14.7828,19044.5167,-4.21499,1.90193,-5.9717
14.7997,19044.5367,-4.33839,1.83168,-5.90328
14.8187,19044.5567,-4.97674,2.47003,-5.14337
14.8414,19044.5767,-5.72505,3.12671,-4.61924
14.8622,19044.5967,-5.90892,3.95382,-4.13299
14.8836,19044.6167,-5.71956,3.87991,-3.2338
14.9124,19044.6367,-5.17405,3.59586,-2.63699
14.9214,19044.6567,-4.5473,3.39549,-2.81291
14.9457,19044.6767,-4.12581,3.82371,-3.27962
14.9619,19044.6967,-4.15757,4.5201,-3.4024
14.9834,19044.7167,-4.74889,5.35515,-2.77687
14.9995,19044.7367,-5.45261,5.05521,-1.85447
15.0508,19044.7567,-6.04331,3.84692,-1.34684
15.0531,19044.7767,-5.49476,2.32281,-1.50261
15.0624,19044.7967,-4.16185,0.93371,-1.70481
15.0904,19044.8167,-2.70799,-0.89706,-1.64128
15.1007,19044.8367,-0.42152,-2.47309,-1.4855
15.1165,19044.8566,1.46666,-3.11144,-0.13061
15.137,19044.8766,2.28644,-3.50606,1.38129
15.1599,19044.8966,3.25161,-3.06196,1.98788
15.1777,19044.9166,4.50572,-2.8787,2.02941
15.2014,19044.9366,5.18744,-3.88052,1.58409
15.2186,19044.9566,5.36459,-5.38386,0.56028
15.2393,19044.9766,5.40247,-5.18472,-0.31509
15.2626,19044.9966,5.71401,-4.78582,-0.2259
15.2815,19045.0166,6.14895,-5.02101,0.47537
15.3041,19045.0366,6.60343,-5.30811,1.0447
15.3226,19045.0566,6.99866,-5.3747,1.47536
15.3435,19045.0766,6.67246,-5.09798,1.94573
15.3624,19045.0966,6.00723,-4.81026,2.03919
15.383,19045.1166,5.66148,-4.77483,1.96833
15.404,19045.1366,5.78121,-5.38814,2.06545
15.4267,19045.1566,6.36153,-5.46205,1.77957
15.4477,19045.1766,6.61992,-5.3582,1.47292
15.4625,19045.1966,6.27234,-5.64348,1.36907
15.48,19045.2166,5.76715,-5.29834,1.1461
15.5021,19045.2366,5.48066,-5.44128,1.55111
15.5211,19045.2566,5.5503,-5.1108,2.13021
15.5418,19045.2766,5.72684,-4.37593,2.74535
15.5602,19045.2967,5.61016,-4.87379,3.26092
15.5806,19045.3167,4.81604,-5.77848,2.88829
15.5983,19045.3367,3.59675,-6.15416,2.41059
15.6226,19045.3568,2.29072,-5.06071,2.06668
15.6408,19045.3768,0.89184,-4.22994,1.84188
15.6644,19045.3968,-0.35982,-3.70948,1.7924
15.6854,19045.4168,-1.30239,-2.9911,1.77224
15.7183,19045.4369,-2.04948,-2.92452,1.96405
15.7306,19045.4569,-2.84421,-3.9526,2.02575
15.7426,19045.4769,-3.55526,-3.33441,1.31776
15.7625,19045.497,-3.83381,-2.6985,0.24874
15.7796,19045.517,-3.71775,-2.49569,0.78814
15.806,19045.537,-4.28585,-2.36924,1.48147
15.8222,19045.557,-4.94864,-1.91781,1.39717
15.8423,19045.5771,-5.37075,-1.59955,1.815
15.8659,19045.5971,-5.42817,-1.24525,2.47962
15.8845,19045.6171,-5.48437,0.39065,1.53522
15.9103,19045.6372,-5.09769,-0.2251,0.12962
15.9253,19045.6572,-4.6426,-1.30206,0.10336
15.9444,19045.6772,-4.51798,-1.81946,-0.2766
15.9671,19045.6972,-4.71102,-2.51279,-0.76102
15.9815,19045.7173,-4.69941,-3.13771,-0.12083
16.0024,19045.7373,-4.44224,-2.90864,1.09662
16.0199,19045.7573,-3.99142,-2.05342,1.49063
16.044,19045.7774,-3.76112,-1.08276,1.81011
16.062,19045.7974,-3.60963,-0.13592,2.36172
16.0931,19045.8174,-3.14903,0.88789,2.83515
16.1211,19045.8374,-3.52472,0.76755,3.27558
16.1312,19045.8574,-3.69393,0.70463,3.24015
16.1406,19045.8774,-3.13743,-0.00397,2.60424
16.1748,19045.8974,-1.43861,0.17868,1.00194
16.1848,19045.9174,0.10871,0.31429,0.08808
16.2012,19045.9374,1.0018,1.02228,-0.62174
16.2245,19045.9574,1.35304,1.04977,-0.61319
16.2395,19045.9774,0.79227,0.77794,0.37275
16.2585,19045.9974,-0.05683,1.24586,1.75697
16.2805,19046.0174,-0.30912,2.01799,3.22427
16.2991,19046.0374,-0.16801,2.99904,4.63109
16.3198,19046.0574,-0.33783,3.27943,5.45209
16.3451,19046.0774,-0.90594,3.3173,5.60908
16.3741,19046.0973,-1.60965,3.58059,5.66101
16.3833,19046.1173,-2.50579,4.88173,6.05196
16.4047,19046.1373,-3.63406,6.38934,6.7233
16.4231,19046.1574,-4.75744,6.88415,7.13442
16.4408,19046.1774,-5.63098,7.2134,6.80516
16.4653,19046.1974,-5.78553,7.63612,6.07945
16.4854,19046.2175,-5.06226,7.6239,5.58648
16.5005,19046.2375,-4.15696,8.72468,5.36963
16.5253,19046.2575,-3.33474,9.88533,4.85467
16.5403,19046.2775,-2.54306,9.41557,4.16866
16.5625,19046.2976,-1.64936,8.22988,3.36965
16.5833,19046.3176,-0.97558,7.53472,2.54254
16.607,19046.3376,-0.52476,6.69111,2.1241
16.6201,19046.3577,0.55953,4.10043,2.72763
16.6474,19046.3777,1.8509,2.76936,3.46189
16.6603,19046.3977,1.63587,3.19818,3.31773
16.68,19046.4177,0.61451,4.33439,2.79483
16.7017,19046.4378,-0.19489,4.85302,3.0575
16.7253,19046.4578,-0.32256,4.05584,3.42158
16.7424,19046.4778,0.18507,2.00944,3.40569
16.7669,19046.4978,0.57969,0.43096,3.57368
16.784,19046.5179,0.39276,-0.41142,4.39163
16.8,19046.5379,-0.39098,-0.32956,5.16315
16.822,19046.5579,-0.88028,-1.09803,5.31465
16.8412,19046.578,-1.23519,-1.73822,5.86443
16.8604,19046.598,-1.85644,-1.78098,6.53393
16.885,19046.618,-2.34819,-2.3161,6.1161
16.9035,19046.638,-2.43615,-2.78402,5.07213
16.9198,19046.6581,-2.74342,-2.76142,4.53152
16.942,19046.6781,-3.48196,-2.74676,4.14789
16.9602,19046.6981,-4.1875,-3.17925,3.99396
16.9826,19046.7182,-4.4459,-3.69115,4.31894
17.0142,19046.7382,-3.94805,-3.5195,4.70195
17.0208,19046.7582,-3.72936,-3.18658,4.81007
17.0601,19046.7782,-3.57175,-3.58731,4.986
17.0618,19046.7982,-3.13132,-4.19695,5.0703
17.0801,19046.8182,-3.09222,-4.52437,4.61765
17.0988,19046.8382,-3.93522,-3.9807,3.80764
17.1224,19046.8582,-4.50027,-3.77729,3.54069
17.1372,19046.8781,-4.12581,-4.79865,3.11798
17.1594,19046.8981,-3.58947,-5.30995,2.40265
17.1815,19046.9181,-3.73546,-4.6099,1.70077
17.1996,19046.9381,-4.18812,-3.81944,0.4546
17.2218,19046.9581,-3.93888,-2.05709,-1.00842
17.2448,19046.9781,-3.91445,-1.11086,-1.81965
17.2606,19046.9981,-4.07083,-0.53603,-1.56308
17.2819,19047.0181,-3.81427,-1.63559,-1.44091
17.3013,19047.0381,-3.33596,-2.49936,-1.91067
17.3206,19047.0581,-3.51922,-2.05587,-2.11714
17.3416,19047.0781,-3.93827,-2.02166,-1.6987
17.3638,19047.0981,-3.93583,-2.68811,-1.27048
17.3847,19047.1181,-3.42881,-4.5879,-1.54965
17.406,19047.1381,-2.26084,-6.78763,-2.08782
17.4269,19047.1581,-1.14356,-7.58909,-2.24298
17.4441,19047.1781,-0.51682,-6.67218,-1.626
17.4644,19047.1981,-0.59073,-5.94586,-1.1929
17.4865,19047.2181,-1.0611,-6.8029,-1.55575
17.5111,19047.2381,-0.82591,-7.10406,-2.42257
17.5249,19047.2581,-0.62616,-6.05398,-2.874
17.5466,19047.2781,-0.05683,-4.62211,-2.44212
17.5626,19047.298,0.71652,-4.18229,-2.042
17.5868,19047.318,0.47218,-3.72842,-1.62906
17.6016,19047.338,-0.71962,-3.81088,-2.0139
17.6201,19047.358,-1.52963,-3.56104,-2.7335
17.6411,19047.378,-2.88209,-3.0357,-3.06093
17.6633,19047.398,-4.61817,-0.96059,-2.42196
17.6864,19047.418,-5.45322,1.55862,-1.62906
17.7086,19047.438,-5.95962,4.00819,-1.42075
17.7224,19047.458,-6.38906,4.68259,-1.10249
17.7409,19047.478,-6.52468,3.36251,-0.88991
17.7632,19047.498,-5.81607,2.86221,-0.46353
17.7852,19047.518,-4.40131,3.06746,0.51997
17.8037,19047.538,-4.32251,2.07053,1.00133
17.8231,19047.558,-5.06959,2.12184,0.40818
17.8447,19047.578,-5.84967,2.39367,0.00684
17.8625,19047.598,-6.14716,2.54578,0.13879
17.8809,19047.618,-5.99322,2.21103,0.16017
17.9077,19047.638,-5.70428,1.51708,0.19437
17.9278,19047.658,-5.54729,0.97952,0.82234
17.9461,19047.678,-5.63403,1.02289,1.71115
17.9673,19047.698,-6.04392,2.65513,2.33301
17.9906,19047.7179,-6.74398,3.65267,2.24261
18.0067,19047.7379,-6.52345,3.56776,2.03308
18.0263,19047.7579,-5.64014,3.53538,2.10699
18.0415,19047.7779,-4.75011,3.06257,2.57675
18.0679,19047.7979,-4.02685,3.32708,2.85897
18.092,19047.8179,-3.67255,3.00637,2.6134
18.1053,19047.8379,-3.55465,3.33929,2.377
18.1197,19047.8579,-4.04395,4.11265,2.2536
18.1448,19047.8779,-4.78371,4.26414,2.6415
18.1598,19047.8979,-4.59801,5.7907,3.72701
18.1793,19047.9179,-4.87534,5.35637,3.85957
18.2067,19047.9379,-4.90283,5.04727,2.47351
18.2247,19047.9579,-4.89183,4.57446,2.02331
18.2456,19047.9779,-4.77638,4.10165,2.22978
18.2675,19047.9979,-4.9291,4.18595,1.92007
18.2805,19048.0179,-5.4636,3.75346,0.49981
18.3033,19048.0379,-5.62365,2.14017,-0.93878
18.326,19048.0579,-5.05127,0.59284,-1.82026
18.3442,19048.0779,-5.0641,0.18906,-2.09637
18.361,19048.0979,-5.1148,-0.16463,-2.16173
18.3829,19048.1179,-4.25653,-1.36498,-2.874
18.3999,19048.1379,-3.50456,-2.63252,-3.86238
18.4197,19048.1578,-3.45263,-2.44316,-3.50869
18.4414,19048.1778,-4.17407,-1.0736,-1.93205
18.4607,19048.1978,-4.65787,-0.25687,-1.19351
18.4812,19048.2178,-3.65544,-0.21594,-1.52399
18.5068,19048.2378,-1.77031,-0.68264,-1.97114
18.5243,19048.2578,-0.19367,-1.05283,-1.56675
18.545,19048.2778,0.74523,-1.11514,-0.51973
18.5635,19048.2978,0.73485,-0.74067,0.15039
18.5833,19048.3178,0.83564,-0.24832,0.69467
18.6002,19048.3378,1.83746,-0.38149,0.88221
18.6234,19048.3578,3.10439,-0.60323,0.60427
18.6403,19048.3778,3.98587,-0.39065,0.52485
18.6635,19048.3978,4.04696,0.47739,0.83273
18.6849,19048.4178,4.10316,0.44929,1.31959
18.7035,19048.4378,4.58574,0.71746,2.18702
18.7235,19048.4578,4.74579,-0.89522,2.65372
18.7478,19048.4778,5.14041,-1.98623,2.71358
18.7637,19048.4978,5.87711,-2.69361,2.75268
18.7868,19048.5178,6.27784,-3.30203,2.73985
18.8104,19048.5377,6.47026,-2.81945,2.20473
18.8296,19048.5577,5.5955,-3.30814,2.10394
18.8521,19048.5777,3.95716,-3.72231,2.01231
18.8654,19048.5977,2.28156,-4.24887,2.16136
18.8821,19048.6177,1.79959,-6.79374,2.53643
18.9013,19048.6377,3.49596,-8.44185,1.7643
18.9232,19048.6577,5.27235,-7.51578,0.52791
18.9462,19048.6777,5.43545,-6.02466,0.38435
18.9611,19048.6977,4.72868,-5.09553,0.64214
18.9839,19048.7177,4.25343,-5.40341,1.61708
19.0036,19048.7377,3.85392,-6.49503,2.50833
19.0218,19048.7577,4.1844,-8.10588,2.3098
19.0445,19048.7777,4.55459,-10.22191,1.41733
19.1058,19048.7977,4.68531,-11.03436,0.69834
19.1115,19048.8177,4.34812,-10.20909,0.51997
19.1132,19048.8377,4.32001,-9.55118,0.88404
19.1298,19048.8577,4.79832,-9.17917,0.9604
19.1387,19048.8777,5.23509,-9.11136,0.39046
19.1611,19048.8978,5.13124,-9.54202,-0.45559
19.1812,19048.9178,4.98586,-9.56401,-1.15136
19.1996,19048.9378,4.74762,-8.40887,-1.89478
19.2219,19048.9578,4.20884,-7.27266,-2.18128
19.2417,19048.9779,3.99442,-5.74183,-2.29857
19.2623,19048.9979,4.05612,-3.44986,-2.30956
19.2874,19049.0179,4.20212,-0.6973,-2.39447
19.3038,19049.038,4.45502,0.7761,-2.46045
19.3221,19049.058,4.67065,1.86467,-2.59117
19.3431,19049.078,4.1618,2.69422,-2.86239
19.378,19049.098,2.88326,1.97096,-3.19043
19.3858,19049.1181,2.13862,2.29105,-3.40545
19.4031,19049.1381,1.31578,3.5702,-3.53557
19.4203,19049.1581,-0.33356,4.18595,-3.7341
19.4416,19049.1782,-1.13868,4.61661,-4.1391
19.4664,19049.1982,-1.71289,5.25558,-5.00165
19.4879,19049.2182,-2.72387,6.28672,-5.27104
19.5012,19049.2382,-3.55159,7.07412,-5.26798
19.5237,19049.2583,-4.26203,7.10894,-5.35045
19.5415,19049.2783,-5.20887,6.42233,-5.42986
19.5604,19049.2983,-5.72139,5.42723,-5.12993
19.588,19049.3184,-5.96207,5.15784,-4.94483
19.602,19049.3384,-6.04087,4.69297,-5.22766
19.6348,19049.3584,-5.95168,3.92756,-5.20628
19.6498,19049.3784,-5.56623,3.0473,-4.28327
19.6644,19049.3985,-5.06776,3.49934,-3.92835
19.6807,19049.4185,-4.88633,3.69909,-4.09879
19.7024,19049.4385,-4.65054,3.08579,-4.24234
19.7223,19049.4585,-4.15391,1.94041,-4.33336
19.7507,19049.4785,-4.05373,1.61421,-4.67483
19.7659,19049.4985,-4.13314,2.0913,-5.05296
19.7853,19049.5185,-4.02013,2.10535,-4.72981
19.8048,19049.5385,-3.58458,3.25927,-4.41277
19.8238,19049.5585,-3.06107,3.82249,-3.98333
19.842,19049.5785,-2.7257,3.99231,-3.71761
19.8618,19049.5985,-2.62308,3.45719,-3.89659
19.8883,19049.6186,-2.53634,3.55676,-4.5661
19.9049,19049.6386,-2.02016,4.89944,-4.58565
19.9231,19049.6586,-1.4832,5.95685,-3.44027
19.9469,19049.6786,-1.53024,6.08636,-1.84225
19.9655,19049.6987,-1.79841,6.14622,0.08136
19.9857,19049.7187,-1.97251,5.60499,2.00376
20.0054,19049.7387,-1.8088,3.3454,3.30246
20.0252,19049.7588,-1.13135,0.63622,4.22486
20.0434,19049.7788,-0.61455,-1.22753,4.86261
20.0691,19049.7988,-0.73551,-1.93064,5.90169
20.091,19049.8188,-1.70617,-2.44927,6.80272
20.1116,19049.8389,-2.77885,-2.49141,6.96459
20.1292,19049.8589,-3.46852,-2.0748,7.02751
20.1442,19049.8789,-3.31519,-2.81639,7.28469
20.1618,19049.899,-2.59559,-2.54761,7.2065
20.1836,19049.919,-2.45326,-2.18537,7.15091
20.2006,19049.939,-2.3714,-1.65209,6.89068
20.221,19049.959,-1.9438,-1.60933,5.79173
20.2457,19049.9791,-1.6011,-1.28618,4.46493
20.262,19049.9991,-1.68662,-1.04183,3.22488
20.2834,19050.0191,-1.90165,-0.72724,1.79912
20.3048,19050.0392,-1.61332,-0.8885,0.54196
20.3231,19050.0592,-1.31644,-0.82558,-1.01147
20.3437,19050.0792,-1.47954,-0.48594,-2.74083
20.366,19050.0992,-1.3873,-0.42486,-4.46408
20.3848,19050.1193,-1.02078,-0.24038,-6.52942
20.41,19050.1393,-0.53697,0.50793,-8.22824
20.4328,19050.1593,0.17285,1.44011,-8.77618
20.4434,19050.1794,0.69636,1.71012,-8.65523
20.4675,19050.1994,1.2773,0.93065,-8.55749
20.4844,19050.2193,1.62732,0.87812,-8.24901
20.5035,19050.2393,1.98284,1.5519,-8.36568
20.5212,19050.2593,2.06104,0.83658,-8.13172
20.545,19050.2793,1.73667,0.14325,-7.21909
20.5609,19050.2993,1.12824,0.00886,-6.17206
20.5909,19050.3193,0.29258,-0.75167,-5.37183
20.6078,19050.3393,-0.36532,-1.30756,-4.76463
20.6259,19050.3593,-0.82103,0.21594,-3.85505
20.6443,19050.3793,-1.32438,1.65819,-3.20814
20.6672,19050.3993,-1.55712,0.4444,-2.75916
20.686,19050.4193,-1.10936,-1.91903,-2.29551
20.707,19050.4393,-0.60173,-1.87688,-1.9913
20.7255,19050.4593,-0.30057,0.18845,-2.04017
20.7439,19050.4793,0.03602,0.90133,-1.93693
20.7618,19050.4993,-0.18634,-1.24708,-1.50994
20.784,19050.5193,0.20462,-1.91048,-0.77262
20.8012,19050.5393,0.32312,-0.20372,-0.91801
20.8228,19050.5593,-0.22116,0.60873,-1.91006
20.8438,19050.5793,-0.73245,-0.24771,-1.09822
20.8681,19050.5992,-0.25842,-0.99418,-0.7207
20.8817,19050.6192,-0.02507,-0.03696,-0.50751
20.9063,19050.6392,-0.4936,0.77244,-0.33463
20.9247,19050.6593,-0.60356,0.4102,-0.53866
20.9526,19050.6793,-0.13991,0.13042,-0.86059
20.9646,19050.6993,0.0348,-0.13653,-0.48796
20.9845,19050.7193,-0.1503,0.12859,-0.02126
21.0046,19050.7394,-0.16374,0.29291,0.26035
21.0281,19050.7594,0.14964,-0.00641,0.19804
21.0642,19050.7794,0.45324,-0.44379,-0.04264
21.0669,19050.7995,0.28281,-0.09316,-0.13366
21.0856,19050.8195,-0.2969,0.59101,-0.01271
21.1008,19050.8395,-0.34638,0.4835,0.20415
21.1221,19050.8595,0.05923,-0.60079,-0.11106
21.1428,19050.8796,0.5296,-1.24342,-0.68099
21.1622,19050.8996,0.04579,-0.57208,-0.82577
21.1822,19050.9196,-0.92365,-1.15545,-1.0353
21.2058,19050.9397,-0.62555,-2.67528,-1.82026
21.2235,19050.9597,0.69697,-2.23546,-2.91188
21.2428,19050.9797,2.34081,-2.26723,-2.94059
21.265,19050.9997,3.75802,-2.55922,-3.19043
21.2838,19051.0198,4.52588,-3.37534,-4.39017
21.3029,19051.0398,5.72378,-4.11937,-5.53798
21.3268,19051.0598,6.15811,-3.66733,-5.98636
21.3444,19051.0799,5.52892,-3.82249,-5.89229
21.3642,19051.0999,5.08604,-3.79134,-5.55265
21.3897,19051.1199,5.91682,-3.94161,-5.2521
21.4074,19051.1399,6.65474,-4.76139,-5.46773
21.4314,19051.16,6.33648,-4.22016,-5.74995
21.4472,19051.18,5.32244,-3.46025,-5.50744
21.4668,19051.2,4.77511,-3.17558,-4.87275
21.4838,19051.2201,5.2357,-3.24583,-4.32053
21.5041,19051.2401,6.39635,-3.17497,-3.6443
21.522,19051.2601,7.78118,-3.19147,-2.9021
21.5448,19051.2801,7.36457,-3.88541,-3.42317
21.5668,19051.3001,5.95775,-3.79561,-4.33153
21.5878,19051.3202,4.54237,-2.73759,-4.56121
21.6129,19051.3402,3.54788,-1.31794,-4.65834
21.6269,19051.3602,3.21129,1.02656,-4.69316
21.6448,19051.3803,3.42265,3.11633,-4.51479
21.6637,19051.4003,3.93273,4.22871,-4.11833
21.6878,19051.4203,4.45746,3.53905,-3.84528
21.7071,19051.4403,5.87406,0.99113,-3.20509
21.7272,19051.4604,6.93208,0.65271,-2.7726
21.7578,19051.4804,5.75799,2.92024,-3.17088
21.7677,19051.5004,4.35056,5.63554,-3.54779
21.7838,19051.5205,4.04757,5.67647,-3.2057
21.8057,19051.5405,4.02436,3.75835,-2.63149
21.8239,19051.5605,2.68534,2.95934,-2.35782
21.8434,19051.5805,1.72567,4.97825,-2.60033
21.8652,19051.6006,0.9456,7.13827,-2.61683
21.8848,19051.6206,0.99874,7.73936,-2.33827
21.9076,19051.6406,1.8002,7.28732,-2.60889
21.9278,19051.6607,2.76292,6.22258,-3.00961
21.9448,19051.6807,3.1215,6.34964,-2.82635
21.9679,19051.7007,2.80018,6.30505,-2.46594
21.9901,19051.7207,2.93763,6.12667,-2.92898
22.0041,19051.7408,2.90586,5.82124,-3.66874
22.0244,19051.7608,2.42206,5.52497,-4.41277
22.0467,19051.7808,1.98162,5.45411,-5.19468
22.0649,19051.8008,1.55646,5.52619,-5.69437
22.085,19051.8209,0.9963,5.36004,-5.91978
22.1051,19051.8409,0.56442,4.82125,-5.83242
22.1229,19051.8609,0.2712,4.50177,-5.70231
22.1432,19051.8809,-0.16007,4.67709,-5.8593
22.1649,19051.901,-0.75261,3.75407,-6.37976
22.1851,19051.921,-1.02383,1.98012,-6.60883
22.2065,19051.941,-1.17227,0.68203,-6.89777
22.2284,19051.961,-1.41601,0.60812,-7.43655
22.2499,19051.9811,-1.8595,1.12246,-7.5685
22.2661,19052.0011,-2.31887,0.92454,-6.98512
22.2858,19052.0211,-2.36591,0.46762,-6.49338
22.3046,19052.0412,-2.20219,0.28314,-6.43412
22.3247,19052.0612,-1.97067,-0.03696,-6.33883
22.3464,19052.0812,-1.94807,0.84574,-5.62778
22.3684,19052.1012,-2.31337,2.15727,-4.7463
22.3881,19052.1213,-2.21502,3.45841,-4.87459
22.4109,19052.1413,-2.12583,3.02836,-5.20934
22.4333,19052.1613,-2.17348,2.558,-5.62106
22.4524,19052.1814,-1.75809,2.09924,-5.81043
22.4725,19052.2014,-1.02872,2.87504,-5.28631
22.4876,19052.2214,-0.21749,1.66675,-4.98332
22.5048,19052.2414,0.05556,-1.36254,-5.82326
22.5272,19052.2615,-0.19917,-4.15724,-6.38159
22.5457,19052.2815,-0.39953,-6.58666,-6.17756
22.5641,19052.3015,-0.59501,-7.99348,-6.01446
22.5852,19052.3216,-0.11914,-7.31725,-5.70292
22.6038,19052.3416,0.99141,-7.05824,-5.2069
22.6261,19052.3616,2.27484,-6.75342,-4.93262
22.646,19052.3816,3.0934,-6.44493,-3.53007
22.6642,19052.4017,3.98221,-7.03381,-2.29796
22.6885,19052.4217,5.04878,-7.85298,-2.29307
22.7085,19052.4417,5.72256,-7.93789,-2.77504
22.7265,19052.4618,5.60894,-8.06984,-3.24235
22.7471,19052.4818,5.83863,-8.3716,-3.41645
22.7685,19052.5018,6.81051,-8.24699,-3.5765
22.7973,19052.5218,7.83005,-7.08451,-3.69012
22.8063,19052.5418,8.33829,-6.07047,-3.56489
22.8259,19052.5618,8.51605,-6.29527,-3.67423
22.844,19052.5818,8.29614,-7.10772,-3.9589
22.8683,19052.6018,7.72376,-6.64652,-4.15621
22.8903,19052.6218,6.6804,-4.23727,-4.10367
22.9088,19052.6417,5.96874,-1.30511,-4.3694
22.9274,19052.6617,5.78121,0.97036,-4.39383
22.9573,19052.6817,5.88139,1.43401,-4.50929
22.9658,19052.7017,6.11168,-0.44563,-4.43232
22.9923,19052.7217,6.41773,-1.04427,-3.98455
23.0079,19052.7417,6.38535,0.56352,-3.23747
23.0271,19052.7617,5.3536,2.42972,-2.87339
23.0481,19052.7817,4.05979,2.99599,-2.69746
23.1008,19052.8017,3.15143,3.0192,-2.53375
23.103,19052.8217,2.76292,3.54027,-2.51176
23.1046,19052.8417,2.10868,4.90128,-2.52214
23.1339,19052.8617,1.37259,6.54206,-3.12323
23.1417,19052.8817,1.00363,7.4834,-4.12872
23.1637,19052.9017,0.93643,7.3368,-4.78173
23.1841,19052.9217,0.55709,6.88598,-5.04196
23.2035,19052.9417,-0.05317,7.38017,-5.11649
23.2235,19052.9617,-0.83874,7.78945,-5.19346
23.2443,19052.9817,-1.21748,7.30686,-5.25027
23.269,19053.0017,-1.21259,6.21891,-5.68276
23.2869,19053.0217,-1.51314,5.21893,-5.97414
23.3079,19053.0416,-1.92914,4.75223,-5.91
23.3246,19053.0616,-2.38729,5.19755,-5.65344
23.3449,19053.0816,-2.66034,5.16028,-5.51233
23.3674,19053.1016,-2.37995,4.25071,-5.91733
23.3879,19053.1216,-1.90348,2.6313,-6.25881
23.4071,19053.1416,-1.78253,1.35215,-6.25636
23.4276,19053.1616,-1.84545,2.16765,-5.78661
23.4515,19053.1816,-2.03848,2.89214,-5.16902
23.4676,19053.2016,-1.95846,2.32404,-5.21606
23.4899,19053.2216,-1.57422,1.61177,-5.72308
23.5062,19053.2416,-1.55407,1.15056,-6.00041
23.5285,19053.2616,-1.94624,1.06688,-5.46896
23.5536,19053.2816,-2.17654,1.63009,-5.08533
23.5694,19053.3016,-2.18203,1.9282,-5.04502
23.5903,19053.3216,-1.9157,1.54335,-5.24294
23.6066,19053.3416,-1.74404,0.35522,-5.7298
23.6242,19053.3616,-1.76481,-0.1518,-5.81654
23.6472,19053.3816,-1.48382,-0.02474,-5.18551
23.6699,19053.4016,-0.93587,-1.2367,-5.35839
23.6912,19053.4216,-0.46917,-3.63679,-5.49278
23.714,19053.4416,0.29869,-6.92874,-4.98943
23.7266,19053.4615,2.20092,-10.41373,-4.66628
23.7454,19053.4815,4.81115,-12.03374,-4.33824
23.7644,19053.5015,5.85023,-11.86392,-3.6046
23.7875,19053.5215,4.43241,-10.49314,-2.07071
23.8107,19053.5415,2.71405,-8.77233,-1.17946
23.8256,19053.5615,3.05308,-7.4663,-0.93939
23.8478,19053.5815,4.28092,-6.60926,-0.97482
23.863,19053.6015,4.77206,-5.31483,-1.5472
23.8845,19053.6215,5.7305,-4.83836,-1.85874
23.9073,19053.6415,7.27172,-4.99902,-2.24542
23.9237,19053.6615,8.20878,-5.41746,-2.98335
23.9432,19053.6815,8.8001,-5.00085,-3.42806
23.9652,19053.7015,9.28696,-4.63311,-3.74448
23.992,19053.7215,9.6492,-4.41014,-4.12933
24.0084,19053.7415,9.5985,-3.80905,-4.31748
24.0334,19053.7615,8.95526,-1.45478,-3.71272
24.0472,19053.7815,8.64861,-0.51893,-2.97479
24.0709,19053.8015,8.07073,-1.21837,-2.4183
24.1184,19053.8215,6.19354,-0.55986,-1.41342
24.1249,19053.8415,4.48556,1.1078,-0.73842
24.1328,19053.8614,3.52161,2.17315,-1.09577
24.168,19053.8814,3.4477,1.96973,-1.95831
24.1721,19053.9014,3.5937,1.57634,-2.45556
24.189,19053.9214,3.60286,1.8781,-2.43235
24.2058,19053.9414,2.92236,2.87992,-2.5814
24.2254,19053.9614,2.11662,3.8512,-3.28695
24.2433,19053.9814,1.24858,4.33317,-3.93569
24.2649,19054.0014,0.36588,4.57141,-4.43171
24.2849,19054.0214,-0.78132,5.37836,-5.10183
24.3069,19054.0414,-1.81918,6.48708,-5.41581
24.3304,19054.0614,-2.4838,6.91225,-5.33029
24.3464,19054.0814,-2.62797,6.08697,-5.20201
24.3691,19054.1014,-2.61758,4.85424,-5.60884
24.3915,19054.1214,-2.91385,4.08211,-5.67482
24.4042,19054.1414,-2.70494,4.60623,-4.9876
24.4235,19054.1614,-2.27855,4.59096,-4.77196
24.4489,19054.1814,-1.78986,3.03631,-5.04929
24.4642,19054.2014,-1.68051,2.32404,-4.81044
24.4858,19054.2214,-1.6909,1.17256,-4.84893
24.5115,19054.2414,-1.32988,0.43952,-4.73286
24.526,19054.2614,-1.06171,0.19945,-4.52456
24.5459,19054.2814,-1.38302,0.03268,-4.4146
24.5759,19054.3013,-2.259,0.51771,-4.5832
24.6032,19054.3213,-2.97372,0.85002,-4.6058
24.6087,19054.3413,-3.29381,1.20004,-4.79395
24.6299,19054.3613,-3.29564,1.57023,-5.05051
24.6429,19054.3813,-3.38055,1.78586,-5.09572
24.6626,19054.4013,-3.78983,2.42055,-4.76891
24.6881,19054.4213,-4.28952,3.60197,-4.42132
24.7097,19054.4413,-4.86251,4.63922,-4.38345
24.7373,19054.4613,-5.1826,4.87012,-4.41888
24.7505,19054.4813,-5.23453,4.98985,-4.27533
24.7653,19054.5013,-5.51675,4.84996,-4.06885
24.7946,19054.5213,-6.02804,4.41014,-4.0322
24.8056,19054.5413,-5.99994,3.00332,-3.74815
24.8264,19054.5613,-6.19175,2.60381,-3.92958
24.8465,19054.5813,-6.55827,2.2599,-4.20874
24.8653,19054.6013,-6.07569,1.04244,-4.2008
24.8839,19054.6213,-4.52531,-0.51893,-4.13361
24.9047,19054.6413,-3.02625,-2.45537,-3.69317
24.9269,19054.6613,-2.12339,-3.04975,-3.14095
24.9435,19054.6812,-1.86194,-2.87259,-2.36515
24.9648,19054.7012,-1.5559,-1.94347,-1.44213
24.9901,19054.7212,-0.63227,-1.63804,-0.66633
25.0121,19054.7412,1.4911,-1.77487,-0.18742
25.031,19054.7612,4.07078,-0.99602,0.53829
25.0809,19054.7812,5.65292,-0.3094,1.5957
25.0834,19054.8012,6.74271,0.02107,2.87974
25.0847,19054.8212,7.53072,0.85979,3.66104
25.1058,19054.8412,7.92168,1.31428,4.06482
25.1224,19054.8612,7.95955,1.56901,4.05749
25.1431,19054.8812,7.80317,1.02106,3.63416
25.1644,19054.9012,8.38777,-0.01436,3.61339
25.1843,19054.9212,8.54598,-0.61239,4.20898
25.2033,19054.9412,7.85326,-0.1237,4.71233
25.2246,19054.9612,6.51852,0.52321,5.12833
25.2428,19054.9812,5.72501,0.10904,5.413
25.2644,19055.0012,5.52403,-0.40287,5.52662
25.2863,19055.0212,5.31023,-0.37293,5.42033
25.3056,19055.0412,4.4764,1.17072,5.83144
25.3251,19055.0612,3.10378,2.9856,6.63351
25.349,19055.0811,1.868,3.69054,7.67625
25.3709,19055.1011,0.72691,3.52378,8.40379
25.3833,19055.1211,-0.18512,3.02897,9.14783
25.4052,19055.1411,-1.00917,1.74188,9.29566
25.4247,19055.1611,-1.87233,0.22388,8.53146
25.4443,19055.1811,-2.61025,0.2642,8.01834
25.4661,19055.2011,-3.73363,0.41875,8.01284
25.4899,19055.2211,-4.0916,-0.68386,8.10386
25.5108,19055.2411,-3.56381,-2.1756,8.36531
25.5261,19055.2611,-2.6243,-3.58853,8.64936
25.5479,19055.2811,-1.87355,-4.05584,8.56567
25.5648,19055.3011,-1.66463,-4.3124,8.40501
25.5908,19055.3211,-2.20708,-3.48529,8.23825
25.6091,19055.3411,-2.94256,-3.27393,7.37632
25.6264,19055.3611,-3.1698,-3.68199,5.9866
25.6459,19055.3811,-3.5858,-3.60869,4.65736
25.6702,19055.4011,-4.08488,-2.72049,3.83635
25.6871,19055.4211,-4.57235,-1.74799,3.05445
25.7101,19055.4411,-4.79532,-1.75899,1.85043
25.7286,19055.4611,-4.39398,-2.21286,0.60427
25.7483,19055.4811,-4.10504,-2.22386,-0.12266
25.7696,19055.501,-4.42086,-2.41383,-0.57043
25.7879,19055.521,-5.12152,-2.00089,-0.8331
25.8134,19055.541,-5.91809,-1.68385,-0.88014
25.8332,19055.561,-6.37746,-0.11515,0.08014
25.8442,19055.581,-6.51246,1.30267,0.24447
25.8679,19055.601,-6.1716,0.72846,-1.09516
25.8869,19055.621,-5.69817,-0.71563,-2.08354
25.9043,19055.641,-5.76109,-2.10352,-2.35782
25.9242,19055.661,-6.10012,-0.91172,-1.78972
25.9499,19055.681,-5.70551,0.1573,-1.67426
25.9672,19055.701,-5.2217,-0.05589,-1.97603
25.9899,19055.721,-5.34143,-1.23609,-2.48916
26.0117,19055.741,-5.47826,-2.48897,-2.59728
26.0306,19055.761,-4.69574,-2.77119,-2.89477
26.0477,19055.781,-3.67743,-2.4737,-3.3126
26.0701,19055.801,-3.04274,-2.93307,-3.70356
26.1122,19055.821,-2.13622,-2.32831,-3.75059
26.1228,19055.841,-1.35187,-0.59285,-3.67973
26.1482,19055.861,-0.51437,-0.1292,-3.44883
26.1577,19055.881,0.73118,-0.67165,-2.8178
26.1669,19055.901,1.40558,-0.613,-2.08537
26.1847,19055.921,1.0525,0.0113,-1.23016
26.2036,19055.941,0.6762,0.44379,-0.33586
26.2246,19055.961,0.33107,0.08583,0.40512
26.2455,19055.9811,0.2486,-0.34911,1.09051
26.2643,19056.0011,0.21317,-0.11332,1.57249
26.2859,19056.0211,0.15941,0.71563,1.81256
26.3128,19056.0412,0.24921,2.02044,2.19923
26.327,19056.0612,0.15941,3.52622,2.91273
26.3461,19056.0812,-0.06661,4.47367,3.70196
26.3693,19056.1012,-0.24681,4.2055,4.25907
26.3941,19056.1213,-0.45573,4.0033,4.81557
26.414,19056.1413,-0.98657,4.346,5.24745
26.436,19056.1613,-1.82407,5.39791,5.16315
26.4455,19056.1814,-2.66156,7.11322,4.93835
26.4647,19056.2014,-3.2541,9.63365,4.60055
26.4863,19056.2214,-3.6756,10.73626,4.15767
26.5098,19056.2414,-3.92117,10.02216,3.91271
26.5278,19056.2615,-4.32984,9.55363,3.33483
26.5476,19056.2815,-4.84785,10.34531,2.04835
26.575,19056.3015,-4.82952,11.94578,1.14305
26.5936,19056.3216,-4.59068,14.52485,0.47537
26.6116,19056.3416,-4.51982,14.81379,-0.14954
26.6246,19056.3616,-3.65055,13.5493,-0.77446
26.6463,19056.3816,-2.10995,11.35018,-0.92045
26.6685,19056.4017,-0.80453,9.34654,-0.62235
26.6852,19056.4217,-0.29507,8.45773,-0.20208
26.704,19056.4417,-0.20772,7.61291,0.33243
26.7259,19056.4618,0.27059,6.31482,0.44788
26.7442,19056.4818,1.1875,5.6276,0.22003
26.7648,19056.5018,1.13191,5.89699,0.0832
26.7912,19056.5218,0.78127,6.01916,0.17605
26.8119,19056.5418,0.93155,5.60499,0.28234
26.8427,19056.5618,1.18261,4.00208,0.35503
26.8554,19056.5818,1.12275,1.17133,0.55051
26.8723,19056.6018,1.0922,-1.91231,0.32877
26.8906,19056.6218,0.65788,-4.60745,-0.79278
26.9113,19056.6418,-0.21688,-6.26351,-1.92227
26.9298,19056.6618,-0.94076,-7.67033,-2.67486
26.9453,19056.6818,-0.82897,-8.91405,-2.92776
26.9728,19056.7018,-0.45634,-9.3215,-2.23748
26.9867,19056.7218,-0.74467,-8.99957,-1.42014
27.0044,19056.7417,-1.75809,-8.13459,-0.63335
27.0519,19056.7617,-2.23029,-7.55365,-0.83738
27.0542,19056.7817,-0.39831,-5.55002,-1.28881
27.0662,19056.8017,1.11542,-2.35275,-0.82088
27.0829,19056.8217,0.86985,-0.67776,0.27867
27.102,19056.8417,0.19057,-0.23243,0.6849
27.122,19056.8617,-0.00125,-0.65027,0.49003
27.1446,19056.8817,-0.12342,-0.53237,-0.02493
27.1658,19056.9017,-0.21871,-0.2868,-0.12389
27.1837,19056.9217,-0.19611,-0.04184,-0.08235
27.2048,19056.9417,0.05984,-0.3821,0.10152
27.223,19056.9617,0.42514,-0.41386,0.17299
27.2456,19056.9817,0.26143,0.4328,0.04288
27.2668,19057.0017,-0.37876,1.44989,-0.05486
27.288,19057.0217,-0.62311,1.48287,0.0044
27.3113,19057.0417,-0.12525,0.66737,0.23286
27.33,19057.0617,0.39948,0.05162,0.23652
27.346,19057.0817,0.3836,-0.11576,0.30005
27.3683,19057.1017,0.25287,0.1463,0.28112
27.3908,19057.1217,-0.0214,0.67653,0.19132
27.4082,19057.1416,-0.61394,1.49265,0.03677
27.4277,19057.1616,-1.47771,2.72843,0.09603
27.4499,19057.1816,-2.32803,3.1878,0.18032
27.4654,19057.2016,-2.73914,2.80173,0.21637
27.4853,19057.2216,-2.52229,2.21836,-0.10006
27.5092,19057.2417,-2.19425,1.30817,-0.47941
27.5292,19057.2617,-2.49724,0.85613,-0.32914
27.5513,19057.2817,-3.18996,0.60628,-0.27782
27.5747,19057.3017,-3.7935,-0.04123,-0.48613
27.5874,19057.3218,-4.3445,-0.18662,-0.35052
27.607,19057.3418,-4.91016,-0.06628,-0.04997
27.6297,19057.3618,-4.83502,0.21716,0.16261
27.6475,19057.3819,-4.31823,1.5183,0.59877
27.6681,19057.4019,-3.18141,1.23547,1.10334
27.6905,19057.4219,-1.20954,-0.10171,1.12533
27.7093,19057.4419,-0.12342,-1.38086,0.18704
27.7258,19057.462,-0.09104,-1.65819,-0.75186
27.748,19057.482,-0.14602,-1.17072,-1.06217
27.7688,19057.502,-0.29202,-1.20738,-0.74208
27.7893,19057.5221,-0.13075,-1.4334,-0.60036
27.811,19057.5421,0.12459,-1.40835,-0.87647
27.8296,19057.5621,1.62793,0.92943,-1.63639
27.8535,19057.5821,3.61752,-0.59834,-1.79216
27.8731,19057.6022,2.04027,-2.90497,0.21637
27.9001,19057.6222,0.26815,-2.4456,0.98178
27.9113,19057.6422,-0.81797,-0.84941,0.46743
27.9308,19057.6623,-1.63287,-0.02535,0.33671
27.9545,19057.6823,-1.26451,0.62155,0.286
27.9761,19057.7023,-0.95175,1.41934,0.31594
27.988,19057.7223,-1.21748,1.93369,0.39352
28.0051,19057.7424,-1.69212,2.00272,0.61404
28.027,19057.7624,-1.90776,1.24464,0.67207
28.0488,19057.7824,-1.719,0.57024,0.60182
28.0652,19057.8025,-1.14051,1.18661,0.11191
28.0914,19057.8225,-0.93465,-0.66737,-0.20024
28.1134,19057.8425,-0.20894,-0.38943,-0.13183
28.1406,19057.8625,0.33168,-0.26787,-0.09395
28.1572,19057.8825,0.65055,-0.29963,-0.09518
28.1732,19057.9025,0.98041,-0.16219,0.05143
28.185,19057.9225,1.09281,0.18845,0.72949
28.2057,19057.9425,0.52288,-0.27031,0.98545
28.2275,19057.9624,0.80998,-0.98808,0.39596
28.2449,19057.9824,1.87106,-0.79565,0.13818
28.2642,19058.0024,2.43366,-0.70402,0.04166
28.2863,19058.0224,2.10746,-0.66798,0.1846
28.3092,19058.0424,1.82891,-0.69303,-0.25522
28.3296,19058.0624,1.29012,-0.69181,-1.40121
28.3507,19058.0824,0.66276,-0.71319,-2.06277
28.37,19058.1024,0.10688,-0.4835,-1.8899
28.3905,19058.1224,-0.15457,-0.01558,-1.10738
28.4117,19058.1424,-0.30057,1.19149,0.36481
28.4362,19058.1624,-0.87112,1.4676,1.45459
28.4496,19058.1824,-0.72695,1.98317,1.55111
28.4732,19058.2024,-0.51682,2.04731,1.22552
28.4868,19058.2224,-0.23887,1.45661,0.9152
28.5055,19058.2424,0.07878,0.8097,0.69406
28.526,19058.2624,0.47706,0.92577,1.15832
28.5453,19058.2824,0.5919,0.68081,1.46742
28.5665,19058.3024,0.63283,0.07666,0.81257
28.5854,19058.3224,0.63039,0.02779,-0.02981
28.6058,19058.3424,0.7379,0.33323,-0.42504
28.6267,19058.3623,0.97736,0.36438,-0.41893
28.6476,19058.3823,0.96148,-0.84635,-0.35296
28.685,19058.4023,0.86374,-1.56901,-0.44398
28.6919,19058.4223,0.64749,-1.00518,-0.4562
28.7143,19058.4423,0.25165,0.68142,0.01173
28.7267,19058.4623,-0.1619,1.861,0.31655
28.7527,19058.4823,-0.6787,0.91721,0.07159
28.7692,19058.5023,-0.93343,0.66737,-0.00477
28.7915,19058.5223,-0.4429,2.13894,0.21881
28.805,19058.5423,-0.16984,1.93919,0.25119
28.8263,19058.5623,-0.01774,0.78588,0.03616
28.8455,19058.5823,0.05373,0.14752,-0.58509
28.8686,19058.6023,0.02563,-0.40897,-1.16602
28.8873,19058.6223,-0.05867,-0.15241,-1.31691
28.9069,19058.6423,0.0855,-0.28619,-0.80989
28.9258,19058.6623,0.67743,-0.13286,0.64031
28.9473,19058.6823,0.96514,0.9673,1.21269
28.9682,19058.7023,0.69209,0.78038,0.7918
28.9921,19058.7223,0.64627,-0.15302,0.33732
29.0114,19058.7423,0.89428,-1.78037,-0.18681
29.0255,19058.7624,1.56379,-2.3442,-0.46231
29.071,19058.7824,2.46421,-1.51892,-0.17214
29.0736,19058.8024,2.88998,0.63438,-0.12266
29.0855,19058.8224,1.96879,0.62278,-0.83249
29.1046,19058.8425,1.38542,-0.46945,-0.82455
29.1264,19058.8625,1.29868,-1.21898,-0.535
29.1435,19058.8825,1.38298,-2.4285,-0.09579
29.1633,19058.9025,1.50515,-3.10717,0.1113
29.1867,19058.9226,1.59006,-2.65757,0.08931
29.2062,19058.9426,1.19788,-1.43645,-0.14404
29.226,19058.9626,0.40681,-0.49572,-0.38778
29.2534,19058.9827,-0.23521,-0.28191,-0.39572
29.2757,19059.0027,-0.23521,-0.35583,-0.25034
29.2886,19059.0227,0.20156,-0.343,0.04777
29.3069,19059.0427,0.62489,-0.55864,0.38313
29.3252,19059.0628,0.80998,-0.89156,0.50531
29.3458,19059.0828,0.58152,-0.92516,0.37641
29.3676,19059.1028,0.19118,-0.5849,0.07953
29.3873,19059.1229,0.14292,-0.073,0.02272
29.4125,19059.1429,0.36039,0.26237,0.22981
29.4313,19059.1629,0.67315,0.43402,0.53585
29.4491,19059.1829,0.77944,0.61361,0.69956
29.4722,19059.203,0.55464,0.96547,0.58411
29.4932,19059.223,0.33656,0.82864,0.35625
29.5103,19059.243,0.46912,0.43585,0.05449
29.5321,19059.2631,0.71102,0.13225,-0.17825
29.5532,19059.2831,0.47218,-0.01802,-0.23445
29.5659,19059.3031,0.25471,-0.01375,-0.23323
29.5857,19059.3231,0.39765,-0.15485,-0.20757
29.6069,19059.3431,0.54365,-0.13897,-0.08479
29.6297,19059.3631,0.53387,-0.0394,0.01967
29.6488,19059.3831,0.50027,0.073,0.08503
29.6683,19059.4031,0.34817,0.10904,-0.03592
29.6884,19059.4231,0.2822,0.11942,-0.16787
29.7071,19059.4431,0.23149,0.08949,-0.25217
29.7294,19059.4631,0.27181,0.06078,-0.12938
29.7472,19059.4831,0.26815,-0.06933,-0.01943
29.7709,19059.5031,0.28769,-0.03513,0.14978
29.7897,19059.5231,0.45996,-0.26115,0.37886
29.8068,19059.5431,0.68537,-0.38149,0.50714
29.8282,19059.5631,0.85763,-0.49266,0.55967
29.8482,19059.5831,0.92544,-0.36866,0.48637
29.867,19059.603,0.88573,-0.25137,0.41917
29.8877,19059.623,0.62611,0.01558,0.26157
29.9124,19059.643,0.37016,0.21655,0.26218
29.9306,19059.663,-0.0324,0.29108,0.11557
29.9494,19059.683,-0.0605,0.56963,0.04044
29.9716,19059.703,0.14536,0.54886,0.12168
29.9992,19059.723,0.22355,0.43646,0.17299
30.0133,19059.743,0.14842,0.30207,0.07403
30.0305,19059.763,-0.01407,0.03207,0.0441
30.0507,19059.783,-0.1167,-0.37049,0.08747
30.0666,19059.803,-0.19672,-0.38943,-0.07013
30.094,19059.823,-0.20894,-0.03818,-0.07318
30.1113,19059.843,-0.20711,0.25992,0.04166
30.1365,19059.863,-0.56202,0.65576,-0.15504
30.1526,19059.883,-0.53148,0.88056,-0.27966
30.1657,19059.903,-0.22421,0.60873,-0.16726
30.1865,19059.923,-0.00125,0.15119,-0.01026
30.2063,19059.943,0.13864,-0.23854,0.1565
30.226,19059.963,0.27914,-0.47067,0.23469
30.2446,19059.983,0.47706,-0.41997,0.15589
30.2673,19060.003,0.63161,-0.13409,0.14123
30.2886,19060.023,0.69025,0.01985,0.27684
30.3122,19060.0431,0.76173,0.06506,0.44605
30.3301,19060.0631,0.51127,0.02413,0.42284
30.347,19060.0831,0.17896,-0.10415,0.24874
30.3674,19060.1032,0.11482,-0.32101,0.11924
30.3924,19060.1232,0.1588,-0.36683,0.08503
30.4077,19060.1432,0.08794,-0.197,0.12168
30.4273,19060.1632,-0.28163,0.14019,0.04044
30.4505,19060.1833,-0.31645,0.3485,-0.03103
30.4806,19060.2033,-0.10631,0.33262,-0.04325
30.4937,19060.2233,0.05007,0.09193,-0.04325
30.5133,19060.2434,0.30358,-0.32956,-0.06158
30.5287,19060.2634,0.42697,-0.59651,-0.0292
30.5466,19060.2834,0.04396,-0.35094,-0.19352
30.5703,19060.3034,-0.14113,0.06383,-0.17153
30.5888,19060.3235,-0.19245,0.1573,-0.119
30.6077,19060.3435,-0.22177,0.15791,-0.02309
30.638,19060.3635,-0.24193,0.09071,0.03188
30.649,19060.3836,-0.2126,-0.05101,0.08808
30.6675,19060.4036,-0.10387,-0.20189,0.11924
30.6884,19060.4236,0.03541,-0.21838,0.02944
30.7094,19060.4436,-0.07211,-0.0785,-0.14832
30.7301,19060.4637,-0.35249,0.18418,-0.20024
30.7545,19060.4837,-0.53025,0.38515,-0.14221
30.7842,19060.5037,-0.39403,0.31001,-0.14527
30.7895,19060.5238,-0.2462,0.11759,-0.20574
30.814,19060.5438,-0.21688,0.17501,-0.27233
30.8284,19060.5638,-0.16984,0.2361,-0.28821
30.8471,19060.5838,-0.13258,0.2361,-0.2033
30.8682,19060.6038,-0.055,0.17379,-0.08113
30.8878,19060.6238,0.03418,0.1237,-0.00965
30.9107,19060.6438,0.23699,0.08338,0.09053
30.9325,19060.6638,0.41964,-0.0168,0.22736
30.9547,19060.6838,0.45263,-0.11637,0.30372
30.9661,19060.7038,0.2822,-0.09071,0.21392
30.9909,19060.7238,-0.04645,0.11881,0.07648
31.0096,19060.7438,0.01158,0.22449,-0.07196
31.0488,19060.7638,0.25165,0.30513,-0.11656
31.0505,19060.7838,0.31396,0.3821,-0.0799
31.0674,19060.8038,0.14475,0.40714,-0.11839
31.0877,19060.8237,0.15453,0.40775,-0.15443
31.1145,19060.8437,0.17163,0.33995,-0.12511
31.1256,19060.8637,0.1026,0.30635,-0.08418
31.1452,19060.8837,0.13192,0.26542,-0.06341
31.1667,19060.9037,0.2657,0.18601,-0.00843
31.1863,19060.9237,0.32923,0.14141,0.05998
31.2047,19060.9437,0.35122,0.09438,0.15345
31.2272,19060.9637,0.1588,0.1408,0.13084
31.2526,19060.9837,0.04885,0.26664,0.14551
31.2667,19061.0037,0.11299,0.06994,0.18338
31.2885,19061.0237,0.22233,0.00641,0.16383
31.309,19061.0437,0.29258,-0.10965,0.21576
31.3282,19061.0637,0.40559,-0.32223,0.28784
31.3476,19061.0837,0.20278,-0.23732,0.17422
31.3679,19061.1037,-0.05561,0.05589,0.10458
31.3852,19061.1237,-0.05134,0.13408,0.06121
31.4076,19061.1437,-0.40136,0.38759,-0.10923
31.426,19061.1637,-0.54186,0.63377,-0.20757
31.4531,19061.1837,-0.35127,0.46517,-0.18253
31.4721,19061.2037,-0.21383,0.2697,-0.09212
31.4921,19061.2237,-0.12036,0.10782,-0.02431
31.5145,19061.2436,-0.00125,0.04001,-0.0237
31.5319,19061.2636,0.04152,0.04734,-0.03653
31.5477,19061.2836,0.06534,0.03879,-0.02615
31.5667,19061.3036,0.13437,-0.02657,0.01783
31.5941,19061.3236,0.07878,0.01069,0.05449
31.6129,19061.3436,0.11115,-0.01863,0.11863
31.6279,19061.3636,0.14292,-0.05895,0.12107
31.6533,19061.3836,0.19851,-0.02352,0.11557
31.666,19061.4036,0.31335,-0.19517,0.18827
31.6863,19061.4236,0.32618,-0.31918,0.20659
31.7127,19061.4436,0.0855,-0.02779,0.12168
31.7305,19061.4636,-0.03118,0.11698,0.08747
31.7475,19061.4836,-0.06844,0.13347,0.03188
31.7758,19061.5036,-0.05134,0.07239,0.01967
31.7902,19061.5236,-0.08127,-0.00519,0.02089
31.8084,19061.5436,-0.12647,0.07178,0.01906
31.8312,19061.5636,-0.26514,0.24587,-0.04936
31.8525,19061.5836,-0.27247,0.3711,-0.06341
31.8713,19061.6036,-0.10754,0.26359,-0.04386
31.8887,19061.6236,0.01891,0.12981,-0.03714
31.9073,19061.6435,-0.00674,0.05223,-0.0292
31.9269,19061.6635,-0.0043,-0.02657,-0.03226
31.9491,19061.6835,-0.02812,-0.01375,-0.03226
31.967,19061.7035,-0.02629,0.04551,-0.05852
31.9883,19061.7235,0.05007,0.05223,-0.06463
32.013,19061.7435,0.14964,-0.06628,-0.02554
32.0293,19061.7635,0.1588,-0.14386,0.01722
32.052,19061.7835,0.10932,-0.11454,-0.01515
32.0715,19061.8035,0.05373,0.04917,-0.03165
32.1104,19061.8236,-0.00369,0.05712,-0.04692
32.1207,19061.8436,-0.03057,0.05956,-0.0402
32.1322,19061.8636,-0.00674,-0.05101,-0.05791
32.1497,19061.8837,-0.03423,0.02169,-0.07624
32.1666,19061.9037,-0.02568,0.073,-0.02615
32.1884,19061.9237,-0.00797,-0.00886,0.00012
32.2076,19061.9437,-0.11487,-0.00825,-0.02065
32.226,19061.9638,-0.05134,-0.02169,-0.0011
32.2479,19061.9838,0.07145,-0.02413,0.04105
32.2662,19062.0038,0.1533,-0.08155,0.09664
32.2865,19062.0239,0.29014,-0.20861,0.16628
32.3091,19062.0439,0.226,-0.16585,0.15406
32.326,19062.0639,0.04701,0.073,0.16811
32.348,19062.0839,0.02624,0.1347,0.14795
32.3818,19062.104,-0.0605,0.12614,0.01845
32.3876,19062.124,-0.10387,0.10721,-0.09334
32.4076,19062.144,-0.14541,0.06689,-0.15199
32.4311,19062.1641,-0.20161,0.09804,-0.15321
32.447,19062.1841,-0.19611,0.062,-0.14649
32.4663,19062.2041,-0.22299,0.00764,-0.19169
32.4883,19062.2241,-0.21505,0.01924,-0.25889
32.5072,19062.2442,-0.20039,0.05223,-0.28149
32.5274,19062.2642,-0.17168,0.08644,-0.23751
32.5495,19062.2842,-0.13014,0.11393,-0.15809
32.574,19062.3043,-0.05256,0.08338,-0.07685
32.5903,19062.3243,0.04457,-0.0113,-0.08296
32.6113,19062.3443,0.0293,-0.00214,-0.11533
32.6355,19062.3643,-0.04645,0.07666,-0.08662
32.6539,19062.3844,-0.03973,0.15241,-0.02065
32.6742,19062.4044,0.03663,0.13225,0.04105
32.6885,19062.4244,0.15086,-0.03879,0.10275
32.7085,19062.4444,0.20095,-0.24465,0.12779
32.7304,19062.4643,0.0971,-0.21655,0.1229
32.75,19062.4843,0.06534,-0.03146,0.14123
32.7667,19062.5043,0.069,0.05528,0.08686
32.7968,19062.5243,0.04457,0.11393,0.02272
32.8123,19062.5443,0.069,-0.02841,0.03433
32.8337,19062.5643,-0.01102,-0.14019,-0.02065
32.8507,19062.5843,-0.11975,0.0394,-0.02493
32.8669,19062.6043,-0.0715,-0.0058,-0.00538
32.887,19062.6243,0.03541,-0.04551,0.0105
32.9126,19062.6443,0.07328,-0.08155,0.01722
32.9263,19062.6643,0.10138,-0.08949,-0.02431
32.9471,19062.6843,0.0293,-0.06994,-0.07135
32.9725,19062.7043,-0.01102,-0.02779,-0.06646
33.01,19062.7243,-0.04401,0.01435,-0.03287
33.0145,19062.7443,-0.01713,0.00092,-0.01149
33.0338,19062.7643,0.07756,-0.06323,0.01539
33.0758,19062.7843,0.11787,-0.07117,0.06976
33.0842,19062.8043,-0.00186,-0.07972,0.01967
33.0944,19062.8243,-0.06966,0.0003,-0.03103
33.1058,19062.8443,-0.03179,0.00397,-0.04386
33.1245,19062.8642,-2e-05,0.0956,-0.01271
33.1476,19062.8842,0.02747,-0.0113,0.04471
33.1672,19062.9042,0.06534,-0.10599,0.04166
33.1856,19062.9242,0.02869,-0.0504,0.0551
33.2073,19062.9442,0.0519,-0.09377,0.08564
33.2259,19062.9642,0.05556,-0.05345,0.05204
33.2452,19062.9842,0.0348,0.01985,0.02944
33.267,19063.0042,0.07206,0.01924,0.01295
33.2873,19063.0242,-0.04095,0.06933,-0.02065
33.3108,19063.0442,-0.03973,0.12492,-0.01698
33.3286,19063.0642,-0.03362,0.03757,-0.02065
33.3469,19063.0842,-0.05745,0.01863,-0.01698
33.3688,19063.1042,0.0067,-0.00153,-0.00232
33.3871,19063.1242,0.04762,-0.05162,0.00073
33.4098,19063.1442,0.01403,-0.08277,-0.03409
33.4272,19063.1642,-0.01285,0.00336,-0.06646
33.4476,19063.1842,0.0012,0.08888,-0.05547
33.4657,19063.2042,-0.01285,0.11087,0.01356
33.4859,19063.2242,0.00303,0.00214,0.0606
33.5133,19063.2442,0.0464,-0.09927,0.06793
33.5307,19063.2641,0.07817,-0.09132,0.05388
33.5505,19063.2841,-0.00491,0.04612,-0.00049
33.5724,19063.3041,-0.06172,0.16768,-0.00232
33.5934,19063.3241,-0.07027,0.08705,0.01234
33.6139,19063.3441,-0.0941,0.062,0.02944
33.6418,19063.3641,0.00853,-0.00825,0.05204
33.6482,19063.3841,0.13253,-0.05101,0.0948
33.6699,19063.4041,0.19667,-0.13103,0.15589
33.6875,19063.4241,0.16369,-0.10782,0.11863
33.7063,19063.4441,0.03602,0.06445,0.06793
33.7325,19063.4641,0.00975,0.05345,0.02822
33.7488,19063.4841,-0.10693,0.16157,-0.02126
33.7681,19063.5041,-0.09654,0.14875,-0.01821
33.7885,19063.5241,0.03418,0.03512,-0.00171
33.8115,19063.5441,0.07328,-0.02535,0.05632
33.831,19063.5641,0.10688,-0.11148,0.09236
33.8484,19063.5841,0.04152,-0.07178,0.05632
33.8719,19063.6041,0.01036,-0.07239,0.05204
33.8905,19063.6241,-0.11914,0.05284,-0.07196
33.9098,19063.6441,-0.15396,0.23976,-0.08784
33.9397,19063.6641,-0.08493,0.1347,-0.05852
33.9508,19063.684,-0.06172,0.12675,0.01417
33.9696,19063.704,0.07572,0.02352,0.04532
33.9883,19063.724,0.17224,-0.01252,0.07159
34.0078,19063.744,0.13192,-0.12309,0.06426
34.0307,19063.764,0.01708,-0.05406,0.02944
34.0542,19063.784,-0.03423,-0.02046,0.01112
34.0831,19063.804,0.00608,0.00702,-0.01088
34.0997,19063.824,-0.00247,-0.03818,-0.02126
34.1113,19063.844,-0.00125,-0.0504,-0.02859
34.1462,19063.864,0.00608,-0.00703,-0.00477
34.1498,19063.884,-0.00674,0.03329,0.0044
34.167,19063.904,0.02869,0.11148,0.00073
34.1891,19063.924,0.10382,0.11148,0.01722
34.2084,19063.9441,0.13742,0.02046,0.07342
34.228,19063.9641,0.17957,-0.08705,0.14123
34.2494,19063.9841,0.16124,-0.09132,0.1565
34.2674,19064.0041,0.04274,-0.02718,0.07281
34.2881,19064.0242,-0.0098,0.08155,0.01845
34.3082,19064.0442,-0.03484,0.06078,0.02761
34.3321,19064.0642,-0.07272,0.03757,0.00501
34.3533,19064.0843,-0.0269,-0.02718,0.01417
34.3853,19064.1043,0.0464,-0.07178,0.02211
34.3946,19064.1243,0.02319,0.02474,0.00684
34.4131,19064.1443,0.01097,0.04123,-0.00904
34.4286,19064.1644,0.05129,0.05162,-0.00171
34.4582,19064.1844,0.05801,-0.00031,0.03005
34.4722,19064.2045,0.07328,-0.06078,0.027
34.491,19064.2246,0.05801,-0.03635,0.01356
34.5108,19064.2446,0.05801,0.01924,0.04227
34.5301,19064.2647,0.05312,-0.04123,0.01722
34.5501,19064.2847,0.07389,-0.04795,0.02089
34.5712,19064.3048,-0.02385,-0.06933,0.00317
34.5928,19064.3249,-0.08738,0.05834,-0.03103
34.6196,19064.3449,-0.02935,0.05284,-0.03103
34.6319,19064.365,-0.02201,0.06933,-0.01698
34.6559,19064.385,0.02136,-0.04184,0.02578
34.668,19064.4051,0.05923,-0.08338,-0.00049
34.6887,19064.4252,0.03602,0.01069,-0.00599
34.7131,19064.4452,0.0745,0.01924,-0.01393
34.7283,19064.4653,0.10504,-0.00092,-0.01698
34.7474,19064.4854,0.07695,-0.00641,-0.06158
34.7725,19064.5054,-0.03912,0.01313,-0.09273
34.7914,19064.5254,-0.09715,0.04123,-0.10312
34.8159,19064.5455,-0.16251,0.09621,-0.0909
34.8309,19064.5655,-0.11364,-0.00641,-0.09029
34.8491,19064.5855,-0.00919,-0.11576,-0.06646
34.8703,19064.6056,0.03846,-0.15058,0.01112
34.9014,19064.6256,-0.02263,-0.11332,0.01356
34.9194,19064.6456,-0.07577,0.00458,-0.03531
34.9308,19064.6656,-0.15152,0.09438,-0.10434
34.95,19064.6857,-0.18328,0.10476,-0.14649
34.9745,19064.7057,-0.15335,0.01374,-0.15932
34.9942,19064.7257,-0.27491,-0.0504,-0.20513
35.0178,19064.7458,-0.36654,-0.11271,-0.29432
35.0303,19064.7658,-0.45451,-0.21594,-0.3047
35.0715,19064.7858,-0.47344,-0.23366,-0.34319
35.0732,19064.8058,-0.53697,-0.38393,-0.37984
35.0933,19064.8258,-0.46367,-0.3314,-0.36151
35.116,19064.8458,-0.19733,-0.3259,-0.32853
35.1265,19064.8658,0.03724,-0.42791,-0.22834
35.1468,19064.8858,0.09649,-0.57269,-0.13061
35.1668,19064.9057,0.01403,-0.67837,-0.17642
35.1887,19064.9257,-0.04034,-0.52137,-0.26622
35.208,19064.9457,-0.02996,-0.22999,-0.2821
35.2298,19064.9657,-0.08371,-0.21167,-0.28638
35.2491,19064.9857,-0.16068,-0.21105,-0.29248
35.2672,19065.0057,-0.19,-0.18967,-0.30837
35.2877,19065.0257,-0.1503,-0.24282,-0.31875
35.3101,19065.0457,-0.13136,-0.26664,-0.27172
35.3285,19065.0657,-0.01957,-0.21533,-0.21002
35.3521,19065.0857,-0.00186,-0.15485,-0.15137
35.3745,19065.1057,-0.12647,-0.1854,-0.12205
35.3978,19065.1257,-0.19245,-0.26664,-0.13427
35.4146,19065.1457,-0.1674,-0.34117,-0.22285
35.43,19065.1657,-0.09776,-0.27642,-0.30409
35.4527,19065.1857,-0.17717,-0.13775,-0.27049
35.4696,19065.2057,-0.19794,-0.05651,-0.18314
35.4932,19065.2257,-0.14174,-0.12492,-0.10434
35.5106,19065.2457,-0.10631,-0.20128,-0.10861
35.5294,19065.2657,-0.08677,-0.15852,-0.14588
35.5505,19065.2857,-0.08738,-0.15363,-0.14893
35.5693,19065.3057,-0.06661,-0.18723,-0.09884
35.5887,19065.3256,-0.02324,-0.12492,-0.06036
35.6304,19065.3456,-0.06966,0.08155,-0.0347
35.6355,19065.3656,-0.10937,0.06445,-0.03714
35.6514,19065.3856,-0.13319,-0.05712,-0.05058
35.6712,19065.4056,-0.11426,-0.15669,-0.06646
35.6916,19065.4256,-0.02996,-0.22633,-0.10617
35.7154,19065.4456,-0.0098,-0.13958,-0.14343
35.7332,19065.4656,-0.13258,-0.11087,-0.15626
35.7526,19065.4856,-0.2181,0.10721,-0.11533
35.7695,19065.5056,-0.26697,0.17379,-0.07379
35.794,19065.5256,-0.12586,0.01802,-0.09701
35.8116,19065.5456,0.06412,-0.25565,-0.13794
35.8288,19065.5656,0.05923,-0.22694,-0.10556
35.8536,19065.5856,-0.08738,-0.04551,-0.05608
35.8733,19065.6056,-0.10143,0.02413,0.01783
35.8913,19065.6256,0.05862,-0.01924,0.06365
35.9174,19065.6456,0.16369,-0.15913,0.08075
35.9324,19065.6656,0.19118,-0.28191,0.04166
35.953,19065.6856,0.14719,-0.23854,-0.01576
35.9744,19065.7056,0.02258,-0.05101,-0.0237
35.9968,19065.7255,-0.08677,0.0223,-0.04142
36.0123,19065.7455,-0.09715,0.06445,-0.06219
36.0296,19065.7655,-0.05011,-0.05406,-0.08051
36.0493,19065.7855,-0.03606,-0.09682,-0.08418
36.0678,19065.8055,-0.08738,-0.08827,-0.06158
36.0906,19065.8255,-0.06111,-0.05467,-0.04081
36.1071,19065.8455,-0.09654,0.09804,-0.00904
36.1316,19065.8655,-0.08677,0.14569,0.00989
36.1481,19065.8855,-0.01713,0.07972,0.03677
36.1675,19065.9055,0.03357,-0.00764,0.06548
36.1879,19065.9255,0.09588,-0.0449,0.08931
36.2138,19065.9455,0.08855,0.0504,0.11069
36.2318,19065.9655,0.03418,0.0956,0.1058
36.2663,19065.9855,0.09649,0.06445,0.09175
36.2717,19066.0055,0.12704,0.01008,0.0777
36.2942,19066.0255,0.08794,0.01435,0.07281
36.318,19066.0455,0.05129,0.05773,0.03983
36.3324,19066.0655,0.07023,0.10049,-0.00599
36.3483,19066.0855,0.11054,0.05162,0.00378
36.3686,19066.1055,0.13681,-0.04001,0.03799
36.3979,19066.1254,0.09833,-0.07117,0.05265
36.4081,19066.1454,0.02563,0.07788,0.02089
36.4316,19066.1654,0.00914,0.1408,-0.0176
36.4484,19066.1854,0.05312,0.10721,-0.00965
36.467,19066.2054,0.07817,0.05589,0.05571
36.4879,19066.2254,0.08122,0.0504,0.11069
36.5169,19066.2454,0.05679,0.01069,0.10458
36.5308,19066.2654,-0.01713,0.0846,0.08075
36.5473,19066.2854,-0.066,0.06872,0.07159
36.5698,19066.3054,-0.05317,0.03696,0.07342
36.5904,19066.3254,-0.03973,-0.08522,0.10458
36.6099,19066.3454,-0.08493,-0.13714,0.07403
36.6303,19066.3654,-0.05622,-0.04368,0.07465
36.6474,19066.3854,-0.03973,-0.08033,0.04349
36.6685,19066.4054,-0.03118,-0.04307,-0.04753
36.6893,19066.4254,0.02319,-0.02779,-0.05608
36.7079,19066.4454,0.12704,-0.07483,-0.02554
36.7283,19066.4654,0.22294,-0.10721,-0.03653
36.7523,19066.4854,0.26815,-0.06384,-0.03531
36.7716,19066.5054,0.215,-0.10293,-0.05852
36.7878,19066.5254,0.17835,-0.17685,-0.10312
36.8095,19066.5454,0.04274,0.04978,-0.15137
36.8337,19066.5653,-0.01285,0.1347,-0.12389
36.852,19066.5853,-0.02385,0.00764,-0.13549
36.872,19066.6053,0.04823,-0.06872,-0.16176
36.888,19066.6253,0.08672,-0.05101,-0.11106
36.9085,19066.6453,0.0293,0.02169,-0.08907
36.9302,19066.6653,0.04274,0.05956,-0.08357
36.9477,19066.6853,0.01158,0.0284,-0.06891
36.97,19066.7053,0.05556,-0.04001,-0.03103
36.9971,19066.7253,0.11543,-0.14691,-0.00721
37.0209,19066.7453,0.12276,-0.08461,-0.03836
37.0336,19066.7653,0.08183,0.04856,-0.04264
37.0907,19066.7853,0.01708,0.03635,-0.03592
37.0952,19066.8053,0.03846,-0.00947,-0.01882
37.1026,19066.8253,0.08122,-0.073,-0.00355
37.1142,19066.8453,0.07695,-0.00153,-0.00232
37.1265,19066.8653,0.06717,0.03146,0.02455
37.1462,19066.8853,0.0183,0.01802,0.03433
37.1675,19066.9053,0.02441,0.00947,0.04532
37.187,19066.9253,-0.03423,-0.01069,0.00623
37.2072,19066.9453,-0.11242,0.15119,0.00073
37.2281,19066.9652,-0.08554,0.16707,0.03738
37.2497,19066.9852,0.06106,0.01313,0.07281
37.2691,19067.0052,0.19179,-0.13775,0.08198
37.2988,19067.0253,0.09344,-0.12737,0.03799
37.3095,19067.0453,-0.03545,0.01924,-0.02431
37.3283,19067.0653,-0.05928,0.11759,-0.07074
37.3503,19067.0854,-0.0098,0.13225,-0.0402
37.3704,19067.1054,0.08428,-0.02535,0.01112
37.4005,19067.1254,0.12948,-0.19762,0.06731
37.4188,19067.1454,0.03907,-0.04184,0.08503
37.4405,19067.1655,0.01158,0.10415,0.04532
37.4497,19067.1855,-0.01957,0.14813,-0.00904
37.4724,19067.2056,-2e-05,0.0504,0.00623
37.4916,19067.2256,0.10932,-0.05895,0.06304
37.5164,19067.2457,0.1307,-0.12676,0.07281
37.5322,19067.2657,0.07328,-0.04123,0.03738
37.5598,19067.2858,-0.00735,0.08094,0.02578
37.5747,19067.3059,-0.05317,0.10843,0.04838
37.5909,19067.3259,-0.01774,0.01924,0.06793
37.6109,19067.346,0.05312,-0.0675,0.08564
37.6327,19067.3661,0.12032,-0.13714,0.13818
37.6507,19067.3861,0.1081,-0.12065,0.11496
37.6687,19067.4062,0.0629,0.04001,0.06915
37.6943,19067.4262,0.13192,0.08705,0.04227
37.7155,19067.4463,0.15697,0.0846,0.06793
37.7346,19067.4664,0.1979,0.00702,0.09419
37.757,19067.4864,0.25349,-0.04612,0.08442
37.7758,19067.5065,0.24371,-0.05162,0.04777
37.7928,19067.5265,0.2602,-0.09194,0.02883
37.8203,19067.5466,0.21378,-0.08827,-0.00293
37.8366,19067.5667,0.17041,0.0504,0.00073
37.8514,19067.5867,0.15147,0.10904,0.00317
37.8697,19067.6068,0.10504,0.07727,-0.01637
37.8932,19067.6268,0.02808,0.06994,-0.05364
37.9121,19067.6468,0.02747,0.02535,-0.07441
37.9303,19067.6669,0.01647,0.01191,-0.06585
37.9521,19067.6869,-0.02079,0.00641,-0.04081
37.9702,19067.7069,-2e-05,0.01558,-0.0237
37.9901,19067.727,0.02563,0.00397,-0.02737
38.0124,19067.747,0.00608,0.00092,-0.0457
38.034,19067.767,-0.01102,0.0003,-0.03592
38.0562,19067.787,-0.02873,-0.01802,-0.02859
38.0761,19067.807,-0.00613,0.02963,-0.02737
38.1139,19067.827,-0.01163,0.08033,-0.02309
38.1198,19067.847,-0.02385,0.04307,0.00012
38.1631,19067.867,-0.05134,0.02718,0.01478
38.1664,19067.887,-0.02324,0.0113,0.01661
38.1699,19067.907,0.05495,-0.0168,0.0215
38.1921,19067.9271,0.05373,-0.01069,0.04716
38.2097,19067.9471,0.04823,0.0113,0.05571
38.2292,19067.9671,0.03785,0.05712,0.00745
38.2505,19067.9871,0.01036,0.11331,-0.02126
38.2701,19068.0072,-0.01896,0.04612,-0.01882
38.2895,19068.0272,-0.0098,-0.04429,0.00256
38.3127,19068.0472,0.03724,-0.04368,0.02883
38.3432,19068.0673,0.069,0.04917,0.03127
38.3595,19068.0873,0.03724,0.05162,0.01906
38.3737,19068.1073,-0.03668,0.00153,0.0215
38.393,19068.1273,-0.055,0.0058,0.02578
38.41,19068.1474,0.00792,-0.02657,0.03433
38.432,19068.1674,0.05801,-0.01802,0.02822
38.454,19068.1874,-2e-05,-0.00031,-0.00538
38.477,19068.2075,-0.05439,0.10415,-0.02493
38.4978,19068.2275,-0.07333,0.07605,-0.0066
38.5294,19068.2475,-0.08982,0.1011,0.0105
38.5397,19068.2675,-0.05561,0.05589,-0.00477
38.5606,19068.2876,-0.00919,0.04673,-0.03042
38.5833,19068.3076,-0.00491,0.01069,0.00745
38.6,19068.3276,-0.00125,0.01069,0.05693
38.6193,19068.3476,0.02258,-0.02657,0.07526
38.6315,19068.3677,-0.02507,0.04368,0.03799
38.6542,19068.3877,-0.01346,0.07055,0.01661
38.6746,19068.4077,0.05251,0.01985,0.01356
38.6927,19068.4278,0.0629,0.05284,0.03311
38.7099,19068.4478,0.05679,0.01497,0.04532
38.7362,19068.4678,0.05679,-0.00153,0.03372
38.7556,19068.4878,0.05801,-0.02169,0.05693
38.7738,19068.5079,0.0128,-0.05834,0.04227
38.7962,19068.5279,-0.04645,0.01069,0.03983
38.8137,19068.5479,-0.05134,-0.00764,0.02761
38.8325,19068.5679,-0.02812,-0.04246,-0.03103
38.8655,19068.5879,-0.03606,-0.07056,-0.03836
38.8769,19068.6078,-0.00858,0.00397,-0.03898
38.8929,19068.6278,0.02563,0.04978,-0.01576
38.9155,19068.6478,0.0238,0.04245,-0.04753
38.9305,19068.6678,0.02991,0.00214,-0.05913
38.9507,19068.6878,0.02319,-0.01863,-0.08113
38.974,19068.7078,0.02869,0.00336,-0.07502
38.9958,19068.7278,-0.01346,-0.02779,-0.06097
39.0157,19068.7478,-0.0153,-0.01375,-0.03592
39.0332,19068.7678,-0.05073,-0.03451,-0.04325
39.0686,19068.7878,-0.0831,0.08094,-0.02431
39.0713,19068.8078,-0.06783,0.00336,-0.01576
39.0933,19068.8278,0.0067,-0.08583,-0.0518
39.1117,19068.8478,0.01464,-0.09743,-0.05425
39.1315,19068.8678,-0.0495,0.02107,-0.03042
39.1529,19068.8879,-0.03057,0.04978,-0.01271
39.1707,19068.9079,-0.01713,0.06933,-0.03592
39.192,19068.9279,0.02197,0.0113,-0.04325
39.2121,19068.948,0.0183,-0.04856,-0.0402
39.2302,19068.968,-0.0043,-0.00703,-0.00355
39.2506,19068.988,-0.01713,-0.01863,-0.00721
39.2745,19069.008,0.01036,-0.02169,-0.01515
39.2954,19069.0281,-0.05195,-0.02108,-0.04753
39.3139,19069.0481,-0.04156,0.02046,-0.05241
39.3352,19069.0681,-0.03301,0.07055,-0.0402
39.3567,19069.0882,-0.03301,0.08522,0.00562
39.3777,19069.1082,0.02502,0.03574,0.02639
39.4005,19069.1282,0.07695,-0.03085,0.03677
39.4163,19069.1482,0.04579,-0.01375,0.01906
39.4321,19069.1683,0.00364,0.02963,0.00989
39.4539,19069.1883,-0.05622,0.06811,-0.00293
39.4743,19069.2083,-0.05867,0.02779,0.02394
39.4959,19069.2284,0.0238,0.02352,0.02822
39.5179,19069.2484,0.03907,0.0113,0.06731
39.5371,19069.2684,-0.00797,-0.02779,0.06304
39.556,19069.2884,-0.04828,0.03085,0.07648
39.5776,19069.3085,-0.03545,0.01069,0.09725
39.5988,19069.3285,-0.01285,0.04184,0.07831
39.613,19069.3485,0.02075,0.06322,0.07587
39.6325,19069.3686,0.02319,0.02718,0.09419
39.6564,19069.3886,0.04762,0.0504,0.09725
39.6804,19069.4086,0.08183,0.05345,0.08808
39.6976,19069.4286,0.0519,0.08522,0.08442
39.7131,19069.4486,-0.02201,0.05712,0.07281
39.7334,19069.4686,-0.03484,0.11698,0.07648
39.7547,19069.4886,-0.01346,0.02963,0.07648
39.7748,19069.5086,0.01769,-0.01313,0.05815
39.7965,19069.5286,0.04518,-0.01436,0.07342
39.8166,19069.5486,-0.01591,0.1011,0.03983
39.8349,19069.5686,-0.01713,0.10965,0.03799
39.8618,19069.5886,0.04885,0.05712,0.04349
39.8808,19069.6086,0.12276,0.00764,0.0777
39.8984,19069.6286,0.09649,-0.02291,0.08075
39.9152,19069.6486,0.03541,0.01008,0.04105
39.9333,19069.6686,-0.00735,0.06078,-0.00477
39.9507,19069.6886,-0.02568,0.09316,0.00989
39.9773,19069.7086,0.00975,0.0565,0.04166
39.9955,19069.7286,0.0464,0.01802,0.0777
40.0117,19069.7486,0.05923,0.0394,0.06793
40.0336,19069.7686,0.05618,0.04429,0.05754
40.0574,19069.7886,-2e-05,0.00641,0.03494
40.0806,19069.8086,0.00059,0.00458,0.04593
40.1079,19069.8286,0.03296,0.03268,0.04044
40.1191,19069.8486,-0.0043,0.08644,0.03127
40.1439,19069.8687,-0.02873,0.01619,-0.00171
40.1525,19069.8887,-0.03301,0.00764,-0.02676
40.1781,19069.9087,-0.01835,0.02779,-0.05791
40.1932,19069.9288,-0.01835,0.05712,-0.05975
40.2108,19069.9488,-0.05134,0.04429,-0.05119
40.2325,19069.9688,-0.06111,-0.02169,-0.05241
40.253,19069.9888,-0.06539,-0.06078,-0.06097
40.2767,19070.0089,-0.05683,-0.04246,-0.05486
40.294,19070.0289,-0.05683,-0.06811,-0.00293
40.314,19070.0489,-0.07394,-0.13164,0.03983
40.3324,19070.069,-0.07272,-0.15241,0.0496
40.3544,19070.089,-0.02324,-0.14936,0.01906
40.3737,19070.109,0.01769,-0.11759,0.01295
40.3936,19070.129,0.01891,-0.07361,0.03005
40.4146,19070.1491,0.04579,-0.06689,0.01356
40.4329,19070.1691,0.03663,-0.06689,-0.00965
40.4512,19070.1891,0.00181,-0.07972,-0.05058
40.474,19070.2092,-0.04278,-0.02413,-0.08601
40.494,19070.2292,-0.05622,0.02474,-0.05547
40.5144,19070.2492,-0.02751,0.01191,-0.02126
40.546,19070.2692,0.03113,-0.0058,0.01661
40.5617,19070.2893,0.05129,-0.03818,0.03922
40.5735,19070.3093,0.01647,-0.06933,0.04838
40.5956,19070.3293,-0.04889,-0.02779,0.04655
40.6139,19070.3494,-0.05683,0.01313,0.0441
40.6329,19070.3694,-0.0379,0.01863,0.03066
40.6547,19070.3894,0.02441,0.01374,0.03372
40.6727,19070.4094,0.07206,-0.00947,0.04288
40.697,19070.4294,0.08611,-0.05101,0.05143
40.7202,19070.4494,-0.00247,-0.03085,0.03372
40.7318,19070.4694,-0.04095,-0.00031,-0.0011
40.7539,19070.4894,-0.08921,0.0394,-0.07318
40.7746,19070.5094,-0.08677,0.07727,-0.10434
40.7973,19070.5295,0.04823,0.01863,-0.05058
40.8164,19070.5495,0.10077,-0.073,-0.00232
40.8345,19070.5695,0.04335,-0.08094,0.01173
40.8587,19070.5896,-0.08616,0.01008,-0.01393
40.8721,19070.6096,-0.12831,0.07361,-0.03959
40.8949,19070.6296,-0.06233,0.04978,-0.02615
40.9134,19070.6496,0.03541,-0.02291,0.03494
40.9336,19070.6697,0.10382,-0.1011,0.07037
40.9583,19070.6897,0.01342,-0.05773,0.05327
40.9789,19070.7097,-0.07211,0.08216,0.01539
40.9984,19070.7298,-0.07394,0.13531,-0.00477
41.0203,19070.7498,0.01464,0.02474,0.00867
41.0649,19070.7698,0.11054,-0.07972,0.03372
41.0662,19070.7898,0.06167,-0.06506,0.03922
41.0738,19070.8099,-0.02751,0.05895,0.0044
41.094,19070.8299,-0.06416,0.13531,-0.0347
41.1136,19070.8499,-0.03729,0.09804,-0.0292
41.1316,19070.87,0.07511,-0.03513,0.00501
41.1519,19070.89,0.10993,-0.0394,0.01783
41.1721,19070.91,0.06106,0.01252,0.027
41.1944,19070.93,-0.02446,0.0846,0.01234
41.2154,19070.9501,-0.06233,0.08399,0.00562
41.2336,19070.9701,-0.05806,0.06689,-0.00965
41.2557,19070.9901,-0.03301,0.03268,-0.00293
41.2728,19071.0102,0.04396,0.01252,0.0215
41.2925,19071.0302,0.0293,0.05467,0.05021
41.316,19071.0502,-0.0214,0.07666,0.0551
41.3349,19071.0702,0.00731,0.05895,0.02455
41.3544,19071.0902,0.0348,0.04368,0.016
41.38,19071.1102,0.02136,0.01252,-0.00355
41.4064,19071.1302,-0.03545,0.03818,-0.02554
41.4185,19071.1502,-0.04034,0.05834,-0.04325
41.4349,19071.1702,-0.06722,0.07117,-0.03714
41.4554,19071.1902,-0.05806,0.06383,-0.02615
41.4752,19071.2102,0.02075,0.03696,-0.00293
41.4992,19071.2302,0.07145,-0.02291,0.0215
41.5158,19071.2502,0.0183,-0.06261,0.01539
41.5354,19071.2702,-0.01346,-0.0223,0.02517
41.5561,19071.2902,-0.02446,0.01558,-0.00232
41.5787,19071.3102,-0.02385,-0.00825,-0.03287
41.5937,19071.3302,0.00486,-0.0058,-0.0347
41.6162,19071.3503,-0.02629,0.00519,-0.05913
41.6348,19071.3703,-0.08554,0.05834,-0.0683
41.6564,19071.3903,-0.1167,0.03574,-0.07563
41.6848,19071.4104,-0.13991,-0.02596,-0.08784
41.7059,19071.4304,-0.11242,-0.03207,-0.07441
41.7184,19071.4504,-0.06233,0.01741,-0.06158
41.7386,19071.4704,-0.03912,0.09804,-0.06097
41.7546,19071.4905,-0.0831,0.04795,-0.03165
41.7733,19071.5105,-0.11059,0.0223,0.01906
41.7961,19071.5305,-0.0831,0.01802,0.04838
41.8137,19071.5506,-0.00063,0.04429,0.05388
41.8341,19071.5706,0.07084,0.13714,0.05021
41.8559,19071.5906,-0.02629,0.1066,0.07037
41.8743,19071.6106,-0.08616,0.04184,0.05937
41.8969,19071.6307,-0.11609,-0.00153,0.03188
41.9237,19071.6507,-0.07088,0.03635,0.00867
41.9421,19071.6707,-0.02935,0.11209,0.0105
41.9623,19071.6908,0.00608,0.13103,0.01722
41.9753,19071.7108,0.03235,0.04307,-0.00171
41.9977,19071.7308,0.02075,-0.01252,-0.00538
42.0203,19071.7508,0.03052,0.01313,-0.0121
42.0417,19071.7709,-0.00858,0.0675,-0.03042
42.0561,19071.7909,-0.02079,0.05345,-0.0237
42.0811,19071.8109,0.01036,0.0113,0.00134
42.1067,19071.831,0.04335,-0.02596,0.00623
42.1252,19071.851,0.03541,-0.00031,-0.00904
42.1451,19071.871,-0.03545,0.06322,-0.02126
42.1557,19071.891,-0.07883,0.03757,-0.03959
42.1743,19071.911,-0.07577,0.0223,-0.03226
42.1941,19071.931,-0.04217,0.02535,-0.02554
42.2162,19071.951,0.00364,0.01802,-0.02493
42.2355,19071.971,0.00303,0.01741,-0.02493
42.2563,19071.991,-0.03301,0.02718,-0.01882
42.2783,19072.011,-0.00858,0.02107,0.00501
42.2968,19072.031,0.02685,0.03146,0.04288
42.3164,19072.051,0.03541,-0.00825,0.04044
42.3371,19072.071,0.04396,-0.01191,0.02761
42.3555,19072.091,-0.00919,0.01191,0.02455
42.3814,19072.111,-0.08127,0.0504,0.00562
42.3957,19072.131,-0.03606,0.11881,-0.0011
42.4186,19072.151,0.04335,0.08277,0.01661
42.4521,19072.171,0.08672,-0.00519,0.03922
42.4612,19072.191,0.07756,-0.00947,0.05632
42.479,19072.211,0.02991,0.05956,0.06121
42.4934,19072.231,0.01647,0.04795,0.05998
42.5165,19072.251,0.05862,-0.00825,0.06731
42.5344,19072.271,0.09161,-0.03451,0.05449
42.5536,19072.2909,0.09588,0.00214,0.05204
42.5757,19072.3109,0.07328,-0.00458,0.05327
42.6036,19072.3309,0.05007,-0.03451,0.0325
42.6141,19072.3509,0.00364,-0.03635,0.0105
42.6367,19072.3709,-0.01957,-0.03879,-0.02187
42.655,19072.3909,-0.03973,-0.02718,-0.08296
42.6737,19072.4109,-0.05073,0.01008,-0.10495
42.7005,19072.4309,-0.05256,0.02963,-0.08662
42.7217,19072.4509,-0.05928,-0.00397,-0.06036
42.7368,19072.4709,-0.07455,-0.03513,-0.02676
42.7554,19072.4909,-0.09959,-0.04001,0.01234
42.7764,19072.5109,-0.09165,-0.01436,0.00623
42.7967,19072.5309,-0.07455,-0.0113,-0.01637
42.8167,19072.5509,-0.11181,0.03024,-0.04508
42.8386,19072.5709,-0.09959,0.04795,-0.00782
42.8618,19072.5909,-0.02507,-0.0223,0.02761
42.8779,19072.6109,0.01525,-0.07972,0.02822
42.8951,19072.6309,0.03602,-0.01436,0.00317
42.9155,19072.6509,-0.0043,0.07666,-0.00171
42.9362,19072.6709,-0.0153,0.05101,0.02028
42.9538,19072.6909,0.00914,-0.01008,0.03616
42.9844,19072.7108,0.09344,-0.01497,0.0386
43.0212,19072.7308,0.0745,0.03512,0.05754
43.0259,19072.7508,-0.03179,0.00397,0.0606
43.0375,19072.7708,-0.05256,0.0058,0.0386
43.0897,19072.7908,-0.01224,0.05712,0.01112
43.0943,19072.8108,0.06228,0.0956,0.00501
43.0983,19072.8308,0.11421,0.01924,0.01722
43.1233,19072.8508,0.11787,-0.04062,0.04838
43.1329,19072.8708,0.08733,-0.03879,0.0606
43.1529,19072.8908,-0.02201,-0.01558,0.00073
43.1731,19072.9108,-0.04584,0.07178,-0.04081
43.1943,19072.9308,0.01403,0.07544,-0.02248
43.2115,19072.9508,0.05679,0.01741,0.03311
43.2348,19072.9708,0.07633,-0.04612,0.01906
43.256,19072.9908,0.08855,-0.01191,0.00501
43.277,19073.0108,0.05618,0.04856,0.02211
43.2957,19073.0308,-0.01468,0.07911,0.0386
43.3129,19073.0508,0.01891,0.00214,0.02333
43.3314,19073.0708,0.08183,-0.02841,0.00806
43.354,19073.0908,0.10077,-0.01863,0.02211
43.3731,19073.1107,0.06228,-0.00703,0.02822
43.3941,19073.1307,0.00059,0.02474,0.00867
43.4168,19073.1507,-0.02629,0.03085,-0.00965
43.4354,19073.1707,-0.0153,0.0113,-0.02004
43.4574,19073.1907,0.0012,0.01985,-0.01698
43.478,19073.2107,0.04274,0.02474,-0.01088
43.4999,19073.2307,0.07817,0.01008,0.00256
43.5211,19073.2507,0.06534,-0.01985,0.01722
43.5429,19073.2707,-0.0324,0.02107,0.00256
43.5575,19073.2907,-0.06478,0.09743,-0.01393
43.5733,19073.3107,0.00242,0.05467,-0.01882
43.5956,19073.3307,0.0574,-0.00519,0.00745
43.6138,19073.3507,0.09405,-0.05162,0.03188
43.6342,19073.3707,0.06412,-0.01924,0.02578
43.656,19073.3907,-0.01102,-0.0449,0.00928
43.6737,19073.4107,-0.05256,-0.01863,-0.02615
43.6972,19073.4307,-0.05439,0.04734,-0.0402
43.718,19073.4507,0.00486,0.04978,-0.01393
43.7372,19073.4707,0.03113,-0.04184,0.01967
43.7572,19073.4907,0.03541,-0.06872,0.0105
43.786,19073.5107,0.02441,-0.00153,-0.00049
43.8001,19073.5306,-0.04767,0.05345,-0.01332
43.8216,19073.5506,-0.07821,0.05712,-0.02248
43.8356,19073.5706,-0.02996,0.01802,-0.04325
43.8544,19073.5906,0.01097,-0.02841,-0.03348
43.8757,19073.6106,0.00303,0.0058,-0.01088
43.896,19073.6306,-0.00735,0.0675,-0.00782
43.9151,19073.6506,-2e-05,0.073,-0.0176
43.9351,19073.6706,-0.07211,0.01008,-0.02309
43.9585,19073.6906,-0.08005,-0.03146,0.00501
43.9772,19073.7106,-0.03606,-0.05712,0.05876
43.9968,19073.7306,-0.00247,-0.07728,0.08747
44.025,19073.7506,0.03357,-0.08338,0.1003
44.0365,19073.7706,0.05312,-0.09255,0.11924
44.0565,19073.7906,-0.01713,-0.11698,0.13207
44.0761,19073.8106,-0.05011,-0.08827,0.10152
44.1036,19073.8306,-0.02812,-0.08827,0.03127
44.1128,19073.8506,0.00731,-0.09132,0.00806
44.1479,19073.8706,0.03541,-0.06261,0.00562
44.1545,19073.8906,0.04274,-0.07972,-0.01576
44.175,19073.9106,0.01219,-0.08277,-0.0628
44.1943,19073.9305,-0.03118,-0.01069,-0.12511
44.2121,19073.9505,-0.02201,0.0168,-0.14771
44.2373,19073.9705,0.00853,-0.00275,-0.12266
44.2584,19073.9905,0.04701,-0.02291,-0.10128
44.2835,19074.0105,0.04335,-0.00275,-0.09518
44.2966,19074.0305,0.00853,0.01863,-0.0854
44.3169,19074.0505,-0.01163,-0.01863,-0.07074
44.3345,19074.0705,-0.07394,-0.0168,-0.07685
44.3554,19074.0905,-0.06294,-0.00153,-0.06219
44.3785,19074.1105,-0.02873,-0.02535,-0.04875
44.3969,19074.1305,0.00914,-0.01436,-0.02981
44.4141,19074.1505,0.0293,-0.05712,-0.01393
44.4352,19074.1705,-0.01591,-0.01375,-0.02126
44.4536,19074.1905,-0.01652,0.02046,-0.03836
44.473,19074.2105,-0.03851,0.02352,-0.0573
44.4993,19074.2305,-0.00674,0.062,-0.04997
44.5147,19074.2505,0.03418,0.02596,-0.03775
44.5358,19074.2705,0.08305,-0.03146,-0.02676
44.5593,19074.2905,0.06595,-0.0168,-0.01149
44.5787,19074.3105,0.02502,0.06628,-0.01454
44.6006,19074.3304,0.00059,0.11026,-0.01698
44.6148,19074.3504,-0.01102,0.06628,-0.00355
44.6337,19074.3704,0.00364,0.0223,0.01478
44.6618,19074.3904,0.03724,-0.0223,0.00623
44.6758,19074.4104,0.04029,-0.01191,0.01417
44.7059,19074.4304,0.01342,0.04307,0.04532
44.7124,19074.4504,0.0409,0.01802,0.05754
44.7338,19074.4704,0.03174,-0.00886,0.05449
44.7552,19074.4904,0.03968,-0.01313,0.04349
44.7743,19074.5104,0.04946,0.02535,0.01173
44.7966,19074.5304,0.00425,0.02413,-0.00782
44.8204,19074.5504,-0.01224,-0.01985,-0.02431
44.8371,19074.5704,-0.00735,-0.00764,-0.02065
44.858,19074.5904,0.00792,0.03268,-0.02431
44.8748,19074.6104,-0.02507,0.03574,-0.03409
44.8925,19074.6304,-0.02201,-0.01313,-0.01026
44.917,19074.6504,0.00303,-0.02963,0.00684
44.9499,19074.6704,0.02197,-0.01069,0.01661
44.9572,19074.6904,-0.00613,0.03635,0.03188
44.9743,19074.7104,-0.02507,0.02474,0.02455
44.9944,19074.7304,-0.01163,-0.02108,0.0215
45.0211,19074.7503,-0.01774,-0.01741,0.02639
45.0419,19074.7703,0.00425,0.01558,0.03066
45.0559,19074.7903,-0.03362,0.04673,-0.0066
45.1069,19074.8103,-0.05317,0.08827,-0.00355
45.1107,19074.8303,0.0067,0.02902,0.00256
45.1141,19074.8503,0.0464,-0.02596,-0.00477
45.1345,19074.8703,0.02258,0.00458,-0.01271
45.1545,19074.8903,0.01464,-0.0113,-0.01332
45.1721,19074.9103,-0.03179,-0.00153,-0.04447
45.1921,19074.9304,-0.03729,0.04673,-0.04936
45.2147,19074.9504,0.00486,0.01252,-0.01576
45.2325,19074.9704,0.04457,-0.03085,0.00562
45.2524,19074.9905,0.06717,-0.01558,-0.00904
45.2737,19075.0105,0.06228,-0.01191,-0.00171
45.2937,19075.0305,0.01769,-0.0339,-0.0011
45.3157,19075.0505,-0.00613,-0.01863,-0.00293
45.3356,19075.0706,-0.02812,0.02963,-0.02554
45.3526,19075.0906,-0.02263,0.062,-0.02187
45.3737,19075.1106,0.02747,-0.01558,0.01417
45.4026,19075.1307,0.05495,-0.09927,0.03494
45.4185,19075.1507,0.05129,-0.07666,0.02639
45.437,19075.1707,-0.01407,-0.00764,0.0044
45.4581,19075.1907,-0.03362,-0.00886,-0.02004
45.4774,19075.2108,-0.02812,-0.04795,-0.02248
45.5028,19075.2308,0.00364,-0.07544,-0.01698
45.5177,19075.2508,0.01891,-0.07605,-0.03348
45.5376,19075.2709,0.00853,-0.05406,-0.02981
45.5584,19075.2909,0.00059,-0.04368,-0.02554
45.5834,19075.3109,0.02258,0.0113,-0.01454
45.6043,19075.3309,0.0745,0.00458,-0.04386
45.616,19075.351,0.04823,0.00336,-0.08174
45.6382,19075.371,0.00608,0.02963,-0.05669
45.6678,19075.391,-2e-05,0.0168,-0.03103
45.6754,19075.4111,0.00792,-0.0058,-0.0237
45.6959,19075.4311,0.02747,-0.04612,-0.02309
45.7141,19075.4511,0.03052,0.00214,-0.01515
45.7365,19075.4711,0.03968,0.01985,-0.0066
45.7595,19075.4912,0.0128,-0.00153,-0.0176
45.7774,19075.5112,0.00364,0.01741,-0.03042
45.7965,19075.5312,0.05801,0.05345,-0.04631
45.817,19075.5512,0.07572,0.06139,-0.02737
45.8392,19075.5711,0.03113,-0.00397,-0.04325
45.8554,19075.5911,-0.00735,0.02779,-0.07257
45.876,19075.6111,0.00425,0.05345,-0.08968
45.8975,19075.6311,-0.00369,0.04123,-0.08479
45.9188,19075.6512,-0.00308,-0.03451,-0.03409
45.9406,19075.6712,0.06778,-0.02779,-0.00232
45.9609,19075.6912,0.05862,-0.02291,-0.00049
45.9784,19075.7112,-0.00613,-0.00031,-0.01026
46.0004,19075.7313,-0.05439,-0.02596,-0.01515
46.0249,19075.7513,-0.05683,-0.05162,-0.0292
46.0435,19075.7713,-0.05195,-0.07239,-0.03898
46.0578,19075.7914,-0.04156,-0.09132,-0.04264
46.0744,19075.8114,-0.05195,-0.08033,-0.05608
46.0961,19075.8314,-0.04462,-0.05773,-0.07135
46.1241,19075.8514,-0.04645,0.0168,-0.06402
46.1361,19075.8715,-0.05073,0.00214,-0.03653
46.155,19075.8915,-0.0269,0.00214,-0.01271
46.1765,19075.9115,0.04701,-0.04979,0.01112
46.196,19075.9316,0.09344,-0.10904,0.00745
46.2139,19075.9516,0.07023,-0.06811,0.03372
46.2353,19075.9716,0.00853,0.03085,0.03922
46.2592,19075.9916,0.04579,0.04673,0.05754
46.2775,19076.0117,0.10749,-0.0058,0.05937
46.2996,19076.0317,0.0971,-0.03268,0.04716
46.3184,19076.0517,0.091,-0.03757,0.01112
46.343,19076.0718,0.07389,0.01741,-0.0011
46.3601,19076.0918,0.03846,0.07361,-0.0066
46.3765,19076.1118,0.0067,0.03146,-0.01393
46.4027,19076.1318,-0.02446,0.01802,-0.01332
46.4176,19076.1519,0.01219,-0.01252,-0.00477
46.4349,19076.1719,0.04274,-0.00947,-0.01088
46.4543,19076.1919,0.03357,-0.03085,-0.02065
46.4806,19076.212,-0.01346,0.03879,-0.00538
46.5165,19076.232,-0.00735,0.04673,0.00378
46.5233,19076.252,-0.01224,0.03024,-0.0121
46.5377,19076.272,0.01464,-0.01313,-0.01698
46.5542,19076.292,0.03296,-0.02841,-0.01576
46.5745,19076.312,0.02136,-0.01313,0.02211
46.5998,19076.332,0.01403,-0.0168,0.02394
46.618,19076.352,-0.03179,0.04123,0.00317
46.6352,19076.372,-0.02812,0.02169,-0.01393
46.657,19076.3919,-0.05134,0.01313,0.00195
46.6799,19076.4119,-0.00308,-0.02535,0.01417
46.695,19076.4319,0.03724,-0.06017,0.00684
46.717,19076.4519,-0.00552,-0.10171,0.00378
46.7376,19076.4719,-0.06966,-0.04918,-0.01882
46.7562,19076.4919,-0.10509,0.06017,-0.02126
46.7779,19076.5119,-0.11609,0.10415,-0.02737
46.7954,19076.5319,-0.18023,0.12309,-0.05913
46.8171,19076.5519,-0.2236,0.01741,-0.0964
46.8364,19076.5719,-0.15396,0.03146,-0.15687
46.8571,19076.5919,-0.10021,0.13103,-0.20269
46.8845,19076.6119,-0.05439,0.21228,-0.17825
46.908,19076.6319,-0.03729,0.06017,-0.03959
46.9287,19076.6519,0.03724,-0.12187,0.0722
46.9423,19076.6719,0.18751,-0.20678,0.08992
46.9587,19076.6919,0.22905,-0.07911,0.11435
46.9741,19076.7119,0.22722,-0.00214,0.12779
46.9943,19076.7319,0.23699,-0.06323,0.10519
47.0159,19076.7519,0.1869,-0.18173,0.06243
47.0509,19076.7719,0.11421,-0.15913,0.00073
47.0566,19076.7919,0.08672,-0.09377,-0.05303
47.0757,19076.8119,0.0855,-0.01069,-0.13732
47.094,19076.8319,0.05923,0.01191,-0.17886
47.1266,19076.852,0.00486,0.00153,-0.20513
47.1393,19076.872,-0.01591,-0.0168,-0.20635
47.1557,19076.8921,0.0348,0.04551,-0.13244
47.1745,19076.9121,0.09283,0.04429,-0.05364
47.1993,19076.9322,0.07572,-0.01924,-0.01149
47.2159,19076.9522,-0.01957,0.02596,-0.0292
47.235,19076.9723,-0.01835,0.02291,-0.02798
47.2575,19076.9924,-0.00369,0.02657,-0.00416
47.2763,19077.0124,0.05556,0.02657,0.0325
47.296,19077.0325,0.11787,0.00397,0.02578
47.3177,19077.0526,0.04701,0.06322,-0.00538
47.3373,19077.0726,0.02013,0.12798,-0.00904
47.357,19077.0927,0.06228,0.12248,-0.00293
47.3785,19077.1127,0.15575,0.08399,-0.01515
47.4115,19077.1328,0.22233,0.073,-0.02126
47.4244,19077.1529,0.14658,0.09377,-0.00477
47.4387,19077.1729,0.04518,0.02779,-0.03959
47.4588,19077.193,0.02502,-0.00092,-0.0799
47.4795,19077.213,0.02747,0.02963,-0.12022
47.4991,19077.2331,-0.02385,0.15608,-0.12755
47.5158,19077.2532,-0.05011,0.15363,-0.07013
47.5355,19077.2732,0.02747,0.00641,-0.00355
47.5599,19077.2933,0.12765,-0.13409,0.05571
47.5783,19077.3134,0.08489,-0.06689,0.05876
47.598,19077.3334,-0.03179,0.0284,0.03494
47.6314,19077.3535,-0.09043,0.02169,0.00928
47.6439,19077.3735,-0.0214,-0.01924,0.0044
47.6602,19077.3936,0.04152,-0.03513,-0.00477
47.6819,19077.4136,0.0293,0.00275,0.01234
47.6988,19077.4336,0.0067,-0.03451,0.00745
47.7177,19077.4537,0.01891,-0.03635,-0.01088
47.7402,19077.4737,-0.03912,-0.02596,-0.02676
47.7577,19077.4937,-0.0715,0.0058,-0.01393
47.777,19077.5137,-0.06722,0.00397,0.0044
47.7992,19077.5337,0.00364,-0.03268,0.03127
47.817,19077.5537,0.06961,-0.07117,0.06182
47.8408,19077.5737,0.02991,-0.04551,0.05815
47.865,19077.5937,-0.02201,0.01558,0.03738
47.8817,19077.6136,-0.00491,0.04795,0.02211
47.9007,19077.6336,0.03663,0.02535,0.02211
47.9212,19077.6536,0.03296,-0.00397,0.0215
47.9448,19077.6736,0.00731,-0.02779,0.00867
47.9592,19077.6936,-0.0098,0.02169,-0.00538
47.9847,19077.7136,-0.01346,0.05223,-0.00721
47.9995,19077.7336,-0.01591,0.07788,0.00562
48.0181,19077.7536,0.00059,0.05895,0.02333
48.0385,19077.7736,0.03052,-0.02046,0.01967
48.0604,19077.7936,0.02808,-0.04062,0.03616
48.0945,19077.8136,0.02258,0.00397,0.04227
48.1102,19077.8336,-0.00125,0.07239,0.04899
48.1171,19077.8536,-0.03729,0.05162,0.04593
48.1375,19077.8736,-0.04706,-0.01191,0.02211
48.1645,19077.8936,-0.01407,-0.0113,0.016
48.1762,19077.9136,-0.00735,0.05773,0.02455
48.1958,19077.9336,0.01158,0.04123,0.03555
48.2166,19077.9536,0.00547,-0.00214,0.00684
48.2362,19077.9736,-0.04217,-0.00092,-0.02493
48.2612,19077.9936,-0.04462,0.07055,-0.03348
48.2775,19078.0135,-0.05195,0.08949,-0.04142
48.2965,19078.0335,-0.0214,0.062,-0.01821
48.3187,19078.0535,-0.01163,0.00153,-0.0011
48.3504,19078.0735,0.03846,0.03757,0.04593
48.3584,19078.0935,0.03846,0.03207,-0.00538
48.3822,19078.1135,-0.15641,0.10293,-0.07502
48.4023,19078.1335,-0.15213,0.15058,-0.12205
48.4166,19078.1535,-0.04706,0.09377,-0.11411
48.437,19078.1735,0.08855,-0.04184,-0.05303
48.4593,19078.1935,0.17041,-0.10476,0.00806
48.4793,19078.2135,0.10443,-0.05467,0.03922
48.5019,19078.2336,-0.01407,0.06567,0.00928
48.528,19078.2536,-0.06844,0.10843,-0.03287
48.5514,19078.2736,-0.05011,0.02657,-0.05486
48.5655,19078.2936,0.01769,-0.07056,-0.02004
48.5856,19078.3137,0.07817,-0.03207,0.02455
48.5987,19078.3337,0.03785,0.10049,0.05265
48.6169,19078.3537,0.0067,0.09438,0.05998
48.6395,19078.3738,-0.05317,-0.00825,0.0325
48.6605,19078.3938,0.00547,-0.07056,0.02822
48.6767,19078.4138,0.07695,-0.03146,0.04593
48.6992,19078.4338,0.04823,0.02474,0.04838
48.7179,19078.4539,-0.03851,0.03146,0.01173
48.742,19078.4739,-0.11975,0.04001,-0.01271
48.7652,19078.4939,-0.09715,0.0284,-0.01393
48.7866,19078.514,-0.01102,-0.00214,0.00623
48.8054,19078.534,0.0519,-0.02474,0.01661
48.8194,19078.554,0.05129,-0.02169,0.03677
48.8382,19078.574,0.01097,0.0223,0.05327
48.8575,19078.5941,-0.02018,0.04429,0.03983
48.882,19078.6141,-0.01163,0.03146,0.00623
48.9104,19078.6341,0.00914,-0.01497,-0.00599
48.9197,19078.6542,-0.00369,-0.00336,-0.0121
48.9474,19078.6742,-0.00491,0.05406,-0.00171
48.9602,19078.6942,0.02258,0.05162,0.00928
48.9787,19078.7142,0.04518,0.03207,0.03555
48.997,19078.7343,0.05312,0.01802,0.05693
49.0393,19078.7543,0.04396,-0.00458,0.04349
49.0416,19078.7743,0.02869,0.00214,0.02455
49.0585,19078.7944,0.02136,-0.00764,0.02211
49.0798,19078.8144,0.03052,0.03146,0.01661
49.0968,19078.8343,0.03663,0.02413,0.01478
49.1149,19078.8543,0.0464,-0.02779,0.00562
49.1398,19078.8743,0.04701,-0.01863,-0.01393
49.157,19078.8943,0.02624,0.02535,-0.03409
49.1777,19078.9143,-0.00613,0.04795,0.00195
49.1965,19078.9343,-0.00552,-0.04673,0.01783
49.2159,19078.9543,0.01647,-0.05284,-0.0121
49.2376,19078.9743,-0.00797,-0.03329,-0.06097
49.2576,19078.9943,-0.06294,-0.05223,-0.07013
49.2763,19079.0143,-0.01346,-0.04123,-0.06219
49.2982,19079.0343,0.06595,-0.08216,-0.06708
49.3166,19079.0543,0.04152,-0.04856,-0.08296
49.3379,19079.0743,0.01891,-0.02169,-0.09579
49.3632,19079.0943,0.01525,0.00764,-0.09579
49.3808,19079.1143,0.02747,-0.03574,-0.06585
49.4006,19079.1343,0.0183,-0.08033,-0.03165
49.4233,19079.1543,-0.00919,-0.06261,-0.02126
49.4424,19079.1743,-0.07088,0.01435,-0.03226
49.4607,19079.1943,-0.09288,0.01802,-0.0292
49.4861,19079.2143,-0.03973,-0.02169,-0.02065
49.5122,19079.2342,0.0012,-0.073,-0.00293
49.5246,19079.2542,0.01708,-0.01802,-0.01515
49.5398,19079.2742,0.01219,0.03879,0.00501
49.5593,19079.2942,0.02441,0.0223,0.00195
49.5779,19079.3142,-0.0153,0.062,-0.00293
49.5999,19079.3342,-0.02629,0.03879,-0.03836
49.6175,19079.3542,0.01158,0.02291,-0.04508
49.6409,19079.3742,0.05251,0.01313,-0.02615
49.6624,19079.3942,0.0293,0.02474,-0.01393
49.6854,19079.4142,-0.05317,0.09071,0.01295
49.7004,19079.4342,-0.04828,0.04917,0.027
49.7199,19079.4542,-0.01346,-0.00764,0.00867
49.7433,19079.4742,0.01708,0.0003,-0.00416
49.7669,19079.4942,-0.00797,0.00214,0.00501
49.7827,19079.5142,-0.02018,-0.00092,0.00867
49.8028,19079.5342,0.01586,-0.04856,0.01539
49.8256,19079.5542,0.05495,-0.00275,0.0044
49.8408,19079.5742,0.06717,0.06933,-0.02065
49.858,19079.5942,0.04946,0.08094,-0.00843
49.8776,19079.6142,0.06167,0.02352,0.0044
49.9001,19079.6342,0.06961,-0.02657,0.01295
49.918,19079.6541,0.01586,-0.01375,-0.00171
49.9414,19079.6741,-0.066,0.0449,-0.02126
49.9657,19079.6941,-0.05378,0.12614,-0.01576
49.9824,19079.7141,0.01158,0.01619,0.02761
50.0016,19079.7341,0.07695,-0.07422,0.06426
50.028,19079.7541,0.07572,-0.02963,0.07953
50.0392,19079.7741,-0.00186,0.07055,0.07037
50.0612,19079.7941,-0.03973,0.06628,0.03494
50.082,19079.8141,0.06351,0.04429,0.00928
50.0999,19079.8341,0.11726,0.0168,0.01234
50.142,19079.8541,0.1136,0.02352,0.02211
50.1469,19079.8741,0.11482,0.04551,0.00806
50.1559,19079.8941,0.05373,0.04001,-0.03226
50.1802,19079.9141,-0.0098,0.09132,-0.03165
50.1991,19079.9341,-0.03545,0.02291,-0.01698
50.2154,19079.9541,0.02502,-0.00947,-0.00416
50.2414,19079.9741,0.06717,-0.05712,0.0105
50.2582,19079.9941,-0.03484,-0.0223,-0.02004
50.2792,19080.0141,-0.06355,0.08094,-0.01698
50.2956,19080.0341,-0.01407,0.05528,0.00745
50.3206,19080.0541,0.0183,-0.02108,0.01722
50.3396,19080.074,0.07084,-0.04246,0.04777
50.3642,19080.094,0.10138,-0.04429,0.08075
50.3824,19080.114,0.08794,-0.07422,0.06731
50.4022,19080.134,0.0629,-0.02352,0.02761
50.4178,19080.154,-0.01957,0.00702,-0.01332
50.4379,19080.174,-0.04706,0.0003,-0.00782
50.4568,19080.194,0.03052,-0.02657,0.02639
50.4778,19080.214,0.11665,-0.04979,0.0496
50.5006,19080.234,0.05495,-0.06933,0.03066
50.5191,19080.254,-0.07638,0.01313,0.01173
50.556,19080.274,-0.09898,0.06689,-0.03531
50.5664,19080.294,-0.05134,0.06322,-0.0292
50.5761,19080.314,0.02075,0.02046,0.00989
50.6033,19080.334,0.06106,-0.06384,0.04532
50.6211,19080.354,0.06412,-0.06628,0.05449
50.6391,19080.374,0.05862,-0.01436,0.02822
50.6559,19080.394,-0.00491,0.01558,0.01783
50.6774,19080.414,-0.04034,0.01313,0.03922
50.6977,19080.434,-0.00491,-0.05467,0.03799
50.7235,19080.454,0.00731,-0.13225,-0.00355
50.7387,19080.4739,-0.01163,-0.03818,-0.01515
50.757,19080.4939,-0.04706,0.05895,-0.02981
50.777,19080.5139,-0.0886,0.07544,-0.02004
50.8116,19080.5339,-0.0715,-0.01069,0.02272
50.8228,19080.554,-0.04889,-0.06506,0.06793
50.8384,19080.574,-0.08738,-0.0168,0.02455
50.8621,19080.594,-0.11303,0.07911,-0.04997
50.8786,19080.614,-0.12464,0.10293,-0.01821
50.9071,19080.6341,-0.07699,0.10965,0.05021
50.9268,19080.6541,-0.04828,0.06933,0.04716
50.9384,19080.6741,-0.12159,0.03024,0.01356
50.9579,19080.6942,-0.18451,0.05284,0.03494
50.9809,19080.7142,-0.12831,0.07422,0.06487
51.0001,19080.7342,-0.1222,0.05162,0.05327
51.0541,19080.7542,-0.13319,-0.01985,0.0325
51.0596,19080.7743,-0.09593,-0.04368,0.0386
51.0625,19080.7943,-0.12036,-0.05223,0.07465
51.0856,19080.8143,-0.18695,0.03024,0.08747
51.0983,19080.8344,-0.21199,0.04123,0.08075
51.1174,19080.8544,-0.15579,0.01008,0.04899
51.1366,19080.8744,-0.09532,-0.04612,0.01661
51.1591,19080.8945,-0.04095,0.01863,0.0215
51.1767,19080.9145,0.01219,0.08766,0.02761
51.1975,19080.9346,0.0293,0.09193,0.00684
51.2191,19080.9547,-0.00797,0.08522,-0.02248
51.24,19080.9747,-0.0214,0.11026,-0.03165
51.2587,19080.9948,0.04274,0.16157,-0.01393
51.2811,19081.0149,0.09588,0.14386,0.04716
51.3025,19081.0349,0.091,0.09499,0.09236
51.3242,19081.055,0.05679,0.0901,0.10641
51.342,19081.075,0.00975,0.03451,0.11191
51.3578,19081.0951,-0.0495,0.00153,0.10213
51.3818,19081.1152,-0.05195,0.03451,0.05265
51.4009,19081.1352,-0.06783,0.07055,0.01478
51.423,19081.1553,-0.0886,0.01741,-0.01271
51.4425,19081.1753,-0.0495,0.00825,-0.0402
51.4618,19081.1953,-0.01774,0.0565,-0.05364
51.4808,19081.2153,-0.03668,0.10354,-0.06402
51.5057,19081.2354,-0.05745,0.06933,-0.03775
51.5236,19081.2554,-0.0776,-0.05101,-0.00965
51.5418,19081.2754,-0.04156,-0.02963,0.00928
51.5581,19081.2955,-0.00919,0.06506,-0.00782
51.5823,19081.3155,-0.03973,0.09499,-0.02798
51.6131,19081.3355,-0.05683,-0.0168,-0.00171
51.6311,19081.3555,-0.00125,-0.03085,0.05143
51.6419,19081.3756,0.02197,0.03635,0.05693
51.658,19081.3956,-0.00674,0.10843,0.03677
51.6782,19081.4156,-0.05561,0.07788,0.0105
51.7012,19081.4357,-0.066,-0.01069,-0.00416
51.7234,19081.4557,-0.02201,-0.02902,0.00378
51.743,19081.4757,0.0067,0.0113,0.02394
51.7646,19081.4957,-0.00063,0.02963,0.01173
51.783,19081.5157,-0.01041,0.01924,0.0105
51.8078,19081.5357,0.01647,0.01008,0.02455
51.8246,19081.5557,0.04029,-0.01008,0.03372
51.842,19081.5757,0.0183,0.01802,0.02761
51.8594,19081.5957,-0.00674,0.06506,0.02333
51.8838,19081.6157,0.00547,0.02902,0.01845
51.9047,19081.6357,0.01464,-0.03757,0.01906
51.9208,19081.6557,0.01525,0.00764,0.01967
51.9422,19081.6757,0.02136,0.02657,0.02211
51.9613,19081.6957,0.00853,0.00092,0.02394
51.9846,19081.7156,-0.01591,-0.02046,0.0325
52.0041,19081.7356,-0.03057,-0.02841,0.0325
52.0247,19081.7556,-0.04217,0.02169,0.01356
52.0384,19081.7756,-0.00125,-0.00886,0.01478
52.0615,19081.7956,0.01403,-0.00886,0.00256
52.082,19081.8156,-0.04095,0.00702,-0.00232
52.1007,19081.8356,-0.04767,-0.03268,-0.00782
52.1439,19081.8556,-0.0098,-0.02657,-0.0347
52.1448,19081.8756,0.03235,0.0058,-0.0402
52.162,19081.8956,-0.00491,0.01191,-0.00538
52.1802,19081.9156,-0.01713,-0.00275,0.0215
52.1985,19081.9356,-0.00613,-0.02841,0.0105
52.2185,19081.9556,-0.01835,-0.03146,-0.00049
52.2385,19081.9756,-0.03729,-0.00275,-0.02309
52.2628,19081.9956,-0.04889,0.01741,-0.01698
52.2845,19082.0156,0.02747,-0.01741,0.0325
52.3036,19082.0356,0.06839,-0.03818,0.06365
52.3224,19082.0556,0.05068,-0.03818,0.04593
52.343,19082.0756,-0.03729,0.00519,-0.01943
52.376,19082.0956,-0.07638,0.03512,-0.06646
52.3852,19082.1155,-0.0379,0.03329,-0.05303
52.4042,19082.1355,0.02991,-0.00336,-0.01882
52.4261,19082.1555,0.04213,-0.06506,0.00562
52.4381,19082.1755,0.03113,-0.0168,-0.00538
52.4609,19082.1955,0.02685,0.03574,-0.02798
52.4796,19082.2155,-0.05622,0.06322,-0.02187
52.4998,19082.2355,-0.066,0.01497,-0.00599
52.5217,19082.2555,-0.00858,-0.03024,0.02578
52.5455,19082.2755,0.08366,-0.04246,0.05815
52.5587,19082.2955,0.07939,-0.03085,0.0496
52.5776,19082.3155,-0.02751,0.01313,0.00195
52.6108,19082.3355,-0.06478,0.02657,-0.03653
52.6355,19082.3555,-0.03484,0.04917,-0.04997
52.6438,19082.3755,0.00303,0.02718,-0.0457
52.6623,19082.3955,0.00853,-0.00336,0.01356
52.6796,19082.4155,-0.02018,-0.07361,-0.01271
52.6971,19082.4355,-0.01835,0.01985,-0.06341
52.7219,19082.4555,-0.01713,0.04429,-0.07441
52.7401,19082.4755,-0.01835,-0.00092,-0.04753
52.76,19082.4955,0.01342,-0.02535,0.00684
52.7811,19082.5155,0.06106,-0.0058,0.03616
52.8017,19082.5354,0.02685,0.0058,0.01661
52.8299,19082.5554,-0.0098,0.07544,-0.00782
52.848,19082.5754,-0.00186,0.04856,-0.00965
52.8596,19082.5954,0.06167,-0.01863,0.02333
52.8819,19082.6154,0.06167,-0.03451,0.03616
52.9046,19082.6354,0.0348,0.01374,0.03311
52.9193,19082.6554,-0.0098,0.01374,-0.0066
52.9449,19082.6754,-0.01896,0.03818,0.00073
52.9608,19082.6954,0.00914,-0.01924,0.03555
52.9777,19082.7154,0.03113,-0.01069,0.03127
52.998,19082.7354,0.02991,0.00214,0.02455
53.0475,19082.7554,0.00425,0.04795,-0.0011
53.0524,19082.7754,-0.01346,0.02902,0.00012
53.0649,19082.7954,0.0238,0.0223,0.01539
53.0769,19082.8154,0.05801,-0.00825,0.01967
53.0985,19082.8354,0.069,-0.01375,0.00684
53.1258,19082.8554,0.0519,0.02169,0.02578
53.1454,19082.8754,-0.03606,0.02963,0.00684
53.1566,19082.8954,-0.04462,0.05467,-0.0121
53.1766,19082.9154,0.00975,0.00214,-0.03898
53.1978,19082.9353,0.04335,-0.03268,-0.03165
53.2174,19082.9553,0.03602,-0.04184,-0.01271
53.2374,19082.9753,-0.01957,0.01252,-0.02309
53.259,19082.9953,-0.04217,0.04184,-0.01698
53.2773,19083.0153,-0.01163,0.04917,0.016
53.2972,19083.0353,0.05129,-0.03818,0.04044
53.3203,19083.0553,0.10382,-0.05712,0.04838
53.342,19083.0753,0.04213,-0.01497,0.03494
53.3659,19083.0953,-0.05073,0.0504,0.00012
53.3802,19083.1153,-0.066,0.02291,-0.02554
53.3991,19083.1353,0.00547,-0.04123,-0.0176
53.4172,19083.1553,0.05129,-0.03757,-0.00782
53.4421,19083.1753,-0.00735,0.00519,-0.00904
53.4606,19083.1953,-0.05317,-0.00336,-0.02309
53.478,19083.2153,-0.04645,0.0168,-0.02187
53.5006,19083.2353,-0.00858,-0.00397,-0.0237
53.5186,19083.2553,0.04946,-0.02352,-0.01454
53.538,19083.2753,0.0745,-0.02841,-0.00293
53.5599,19083.2953,0.06412,0.00214,0.02089
53.5816,19083.3153,0.01158,0.02046,0.01906
53.6037,19083.3352,-0.00125,0.01497,-0.00538
53.6401,19083.3552,0.03541,-0.00275,-0.0011
53.6435,19083.3752,0.0183,0.01863,0.02944
53.659,19083.3952,0.01647,-0.00641,0.04655
53.6806,19083.4152,-0.0214,-0.02902,0.00562
53.7062,19083.4352,-0.04217,0.01985,-0.02248
53.7181,19083.4552,-0.0043,0.00947,-0.03226
53.7386,19083.4752,0.02808,-0.0168,-0.01821
53.7575,19083.4952,0.06106,0.01435,0.02455
53.7828,19083.5152,0.06595,-0.00275,0.02578
53.8044,19083.5352,-0.02079,-0.00886,-0.02187
53.8219,19083.5552,-0.0214,0.00458,-0.0402
53.8425,19083.5752,-2e-05,0.03757,-0.04386
53.8679,19083.5952,-0.00247,0.02902,-0.01026
53.8921,19083.6152,0.01769,-0.04368,0.016
53.8983,19083.6352,-0.00674,-0.07117,0.00684
53.9227,19083.6552,-0.01041,-0.01252,-0.02126
53.938,19083.6752,-0.03912,0.04245,-0.02309
53.9675,19083.6952,-0.04706,0.04917,0.00745
53.9898,19083.7152,0.01891,-0.02657,0.03555
53.9996,19083.7352,0.03907,-0.06017,0.04349
54.017,19083.7551,0.05251,-0.02963,0.03066
54.0388,19083.7751,0.0293,0.01558,0.01722
54.0617,19083.7951,-0.01041,0.02596,0.0105
54.0867,19083.8151,0.00853,0.03451,-0.0011
54.1117,19083.8351,0.06656,0.00458,-0.02004
54.139,19083.8552,0.01525,0.01619,-0.01515
54.1651,19083.8752,-0.04278,0.00641,0.00012
54.1685,19083.8952,-0.05806,0.0003,-0.01454
54.1866,19083.9152,-0.03851,0.02718,-0.00782
54.1981,19083.9353,0.01219,-0.00275,0.01234
54.2206,19083.9553,0.0409,-0.03574,0.03555
54.2374,19083.9753,-0.00247,-0.00703,0.04349
54.2591,19083.9954,-0.01774,0.03818,0.04716
54.282,19084.0154,-0.01163,0.06261,0.02394
54.3012,19084.0354,-0.00186,0.00886,0.016
54.3187,19084.0554,-0.01774,-0.02657,0.03677
54.34,19084.0755,-0.04889,-0.01985,0.03616
54.3591,19084.0955,-0.06478,0.00519,0.00317
54.3802,19084.1155,-0.05561,0.01435,-0.01026
54.4009,19084.1356,-0.0153,0.01741,-0.00965
54.4205,19084.1556,0.00425,0.00153,0.00684
54.4423,19084.1756,-0.00735,-0.04429,0.00623
54.461,19084.1956,-0.03484,0.01374,0.00256
54.4839,19084.2157,-0.0153,0.02718,-0.00782
54.5078,19084.2357,0.02869,0.01252,0.02394
54.5192,19084.2557,0.05434,-0.01436,0.0551
54.5402,19084.2758,0.01769,-0.00764,0.06854
54.5601,19084.2958,0.02624,0.02291,0.04105
54.5827,19084.3158,0.03907,0.05223,-0.0121
54.6013,19084.3358,0.0409,0.04307,-0.03898
54.6194,19084.3559,0.04457,0.01924,-0.00049
54.6402,19084.3759,0.02258,0.01558,0.027
54.6629,19084.3959,0.01525,0.00947,0.02394
54.6807,19084.416,-0.00369,0.01497,0.00134
54.7038,19084.436,-0.01163,0.02718,0.00745
54.7183,19084.456,0.01952,0.02046,0.01906
54.7395,19084.476,0.07389,-0.0168,0.04288
54.7605,19084.496,0.04457,-0.00764,0.04044
54.7801,19084.516,-2e-05,-0.00825,0.02272
54.802,19084.536,-0.02812,0.0168,-0.0066
