AppTimestamp(s),SensorTimestamp(s),acc_x,acc_y,acc_z,gyro_x,gyro_y,gyro_z,mag_x,mag_y,mag_z
55.0002,19084.7359,-0.06000788542343731,-0.23430899704945518,0.11525517918799215,0.06619308070039619,-0.01413356,0.008927450438576522,0.0752061324301536,-0.03399999999999892,-0.2738531680388214
55.0197,19084.7559,-0.02046433551469681,-0.07880316153992889,0.023291344188367438,0.09613797715673007,0.01396644,0.014933120777468114,0.0752061324301536,-0.03399999999999892,-0.2738531680388214
55.0633,19084.7759,0.008301376674374888,0.04177466636937311,-0.05379170917616134,0.05546399386742281,0.01213644,-0.0018024934443390634,0.0752061324301536,-0.03399999999999892,-0.2738531680388214
55.0647,19084.7959,0.014062989831680889,0.13815441655733962,-0.10603010995123406,0.012977242819069111,0.009086440000000001,-0.011025100741368268,0.0752061324301536,-0.13400000000000034,-0.2738531680388214
55.0819,19084.8159,0.001878379081924588,0.18381544560160612,-0.12952421291973654,0.00210181470846101,0.018856440000000002,-0.016222144459771555,0.0923471312746328,-0.03399999999999892,-0.07458905647175076
55.0978,19084.8359,-0.02568220892545761,0.18344204426973873,-0.12623961155293056,0.006796520029478282,0.03473644,-0.02581981823776652,0.0923471312746328,-0.03399999999999892,-0.07458905647175076
55.1179,19084.8559,-0.05663161655737661,0.14871304209825922,-0.10225109641111595,0.013974527558089462,0.01946644,-0.035018856661384566,0.10091763069687232,-0.03399999999999892,0.02504299931178369
55.1404,19084.8759,-0.0810408325483154,0.09839234515852721,-0.06559725808572876,0.03690961253697362,-0.02146356,-0.032093745208574206,0.10091763069687232,-0.03399999999999892,0.02504299931178369
55.1576,19084.8959,-0.09075293153077131,0.051406708133672215,-0.02460367739258866,-0.0036711665711167754,-0.02818356,-0.012041990497816991,0.10091763069687232,-0.03399999999999892,0.02504299931178369
55.1785,19084.916,-0.08246627536795771,0.018262063273882814,0.012943631762864546,-0.012401934332552208,0.00480644,0.021810839432572577,0.10948813011911185,-0.13400000000000034,0.12467505509531815
55.2002,19084.936,-0.06190803757628501,0.0012852063333818123,0.040195221279761745,0.010513545628903576,0.006026440000000001,0.01739060435555253,0.10948813011911185,-0.13400000000000034,0.12467505509531815
55.2215,19084.956,-0.04015288678265571,-0.0018842584600003848,0.05201620190218254,0.027886483613997044,-0.02879356,0.0054778244211251045,0.11805862954135138,-0.03399999999999892,0.2243071108788526
55.2395,19084.976,-0.02675330121193801,0.006439938969902616,0.04590472603831444,0.028505595066011073,-0.05505356,-0.008677319555888522,0.018426573757815146,-0.03399999999999892,0.23287761030109227
55.2634,19084.9961,-0.02790728177684871,0.021425052911190512,0.022559765883542943,0.00885847505922634,-0.03612356,0.005267847185280236,0.018426573757815146,-0.03399999999999892,0.23287761030109227
55.2779,19085.0161,-0.04270507674850191,0.03905956946377382,-0.01411441306653985,0.0024890941511034595,0.03107644,-0.0046025827368275036,0.009856074335575622,-0.03399999999999892,0.13324555451755782
55.302,19085.0361,-0.06398925009516691,0.05512560301407162,-0.057542310090024154,-0.018998647737849993,0.03901644,-0.033406959982546856,-0.08120548202571753,-0.03399999999999892,0.24144810972333167
55.3174,19085.0562,-0.09383971684290052,0.06082990073251562,-0.09954967395154986,-0.025149802304434102,0.007856440000000001,-0.040857187999056924,0.026997073180054672,0.0660000000000025,0.33250966608462673
55.3375,19085.0762,-0.12058397765554452,0.057060959309116914,-0.13180846036873606,-0.0014083404611599775,-0.02085356,-0.021440507295487663,-0.07263498260347802,0.0660000000000025,0.3410801655068661
55.3599,19085.0962,-0.13742509629703853,0.045767294517696115,-0.14729995848592525,0.017449757942564825,-0.01718356,0.01249813476036708,0.035567572602294345,0.0660000000000025,0.43214172186816296
55.3793,19085.1162,-0.13577543506923181,0.03232168852542331,-0.14170170341169774,0.017523357106353308,-0.01413356,0.02047116324163376,0.026997073180054672,0.0660000000000025,0.33250966608462673
55.4002,19085.1363,-0.11411251343424231,0.019974100408140114,-0.11458684080921845,-0.04078496440042572,0.00358644,0.012609551252856194,0.035567572602294345,0.16600000000000037,0.43214172186816296
55.4277,19085.1563,-0.0777823969502506,0.010888264049887915,-0.06982448187230585,-0.06616189179594871,0.00541644,0.009884453830312352,0.026997073180054672,0.16600000000000037,0.33250966608462673
55.4383,19085.1763,-0.03383299584294381,-0.006652610415814386,-0.014778696055756449,-0.029678561330388254,-0.026953559999999998,0.013490919987190753,0.035567572602294345,0.16600000000000037,0.43214172186816296
55.4573,19085.1964,0.005856390545010991,-0.017615590045666485,0.04106352178727805,-0.006366695770653893,-0.04100356,0.02067942637759418,0.035567572602294345,0.16600000000000037,0.43214172186816296
55.4803,19085.2164,0.03523673098222989,-0.016445089096491984,0.08812357953932845,-0.01798625749359795,-0.016573559999999998,0.02106670582023663,0.044138072024533875,0.16600000000000037,0.5317737776516974
55.5191,19085.2364,0.05023877186166138,0.009411944775304916,0.11854876246170525,-0.0714961706363506,0.025576440000000002,0.02628196184991218,0.16091112665254914,0.16600000000000037,0.7224673897965267
55.5227,19085.2564,0.04835779679485459,0.02235337730264851,0.12857748899822524,-0.06440140408337791,-0.02207356,0.0017636913652548168,0.16091112665254914,0.0660000000000025,0.7224673897965267
55.5438,19085.2765,0.02949553781226389,0.04201583086283862,0.11991188627734875,-0.01806724871313811,-0.01107356,-0.029813563837287373,0.15234062723030964,0.0660000000000025,0.6228353340129922
55.5611,19085.2965,-0.00849240753971631,0.04410535692076251,0.10002770986844414,-0.0006951677779868682,0.026186440000000002,-0.020267313055825846,0.25197268301384584,0.0660000000000025,0.6142648345907525
55.5825,19085.3165,-0.05772174517272431,0.023320821004642715,0.07910034947237005,0.024511849466490217,0.009086440000000001,0.01618644918672787,0.25197268301384584,0.0660000000000025,0.6142648345907525
55.6012,19085.3366,-0.1047016996686,-0.014713023947832485,0.06578538630141784,0.018959344284549543,-0.04039356,0.00869476137926272,0.2605431824360854,0.0660000000000025,0.7138968903742869
55.6197,19085.3566,-0.13578782569447462,-0.060883166139997086,0.06345996409174004,-0.05288415269728685,-0.03367356,-0.03540013675443145,0.25197268301384584,-0.03399999999999892,0.6142648345907525
55.6374,19085.3766,-0.144377378466658,-0.10605945399149888,0.06859292031227544,-0.126259412188363,0.056116440000000004,-0.04012890981065212,0.25197268301384584,0.0660000000000025,0.6142648345907525
55.6598,19085.3966,-0.1306084942255361,-0.1370645786290494,0.07262153175614154,-0.10080063652335765,0.02007644,-0.007982573446473223,0.24340218359160634,0.0660000000000025,0.514632778807218
55.682,19085.4167,-0.1057744118798721,-0.15053067190506778,0.06647664035038445,0.02174582790920518,0.04328644,0.005383763189966025,0.1437701278080701,0.0660000000000025,0.5232032782294578
55.6985,19085.4367,-0.07726584000877201,-0.13383595855572877,0.04572210106937504,0.061024748155057394,0.04634644,0.04860639874496176,0.13519962838583058,0.0660000000000025,0.42357122244592327
55.72,19085.4567,-0.05040239769459011,-0.08543707616848849,0.01221282182767465,0.023569094530043865,-0.012293559999999999,0.005226923050539041,0.13519962838583058,0.16600000000000037,0.42357122244592327
55.744,19085.4767,-0.027910579988702812,-0.014247149217994085,-0.027183922198865354,-0.016799457586103322,0.00236644,-0.029310368389959134,0.13519962838583058,0.16600000000000037,0.42357122244592327
55.7655,19085.4967,-0.01535002095591231,0.056585264884812615,-0.06316503438447145,-0.017072213730216095,0.04817644,-0.01824628216081898,0.2348316841693668,0.16600000000000037,0.4150007230236836
55.7884,19085.5167,-0.015161427825405811,0.10479839201275262,-0.08655601361278327,0.03749465625378425,0.04939644,-0.003940297393973942,0.22626118474712714,0.16600000000000037,0.3153686672401474
55.8035,19085.5367,-0.02720016921782341,0.12345507333323932,-0.09107487911492525,0.048119182993806284,0.01641644,0.005574135408382521,0.1266291289635909,0.2660000000000018,0.3239391666623871
55.822,19085.5567,-0.04341234144924231,0.11253459696970433,-0.07514257426520705,0.03885650861197812,-0.019623559999999998,0.01189123627002974,0.10948813011911185,0.2660000000000018,0.12467505509531815
55.8402,19085.5767,-0.05641098852940581,0.0824966381256664,-0.042429273603200465,-0.0016092115413687163,-0.03612356,0.019045674925229763,0.2176906853248876,0.2660000000000018,0.21573661145661294
55.8579,19085.5967,-0.06200772128765021,0.04185166513551871,-0.0007055368037725551,-0.031481365883856346,0.0029764400000000003,0.0210030698620265,0.2176906853248876,0.2660000000000018,0.21573661145661294
55.8778,19085.6167,-0.061020291953989614,-0.0020676056868309846,0.040281992414103546,-0.009781397002959685,0.02068644,0.016687394877957774,0.11805862954135138,0.16600000000000037,0.2243071108788526
55.9026,19085.6367,-0.05684970549016811,-0.04382904306751868,0.07146057794350505,0.025904662753846924,-8.355999999999967e-05,0.025260465450024,0.10091763069687232,0.16600000000000037,0.02504299931178369
55.9308,19085.6567,-0.051990615430017414,-0.07626284600945948,0.08653255856399014,0.04562452487447791,-0.00680356,0.019278363984543568,0.20912018590264808,0.16600000000000037,0.11610455567307847
55.9445,19085.6767,-0.04140219460321961,-0.08374478457313349,0.08293209942962004,0.04317304064598906,-0.03245356,0.012132174435037451,0.10948813011911185,0.16600000000000037,0.12467505509531815
55.9641,19085.6967,-0.02816133171516661,-0.06886267951145789,0.06145133226356624,0.007527047973981425,0.00969644,0.018259760128210397,0.10948813011911185,0.0660000000000025,0.12467505509531815
55.9806,19085.7167,-0.01106715738416481,-0.03335213745580479,0.02594750616155435,-0.004836647361298576,0.03412644,0.024231362731898586,0.20912018590264808,0.0660000000000025,0.11610455567307847
56.004,19085.7367,0.007783457482724288,0.013758864967740411,-0.016781777613404353,0.022961338989764303,0.010916440000000001,0.005279203097014702,0.20054968648040855,-0.03399999999999892,0.016472499889544013
56.0222,19085.7567,0.024001626462251992,0.059689121186206416,-0.05719358103222445,0.02365404960556682,0.01030644,-0.0009029123987322441,0.10091763069687232,-0.03399999999999892,0.02504299931178369
56.0469,19085.7767,0.03456341060393239,0.08814723725263282,-0.08438468631265085,0.0627252423716725,0.02190644,0.004317700193082203,0.10091763069687232,-0.03399999999999892,0.02504299931178369
56.0584,19085.7967,0.03811932110874699,0.10068185653283052,-0.08941574319019775,0.07528670198112067,-0.0025235599999999998,0.014879983681050228,-0.007284924508903428,-0.13400000000000034,-0.0660185570495111
56.0792,19085.8166,0.03288699095190339,0.08244138975322612,-0.06863310668565036,0.026335116087328907,0.014576440000000001,0.016029609047300886,0.18340868763592935,-0.13400000000000034,-0.18279161167752667
56.0977,19085.8366,0.02185796937937389,0.04298375916980612,-0.026776660454488857,0.0013781431634956576,-0.012293559999999999,-0.0032825115633170554,0.19197918705816902,-0.13400000000000034,-0.08315955589399045
56.1373,19085.8566,0.013025846625736491,0.004819904132296514,0.02369509732392354,-0.0779988228104893,-0.02024356,-0.03507649326999913,0.10091763069687232,-0.13400000000000034,0.02504299931178369
56.1535,19085.8766,-0.0009032080877122116,-0.043227534304784085,0.06670845092223525,-0.06605422489695682,0.0029764400000000003,-0.04592010340150216,0.0923471312746328,-0.13400000000000034,-0.07458905647175076
56.1603,19085.8966,-0.01440716492414581,-0.07387955114888219,0.08818577893600155,0.011406270274972602,-0.0025235599999999998,-0.029287656566490197,0.0923471312746328,-0.13400000000000034,-0.07458905647175076
56.178,19085.9166,-0.01879539828004491,-0.07329864996717828,0.08207053072434115,0.01932701870976362,0.02129644,-0.00850001734909094,0.10091763069687232,-0.13400000000000034,0.02504299931178369
56.201,19085.9366,-0.01826071757387851,-0.045178211711722684,0.052068558810534446,0.04125656984393352,-0.009853559999999999,-0.003029360436632655,0.10948813011911185,-0.03399999999999892,0.12467505509531815
56.2186,19085.9566,-0.012930407365786111,0.005222025442700416,0.009215284614614239,0.04777282768590503,-0.02818356,0.008665193156255994,0.11805862954135138,-0.03399999999999892,0.2243071108788526
56.246,19085.9766,-0.00717739558889551,0.05742499053930921,-0.03308989486990975,0.02995979455547957,-0.004353559999999999,0.022462625913633894,0.10091763069687232,-0.03399999999999892,0.02504299931178369
56.2587,19085.9966,-0.002855812901897011,0.09661152901848691,-0.06374596481361795,0.005757454105774514,0.00541644,0.004922348927321203,0.0012855749133360965,-0.13400000000000034,0.03361349873402337
56.2793,19086.0166,-0.00550381344434181,0.11025344991649383,-0.07652069611339625,-0.027098948135536934,0.01518644,-0.027812137959708882,0.009856074335575622,-0.13400000000000034,0.13324555451755782
56.311,19086.0366,-0.01852273764465111,0.09431588125910001,-0.07037778274980115,-0.00783000141575852,-0.006193559999999999,-0.03191869275787496,0.018426573757815146,-0.03399999999999892,0.23287761030109227
56.3199,19086.0566,-0.044496408073720115,0.05542324451265312,-0.04832518531006395,0.02001887227562391,-0.03490356,-0.014692096050416239,0.026997073180054672,-0.03399999999999892,0.33250966608462673
56.3399,19086.0766,-0.0730256779096258,0.0067511145887290125,-0.01563099529696786,0.023674511672937413,-0.01718356,0.0064523973366765195,0.018426573757815146,-0.03399999999999892,0.23287761030109227
56.3562,19086.0966,-0.09348392853405661,-0.03681118103759549,0.02167447900530245,-0.005546713238431124,-0.012293559999999999,-0.01249290589866957,0.026997073180054672,-0.03399999999999892,0.33250966608462673
56.3785,19086.1166,-0.09796041030721331,-0.06637297127283309,0.05753314578362844,-0.029026774849326937,0.01396644,-0.028870808900841025,-0.17226703838701424,-0.03399999999999892,0.3496506649291058
56.4019,19086.1366,-0.08781540290041691,-0.08287028705688389,0.08618657469987524,-0.01191695119649623,0.01702644,-0.02237329902635566,-0.08120548202571753,-0.03399999999999892,0.24144810972333167
56.4233,19086.1566,-0.06828583039863391,-0.08767599951315769,0.10284297672445164,0.04523724543183546,-0.006193559999999999,0.007658802261599513,-0.17226703838701424,-0.03399999999999892,0.3496506649291058
56.4419,19086.1766,-0.04154218517040721,-0.07698907969945828,0.10435730314893045,0.05842777969887602,-0.03734356,0.025534078644078997,-0.06406448318123834,-0.03399999999999892,0.44071222129040233
56.4632,19086.1966,-0.01125800124134871,-0.04929203954902599,0.08947110419547534,0.04567680492095358,-0.02024356,0.01988611952482313,-0.07263498260347802,0.0660000000000025,0.3410801655068661
56.4866,19086.2166,0.019564131277951292,-0.004744536732915885,0.059194413896060644,0.014600495409641284,0.012746440000000001,0.007845210624033224,-0.1894080372314933,-0.03399999999999892,0.15038655336203688
56.502,19086.2365,0.04213942948425059,0.046443541555377714,0.01758797474877695,-0.016936692708101934,0.02190644,-0.0023192945595001077,-0.1894080372314933,-0.03399999999999892,0.15038655336203688
56.517,19086.2565,0.048241692107312786,0.09130527553051421,-0.027633830990633948,0.028222875716319946,0.01396644,-0.019081370198273447,-0.19797853665373283,-0.03399999999999892,0.050754497578502415
56.548,19086.2765,0.03503465643489379,0.10866580834957743,-0.06599878482632666,0.09610840893372334,0.01213644,-0.013880362623887378,-0.17226703838701424,0.0660000000000025,0.3496506649291058
56.5588,19086.2965,0.00464399189414029,0.11585358107369612,-0.08791651652083986,0.07857723810304677,-0.01107356,0.010311157570297099,-0.18083753780925377,0.0660000000000025,0.25001860914557134
56.5782,19086.3165,-0.03525522484828951,0.09486621143609042,-0.08733782383481666,0.03830103311817421,-0.02024356,0.012551271856784965,-0.1894080372314933,0.0660000000000025,0.15038655336203688
56.5974,19086.3365,-0.07227251414984331,0.057085180991473715,-0.06524785751556865,-0.013289302416482336,-0.01840356,-0.024092005554243026,-0.19797853665373283,0.0660000000000025,0.050754497578502415
56.6184,19086.3565,-0.09751489543870141,0.011829552468380515,-0.029371044866653442,-0.036527568812428225,0.012746440000000001,-0.04477647738484707,-0.20654903607597236,-0.03399999999999892,-0.04887755820503204
56.6373,19086.3765,-0.10817271644717831,-0.031710235113047686,0.008214804456878944,-0.04413602967452139,0.0029764400000000003,-0.02634658255850592,-0.10691698029243611,-0.03399999999999892,-0.05744805762727172
56.6635,19086.3965,-0.10179935147679281,-0.060353167914251486,0.03552391453373394,-0.011468285551741989,0.01702644,0.011312191902814682,-0.10691698029243611,-0.03399999999999892,-0.05744805762727172
56.6815,19086.4165,-0.08176660365189381,-0.06915902938644679,0.045060321914269244,0.023735897875049202,0.00847644,0.02851832654290281,-0.015855423931143104,-0.03399999999999892,-0.16565061283304733
56.7135,19086.4365,-0.05605455968235101,-0.05980135116979909,0.036049216816700244,0.04503723140156895,-0.0006935599999999995,0.026685953766427992,-0.02442592335338263,-0.03399999999999892,-0.2652826686165818
56.7229,19086.4565,-0.01814772974971981,-0.023540797791077785,0.013596883911129246,0.0409616375325657,-0.02390356,0.022128483567409332,-0.032996422775622154,-0.13400000000000034,-0.36491472440011624
56.7468,19086.4765,0.01369008683193889,0.020221365371786017,-0.014618180143013457,0.02772792937468561,-0.019623559999999998,0.025103625310597014,0.06663563300791407,-0.13400000000000034,-0.37348522382235594
56.7572,19086.4965,0.03862130726227079,0.06131493193719851,-0.04111868625466254,-0.020730959933570166,0.01518644,0.0176292927644619,-0.032996422775622154,-0.13400000000000034,-0.36491472440011624
56.7775,19086.5165,0.05183896029255548,0.0906489155788967,-0.06033887361219174,-0.021578260932701324,0.02435644,-0.013572895957114531,0.0752061324301536,-0.13400000000000034,-0.2738531680388214
56.8042,19086.5365,0.050163171827035696,0.09939436004821983,-0.06876989557256825,0.03377538089826062,0.02129644,-0.0115896823908083,0.0752061324301536,-0.13400000000000034,-0.2738531680388214
56.8175,19086.5565,0.03574034199439069,0.090731873352621,-0.06490871869580027,0.03653004654381119,-0.02512356,0.013315867536491511,0.0752061324301536,-0.13400000000000034,-0.2738531680388214
56.8391,19086.5765,0.014453660140819988,0.06599988503093102,-0.049106791375785955,0.015155970903445186,-0.05078356,0.007185175037278001,-0.032996422775622154,-0.13400000000000034,-0.36491472440011624
56.8588,19086.5965,-0.003639928672536312,0.03317032567309481,-0.02398513317057785,-0.011058294285630602,-0.006193559999999999,-0.005273974235317194,0.0752061324301536,-0.13400000000000034,-0.2738531680388214
56.8772,19086.6164,-0.014648589498506611,-0.0027040548825789865,0.005535586149831351,-0.026450268460516176,0.01946644,-0.013153798535367018,-0.015855423931143104,-0.13400000000000034,-0.16565061283304733
56.8976,19086.6364,-0.01813524617410941,-0.03437480357656118,0.03266022851882544,-0.02340152755354001,0.01641644,-0.013416055817687548,0.08377663185239312,-0.2339999999999982,-0.174221112255287
56.9208,19086.6564,-0.015448729065537011,-0.054931676983307184,0.050246434958950544,-0.02585386883197108,-0.008023559999999999,0.0008967853486952854,0.10091763069687232,-0.13400000000000034,0.02504299931178369
56.9506,19086.6764,-0.0068528412138312116,-0.059164426750935285,0.053026521958733544,-0.011238703298468744,-0.02451356,0.021098523799341695,-0.0983464808701966,-0.13400000000000034,0.04218399815626274
56.9648,19086.6964,0.012500187980580592,-0.044784215852959185,0.039692869453606845,0.011897252760624151,-0.015963559999999998,0.005006446952901929,0.0012855749133360965,-0.13400000000000034,0.03361349873402337
56.9858,19086.7164,0.03678488252576199,-0.012882605219930187,0.013827074227580047,0.03419447832000813,-0.0037435599999999995,-0.006717674862993447,-0.08977598144795707,-0.03399999999999892,0.1418160539397972
57.002,19086.7364,0.05975884817290249,0.030771578066396216,-0.01701170455081745,0.02536054317177749,0.00236644,0.011817637106241258,-0.08977598144795707,-0.03399999999999892,0.1418160539397972
57.0214,19086.7564,0.07159829303710419,0.07230446745309452,-0.043606770500282346,0.0028854797493820398,-0.012293559999999999,0.02847515265206328,-0.08120548202571753,-0.03399999999999892,0.24144810972333167
57.0761,19086.7764,0.060556501329023696,0.09465198863505653,-0.05787827057603816,0.016266064841110765,-0.004963559999999999,0.0058551406581892,-0.08120548202571753,-0.03399999999999892,0.24144810972333167
57.0815,19086.7964,0.03838444643789489,0.09514094820966071,-0.05565158468969285,0.01785974920867621,-0.019623559999999998,-0.004088031377764796,-0.08120548202571753,-0.03399999999999892,0.24144810972333167
57.083,19086.8164,0.0006270946674840905,0.0678000016488903,-0.037203427314751944,-0.0016492786261676873,-0.023293559999999998,-0.01712397526147671,-0.08120548202571753,-0.03399999999999892,0.24144810972333167
57.1284,19086.8364,-0.03278596985976641,0.03200674376146092,-0.0076785606417498625,-0.010607378884778024,-0.00557356,-0.02861851482409885,0.009856074335575622,-0.03399999999999892,0.13324555451755782
57.1302,19086.8564,-0.07297732897868801,-0.025703442424227386,0.024720138655100546,-0.05343962819109075,-0.01107356,-0.03474010116767622,0.009856074335575622,0.0660000000000025,0.13324555451755782
57.1417,19086.8764,-0.09714083367851752,-0.07179261931823878,0.050318331630157344,-0.05680515618296144,0.02435644,-0.0025733027361267333,0.0012855749133360965,0.0660000000000025,0.03361349873402337
57.1582,19086.8964,-0.10469102721870571,-0.09903230371817678,0.061320844667623546,0.016391944051374906,-0.016573559999999998,0.014435924679735443,-0.10691698029243611,0.0660000000000025,-0.05744805762727172
57.1761,19086.9164,-0.09556840185267301,-0.10043176761793618,0.054205340051734344,0.06948190272243782,-0.05383356,0.02580769183813399,-0.1154874797146758,0.0660000000000025,-0.15708011341080794
57.2006,19086.9364,-0.07321291478004172,-0.07381942495314828,0.03095167893446625,0.04999333695496452,-0.03245356,0.02012705768983084,-0.007284924508903428,0.0660000000000025,-0.0660185570495111
57.222,19086.9564,-0.03915132786277861,-0.020313764978606687,-0.0017092257368119534,-0.0024465493349215208,0.01518644,0.009311623075178412,-0.015855423931143104,0.0660000000000025,-0.16565061283304733
57.2397,19086.9764,-0.004281031058791712,0.04261547380173781,-0.03447666225301975,-5.7844014700579055e-05,0.03107644,0.008493890299053982,-0.015855423931143104,0.0660000000000025,-0.16565061283304733
57.2596,19086.9964,0.02190998249488589,0.09497182429609521,-0.05770904224233815,0.013950958684678307,0.025576440000000002,0.014645901915580312,-0.007284924508903428,0.0660000000000025,-0.0660185570495111
57.2815,19087.0163,0.03306344233967579,0.12142712724424362,-0.06393787430833305,0.011865434781519088,0.00724644,0.011754001148031129,-0.02442592335338263,0.0660000000000025,-0.2652826686165818
57.3027,19087.0363,0.028950155390365988,0.11721556033100061,-0.050059208451786255,-0.00470937544487832,-0.01107356,-0.0027588540486182186,-0.02442592335338263,0.0660000000000025,-0.2652826686165818
57.3242,19087.0563,0.015142789176462987,0.08795623658406992,-0.01833869984628715,0.014507291228424429,-0.04162356,-0.0074731643870638645,-0.02442592335338263,0.0660000000000025,-0.2652826686165818
57.3387,19087.0763,-0.000642466042939209,0.043305955844832315,0.02416089148625955,-0.00989506325154714,-0.04834356,-0.005986289868548079,-0.12405797913691531,0.0660000000000025,-0.2567121691943424
57.3586,19087.0964,-0.01227179392744861,-0.002206443997730987,0.06726980546809214,-0.051994534857258384,0.029236440000000002,-0.02505832936410054,-0.13262847855915483,0.0660000000000025,-0.3563442249778769
57.3787,19087.1164,-0.01915748826423651,-0.04059324913936478,0.10024141207573255,-0.03142683608128235,0.06100644,-0.013950212194178625,-0.14119897798139436,0.0660000000000025,-0.45597628076141133
57.4046,19087.1364,-0.02253517169047571,-0.06441213985569098,0.11431202716001675,0.014045019915837382,0.01152644,0.008505246210788448,-0.14119897798139436,-0.03399999999999892,-0.45597628076141133
57.421,19087.1564,-0.02311266837840381,-0.06745851311339668,0.10484877550661614,0.031166199480402564,-0.05444356,0.0008998921547358463,-0.13262847855915483,-0.03399999999999892,-0.3563442249778769
57.4405,19087.1765,-0.01941482146319761,-0.04701114249477188,0.07238424245874635,0.014945993667600316,-0.02451356,0.004744189670581399,-0.14119897798139436,-0.03399999999999892,-0.45597628076141133
57.4625,19087.1965,-0.010349151844794211,-0.0047950603689910845,0.02256534644745975,0.025895556598210794,0.018856440000000002,0.0038022917840772716,-0.13262847855915483,-0.03399999999999892,-0.3563442249778769
57.4807,19087.2165,0.0012293368561547904,0.05056192995882001,-0.03466281754435986,0.01449593531668996,0.04084644,0.006629699543474101,-0.032996422775622154,-0.03399999999999892,-0.36491472440011624
57.5009,19087.2366,0.01069016340130749,0.10369150257657153,-0.08655911739226556,-0.0034097663387384694,0.02129644,-0.00900321279641918,-0.14119897798139436,-0.03399999999999892,-0.45597628076141133
57.5245,19087.2566,0.01298758662319989,0.1378214154507378,-0.12014064148750735,0.005581008948919157,0.0029764400000000003,-0.025715258144815196,-0.14119897798139436,-0.03399999999999892,-0.45597628076141133
57.5409,19087.2766,0.00342112218827139,0.14289050926730482,-0.12578973017492207,0.03658457634638518,-0.012293559999999999,-0.021637414519713617,-0.14119897798139436,0.0660000000000025,-0.45597628076141133
57.567,19087.2966,-0.017138281609726212,0.11358399404019773,-0.10054435907070104,0.026765569420810886,-0.013523559999999999,0.006798752644577775,-0.1497694774036339,0.0660000000000025,-0.5556083365449458
57.6048,19087.3167,-0.04363820898690271,0.06079375674970811,-0.04971511194655025,-0.026201616846028453,-0.01779356,0.039558843898631804,-0.14119897798139436,0.0660000000000025,-0.45597628076141133
57.6076,19087.3367,-0.06523933392451191,-0.019877735519718186,0.014761720211418042,-0.041506386189292734,-0.006193559999999999,-0.010011853447173995,-0.04156692219786168,-0.03399999999999892,-0.4645467801836507
57.6241,19087.3567,-0.07783294740245011,-0.09610099581802117,0.07748392480482064,-0.04778117021004264,-0.0037435599999999995,-0.04013490916024769,-0.04156692219786168,0.0660000000000025,-0.4645467801836507
57.6394,19087.3768,-0.0803270152116369,-0.15939540977159788,0.12473590901378834,-0.030640921284262986,0.007856440000000001,-0.026282946600295783,0.06663563300791407,-0.03399999999999892,-0.37348522382235594
57.6607,19087.3968,-0.071908239889406,-0.1969110928558133,0.14825286501094434,0.01616150474815944,-0.02451356,0.004639629577630076,0.06663563300791407,-0.03399999999999892,-0.37348522382235594
57.6814,19087.4168,-0.05297186007767981,-0.2029314362451889,0.14695047116006985,0.04253261007666221,-0.016573559999999998,0.04039103939253126,0.0752061324301536,-0.03399999999999892,-0.2738531680388214
57.7102,19087.4368,-0.02657455839067301,-0.18011894927031127,0.12571987409489993,0.06401124580997954,-0.01107356,0.047737242972303896,0.0752061324301536,-0.03399999999999892,-0.2738531680388214
57.7259,19087.4569,0.011817118272201686,-0.12672725413236638,0.09244512843679545,0.045423653794269166,0.01518644,0.038295552283793693,0.08377663185239312,-0.03399999999999892,-0.174221112255287
57.7534,19087.4769,0.048329290172412984,-0.0632154306913709,0.05446152688099414,0.013028665815602553,0.04695644,0.011041685514800245,0.08377663185239312,-0.03399999999999892,-0.174221112255287
57.7684,19087.4969,0.07239206914014108,-0.001235349317147385,0.017491624174205744,0.014149580008788706,0.03473644,0.009720757291347573,0.18340868763592935,-0.03399999999999892,-0.18279161167752667
57.7807,19087.517,0.08111796601170519,0.04832840248216031,-0.014719388254595553,0.06334296111753042,-0.011683559999999999,0.004264563096664317,0.20054968648040855,-0.03399999999999892,0.016472499889544013
57.8064,19087.537,0.0753149817440382,0.0722886790136254,-0.03973599370991966,0.07153560864649197,-0.004963559999999999,0.013978152879345071,0.20054968648040855,-0.03399999999999892,0.016472499889544013
57.8265,19087.557,0.06479756927921869,0.08291335005770481,-0.05638848939657985,0.07099063201448032,0.014576440000000001,0.02199435525145128,0.10091763069687232,-0.03399999999999892,0.02504299931178369
57.8447,19087.577,0.054678954026478294,0.07985031823704361,-0.06438062754482625,0.034927256020609615,0.007856440000000001,0.00180086590649878,0.10091763069687232,-0.13400000000000034,0.02504299931178369
57.8681,19087.5971,0.04676690554038039,0.06260198598650563,-0.06487720354342986,-0.0015969985796920256,0.01335644,-0.01651621972119715,0.10091763069687232,-0.13400000000000034,0.02504299931178369
57.8823,19087.6171,0.03587074718570109,0.03169140666865552,-0.06089589698294835,-0.0022047541199715875,0.0011364400000000003,-0.016463939674721487,0.0012855749133360965,-0.13400000000000034,0.03361349873402337
57.9038,19087.6371,0.02076578369603619,-0.007195168152201385,-0.05713438935472366,0.009969426046834142,-0.0006935599999999995,0.003947776011769788,-0.007284924508903428,-0.2339999999999982,-0.0660185570495111
57.9236,19087.6572,-0.0005120901451417109,-0.04174461588512469,-0.05870540494664454,0.04272212524513648,0.00969644,0.014007721102351798,0.0012855749133360965,-0.2339999999999982,0.03361349873402337
57.9436,19087.6772,-0.02586482140935461,-0.05708509803940878,-0.06925197933884915,0.014841433574648994,-0.011683559999999999,0.003528678590022274,-0.08977598144795707,-0.13400000000000034,0.1418160539397972
57.9648,19087.6972,-0.05090784453163211,-0.04359481729669919,-0.08901364551188846,-0.02227922065419774,-0.02818356,-0.02883899092173596,-0.08977598144795707,-0.2339999999999982,0.1418160539397972
57.9843,19087.7172,-0.07033883530245051,-0.004342159217060285,-0.11346090762707704,-0.018873625577528072,-0.019623559999999998,-0.024836139166578973,-0.08977598144795707,-0.13400000000000034,0.1418160539397972
58.0087,19087.7372,-0.07852359712606602,0.047058984669498115,-0.13309962076242027,0.0023208980999420087,-0.008633559999999998,0.0076770145728717746,-0.07263498260347802,-0.13400000000000034,0.3410801655068661
58.0186,19087.7572,-0.07031593768575492,0.09245991527572042,-0.13551417576826774,0.02950887915462699,0.006026440000000001,0.024338172580948246,-0.08120548202571753,-0.13400000000000034,0.24144810972333167
58.0386,19087.7772,-0.04748200596965811,0.11063852037002891,-0.10991146376529455,0.03997570870527982,0.00358644,0.032019375556887664,-0.08120548202571753,-0.13400000000000034,0.24144810972333167
58.0601,19087.7972,-0.010790269881400411,0.09395907236549922,-0.05277091121740586,0.0017540666944036404,-0.030013559999999998,0.022439914090164964,-0.17226703838701424,-0.03399999999999892,0.3496506649291058
58.0805,19087.8172,0.03625281261704159,0.04274756371938191,0.02852042638185144,-0.04325776774622738,-0.09232356000000001,0.019567082683830266,-0.17226703838701424,0.0660000000000025,0.3496506649291058
58.1036,19087.8372,0.08444044104814069,-0.03129148029594658,0.11611103610604824,-0.0677237581844091,-0.01840356,0.013080071671137146,-0.07263498260347802,-0.03399999999999892,0.3410801655068661
58.1418,19087.8571,0.1221718453212117,-0.10580360566298319,0.18686866009471384,-0.043256910696285164,0.03046644,-0.0018919480320586865,-0.07263498260347802,0.0660000000000025,0.3410801655068661
58.1543,19087.8771,0.1392003693814598,-0.1767042603923548,0.22018956775413323,-0.01607803579723631,-0.02390356,-0.006688963689928945,-0.08120548202571753,0.0660000000000025,0.24144810972333167
58.1656,19087.8971,0.1322305074801358,-0.20963429384509197,0.20598730724574943,0.04862323549107675,-0.06727356000000001,-0.017152686434541216,-0.07263498260347802,0.0660000000000025,0.3410801655068661
58.1805,19087.9171,0.10560838700558309,-0.19677379365597608,0.14786548372728375,0.07630530583745385,-0.030013559999999998,-0.023217493219446255,-0.07263498260347802,0.0660000000000025,0.3410801655068661
58.2022,19087.9372,0.07076845121899449,-0.14404997861163338,0.06114492045728284,0.01916021536475828,0.04695644,-0.031791420841454705,-0.06406448318123834,0.0660000000000025,0.44071222129040233
58.2202,19087.9572,0.029475270912465393,-0.06894536409360429,-0.03269422387695685,-0.015468030500858411,0.08421643999999999,-0.0423022813328893,-0.07263498260347802,0.0660000000000025,0.3410801655068661
58.2403,19087.9772,-0.011520975787513111,0.001925919892561613,-0.11274427534856775,0.03798874554547636,0.05733644,-0.02666626218695545,-0.08120548202571753,0.0660000000000025,0.24144810972333167
58.2585,19087.9972,-0.04760204151788011,0.05276354858853722,-0.16366019245847563,0.09574159155845148,-0.02390356,-0.01814461461142267,-0.08120548202571753,0.0660000000000025,0.24144810972333167
58.2794,19088.0173,-0.0690597668898823,0.07646465542553971,-0.17853584697827746,0.044370339415275926,-0.05261356,-0.030888732989807325,-0.08120548202571753,0.0660000000000025,0.24144810972333167
58.3013,19088.0373,-0.07015791684948672,0.07626839130283941,-0.15909640383387252,-0.002644313609089699,-8.355999999999967e-05,-0.0286912569379451,-0.08977598144795707,-0.03399999999999892,0.1418160539397972
58.3193,19088.0573,-0.05241825358521651,0.05802080391414922,-0.11380239515508496,0.009518510645981564,0.02435644,0.005823322679084137,-0.08977598144795707,-0.03399999999999892,0.1418160539397972
58.3387,19088.0774,-0.02257676960093511,0.028945238714920316,-0.05493558440967446,0.035220474232092985,0.03351644,0.019561083334234695,-0.08977598144795707,-0.03399999999999892,0.1418160539397972
58.3723,19088.0974,0.010633205594412089,0.0009023374987518137,0.004197962439877051,0.009132088253281339,-0.016573559999999998,-0.0057862758382815635,-0.08977598144795707,-0.03399999999999892,0.1418160539397972
58.3879,19088.1174,0.03876993084491679,-0.021742811569284884,0.05144513167375604,-0.03438151575709944,-0.01840356,-0.019828610616649957,-0.0983464808701966,-0.03399999999999892,0.04218399815626274
58.4078,19088.1374,0.05582545443140019,-0.032229848278085386,0.07736538266268275,-0.03640479640820464,-0.01107356,-0.0006446189723944986,-0.08977598144795707,-0.03399999999999892,0.1418160539397972
58.4262,19088.1575,0.05630144719380299,-0.030655972495943186,0.07679873938096055,0.05327530257746838,0.00663644,-0.02001191217304311,-0.08120548202571753,-0.03399999999999892,0.24144810972333167
58.4426,19088.1775,0.03873392649438649,-0.015332276915201185,0.049947462536547645,0.03419447832000813,0.05672644,-0.006717674862993447,-0.08977598144795707,-0.03399999999999892,0.1418160539397972
58.4634,19088.1975,0.010303529813881489,0.012506958949217314,0.00241641471049224,0.00532871487217698,0.022526440000000002,-0.007295862180266283,0.009856074335575622,-0.03399999999999892,0.13324555451755782
58.4803,19088.2176,-0.01867606779911811,0.05093782555804762,-0.055851956977533854,0.026265480779523207,-0.05017356,-0.04895352454076108,0.0012855749133360965,-0.03399999999999892,0.03361349873402337
58.4991,19088.2376,-0.03422779032845111,0.08935589490799642,-0.11243184607930136,-0.006237174098135298,0.02496644,-0.04187182799940731,0.0012855749133360965,-0.03399999999999892,0.03361349873402337
58.5181,19088.2576,-0.03207300777250481,0.11393071228470311,-0.15477132504050461,-0.045855593252350973,0.09215643999999999,-0.0035152006226308596,0.10091763069687232,0.0660000000000025,0.02504299931178369
58.5405,19088.2776,-0.01561987694237811,0.11442180058058632,-0.17301989318636185,0.04243940589544535,0.01213644,0.0036036704599668695,0.0012855749133360965,0.0660000000000025,0.03361349873402337
58.5594,19088.2977,0.008985704277403389,0.09202994147409713,-0.16287281273759074,0.019993053646114412,0.018856440000000002,0.07053370012303332,0.10091763069687232,0.0660000000000025,0.02504299931178369
58.58,19088.3177,0.03467601405441659,0.055806201369420015,-0.12722204483502575,-0.009010801973657572,-0.009853559999999999,0.09693662343064116,0.10091763069687232,-0.03399999999999892,0.02504299931178369
58.6067,19088.3377,0.055302488953045084,0.021252023580277717,-0.07555119958434416,-0.10648041362171856,0.03290644,0.011515955526578428,0.10091763069687232,-0.03399999999999892,0.02504299931178369
58.6251,19088.3578,0.06312878940096028,-0.021026739779557685,-0.02053595642615806,-0.1402917837611531,0.06405643999999999,0.003383837149786429,0.0923471312746328,-0.03399999999999892,-0.07458905647175076
58.6493,19088.3778,0.05505364982231449,-0.05404672750857939,0.02634799679776055,-0.045077927561025515,-0.04895356,-0.037296145489116396,0.0923471312746328,0.0660000000000025,-0.07458905647175076
58.6644,19088.3978,0.03402772435425499,-0.07627351525900458,0.05898343563829515,0.01638283789573878,-0.02634356,-0.0070222489862112845,0.10091763069687232,-0.03399999999999892,0.02504299931178369
58.6924,19088.4179,0.012372875842601293,-0.07310365804656699,0.07750293156896895,0.0044351331761657295,-0.003133559999999999,0.03937243553619809,0.10091763069687232,0.0660000000000025,0.02504299931178369
58.7073,19088.438,0.0024790212236572885,-0.05338176249011339,0.08598043212296284,-0.09125524279183833,0.00724644,-0.0038956236657355166,0.08377663185239312,-0.03399999999999892,-0.174221112255287
58.7219,19088.458,0.00489440302691839,-0.027525675732112686,0.08906272818785364,-0.06947117588536096,-0.015963559999999998,-0.014351097304653879,0.08377663185239312,-0.03399999999999892,-0.174221112255287
58.74,19088.4781,0.01432543913764809,-0.008752456394346887,0.08950080004729025,-0.022060994312658965,-0.03734356,0.01651919882679632,0.0923471312746328,-0.03399999999999892,-0.07458905647175076
58.7623,19088.4982,0.022704045141309193,-0.007125870607841287,0.08748266687147535,0.025956942800322586,-0.01840356,0.02586822099030356,0.0923471312746328,-0.03399999999999892,-0.07458905647175076
58.7978,19088.5183,0.02324759621974609,-0.021863477141558584,0.08118388899951905,0.03848058508107013,0.00724644,-0.013831189383452278,0.10091763069687232,-0.03399999999999892,0.02504299931178369
58.8113,19088.5383,0.01206639093538689,-0.034051290797994384,0.06807425311583724,0.0012962948940132696,0.01152644,-0.032703750504952105,0.0012855749133360965,-0.03399999999999892,0.03361349873402337
58.8282,19088.5584,-0.01061338486524101,-0.042355689728370685,0.046555438191204244,-0.030881859449270695,-0.01107356,-0.02196641456628484,-0.007284924508903428,-0.13400000000000034,-0.0660185570495111
58.8442,19088.5784,-0.041635612646649306,-0.046397654210527585,0.01736146506959134,-0.03176012137756469,0.01213644,-0.04641108588715371,0.0012855749133360965,-0.03399999999999892,0.03361349873402337
58.8608,19088.5985,-0.07484120371466581,-0.048929997510338885,-0.01562668001822376,0.0016631122692851218,0.03901644,-0.04990849243888412,0.0923471312746328,-0.03399999999999892,-0.07458905647175076
58.8814,19088.6186,-0.1052899575111858,-0.054245133095385284,-0.04596207356913205,0.030276581640374098,0.05733644,-0.009441915235595068,0.20054968648040855,-0.03399999999999892,0.016472499889544013
58.9077,19088.6386,-0.1318435847456919,-0.06364237507508719,-0.06685333782434956,0.03693693100388201,-0.0006935599999999995,0.053749769710733274,0.20054968648040855,-0.03399999999999892,0.016472499889544013
58.9227,19088.6587,-0.1351774126705117,-0.06848471548948969,-0.07375298717449365,0.05405586081234885,-0.06666356000000001,0.08170545325116535,0.19197918705816902,-0.03399999999999892,-0.08315955589399045
58.9479,19088.6787,-0.12063044508779981,-0.06801867848921958,-0.06679545498008425,-0.010435433240119339,-0.03612356,0.09461016136247423,0.3001817422639413,-0.03399999999999892,0.007902000467304642
58.9663,19088.6988,-0.0777064568970251,-0.06660232026380698,-0.05004955449668426,-0.06554813690607356,0.05367644,0.08831041576215705,0.20054968648040855,-0.03399999999999892,0.016472499889544013
58.992,19088.7189,-0.027582608784272412,-0.06099735488834168,-0.029278986938043552,-0.022139950038586344,0.04451644,0.10112727625438796,0.19197918705816902,-0.03399999999999892,-0.08315955589399045
59.0073,19088.7389,0.03885035176335379,-0.04999870941277118,-0.00852108060754335,0.08549588089289242,-0.08621356000000001,0.1335616885303969,0.19197918705816902,0.0660000000000025,-0.08315955589399045
59.0301,19088.759,0.09992605800485749,-0.029429203562960186,0.011056059456754544,0.056366467456584635,-0.05994356,0.16550576110821097,0.19197918705816902,0.0660000000000025,-0.08315955589399045
59.0649,19088.7791,0.1585093580558862,0.0026819036064694157,0.03001741153599584,-0.061138400690845765,0.02007644,0.10386972893826184,0.08377663185239312,-0.03399999999999892,-0.174221112255287
59.07,19088.7991,0.2166261948267746,0.024667214170285418,0.048634794373809645,-0.015313440117529763,0.15080643999999999,0.016551016805901386,0.08377663185239312,-0.03399999999999892,-0.174221112255287
59.0844,19088.8192,0.24761097994552236,0.03558889034468122,0.06630232101574264,-0.00158874947399812,0.07261643999999999,0.02640098466063853,0.08377663185239312,-0.03399999999999892,-0.174221112255287
59.1016,19088.8393,0.24380134939899548,0.028396500604653215,0.08037925426445225,-0.006858535306247664,-0.05261356,0.007844353574091,0.08377663185239312,0.0660000000000025,-0.174221112255287
59.1215,19088.8594,0.211431898207784,0.007451060207994617,0.08674836746056194,-0.017259479142592033,-0.05261356,-0.04889299538859151,-0.015855423931143104,0.0660000000000025,-0.16565061283304733
59.1469,19088.8795,0.16870903134168738,-0.017114106450517787,0.08165936292237175,-0.03455571115785645,0.06405643999999999,-0.08602725528527105,-0.015855423931143104,-0.03399999999999892,-0.16565061283304733
59.1631,19088.8997,0.11467678840110909,-0.040937571200335886,0.06411365683445104,-0.016355398584788537,0.03962644,-0.08820512631970491,-0.1154874797146758,-0.03399999999999892,-0.15708011341080794
59.1855,19088.9198,0.0658343957593659,-0.057529732222167784,0.035708418438071744,-0.015622620884187057,0.03534644,-0.07968658555021269,-0.23226053434269106,0.0660000000000025,-0.3477737255556372
59.2086,19088.9399,0.014956214254175593,-0.06876965390563158,0.0007907856728731483,0.00772020560471015,0.00724644,-0.05778660263904949,-0.32332209070398427,0.0660000000000025,-0.23957117034986336
59.2222,19088.96,-0.03333908545026751,-0.07252487498929139,-0.035347932938762164,0.04553132069326106,-0.008023559999999999,0.00395998897344648,-0.32332209070398427,0.0660000000000025,-0.23957117034986336
59.2447,19088.9802,-0.0721343847653087,-0.07467696930925179,-0.06770524549021285,0.05036015433023638,-0.042843559999999996,0.024391309677366132,-0.3404630895484633,0.0660000000000025,-0.4388352819169323
59.2649,19089.0003,-0.0931065572960342,-0.06995539946263299,-0.09241551997866505,0.04408537030948646,-0.02818356,-0.005731746035707565,-0.3404630895484633,0.0660000000000025,-0.4388352819169323
59.2858,19089.0204,-0.09722187082368301,-0.059059228678314986,-0.10711509459250444,0.034301288169057795,-0.0013035599999999996,-0.04106320137891901,-0.3404630895484633,0.0660000000000025,-0.4388352819169323
59.3053,19089.0405,-0.08922593459237502,-0.04317289345306759,-0.11054799133020195,0.014466367093683236,-0.0037435599999999995,-0.022183783857881386,-0.3318925901262238,0.0660000000000025,-0.3392032261333978
59.3252,19089.0605,-0.06985289266699961,-0.024844208516135686,-0.10210243274952514,0.014221465072692742,-0.02451356,0.03914285328292485,-0.32332209070398427,0.0660000000000025,-0.23957117034986336
59.3479,19089.0806,-0.03533369542643021,-0.004870288385532887,-0.08197861538316754,0.04788424417839414,-0.04650356,0.06689991549924652,-0.3318925901262238,0.0660000000000025,-0.3392032261333978
59.3692,19089.1007,0.019453331814989587,0.01908105691243101,-0.052061700213991466,0.03205581732043103,-0.03673356,0.01124169954506676,-0.23226053434269106,0.0660000000000025,-0.3477737255556372
59.3866,19089.1208,0.08204224347425279,0.04273789184856771,-0.016611825666218757,-0.041463212298453206,0.04817644,-0.030862271572841157,-0.2408310337649306,0.0660000000000025,-0.44740578133917164
59.4141,19089.1409,0.1313515804235157,0.0637273388642062,0.01820097678314385,-0.08267306606413599,0.02862644,-0.0181235097565954,-0.23226053434269106,0.0660000000000025,-0.3477737255556372
59.4242,19089.1609,0.1451088805563787,0.06366784776270962,0.04608299161298964,-0.027426234082223708,-0.03429356,0.0182052303256364,-0.23226053434269106,0.0660000000000025,-0.3477737255556372
59.446,19089.181,0.1164909468788044,0.05259055790184012,0.062210385457460445,0.03875109146908457,-0.07277356,0.010665761983892262,-0.23226053434269106,0.0660000000000025,-0.3477737255556372
59.4659,19089.201,0.058123675416506496,0.03738833954790211,0.06562401494141884,0.005277827531857433,-0.02512356,-0.043474618522608886,-0.12405797913691531,0.0660000000000025,-0.2567121691943424
59.4831,19089.2211,-0.01902958198525491,0.023358566539173814,0.060156941085260845,-0.09226763303609038,0.10009644,-0.07983828338998632,-0.02442592335338263,-0.03399999999999892,-0.2652826686165818
59.5118,19089.2412,-0.08863999263489242,0.017717363118529714,0.05241415346504075,-0.09629094685861797,0.07871644,-0.08378799804872542,-0.015855423931143104,-0.03399999999999892,-0.16565061283304733
59.5242,19089.2612,-0.1555445759952145,0.0011118918580079115,0.04860401163103174,-0.025202082350909764,-0.03734356,-0.041464943539336496,0.0923471312746328,-0.03399999999999892,-0.07458905647175076
59.552,19089.2813,-0.18742170247743192,-0.016814504769558987,0.052341016216490045,0.06896960111947346,-0.12530356,0.005617309299222052,0.10091763069687232,-0.03399999999999892,0.02504299931178369
59.5741,19089.3014,-0.1629459409594618,-0.03151625285962566,0.06385724093439155,0.0288661988292018,-0.016573559999999998,0.08815807513492675,-0.007284924508903428,-0.03399999999999892,-0.0660185570495111
59.5832,19089.3214,-0.0790321142031489,-0.04310632890181258,0.07903088335643495,-0.00893805985981131,0.06833644,0.10489968870632949,0.0012855749133360965,-0.03399999999999892,0.03361349873402337
59.6088,19089.3415,0.01830785541789419,-0.055280716427603786,0.08985167169844605,-0.022609613406925078,0.05306644,0.07419844567598297,-0.007284924508903428,-0.03399999999999892,-0.0660185570495111
59.6264,19089.3615,0.11019691314854238,-0.07634469179416359,0.08742205661680774,-0.010214100092540004,-0.07705356000000001,0.061479288877165576,-0.007284924508903428,-0.03399999999999892,-0.0660185570495111
59.6454,19089.3816,0.16581242475482708,-0.1000069322002736,0.06463539564267724,0.05285256269346642,-0.09537356000000001,0.04624811869768977,0.0923471312746328,-0.03399999999999892,-0.07458905647175076
59.6632,19089.4017,0.175429626460334,-0.11546279104591939,0.019200589524121944,-0.02132735956211526,0.00358644,0.0035787088803995977,0.10091763069687232,-0.03399999999999892,0.02504299931178369
59.6854,19089.4217,0.1404025934614058,-0.1123332314068147,-0.04418929118290617,-0.08610822936381238,0.13797644,-0.05093984491310787,0.10091763069687232,-0.03399999999999892,0.02504299931178369
59.7147,19089.4418,0.07310849825540089,-0.0887038670372001,-0.11386670538824147,-0.015886270872663703,0.05061644,-0.047164325655125794,-0.007284924508903428,-0.03399999999999892,-0.0660185570495111
59.746,19089.4618,-0.01257986291211881,-0.052505159230053486,-0.17358124820825582,0.04070334410622796,-0.05200356,-0.037930362446362116,-0.007284924508903428,-0.03399999999999892,-0.0660185570495111
59.7478,19089.4817,-0.09839933287180391,-0.008616803727278886,-0.20687725948205365,0.003966005464040891,0.06833644,-0.0016683651283810135,0.0923471312746328,0.0660000000000025,-0.07458905647175076
59.7626,19089.5017,-0.1413755814366443,0.029839754655590314,-0.20142044756459893,-0.010420970522344315,0.09582644,0.023487229119562636,-0.007284924508903428,0.16600000000000037,-0.0660185570495111
59.7865,19089.5217,-0.1312365379744336,0.05452883063765871,-0.15324957123724803,0.025149173229776507,0.03107644,0.0449476525416077,-0.015855423931143104,0.16600000000000037,-0.16565061283304733
59.8071,19089.5417,-0.0644993791097895,0.06414769670692691,-0.06905577950628906,-0.012768751707824062,-0.056283559999999996,0.03901558136650459,-0.02442592335338263,0.16600000000000037,-0.2652826686165818
59.8347,19089.5617,0.04530900546367658,0.06946671777844302,0.03458699839438355,-0.09865458346802884,-0.03429356,0.038434287243191194,-0.12405797913691531,0.0660000000000025,-0.2567121691943424
59.8561,19089.5817,0.1795503325252188,0.06274472889635452,0.13551424830082254,-0.11303106059262182,0.00724644,0.04947705435501853,-0.13262847855915483,0.0660000000000025,-0.3563442249778769
59.8643,19089.6017,0.30859133355566826,0.03500214322098202,0.21181793979012326,-0.15046764485642083,0.03718644,0.04902388919806761,-0.13262847855915483,0.0660000000000025,-0.3563442249778769
59.8838,19089.6217,0.3954860739157431,0.016830530643972115,0.24826375685838392,-0.039906702472131725,-0.03062356,0.03705422257372507,-0.032996422775622154,0.0660000000000025,-0.36491472440011624
59.9066,19089.6417,0.42822531160609656,0.0006310728989209133,0.23983919000692955,-0.04276367845453527,-0.01718356,-0.02462787603061855,-0.14119897798139436,0.0660000000000025,-0.45597628076141133
59.9275,19089.6617,0.4034526053104147,-0.009332160913488787,0.19174357076418536,-0.08139906132502008,-0.03795356,-0.13166045093401443,-0.1497694774036339,0.0660000000000025,-0.5556083365449458
59.9425,19089.6817,0.3191890117449997,-0.016254224758929486,0.11633862929076094,-0.15065469600631126,0.02679644,-0.17414120263277255,-0.15833997682587356,-0.03399999999999892,-0.655240392328482
59.9678,19089.7017,0.2119713005527735,-0.0037267680936495864,0.026755656014007548,-0.1771621794068704,-0.00741356,-0.18289157541163636,-0.2579720326094098,-0.03399999999999892,-0.6466698929062423
59.9869,19089.7217,0.07988450089297339,-0.004794089894912985,-0.06366615273143557,-0.15876635231573263,-0.06666356000000001,-0.13297452275792931,-0.15833997682587356,0.0660000000000025,-0.655240392328482
60.0117,19089.7417,-0.03772871770263101,-0.009773244856144687,-0.14440508732606505,-0.11865920043196376,-0.06788356000000001,-0.10147600901882896,-0.1669104762481131,0.0660000000000025,-0.7548724481120165
60.0241,19089.7617,-0.12580585850250553,-0.03586275847918929,-0.20490884139840093,-0.07931664422790143,-0.11248356000000001,-0.09321747577555893,-0.06727842046458041,0.0660000000000025,-0.7634429475342558
60.0458,19089.7817,-0.1682921320070885,-0.060686066280209186,-0.23558774896827794,-0.08158857649349434,-0.13874356000000002,-0.10527713264383498,-0.07584891988681994,0.0660000000000025,-0.8630750033177903
60.0677,19089.8017,-0.1726579644069072,-0.09146639315435388,-0.23062710640590256,-0.16830574669765636,-0.11553356000000001,-0.05858323056034667,0.015212636474476772,-0.03399999999999892,-0.9712775585235645
60.1106,19089.8217,-0.16729482845654162,-0.10204910124169358,-0.19111423880655531,-0.1752337099056237,-0.23159356,-0.010773556583325534,0.114844692258013,0.0660000000000025,-0.9798480579458041
60.1137,19089.8417,-0.10162798807153221,-0.15777852954304927,-0.12561290354390275,-0.04538335873418557,-0.27497356,-0.01949446827042539,0.114844692258013,0.16600000000000037,-0.9798480579458041
60.1336,19089.8617,-0.03714109606938281,-0.18482799881803658,-0.04872618550779746,0.016498753900424566,-0.15829356,-0.019909601836190123,0.10627419283577348,0.16600000000000037,-1.0794801137293386
60.1416,19089.8817,0.042425571439355395,-0.18365749660040218,0.024366263553292147,-0.03886849359837017,-0.02207356,0.0277710861245263,0.10627419283577348,0.2660000000000018,-1.0794801137293386
60.1637,19089.9016,0.11268014727264658,-0.1469742529792594,0.08168868315922534,-0.032740050855255005,0.05489644,0.04195804808064499,0.10627419283577348,0.36599999999999966,-1.0794801137293386
60.184,19089.9216,0.16632052262447328,-0.09231808110705018,0.11693799854805884,0.01416918502621708,-0.016573559999999998,0.03853509774264528,0.0977036934135338,0.36599999999999966,-1.1791121695128748
60.2044,19089.9416,0.1923881908068385,-0.03875749185392968,0.13023402653720265,0.030945723382765453,0.04878644,0.012571733924155561,0.0977036934135338,0.4660000000000011,-1.1791121695128748
60.231,19089.9616,0.18457614373794268,0.0016241714820198136,0.12609578357067294,0.04227345960038225,0.055506440000000004,-0.019677769826818542,0.08913319399129428,0.5660000000000025,-1.2787442252964092
60.2452,19089.9816,0.14102853175139818,0.03806452345503341,0.10997704388286444,0.0011576670658585454,0.01946644,0.00838933020610266,0.08913319399129428,0.5660000000000025,-1.2787442252964092
60.2631,19090.0016,0.0718254370456037,0.07937281161187001,0.08525010812067754,-0.026115269064349387,-0.07644356000000001,-0.0021419923527025275,0.1973357491970665,0.6660000000000004,-1.187682668935114
60.2841,19090.0216,-0.005470050471278711,0.13785827810418802,0.052500503411513945,-0.04862075775969379,-0.08499356000000001,-0.01430792341381435,0.18876524977482698,0.7660000000000018,-1.2873147247186487
60.3125,19090.0416,-0.0712644385929366,0.21484291910422332,0.011253699917587345,-0.09961694342190358,0.08666644,-0.0013395793442953468,0.18876524977482698,0.7660000000000018,-1.2873147247186487
60.3243,19090.0616,-0.11480594155278182,0.2810255839157623,-0.036541271553584345,-0.12743624889027927,0.055506440000000004,0.010247307349601418,0.18019475035258747,0.8659999999999997,-1.3869467805021831
60.3466,19090.0816,-0.1293755063228438,0.3345894812517971,-0.08593093808281936,0.04016747362985243,-0.22915356,-0.008455986408309185,0.08056269456905475,0.8659999999999997,-1.3783762810799438
60.3636,19090.1016,-0.11144543738039911,0.3384050713727132,-0.12709564675739454,-0.1295271293555774,-0.0006935599999999995,0.12140550641237788,-0.027639860636721005,0.8659999999999997,-1.4694378374412385
60.383,19090.1216,-0.07745607233170011,0.27661465445776,-0.14879773498594207,-0.4220486663671628,0.01702644,0.19193557435775607,-0.027639860636721005,0.8659999999999997,-1.4694378374412385
60.4068,19090.1416,-0.05027305615116101,0.14378980275955822,-0.13999479818848537,-0.3889851794335615,-0.21266356,0.09161273632078874,-0.044780859481200204,0.8659999999999997,-1.6687019490083093
60.436,19090.1616,-0.04935788746946501,-0.04706504635803509,-0.09331163152863876,-0.2908962420710009,-0.49243356,-0.0296401183552298,-0.044780859481200204,0.8659999999999997,-1.6687019490083093
60.4478,19090.1816,-0.03276464061408251,-0.33976690760289185,-0.01161086430720426,-0.33967963191363126,-0.43440356,-0.04077009029867841,-0.06192185832567926,0.8659999999999997,-1.867966060575378
60.4649,19090.2016,-0.03371320840602191,-0.596486417498946,0.09275458978629775,-0.31117382944153416,-0.20960356,0.012563056293490546,-0.07049235774791879,0.8659999999999997,-1.9675981163589125
60.4846,19090.2216,-0.03271342707095491,-0.7802625835345994,0.20059720872198944,-0.10563257696637353,-0.10209356,0.028606174161980767,-0.17869491295369452,0.9660000000000011,-2.058659672720207
60.51,19090.2416,-0.02065824904775001,-0.8618056591685181,0.28816032033573996,0.08130747782524396,-0.04467356,0.08487150286898343,-0.18726541237593422,0.9660000000000011,-2.1582917285037437
60.5249,19090.2616,-0.00379832039001261,-0.8228554062094579,0.33257618729508065,0.11447616763925325,0.24059644,0.15682352379975395,-0.20440641122041325,0.9660000000000011,-2.3575558400708125
60.5434,19090.2816,0.007381400735489589,-0.6790176223073188,0.31443444920807934,0.08129387215741114,0.44768644,0.1345354043960061,-0.20440641122041325,1.0660000000000025,-2.3575558400708125
60.5627,19090.3015,0.004324808031359689,-0.4600446350703492,0.22493617269697652,0.21499923396897264,0.18867644,-0.021658519374540885,-0.21297691064265278,1.0660000000000025,-2.457187895854347
60.5841,19090.3215,-0.004613985623453609,-0.21087852377416208,0.07207686858128465,0.3214424799058468,-0.05872356,-0.2098436534697242,-0.22154741006489231,1.0660000000000025,-2.5568199516378813
60.6112,19090.3415,-0.00463316310211901,0.012596310074600714,-0.11604727484798046,0.3536964831690176,-0.02634356,-0.2696379924450768,-0.3297499652706647,1.0660000000000025,-2.647881507999178
60.6486,19090.3615,-0.00450850324798981,0.1534274570851598,-0.29630643706170334,0.47433247614912044,-0.05200356,-0.1929549487019873,-0.3383204646929042,1.0660000000000025,-2.7475135637827126
60.6508,19090.3815,0.04744549054406859,0.40405627241455994,-0.4332830660893464,0.5537100849105621,-0.25786356,0.031367374813340766,-0.2386884089093715,1.1660000000000004,-2.756084063204952
60.6701,19090.4015,0.09243832396394439,0.504300703352506,-0.4902915443625645,0.4072568551271187,-0.38798356,0.12489327115225825,-0.3383204646929042,1.0660000000000025,-2.7475135637827126
60.6862,19090.4215,0.1825422238415519,0.5263444255390729,-0.4581450318220469,0.2232601240995838,-0.47289356,0.08860920479826488,-0.43795252047644045,1.0660000000000025,-2.738943064360473
60.7064,19090.4415,0.2898913115684326,0.45801560780308204,-0.34465662551555415,0.11128815611666569,-0.36110356,0.027119513905950535,-0.5290140768377336,1.0660000000000025,-2.630740509154699
60.7248,19090.4615,0.40948119273197325,0.3297732834734263,-0.17679423290888924,0.09776037269736002,-0.12836356000000002,0.03379346893729126,-0.43795252047644045,1.0660000000000025,-2.738943064360473
60.7444,19090.4815,0.5093754735028256,0.17342970679169722,0.01047474836295624,0.02516342168506598,0.07016644,0.16634309890176374,-0.5290140768377336,1.0660000000000025,-2.630740509154699
60.7696,19090.5015,0.5673877869110427,0.02210024786766021,0.18136077468746264,-0.011014477607334403,0.03657644,0.14493495552619434,-0.6286461326212698,0.9660000000000011,-2.6221700097324594
60.7862,19090.5215,0.5886250113603897,-0.10218299053095947,0.30537594147707947,0.009789874083938225,-0.05811356,0.03033023725200703,-0.7282781884048061,0.8659999999999997,-2.6135995103102196
60.8041,19090.5415,0.5705563034281426,-0.18229251777289068,0.36449480573957366,0.09769298714565265,-0.06605356000000001,-0.0667507022472554,-0.7197076889825663,0.7660000000000018,-2.5139674545266835
60.8338,19090.5615,0.5281963332900887,-0.21830110997423288,0.3536386046925223,0.059205981046415376,0.19967643999999998,-0.022358836308580633,-0.80219874592162,0.7660000000000018,-2.3061328435373754
60.8451,19090.5815,0.4278594130469333,-0.18622810935193707,0.28338442593835855,0.07347789807805702,0.25281644,-0.056086108422434396,-0.80219874592162,0.6660000000000004,-2.3061328435373754
60.8696,19090.6015,0.3212011857013506,-0.12271097000076278,0.16810530267651402,0.10394045269949417,0.10193643999999999,-0.1224711614534892,-0.80219874592162,0.6660000000000004,-2.3061328435373754
60.8853,19090.6215,0.1892609488738247,-0.022902689322176685,0.032367234078949245,0.09887378770355171,0.06405643999999999,-0.19560601843577152,-0.9018308017051562,0.5660000000000025,-2.2975623441151356
60.9119,19090.6415,0.09979209064451579,0.06802337335434772,-0.09884675970716254,0.10773868378094519,0.27847644,-0.19942985388424647,-0.8846898028606771,0.5660000000000025,-2.098298232548067
60.9274,19090.6615,0.010264535107728387,0.15949972002820162,-0.19923144903090023,0.1317165842770303,0.34627644,-0.1132076300217188,-0.8846898028606771,0.4660000000000011,-2.098298232548067
60.9485,19090.6815,-0.03452608134026701,0.2129788515394805,-0.24971843973623076,0.16508528812130616,0.17462644,-0.060282760595776766,-0.9843218586442098,0.36599999999999966,-2.0897277331258275
60.9627,19090.7015,-0.04333745942781251,0.2400267555563324,-0.24215846731827956,0.12410276685279828,0.04695644,0.019272364634947997,-0.8846898028606771,0.36599999999999966,-2.098298232548067
60.9862,19090.7214,-0.008549012913218211,0.23240324487912223,-0.18128066551209232,-0.021970039887540444,-0.05444356,0.0673986114343781,-0.8846898028606771,0.36599999999999966,-2.098298232548067
61.0091,19090.7414,0.07553351060999929,0.20191319824688062,-0.08525741623497717,0.01192457122753254,0.03290644,0.0693809679507421,-0.7936282464993805,0.36599999999999966,-2.206500787753841
61.0557,19090.7614,0.2039275881355197,0.15278348121553761,0.01851549687748244,0.059148344437800815,0.17523644,0.06961451405999813,-0.7850577470771409,0.36599999999999966,-2.1068687319703066
61.0636,19090.7814,0.3145332555880934,0.11279316850674553,0.10115862053055684,0.0269261591537351,0.33711644,0.1226612988402215,-0.7764872476549013,0.36599999999999966,-2.0072366761867704
61.0643,19090.8014,0.3934602730892799,0.10446051993215782,0.13835714416558553,0.17354308547614325,0.22044644,0.08797788038457416,-0.7679167482326618,0.36599999999999966,-1.9076046204032358
61.0854,19090.8214,0.4252233652533187,0.11532220250420341,0.11533899987492754,0.16520409666954694,0.03107644,0.06232819684493839,-0.6597141930268895,0.4660000000000011,-1.8165430640419407
61.105,19090.8414,0.4164480011670244,0.17995897273572922,0.02790015566603224,0.05964018397339458,0.03229644,0.0824495868635013,-0.5515116378211138,0.4660000000000011,-1.7254815076806458
61.122,19090.8614,0.3835206008083121,0.2827787833531804,-0.11293191852432795,0.06007288706297491,0.20761643999999999,0.016188698942826207,-0.5429411383988743,0.4660000000000011,-1.6258494518971114
61.142,19090.8814,0.3438139434515399,0.38705319147927164,-0.27859571710192516,0.11774388480646765,0.23082644,-0.004710892423276057,-0.4347385831930984,0.36599999999999966,-1.5347878955358147
61.1687,19090.9014,0.3105104532377204,0.4515489934257193,-0.4264382232539724,0.32164538647966834,0.14102644,-0.09337249468385869,-0.32653602798732617,0.36599999999999966,-1.4437263391745199
61.1845,19090.9214,0.2968117514907882,0.506572356310071,-0.515387506100813,0.31435146294637134,-0.22304356,-0.0712861034102618,-0.0019283623700024307,0.2660000000000018,-1.170541670090635
61.2031,19090.9414,0.32724255580933737,0.507564445083524,-0.512657955158662,-0.00695484629350508,-0.22610356,0.04954604687536755,0.2144767480415457,0.16600000000000037,-0.9884185573680435
61.2215,19090.9614,0.408891752976015,0.4436158017800979,-0.4092947864290025,-0.27382669976545476,-0.11492356000000001,0.13320611993561673,0.23161774688602477,0.16600000000000037,-0.7891544458009746
61.2437,19090.9814,0.5119643818887459,0.31993836774898643,-0.22437798863342234,-0.22751150662518663,0.05428644,0.24387387216895554,0.547654913081109,-0.03399999999999892,-0.6156018325006226
61.2617,19091.0014,0.6078155319249846,0.1515169907240435,-0.004236724397543051,-0.01806210641348477,-0.28902356,0.07012370885692193,0.6644279677091244,-0.03399999999999892,-0.42490822035579334
61.2821,19091.0214,0.6477351042099353,0.017812586626895617,0.18944172664135756,-0.13701656740694418,-0.55780356,0.09139697399783385,0.980465133904205,-0.13400000000000034,-0.25135560705544285
61.3054,19091.0414,0.6319519749828731,-0.009186495757483787,0.29728383281717924,-0.2458496971077098,-0.42096356,0.10198346914666971,1.214011243160236,-0.33399999999999963,0.13003161723421738
61.3261,19091.0614,0.5919171085633851,0.09347340571122331,0.28191359266588223,-0.1563542923845861,0.02313644,0.009061364492049018,1.5300484093553164,-0.4339999999999975,0.3035842305345696
61.3437,19091.0814,0.520740783955678,0.305772493082518,0.14616874644676714,-0.005837681693816158,0.38537644,-0.06581416092289018,1.8375150761281611,-0.5339999999999989,0.3775047880513854
61.3634,19091.1013,0.4214004077761079,0.5738650021828026,-0.06998602695773355,0.08115910105399644,0.29252644,-0.06655293797308721,2.04534968711747,-0.6340000000000003,0.45999584499044077
61.3819,19091.1213,0.29867516233132374,0.8271147550204899,-0.3052419540181269,0.09155318849080302,0.07688644,-0.06683480027283613,2.162122741745485,-0.7339999999999982,0.65068945713527
61.404,19091.1413,0.1848601534494393,0.9940792539849106,-0.5006171547585453,0.04313436626734621,-0.07460356,-0.038139482632264764,2.2874662957957397,-0.8339999999999996,0.9410151250636355
61.4236,19091.1613,0.10329866927463038,1.0272756052576448,-0.6151651222251268,-0.1206014898635288,-0.17784356,-0.03141174771704949,2.395668851001512,-0.8339999999999996,1.0320766814249305
61.4419,19091.1813,0.056761776213949094,0.9102130671525537,-0.6327127036120445,-0.2636346618525275,-0.12592356000000002,-0.005005931865886649,2.3870983515792723,-0.7339999999999982,0.9324446256413961
61.4616,19091.2013,0.026615962372065087,0.6840160756960557,-0.5649069084208854,-0.3419364586739924,-0.10820356,0.025637674555845317,2.2703252969512606,-0.7339999999999982,0.7417510134965666
61.4856,19091.2213,-0.00722512064886421,0.4336677446262414,-0.44352904479792843,-0.3537978156118864,-0.08682356000000001,0.03033152282692037,1.9457176313339368,-0.7339999999999982,0.46856634441268014
61.5057,19091.2413,-0.05089064436327071,0.21121235504062452,-0.30539851468573925,-0.404815856047623,0.042066440000000004,0.07151555796309365,1.6211099657166133,-0.7339999999999982,0.19538167532879375
61.5265,19091.2613,-0.09881319543807951,0.09606454108618431,-0.18320204505078375,-0.3689289252106076,0.15446643999999998,0.061071440235909755,1.4132753547273047,-0.5339999999999989,0.11289061838973832
61.5433,19091.2813,-0.1521739170404863,0.10259086970868542,-0.09062815202337195,-0.20502487302857117,0.31573644,0.04206410801099521,1.1882997448935173,-0.6340000000000003,-0.16886455011638601
61.562,19091.3013,-0.201881050172311,0.23362774116465085,-0.02211404272128585,-0.10442156539801108,0.38170644,0.09962368926199883,0.9633241350597259,-0.6340000000000003,-0.45061971862251177
61.5819,19091.3213,-0.2468874155012323,0.4406028193055401,0.039634269208953646,-0.05953871697368475,0.27114644,0.17240479888062823,0.8379805810094746,-0.5339999999999989,-0.7409453865508776
61.6072,19091.3413,-0.27507690368731197,0.6618013730187008,0.11092878736749004,-0.019271618144448322,0.08971644,0.14870651092819365,0.5048024159699113,-0.4339999999999975,-1.1137621114182967
61.6217,19091.3613,-0.26358360432310357,0.8409584032579355,0.19609072296519894,0.02005668960432454,0.041456440000000004,0.05703859173277493,0.07199219514681522,-0.33399999999999963,-1.4780083368634782
61.6416,19091.3813,-0.2132229714412493,0.9490754280470158,0.28094331904641506,-0.001091553376265448,0.10437643999999999,-0.053345048444716624,-0.13584241584249676,-0.33399999999999963,-1.5604993938025333
61.6635,19091.4013,-0.1464828206024808,0.9883677225341807,0.33629677302858624,-0.1022525862567278,0.20822643999999998,-0.07468355651248033,-0.3522475262540449,-0.2339999999999982,-1.7426225065251248
61.6821,19091.4213,-0.10966099920980892,0.9764013376595133,0.3299403197013506,-0.17854074423893762,0.11781644,-0.09203913923624377,-0.47759108030429614,-0.2339999999999982,-2.0329481744534887
61.7055,19091.4413,-0.1155298947461172,0.9573478407096478,0.23817335878084506,-0.14219979119502912,-0.07338356,-0.16137887194311565,-0.7025666901380873,-0.2339999999999982,-2.3147033429596147
61.7252,19091.4613,-0.17625521327002272,0.9523949419808405,0.06055594584628604,-0.11374691155686437,-0.11736356,-0.25824383485693764,-0.80219874592162,-0.33399999999999963,-2.3061328435373754
61.7443,19091.4813,-0.2712044690081834,0.9845728069474948,-0.17698452720819052,-0.10098233111110912,0.04573644,-0.3022597772647044,-0.8107692453438595,-0.33399999999999963,-2.4057648993209098
61.7641,19091.5013,-0.3781366521204884,1.045767142845327,-0.4230987577075084,-0.05351076333629534,0.23326644,-0.24932355192702793,-0.7111371895603268,-0.33399999999999963,-2.414335398743149
61.7859,19091.5213,-0.47485685604211847,1.101412575753181,-0.615234441524462,-0.02499810446466046,0.21494644,-0.11750220015096027,-0.5118730779932544,-0.33399999999999963,-2.4314763975876286
61.8211,19091.5412,-0.5327664221729069,1.1084259569714794,-0.6988345755010862,0.006851049832052282,0.018856440000000002,-0.06077310029397164,-0.2954679675817064,-0.4339999999999975,-2.249353284865039
61.83,19091.5612,-0.5335135385971775,1.0349644300114813,-0.64481079082247,-0.004657095398402658,-0.16135356,-0.002151098508338656,0.11163075497467095,-0.5339999999999989,-2.184003226770462
61.8451,19091.5812,-0.4612846207467044,0.8799302619678947,-0.4589998081352139,-0.04637153731756979,-0.21083356,0.047426455237004936,0.2026923113359676,-0.5339999999999989,-2.2922057819762363
61.8662,19091.6012,-0.33766045784071796,0.679696728493789,-0.18379508997573135,-0.14531463207879933,-0.12042356000000001,0.08045790992901561,0.518729477531052,-0.7339999999999982,-2.1186531686758845
61.8878,19091.6212,-0.1970105592459887,0.4831155535272322,0.11573193890046904,-0.174049374016713,-0.05200356,0.16692878540603104,0.609791033892345,-0.8339999999999996,-2.22685572388166
61.9156,19091.6412,-0.10321675007411842,0.3544711809287755,0.36955445838115636,-0.12993112127209322,-0.12530356,0.2164699145288301,1.016889756448726,-0.9339999999999975,-2.1615056657870824
61.9357,19091.6613,-0.069062764690969,0.29934105067709194,0.5288044788914006,-0.10229822416615121,-0.15340356,0.1742462778127392,1.432558978427343,-1.033999999999999,-1.9965235519089715
61.9553,19091.6813,-0.1147471270009404,0.33588529654726473,0.5787159931724591,-0.040296231670872505,-0.22915356,0.082464692368733,1.8310872015614807,-1.1340000000000003,-2.0308055495979294
61.9724,19091.7014,-0.20944982830254302,0.4477706342761178,0.5455958575320248,0.05379896009216722,-0.24259356,-0.013924393564669135,2.0389218125507926,-1.2339999999999982,-1.9483144926588745
61.9871,19091.7214,-0.3111647508743737,0.6060436734496089,0.48220345334083026,0.14118612908866282,-0.16135356,-0.06006367720429577,2.229615424695622,-1.2339999999999982,-2.065087547286888
62.0157,19091.7415,-0.37880223476517505,0.7649538390927032,0.4432069143087535,0.06930545756558246,-0.03306356,-0.004829915234002408,2.4288795362626914,-1.3339999999999996,-2.082228546131367
62.0271,19091.7616,-0.37928828845744156,0.8880847448564169,0.4619071849968094,-0.09388713603316534,-0.11309356000000001,0.03679967874088456,2.611002648985281,-1.4339999999999975,-2.298633656542915
62.0466,19091.7816,-0.3284333909615422,0.9429213731464466,0.5413776550838886,-0.10542484948662699,-0.36232356,0.06660819712516206,2.494229594357269,-1.533999999999999,-2.489327268687746
62.0812,19091.8017,-0.30446465687021884,0.8977596584982602,0.661804076145652,-0.024480017774586072,-0.58895356,0.17368480296933972,2.3860270391514935,-1.533999999999999,-2.580388825049041
62.0935,19091.8217,-0.1284980818868039,0.7262935517091842,0.7992071705555673,0.11858647203091657,-0.62316356,0.2901317500943374,1.978928316595116,-1.4339999999999975,-2.6457388831436175
62.1207,19091.8418,0.006822026677722689,0.4514369100474393,0.9175640200060439,0.11209656847466844,-0.36843356,0.1790994302418251,1.6457501515555524,-1.533999999999999,-3.018555608011038
62.1367,19091.8619,0.18352724349088298,0.11003832475892172,0.996607882643492,-0.11134642179993785,-0.07094356,0.0904132949266463,1.013675819165384,-1.6340000000000003,-3.3656608346117403
62.1448,19091.8819,0.3334846847088192,-0.28308048236072286,1.0281208844742287,-0.23176193868240358,-0.13325356,0.002058409414137082,0.6976386529702996,-1.7339999999999982,-3.5392134479120925
62.1635,19091.902,0.42376690642328174,-0.644028606814944,1.0112746719116041,-0.23940821687319738,-0.42402356,-0.05124238354271294,0.3901719861974587,-1.7339999999999982,-3.6131340054289067
62.1836,19091.9221,0.47768949606323374,-0.9419099560785451,0.9396297105823311,-0.23204155122605413,-0.5394735599999999,-0.06536570954062149,0.05699382115789508,-1.6340000000000003,-3.985950730296329
62.2138,19091.9421,0.5117735902351737,-1.1072556797222457,0.803448861072296,-0.16712291064614454,-0.48999356,-0.030481205742279832,-0.1422702904091738,-1.7339999999999982,-3.9688097314518505
62.2256,19091.9622,0.6554430657866069,-1.1173169882699892,0.5871953604220049,-0.05220451209310326,-0.33850356,-0.006030320809329834,-0.48401895487097674,-1.7339999999999982,-4.441258512102806
62.2513,19091.9822,0.8187511583813443,-0.9401934160365697,0.3036074140276244,0.02543639209166431,-0.18334356000000002,-0.01577037200897675,-1.098952288416666,-1.7339999999999982,-4.589099627136437
62.2665,19092.0023,0.992294475363655,-0.6390923473610414,-0.02457967087377856,-0.0009960994389502569,-0.16257356,-0.07358771103010424,-1.531762509239762,-1.7339999999999982,-4.9533458525816165
62.2879,19092.0224,1.1098125445273972,-0.3175514568119548,-0.3482872252355054,-0.020415672686074526,-0.19311356000000002,-0.1853445594775241,-1.856370174857086,-1.8339999999999996,-5.226530521665503
62.3113,19092.0424,1.1436044872840503,-0.07379174854352179,-0.6074886434676735,0.11949173103239062,-0.31651356,-0.340847486732153,-2.1724073410521703,-1.8339999999999996,-5.400083134965853
62.3291,19092.0625,1.082686844149116,0.0644319721815787,-0.7516558491545734,0.27404836801956156,-0.33972356,-0.5184572673277494,-2.4884445072472525,-1.8339999999999996,-5.573635748266204
62.3449,19092.0825,0.9348386395365696,0.0744940817687775,-0.7591850424637713,-0.22275970035176873,-0.042843559999999996,-0.4064461964412173,-2.696279118236563,-1.9339999999999975,-5.656126805205261
62.3687,19092.1026,0.7662810521968132,0.006566293529881716,-0.6485884858518688,-0.7199373715106829,0.43179644,-0.22755737593809447,-2.713420117081042,-2.033999999999999,-5.85539091677233
62.388,19092.1227,0.5580009559538749,-0.1357417069012184,-0.4654378204887163,-0.632493422955515,0.11476644,-0.3656799731518782,-2.7391316153477603,-2.033999999999999,-6.1542870841229345
62.415,19092.1427,0.39197931417395415,-0.2516352448620239,-0.29106773403704234,-0.3510473280848042,0.059176440000000004,-0.42237993331083123,-2.639499559564224,-2.033999999999999,-6.162857583545175
62.4309,19092.1628,0.2222277506094321,-0.3328716087801288,-0.19943750269363175,-0.2377339698110629,-0.030013559999999998,-0.37388301241138927,-2.349173891635859,-2.1340000000000003,-6.288201137595429
62.4485,19092.1829,0.11246819626975349,-0.29432563032605685,-0.23401880975581302,0.028500345635114943,-0.17845356,-0.29378591022345063,-2.2666828346968053,-2.1340000000000003,-6.496035748584737
62.4723,19092.2029,0.053471960364063986,-0.14140928286839857,-0.38768957405457766,0.24157967374586364,-0.20166356000000002,-0.1759944660015891,-1.868154611562664,-2.1340000000000003,-6.530317746273696
62.49,19092.223,0.03210599784384819,0.12122315941117573,-0.6147308442028244,0.2590418520561912,-0.20105356,-0.11557876581812415,-1.768522555779131,-2.1340000000000003,-6.538888245695936
62.5148,19092.243,0.01466937989944539,0.4049967671156534,-0.8531926675567366,0.23065196558877984,-0.20105356,-0.18179926526027196,-1.469626388428526,-2.1340000000000003,-6.564599743962654
62.5235,19092.2631,-0.016341871843652912,0.6826839811544458,-1.0460655938745143,0.10135708991114561,-0.06544356000000001,-0.1952073830813946,-1.1621597216556814,-2.233999999999998,-6.490679186445837
62.5435,19092.2831,-0.051958438641213314,0.863237305053199,-1.1470321032059356,0.035409346613110584,0.025576440000000002,-0.17788158284312344,-0.6554289433157678,-2.233999999999998,-6.433899627773502
62.5694,19092.3031,-0.07019671407465422,0.9344772166479228,-1.133225208136684,0.02906781982810998,0.11476644,-0.13748946185356511,-0.23975972133715062,-2.233999999999998,-6.268917513895388
62.5862,19092.3231,-0.0672495707850905,0.9113666865510655,-1.0060167639681248,0.0057514547561789454,0.19356644,-0.07355589305099917,0.05913644601345446,-2.3339999999999996,-6.2946290121621065
62.6037,19092.3431,-0.00047793783327220937,0.8216740024123173,-0.7864718082397989,-0.004595709196290867,-0.08621356000000001,0.019914830697887635,0.35803261336405967,-2.3339999999999996,-6.320340510428825
62.6283,19092.363,0.1267302762165426,0.7108972632831744,-0.5111255118287371,-0.010856780417965195,-0.31956356,0.12529919143114407,0.5572967249311285,-2.3339999999999996,-6.337481509273304
62.6441,19092.383,0.35324653099626124,0.6049130011235778,-0.22390413670626824,-0.007406511613057104,-0.34644356,0.2580519422319237,0.8647633917039731,-2.3339999999999996,-6.26356095175649
62.6643,19092.403,0.6193516472825675,0.5371348198056968,0.030405034746000245,0.1433016497397999,-0.19372356000000002,0.31375043953338794,0.9643954474875057,-2.3339999999999996,-6.272131451178729
62.687,19092.423,0.8901131932796811,0.5181492048641329,0.21633045890105174,0.22279849557445341,-0.10698356,0.27564696328329585,0.9558249480652663,-2.3339999999999996,-6.371763506962262
62.7113,19092.443,1.1158944103607187,0.5472730084553998,0.3162501113698488,0.23995235016806588,-0.10881356,0.23983502431622516,0.7394198376537181,-2.4339999999999975,-6.553886619684856
62.7247,19092.463,1.3067264378353984,0.6507146723731885,0.32502550601524965,0.3272144970042396,-0.28169356,0.18512491986063062,0.41481217203639453,-2.4339999999999975,-6.827071288768738
62.747,19092.483,1.3862951071550424,0.7736933952395029,0.27316093085475257,0.4321328368314118,-0.44479356000000003,0.09332512210535218,0.41481217203639453,-2.533999999999999,-6.827071288768738
62.7637,19092.503,1.427393031658493,0.9669663827315574,0.17777093665741564,0.4356051746723321,-0.40752356,0.02681279715787712,-0.0008570499422226669,-2.533999999999999,-6.992053402646853
62.7863,19092.523,1.399803855703712,1.18350994117361,0.08201943177243404,0.3524640453520995,-0.25298356,0.029668916090338466,-0.20869166093153096,-2.6340000000000003,-7.074544459585907
62.8129,19092.543,1.3083070701424602,1.4042377176847622,0.01902702074342634,0.2754217905519754,-0.24320356,0.017898513577562995,-0.5161583277043758,-2.733999999999998,-7.1484650171027235
62.8341,19092.563,1.1620697671127111,1.6003428683485739,0.01208475139022834,0.270041445277179,-0.35377356,-0.08035187056786403,-0.923257050260753,-2.733999999999998,-7.2138150751972985
62.8545,19092.583,0.9507864287291456,1.6910089865492839,0.08275114687572614,0.20030843377806906,-0.27069356,-0.1853216333915696,-1.4385583280229064,-2.9339999999999975,-7.370226689653173
62.8682,19092.603,0.6766361454971601,1.6231359319399683,0.23373177588470312,-0.03041487436200142,-0.18578356000000001,-0.3015852789601742,-1.8713685488460057,-3.033999999999999,-7.734472915098353
62.8878,19092.623,0.383042175997946,1.3526435083157005,0.45132621828270236,-0.29756098381546275,-0.02268356,-0.39939942468500916,-2.2784672714023833,-3.1340000000000003,-7.7998229731929305
62.9125,19092.643,0.106511810454607,0.9209063526408883,0.701306174703696,-0.5237148230573234,0.28091644,-0.34131318624450896,-2.603074937019707,-3.3339999999999996,-8.073007642276814
62.925,19092.663,-0.2423386014939978,0.29738089954161884,0.9402522465723052,-0.7647681541510192,0.48433644,-0.10721235141337665,-2.819480047431255,-3.3339999999999996,-8.255130754999406
62.9446,19092.683,-0.5445961968158513,-0.2966984319939166,1.0910391574518459,-0.9057129096933036,0.31817644,0.057583675496029385,-3.1355172136263394,-3.4339999999999975,-8.428683368299756
62.9651,19092.703,-0.8262134078203759,-0.7992686154299333,1.0910505338854934,-0.8617893144168116,0.17462644,0.033570850214798595,-3.1526582124708185,-3.533999999999999,-8.627947479866826
62.9914,19092.723,-1.0488634111938864,-1.1060148870683086,0.9043674717203952,-0.6245608900840184,0.29618644,0.004582528625229412,-3.161228711893058,-3.533999999999999,-8.727579535650362
63.0231,19092.7431,-1.1930117942581908,-1.225666287061352,0.5452263022704539,-0.3506959376084924,0.5154864400000001,0.03068698429045775,-3.1697992113152975,-3.6340000000000003,-8.827211591433896
63.0281,19092.7631,-1.4005045725126815,-1.1967273520821085,0.07452253342158635,-0.043667759012338776,0.63216644,0.03615324882196214,-2.870903043964692,-3.733999999999998,-8.852923089700614
63.0878,19092.7831,-1.3224230186345791,-1.1554488982471065,-0.3434425182970827,0.11706713674583905,0.62544644,0.10141760192231633,-2.463804321408315,-3.8339999999999996,-8.787573031606039
63.0945,19092.8031,-1.3315481930292363,-1.0008044257250113,-0.6152082539687008,0.17657115005326326,0.5613064400000001,0.2728786919699125,-2.364172265624779,-3.8339999999999996,-8.796143531028278
63.0984,19092.8232,-1.2009379658757513,-0.9478840553576525,-0.6531516630679836,0.19971996186148952,0.47272643999999997,0.3922840683642245,-1.8488709878626255,-3.9339999999999975,-8.639731916572405
63.1079,19092.8432,-0.935696987154699,-1.0565444519541312,-0.4597631855613479,0.1505311873961873,0.39209644,0.5117895053392912,-1.6410363768733172,-3.8339999999999996,-8.55724085963335
63.1324,19092.8632,-0.6177508883555924,-1.2631509594903492,-0.11146155899677766,-0.015346436540305389,0.19783644,0.5934966829749403,-1.0346735427498672,-4.134,-8.509031800383251
63.1456,19092.8833,-0.2560569457247467,-1.4977993592635777,0.26700826991949733,-0.16777105466495137,-0.10026356,0.5036094992969775,-0.5279427644099538,-4.334,-8.452252241710918
63.1657,19092.9033,0.04372599280698819,-1.63674647658763,0.5389558968591681,-0.052045529328820714,-0.26458356,0.3379216047914446,-0.47651976787651634,-4.334,-7.854459907009707
63.1846,19092.9233,0.28740286827679007,-1.6204757616256156,0.6024529593040672,0.07935383248194446,0.03229644,0.16903862810130088,-0.20333509879263345,-4.233999999999998,-8.17906757262703
63.2062,19092.9433,0.4674261352600513,-1.4151795215799465,0.43220576481326345,0.20205510156032147,0.33345644,0.04873988427346314,-0.11227354243133664,-4.4339999999999975,-8.287270127832802
63.2276,19092.9634,0.573197309460511,-1.034357130599688,0.08690250907673334,0.26761867222175467,0.48494644,-0.0372255460001257,-0.012641486647800354,-4.4339999999999975,-8.295840627255043
63.2488,19092.9834,0.5930275270828272,-0.5487439091416443,-0.32336085636345546,0.25688133628308735,0.55580644,-0.06940370034340966,0.29482518012504055,-4.634,-8.221920069738228
63.264,19093.0034,0.5207174143767634,-0.05055583199217718,-0.6833342829947405,0.1924013981423536,0.5912364400000001,-0.07060185616263874,0.3205366783917593,-4.734000000000002,-7.923023902387623
63.2856,19093.0235,0.43410922383209116,0.34158681661299733,-0.9149245085678747,0.14726539859134288,0.27969644,-0.1035045391008303,0.3376776772362383,-4.833999999999996,-7.723759790820554
63.3087,19093.0435,0.35582194797444766,0.584984537776232,-0.9831100312024642,0.09157450760811582,0.09338643999999999,-0.08093852125331633,0.45445073186425355,-4.9339999999999975,-7.533066178675725
63.3322,19093.0635,0.31287166369581365,0.6762005424941167,-0.9003262910714614,0.001831308320446573,0.22593644,-0.040719095827116095,0.0730635075745952,-5.033999999999999,-7.299520069419694
63.3464,19093.0835,0.29129213770994444,0.643525413733769,-0.7081385145624349,-0.046567908885581856,0.36765644,-0.004678431656714322,-0.22583265977601,-5.033999999999999,-7.273808571152975
63.3668,19093.1036,0.3012869265789937,0.5393292611212162,-0.46079389224099077,-0.1117283446804414,0.32917644,-0.013787372705156073,-0.13477110341471693,-5.134,-7.3820111263587505
63.3849,19093.1236,0.3008109371252877,0.3978448777150068,-0.20380765968752856,-0.16144763305998028,0.21005643999999998,0.021142340477637894,-0.5332993265488548,-5.134,-7.347729128669792
63.4169,19093.1436,0.28008655560686546,0.2559483746023614,0.03105646180804414,-0.07362176162430878,-0.03367356,0.008689404817123821,-0.6415018817546307,-5.234000000000002,-7.43879068503109
63.4303,19093.1637,0.2364513278342821,0.11105494789900242,0.23086734599168884,0.09271192001268981,-0.12592356000000002,0.0035749592869023642,-0.7411339375381634,-5.234000000000002,-7.43022018560885
63.4453,19093.1837,0.17843448662432979,-0.013135655936867486,0.394929641255667,0.14660600579204433,0.03107644,0.06699933329254451,-1.0486006043110079,-5.234000000000002,-7.504140743125664
63.4716,19093.2037,0.10301999641624798,-0.11583915122395508,0.5277340265561467,0.1946853291071377,0.03107644,0.11988327858374534,-1.148232660094544,-5.234000000000002,-7.495570243703424
63.4855,19093.2237,0.04526347298298988,-0.13214709906485758,0.6294232393036626,0.20986732604617836,-0.11125356,0.12532211751709857,-1.4556993268673855,-5.333999999999996,-7.569490801220242
63.5148,19093.2438,-0.02592395245606561,-0.08780543096942608,0.6932248582793491,0.14923393517738856,-0.11858356,0.10478312991418702,-1.4471288274451457,-5.333999999999996,-7.469858745436706
63.5358,19093.2638,-0.05383950927028491,0.03630105996861561,0.712009748997572,0.2280821013370213,-0.23893356000000002,0.05202131423975311,-1.5467608832286819,-5.333999999999996,-7.461288246014466
63.5468,19093.2838,0.010446987339660187,0.2427539060220668,0.6899683397448356,0.3975326593514029,-0.51320356,-0.037972572156016654,-1.6549634384344578,-5.333999999999996,-7.552349802375763
63.567,19093.3038,0.1188894558924764,0.4132799061511234,0.6512412832972799,0.6271330178046743,-0.68302356,-0.07734533937054239,-1.76316599364023,-5.4339999999999975,-7.643411358737056
63.5884,19093.3238,0.3077766690622211,0.546715447293403,0.6258402061193443,0.6445437731184684,-0.47105356,-0.017527431521778648,-1.7717364930624695,-5.533999999999999,-7.743043414520592
63.6157,19093.3438,0.5333857209069411,0.5957149647671012,0.6338491225007509,0.1708915872173879,-0.22976356,0.0998588423398965,-1.7717364930624695,-5.634,-7.743043414520592
63.6315,19093.3638,0.7784661339950214,0.5354207505282771,0.670472159998058,-0.07823772548188423,-0.15340356,0.10472838584912747,-1.6806749367011766,-5.833999999999996,-7.851245969726368
63.6666,19093.3838,0.9226819459700942,0.3516052685813168,0.7191488872590707,-0.15137633205766382,-0.33666356000000003,-0.00424422872973511,-1.5810428809176404,-6.033999999999999,-7.859816469148607
63.6703,19093.4038,0.984900438918891,-0.018587646355590286,0.7437307640365386,-0.20027853044853494,-0.33178356000000003,-0.1379851581138989,-1.4642698262896248,-6.234000000000002,-7.669122857003774
63.6926,19093.4238,0.9302938931771902,-0.4134377532114575,0.7071430208299873,-0.10400150379507855,-0.32628356000000003,-0.2731840365810284,-1.5724723814954007,-6.333999999999996,-7.760184413365071
63.7143,19093.4438,0.8130283386606528,-0.7496579801981601,0.586636201560925,-0.057382379319049284,-0.27924356,-0.35138727265913766,-1.3560672710838526,-6.533999999999999,-7.5780613006424815
63.7287,19093.4638,0.6820718744020415,-0.9441317403215326,0.38570690789700485,-0.028193829436728036,-0.15096356,-0.3042353845127734,-1.148232660094544,-6.734000000000002,-7.495570243703424
63.7455,19093.4838,0.5904153325468345,-0.9832716384188329,0.12816578965666134,0.06152130146533339,-0.09048356,-0.20219898224757207,-0.8150544950549808,-6.833999999999996,-7.122753518836005
63.7777,19093.5038,0.5443494406015849,-0.9418870355686462,-0.14843760856627564,0.2521806316124745,-0.06910356000000001,-0.13828426854373507,-0.6157903834879119,-7.033999999999999,-7.139894517680484
63.7917,19093.5238,0.5479322431980989,-0.7761550652895325,-0.38714609115484994,0.4767263237689947,-0.20411356,-0.0938354087839024,-0.30832371671506714,-7.134,-7.065973960163666
63.8136,19093.5438,0.5539132783506135,-0.6260642581078478,-0.5537867811448965,0.47538889733415424,-0.42524356,-0.15932173781929262,-0.10048910572575885,-7.234000000000002,-6.983482903224613
63.829,19093.5638,0.5754374636385517,-0.4683570860540365,-0.6285008041829375,0.21938786532937318,-0.43868356000000003,-0.18451386382102353,0.1073455052635533,-7.333999999999996,-6.900991846285556
63.8466,19093.5837,0.5800987096884065,-0.350777701239185,-0.6227415514419669,0.11631946780249142,-0.24381356,-0.19955573309451063,0.22411855989156498,-7.4339999999999975,-6.710298234140726
63.8765,19093.6037,0.5768891214506472,-0.2700436644239531,-0.5684405031289664,0.004771739540974184,-0.02146356,-0.1777051376862681,0.44052367030311296,-7.533999999999999,-6.528175121418137
63.888,19093.6237,0.5235037247608259,-0.2206840028064108,-0.5025290510207828,-0.15174604197649066,0.11476644,-0.14400679100796437,0.43195317088087354,-7.533999999999999,-6.627807177201669
63.9053,19093.6437,0.46007594493813164,-0.18358736405857168,-0.46243068471640536,0.09924060507882355,-0.10148356,-0.19134176644823622,0.43195317088087354,-7.533999999999999,-6.627807177201669
63.9314,19093.6637,0.39876975018083194,-0.14174932693006698,-0.46921632282911363,0.20430732167724322,-0.17723356,-0.131717123361444,0.22411855989156498,-7.4339999999999975,-6.710298234140726
63.9466,19093.6837,0.37414536293491774,-0.033738635566243284,-0.5269307644520055,0.18511883052079112,-0.09354356000000001,-0.06261832881957982,0.12448650410803234,-7.333999999999996,-6.701727734718487
63.9703,19093.7037,0.391141535372853,0.11718470456747251,-0.6259211426003383,0.1421667013538098,0.00358644,0.0011575427936169208,-0.1915506620870519,-7.234000000000002,-6.875280348018838
63.9891,19093.7237,0.42917154097488064,0.2975928884942195,-0.7479715501721828,-0.07011074940474558,0.19417644,-0.007551263063049018,-0.09191860630351917,-7.234000000000002,-6.883850847441077
64.0134,19093.7437,0.4566878065639296,0.46099171656495724,-0.869782926262031,0.20481651647416704,0.10437643999999999,-0.05450667251015842,-0.4079557724985998,-7.134,-7.057403460741427
64.0272,19093.7637,0.45945276444425176,0.6298140795110889,-0.9718067794103394,0.503507420363609,-0.15768356,-0.0961391590286004,-0.632931382332391,-7.134,-7.339158629247553
64.0606,19093.7837,0.4310539070778796,0.736967063234122,-1.032549566881819,0.27020514181614375,-0.08682356000000001,-4.039876312661572e-05,-0.9489685485274717,-7.134,-7.512711242547904
64.0823,19093.8037,0.42004500617180673,0.8495052458623729,-1.0493549709718086,0.0355236556491547,-0.01291356,0.01585144979056108,-1.2564352153003164,-7.033999999999999,-7.586631800064721
64.1133,19093.8237,0.4379441188690584,0.9123760822387399,-1.0127041326881476,0.0018199524087121064,0.14286643999999998,-0.02661623189657813,-1.5724723814954007,-7.033999999999999,-7.760184413365071
64.1224,19093.8437,0.47210475644986216,0.9443747747364839,-0.9224378224858413,0.27179507659021196,0.14163644,-0.14549184429535297,-1.8885095476904847,-7.033999999999999,-7.933737026665422
64.1335,19093.8637,0.5370537990729365,0.9237197011110079,-0.7784370956192334,0.24564509014680294,-0.08804356,-0.00038675407102786876,-1.9881416034740176,-7.033999999999999,-7.925166527243182
64.1432,19093.8837,0.6305567324668667,0.8625559635201194,-0.5872609001009753,0.03457554415056946,-0.03123356,0.11894202348469789,-2.204546713885569,-7.033999999999999,-8.10728963996577
64.1649,19093.9037,0.7303293711102062,0.7720997417649845,-0.35948196888892137,-0.10291197905602635,-0.03551356,0.09582031588089446,-2.3041787696691016,-7.033999999999999,-8.098719140543531
64.1866,19093.9237,0.8244529672500058,0.6761640414392139,-0.11359058721810876,-0.06243351028478894,0.04817644,0.038992012493093434,-2.2956082702468623,-7.033999999999999,-7.999087084759999
64.2062,19093.9438,0.8922610648029626,0.5978742996384472,0.12852957170501106,-0.0453978214519606,-0.16806356,0.05162846397248621,-2.2870377708246226,-7.033999999999999,-7.899455028976464
64.2259,19093.9638,0.9243917551329731,0.5679621838855008,0.34474687032956225,-0.26061570343104357,-0.07155356,0.158436706053505,-2.1788352156188506,-7.033999999999999,-7.80839347261517
64.2466,19093.9838,0.9298971704301718,0.5918914449288238,0.522504319213905,-0.24573378110302402,0.20883643999999998,0.08909611629669086,-1.8713685488460057,-7.234000000000002,-7.734472915098353
64.2655,19094.0038,0.9146729453704366,0.6379939295781272,0.6688950903559391,-0.019585084160816734,0.41347644,-0.04745840091655139,-1.6549634384344578,-7.4339999999999975,-7.552349802375763
64.2894,19094.0239,0.8957039825349097,0.6582203414285303,0.8066891488489482,0.22440225027884,0.31207644,-0.11198676237902078,-1.5553313826509216,-7.533999999999999,-7.560920301798002
64.3087,19094.0439,0.8544717798340936,0.6265583602576315,0.9611148919310754,0.20969987991371636,0.06344643999999999,-0.0690286338624439,-1.2307237170335978,-7.634,-7.287735632714116
64.3254,19094.0639,0.8064370483017392,0.5109707067117354,1.1362738447934808,0.0635080503626513,-0.004963559999999999,0.04900503409933868,-1.1225211618278255,-7.734000000000002,-7.196674076352819
64.3452,19094.084,0.7483745699904015,0.3005247431143259,1.307038314685258,-0.026131981538222753,-0.12286356000000001,0.10454197748669376,-0.8975455519940345,-7.833999999999996,-6.914918907846697
64.3669,19094.104,0.6769523427742646,0.03166116215725121,1.4195928486730574,-0.10107960627955154,-0.20411356,0.11712164940741421,-0.5900788852211932,-8.033999999999999,-6.840998350329879
64.3855,19094.124,0.5920738240681962,-0.2529253162713167,1.4096450061257821,-0.2799573922646682,-0.06483356000000001,0.15458019557598274,-0.274041719026109,-8.134,-6.667445737029529
64.4107,19094.144,0.48334158478891776,-0.4614866630192744,1.2302510836523768,-0.33676298382900033,0.28519644,0.0644270050222021,0.1501980023747511,-8.234000000000002,-6.402831567367882
64.4305,19094.1641,0.3110910703968872,-0.5879446318951569,0.8749025658283646,-0.16333228588293075,0.35727644,-0.0007667485891614112,0.34946211394182,-8.333999999999996,-6.419972566212361
64.4476,19094.1841,0.08002976385697509,-0.599358255194194,0.38706044898438774,-0.024995211921105452,0.32550644,0.017996110139733755,0.5572967249311285,-8.333999999999996,-6.337481509273304
64.4675,19094.2041,-0.1555634350257879,-0.5095864907238924,-0.15011846024427877,0.0932825010117254,0.20272643999999998,0.10285133934441423,0.6569287807146649,-8.333999999999996,-6.346052008695543
64.4886,19094.2242,-0.329359096271266,-0.36560148266851517,-0.6371646147768019,0.2774974583807991,0.08177643999999999,0.18449359544693988,0.9729659469097454,-8.433999999999997,-6.172499395395193
64.5085,19094.2442,-0.37961704530213236,-0.22230082850781857,-0.9868471437329035,0.3131258815289911,0.25464644,0.3065090103090522,0.881904390548452,-8.433999999999997,-6.064296840189421
64.5249,19094.2642,-0.29060194411701856,-0.13123226791069698,-1.1497729126348781,0.2317185642418776,0.33833644,0.4079291936657945,0.881904390548452,-8.533999999999999,-6.064296840189421
64.5466,19094.2842,-0.11419059971829511,-0.1360386302580473,-1.1260252005989864,0.1434630965226663,0.28152644,0.42962294893461006,0.5744377237756075,-8.433999999999997,-6.138217397706235
64.5657,19094.3043,0.09812933914269509,-0.22666206647633208,-0.958164004703011,0.155386375318886,0.20089643999999998,0.4328830597835872,0.26697105700276275,-8.433999999999997,-6.212137955223053
64.5869,19094.3243,0.2753450126873579,-0.3712775315735855,-0.7178344415606205,-0.016995936285358164,-0.12592356000000002,0.29627444129274205,0.16733900121923012,-8.433999999999997,-6.203567455800814
64.6087,19094.3443,0.3852021809743258,-0.5142467746605667,-0.4843398361602148,-0.11965584238352743,0.00663644,0.09357709478836604,-0.2483302207593903,-8.433999999999997,-6.368549569678923
64.6254,19094.3644,0.41179264883286737,-0.6110679996208557,-0.32221401199809885,-0.2353652980332414,0.17584644,-0.01847832843267611,-0.44759433232645923,-8.433999999999997,-6.351408570834445
64.6451,19094.3844,0.367134584298614,-0.6107351883068334,-0.2629862408393052,-0.3011494519235544,0.33955644,-0.10601237436302034,-0.755060999099304,-8.433999999999997,-6.425329128351262
64.667,19094.4044,0.2712553833255371,-0.5082138183137146,-0.30309321880432594,-0.275173875143388,0.40186644,-0.14626672457436618,-1.170730221077921,-8.333999999999996,-6.590311242229373
64.6902,19094.4244,0.14295396989715078,-0.3263085616140677,-0.41069021578304865,-0.2653230502387086,0.41408644,-0.15998145201231947,-1.4781968878507654,-8.333999999999996,-6.664231799746187
64.7091,19094.4445,-0.008732219174037811,-0.10953211518920439,-0.5393888733512672,-0.20820067158948205,0.34811643999999997,-0.1232017965292351,-1.8938661098293827,-8.234000000000002,-6.829213913624301
64.7269,19094.4645,-0.135921487453097,0.11085321283968572,-0.6420266641134195,-0.19136446113070635,0.19539644,-0.10565016363118795,-2.1017007208186946,-8.234000000000002,-6.911704970563354
64.7485,19094.4845,-0.20280070114665802,0.30493674175855523,-0.6813460107262778,-0.12163434217515143,0.07994644,-0.11470971717670905,-2.3181058312302425,-8.234000000000002,-7.093828083285945
64.7789,19094.5045,-0.19018761075545731,0.4498936672903736,-0.6376565645560227,-0.12807132289746725,0.05061644,-0.0540749336017631,-2.508799443375072,-8.234000000000002,-6.977055028657933
64.7877,19094.5245,-0.1357517082241212,0.5006494573396876,-0.5104331940758705,-0.14636794645779255,0.21005643999999998,-0.010195369266052698,-2.71663405436438,-8.234000000000002,-7.0595460855969865
64.8126,19094.5445,-0.01808078980017871,0.4948866985472465,-0.3204401506735937,-0.06559955990260702,0.22044644,0.06624362950598854,-2.6170019985808457,-8.134,-7.068116585019226
64.825,19094.5645,0.10895810650399468,0.4226314637312662,-0.09933538663583406,-0.03698694758146026,0.11231643999999999,0.10670024350369924,-2.6255724980030855,-8.134,-7.167748640802762
64.8469,19094.5845,0.2128404885016301,0.323796677542589,0.11474454394843314,-0.03752421076399189,0.05061644,0.15027662642234793,-2.6255724980030855,-8.134,-7.167748640802762
64.8664,19094.6045,0.2751219005921104,0.2226291596551846,0.28886168550980107,0.025658368026700313,-0.18273356000000002,0.12215810339289328,-2.2184737754467063,-8.234000000000002,-7.102398582708184
64.8866,19094.6245,0.2843997515349421,0.15727005306692543,0.40279489531417695,0.08573167675824679,-0.17112356,0.05077687772364393,-1.811375052890329,-8.333999999999996,-7.03704852461361
64.9178,19094.6445,0.235302883306048,0.15658403222285092,0.456260467340201,0.12310548211377792,-0.02818356,0.043266120554964295,-1.720313496529032,-8.234000000000002,-7.145251079819382
64.9349,19094.6645,0.16871607322545118,0.26586691166060783,0.46733872434623647,0.07153560864649197,-0.09354356000000001,0.013978152879345071,-1.3046442745504152,-8.333999999999996,-6.980268965941271
64.9623,19094.6845,0.08854765368050029,0.4652752129099062,0.46902629141181357,0.03418226535833144,-0.03184356,0.028844219783433465,-1.00574810719981,-8.333999999999996,-7.0059804642079895
64.9707,19094.7045,0.03556459638250289,0.7296518568297325,0.49536818454776493,0.06569813435876184,-0.06300356,0.05311244594744699,-0.7979134962105019,-8.333999999999996,-6.923489407268936
64.9952,19094.7245,0.005254748165170291,0.9796601977069403,0.5750319450601593,0.06295032511274906,-0.07705356000000001,0.0852261072825786,-0.3822442742318811,-8.433999999999997,-6.758507293390823
65.0078,19094.7445,0.05109023664702339,1.1403174736315784,0.7205540973870871,0.0761277893681707,-0.11248356000000001,0.16012230902737395,-0.05763660861456107,-8.533999999999999,-6.485322624306939
65.0509,19094.7645,0.08007363674525049,1.1228882662697413,0.9277706848368744,0.0530736815785602,-0.17784356,0.20563562481544875,0.2498300581582837,-8.634,-6.411402066790122
65.0528,19094.7845,0.25419210589197694,0.8791484350798461,1.1672501067618752,-0.04768871594752524,-0.03367356,0.18181381454009113,0.36660311278629903,-8.634,-6.220708454645292
65.0666,19094.8044,0.44072476608139655,0.4322285018203033,1.3916581787296496,-0.19350387204898287,0.11048643999999999,0.118939559466114,0.4833761674143107,-8.734000000000002,-6.030014842500463
65.0906,19094.8244,0.6348899827563583,-0.11120443466691488,1.5446405310936628,-0.4070210455489652,0.06955644,-0.03252826952928175,0.5830082231978468,-8.833999999999996,-6.038585341922702
65.1068,19094.8444,0.7697984615024971,-0.7237957109082155,1.5723305638439025,-0.5973940138841607,-0.10270356,-0.1571709709892816,0.47480566799207136,-8.833999999999996,-6.129646898283996
65.1241,19094.8644,0.8305319693127496,-1.2430009080721915,1.424433171524795,-0.5469123795810137,-0.28596356,-0.15476866000122783,0.46623516856983166,-8.833999999999996,-6.2292789540675315
65.1461,19094.8844,0.8311949998136356,-1.559276051746997,1.0792608020185726,-0.28916992922487633,-0.27252356,-0.1806236070020262,0.35803261336405967,-8.734000000000002,-6.320340510428825
65.1645,19094.9044,0.8075627261695255,-1.641354619112882,0.558158714072244,-0.06734622768485943,0.010916440000000001,-0.16781788815904422,-0.17440966324257284,-8.333999999999996,-6.676016236451768
65.1885,19094.9244,0.7949843657724773,-1.489751528609623,-0.05920469959684706,0.08574324693246681,0.37865644,-0.15584436480996167,-0.598649384643433,-8.134,-6.940630406113415
65.213,19094.9444,0.7732859674293425,-1.174285642713572,-0.6573513181506719,0.15356428714171785,0.46417643999999997,-0.13715821205089557,-0.689710941004726,-7.9339999999999975,-6.8324278509076395
65.2254,19094.9644,0.6888126126434088,-0.7825805161678492,-1.1233983138934212,0.17255962066744127,0.35299643999999997,-0.13021064382549985,-0.8150544950549808,-8.033999999999999,-7.122753518836005
65.2462,19094.9844,0.6180616435107071,-0.4512997172369766,-1.4026069003083295,0.12496903008190115,0.19844644,-0.11323944800082386,-1.0314596054665288,-7.833999999999996,-7.304876631558595
65.267,19095.0044,0.5517950218952369,-0.22384609678552297,-1.4820338353439995,0.07046408195622647,0.05795644,-0.1195914736476167,-1.0400301048887686,-7.833999999999996,-7.4045086873421315
65.286,19095.0244,0.5068736285087794,-0.10112962946614668,-1.4027240256976705,-0.015914982045728204,-0.17417356,-0.09743683977237023,-1.3560672710838526,-7.734000000000002,-7.5780613006424815
65.3109,19095.0444,0.4856249239059047,-0.04351484473939839,-1.2356475727539296,-0.01704039575111103,-0.33483356000000003,-0.024993836355948183,-1.689245436123416,-7.533999999999999,-7.9508780255099
65.3282,19095.0644,0.5040317886181787,0.002313533099639817,-1.0586063875696128,0.016079656478677054,-0.26397356,-0.024781609364004975,-2.0138531017407364,-7.333999999999996,-8.224062694593787
65.3518,19095.0844,0.5411912508159135,0.07831577133586892,-0.9303334668615671,0.05095794666493758,0.041456440000000004,0.0028708927593653877,-2.1306261563687516,-7.234000000000002,-8.414756306738617
65.3662,19095.1044,0.5878800354004234,0.2042471488351942,-0.8788457054594987,0.0469332401362539,-0.01474356,0.03449217890268933,-2.2645402098412464,-7.134,-8.804714030450517
65.3906,19095.1244,0.6285326552761078,0.362579032980739,-0.8966186902917418,0.0046905340589484664,0.02801644,-0.03606702874072446,-2.364172265624779,-7.033999999999999,-8.796143531028278
65.4062,19095.1444,0.6452925654722066,0.5294100215260729,-0.9479359520662879,0.008267431992820143,0.09338643999999999,-0.1013638426076404,-2.2731107092634857,-7.033999999999999,-8.904346086234051
65.4272,19095.1644,0.6557872631994686,0.6724785380427216,-0.9848774790960807,0.0013926058812706852,-0.0019135599999999995,-0.07440544380622867,-2.1734786534799495,-7.033999999999999,-8.91291658565629
65.4547,19095.1844,0.679031091626453,0.7740094093411807,-0.9612235955263376,-0.07506460520204282,-0.12225356000000001,-0.05802239850440387,-2.0738465976964133,-7.033999999999999,-8.92148708507853
65.4671,19095.2044,0.7420774983276534,0.8176731353261725,-0.8454287917680074,-0.07463640162465918,-0.05933356,-0.03169221731064228,-1.857441487284865,-7.134,-8.73936397235594
65.4929,19095.2243,0.8639514656681838,0.8228491769454906,-0.6319058722209455,-0.0295853571491714,-0.03978356,0.028809294998287844,-1.6496068762955565,-7.134,-8.656872915416884
65.5114,19095.2443,1.0533951385688183,0.7938463116488105,-0.33950697024482995,-0.027449802955634862,-0.07521356000000001,0.06786998890260128,-1.3421402095227122,-7.333999999999996,-8.58295235790007
65.5258,19095.2643,1.289547297737676,0.7485273199022839,-0.008591922919977457,-0.05425961072331353,0.01213644,0.019901225030054828,-1.3335697101004724,-7.234000000000002,-8.483320302116534
65.5453,19095.2843,1.5292016475998496,0.7015747095075181,0.31094633294296364,-0.00991638236885996,-0.12714356000000002,-0.013351562809535197,-0.9264709875440952,-7.333999999999996,-8.417970244021959
65.5667,19095.3043,1.7289583216111353,0.6531043484894462,0.5722208563555465,0.07140972943622784,-0.10087356,0.026866362779266136,-0.9179004881218555,-7.333999999999996,-8.318338188238423
65.5905,19095.3243,1.8471809081595376,0.6003691375719195,0.7444191602226254,0.18453978615357605,0.04328644,-0.012293534655859724,-0.6104338213490107,-7.4339999999999975,-8.244417630721605
65.6055,19095.3443,1.84774346135133,0.5778112673286497,0.8205606773642206,0.2768762043039295,0.02374644,-0.12201092563451493,-0.20333509879263345,-7.533999999999999,-8.17906757262703
65.641,19095.3643,1.7249574064960087,0.4973452301801416,0.824458604320823,0.33832186425546207,-0.11248356000000001,-0.21314243869734423,0.11270206740245069,-7.533999999999999,-8.00551495932668
65.6513,19095.3843,1.4772270212532943,0.5367611758141612,0.7864403780004942,0.2810230404493801,-0.25542356,-0.280559701252565,0.42873923359753513,-7.634,-7.831962346026327
65.6694,19095.4043,1.1677235435875821,0.5577162827738624,0.7508270869099224,0.24925027072876804,-0.29635356,-0.3789887803109457,0.7447763997926193,-7.634,-7.658409732725976
65.6926,19095.4243,0.8634096716304239,0.5547599436232633,0.7475770426188934,0.27227341758921575,-0.18150356,-0.4392135726197803,0.9354700119374487,-7.734000000000002,-7.775182787353991
65.7136,19095.4443,0.6018720938487135,0.5251413586175782,0.7872156105459162,0.16474900315022603,-0.09720356000000001,-0.41341326255279864,1.052243066565464,-7.734000000000002,-7.584489175209162
65.7259,19095.4643,0.37287640778448405,0.4424903476435314,0.854890744000507,-0.03401598395674092,-0.010463559999999998,-0.35768305440347203,1.1518751223489967,-7.734000000000002,-7.593059674631402
65.7504,19095.4843,0.2181457293450255,0.2807544549628305,0.9099429323219489,-0.10816944479535644,0.04634644,-0.31451891250703307,1.2515071781325329,-7.634,-7.601630174053641
65.7688,19095.5043,0.04353762660434579,0.06008766773860632,0.9049939163585975,-0.1926533571125684,-0.13263356,-0.28456801670110365,1.1347341235045176,-7.533999999999999,-7.79232378619847
65.7854,19095.5243,-0.17190849166529282,-0.17553750943560567,0.7970308363964737,-0.302364748741628,-0.30795356,-0.29842619287313665,0.9268995125152094,-7.4339999999999975,-7.874814843137524
65.8104,19095.5443,-0.42034697676712474,-0.34173187108631625,0.5698746386866155,-0.33679298057697815,-0.22243356,-0.32796420486939976,0.7019239026814216,-7.333999999999996,-8.15657001164365
65.8271,19095.5643,-0.7259863160832452,-0.45017961203266277,0.24035509088337675,-0.31312115404150975,0.026186440000000002,-0.37353065775389244,0.7929854590427146,-7.333999999999996,-8.264772566849425
65.8472,19095.5843,-1.0229504084992926,-0.4684469479039193,-0.13405490292047656,-0.21023230847752394,0.25953644,-0.3321063272401681,0.47694829284763407,-7.134,-8.438325180149777
65.8701,19095.6043,-1.2627747213519591,-0.43824397128469816,-0.47560305737449193,-0.10544059777931535,0.40370644,-0.22585656032775103,0.46837779342539443,-7.033999999999999,-8.537957235933312
65.8856,19095.6242,-1.4293241851229481,-0.4128476366199801,-0.7158651541383506,-0.10368718072876792,0.46722644,-0.09847815545217235,0.2519726830138428,-6.833999999999996,-8.720080348655902
65.9084,19095.6442,-1.4217012210410038,-0.4495258129485112,-0.8005902690531613,-0.08622950193063705,0.44462644,0.0545286138457293,0.04413807202453449,-6.634,-8.802571405594955
65.9275,19095.6642,-1.265689884075806,-0.5655540548551218,-0.7308038213073488,-0.09501479949464649,0.38476644,0.1448037197537913,-0.06406448318123781,-6.4339999999999975,-8.893632961956252
65.9569,19095.6842,-0.9943217578987643,-0.7301787215587963,-0.543560307107192,-0.16371206613857875,0.19111644,0.23716124275897196,-0.18940803723149283,-6.234000000000002,-9.183958629884618
65.97,19095.7042,-0.6432713182964707,-0.9354118055051546,-0.30892739644779577,-0.15067097995521347,-0.20655356,0.29612049369687005,-0.2976105924372684,-6.134,-9.27502018624591
65.9993,19095.7242,-0.3382936869870402,-1.0736417191953542,-0.10908452015623164,-0.03617992792961362,-0.27436356,0.29425116064163687,-0.41438364706528047,-5.9339999999999975,-9.465713798390745
66.015,19095.7442,-0.03071951846970121,-1.125256468839819,-0.013768233925346957,0.030460525984223916,-0.01779356,0.2492742509861514,-0.6393592568990678,-5.833999999999996,-9.747468966896866
66.0283,19095.7642,0.2078200190230276,-1.037991644677579,-0.06017730771737424,0.04666112677959779,0.28274644,0.2166156130190082,-0.5482977005377747,-5.734000000000002,-9.855671522102643
66.0467,19095.7842,0.3609102280704405,-0.8192685695895315,-0.23925878847998622,0.034468734301519796,0.42752644,0.15328755000062347,-0.5568681999600145,-5.734000000000002,-9.955303577886179
66.0696,19095.8042,0.4266628577033009,-0.5132668381384137,-0.5024903590711954,0.0648750450204985,0.41041644,0.14330484653608438,-0.5654386993822538,-5.634,-10.05493563366971
66.0929,19095.8242,0.40884831071056227,-0.1782455973158097,-0.7790638700848916,0.12459149958235148,0.32184644,0.08912750575082481,-0.2579720326094093,-5.734000000000002,-9.981015076152897
66.1166,19095.8442,0.3397875055887726,0.12929879463861751,-0.9997293755253459,0.1712362284254047,0.23754644,0.11821685210233367,0.0666356330079146,-5.734000000000002,-9.707830407069011
66.1363,19095.8642,0.25778673093515314,0.3729967818068217,-1.11404545494954,0.14407781559372645,0.14469643999999998,0.13036917749561266,0.2744702439972231,-5.734000000000002,-9.625339350129954
66.1503,19095.8842,0.19272448955248128,0.5294166745006507,-1.099328006851408,0.10916460062232029,0.12453644,0.14501530395827783,0.69013946597584,-5.833999999999996,-9.460357236251843
66.1672,19095.9042,0.1523179080423504,0.5839590169637207,-0.9610850102859146,0.12592067691149808,0.12331644,0.11169663040437934,0.9065445763873916,-5.9339999999999975,-9.278234123529254
66.1851,19095.9242,0.13705581754236829,0.5539715975336756,-0.7307456955921726,0.09169106640025829,0.16240643999999999,0.09870246770535084,1.1143791873767002,-6.033999999999999,-9.195743066590197
66.2104,19095.9442,0.13350889188620538,0.47131586302415823,-0.4550595137795487,0.025942480082547553,0.21188643999999998,0.09699115323321515,1.3307842977882482,-6.234000000000002,-9.013619953867606
66.2258,19095.9642,0.12379794462557908,0.3845837628027953,-0.18338254604332743,0.018427223401671248,0.04634644,0.15220841699212073,1.8717970738171201,-6.4339999999999975,-8.55831217206113
66.2454,19095.9842,0.08682799723283378,0.3379329551755843,0.04711977865260095,0.0530736815785602,-0.07644356000000001,0.20563562481544875,2.2960367952179763,-6.634,-8.293698002399482
66.2673,19096.0042,0.02539333393887489,0.36899164161164655,0.22212469080857064,0.054164170498797404,-0.07460356,0.19696024390652955,2.1792637405899646,-6.734000000000002,-8.484391614544313
66.2876,19096.0243,-0.029946412272332912,0.4916914571808582,0.35550183041248606,0.043691341598549004,-0.15646356,0.11080079895226976,2.2960367952179763,-6.833999999999996,-8.293698002399482
66.3166,19096.0443,-0.06482382388101761,0.6805788676311624,0.4838185429733425,-0.012046472869014821,-0.10942356,0.04017795535064583,2.6120739614130604,-6.9339999999999975,-8.120145389099132
66.3342,19096.0643,-0.05249741725359381,0.8491516861849853,0.651936088915264,-0.060603387264412466,0.11598644,0.09585438361609787,2.728847016041076,-7.134,-7.929451776954303
66.35,19096.0843,0.005778408450981688,0.8961188224911283,0.8914044135220539,-0.09502701245632318,0.17340644,0.18036561440021823,2.745988014885555,-7.234000000000002,-7.730187665387234
66.386,19096.1044,0.08300448929974129,0.7608467698459925,1.2011971228004408,-0.09197227219975145,0.05061644,0.25858159909621803,2.754558514307795,-7.234000000000002,-7.630555609603698
66.3961,19096.1244,0.24835860150846298,0.35805305144348815,1.54606507695077,-0.15743674646161496,-0.07216356,0.25317232838587156,2.5552944027407256,-7.234000000000002,-7.613414610759219
66.4138,19096.1444,0.44052619882692623,-0.18541711312435477,1.8496905501404515,-0.4069394115419684,0.11964643999999999,0.18941134801542095,2.1396251807621054,-7.234000000000002,-7.77839672463733
66.4302,19096.1644,0.6460155594206763,-0.7753692640948102,2.025920998211879,-0.6775138278955682,0.13675644,0.15873806623943948,1.931790569772797,-7.333999999999996,-7.860887781576387
66.4487,19096.1845,0.8310755457591819,-1.2551043996518372,1.9943177340242697,-0.7449430891499802,-0.013523559999999999,0.059080406088880724,1.4250597914328833,-7.333999999999996,-7.917667340248721
66.4697,19096.2045,0.9706697210063743,-1.5336836544913066,1.7046371034803995,-0.47438067149557145,-0.01291356,-0.06720279609177855,1.208654681021335,-7.333999999999996,-8.099790452971314
66.4899,19096.2246,1.0633479674099895,-1.5793903294154232,1.1681036383089085,0.019310199104647475,-0.02512356,-0.08698736548304745,0.892617514826251,-7.234000000000002,-8.273343066271666
66.5125,19096.2446,1.1395440066467686,-1.3839353979274158,0.48003344083407945,0.456365495422823,-0.015353559999999999,-0.04548247227475407,0.47694829284763407,-7.134,-8.438325180149777
66.5298,19096.2647,1.2363661359768667,-0.9629218501710591,-0.20892580591905802,0.5653592148565129,-0.05078356,0.05979357877205382,0.06127907086901355,-7.134,-8.603307294027887
66.5479,19096.2848,1.3510550151465401,-0.4679828157666292,-0.770283699548768,0.5105329801337469,-0.004963559999999999,0.17793716338892665,-0.3543901511096033,-7.033999999999999,-8.768289407905998
66.5798,19096.3048,1.4276392807714953,-0.07501444726412268,-1.1284286936541947,0.3755051902613339,0.01152644,0.20487884971646503,-0.770059373088224,-7.033999999999999,-8.933271521784112
66.6072,19096.3249,1.4622551233620702,0.18273767018092363,-1.289854852539747,0.26110220011729757,-0.15279356,0.14359827901005331,-1.0946670387055442,-7.134,-9.206456190867994
66.6165,19096.3449,1.4544361903212049,0.2886010382284112,-1.3228831083274846,0.0893381429151252,-0.42952356,0.014293547258083489,-1.3025016496948563,-7.134,-9.288947247807052
66.6302,19096.365,1.345069722769765,0.27174297795901964,-1.3010654806089295,0.007265004954146448,-0.36171356,-0.1558383654603661,-1.618538815889937,-7.134,-9.462499861107402
66.648,19096.3851,1.1609509420479962,0.2215837782295733,-1.2977913003948698,0.05470325491245626,-0.05505356,-0.26722389702031746,-1.6356798147344158,-7.134,-9.661763972674471
66.6697,19096.4051,0.9382810389098003,0.20827523030652761,-1.349881575123694,0.05782698768937703,0.09460644,-0.2736151327019671,-1.8435144257237281,-7.234000000000002,-9.744255029613528
66.6903,19096.4252,0.6932938800550045,0.2631889300474619,-1.4514861312512541,0.039698560180213144,0.06711644,-0.24201516567595593,-1.9431464815072608,-7.333999999999996,-9.735684530191289
66.7093,19096.4452,0.4516364714531018,0.3744450533127755,-1.5696531819406105,0.072808113548209,-0.10942356,-0.2491591054693637,-1.544618258373123,-7.333999999999996,-9.769966527880246
66.7266,19096.4653,0.2423454777110561,0.5068021110511273,-1.6590109095147765,0.07313400678873966,-0.20350356,-0.25960547295264597,-1.237151591600278,-7.533999999999999,-9.696045970363429
66.7466,19096.4854,0.0874218182819542,0.6208288090606885,-1.6760845786583347,0.020010516038687223,-0.25236356,-0.2427806184056047,-1.1460900352389816,-7.533999999999999,-9.804248525569205
66.7712,19096.5054,-0.002202381626016811,0.6978494164527439,-1.5916937375823978,-0.11571052010574223,-0.16745356,-0.19554484649614529,-0.8129118701994218,-7.734000000000002,-9.431431800701786
66.7871,19096.5255,-0.040924383820879706,0.7196866816678436,-1.3949179183280032,-0.21229672752585588,-0.010463559999999998,-0.13511457646366254,-0.6050772592101097,-7.833999999999996,-9.348940743762729
66.8067,19096.5456,-0.02432489002606271,0.7097815688023402,-1.096978231113878,-0.23196570230616734,0.041456440000000004,-0.09295371865583951,-0.4883042045820979,-8.033999999999999,-9.1582471316179
66.8282,19096.5656,0.03154161241046989,0.6820080007996069,-0.7226169305617202,-0.21899960799274665,-0.004963559999999999,-0.006396495397145015,0.02699707318005514,-8.134,-9.001835517162029
66.8467,19096.5856,0.11427130210386008,0.6396375888491529,-0.30396425780214426,-0.13909073539836897,-0.10515356000000001,0.07440220929974671,0.4255252963141966,-8.234000000000002,-9.036117514850986
66.8686,19096.6057,0.20857978330877538,0.5989294519278255,0.12435059790030704,-0.019104814799442985,-0.18761356,0.17199791442055742,1.0833111269710805,-8.333999999999996,-8.390116120899677
66.9017,19096.6257,0.28139531471189894,0.5602424780382655,0.5335123634081642,0.09875380071164036,-0.10209356,0.25198113609742306,0.8669060165595323,-8.134,-8.57223923362227
66.9149,19096.6457,0.3957529639274887,0.5543549777391473,0.8976476785289286,0.13687173967950744,0.03901644,0.26035504968916495,1.0747406275488407,-8.234000000000002,-8.489748176683213
66.935,19096.6658,0.4631261279296962,0.5770516183328797,1.2076445575705927,0.11304532276071036,0.05428644,0.2685371983563343,1.2825752385381495,-8.333999999999996,-8.407257119744155
66.953,19096.6858,0.4899244925446483,0.6213964530978054,1.4618588797889436,0.06510012776157507,-0.05017356,0.24568224754704804,1.373636794899446,-8.333999999999996,-8.515459674949932
66.9666,19096.7058,0.49093664138459714,0.6513241599261822,1.6671228780155618,0.09579226463628547,-0.09904356,0.18908352641252027,1.3822072943216857,-8.333999999999996,-8.415827619166397
66.9913,19096.7258,0.46330371395734415,0.5940590443418491,1.8341599207467196,0.21224381840472262,0.05123644,0.16006627938740106,1.2740047391159097,-8.333999999999996,-8.506889175527693
67.012,19096.7459,0.46629613018774985,0.43880751660787704,1.9587284151969109,0.28550059074128636,0.32306644,0.22059050351980009,0.7758444601982355,-8.234000000000002,-8.464036678416495
67.075,19096.7659,0.5591171683759517,0.1306515647047334,2.0223442704332446,0.1724100654525232,0.58329644,0.2885630273063392,0.46837779342539443,-8.333999999999996,-8.537957235933312
67.0768,19096.7859,0.5533776071096141,-0.22238965529487278,2.0005125781814734,-0.028865542328946052,0.6792064400000001,0.2795200791034487,0.1694816260747892,-8.333999999999996,-8.512245737666593
67.0783,19096.806,0.5031108889420278,-0.6425053463079918,1.8583938874326393,-0.26170704940122297,0.45623644,0.18857111767831317,-0.046923484336758754,-8.433999999999997,-8.694368850389184
67.0915,19096.826,0.40318548644834384,-1.019991211368337,1.579414743990322,-0.283634136516809,-0.17601356,-0.04497895543369748,-0.2461875959038312,-8.433999999999997,-8.677227851544703
67.1154,19096.8459,0.27711096704014704,-1.3360393251938982,1.174529568117377,0.07846292906700265,0.04328644,-0.18342187506338745,-0.4625927063153792,-8.333999999999996,-8.859350964267295
67.1298,19096.8659,0.11614312901403179,-1.5269713878667075,0.7005404207994136,0.35379568669983,0.5338164400000001,-0.17584137545565934,-0.8696914288717568,-8.333999999999996,-8.924701022361871
67.1482,19096.8859,-0.01210455842600291,-1.5939046681083024,0.23515609125744275,0.2945074357153607,0.5460364400000001,-0.0738648595551709,-1.2682196520058981,-8.333999999999996,-8.890419024672914
67.1673,19096.9059,-0.09641196625490511,-1.5508954332577232,-0.14842806972717215,0.1137714583242596,0.27297644,0.027518149260327453,-1.6753183745622753,-8.333999999999996,-8.955769082767489
67.1879,19096.9259,-0.11107982031128251,-1.453912901002232,-0.4203091192872336,0.06518358299969913,0.17218644,0.06848310100501974,-1.8831529855515838,-8.433999999999997,-9.038260139706546
67.2115,19096.9459,-0.043685215083142506,-1.3501907801745276,-0.5963435799667846,0.13952034539470778,0.24548644,0.11297577744314859,-2.0738465976964133,-8.433999999999997,-8.92148708507853
67.227,19096.9659,0.08711329482064209,-1.2453147173450156,-0.7212622229047941,0.10341293846005532,0.19783644,0.1350917369397522,-2.2645402098412464,-8.533999999999999,-8.804714030450517
67.2551,19096.9859,0.24374011228576106,-1.1289176282996802,-0.8474702308570359,0.027586194740490323,0.13553643999999998,0.1232167743340254,-2.1477671552132307,-8.634,-8.614020418305685
67.2737,19097.0059,0.3829398800330911,-0.9566800176052898,-1.00638428445726,0.0509116659680575,0.13308644,0.08074137919740619,-2.1306261563687516,-8.734000000000002,-8.414756306738617
67.3004,19097.0259,0.49043257902222015,-0.7200364449669227,-1.2011995119328185,0.09975044266320404,0.16118644,0.05692803229022803,-2.1220556569465123,-8.833999999999996,-8.315124250955083
67.3088,19097.0459,0.5313523455642182,-0.4249503572802635,-1.398413743283683,0.0389792810162017,0.30962644,0.05602309468248232,-2.0052826023184966,-8.833999999999996,-8.124430638810251
67.3263,19097.0659,0.5422913537053866,-0.11545143977205,-1.5465925526159212,-0.014539738282187083,0.46478643999999997,0.03978017704621114,-2.0052826023184966,-8.933999999999997,-8.124430638810251
67.3461,19097.0859,0.5124439982402897,0.14746954591637912,-1.5873111563303615,0.020643983077233505,0.36888644,0.049631001950890506,-1.8970800471127245,-8.933999999999997,-8.033369082448958
67.3692,19097.1059,0.4456675818253304,0.3059561402138995,-1.4815374987500858,0.134075507111759,0.04084644,0.04967953240386894,-1.7803069924847092,-8.933999999999997,-7.842675470304129
