AppTimestamp(s),SensorTimestamp(s),acc_x,acc_y,acc_z,gyro_x,gyro_y,gyro_z,mag_x,mag_y,mag_z
55.0002,19084.7359,-0.03727123805624045,-0.20281213448399113,0.01782104993903566,0.05862,-0.01497,0.01112,18.0,-27.5,-12.9
55.0197,19084.7559,0.0022723118525001776,-0.04730629897446483,-0.07414278506058913,0.08794,0.01313,0.01967,18.0,-27.5,-12.9
55.0633,19084.7759,0.03103802404157181,0.07327152893483728,-0.15122583842511794,0.04885,0.0113,-0.00049,18.0,-27.5,-12.9
55.0647,19084.7959,0.036799637198877855,0.1696512791228037,-0.20346423920019063,0.00731,0.00825,-0.01332,18.0,-27.6,-12.9
55.0819,19084.8159,0.024615026449121575,0.21531230816707023,-0.22695834216869315,-0.00308,0.01802,-0.01943,18.0,-27.5,-12.7
55.0978,19084.8359,-0.002945561558260716,0.2149389068352028,-0.22367374080188718,0.00242,0.0339,-0.02859,18.0,-27.5,-12.7
55.1179,19084.8559,-0.03389496919017974,0.18020990466372339,-0.19968522566007252,0.01036,0.01863,-0.03714,18.0,-27.5,-12.6
55.1404,19084.8759,-0.058304185181118545,0.12988920772399137,-0.16303138733468536,0.03296,-0.0223,-0.03226,18.0,-27.5,-12.6
55.1576,19084.8959,-0.06801628416357448,0.0829035706991363,-0.12203780664154529,-0.00919,-0.02902,-0.01576,18.0,-27.5,-12.6
55.1785,19084.916,-0.05972962800076086,0.04975892583934696,-0.08449049748609205,-0.02079,0.00397,0.01722,18.0,-27.6,-12.5
55.2002,19084.936,-0.039171390209088185,0.0327820688988459,-0.05723890796919484,0.00242,0.00519,0.01478,18.0,-27.6,-12.5
55.2215,19084.956,-0.017416239415458844,0.0296126041054637,-0.04541792734677408,0.02075,-0.02963,0.0044,18.0,-27.5,-12.4
55.2395,19084.976,-0.0040166538447411445,0.03793680153536675,-0.051529403210642144,0.02258,-0.05589,-0.00965,17.9,-27.5,-12.4
55.2634,19084.9961,-0.00517063440965189,0.05292191547665468,-0.07487436336541364,0.00181,-0.03696,0.00256,17.9,-27.5,-12.4
55.2779,19085.0161,-0.019968429381305074,0.07055643202923798,-0.11154854231549649,-0.00369,0.03024,-0.00782,17.9,-27.5,-12.5
55.302,19085.0361,-0.04125260272797,0.08662246557953573,-0.15497643933898075,-0.02263,0.03818,-0.03836,17.8,-27.5,-12.4
55.3174,19085.0562,-0.07110306947570366,0.09232676329797977,-0.19698380320050646,-0.02812,0.00702,-0.04631,17.9,-27.4,-12.3
55.3375,19085.0762,-0.09784733028834769,0.088557821874581,-0.22924258961769262,-0.00613,-0.02169,-0.02493,17.8,-27.4,-12.3
55.3599,19085.0962,-0.11468844892984165,0.07726415708316027,-0.2447340877348818,0.00975,-0.01802,0.0105,17.9,-27.4,-12.2
55.3793,19085.1162,-0.11303878770203493,0.06381855109088747,-0.2391358326606543,0.00914,-0.01497,0.01845,17.9,-27.4,-12.3
55.4002,19085.1363,-0.09137586606704545,0.05147096297360424,-0.212020970058175,-0.04828,0.00275,0.00562,17.9,-27.3,-12.2
55.4277,19085.1563,-0.055045749583053735,0.04238512661535205,-0.1672586111212624,-0.07333,0.00458,0.00073,17.9,-27.3,-12.3
55.4383,19085.1763,-0.011096348475746937,0.024844252149649717,-0.112212825304713,-0.03729,-0.02779,0.00745,17.9,-27.3,-12.2
55.4573,19085.1964,0.028593037912207932,0.013881272519797634,-0.056370607461678546,-0.01468,-0.04184,0.01661,17.9,-27.3,-12.2
55.4803,19085.2164,0.05797337834942687,0.015051773468972178,-0.00931054970962819,-0.02629,-0.01741,0.016,17.9,-27.3,-12.1
55.5191,19085.2364,0.0729754192288583,0.04090880734076908,0.021114633212748757,-0.08005,0.02474,0.01661,18.0,-27.3,-11.9
55.5227,19085.2564,0.07109444416205156,0.05385023986811264,0.03114335974926874,-0.07088,-0.02291,-0.00721,18.0,-27.4,-11.9
55.5438,19085.2765,0.05223218517946081,0.07351269342830273,0.022477757028392276,-0.02201,-0.01191,-0.0347,18.0,-27.4,-12.0
55.5611,19085.2965,0.014244239827480678,0.0756022194862266,0.0025935806194876676,-0.00552,0.02535,-0.0237,18.1,-27.4,-12.0
55.5825,19085.3165,-0.034985097805527485,0.05481768357010686,-0.018333779776586567,0.01647,0.00825,0.01478,18.1,-27.4,-12.0
55.6012,19085.3366,-0.08196505230140315,0.016783838617631615,-0.03164874294753872,0.01158,-0.04123,0.00684,18.1,-27.4,-11.9
55.6197,19085.3566,-0.11305117832727776,-0.029386303574533007,-0.03397416515721652,-0.05622,-0.03451,-0.04325,18.1,-27.5,-12.0
55.6374,19085.3766,-0.1216407310994611,-0.0745625914260348,-0.028841208936681184,-0.12892,0.05528,-0.05425,18.1,-27.4,-12.0
55.6598,19085.3966,-0.10787184685833928,-0.1055677160635853,-0.02481259749281506,-0.10631,0.01924,-0.02004,18.1,-27.4,-12.1
55.682,19085.4167,-0.08303776451267529,-0.11903380933960374,-0.030957488898572194,0.01464,0.04245,0.00378,18.0,-27.4,-12.1
55.6985,19085.4367,-0.054529192641575124,-0.1023390959902647,-0.05171202817958154,0.05007,0.04551,0.05021,18.0,-27.4,-12.2
55.72,19085.4567,-0.027665750327393282,-0.053940213603024464,-0.08522130742128198,0.01647,-0.01313,0.00378,18.0,-27.3,-12.2
55.744,19085.4767,-0.005173932621505914,0.017249713347470007,-0.1246180514478219,-0.02079,0.00153,-0.03409,18.0,-27.3,-12.2
55.7655,19085.4967,0.007386626411284636,0.08808212745027673,-0.16059916363342808,-0.02201,0.04734,-0.02309,18.1,-27.3,-12.2
55.7884,19085.5167,0.007575219541791134,0.13629525457821673,-0.18399014286173987,0.03113,0.04856,-0.00416,18.1,-27.3,-12.3
55.8035,19085.5367,-0.004463521850626592,0.1549519358987034,-0.18850900836388185,0.0409,0.01558,0.00623,18.0,-27.2,-12.3
55.822,19085.5567,-0.02067569408204543,0.14403145953516847,-0.17257670351416365,0.03113,-0.02046,0.01173,18.0,-27.2,-12.5
55.8402,19085.5767,-0.03367434116220893,0.11399350069113058,-0.13986340285215704,-0.0098,-0.03696,0.01539,18.1,-27.2,-12.4
55.8579,19085.5967,-0.03927107392045331,0.07334852770098282,-0.09813966605272917,-0.03973,0.00214,0.01478,18.1,-27.2,-12.4
55.8778,19085.6167,-0.038283644586792794,0.029429256878633136,-0.057152136834853096,-0.01774,0.01985,0.01234,18.0,-27.3,-12.4
55.9026,19085.6367,-0.034113058122971295,-0.012332180502054693,-0.025973551305451537,0.01708,-0.00092,0.02394,18.0,-27.3,-12.6
55.9308,19085.6567,-0.02925396806282052,-0.04476598344399546,-0.010901570684966444,0.03724,-0.00764,0.01967,18.1,-27.3,-12.5
55.9445,19085.6767,-0.018665547236022744,-0.05224792200766945,-0.01450202981933657,0.03541,-0.03329,0.01234,18.0,-27.3,-12.5
55.9641,19085.6967,-0.005424684347969761,-0.03736581694599383,-0.03598279698539031,-0.00063,0.00886,0.01539,18.0,-27.4,-12.5
55.9806,19085.7167,0.011669489983032173,-0.001855274890340792,-0.07148662308740228,-0.01346,0.03329,0.02028,18.1,-27.4,-12.5
56.004,19085.7367,0.03052010484992124,0.04525572753320456,-0.11421590686236094,0.01586,0.01008,0.00378,18.1,-27.5,-12.6
56.0222,19085.7567,0.046738273829448986,0.09118598375167053,-0.15462771028118105,0.01708,0.00947,-0.00232,18.0,-27.5,-12.6
56.0469,19085.7767,0.05730005797112935,0.11964409981809698,-0.1818188155616074,0.05556,0.02107,0.00623,18.0,-27.5,-12.6
56.0584,19085.7967,0.0608559684759439,0.13217871909829468,-0.1868498724391543,0.06717,-0.00336,0.01783,17.9,-27.6,-12.7
56.0792,19085.8166,0.05562363831910031,0.11393825231869023,-0.16606723593460693,0.0183,0.01374,0.01478,18.1,-27.6,-12.8
56.0977,19085.8366,0.04459461674657085,0.0744806217352702,-0.12421078970344546,-0.00491,-0.01313,-0.0066,18.1,-27.6,-12.7
56.1373,19085.8566,0.035762493992933415,0.03631676669776061,-0.07373903192503306,-0.08127,-0.02108,-0.04508,18.0,-27.6,-12.6
56.1535,19085.8766,0.02183343927948476,-0.011730671739320077,-0.03072567832672135,-0.06844,0.00214,-0.05486,18.0,-27.6,-12.7
56.1603,19085.8966,0.008329482443051171,-0.042382688583418184,-0.009248350312955012,0.00731,-0.00336,-0.03165,18.0,-27.6,-12.7
56.178,19085.9166,0.00394124908715203,-0.04180178740171423,-0.01536359852461544,0.01342,0.02046,-0.01026,18.0,-27.6,-12.6
56.201,19085.9366,0.00447592979331843,-0.013681349146258657,-0.045365570438422154,0.0348,-0.01069,-0.00293,18.0,-27.5,-12.5
56.2186,19085.9566,0.00980624000141087,0.03671888800816452,-0.08821884463434237,0.04029,-0.02902,0.00928,18.0,-27.5,-12.4
56.246,19085.9766,0.015559251778301425,0.08892185310477337,-0.13052402411886632,0.02136,-0.00519,0.0215,18.0,-27.5,-12.6
56.2587,19085.9966,0.019880834465299934,0.12810839158395101,-0.1611800940625745,-0.00125,0.00458,0.00195,17.9,-27.6,-12.6
56.2793,19086.0166,0.0172328339228551,0.14175031248195794,-0.17395482536235285,-0.03118,0.01435,-0.03348,17.9,-27.6,-12.5
56.311,19086.0366,0.0042139097225458565,0.12581274382456417,-0.16781191199875778,-0.01163,-0.00703,-0.03592,17.9,-27.5,-12.4
56.3199,19086.0566,-0.021759760706523253,0.08692010707811727,-0.14575931455902058,0.01464,-0.03574,-0.01637,17.9,-27.5,-12.3
56.3399,19086.0766,-0.05028903054242892,0.03824797715419319,-0.11306512454592443,0.01647,-0.01802,0.00501,17.9,-27.5,-12.4
56.3562,19086.0966,-0.0707472811668597,-0.005314318472131474,-0.07575965024365416,-0.01102,-0.01313,-0.01637,17.9,-27.5,-12.3
56.3785,19086.1166,-0.07522376294001647,-0.03487610870736909,-0.03990098346532811,-0.03301,0.01313,-0.0347,17.7,-27.5,-12.3
56.4019,19086.1366,-0.06507875553322003,-0.05137342449141987,-0.011247554549081329,-0.01652,0.01619,-0.02676,17.8,-27.5,-12.4
56.4233,19086.1566,-0.045549183031437034,-0.05617913694769367,0.005408847475495193,0.03785,-0.00703,0.00806,17.7,-27.5,-12.3
56.4419,19086.1766,-0.01880553780321035,-0.045492217133994206,0.006923173899973989,0.04946,-0.03818,0.027,17.8,-27.5,-12.2
56.4632,19086.1966,0.011478646125848231,-0.017795176983561922,-0.007963025053481232,0.03724,-0.02108,0.02028,17.8,-27.4,-12.3
56.4866,19086.2166,0.042300778645148265,0.02675232583254828,-0.03823971535289594,0.00731,0.01191,0.00562,17.7,-27.5,-12.5
56.502,19086.2365,0.06487607685144753,0.07794040412084184,-0.07984615450017962,-0.02324,0.02107,-0.00721,17.7,-27.5,-12.5
56.517,19086.2565,0.07097833947450977,0.12280213809597836,-0.12506796023959055,0.02319,0.01313,-0.02004,17.7,-27.5,-12.6
56.548,19086.2765,0.05777130380209079,0.14016267091504156,-0.16343291407528326,0.09038,0.0113,-0.00904,17.7,-27.4,-12.3
56.5588,19086.2965,0.027380639261337283,0.1473504436391602,-0.18535064576979643,0.07084,-0.01191,0.01356,17.7,-27.4,-12.4
56.5782,19086.3165,-0.012518577481092648,0.12636307400155453,-0.18477195308377325,0.03052,-0.02108,0.01234,17.7,-27.4,-12.5
56.5974,19086.3365,-0.049535866782646425,0.08858204355693781,-0.16268198676452528,-0.01774,-0.01924,-0.02859,17.7,-27.4,-12.6
56.6184,19086.3565,-0.07477824807150452,0.04332641503384464,-0.12680517411561,-0.03912,0.01191,-0.05119,17.7,-27.5,-12.7
56.6373,19086.3765,-0.0854360690799814,-0.0002133725475836937,-0.08921932479207761,-0.04828,0.00214,-0.03348,17.8,-27.5,-12.7
56.6635,19086.3965,-0.07906270410959593,-0.02885630534878742,-0.06191021471522262,-0.01896,0.01619,0.00684,17.8,-27.5,-12.7
56.6815,19086.4165,-0.059029956284696906,-0.03766216682098279,-0.05237380733468733,0.01464,0.00764,0.027,17.9,-27.5,-12.8
56.7135,19086.4365,-0.03331791231515419,-0.028304488604335078,-0.0613849124322563,0.03602,-0.00153,0.027,17.9,-27.5,-12.9
56.7229,19086.4565,0.004588917617477139,0.007956064774386382,-0.08383724533782733,0.03235,-0.02474,0.02211,17.9,-27.6,-13.0
56.7468,19086.4765,0.03642673419913589,0.0517182279372501,-0.11205230939197008,0.01891,-0.02046,0.02394,18.0,-27.6,-13.0
56.7572,19086.4965,0.06135795462946773,0.09281179450266266,-0.1385528155036191,-0.02873,0.01435,0.01234,17.9,-27.6,-13.0
56.7775,19086.5165,0.07457560765975245,0.12214577814436087,-0.15777300286114837,-0.0269,0.02352,-0.01882,18.0,-27.6,-12.9
56.8042,19086.5365,0.07289981919423265,0.1308912226136839,-0.16620402482152485,0.02808,0.02046,-0.0121,18.0,-27.6,-12.9
56.8175,19086.5565,0.058476989361587656,0.12222873591808515,-0.16234284794475684,0.02869,-0.02596,0.01295,18.0,-27.6,-12.9
56.8391,19086.5765,0.037190307508016905,0.09749674759639519,-0.14654092062474255,0.00792,-0.05162,0.00501,17.9,-27.6,-13.0
56.8588,19086.5965,0.019096718694660685,0.06466718823855895,-0.12141926241953449,-0.01713,-0.00703,-0.00965,18.0,-27.6,-12.9
56.8772,19086.6164,0.008088057868690325,0.02879280768288514,-0.09189854309912526,-0.03179,0.01863,-0.01882,17.9,-27.6,-12.8
56.8976,19086.6364,0.0046014011930875145,-0.002877941011097198,-0.06477390073013112,-0.02873,0.01558,-0.01882,18.0,-27.7,-12.8
56.9208,19086.6564,0.007287918301659931,-0.023434814417843196,-0.04718769429000602,-0.0324,-0.00886,-0.00477,18.0,-27.6,-12.6
56.9506,19086.6764,0.015883806153365754,-0.027667564185471248,-0.04440760729022308,-0.01957,-0.02535,0.01661,17.8,-27.6,-12.6
56.9648,19086.6964,0.03523683534777751,-0.013287353287495167,-0.05774125979534972,0.00486,-0.0168,0.00256,17.9,-27.6,-12.6
56.9858,19086.7164,0.059521529892958946,0.018614257345533958,-0.08360705502137655,0.02808,-0.00458,-0.00721,17.8,-27.5,-12.5
57.002,19086.7364,0.08249549554009941,0.062268440631860336,-0.11444583379977402,0.01769,0.00153,0.0105,17.8,-27.5,-12.5
57.0214,19086.7564,0.09433494040430114,0.10380133001855861,-0.14104089974923895,-0.00613,-0.01313,0.02517,17.8,-27.5,-12.4
57.0761,19086.7764,0.0832931486962206,0.12614885120052063,-0.15531239982499478,0.00914,-0.0058,0.00378,17.8,-27.5,-12.4
57.0815,19086.7964,0.0611210938050918,0.12663781077512484,-0.15308571393864945,0.01158,-0.02046,-0.00599,17.8,-27.5,-12.4
57.083,19086.8164,0.023363742034681056,0.09929686421435448,-0.13463755656370857,-0.00674,-0.02413,-0.02065,17.8,-27.5,-12.4
57.1284,19086.8364,-0.010049322492569507,0.06350360632692503,-0.10511268989070643,-0.01468,-0.00641,-0.03287,17.9,-27.5,-12.5
57.1302,19086.8564,-0.05024068161149115,0.005793420141236703,-0.07271399059385608,-0.05683,-0.01191,-0.04264,17.9,-27.4,-12.5
57.1417,19086.8764,-0.07440418631132069,-0.0402957567527747,-0.04711579761879925,-0.06294,0.02352,-0.01088,17.9,-27.4,-12.6
57.1582,19086.8964,-0.08195437985150886,-0.06753544115271272,-0.036113284581333005,0.00853,-0.01741,0.01234,17.8,-27.4,-12.7
57.1761,19086.9164,-0.07283175448547614,-0.06893490505247217,-0.043228789197222284,0.06045,-0.05467,0.02822,17.8,-27.4,-12.8
57.2006,19086.9364,-0.05047626741284487,-0.042322562387684254,-0.0664824503144903,0.04152,-0.03329,0.02089,17.9,-27.4,-12.7
57.222,19086.9564,-0.01641468049558177,0.011183097586857494,-0.09914335498576854,-0.0098,0.01435,0.00562,17.9,-27.4,-12.8
57.2397,19086.9764,0.018455616308405216,0.07411233636720196,-0.13191079150197638,-0.00735,0.03024,0.00501,17.9,-27.4,-12.8
57.2596,19086.9964,0.04464662986208284,0.12646868686155938,-0.15514317149129475,0.00608,0.02474,0.01234,17.9,-27.4,-12.7
57.2815,19087.0163,0.05580008970687276,0.15292398980970773,-0.16137200355728964,0.00425,0.00641,0.00928,17.9,-27.4,-12.9
57.3027,19087.0363,0.051686802757562975,0.14871242289646477,-0.1474933377007428,-0.01102,-0.01191,-0.0066,17.9,-27.4,-12.9
57.3242,19087.0563,0.0378794365436599,0.119453099149534,-0.11577282909524378,0.00853,-0.04246,-0.00965,17.9,-27.4,-12.9
57.3387,19087.0763,0.022094181324257795,0.07480281841029643,-0.07327323776269701,-0.01591,-0.04918,-0.01026,17.8,-27.4,-12.9
57.3586,19087.0964,0.010464853439748335,0.029290418567733192,-0.03016432378086442,-0.05622,0.0284,-0.03287,17.8,-27.4,-13.0
57.3787,19087.1164,0.0035791591029604827,-0.009096386573900769,0.002807282826776003,-0.03668,0.06017,-0.02004,17.8,-27.4,-13.1
57.4046,19087.1364,0.00020147567672122154,-0.032915277290226905,0.016877897911060202,0.0067,0.01069,0.00623,17.8,-27.5,-13.1
57.421,19087.1564,-0.00037602101120692415,-0.03596165054793261,0.007414646257659641,0.02441,-0.05528,0.00012,17.8,-27.5,-13.0
57.4405,19087.1765,0.003321825903999356,-0.015514279929307881,-0.025049886790210252,0.00792,-0.02535,0.00256,17.8,-27.5,-13.1
57.4625,19087.1965,0.012387495522402791,0.02670180219647301,-0.07486878280149689,0.01891,0.01802,0.00256,17.8,-27.5,-13.0
57.4807,19087.2165,0.023965984223351767,0.08205879252428411,-0.1320969467933164,0.00731,0.04001,0.0044,17.9,-27.5,-13.0
57.5009,19087.2366,0.033426810768504435,0.13518836514203567,-0.18399324664122219,-0.00919,0.02046,-0.01271,17.8,-27.5,-13.1
57.5245,19087.2566,0.035724233990396835,0.16931827801620195,-0.21757477073646392,0.0012,0.00214,-0.02859,17.8,-27.5,-13.1
57.5409,19087.2766,0.02615776955546831,0.17438737183276892,-0.22322385942387868,0.03174,-0.01313,-0.02187,17.8,-27.4,-13.1
57.567,19087.2966,0.005598365757470701,0.14508085660566183,-0.1979784883196576,0.01952,-0.01436,0.00562,17.8,-27.4,-13.2
57.6048,19087.3167,-0.020901561619705872,0.09229061931517225,-0.14714924119550687,-0.03606,-0.01863,0.03372,17.8,-27.4,-13.1
57.6076,19087.3367,-0.04250268655731502,0.011619127045745931,-0.08267240903753859,-0.04706,-0.00703,-0.01698,17.9,-27.5,-13.1
57.6241,19087.3567,-0.05509630003525321,-0.06460413325255716,-0.019950204444135977,-0.05073,-0.00458,-0.04753,17.9,-27.4,-13.1
57.6394,19087.3768,-0.05759036784444004,-0.12789854720613383,0.027301779764831835,-0.03484,0.00702,-0.03226,18.0,-27.5,-13.0
57.6607,19087.3968,-0.04917159252220918,-0.16541423029034924,0.05081873576198781,0.00914,-0.02535,0.00256,18.0,-27.5,-13.0
57.6814,19087.4168,-0.030235212710482958,-0.17143457367972487,0.049516341911113315,0.03235,-0.01741,0.04044,18.0,-27.5,-12.9
57.7102,19087.4368,-0.0038379110234761167,-0.14862208670484728,0.028285744845943483,0.05312,-0.01191,0.0496,18.0,-27.5,-12.9
57.7259,19087.4569,0.034553765639398694,-0.09523039156690233,-0.004989000812161137,0.03541,0.01435,0.0386,18.0,-27.5,-12.8
57.7534,19087.4769,0.07106593753960992,-0.03171856812590684,-0.04297260236796241,0.00547,0.04612,0.00867,18.0,-27.5,-12.8
57.7684,19087.4969,0.09512871650733809,0.030261513248316795,-0.07994250507475087,0.0067,0.0339,0.00745,18.1,-27.5,-12.8
57.7807,19087.517,0.1038546133789021,0.07982526504762448,-0.11215351750355218,0.05618,-0.01252,0.00623,18.1,-27.5,-12.6
57.8064,19087.537,0.09805162911123519,0.10378554157908951,-0.1371701229588762,0.06351,-0.0058,0.01661,18.1,-27.5,-12.6
57.8265,19087.557,0.08753421664641563,0.1144102126231689,-0.15382261864553648,0.06228,0.01374,0.02455,18.0,-27.5,-12.6
57.8447,19087.577,0.0774156013936752,0.11134718080250774,-0.16181475679378288,0.02808,0.00702,0.00134,18.0,-27.6,-12.6
57.8681,19087.5971,0.06950355290757734,0.09409884855196976,-0.1623113327923864,-0.00674,0.01252,-0.02004,18.0,-27.6,-12.6
57.8823,19087.6171,0.058607394552898,0.06318826923411965,-0.15833002623190495,-0.00735,0.0003,-0.02004,17.9,-27.6,-12.6
57.9038,19087.6371,0.043502431063233114,0.024301694413262732,-0.15456851860368026,0.00303,-0.00153,0.00134,17.9,-27.7,-12.7
57.9236,19087.6572,0.022224557222055245,-0.010247753319660675,-0.15613953419560112,0.0348,0.00886,0.01417,17.9,-27.7,-12.6
57.9436,19087.6772,-0.003128174042157708,-0.02558823547394474,-0.16668610858780575,0.00792,-0.01252,0.00134,17.8,-27.6,-12.5
57.9648,19087.6972,-0.028171197164435283,-0.012097954731235119,-0.18644777476084506,-0.02629,-0.02902,-0.03409,17.8,-27.7,-12.5
57.9843,19087.7172,-0.04760218793525363,0.0271547033484038,-0.21089503687603361,-0.02324,-0.02046,-0.02981,17.8,-27.6,-12.5
58.0087,19087.7372,-0.05578694975886916,0.07855584723496223,-0.23053375001137688,-0.00491,-0.00947,0.0044,17.8,-27.6,-12.3
58.0186,19087.7572,-0.04757929031855809,0.12395677784118457,-0.2329483050172243,0.02075,0.00519,0.02333,17.8,-27.6,-12.4
58.0386,19087.7772,-0.024745358602461236,0.14213538293549308,-0.20734559301425115,0.03052,0.00275,0.03188,17.8,-27.6,-12.4
58.0601,19087.7972,0.011946377485796526,0.12545593493096335,-0.1502050404663624,-0.00674,-0.03085,0.01906,17.7,-27.5,-12.3
58.0805,19087.8172,0.058989459984238574,0.07424442628484608,-0.06891370286710519,-0.05134,-0.09316,0.01234,17.7,-27.4,-12.3
58.1036,19087.8372,0.10717708841533768,0.00020538226951755093,0.01867690685709178,-0.07516,-0.01924,0.00378,17.8,-27.5,-12.3
58.1418,19087.8571,0.14490849268840864,-0.07430674309751918,0.08943453084575737,-0.0495,0.02963,-0.00904,17.8,-27.4,-12.3
58.1543,19087.8771,0.16193701674865676,-0.14520739782689074,0.12275543850517678,-0.02201,-0.02474,-0.01149,17.8,-27.4,-12.4
58.1656,19087.8971,0.15496715484733278,-0.1781374312796279,0.10855317799679298,0.04335,-0.06811,-0.01637,17.8,-27.4,-12.3
58.1805,19087.9171,0.12834503437278003,-0.16527693109051203,0.05043135447832725,0.07145,-0.03085,-0.02004,17.8,-27.4,-12.3
58.2022,19087.9372,0.09350509858619148,-0.11255311604616937,-0.036289208791673744,0.01525,0.04612,-0.03348,17.8,-27.4,-12.2
58.2202,19087.9572,0.052211918279662345,-0.03744850152814021,-0.13012835312591342,-0.01835,0.08338,-0.04692,17.8,-27.4,-12.3
58.2403,19087.9772,0.011215671579683836,0.033422782458025706,-0.21017840459752435,0.03357,0.0565,-0.02676,17.8,-27.4,-12.4
58.2585,19087.9972,-0.02486539415068329,0.08426041115400132,-0.2610943217074322,0.09038,-0.02474,-0.01332,17.8,-27.4,-12.4
58.2794,19088.0173,-0.04632311952268546,0.10796151799100387,-0.27596997622723407,0.04029,-0.05345,-0.03042,17.8,-27.4,-12.4
58.3013,19088.0373,-0.0474212694822898,0.10776525386830355,-0.25653053308282914,-0.00674,-0.00092,-0.03226,17.8,-27.5,-12.5
58.3193,19088.0573,-0.02968160621801963,0.08951766647961337,-0.2112365244040415,0.00242,0.02352,0.00317,17.8,-27.5,-12.5
58.3387,19088.0774,0.0001598777662618516,0.06044210128038441,-0.15236971365863106,0.02685,0.03268,0.01906,17.8,-27.5,-12.5
58.3723,19088.0974,0.03336985296160908,0.03239920006421597,-0.09323616680907953,0.00303,-0.01741,-0.00843,17.8,-27.5,-12.5
58.3879,19088.1174,0.06150657821211379,0.009754050996179259,-0.045988997575200585,-0.03912,-0.01924,-0.02615,17.8,-27.5,-12.6
58.4078,19088.1374,0.07856210179859713,-0.0007329857126213892,-0.02006874658627389,-0.04278,-0.01191,-0.00721,17.8,-27.5,-12.5
58.4262,19088.1575,0.07903809456099992,0.0008408900695209253,-0.020635389867996068,0.04823,0.0058,-0.01882,17.8,-27.5,-12.4
58.4426,19088.1775,0.061470573861583444,0.016164585650262974,-0.047486666712408976,0.02808,0.05589,-0.00721,17.8,-27.5,-12.5
58.4634,19088.1975,0.033040177181078496,0.04400382151468143,-0.0950177145384643,-0.00063,0.02169,-0.01026,17.9,-27.5,-12.5
58.4803,19088.2176,0.004060579568078835,0.08243468812351173,-0.15328608622649043,0.0238,-0.05101,-0.04997,17.9,-27.5,-12.6
58.4991,19088.2376,-0.011491142961254251,0.12085275747346058,-0.2098659753282579,-0.00919,0.02413,-0.0457,17.9,-27.5,-12.6
58.5181,19088.2576,-0.0093363604053079,0.14542757485016727,-0.2522054542894612,-0.05195,0.09132,-0.01088,18.0,-27.4,-12.6
58.5405,19088.2776,0.007116770424818818,0.14591866314605048,-0.27045402243531846,0.03541,0.0113,0.00378,17.9,-27.4,-12.6
58.5594,19088.2977,0.031722351644600334,0.12352680403956127,-0.26030694198654736,0.00731,0.01802,0.06854,18.0,-27.4,-12.6
58.58,19088.3177,0.057412661421613574,0.08730306393488417,-0.2246561740839823,-0.02385,-0.01069,0.09236,18.0,-27.5,-12.6
58.6067,19088.3377,0.07803913632024204,0.052748886145741844,-0.17298532883330076,-0.11364,0.03207,-0.0011,18.0,-27.5,-12.6
58.6251,19088.3578,0.08586543676815726,0.010470122785906458,-0.11797008567511469,-0.14663,0.06322,-0.0121,18.0,-27.5,-12.7
58.6493,19088.3778,0.07779029718951148,-0.022549864943115304,-0.071086132451196,-0.04828,-0.04979,-0.04447,18.0,-27.4,-12.7
58.6644,19088.3978,0.05676437172145199,-0.044776652693540565,-0.038450693610661446,0.01036,-0.02718,-0.00904,18.0,-27.5,-12.6
58.6924,19088.4179,0.03510952320979823,-0.04160679548110299,-0.019931197679987633,-0.00552,-0.00397,0.03616,18.0,-27.4,-12.6
58.7073,19088.438,0.025215668590854202,-0.021884899924649346,-0.011453697125993756,-0.09715,0.00641,-0.01515,18.0,-27.5,-12.8
58.7219,19088.458,0.02763105039411532,0.0039711868333514935,-0.008371401061102901,-0.07455,-0.0168,-0.0237,18.0,-27.5,-12.8
58.74,19088.4781,0.03706208650484505,0.022744406171117254,-0.00793332920166634,-0.02996,-0.03818,0.01112,18.0,-27.5,-12.7
58.7623,19088.4982,0.045440692508506166,0.024370991957622885,-0.009951462377481235,0.01708,-0.01924,0.02455,18.0,-27.5,-12.7
58.7978,19088.5183,0.04598424358694308,0.009633385423905533,-0.016250240249437553,0.03296,0.00641,-0.01393,18.0,-27.5,-12.6
58.8113,19088.5383,0.03480303830258381,-0.002554428232530395,-0.0293598761331193,-0.00247,0.01069,-0.03592,17.9,-27.5,-12.6
58.8282,19088.5584,0.012123262501955903,-0.01085882716290663,-0.050878691057752334,-0.03545,-0.01191,-0.02798,17.9,-27.6,-12.7
58.8442,19088.5784,-0.018898965279452423,-0.014900791645063563,-0.0800726641793652,-0.03423,0.0113,-0.05241,17.9,-27.5,-12.6
58.8608,19088.5985,-0.05210455634746897,-0.017433134944874883,-0.11306080926718032,-0.00063,0.03818,-0.05303,18.0,-27.5,-12.7
58.8814,19088.6186,-0.08255331014398892,-0.022748270529921236,-0.14339620281808863,0.02441,0.0565,-0.01026,18.1,-27.5,-12.6
58.9077,19088.6386,-0.10910693737849503,-0.032145512509623185,-0.1642874670733061,0.02563,-0.00153,0.05327,18.1,-27.5,-12.6
58.9227,19088.6587,-0.11244076530331489,-0.03698785292402561,-0.1711871164234502,0.04029,-0.0675,0.08259,18.1,-27.5,-12.7
58.9479,19088.6787,-0.09789379772060296,-0.036521815923755516,-0.16422958422904088,-0.02507,-0.03696,0.08992,18.2,-27.5,-12.6
58.9663,19088.6988,-0.05496980952982824,-0.03510545769834298,-0.1474836837456408,-0.07944,0.05284,0.07892,18.1,-27.5,-12.6
58.992,19088.7189,-0.004845961417075593,-0.02950049232287768,-0.1267131161870001,-0.03729,0.04368,0.09541,18.1,-27.5,-12.7
59.0073,19088.7389,0.06158699913055073,-0.018501846847307143,-0.10595520985649998,0.06717,-0.08705,0.13695,18.1,-27.4,-12.7
59.0301,19088.759,0.12266270537205441,0.002067659002503919,-0.08637806979220208,0.03541,-0.06078,0.16628,18.1,-27.4,-12.7
59.0649,19088.7791,0.18124600542308317,0.03417876617193352,-0.06741671771296076,-0.07638,0.01924,0.0948,18.0,-27.5,-12.8
59.07,19088.7991,0.23936284219397153,0.05616407673574954,-0.04879933487514698,-0.02324,0.14997,0.01173,18.0,-27.5,-12.8
59.0844,19088.8192,0.27034762731271933,0.06708575291014533,-0.03113180823321393,-0.01041,0.07178,0.02272,18.0,-27.5,-12.8
59.1016,19088.8393,0.2665379967661924,0.059893363170117356,-0.01705487498450431,-0.01407,-0.05345,0.00378,18.0,-27.4,-12.8
59.1215,19088.8594,0.23416854557498093,0.038947922773458724,-0.010685761788394643,-0.01957,-0.05345,-0.05364,17.9,-27.4,-12.8
59.1469,19088.8795,0.19144567870888432,0.014382756114946327,-0.01577476632658481,-0.03362,0.06322,-0.09212,17.9,-27.5,-12.8
59.1631,19088.8997,0.13741343576830606,-0.009440708634871866,-0.03332047241450553,-0.0153,0.03879,-0.09273,17.8,-27.5,-12.8
59.1855,19088.9198,0.0885710431265628,-0.02603286965670372,-0.06172571081088485,-0.0153,0.03451,-0.08418,17.7,-27.4,-13.0
59.2086,19088.9399,0.03769286162137259,-0.037272791340167505,-0.0966433435760834,0.00608,0.00641,-0.06036,17.6,-27.4,-12.9
59.2222,19088.96,-0.01060243808307068,-0.0410280124238273,-0.1327820621877187,0.03846,-0.00886,0.0044,17.6,-27.4,-12.9
59.2447,19088.9802,-0.04939773739811184,-0.04318010674378772,-0.1651393747391694,0.04152,-0.04368,0.02517,17.6,-27.4,-13.1
59.2649,19089.0003,-0.07036990992883732,-0.03845853689716894,-0.1898496492276216,0.03785,-0.02902,-0.00538,17.6,-27.4,-13.1
59.2858,19089.0204,-0.07448522345648619,-0.027562366112850983,-0.20454922384146101,0.03113,-0.00214,-0.04142,17.6,-27.4,-13.1
59.3053,19089.0405,-0.06648928722517818,-0.011676030887603522,-0.20798212057915855,0.00975,-0.00458,-0.02431,17.6,-27.4,-13.0
59.3252,19089.0605,-0.047116245299802705,0.006652654049328481,-0.1995365619984817,0.00425,-0.02535,0.03677,17.6,-27.4,-12.9
59.3479,19089.0806,-0.012597048059233382,0.02662657417993123,-0.1794127446321241,0.03541,-0.04734,0.06731,17.6,-27.4,-13.0
59.3692,19089.1007,0.04218997918218654,0.050577919477895125,-0.14949582946294804,0.02441,-0.03757,0.0105,17.7,-27.4,-13.0
59.3866,19089.1208,0.10477889084144977,0.07423475441403184,-0.11404595491517533,-0.04523,0.04734,-0.03775,17.7,-27.4,-13.1
59.4141,19089.1409,0.15408822779071268,0.09522420142967039,-0.07923315246581275,-0.08738,0.02779,-0.02859,17.7,-27.4,-13.0
59.4242,19089.1609,0.16784552792357568,0.09516471032817374,-0.05135113763596699,-0.03545,-0.03513,0.01234,17.7,-27.4,-13.0
59.446,19089.181,0.13922759424600134,0.08408742046730426,-0.035223743791496176,0.03113,-0.07361,0.0105,17.7,-27.4,-13.0
59.4659,19089.201,0.08086032278370345,0.0688852021133662,-0.031810114307537773,0.00242,-0.02596,-0.04631,17.8,-27.4,-12.9
59.4831,19089.2211,0.0037070653819420963,0.05485542910463794,-0.03727718816369574,-0.09165,0.09926,-0.0909,17.9,-27.5,-12.9
59.5118,19089.2412,-0.06590334526769558,0.0492142256839938,-0.04501997578391581,-0.09532,0.07788,-0.09518,17.9,-27.5,-12.8
59.5242,19089.2612,-0.13280792862801763,0.03260875442347209,-0.048830117617924884,-0.02812,-0.03818,-0.04692,18.0,-27.5,-12.7
59.552,19089.2813,-0.164685055110235,0.01468235779590518,-0.04509311303246655,0.06167,-0.12614,0.00806,18.0,-27.5,-12.6
59.5741,19089.3014,-0.14020929359226497,-1.9390294161571914e-05,-0.03357688831456507,0.01464,-0.01741,0.08686,17.9,-27.5,-12.7
59.5832,19089.3214,-0.056295466835952046,-0.011609466336348583,-0.018403245892521625,-0.02446,0.0675,0.1003,17.9,-27.5,-12.6
59.6088,19089.3415,0.04104450278509117,-0.023783853862139735,-0.0075824575505105685,-0.03545,0.05223,0.06854,17.9,-27.5,-12.7
59.6264,19089.3615,0.13293356051573935,-0.04484782922869951,-0.010012072632148872,-0.02201,-0.07789,0.05693,17.9,-27.5,-12.7
59.6454,19089.3816,0.18854907212202404,-0.06851006963480956,-0.032798733606279384,0.04213,-0.09621,0.04716,18.0,-27.5,-12.7
59.6632,19089.4017,0.19816627382753094,-0.08396592848045532,-0.0782335397248346,-0.02812,0.00275,-0.00171,18.0,-27.5,-12.6
59.6854,19089.4217,0.1631392408286027,-0.08083636884135066,-0.1416234204318627,-0.08799,0.13714,-0.06158,18.0,-27.5,-12.6
59.7147,19089.4418,0.09584514562259785,-0.05720700447173603,-0.21130083463719807,-0.01835,0.04978,-0.0518,17.9,-27.5,-12.7
59.746,19089.4618,0.01015678445507811,-0.02100829666458941,-0.2710153774572124,0.03724,-0.05284,-0.03775,17.9,-27.5,-12.7
59.7478,19089.4817,-0.07566268550460709,0.022880058838185297,-0.30431138873101027,-0.00247,0.0675,-0.00477,18.0,-27.4,-12.7
59.7626,19089.5017,-0.11863893406944745,0.061336617221054476,-0.29885457681355554,-0.01896,0.09499,0.01906,17.9,-27.3,-12.7
59.7865,19089.5217,-0.10849989060723673,0.08602569320312282,-0.2506837004862046,0.01464,0.03024,0.04349,17.9,-27.3,-12.8
59.8071,19089.5417,-0.041762731742592665,0.09564455927239109,-0.1664899087552456,-0.02263,-0.05712,0.03433,17.9,-27.3,-12.9
59.8347,19089.5617,0.06804565283087352,0.10096358034390716,-0.06284713085457305,-0.10815,-0.03513,0.02639,17.8,-27.4,-12.9
59.8561,19089.5817,0.20228697989241573,0.09424159146181864,0.038080119051866035,-0.12342,0.00641,0.03616,17.8,-27.4,-13.0
59.8643,19089.6017,0.3313279809228652,0.0664990057864461,0.11438381054116675,-0.16068,0.03635,0.0325,17.8,-27.4,-13.0
59.8838,19089.6217,0.41822272128294,0.04832739320943626,0.15082962760942742,-0.0495,-0.03146,0.03005,17.9,-27.4,-13.0
59.9066,19089.6417,0.4509619589732935,0.03212793546438501,0.142405060757973,-0.04706,-0.01802,-0.03165,17.8,-27.4,-13.1
59.9275,19089.6617,0.4261892526776116,0.022164701651975392,0.0943094415152288,-0.07638,-0.03879,-0.1416,17.8,-27.4,-13.2
59.9425,19089.6817,0.3419256591121966,0.015242637806534617,0.01890450004180444,-0.14174,0.02596,-0.18986,17.8,-27.5,-13.3
59.9678,19089.7017,0.2347079479199704,0.02777009447181452,-0.07067847323494902,-0.1674,-0.00825,-0.20085,17.7,-27.5,-13.3
59.9869,19089.7217,0.10262114826017037,0.02670277267055115,-0.16110028198039217,-0.15335,-0.0675,-0.14954,17.8,-27.4,-13.3
60.0117,19089.7417,-0.014992070335434149,0.021723617709319427,-0.2418392165750216,-0.11609,-0.06872,-0.11472,17.8,-27.4,-13.4
60.0241,19089.7617,-0.1030692111353086,-0.004365895913725208,-0.3023429706473575,-0.0776,-0.11332,-0.10312,17.9,-27.4,-13.4
60.0458,19089.7817,-0.14555548463989165,-0.029189203714745125,-0.3330218782172345,-0.07883,-0.13958,-0.11533,17.9,-27.4,-13.5
60.0677,19089.8017,-0.14992131703971032,-0.05996953058888987,-0.3280612356548591,-0.16923,-0.11637,-0.07624,18.0,-27.5,-13.6
60.1106,19089.8217,-0.14455818108934476,-0.07055223867622959,-0.2885483680555119,-0.18023,-0.23243,-0.0292,18.1,-27.4,-13.6
60.1137,19089.8417,-0.07889134070433532,-0.12628166697758525,-0.2230470327928593,-0.05011,-0.27581,-0.02676,18.1,-27.3,-13.6
60.1336,19089.8617,-0.01440444870218592,-0.15333113625257258,-0.14616031475675406,0.01158,-0.15913,-0.02187,18.1,-27.3,-13.7
60.1416,19089.8817,0.06516221880655237,-0.15216063403493818,-0.07306786569566448,-0.04767,-0.02291,0.02089,18.1,-27.2,-13.7
60.1637,19089.9016,0.1354167946398435,-0.1154773904137953,-0.015745446089731274,-0.04278,0.05406,0.03555,18.1,-27.1,-13.7
60.184,19089.9216,0.18905716999167027,-0.06082121854158618,0.019503869299102305,0.00425,-0.01741,0.03616,18.1,-27.1,-13.8
60.2044,19089.9416,0.2151248381740354,-0.0072606292884656995,0.03279989728824617,0.02319,0.04795,0.01173,18.1,-27.0,-13.8
60.231,19089.9616,0.20731279110513964,0.03312103404748398,0.028661654321716412,0.03724,0.05467,-0.01943,18.1,-26.9,-13.9
60.2452,19089.9816,0.16376517911859517,0.06956138602049758,0.012542914633907998,-0.00613,0.01863,0.00501,18.1,-26.9,-13.9
60.2631,19090.0016,0.09456208441280067,0.11086967417733413,-0.012184021128279099,-0.0324,-0.07728,-0.00782,18.2,-26.8,-13.8
60.2841,19090.0216,0.017266596895918276,0.16935514066965213,-0.04493362583744265,-0.05378,-0.08583,-0.02187,18.2,-26.7,-13.9
60.3125,19090.0416,-0.04852779122573974,0.24633978166968748,-0.08618042933136927,-0.1057,0.08583,-0.01332,18.2,-26.7,-13.9
60.3243,19090.0616,-0.09206929418558496,0.3125224464812264,-0.1339754008025409,-0.13441,0.05467,-0.00416,18.2,-26.6,-14.0
60.3466,19090.0816,-0.10663885895564693,0.36608634381726124,-0.18336506733177593,0.03418,-0.22999,-0.00843,18.1,-26.6,-14.0
60.3636,19090.1016,-0.08870879001320221,0.3699019339381773,-0.22452977600635116,-0.14602,-0.00153,0.10641,18.0,-26.6,-14.1
60.383,19090.1216,-0.05471942496450323,0.3081115170232241,-0.24623186423489862,-0.44351,0.01619,0.15161,18.0,-26.6,-14.1
60.4068,19090.1416,-0.027536408783964125,0.17528666532502232,-0.23742892743744193,-0.40197,-0.2135,0.05449,18.0,-26.6,-14.3
60.436,19090.1616,-0.02662124010226813,-0.015568183792571008,-0.1907457607775953,-0.29385,-0.49327,-0.05791,18.0,-26.6,-14.3
60.4478,19090.1816,-0.010027993246885683,-0.30827004503742783,-0.10904499355616082,-0.3415,-0.43524,-0.07318,18.0,-26.6,-14.5
60.4649,19090.2016,-0.010976561038825092,-0.5649895549334819,-0.004679539462658866,-0.31767,-0.21044,-0.0176,18.0,-26.6,-14.6
60.4846,19090.2216,-0.009976779703758027,-0.7487657209691353,0.10316307947303294,-0.11426,-0.10293,0.016,17.9,-26.5,-14.7
60.51,19090.2416,0.002078398319446912,-0.830308796603054,0.19072619108678346,0.06717,-0.04551,0.08808,17.9,-26.5,-14.8
60.5249,19090.2616,0.0189383269771843,-0.7913585436439937,0.2351420580461241,0.09405,0.23976,0.16261,17.9,-26.5,-15.0
60.5434,19090.2816,0.030118048102686576,-0.6475207597418546,0.21700031995912283,0.0629,0.44685,0.13756,17.9,-26.4,-15.0
60.5627,19090.3015,0.027061455398556627,-0.4285477725048851,0.12750204344802007,0.2095,0.18784,-0.0066,17.9,-26.4,-15.1
60.5841,19090.3215,0.018122661743743308,-0.17938166120869808,-0.025357260667671966,0.33168,-0.05956,-0.18497,17.9,-26.4,-15.2
60.6112,19090.3415,0.01810348426507792,0.04409317264006482,-0.21348140409693706,0.36894,-0.02718,-0.24178,17.8,-26.4,-15.3
60.6486,19090.3615,0.01822814411920716,0.18492431965062392,-0.3937405663106599,0.48256,-0.05284,-0.15504,17.8,-26.4,-15.4
60.6508,19090.3815,0.0701821379112655,0.43555313498002407,-0.530717195338303,0.54242,-0.2587,0.07526,17.9,-26.3,-15.4
60.6701,19090.4015,0.11517497133114137,0.5357975659179701,-0.5877256736115211,0.38849,-0.38882,0.15589,17.8,-26.4,-15.4
60.6862,19090.4215,0.20527887120874883,0.557841288104537,-0.5555791610710035,0.20828,-0.47373,0.10397,17.7,-26.4,-15.4
60.7064,19090.4415,0.3126279589356295,0.4895124703685461,-0.44209075476451076,0.10199,-0.36194,0.03311,17.6,-26.4,-15.3
60.7248,19090.4615,0.4322178400991702,0.36127014603889046,-0.27422836215784585,0.08794,-0.1292,0.0386,17.7,-26.4,-15.4
60.7444,19090.4815,0.5321121208700226,0.20492656935716133,-0.0869593808860003,0.00425,0.06933,0.16444,17.6,-26.4,-15.3
60.7696,19090.5015,0.5901244342782397,0.0535971104331243,0.08392664543850614,-0.02996,0.03574,0.14001,17.5,-26.5,-15.3
60.7862,19090.5215,0.6113616587275866,-0.07068612796549543,0.2079418122281229,0.00059,-0.05895,0.02761,17.4,-26.6,-15.3
60.8041,19090.5415,0.5932929507953395,-0.15079565520742666,0.26706067649061715,0.09649,-0.06689,-0.06158,17.4,-26.7,-15.2
60.8338,19090.5615,0.5509329806572857,-0.1868042474087688,0.2562044754435657,0.05434,0.19884,-0.02065,17.3,-26.7,-15.0
60.8451,19090.5815,0.4505960604141302,-0.15473124678647304,0.185950296689402,0.07145,0.25198,-0.05303,17.3,-26.8,-15.0
60.8696,19090.6015,0.3439378330685475,-0.09121410743529877,0.07067117342755758,0.10749,0.1011,-0.11656,17.3,-26.8,-15.0
60.8853,19090.6215,0.2119975962410216,0.008594173243287422,-0.0650668951700073,0.10871,0.06322,-0.18986,17.2,-26.9,-15.0
60.9119,19090.6415,0.12252873801171277,0.0995202359198118,-0.19628088895611917,0.11787,0.27764,-0.19291,17.2,-26.9,-14.8
60.9274,19090.6615,0.03300118247492538,0.19099658259366575,-0.29666557827985685,0.13437,0.34544,-0.10495,17.2,-27.0,-14.8
60.9485,19090.6815,-0.011789433973070145,0.2444757141049446,-0.3471525689851873,0.16308,0.17379,-0.04936,17.1,-27.1,-14.8
60.9627,19090.7015,-0.020600812060615665,0.2715236181217965,-0.33959259656723617,0.11543,0.04612,0.02639,17.2,-27.1,-14.8
60.9862,19090.7214,0.01418763445397876,0.2639001074445863,-0.2787147947610489,-0.03423,-0.05528,0.06182,17.2,-27.1,-14.8
61.0091,19090.7414,0.09827015797719624,0.23341006081234472,-0.18269154548393374,-0.00063,0.03207,0.0667,17.3,-27.1,-14.9
61.0557,19090.7614,0.2266642355027166,0.18428034378100175,-0.07891863237147412,0.0464,0.1744,0.07098,17.3,-27.1,-14.8
61.0636,19090.7814,0.3372699029552903,0.14429003107220967,0.0037244912816003506,0.00975,0.33628,0.12107,17.3,-27.1,-14.7
61.0643,19090.8014,0.4161969204564768,0.13595738249762193,0.040923014916629086,0.1588,0.21961,0.09908,17.3,-27.1,-14.6
61.0854,19090.8214,0.4479600126205156,0.14681906506966752,0.017904870625971014,0.15269,0.03024,0.07281,17.4,-27.0,-14.5
61.105,19090.8414,0.4391846485342213,0.21145583530119338,-0.06953397358292435,0.04579,0.03146,0.08381,17.5,-27.0,-14.4
61.122,19090.8614,0.406257248175509,0.3142756459186445,-0.2103660477732845,0.0519,0.20678,0.01783,17.5,-27.0,-14.3
61.142,19090.8814,0.3665505908187368,0.4185500540447357,-0.37602984635088177,0.11115,0.22999,0.00195,17.6,-27.1,-14.2
61.1687,19090.9014,0.3332471006049173,0.4830458559911834,-0.523872352502929,0.3219,0.14019,-0.06891,17.7,-27.1,-14.1
61.1845,19090.9214,0.3195483988579851,0.5380692188755352,-0.6128216353497695,0.31274,-0.22388,-0.04753,18.0,-27.2,-13.8
61.2031,19090.9414,0.34997920317653436,0.5390613076489882,-0.6100920844076185,-0.01774,-0.22694,0.04532,18.2,-27.3,-13.6
61.2215,19090.9614,0.4316284003432119,0.47511266434556204,-0.5067289156779591,-0.2908,-0.11576,0.1058,18.2,-27.3,-13.4
61.2437,19090.9814,0.5347010292559429,0.35143523031445056,-0.32181211788237896,-0.25414,0.05345,0.22003,18.5,-27.5,-13.2
61.2617,19091.0014,0.6305521792921815,0.18301385328950762,-0.10167085364649964,-0.03057,-0.28986,0.06487,18.6,-27.5,-13.0
61.2821,19091.0214,0.6704717515771322,0.04930944919235971,0.09200759739240105,-0.15091,-0.55864,0.07587,18.9,-27.6,-12.8
61.3054,19091.0414,0.6546886223500701,0.022310366807980347,0.19984970356822274,-0.26025,-0.4218,0.07709,19.1,-27.8,-12.4
61.3261,19091.0614,0.614653755930582,0.12497026827668743,0.18447946341692578,-0.16312,0.0223,-0.00782,19.4,-27.9,-12.2
61.3437,19091.0814,0.543477431322875,0.3372693556479821,0.04873461719781069,-0.00674,0.38454,-0.06952,19.7,-28.0,-12.1
61.3634,19091.1013,0.4441370551433048,0.6053618647482667,-0.16742015620669015,0.08,0.29169,-0.0628,19.9,-28.1,-12.0
61.3819,19091.1213,0.3214118096985207,0.8586116175859541,-0.4026760832670835,0.09038,0.07605,-0.06219,20.0,-28.2,-11.8
61.404,19091.1413,0.20759680081663623,1.0255761165503747,-0.5980512840075018,0.03968,-0.07544,-0.03775,20.1,-28.3,-11.5
61.4236,19091.1613,0.1260353166418273,1.058772467823109,-0.7125992514740833,-0.12403,-0.17868,-0.04508,20.2,-28.3,-11.4
61.4419,19091.1813,0.07949842358114602,0.9417099297180178,-0.730146832861001,-0.2688,-0.12676,-0.03103,20.2,-28.2,-11.5
61.4616,19091.2013,0.049352609739262095,0.7155129382615198,-0.662341037669842,-0.34944,-0.10904,-0.00721,20.1,-28.2,-11.7
61.4856,19091.2213,0.015511526718332789,0.4651646071917055,-0.540963174046885,-0.36166,-0.08766,-0.00355,19.8,-28.2,-12.0
61.5057,19091.2413,-0.0281539969960738,0.2427092176060886,-0.40283264393469587,-0.41602,0.04123,0.03311,19.5,-28.2,-12.3
61.5265,19091.2613,-0.0760765480708826,0.12756140365164848,-0.2806361742997403,-0.37937,0.15363,0.02578,19.3,-28.0,-12.4
61.5433,19091.2813,-0.12943726967328942,0.13408773227414955,-0.1880622812723285,-0.21444,0.3149,0.02089,19.1,-28.1,-12.7
61.562,19091.3013,-0.1791444028051141,0.2651246037301149,-0.11954817197024248,-0.11914,0.38087,0.08686,18.9,-28.1,-13.0
61.5819,19091.3213,-0.22415076813403542,0.47209968187100426,-0.057799860040002926,-0.08066,0.27031,0.16322,18.8,-28.0,-13.3
61.6072,19091.3413,-0.25234025632011514,0.6932982355841649,0.013494658118533565,-0.03851,0.08888,0.14306,18.5,-27.9,-13.7
61.6217,19091.3613,-0.24084695695590677,0.8724552658233996,0.09865659371624247,0.00853,0.04062,0.0551,18.1,-27.8,-14.1
61.6416,19091.3813,-0.1904863240740524,0.98057229061248,0.18350918979745856,-0.00308,0.10354,-0.05669,17.9,-27.8,-14.2
61.6635,19091.4013,-0.12374617323528392,1.0198645850996448,0.23886264377962974,-0.10204,0.20739,-0.08662,17.7,-27.7,-14.4
61.6821,19091.4213,-0.08692435184261202,1.0078982002249774,0.23250619045239418,-0.17656,0.11698,-0.11045,17.6,-27.7,-14.7
61.7055,19091.4413,-0.09279324737892031,0.9888447032751121,0.14073922953188855,-0.13441,-0.07422,-0.17642,17.4,-27.7,-15.0
61.7252,19091.4613,-0.1535185659028258,0.9838918045463046,-0.03687818340267057,-0.09776,-0.1182,-0.27049,17.3,-27.8,-15.0
61.7443,19091.4813,-0.24846782164098652,1.016069669512959,-0.27441865645714714,-0.08127,0.0449,-0.31325,17.3,-27.8,-15.1
61.7641,19091.5013,-0.35540000475329153,1.0772640054107911,-0.5205328869564649,-0.03851,0.23243,-0.25644,17.4,-27.8,-15.1
61.7859,19091.5213,-0.4521202086749216,1.1329094383186453,-0.7126685707734186,-0.0214,0.21411,-0.12266,17.6,-27.8,-15.1
61.8211,19091.5412,-0.51002977480571,1.1399228195369435,-0.7962687047500427,0.00547,0.01802,-0.06341,17.8,-27.9,-14.9
61.83,19091.5612,-0.5107768912299806,1.0664612925769454,-0.7422449200714265,-0.01102,-0.16219,-0.00599,18.2,-28.0,-14.8
61.8451,19091.5812,-0.43854797337950757,0.9114271245333587,-0.5564339373841705,-0.05683,-0.21167,0.03983,18.3,-28.0,-14.9
61.8662,19091.6012,-0.3149238104735211,0.7111935910592532,-0.2812292192246879,-0.15824,-0.12126,0.06426,18.6,-28.2,-14.7
61.8878,19091.6212,-0.17427391187879188,0.5146124160926963,0.01829780965151251,-0.19428,-0.05284,0.14795,18.7,-28.3,-14.8
61.9156,19091.6412,-0.08048010270692156,0.3859680434942396,0.27212032913219986,-0.15457,-0.12614,0.20109,19.1,-28.4,-14.7
61.9357,19091.6613,-0.04632611732377218,0.330837913242556,0.43137034964244414,-0.12342,-0.15424,0.16139,19.5,-28.5,-14.5
61.9553,19091.6813,-0.09201047963374358,0.3673821591127288,0.4812818639235026,-0.05378,-0.22999,0.07526,19.9,-28.6,-14.5
61.9724,19091.7014,-0.18671318093534617,0.4792674968415819,0.44816172828306833,0.04823,-0.24343,-0.01271,20.1,-28.7,-14.4
61.9871,19091.7214,-0.2884281035071768,0.637540536015073,0.3847693240918737,0.13925,-0.16219,-0.05119,20.3,-28.7,-14.5
62.0157,19091.7415,-0.35606558739797817,0.7964507016581673,0.3457727850597969,0.0629,-0.0339,-0.00232,20.5,-28.8,-14.5
62.0271,19091.7616,-0.35655164109024473,0.919581607421881,0.3644730557478528,-0.10326,-0.11393,0.02517,20.7,-28.9,-14.7
62.0466,19091.7816,-0.3056967435943453,0.9744182357119108,0.443943525834932,-0.11731,-0.36316,0.05388,20.6,-29.0,-14.9
62.0812,19091.8017,-0.2817280095030219,0.9292565210637244,0.5643699468966954,-0.04584,-0.58979,0.1675,20.5,-29.0,-15.0
62.0935,19091.8217,-0.10576143451960708,0.7577904142746483,0.7017730413066108,0.08672,-0.624,0.29578,20.1,-28.9,-15.1
62.1207,19091.8418,0.029558674044919627,0.4829337726129034,0.8201298907570873,0.08977,-0.36927,0.1846,19.8,-29.0,-15.5
62.1367,19091.8619,0.2062638908580799,0.14153518732438583,0.8991737533945354,-0.12525,-0.07178,0.07709,19.2,-29.1,-15.9
62.1448,19091.8819,0.3562213320760161,-0.25158361979525884,0.9306867552252722,-0.23765,-0.13409,-0.02126,18.9,-29.2,-16.1
62.1635,19091.902,0.4465035537904787,-0.6125317442494799,0.9138405426626477,-0.2407,-0.42486,-0.07502,18.6,-29.2,-16.2
62.1836,19091.9221,0.5004261434304307,-0.910413093513081,0.8421955813333746,-0.23215,-0.54031,-0.08846,18.3,-29.1,-16.6
62.2138,19091.9421,0.5345102376023706,-1.0757588171567816,0.7060147318233394,-0.17046,-0.49083,-0.04814,18.1,-29.2,-16.6
62.2256,19091.9622,0.6781797131538039,-1.085820125704525,0.4897612311730484,-0.05806,-0.33934,-0.01393,17.8,-29.2,-17.1
62.2513,19091.9822,0.8414878057485412,-0.9086965534711057,0.20617328477866792,0.02013,-0.18418,-0.01698,17.2,-29.2,-17.3
62.2665,19092.0023,1.015031122730852,-0.6075954847955772,-0.1220138001227351,-0.00125,-0.16341,-0.07685,16.8,-29.2,-17.7
62.2879,19092.0224,1.132549191894594,-0.28605459424649077,-0.44572135448446204,-0.01102,-0.19395,-0.18986,16.5,-29.3,-18.0
62.3113,19092.0424,1.1663411346512471,-0.04229488597805777,-0.7049227727166301,0.1417,-0.31735,-0.3328,16.2,-29.3,-18.2
62.3291,19092.0625,1.1054234915163128,0.09592883474704286,-0.84908997840353,0.31091,-0.34056,-0.49651,15.9,-29.3,-18.4
62.3449,19092.0825,0.9575752869037666,0.10599094433424162,-0.8566191717127278,-0.19367,-0.04368,-0.42749,15.7,-29.4,-18.5
62.3687,19092.1026,0.7890176995640101,0.03806315609534583,-0.7460226151008253,-0.70435,0.43096,-0.29187,15.7,-29.5,-18.7
62.388,19092.1227,0.5807376033210718,-0.10424484433575437,-0.5628719497376728,-0.60539,0.11393,-0.42199,15.7,-29.5,-19.0
62.415,19092.1427,0.41471596154115115,-0.22013838229655983,-0.3885018632859989,-0.32012,0.05834,-0.45436,15.8,-29.5,-19.0
62.4309,19092.1628,0.244964397976629,-0.30137474621466476,-0.29687163194258837,-0.21138,-0.03085,-0.39633,16.1,-29.6,-19.1
62.4485,19092.1829,0.13520484363695046,-0.2628287677605928,-0.3314529390047696,0.04701,-0.17929,-0.29371,16.2,-29.6,-19.3
62.4723,19092.2029,0.07620860773126092,-0.1099124203029345,-0.48512370330353427,0.24921,-0.2025,-0.15809,16.6,-29.6,-19.3
62.49,19092.223,0.05484264521104515,0.15272002197663986,-0.712164973451781,0.26143,-0.20189,-0.0964,16.7,-29.6,-19.3
62.5148,19092.243,0.03740602726664233,0.4364936296811175,-0.9506267968056932,0.23882,-0.20189,-0.16481,17.0,-29.6,-19.3
62.5235,19092.2631,0.006394775523544059,0.71418084371991,-1.1434997231234707,0.11115,-0.06628,-0.18925,17.3,-29.7,-19.2
62.5435,19092.2831,-0.02922179127401642,0.8947341676186631,-1.2444662324548919,0.04396,0.02474,-0.17764,17.8,-29.7,-19.1
62.5694,19092.3031,-0.047460066707457345,0.965974079213387,-1.2306593373856405,0.03418,0.11393,-0.13794,18.2,-29.7,-18.9
62.5862,19092.3231,-0.04451292341789367,0.9428635491165295,-1.1034508932170812,0.00547,0.19273,-0.07624,18.5,-29.8,-18.9
62.6037,19092.3431,0.022258709533924764,0.8531708649777814,-0.8839059374887555,-0.01285,-0.08705,0.016,18.8,-29.8,-18.9
62.6283,19092.363,0.14946692358373953,0.7423941258486385,-0.6085596410776937,-0.02812,-0.3204,0.12046,19.0,-29.8,-18.9
62.6441,19092.383,0.37598317836345824,0.636409863689042,-0.32133826595522486,-0.03606,-0.34728,0.25302,19.3,-29.8,-18.8
62.6643,19092.403,0.6420882946497645,0.5686316823711609,-0.06702909450295635,0.10932,-0.19456,0.32143,19.4,-29.8,-18.8
62.687,19092.423,0.912849840646878,0.549646067429597,0.11889632965209529,0.19179,-0.10782,0.29028,19.4,-29.8,-18.9
62.7113,19092.443,1.1386310577279155,0.578769871020864,0.21881598212089237,0.21195,-0.10965,0.25607,19.2,-29.9,-19.1
62.7247,19092.463,1.3294630852025953,0.6822115349386526,0.22759137676629315,0.30358,-0.28253,0.20904,18.9,-29.9,-19.4
62.747,19092.483,1.4090317545222393,0.805190257804967,0.175726801605796,0.41598,-0.44563,0.12657,18.9,-30.0,-19.4
62.7637,19092.503,1.45012967902569,0.9984632452970215,0.08033680740845917,0.42514,-0.40836,0.0606,18.5,-30.0,-19.6
62.7863,19092.523,1.4225405030709088,1.2150068037390742,-0.015414697476522576,0.34206,-0.25382,0.05632,18.3,-30.1,-19.7
62.8129,19092.543,1.331043717509657,1.4357345802502264,-0.07840710850553023,0.26631,-0.24404,0.03799,18.0,-30.2,-19.8
62.8341,19092.563,1.184806414479908,1.631839730914038,-0.0853493778587282,0.26937,-0.35461,-0.06036,17.6,-30.2,-19.9
62.8545,19092.583,0.9735230760963426,1.722505849114748,-0.014682982373230402,0.20889,-0.27153,-0.17092,17.1,-30.4,-20.1
62.8682,19092.603,0.699372792864357,1.6546327945054324,0.13629764663574662,-0.01102,-0.18662,-0.30653,16.7,-30.5,-20.5
62.8878,19092.623,0.4057788233651429,1.3841403708811646,0.3538920890337458,-0.2688,-0.02352,-0.42688,16.3,-30.6,-20.6
62.9125,19092.643,0.1292484578218039,0.9524032152063524,0.6038720454547395,-0.4991,0.28008,-0.38839,16.0,-30.8,-20.9
62.925,19092.663,-0.2196019541268009,0.3288777621070829,0.8428181173233487,-0.75933,0.4835,-0.17581,15.8,-30.8,-21.1
62.9446,19092.683,-0.5218595494486543,-0.2652015694284525,0.9936050282028894,-0.91388,0.31734,-0.0237,15.5,-30.9,-21.3
62.9651,19092.703,-0.803476760453179,-0.7677717528644692,0.993616404636537,-0.86806,0.17379,-0.04386,15.5,-31.0,-21.5
62.9914,19092.723,-1.0261267638266895,-1.0745180245028445,0.8069333424714387,-0.62922,0.29535,-0.05241,15.5,-31.0,-21.6
63.0231,19092.7431,-1.170275146890994,-1.1941694244958878,0.4477921730214973,-0.3586,0.51465,-0.00293,15.5,-31.1,-21.7
63.0281,19092.7631,-1.3777679251454846,-1.1652304895166445,-0.022911595827370235,-0.05317,0.63133,0.02883,15.8,-31.2,-21.7
63.0878,19092.7831,-1.2996863712673823,-1.1239520356816424,-0.4408766475460393,0.10138,0.62461,0.10763,16.2,-31.3,-21.6
63.0945,19092.8031,-1.3088115456620395,-0.9693075631595471,-0.7126423832176574,0.14597,0.56047,0.28356,16.3,-31.3,-21.6
63.0984,19092.8232,-1.1782013185085545,-0.9163871927921885,-0.7505857923169401,0.1588,0.47189,0.40451,16.8,-31.4,-21.4
63.1079,19092.8432,-0.9129603397875019,-1.025047589388667,-0.5571973148103044,0.09955,0.39126,0.51936,17.0,-31.3,-21.3
63.1324,19092.8632,-0.5950142409883955,-1.231654096924885,-0.20889568824573423,-0.07272,0.197,0.58655,17.6,-31.6,-21.2
63.1456,19092.8833,-0.23332029835754983,-1.4663024966981135,0.16957414067054088,-0.21688,-0.1011,0.48393,18.1,-31.8,-21.1
63.1657,19092.9033,0.06646264017418516,-1.6052496140221661,0.44152176761021167,-0.08738,-0.26542,0.32877,18.1,-31.8,-20.5
63.1846,19092.9233,0.310139515643987,-1.5889788990601514,0.5050188300551106,0.05801,0.03146,0.17177,18.4,-31.7,-20.8
63.2062,19092.9433,0.4901627826272482,-1.3836826590144824,0.3347716355643069,0.19057,0.33262,0.06243,18.5,-31.9,-20.9
63.2276,19092.9634,0.5959339568277079,-1.0028602680342238,-0.0105316201722232,0.26326,0.48411,-0.0176,18.6,-31.9,-20.9
63.2488,19092.9834,0.6157641744500242,-0.5172470465761801,-0.420794985612412,0.25532,0.55497,-0.05058,18.9,-32.1,-20.8
63.264,19093.0034,0.5434540617439604,-0.019058969426713188,-0.7807684122436971,0.19118,0.5904,-0.0573,18.9,-32.2,-20.5
63.2856,19093.0235,0.45684587119928816,0.37308367917846147,-1.0123586378168312,0.14903,0.27886,-0.09395,18.9,-32.3,-20.3
63.3087,19093.0435,0.3785585953416446,0.6164814003416962,-1.0805441604514208,0.09161,0.09255,-0.07624,19.0,-32.4,-20.1
63.3322,19093.0635,0.33560831106301064,0.7076974050595808,-0.997760420320418,-0.00125,0.2251,-0.04386,18.6,-32.5,-19.9
63.3464,19093.0835,0.3140287850771414,0.6750222762992332,-0.8055726438113915,-0.05256,0.36682,-0.0121,18.3,-32.5,-19.9
63.3668,19093.1036,0.32402357394619064,0.5708261236866803,-0.5582280214899473,-0.1167,0.32834,-0.02676,18.4,-32.6,-20.0
63.3849,19093.1236,0.32354758449248466,0.42934174028047095,-0.3012417889364851,-0.16923,0.20922,0.00378,18.0,-32.6,-20.0
63.4169,19093.1436,0.30282320297406246,0.28744523716782555,-0.06637766744091245,-0.08066,-0.03451,-0.0011,17.9,-32.7,-20.1
63.4303,19093.1637,0.25918797520147907,0.14255181046446658,0.13343321674273234,0.0855,-0.12676,0.00806,17.8,-32.7,-20.1
63.4453,19093.1837,0.20117113399152678,0.018361206628596607,0.2974955120067104,0.13376,0.03024,0.07587,17.5,-32.7,-20.2
63.4716,19093.2037,0.12575664378344492,-0.08434228865849105,0.4302998973071901,0.17713,0.03024,0.13268,17.4,-32.7,-20.2
63.4855,19093.2237,0.06800012035018688,-0.10065023649939357,0.5319891100547061,0.19179,-0.11209,0.1394,17.1,-32.8,-20.3
63.5148,19093.2438,-0.003187305088868755,-0.056308568403962034,0.5957907290303925,0.13314,-0.11942,0.11374,17.1,-32.8,-20.2
63.5358,19093.2638,-0.03110286190308809,0.06779792253407971,0.6145756197486154,0.21622,-0.23977,0.06793,17.0,-32.8,-20.2
63.5468,19093.2838,0.0331836347068571,0.2742507685875309,0.5925342104958791,0.39276,-0.51404,-0.00721,16.9,-32.8,-20.3
63.567,19093.3038,0.1416261032596733,0.44477676871658756,0.5538071540483234,0.62489,-0.68386,-0.02676,16.8,-32.9,-20.4
63.5884,19093.3238,0.330513316429418,0.5782123098588672,0.5284060768703878,0.63711,-0.47189,0.03433,16.8,-33.0,-20.5
63.6157,19093.3438,0.5561223682741381,0.6272118273325653,0.5364149932517943,0.15514,-0.2306,0.11069,16.8,-33.1,-20.5
63.6315,19093.3638,0.8012027813622183,0.5669176130937412,0.5730380307491014,-0.09349,-0.15424,0.09419,16.9,-33.3,-20.6
63.6666,19093.3838,0.9454185933372913,0.3831021311467809,0.6217147580101141,-0.15702,-0.3375,-0.02065,17.0,-33.5,-20.6
63.6703,19093.4038,1.007637086286088,0.01290921620987384,0.646296634787582,-0.19428,-0.33262,-0.15809,17.1,-33.7,-20.4
63.6926,19093.4238,0.9530305405443872,-0.3819408906459934,0.6097088915810307,-0.08677,-0.32712,-0.28454,17.0,-33.8,-20.5
63.7143,19093.4438,0.8357649860278498,-0.718161117632696,0.48920207231196855,-0.03362,-0.28008,-0.35846,17.2,-34.0,-20.3
63.7287,19093.4638,0.7048085217692385,-0.9126348777560684,0.28827277864804834,-0.00858,-0.1518,-0.30898,17.4,-34.2,-20.2
63.7455,19093.4838,0.6131519799140315,-0.9517747758533687,0.03073166040770481,0.07206,-0.09132,-0.19963,17.7,-34.3,-19.8
63.7777,19093.5038,0.5670860879687818,-0.9103901730031821,-0.2458717378152322,0.25654,-0.06994,-0.11961,17.9,-34.5,-19.8
63.7917,19093.5238,0.5706688905652958,-0.7446582027240684,-0.48458022040380655,0.47645,-0.20495,-0.05608,18.2,-34.6,-19.7
63.8136,19093.5438,0.5766499257178105,-0.5945673955423837,-0.6512209103938531,0.48073,-0.42608,-0.12144,18.4,-34.7,-19.6
63.829,19093.5638,0.5981741110057487,-0.43686022348857245,-0.7259349334318941,0.22783,-0.43952,-0.16848,18.6,-34.8,-19.5
63.8466,19093.5837,0.6028353570556034,-0.3192808386737209,-0.7201756806909234,0.12643,-0.24465,-0.1923,18.7,-34.9,-19.3
63.8765,19093.6037,0.5996257688178441,-0.23854680185848906,-0.665874632377923,0.01342,-0.0223,-0.18009,18.9,-35.0,-19.1
63.888,19093.6237,0.5462403721280228,-0.1891871402409467,-0.5999631802697394,-0.14541,0.11393,-0.15993,18.9,-35.0,-19.2
63.9053,19093.6437,0.4828125923053286,-0.1520905014931076,-0.5598648139653619,0.10871,-0.10232,-0.18558,18.9,-35.0,-19.2
63.9314,19093.6637,0.42150639754802893,-0.11025246436460291,-0.5666504520780702,0.20828,-0.17807,-0.11717,18.7,-34.9,-19.3
63.9466,19093.6837,0.3968820103021146,-0.002241773000779228,-0.624364893700962,0.18324,-0.09438,-0.04997,18.6,-34.8,-19.3
63.9703,19093.7037,0.4138781827400499,0.14868156713293665,-0.7233552718492948,0.13498,0.00275,0.00989,18.3,-34.7,-19.5
63.9891,19093.7237,0.4519081883420776,0.3290897510596836,-0.8454056794211393,-0.07577,0.19334,-0.01698,18.4,-34.7,-19.5
64.0134,19093.7437,0.4794244539311265,0.4924885791304213,-0.9672170555109876,0.20217,0.10354,-0.0402,18.1,-34.6,-19.7
64.0272,19093.7637,0.4821894118114487,0.661310942076553,-1.069240908659296,0.50333,-0.15852,-0.05608,17.9,-34.6,-20.0
64.0606,19093.7837,0.4537905544450765,0.7684639257995861,-1.1299836961307754,0.26265,-0.08766,0.01967,17.6,-34.6,-20.2
64.0823,19093.8037,0.44278165353900373,0.881002108427837,-1.146789100220765,0.02747,-0.01375,0.01539,17.3,-34.5,-20.3
64.1133,19093.8237,0.4606807662362553,0.9438729448042039,-1.110138261937104,-0.00247,0.14203,-0.02981,17.0,-34.5,-20.5
64.1224,19093.8437,0.4948414038170591,0.9758716373019479,-1.0198719517347978,0.2767,0.1408,-0.12511,16.7,-34.5,-20.7
64.1335,19093.8637,0.5597904464401334,0.9552165636764721,-0.8758712248681899,0.23821,-0.08888,0.01722,16.6,-34.5,-20.7
64.1432,19093.8837,0.6532933798340637,0.8940528260855836,-0.6846950293499319,0.01769,-0.03207,0.11802,16.4,-34.5,-20.9
64.1649,19093.9037,0.7530660184774032,0.8035966043304487,-0.4569160981378779,-0.11731,-0.03635,0.0832,16.3,-34.5,-20.9
64.1866,19093.9237,0.8471896146172028,0.7076609040046781,-0.21102471646706533,-0.07211,0.04734,0.03005,16.3,-34.5,-20.8
64.2062,19093.9438,0.9149977121701596,0.6293711622039113,0.031095442456054556,-0.05622,-0.1689,0.0441,16.3,-34.5,-20.7
64.2259,19093.9638,0.94712840250017,0.5994590464509649,0.24731274108060575,-0.2798,-0.07239,0.13207,16.4,-34.5,-20.6
64.2466,19093.9838,0.9526338177973687,0.623388307494288,0.4250701899649485,-0.25903,0.208,0.06426,16.7,-34.7,-20.5
64.2655,19094.0038,0.9374095927376336,0.6694907921435913,0.5714609611069825,-0.02201,0.41264,-0.05241,16.9,-34.9,-20.3
64.2894,19094.0239,0.9184406299021066,0.6897172039939944,0.7092550195999916,0.22661,0.31124,-0.09579,17.0,-35.0,-20.3
64.3087,19094.0439,0.8772084272012906,0.6580552228230956,0.8636807626821188,0.20828,0.06261,-0.05425,17.3,-35.1,-20.0
64.3254,19094.0639,0.8291736956689362,0.5424675692771995,1.0388397155445244,0.05251,-0.0058,0.05082,17.4,-35.2,-19.9
64.3452,19094.084,0.7711112173575985,0.33202160567979,1.2096041854363015,-0.04156,-0.1237,0.09847,17.6,-35.3,-19.6
64.3669,19094.104,0.6996889901414616,0.06315802472271531,1.3221587194241007,-0.11731,-0.20495,0.10458,17.9,-35.5,-19.5
64.3855,19094.124,0.6148104714353931,-0.22142845370585268,1.3122108768768257,-0.29874,-0.06567,0.12657,18.2,-35.6,-19.3
64.4107,19094.144,0.5060782321561147,-0.4299898004538103,1.1328169544034203,-0.34761,0.28436,0.03188,18.6,-35.7,-19.0
64.4305,19094.1641,0.3338277177640841,-0.5564477693296928,0.777468436579408,-0.16923,0.35644,-0.01821,18.8,-35.8,-19.0
64.4476,19094.1841,0.10276641122417203,-0.5678613926287298,0.2896263197354312,-0.03301,0.32467,0.01234,19.0,-35.8,-18.9
64.4675,19094.2041,-0.132826787658591,-0.47808962815842837,-0.24755258949323533,0.07756,0.20189,0.10702,19.1,-35.8,-18.9
64.4886,19094.2242,-0.3066224489040691,-0.33410462010305114,-0.7345987440257584,0.2541,0.08094,0.20415,19.4,-35.9,-18.7
64.5085,19094.2442,-0.3568803979349355,-0.19080396594235458,-1.08428127298186,0.27914,0.25381,0.32877,19.3,-35.9,-18.6
64.5249,19094.2642,-0.26786529674982174,-0.0997354053452329,-1.2472070418838346,0.18934,0.3375,0.42284,19.3,-36.0,-18.6
64.5466,19094.2842,-0.0914539523510982,-0.10454176769258329,-1.2234593298479428,0.09955,0.28069,0.43689,19.0,-35.9,-18.7
64.5657,19094.3043,0.120865986509892,-0.19516520391086806,-1.0555981339519676,0.11115,0.20006,0.44116,18.7,-35.9,-18.8
64.5869,19094.3243,0.2980816600545548,-0.3397806690081214,-0.815268570809577,-0.04889,-0.12676,0.29028,18.6,-35.9,-18.8
64.6087,19094.3443,0.4079388283415227,-0.48274991209510265,-0.5817739654091714,-0.1338,0.0058,0.07953,18.2,-35.9,-19.0
64.6254,19094.3644,0.4345292962000643,-0.5795711370553915,-0.4196481412470554,-0.23948,0.17501,-0.04203,18.0,-35.9,-19.0
64.6451,19094.3844,0.38987123166581095,-0.5792383257413692,-0.3604203700882618,-0.29752,0.33872,-0.13488,17.7,-35.9,-19.1
64.667,19094.4044,0.293992030692734,-0.47671695574825057,-0.4005273480532825,-0.26819,0.40103,-0.17276,17.3,-35.8,-19.3
64.6902,19094.4244,0.16569061726434775,-0.29481169904860366,-0.5081243450320052,-0.2572,0.41325,-0.18558,17.0,-35.8,-19.4
64.7091,19094.4445,0.014004428193159111,-0.07803525262374034,-0.6368230026002237,-0.20344,0.34728,-0.14404,16.6,-35.7,-19.6
64.7269,19094.4645,-0.11318484008590014,0.14235007540514985,-0.739460793362376,-0.18817,0.19456,-0.12511,16.4,-35.7,-19.7
64.7485,19094.4845,-0.18006405377946116,0.3364336043240193,-0.7787801399752343,-0.11792,0.07911,-0.12816,16.2,-35.7,-19.9
64.7789,19094.5045,-0.16745096338826046,0.48139052985583775,-0.7350906938049793,-0.12953,0.04978,-0.0683,16.0,-35.7,-19.8
64.7877,19094.5245,-0.11301506085692437,0.5321463199051517,-0.6078673233248271,-0.15152,0.20922,-0.02615,15.8,-35.7,-19.9
64.8126,19094.5445,0.004655857567018212,0.5263835611127106,-0.41787427992255033,-0.0776,0.21961,0.05693,15.9,-35.6,-19.9
64.825,19094.5645,0.13169475387119164,0.45412832629673033,-0.19676951588479064,-0.05256,0.11148,0.09969,15.9,-35.6,-20.0
64.8469,19094.5845,0.23557713586882703,0.35529354010805314,0.017310414699476695,-0.05683,0.04978,0.14306,15.9,-35.6,-20.0
64.8664,19094.6045,0.2978585479593073,0.2541260222206487,0.1914275562608445,0.00853,-0.18357,0.12046,16.3,-35.7,-19.9
64.8866,19094.6245,0.307136398902139,0.18876691563238956,0.30536076606522045,0.0745,-0.17196,0.05449,16.7,-35.8,-19.8
64.9178,19094.6445,0.2580395306732449,0.188080894788315,0.3588263380912444,0.11238,-0.02902,0.05021,16.8,-35.7,-19.9
64.9349,19094.6645,0.19145272059264817,0.29736377422607196,0.3699045950972799,0.06351,-0.09438,0.01661,17.2,-35.8,-19.7
64.9623,19094.6845,0.11128430104769724,0.49677207547537033,0.37159216216285706,0.02502,-0.03268,0.02822,17.5,-35.8,-19.7
64.9707,19094.7045,0.058301243749699805,0.7611487193951967,0.39793405529880843,0.05434,-0.06384,0.0551,17.7,-35.8,-19.6
64.9952,19094.7245,0.027991395532367288,1.0111570602724043,0.47759781581120286,0.04885,-0.07789,0.08686,18.1,-35.9,-19.4
65.0078,19094.7445,0.07382688401422037,1.1718143361970426,0.6231199681381305,0.05556,-0.11332,0.16261,18.4,-36.0,-19.1
65.0509,19094.7645,0.10281028411244746,1.1543851288352054,0.8303365555879179,0.02869,-0.17868,0.20598,18.7,-36.1,-19.0
65.0528,19094.7845,0.2769287532591738,0.9106452976453102,1.0698159775129188,-0.06966,-0.03451,0.17361,18.8,-36.1,-18.8
65.0666,19094.8044,0.46346141344859354,0.4637253643857674,1.2942240494806931,-0.20955,0.10965,0.09847,18.9,-36.2,-18.6
65.0906,19094.8244,0.6576266301235553,-0.07970757210145088,1.4472064018447064,-0.4093,0.06872,-0.07074,19.0,-36.3,-18.6
65.1068,19094.8444,0.792535108869694,-0.6922988483427513,1.474896434594946,-0.58829,-0.10354,-0.21124,18.9,-36.3,-18.7
65.1241,19094.8644,0.8532686166799466,-1.2115040455067274,1.3269990422758386,-0.5382,-0.2868,-0.20452,18.9,-36.3,-18.8
65.1461,19094.8844,0.8539316471808326,-1.5277791891815327,0.9818266727696159,-0.27919,-0.27336,-0.20819,18.8,-36.2,-18.9
65.1645,19094.9044,0.8302993735367225,-1.609857756547418,0.4607245848232875,-0.05928,0.01008,-0.17642,18.3,-35.8,-19.3
65.1885,19094.9244,0.8177210131396743,-1.4582546660441589,-0.1566388288458036,0.09222,0.37782,-0.15137,17.9,-35.6,-19.6
65.213,19094.9444,0.7960226147965395,-1.1427887801481078,-0.7547854473996285,0.15819,0.46334,-0.12694,17.8,-35.4,-19.5
65.2254,19094.9644,0.7115492600106057,-0.751083653602385,-1.2208324431423776,0.17652,0.35216,-0.11839,17.7,-35.5,-19.8
65.2462,19094.9844,0.6407982908779041,-0.4198028546715125,-1.500041029557286,0.12765,0.19761,-0.10556,17.5,-35.3,-20.0
65.267,19095.0044,0.5745316692624338,-0.19234923422005892,-1.579467964592956,0.07389,0.05712,-0.11656,17.5,-35.3,-20.1
65.286,19095.0244,0.5296102758759763,-0.06963276690068265,-1.500158154946627,-0.01407,-0.17501,-0.10189,17.2,-35.2,-20.3
65.3109,19095.0444,0.5083615712731017,-0.01201798217393437,-1.333081702002886,-0.0214,-0.33567,-0.02981,16.9,-35.0,-20.7
65.3282,19095.0644,0.5267684359853756,0.03381039566510399,-1.1560405168185692,0.01158,-0.26481,-0.02676,16.6,-34.8,-21.0
65.3518,19095.0844,0.5639278981831104,0.10981263390133307,-1.0277675961105235,0.04396,0.04062,0.00378,16.5,-34.7,-21.2
65.3662,19095.1044,0.6106166827676204,0.23574401140065837,-0.9762798347084551,0.03724,-0.01558,0.03494,16.4,-34.6,-21.6
65.3906,19095.1244,0.6512693026433047,0.39407589554620315,-0.9940528195406984,0.0012,0.02718,-0.03898,16.3,-34.5,-21.6
65.4062,19095.1444,0.6680292128394035,0.560906884091537,-1.0453700813152444,0.01036,0.09255,-0.10373,16.4,-34.5,-21.7
65.4272,19095.1644,0.6785239105666655,0.7039754006081858,-1.0823116083450373,0.0012,-0.00275,-0.07746,16.5,-34.5,-21.7
65.4547,19095.1844,0.70176773899365,0.8055062719066448,-1.0586577247752942,-0.07638,-0.12309,-0.06769,16.6,-34.5,-21.7
65.4671,19095.2044,0.7648141456948503,0.8491699978916366,-0.9428629210169639,-0.07821,-0.06017,-0.04142,16.8,-34.6,-21.5
65.4929,19095.2243,0.8866881130353808,0.8543460395109548,-0.7293400014699021,-0.03851,-0.04062,0.02272,17.0,-34.6,-21.4
65.5114,19095.2443,1.0761317859360153,0.8253431742142746,-0.43694109949378657,-0.03973,-0.07605,0.06182,17.3,-34.8,-21.3
65.5258,19095.2643,1.312283945104873,0.7800241824677481,-0.10602605216893402,-0.06233,0.0113,0.01173,17.3,-34.7,-21.2
65.5453,19095.2843,1.5519382949670464,0.7330715720729822,0.21351220369400714,-0.0153,-0.12798,-0.0176,17.7,-34.8,-21.1
65.5667,19095.3043,1.751694968978332,0.6846012110549103,0.47478672710659,0.06228,-0.10171,0.02944,17.7,-34.8,-21.0
65.5905,19095.3243,1.8699175555267342,0.6318660001373836,0.6469850309736689,0.17835,0.04245,0.00012,18.0,-34.9,-20.9
65.6055,19095.3443,1.8704801087185268,0.6093081298941139,0.723126548115264,0.27975,0.02291,-0.10128,18.4,-35.0,-20.8
65.641,19095.3643,1.7476940538632055,0.5288420927456057,0.7270244750718664,0.34878,-0.11332,-0.18681,18.7,-35.0,-20.6
65.6513,19095.3843,1.4999636686204911,0.5682580383796253,0.6890062487515376,0.29747,-0.25626,-0.25889,19.0,-35.1,-20.4
65.6694,19095.4043,1.190460190954779,0.5892131453393266,0.6533929576609658,0.27425,-0.29719,-0.35968,19.3,-35.1,-20.2
65.6926,19095.4243,0.8861463189976209,0.5862568061887274,0.6501429133699368,0.30235,-0.18234,-0.41771,19.5,-35.2,-20.3
65.7136,19095.4443,0.6246087412159105,0.5566382211830423,0.6897814812969596,0.19301,-0.09804,-0.40122,19.6,-35.2,-20.1
65.7259,19095.4643,0.395613055151681,0.47398721020899554,0.7574566147515505,-0.0098,-0.0113,-0.36273,19.7,-35.2,-20.1
65.7504,19095.4843,0.2408823767122224,0.31225131752829466,0.8125088030729923,-0.08738,0.04551,-0.32608,19.8,-35.1,-20.1
65.7688,19095.5043,0.06627427397154272,0.09158453030407043,0.8075597871096409,-0.17412,-0.13347,-0.30348,19.7,-35.0,-20.3
65.7854,19095.5243,-0.14917184429809593,-0.14404064687014162,0.6995967071475171,-0.28224,-0.30879,-0.32669,19.5,-34.9,-20.4
65.8104,19095.5443,-0.3976103293999278,-0.3102350085208522,0.4724405094376589,-0.31401,-0.22327,-0.35907,19.3,-34.8,-20.7
65.8271,19095.5643,-0.7032496687160482,-0.4186827494671987,0.14292096163442025,-0.28652,0.02535,-0.40244,19.4,-34.8,-20.8
65.8472,19095.5843,-1.0002137611320958,-0.43695008533845525,-0.23148903216943317,-0.18756,0.2587,-0.35235,19.1,-34.6,-21.0
65.8701,19095.6043,-1.2400380739847625,-0.40674710871923414,-0.5730371866234485,-0.09226,0.40287,-0.23751,19.1,-34.5,-21.1
65.8856,19095.6242,-1.4065875377557513,-0.38135077405451606,-0.8132992833873072,-0.10143,0.46639,-0.11045,18.9,-34.3,-21.3
65.9084,19095.6442,-1.398964573673807,-0.4180289503830471,-0.8980243983021179,-0.09715,0.44379,0.04349,18.7,-34.1,-21.4
65.9275,19095.6642,-1.2429532367086091,-0.5340571922896576,-0.8282379505563053,-0.11364,0.38393,0.13268,18.6,-33.9,-21.5
65.9569,19095.6842,-0.9715851105315674,-0.6986818589933321,-0.6409944363561486,-0.19,0.19028,0.21881,18.5,-33.7,-21.8
65.97,19095.7042,-0.6205346709292737,-0.9039149429396904,-0.4063615256967523,-0.18206,-0.20739,0.27867,18.4,-33.6,-21.9
65.9993,19095.7242,-0.3155570396198433,-1.04214485662989,-0.20651864940518827,-0.06783,-0.2752,0.28662,18.3,-33.4,-22.1
66.015,19095.7442,-0.007982871102504339,-1.0937596062743549,-0.11120236317430354,0.00242,-0.01863,0.24752,18.1,-33.3,-22.4
66.0283,19095.7642,0.23055666639022454,-1.0064947821121148,-0.15761143696633084,0.02136,0.28191,0.21637,18.2,-33.2,-22.5
66.0467,19095.7842,0.3836468754376374,-0.7877717070240674,-0.33669291772894283,0.01464,0.42669,0.15223,18.2,-33.2,-22.6
66.0696,19095.8042,0.4493995050704978,-0.4817699755729496,-0.599924488320152,0.04579,0.40958,0.14489,18.2,-33.1,-22.7
66.0929,19095.8242,0.43158495807775926,-0.14674873475034564,-0.8764979993338482,0.10993,0.32101,0.09603,18.5,-33.2,-22.6
66.1166,19095.8442,0.36252415295596957,0.16079565720408162,-1.0971635047743025,0.15391,0.23671,0.12901,18.8,-33.2,-22.3
66.1363,19095.8642,0.28052337830235013,0.4044936443722858,-1.2114795841984964,0.12581,0.14386,0.13879,19.0,-33.2,-22.2
66.1503,19095.8842,0.2154611369196782,0.5609135370661148,-1.1967621361003644,0.08977,0.1237,0.15039,19.4,-33.3,-22.0
66.1672,19095.9042,0.17505455540954737,0.6154558795291848,-1.0585191395348712,0.10932,0.12248,0.11863,19.6,-33.4,-21.8
66.1851,19095.9242,0.15979246490956528,0.5854684600991398,-0.8281798248411292,0.07633,0.16157,0.10275,19.8,-33.5,-21.7
66.2104,19095.9442,0.1562455392534023,0.5028127255896223,-0.5524936430285052,0.01097,0.21105,0.09541,20.0,-33.7,-21.5
66.2258,19095.9642,0.14653459199277605,0.41608062536825946,-0.28081667529228405,-0.00125,0.04551,0.14978,20.5,-33.9,-21.0
66.2454,19095.9842,0.10956464460003072,0.3694298177410484,-0.050314350596355695,0.02869,-0.07728,0.20598,20.9,-34.1,-20.7
66.2673,19096.0042,0.0481299813060718,0.4004885041771106,0.12469056155961411,0.03052,-0.07544,0.19743,20.8,-34.2,-20.9
66.2876,19096.0243,-0.0072097649051360855,0.5231883197463223,0.2580677011635295,0.02747,-0.1573,0.11069,20.9,-34.3,-20.7
66.3166,19096.0443,-0.04208717651382071,0.7120757301966265,0.3863844137243859,-0.02201,-0.11026,0.03555,21.2,-34.4,-20.5
66.3342,19096.0643,-0.02976076988639695,0.8806485487504494,0.5545019596663074,-0.07516,0.11515,0.08686,21.3,-34.6,-20.3
66.35,19096.0843,0.028515055818178668,0.9276156850565925,0.7939702842730973,-0.1167,0.17257,0.16811,21.3,-34.7,-20.1
66.386,19096.1044,0.10574113666693827,0.7923436324114567,1.1037629935514843,-0.12036,0.04978,0.2463,21.3,-34.7,-20.0
66.3961,19096.1244,0.2710952488756599,0.3895499140089522,1.4486309477018136,-0.18512,-0.073,0.2353,21.1,-34.7,-20.0
66.4138,19096.1444,0.4632628461941231,-0.1539202505588907,1.752256420891495,-0.42824,0.11881,0.15039,20.7,-34.7,-20.2
66.4302,19096.1644,0.6687522067878733,-0.7438724015293461,1.9284868689629224,-0.69519,0.13592,0.09664,20.5,-34.8,-20.3
66.4487,19096.1845,0.8538121931263788,-1.223607537086373,1.8968836047753133,-0.75383,-0.01436,-0.00843,20.0,-34.8,-20.4
66.4697,19096.2045,0.9934063683735711,-1.5021867919258425,1.607202974231443,-0.47344,-0.01375,-0.11106,19.8,-34.8,-20.6
66.4899,19096.2246,1.0860846147771863,-1.5478934668499593,1.070669509059952,0.02013,-0.02596,-0.08846,19.5,-34.7,-20.8
66.5125,19096.2446,1.1622806540139654,-1.3524385353619515,0.38259931158512295,0.45202,-0.01619,-0.00965,19.1,-34.6,-21.0
66.5298,19096.2647,1.2591027833440636,-0.931424987605595,-0.30635993516801463,0.55159,-0.05162,0.10458,18.7,-34.6,-21.2
66.5479,19096.2848,1.373791662513737,-0.4364859532011651,-0.8677178287977245,0.48684,-0.0058,0.21759,18.3,-34.5,-21.4
66.5798,19096.3048,1.4503759281386919,-0.04351758469865869,-1.2258628229031512,0.35,0.01069,0.23286,17.9,-34.5,-21.6
66.6072,19096.3249,1.484991770729267,0.21423453274638776,-1.3872889817887035,0.24127,-0.15363,0.162,17.6,-34.6,-21.9
66.6165,19096.3449,1.4771728376884017,0.32009790079387535,-1.420317237576441,0.08122,-0.43036,0.01845,17.4,-34.6,-22.0
66.6302,19096.365,1.3678063701369618,0.3032398405244837,-1.3984996098578861,0.01403,-0.36255,-0.15809,17.1,-34.6,-22.2
66.648,19096.3851,1.183687589415193,0.2530806407950374,-1.3952254296438262,0.07084,-0.05589,-0.265,17.1,-34.6,-22.4
66.6697,19096.4051,0.9610176862769971,0.23977209287199172,-1.4473157043726506,0.0745,0.09377,-0.2711,16.9,-34.7,-22.5
66.6903,19096.4252,0.7160305274222014,0.29468579261292605,-1.5489202605002106,0.05373,0.06628,-0.24117,16.8,-34.8,-22.5
66.7093,19096.4452,0.4743731188202987,0.40594191587823963,-1.667087311189567,0.08733,-0.11026,-0.24545,17.2,-34.8,-22.5
66.7266,19096.4653,0.265082125078253,0.5382989736165914,-1.756445038763733,0.08855,-0.20434,-0.25583,17.5,-35.0,-22.4
66.7466,19096.4854,0.11015846564915116,0.6523256716261526,-1.7735187079072912,0.03418,-0.2532,-0.24362,17.6,-35.0,-22.5
66.7712,19096.5054,0.020534265741180103,0.729346279018208,-1.6891278668313543,-0.10509,-0.16829,-0.20819,17.9,-35.2,-22.1
66.7871,19096.5255,-0.01818773645368281,0.7511835442333077,-1.4923520475769596,-0.2065,-0.0113,-0.15626,18.1,-35.3,-22.0
66.8067,19096.5456,-0.001588242658865853,0.7412784313678044,-1.1944123603628345,-0.22971,0.04062,-0.11594,18.2,-35.5,-21.8
66.8282,19096.5656,0.054278259777666864,0.713504863365071,-0.8200510598106767,-0.22421,-0.0058,-0.02859,18.7,-35.6,-21.6
66.8467,19096.5856,0.13700794947105707,0.671134451414617,-0.40139838705110087,-0.15152,-0.10599,0.05876,19.1,-35.7,-21.6
66.8686,19096.6057,0.23131643067597232,0.6304263144932897,0.026916468651350556,-0.04034,-0.18845,0.16628,19.7,-35.8,-20.9
66.9017,19096.6257,0.3041319620790959,0.5917393406037297,0.43607823415920777,0.07023,-0.10293,0.25607,19.5,-35.6,-21.1
66.9149,19096.6457,0.4184896112946856,0.5858518403046115,0.800213549279972,0.10749,0.03818,0.26768,19.7,-35.7,-21.0
66.935,19096.6658,0.48586277529689315,0.6085484808983438,1.1102104283216363,0.08305,0.05345,0.27379,19.9,-35.8,-20.9
66.953,19096.6858,0.5126611399118453,0.6528933156632696,1.3644247505399871,0.03724,-0.05101,0.24691,20.0,-35.8,-21.0
66.9666,19096.7058,0.5136732887517941,0.6828210224916463,1.5696887487666054,0.07267,-0.09988,0.19315,20.0,-35.8,-20.9
66.9913,19096.7258,0.48604036132454115,0.6255559069073132,1.7367257914977632,0.19118,0.0504,0.17422,19.9,-35.8,-21.0
67.012,19096.7459,0.4890327775549468,0.47030437917334117,1.8612942859479542,0.25898,0.32223,0.2408,19.4,-35.7,-21.0
67.075,19096.7659,0.5818538157431487,0.16214842727019751,1.924910141184288,0.14048,0.58246,0.29883,19.1,-35.8,-21.1
67.0768,19096.7859,0.5761142544768111,-0.19089279272940873,1.9030784489325168,-0.05928,0.67837,0.27257,18.8,-35.8,-21.1
67.0783,19096.806,0.5258475363092248,-0.6110084837425277,1.7609597581836827,-0.28347,0.4554,0.162,18.6,-35.9,-21.3
67.0915,19096.826,0.4259221338155407,-0.9884943488028728,1.4819806147413654,-0.2853,-0.17685,-0.07257,18.4,-35.9,-21.3
67.1154,19096.8459,0.299847614407344,-1.3045424626284339,1.0770954388684206,0.08733,0.04245,-0.17947,18.2,-35.8,-21.5
67.1298,19096.8659,0.13887977638122875,-1.4954745253012434,0.603106291550457,0.361,0.53298,-0.14832,17.8,-35.8,-21.6
67.1482,19096.8859,0.010632088941194055,-1.5624078055428385,0.1377219620084862,0.29319,0.5452,-0.0518,17.4,-35.8,-21.6
67.1673,19096.9059,-0.0736753188877082,-1.519398570692259,-0.2458621989761287,0.10443,0.27214,0.03372,17.0,-35.8,-21.7
67.1879,19096.9259,-0.08834317294408568,-1.422416038436768,-0.5177432485361901,0.05251,0.17135,0.07037,16.8,-35.9,-21.8
67.2115,19096.9459,-0.020948567715945696,-1.3186939176090637,-0.6937777092157411,0.12276,0.24465,0.12107,16.6,-35.9,-21.7
67.227,19096.9659,0.10984994218783904,-1.2138178547795515,-0.8186963521537507,0.08489,0.197,0.14001,16.4,-36.0,-21.6
67.2551,19096.9859,0.266476759652958,-1.0974207657342159,-0.9449043601059923,0.01036,0.1347,0.12168,16.5,-36.1,-21.4
67.2737,19097.0059,0.405676527400288,-0.9251831550398257,-1.1038184137062164,0.03724,0.13225,0.08136,16.5,-36.2,-21.2
67.3004,19097.0259,0.5131692263894171,-0.6885395824014585,-1.298633641181775,0.08794,0.16035,0.06182,16.5,-36.3,-21.1
67.3088,19097.0459,0.5540889929314151,-0.3934534947147994,-1.4958478725326394,0.02747,0.30879,0.05571,16.6,-36.3,-20.9
67.3263,19097.0659,0.5650280010725836,-0.08395457720658596,-1.6440266818648777,-0.02446,0.46395,0.03494,16.6,-36.4,-20.9
67.3461,19097.0859,0.5351806456074867,0.17896640848184328,-1.684745285579318,0.00975,0.36805,0.04777,16.7,-36.4,-20.8
67.3692,19097.1059,0.46840422919252733,0.3374530027793636,-1.5789716279990422,0.12276,0.04001,0.05754,16.8,-36.4,-20.6
67.3885,19097.1259,0.38425790072303945,0.3730835982846099,-1.3252767483966679,0.15514,-0.25015,0.0606,16.8,-36.4,-20.4
67.4184,19097.1459,0.2867044098830861,0.28912742008233805,-0.9605894027463062,0.07267,-0.20983,0.04349,16.9,-36.5,-20.2
67.4311,19097.1659,0.21035302765560882,0.13838090183965363,-0.5520866686355372,-0.0269,-0.04307,-0.00538,16.9,-36.6,-20.1
67.4486,19097.1859,0.12782990345577022,-0.030382885352975668,-0.17372522860171458,-0.02568,0.02474,-0.03531,17.0,-36.7,-20.1
67.4757,19097.2059,0.02818105194650991,-0.16444449145446913,0.11137295853390228,0.10016,-0.12492,-0.02431,17.0,-36.7,-19.9
67.4902,19097.2259,-0.0736812286857462,-0.18606977130914115,0.2729919543131878,0.18996,-0.23243,-0.01943,17.1,-36.7,-19.7
67.5254,19097.2459,-0.17434203246955493,-0.1172701768371803,0.3228550216104793,0.23333,-0.16585,-0.02615,17.0,-36.8,-19.7
67.5326,19097.2658,-0.21365700051455588,0.1302292679174473,0.3125578663254629,0.21317,-0.01191,-0.0011,17.1,-36.9,-19.7
67.5486,19097.2858,-0.20429481513440353,0.4125097467644861,0.3085668427140895,0.10504,-0.03207,0.05571,17.0,-36.9,-19.7
67.5766,19097.3058,-0.15188731623286242,0.6218871128810326,0.3754919546692399,0.13437,-0.17562,0.0832,17.1,-37.0,-19.7
67.5868,19097.3258,-0.010522715898505786,0.6985812684323006,0.547809172101271,0.19362,-0.22694,0.07342,17.1,-37.0,-19.6
67.613,19097.3458,0.1541714286822813,0.5392110404259359,0.82105221830159,0.06961,-0.20983,0.0777,17.1,-37.1,-19.5
67.6293,19097.3658,0.36634445402824584,0.15159464167571693,1.1455097002118872,-0.23399,-0.22388,0.06121,17.1,-37.1,-19.3
67.6747,19097.3858,0.5270936324079346,-0.2861853359873209,1.4504550744384002,-0.3867,-0.14875,-0.00293,17.1,-37.1,-19.2
67.6755,19097.4058,0.6948053999502946,-0.9982499977869872,1.63995003010581,-0.49238,-0.20434,-0.07685,17.0,-37.2,-19.2
67.6873,19097.4258,0.7919400253000415,-1.581336445472628,1.6527905609150153,-0.59256,-0.20983,-0.20941,17.0,-37.2,-19.3
67.7107,19097.4458,0.8828005076131786,-1.915840616576005,1.4678488481041843,-0.58829,-0.07422,-0.36029,17.0,-37.2,-19.4
67.7283,19097.4658,0.9413739663252281,-2.064558734048033,1.0937579979168834,-0.38792,0.40042,-0.4452,17.0,-37.1,-19.6
67.7491,19097.4858,0.9959562684002611,-2.0044952397056583,0.6022840993863667,-0.1448,0.59956,-0.40427,17.0,-37.0,-19.6
67.7685,19097.5058,0.9835280100245399,-1.8076906034321212,0.09001138424871691,0.12337,0.3485,-0.29798,17.1,-36.9,-19.8
67.8098,19097.5258,0.9205288580741575,-1.6064236864370154,-0.3704371633242509,0.30113,-0.20006,-0.15504,17.1,-36.9,-19.9
67.8228,19097.5458,0.8505059807778487,-1.3071981646038047,-0.7112996779244618,0.32923,-0.45723,-0.05852,17.2,-36.7,-20.0
67.8407,19097.5658,0.7862072600105056,-1.0424208979403309,-0.9522938735230024,0.28403,-0.24343,-0.11289,17.3,-36.6,-20.1
67.8481,19097.5858,0.7340934552592542,-0.781800246562328,-1.1216088350231814,0.15147,-0.02596,-0.20452,17.4,-36.5,-20.0
67.8668,19097.6058,0.6813059142562571,-0.5489825503197547,-1.261455271422058,0.15758,-0.05528,-0.21185,17.5,-36.4,-20.0
67.887,19097.6258,0.6129639273181151,-0.31033273812236045,-1.3953932852057687,0.23882,-0.10537,-0.16481,17.7,-36.2,-20.0
67.9167,19097.6458,0.533930065210206,-0.07707818803802141,-1.5288831651506385,0.2822,-0.16707,-0.10617,17.8,-36.1,-20.2
67.9291,19097.6658,0.4756484563665666,0.20144983652017107,-1.6489434264221572,0.26265,-0.16768,-0.0573,17.8,-36.0,-20.1
67.9546,19097.6857,0.43445538884731105,0.4297550598099348,-1.7305613450653272,0.22355,-0.24771,-0.04264,17.9,-35.8,-20.2
67.9733,19097.7057,0.42740533572074774,0.6071495852091193,-1.750100874449842,0.12765,-0.1799,-0.02065,18.2,-35.7,-20.2
67.9885,19097.7257,0.4365909527307792,0.6939167893241747,-1.6877032165253532,0.05251,-0.0956,0.00501,18.3,-35.6,-20.2
68.0173,19097.7457,0.44420074528635434,0.6806819024631802,-1.5340749378091747,0.01158,-0.12553,-0.04386,18.3,-35.5,-20.2
68.0302,19097.7657,0.44980629961067825,0.58075909642034,-1.2925026143626983,-0.06905,-0.11393,-0.07013,18.4,-35.4,-20.0
68.0491,19097.7857,0.4534055865686521,0.43561176141941677,-0.9787444385906809,-0.1222,-0.20556,-0.03165,18.5,-35.3,-20.0
68.0696,19097.8057,0.46716644019506587,0.2815471104035176,-0.6189412108030954,-0.09837,-0.19884,0.01112,18.5,-35.3,-19.8
68.0995,19097.8257,0.4925616861283798,0.1562489643569884,-0.24713193375061415,-0.06478,-0.08094,0.07709,18.5,-35.3,-19.8
68.1132,19097.8457,0.5566416301942356,0.06289609790581517,0.09822985651456584,-0.01041,-0.00336,0.14612,18.5,-35.2,-19.8
68.1265,19097.8657,0.6265187317056629,0.025979118647729487,0.3850011992814082,0.06595,-0.00153,0.17361,18.6,-35.2,-19.7
68.149,19097.8857,0.6646561070953427,0.03492700576153059,0.5941886410752986,0.18018,-0.0168,0.1565,18.5,-35.1,-19.8
68.1691,19097.9057,0.6758484930980149,0.10687045121705992,0.7230535996161684,0.27181,-0.04307,0.12168,18.4,-35.1,-20.0
68.1855,19097.9257,0.6605883294717707,0.2501134420492017,0.7896863355193986,0.31579,-0.04307,0.04349,18.3,-35.1,-20.0
68.2078,19097.9457,0.6223088296933322,0.41690281669255125,0.8287686090678594,0.30846,-0.04795,-0.02981,18.2,-35.1,-20.0
68.2261,19097.9657,0.5788751596399474,0.5945285537865908,0.8767444765329948,0.33595,-0.02718,-0.04386,18.2,-35.0,-20.1
68.2459,19097.9857,0.539827405660215,0.6950498308727087,0.9609887869049931,0.37383,-0.07605,0.00562,18.2,-35.1,-20.2
68.2675,19098.0057,0.5070108477011067,0.6519533042609592,1.083241174446055,0.33717,-0.22572,0.03677,18.0,-35.2,-20.1
68.2862,19098.0257,0.4798325413966147,0.4539764863514173,1.2133852164626866,0.24982,-0.27397,0.016,18.0,-35.2,-19.9
68.3093,19098.0457,0.42652112938471304,0.11535867435487358,1.3038003302279044,0.0409,-0.21167,0.00378,17.9,-35.2,-19.8
68.3323,19098.0656,0.34153146208560103,-0.28498447839658997,1.3040628655862,-0.2688,-0.09621,-0.00232,17.9,-35.2,-19.8
68.3476,19098.0856,0.20749201182244192,-0.7107588877346717,1.178636558499278,-0.50277,0.02291,-0.08968,17.8,-35.2,-19.7
68.367,19098.1056,0.04743765317569143,-1.0448218269548903,0.9218893991171662,-0.4258,0.28619,-0.21063,17.8,-35.1,-19.9
68.3905,19098.1256,-0.10782918761827745,-1.2499402955492434,0.5636384056450847,-0.15335,0.56474,-0.25034,17.8,-35.2,-19.8
68.4097,19098.1456,-0.27473394246877514,-1.3191566080783685,0.16315948179994422,0.00486,0.60628,-0.17153,17.8,-35.2,-19.8
68.426,19098.1656,-0.38959970974493024,-1.2636677040726412,-0.20712561061854906,0.01219,0.42547,0.03311,17.9,-35.1,-19.6
68.4471,19098.1856,-0.3858327654378843,-1.1514838115085766,-0.49267230551580354,0.05007,0.34667,0.22675,18.1,-35.2,-19.4
68.4748,19098.2056,-0.26312164591777304,-1.0461035782213666,-0.6742561293152693,0.11604,0.40164,0.26401,18.2,-35.1,-19.2
68.4859,19098.2256,-0.05668008448381264,-0.9641622388002411,-0.7689758040200871,0.08183,0.30757,0.22919,18.2,-35.2,-19.0
68.513,19098.2456,0.14685675939488652,-0.9277524601074018,-0.8249428223902058,0.00914,-0.06323,0.15956,18.2,-35.1,-18.8
68.528,19098.2656,0.3249386685388024,-0.894870171103245,-0.8924060304344916,0.03846,-0.23427,0.17055,18.3,-35.1,-18.7
68.5564,19098.2856,0.4148625208938206,-0.8339685300767796,-1.0076865084974678,0.05801,0.06994,0.17788,18.3,-35.0,-18.6
68.5969,19098.3056,0.45928750936521767,-0.7162930597159597,-1.1777179103011832,-0.00797,0.40714,0.11069,18.3,-34.9,-18.5
68.5999,19098.3256,0.35185003872330806,-0.5452401856962481,-1.3671559454304543,0.00975,0.51099,-0.01943,18.4,-34.9,-18.5
68.6124,19098.3456,0.20020288980054027,-0.3511704402077046,-1.5286849803195786,-0.01591,0.49694,-0.08296,18.4,-34.8,-18.5
68.6279,19098.3656,0.014753416999594999,-0.1734956350158894,-1.6073743616838119,0.02624,0.26725,-0.02981,18.5,-34.8,-18.3
68.6515,19098.3856,-0.17061396801660128,-0.04943012877195818,-1.5664357546861627,0.11482,-0.06139,-0.0066,18.5,-34.8,-18.3
68.6715,19098.4056,-0.32056309082325524,0.014414427903239053,-1.3963543427324172,0.12276,-0.08338,0.04044,18.6,-34.7,-18.0
68.6874,19098.4256,-0.40622413966591336,0.023883240758633344,-1.1158591412581966,0.11726,-0.04551,0.0777,18.6,-34.7,-17.9
68.7065,19098.4456,-0.43397355734234444,-0.010176340609013502,-0.7664216940603072,0.13742,-0.08277,0.05876,18.6,-34.7,-17.7
68.7302,19098.4656,-0.42909698423793563,-0.06660457199755748,-0.3995524984368881,0.12887,-0.19212,0.04227,18.5,-34.6,-17.5
68.7479,19098.4855,-0.3936033664030036,-0.10626136062042331,-0.059378163958569985,0.23455,-0.43707,0.10702,18.3,-34.6,-17.5
68.7663,19098.5055,-0.34861318082578013,-0.11104716149183924,0.2276346299392067,0.39032,-0.77794,0.11679,18.3,-34.6,-17.4
68.7887,19098.5255,-0.306999535655495,-0.06760173247626186,0.4592639409376176,0.4569,-0.7816,0.08259,18.3,-34.6,-17.3
68.8115,19098.5455,-0.2358290634885817,0.05181173276319148,0.6537796134298972,0.36955,-0.62461,0.0948,18.2,-34.6,-17.4
68.8436,19098.5655,-0.15889633731466515,0.20704803270650574,0.8336984527220643,0.23516,-0.58002,0.11252,18.1,-34.7,-17.3
68.8602,19098.5855,0.020675026132028596,0.3844987513086169,1.0139994392686198,0.16247,-0.3992,0.11924,18.0,-34.7,-17.2
68.8707,19098.6055,0.2420887142130561,0.4680577414141642,1.1914764124762858,0.07084,-0.08338,0.08503,17.9,-34.8,-17.1
68.8959,19098.6255,0.46294691220641143,0.3798823234326047,1.3478619003853467,-0.03118,0.04307,0.05632,17.9,-34.8,-17.0
68.9195,19098.6455,0.6840950693464078,0.12180379754620833,1.4493989419337598,-0.07455,0.06567,0.10824,17.7,-34.8,-17.0
68.9301,19098.6655,0.88205004165773,-0.3064690518713281,1.4599580084784574,-0.3134,0.07788,0.10336,17.6,-34.9,-17.0
68.9461,19098.6855,1.0328775328809312,-0.7640419075126901,1.3518903499303452,-0.58645,0.14997,-0.05975,17.4,-34.9,-17.0
68.9679,19098.7055,1.1291297142886518,-1.1480259016897358,1.1164403297832433,-0.63899,0.20678,-0.27355,17.3,-34.9,-17.2
68.99,19098.7255,1.1276973984135397,-1.4364392650656372,0.7657079256171322,-0.37204,0.26053,-0.37312,17.2,-34.9,-17.2
69.0367,19098.7455,1.12498544872709,-1.5839438125041159,0.3332563975833409,-0.01285,0.24526,-0.3554,17.1,-34.9,-17.4
69.037,19098.7655,0.8867003153489124,-1.5461653246279257,-0.07722146788813866,0.15819,0.10843,-0.29432,17.1,-34.9,-17.5
69.0487,19098.7855,0.7070535712677655,-1.4002037200950839,-0.43135812422616837,0.11909,0.05712,-0.24484,17.1,-34.9,-17.5
69.0687,19098.8055,0.6179483935813473,-1.1991913912340484,-0.687923750955779,0.00425,0.23732,-0.1416,17.0,-34.9,-17.7
69.0909,19098.8255,0.6101135361213913,-0.9924567614554988,-0.849271159457297,-0.08005,0.20556,-0.04997,17.0,-34.8,-17.8
69.11,19098.8455,0.6533991631293041,-0.8165112484684915,-0.9537380827618076,-0.10631,-0.0901,-0.00477,17.1,-34.8,-17.9
69.1294,19098.8655,0.7162498046709936,-0.6593457735946717,-1.0491934256195972,0.03113,-0.35094,0.00806,17.1,-34.6,-18.0
69.1484,19098.8855,0.771303269459374,-0.48664733231893814,-1.172023421504095,0.18934,-0.35094,0.02333,17.2,-34.5,-18.1
69.1694,19098.9054,0.7899336514183204,-0.2770972132690139,-1.332182983429087,0.12398,-0.10354,0.05143,17.2,-34.4,-18.2
69.1853,19098.9254,0.7502589334411284,-0.037671235222737146,-1.5107047053260274,0.05068,0.04856,0.00867,17.2,-34.3,-18.4
69.2064,19098.9454,0.6313540650432656,0.17597418172492926,-1.66734422936252,0.05495,-0.0449,-0.00355,17.3,-34.2,-18.4
69.2271,19098.9654,0.4454757323953698,0.31932447717743295,-1.7571776759386157,0.09222,-0.18967,-0.03226,17.3,-34.2,-18.4
69.246,19098.9854,0.23274753733724426,0.3682875537688094,-1.744969358399132,0.02197,-0.22999,-0.0964,17.4,-34.1,-18.4
69.2678,19099.0054,0.04620992827782239,0.33072846028054553,-1.6126315606869532,-0.1338,-0.19334,-0.12144,17.5,-34.0,-18.4
69.2883,19099.0254,-0.06325533564852007,0.2327400573380032,-1.3618450506518371,-0.21138,-0.12492,-0.10739,17.6,-33.9,-18.4
69.3077,19099.0454,-0.0629198907401645,0.1142775385018585,-1.0143756372576291,-0.15579,-0.04062,-0.05425,17.6,-33.8,-18.4
69.325,19099.0654,0.058628394593121184,0.016867461263479766,-0.6069754068430182,-0.08188,-0.05528,-0.00782,17.5,-33.8,-18.5
69.3476,19099.0854,0.28174157262639865,-0.020989042018858227,-0.18194578764163438,-0.09104,-0.20495,0.12474,17.5,-33.7,-18.5
69.3664,19099.1054,0.5877279726011468,0.004437941453038385,0.22082801823221487,0.02441,-0.25931,0.19804,17.5,-33.7,-18.5
69.3876,19099.1254,0.9105513637909015,0.08579088355083253,0.5714723007832863,0.15514,-0.17807,0.22492,17.4,-33.7,-18.6
69.4125,19099.1454,1.1794896064042342,0.19820388670099529,0.8547045301609728,0.20645,-0.08216,0.27623,17.4,-33.6,-18.6
69.4259,19099.1654,1.3887663727497184,0.3485411256488832,1.062305182899804,0.24188,-0.08033,0.27929,17.3,-33.7,-18.6
69.4513,19099.1854,1.4377189574882967,0.4583226431658555,1.2145457822586305,0.21378,-0.18234,0.14306,17.2,-33.7,-18.7
69.4673,19099.2054,1.3737673592110675,0.5351695661090387,1.3217907464514003,0.1252,-0.13042,-0.02248,17.1,-33.8,-18.7
69.4863,19099.2254,1.196224695801643,0.5167340367060188,1.403152302954835,0.07878,0.06506,-0.06891,17.1,-33.8,-18.8
69.5075,19099.2454,0.9323760547715736,0.371743228980668,1.4600191489070742,0.02075,0.12065,-0.03836,17.0,-33.8,-18.9
69.527,19099.2654,0.606717103714123,0.09537572031292908,1.4722858718482197,-0.04584,0.04978,0.01295,16.9,-33.9,-19.0
69.5451,19099.2854,0.2534909111465662,-0.2767229278691773,1.4034901072391435,-0.12892,-0.0675,0.00256,16.9,-33.9,-19.1
69.565,19099.3053,-0.09253743510148141,-0.6657430792660594,1.220929984897733,-0.27308,-0.08033,-0.08296,16.8,-34.0,-19.1
69.5876,19099.3253,-0.39376221221818486,-0.9898468998637941,0.9145139079325144,-0.51682,0.00336,-0.15382,16.7,-34.0,-19.2
69.6093,19099.3453,-0.6248840634875369,-1.2250343313871273,0.5010083107984986,-0.58279,0.18845,-0.17886,16.7,-34.1,-19.3
69.6294,19099.3653,-0.769308876424647,-1.3584217992466707,0.028213848192399027,-0.37326,0.47739,-0.1416,16.7,-34.1,-19.4
69.651,19099.3853,-0.8007295308069029,-1.3840592618789052,-0.42799661888557594,-0.11548,0.62889,-0.01515,16.7,-34.1,-19.5
69.6671,19099.4053,-0.7418642462454008,-1.3377014171073516,-0.7934805937452243,-0.15763,0.47861,0.08992,16.7,-34.0,-19.5
69.6853,19099.4253,-0.5749002209549422,-1.2617805101835542,-1.0100957990167725,-0.27675,0.27642,0.21698,16.7,-34.0,-19.5
69.7117,19099.4453,-0.3516892156247107,-1.1994267015750646,-1.0631029688610525,-0.10387,-0.03268,0.3306,16.7,-34.0,-19.6
69.7259,19099.4653,-0.05031873158175255,-1.1847553694471293,-0.9794002240746114,0.06228,-0.28497,0.43689,16.7,-34.0,-19.7
69.7459,19099.4853,0.22969174952205185,-1.1731011952184418,-0.8193487355846347,-0.13136,-0.197,0.3758,16.7,-34.0,-19.8
69.7671,19099.5053,0.46840045483785936,-1.1256224697018906,-0.6577350545423233,-0.29935,0.05406,0.21209,16.7,-33.9,-19.8
69.7857,19099.5253,0.6292657449387744,-1.0235345446124018,-0.5573067607379159,-0.22177,0.18479,0.08136,16.7,-33.9,-19.9
69.81,19099.5453,0.6935740692008225,-0.8512279381681512,-0.5431812275449097,-0.05195,0.1408,0.01906,16.6,-33.8,-20.0
69.8272,19099.5653,0.6599380950364856,-0.6312452877539365,-0.6035127292443381,0.03174,0.04307,0.02272,16.6,-33.7,-20.0
69.8457,19099.5853,0.566542622472995,-0.385782152467278,-0.7014840106225346,0.03968,0.10598,0.04593,16.6,-33.7,-20.1
69.8658,19099.6053,0.4402353721565673,-0.16159815920511597,-0.7933277143862991,-0.02873,0.11148,0.03494,16.6,-33.6,-20.1
69.8872,19099.6253,0.2913920703498372,-0.008778552263167854,-0.8415756630152824,0.03907,0.00947,-0.01088,16.6,-33.6,-20.2
69.9077,19099.6453,0.1174220055380425,0.047027007214099026,-0.8233450005659861,0.16124,-0.04062,-0.04631,16.4,-33.6,-20.3
69.9254,19099.6653,-0.08447769344444002,0.01912765452823893,-0.7336232154880769,0.15575,0.00519,-0.09762,16.3,-33.6,-20.4
69.9475,19099.6853,-0.2950875066135139,-0.061076817532681814,-0.5826913473222533,0.0629,0.05101,-0.12816,16.2,-33.7,-20.5
69.9664,19099.7053,-0.48631059616053834,-0.14035773589788925,-0.39066635201358224,0.02502,0.00641,-0.13732,16.2,-33.7,-20.5
69.9901,19099.7252,-0.6031780905603127,-0.18635393178419826,-0.17957734127783986,0.11665,-0.07789,-0.09701,16.2,-33.7,-20.7
70.011,19099.7452,-0.60656441473199,-0.16391388299647186,0.0347640965134417,0.24921,-0.11393,-0.05975,16.2,-33.7,-20.6
70.0286,19099.7652,-0.4778996316065742,-0.05277315123875003,0.2491796896895515,0.32862,-0.01252,0.02394,16.2,-33.7,-20.7
70.0486,19099.7852,-0.25008703553106804,0.11832555920065618,0.47002907771049074,0.33045,-0.09621,0.17361,16.2,-33.7,-20.6
70.0678,19099.8052,0.026101647448626735,0.3099217028985273,0.7057043844005975,0.22722,-0.2697,0.29822,16.2,-33.8,-20.7
70.0929,19099.8252,0.26470960196122834,0.4275990950807249,0.954933851250928,0.2541,-0.30085,0.27012,16.1,-33.8,-20.6
70.121,19099.8452,0.44534462722139423,0.4010275180390734,1.197713147541057,0.20339,-0.28436,0.12413,16.1,-33.9,-20.5
70.1403,19099.8652,0.5832948836094838,0.1934046919098642,1.3960213779175845,-0.02507,-0.24648,-0.00843,16.0,-34.0,-20.6
70.1496,19099.8852,0.6459716029250753,-0.21290482603763242,1.5108689830620055,-0.16801,-0.13042,-0.12328,15.8,-34.1,-20.5
70.1724,19099.9052,0.6652323237887416,-0.7084802218769644,1.507080038565233,-0.28285,-0.02779,-0.1978,15.8,-34.1,-20.5
70.1898,19099.9252,0.6353515332817,-1.2311182944056545,1.3599156931293876,-0.50093,-0.13836,-0.23751,15.9,-34.2,-20.4
70.2086,19099.9452,0.5867470595307296,-1.640692933741755,1.0575995601274375,-0.65548,-0.26359,-0.22468,16.0,-34.3,-20.4
70.2253,19099.9652,0.5395355140157629,-1.8790463843929894,0.6043254397273223,-0.46001,-0.30207,-0.19658,16.0,-34.2,-20.4
70.2482,19099.9852,0.5107772831414867,-1.8970122556604887,0.047132588489114724,-0.03973,-0.18967,-0.22529,15.9,-34.3,-20.3
70.2658,19100.0052,0.4994481894837489,-1.7207259792359737,-0.5259150747776573,0.25165,0.01558,-0.2033,15.8,-34.3,-20.5
70.2866,19100.0252,0.5065464912996799,-1.4223604580397335,-1.0072619272479137,0.27731,0.01802,-0.17092,15.8,-34.3,-20.5
70.3136,19100.0452,0.5377393414837797,-1.0989540454408946,-1.3137615895251038,0.1417,-0.01497,-0.08051,15.8,-34.3,-20.5
70.3281,19100.0652,0.58012737021283,-0.8186828579959113,-1.4159141457239315,0.00731,0.11026,-0.05058,15.7,-34.3,-20.6
70.3535,19100.0852,0.6519995669933238,-0.6330251080999582,-1.349705795346317,-0.09898,0.19151,-0.04997,15.6,-34.3,-20.7
70.3702,19100.1052,0.7128475888103696,-0.5442705199843789,-1.186537942753917,-0.16129,-0.062,-0.0964,15.6,-34.2,-20.7
70.3893,19100.1251,0.7454816403251987,-0.4876083592439124,-1.0091151113399999,-0.09776,-0.28008,-0.13244,15.7,-34.2,-20.9
70.4154,19100.1451,0.7288254715160296,-0.4073478185243255,-0.8834784189037972,0.05618,-0.37354,-0.08296,15.7,-34.1,-21.0
70.4299,19100.1651,0.6974167548937098,-0.25296696089376197,-0.8413222807790444,0.12398,-0.28802,-0.05547,15.8,-34.0,-21.0
70.4517,19100.1851,0.6507665993019952,-0.03920646549076706,-0.8712293718058444,-0.02079,-0.00519,-0.11778,15.9,-33.9,-21.2
70.4665,19100.2051,0.5836715178682335,0.19191665768633778,-0.931955134135757,-0.10082,0.12859,-0.2204,16.0,-33.8,-21.2
70.4944,19100.2251,0.5298614146275317,0.38543761153836587,-0.9751733886018101,-0.08738,0.01619,-0.26316,15.9,-33.7,-21.3
70.5132,19100.2451,0.45103459246388855,0.477674241894693,-0.9557051223967274,-0.1167,-0.13347,-0.1923,15.8,-33.6,-21.4
70.5343,19100.2651,0.3850422848467836,0.4609404954742477,-0.8554924818306304,-0.08432,-0.26481,-0.11778,15.8,-33.5,-21.4
70.5493,19100.2851,0.3556748172960619,0.3498827014543327,-0.6798251540044298,-0.05378,-0.20189,-0.08907,15.9,-33.5,-21.5
70.5727,19100.3051,0.37371374402882107,0.1963370200725255,-0.4543982145592569,-0.09043,-0.08033,-0.08418,16.0,-33.4,-21.6
70.5854,19100.3251,0.4317655823718795,0.02383290554770501,-0.21599286252017613,-0.16679,-0.04673,-0.06341,16.0,-33.4,-21.5
70.6095,19100.3451,0.517806694140264,-0.11131129693674117,-0.006055099871474567,-0.11853,-0.07117,-0.04936,16.0,-33.3,-21.7
70.6324,19100.3651,0.6034566946035412,-0.19885780112037924,0.14055317905749298,0.07695,-0.02902,-0.02248,16.0,-33.3,-21.8
70.6545,19100.3851,0.6700737945988602,-0.2138424536031522,0.20303431842195785,0.18507,0.01863,0.00256,16.1,-33.2,-21.9
70.6699,19100.4051,0.7067307165082451,-0.12808896301366188,0.1810975295699233,0.17163,0.01558,0.01906,16.1,-33.2,-22.0
70.6873,19100.4251,0.7022870184947956,0.036421696084952444,0.09693547950123715,0.20278,-0.01375,-0.01698,16.1,-33.2,-22.0
70.7105,19100.4451,0.664344381537436,0.23559420075659918,-0.00524949922888851,0.24432,-0.00336,-0.09334,16.2,-33.2,-22.2
70.7301,19100.4651,0.6053213174729833,0.4353379242137755,-0.06593977303438336,0.27303,0.05589,-0.17764,16.2,-33.2,-22.3
70.7463,19100.4851,0.5384462563927974,0.5638444809497567,-0.025691346856802966,0.2938,0.20433,-0.2088,16.3,-33.2,-22.2
70.7665,19100.5051,0.4949955270569917,0.5262981524913395,0.15398428245694973,0.23394,0.24709,-0.19047,16.4,-33.2,-22.2
70.7881,19100.5251,0.47354380343162344,0.28867977451738575,0.4703093094783597,0.10932,0.05101,-0.12511,16.5,-33.2,-22.3
70.815,19100.545,0.4601801792359008,-0.12667749219127178,0.8735768395212737,0.01403,-0.07666,-0.09273,16.6,-33.3,-22.2
70.8352,19100.565,0.4277602454121304,-0.6311240770881282,1.2787939789326117,-0.12036,-0.19273,-0.09762,16.6,-33.3,-22.3
70.8475,19100.585,0.37502339022185777,-1.1396737811275794,1.58233856143476,-0.36349,-0.36621,-0.08418,16.6,-33.3,-22.3
70.8687,19100.605,0.2935307408388881,-1.476696824646266,1.7029542517776726,-0.56569,-0.39065,-0.08907,16.6,-33.4,-22.2
70.8991,19100.625,0.23774955591893712,-1.6089518739800814,1.5954110471993896,-0.32317,0.09377,-0.20085,16.7,-33.4,-22.3
70.9176,19100.6451,0.13452293153773698,-1.599192680031261,1.274215476278913,-0.01163,0.52443,-0.17214,16.7,-33.4,-22.3
70.9264,19100.6651,-0.025808045808012017,-1.4432483826164944,0.8246786399925483,0.05129,0.40042,-0.0854,16.8,-33.3,-22.1
70.9475,19100.6851,-0.1634149768474432,-1.2368197343745568,0.3417685582910259,-0.00797,-0.00397,0.00745,16.9,-33.3,-22.0
70.9709,19100.7052,-0.2821107619195336,-1.0562651951667401,-0.09612190368500073,0.04396,-0.19212,0.09358,16.9,-33.3,-22.0
70.9879,19100.7253,-0.32485360371071453,-0.9503832120328051,-0.44974928705362416,0.18507,-0.08338,0.15161,16.9,-33.2,-22.0
71.0086,19100.7453,-0.30655806999414054,-0.9192741839656453,-0.7203751003362537,0.12337,-0.06323,0.17116,16.9,-33.2,-21.9
71.0697,19100.7654,-0.28032762128658706,-0.9308174432305041,-0.936523212811684,0.01158,-0.02352,0.14123,16.9,-33.2,-21.9
71.0745,19100.7855,-0.19898856149764338,-0.8707849891958385,-1.1208241640350831,0.0519,0.05956,0.09358,16.8,-33.1,-21.8
71.0795,19100.8055,-0.13637095320504386,-0.7315653095645214,-1.2953936508622963,0.09466,0.18356,0.09908,16.8,-33.1,-22.0
71.094,19100.8256,-0.09455658792311794,-0.5205704391677679,-1.4546166090403165,0.11115,0.13775,0.10458,16.7,-33.1,-22.0
71.1075,19100.8456,-0.06688413724041427,-0.27133960447572697,-1.5710837173768244,0.10443,0.14508,0.12901,16.7,-33.0,-22.0
71.1286,19100.8657,-0.04610937266502322,-0.0558984369685591,-1.6091809213731345,0.15086,0.12859,0.15223,16.7,-33.0,-21.8
71.1506,19100.8858,-0.01970929247102457,0.08066443917447853,-1.5398855674255678,0.18446,0.05773,0.15772,16.6,-33.0,-21.8
71.1688,19100.9058,0.022941796908065547,0.11384104335698376,-1.35609305628736,0.07145,-0.01741,0.1229,16.6,-33.0,-21.7
71.1891,19100.9259,0.07264191159498792,0.04469966565559157,-1.0772849052825215,-0.10448,-0.06811,0.06182,16.5,-33.0,-21.6
71.2105,19100.9459,0.11819541104724432,-0.09551888279930791,-0.7461636997332697,-0.17656,-0.02718,-0.00355,16.5,-33.0,-21.4
71.2285,19100.966,0.13981018733097866,-0.26551570349965076,-0.41789284359025025,-0.10937,0.07788,-0.0066,16.4,-33.1,-21.5
71.2506,19100.9861,0.12421942085605883,-0.4041064689764867,-0.1432992182091155,-0.01407,0.11087,0.01722,16.3,-33.2,-21.4
71.2697,19101.0061,0.06291518854521,-0.4665765264030838,0.04748541682726071,0.04518,0.00702,-0.00416,16.3,-33.3,-21.4
71.2879,19101.0262,-0.03390619036587968,-0.4255460813987179,0.15438412456502704,-0.00247,0.0113,-0.06219,16.3,-33.3,-21.4
71.3109,19101.0463,-0.14356351310210244,-0.28908906742584634,0.20634540983516203,-0.0043,0.062,-0.06891,16.2,-33.3,-21.3
71.3291,19101.0663,-0.24525094341104714,-0.08339630397666435,0.2519035207800595,0.16491,-0.0394,-0.06463,16.3,-33.4,-21.1
71.347,19101.0864,-0.3128893804804759,0.12819817271127218,0.3420590141267983,0.0971,-0.02902,0.02455,16.4,-33.4,-21.1
71.379,19101.1064,-0.3382724317479478,0.2564231640989479,0.512822111346642,-0.02935,0.08583,0.10702,16.4,-33.4,-20.9
71.3905,19101.1265,-0.27404599933105295,0.24077433460146183,0.7713870549196287,0.05556,0.01619,0.12901,16.4,-33.4,-20.7
71.42,19101.1466,-0.16669136553576688,0.013615463027626153,1.0856955950535543,0.14903,-0.17501,0.16322,16.4,-33.5,-20.7
71.4284,19101.1666,0.06552908237952815,-0.3761699556670416,1.3917199918249228,0.01769,-0.12004,0.20842,16.3,-33.5,-20.7
71.4494,19101.1867,0.3344905969728855,-0.8236865418720136,1.6092700326871565,-0.23521,0.04795,0.19071,16.3,-33.6,-20.8
71.4685,19101.2067,0.6221764653448801,-1.2484282640660034,1.6629483787238755,-0.50277,-0.09621,0.12229,16.2,-33.6,-20.8
71.4891,19101.2268,0.872459551385717,-1.5659502112298445,1.5035375565310414,-0.41419,-0.30574,0.03555,16.2,-33.7,-20.8
71.5163,19101.2468,1.056184203633728,-1.735869245958105,1.1289956704359465,0.00303,-0.22694,-0.03165,16.2,-33.6,-20.9
71.5301,19101.2669,1.1732675618726505,-1.7284618312302957,0.6038229015076233,0.25165,0.07605,-0.08968,16.2,-33.6,-20.7
71.5501,19101.2869,1.2192008029115302,-1.585080187766201,0.03901217570233051,0.25471,0.31857,-0.21246,16.1,-33.6,-20.8
71.572,19101.3069,1.1813548766143556,-1.3714248488714293,-0.4444215936597562,0.14475,0.26847,-0.38106,16.1,-33.6,-20.7
71.5905,19101.3269,1.049608115062194,-1.1675860926566495,-0.7661585088408494,0.08428,0.04551,-0.40244,16.1,-33.6,-20.6
71.6187,19101.3468,0.8933798459577991,-1.0445531371699632,-0.9202908240258552,0.07145,-0.11881,-0.36762,16.2,-33.6,-20.6
71.6547,19101.3668,0.741821293306081,-0.9836374695166524,-0.9460648477311828,0.03113,-0.09316,-0.36579,16.1,-33.6,-20.6
71.6554,19101.3868,0.555884043863766,-0.9255531228264102,-0.9094975077481582,-0.02324,-0.05895,-0.33769,16.1,-33.5,-20.7
71.6736,19101.4068,0.43036640336830234,-0.8388751299987199,-0.8904717349418174,0.0067,-0.04368,-0.24056,16.1,-33.5,-20.7
71.6909,19101.4268,0.33744349854825906,-0.6874873060950905,-0.9301070882985254,0.17285,-0.13286,-0.13549,16.1,-33.5,-20.6
71.7123,19101.4468,0.2781455119950923,-0.47929135283775276,-1.034334902593974,0.35855,-0.05162,-0.04508,16.2,-33.4,-20.6
71.7278,19101.4668,0.26504866491694956,-0.20479954785977827,-1.1734662753175247,0.36772,-0.14081,-0.0011,16.3,-33.3,-20.5
71.7495,19101.4868,0.28540394542744185,0.07014608749146098,-1.3032438699800437,0.2205,-0.22877,0.04227,16.4,-33.3,-20.4
71.7693,19101.5068,0.3445581493020714,0.3120796118423173,-1.377791476526614,0.13681,-0.36866,0.12901,16.5,-33.2,-20.3
71.7921,19101.5268,0.4104614671253067,0.4653507323629471,-1.3609571917403898,0.2431,-0.49999,0.16322,16.5,-33.2,-20.2
71.8137,19101.5468,0.4736958771824367,0.5133693027030946,-1.2378411974650714,0.30358,-0.49389,0.20476,16.6,-33.2,-20.2
71.8287,19101.5668,0.5365537971264812,0.4788776918051599,-1.0201561791712894,0.27853,-0.47678,0.22858,16.6,-33.2,-20.2
71.849,19101.5868,0.538025487721515,0.38051534475059684,-0.7345538398825511,0.07633,-0.3711,0.19926,16.7,-33.2,-20.3
71.8756,19101.6068,0.4853696007699066,0.26730395465471396,-0.4221613401950677,-0.08677,-0.23121,0.11374,16.6,-33.2,-20.1
71.89,19101.6268,0.4187725068161708,0.1365640569939174,-0.12115972711346856,-0.20527,-0.12737,0.02272,16.6,-33.2,-20.0
71.9138,19101.6468,0.3475307686714713,0.022212653670419687,0.1445452656955215,0.0183,-0.04673,-0.03348,16.5,-33.3,-19.9
71.931,19101.6668,0.31077646725944247,-0.061471022898302294,0.3707060188801954,0.24677,0.08766,0.00684,16.5,-33.4,-19.9
71.9491,19101.6868,0.3358141318800382,-0.10323482429310886,0.5718559356097614,0.24738,0.14752,0.03677,16.4,-33.4,-19.8
71.9779,19101.7068,0.4062213331845152,-0.1383907928005204,0.7706191057770617,0.26876,0.04245,0.08014,16.3,-33.5,-19.9
71.9943,19101.7268,0.541706126949059,-0.12264305069564052,0.9819298897780495,0.35672,-0.24526,0.09664,16.3,-33.6,-19.8
72.0118,19101.7468,0.7018095905281202,-0.13259639169143989,1.2029047739628211,0.52104,-0.39615,0.12229,16.1,-33.7,-19.7
72.027,19101.7667,0.8881624364763824,-0.17290628985221776,1.4071983744032348,0.63344,-0.49327,0.08259,16.0,-33.7,-19.7
72.0492,19101.7867,1.0412255127753158,-0.30826841378800357,1.5548153078238123,0.60229,-0.40287,-0.06036,15.9,-33.8,-19.6
72.0695,19101.8067,1.1241092593621866,-0.47148573319713594,1.6025726547523647,0.53632,-0.21228,-0.15076,15.7,-34.0,-19.6
72.0872,19101.8267,1.0797708378012676,-0.6304099261523437,1.5195007454740548,0.53876,-0.51038,-0.12266,15.6,-34.1,-19.5
72.1416,19101.8467,0.6428356618091594,-0.9480081605383739,1.293962502593784,0.61512,-1.31,-0.00965,15.5,-34.2,-19.2
72.1421,19101.8667,0.48989489744953313,-0.940320512234713,0.9240450643797367,0.34512,-1.09559,-0.0628,15.4,-34.3,-19.2
72.1496,19101.8867,0.25553580229901623,-0.8976523362915408,0.4647017494160668,0.05312,0.14936,-0.21429,15.3,-34.4,-19.0
72.1684,19101.9067,0.047619533991447235,-0.841811082234002,-0.018260710939996372,0.12643,0.74617,-0.38106,15.1,-34.5,-19.0
72.1884,19101.9267,-0.17137384026698677,-0.7833005086206323,-0.4498736993502419,0.19912,0.72174,-0.29065,15.1,-34.6,-18.9
72.2109,19101.9467,-0.3986292739218002,-0.7512198122183911,-0.7821635287765272,0.2657,0.01497,-0.05913,15.1,-34.7,-18.7
72.23,19101.9667,-0.588648814438804,-0.7538494379028617,-0.9994813667286611,0.09833,-0.2471,0.06182,15.0,-34.7,-18.6
72.2474,19101.9867,-0.6865644812442925,-0.8053593238523508,-1.1147070436345992,0.10138,0.26603,0.17788,14.9,-34.8,-18.4
72.2669,19102.0067,-0.696773085925582,-0.8880845918814979,-1.1610944779277013,0.23516,0.1463,0.20048,14.8,-34.9,-18.2
72.2885,19102.0267,-0.6504039699526585,-0.9498614730059819,-1.1787004462339254,0.13498,-0.06628,0.16811,14.7,-35.0,-18.1
72.3073,19102.0467,-0.5680865278382964,-0.9264834548454637,-1.1996942147308047,0.07572,-0.0449,0.13879,14.7,-35.1,-18.0
72.3312,19102.0667,-0.46537895886627006,-0.7873544781964814,-1.2432502415323388,0.21378,-0.0504,0.13634,14.6,-35.2,-17.9
72.3508,19102.0867,-0.33639469342188544,-0.5364894692222795,-1.3080605557796137,0.05129,0.10537,0.16444,14.7,-35.2,-17.7
72.3684,19102.1067,-0.19758766501751912,-0.21650548233270253,-1.3733593008192013,0.07084,0.62705,0.17238,14.7,-35.3,-17.4
72.3866,19102.1267,-0.061748170882117634,0.10779944757370447,-1.4032813289518113,0.61328,-0.48045,-0.08113,14.7,-35.3,-17.3
72.4112,19102.1467,0.055276975100193464,0.36539338144344585,-1.362902991735627,0.2486,-0.52076,0.11374,14.7,-35.3,-17.3
72.4279,19102.1666,0.18469442568711247,0.5269446448768549,-1.2363149932518098,-0.03851,-0.38759,0.16444,14.6,-35.4,-17.0
72.447,19102.1866,0.2812414743488116,0.542859936931841,-1.0259484582339162,-0.2517,-0.04184,0.07709,14.6,-35.4,-16.8
72.4686,19102.2066,0.3128689375100188,0.40185109616514325,-0.7483103929928117,-0.51926,0.36743,0.19804,14.6,-35.4,-16.6
72.49,19102.2266,0.2510631512735225,0.11741173193242559,-0.4304645323183962,-0.32928,0.21899,0.15528,14.6,-35.4,-16.3
72.5109,19102.2466,0.11061863015787161,-0.23688080726377742,-0.10845053771962121,-0.20405,-0.41325,0.11008,14.5,-35.5,-16.3
72.5294,19102.2666,-0.043159039394771295,-0.5718488480687358,0.18476275891347171,-0.4374,-0.28986,0.10397,14.4,-35.5,-16.3
72.5499,19102.2866,-0.13841567327769574,-0.7936831686220656,0.42925526041623563,-0.55835,0.51343,0.03494,14.3,-35.5,-16.4
72.5668,19102.3066,-0.16073500781235445,-0.871857221390436,0.6163015322262506,-0.16374,0.50916,-0.05547,14.3,-35.5,-16.3
72.5913,19102.3266,-0.11204088994400954,-0.7698674049961746,0.7570048170440966,0.12337,-0.22694,0.06854,14.2,-35.5,-16.4
72.6117,19102.3467,0.005758701370122467,-0.5092851378101755,0.8776218110825198,0.15941,-0.48533,0.24691,14.2,-35.4,-16.4
72.628,19102.3667,0.22156646184419024,-0.15927266791418543,1.0063660238951488,0.215,-0.25931,0.32754,14.1,-35.4,-16.4
72.6517,19102.3867,0.45799787823119537,0.13207988344558302,1.1561058993414814,0.2205,-0.09682,0.27379,14.0,-35.5,-16.5
72.6724,19102.4068,0.710825311816671,0.2365646588988952,1.314045320580373,0.14781,-0.10965,0.20537,13.8,-35.4,-16.5
72.6942,19102.4268,0.9010778693321625,0.06292067558103319,1.4457142797030436,0.11787,-0.15424,0.09969,13.7,-35.4,-16.6
72.7252,19102.4468,0.9843737967513494,-0.3517037046584911,1.5065718800365424,-0.1503,-0.23854,-0.06036,13.6,-35.4,-16.6
72.7329,19102.4668,0.9371556418217905,-1.0292451532133806,1.4511555422506284,-0.64998,-0.3033,-0.11167,13.4,-35.4,-16.7
72.7503,19102.4869,0.794931912707956,-1.683062290041753,1.2519095113923573,-0.82469,-0.44563,-0.14649,13.3,-35.4,-17.0
72.7737,19102.5069,0.6174562984515318,-2.183853735787571,0.8912751887101962,-0.59928,-0.33567,-0.21368,13.2,-35.3,-17.2
72.7901,19102.5269,0.45395695383733453,-2.4689341608892095,0.36502988159215555,-0.21566,-0.02657,-0.25583,13.1,-35.3,-17.6
72.8111,19102.547,0.38280617591164073,-2.434204087259089,-0.2637175006803254,0.12276,0.23243,-0.28271,13.0,-35.2,-17.7
72.8316,19102.567,0.404039269381068,-2.093553276177518,-0.8884567004038431,0.31396,0.2868,-0.18742,12.9,-35.1,-17.7
72.8501,19102.587,0.5020153136087833,-1.5469683684778395,-1.3978438283878631,0.30724,0.11331,-0.08051,12.9,-35.1,-17.8
72.8711,19102.607,0.6451363871094987,-0.9674517450172766,-1.7202633791598334,0.34389,0.14203,0.01906,12.8,-35.1,-17.8
72.8921,19102.6271,0.7839748480269646,-0.48927403095537214,-1.830984433575952,0.3726,0.02902,0.09236,12.8,-35.1,-17.8
72.9127,19102.6471,0.8686989839082518,-0.1905286395838398,-1.757852079542909,0.14964,-0.04979,-0.02737,12.8,-35.1,-17.9
72.9329,19102.6671,0.8602999220870989,-0.07629463535571698,-1.561983596327357,-0.11914,-0.18418,-0.12877,12.7,-35.1,-17.9
72.9542,19102.6872,0.7468389080169372,-0.09579713946802805,-1.3138143735992909,-0.28347,-0.23671,-0.20757,12.7,-35.1,-18.1
72.971,19102.7072,0.5337989745698842,-0.1894998448333823,-1.073534934853937,-0.36593,-0.02108,-0.254,12.7,-35.0,-18.1
72.9874,19102.7272,0.2713885114267111,-0.28472262354862277,-0.8839444334952518,-0.39159,0.08522,-0.26255,12.8,-35.0,-18.2
73.023,19102.7472,0.08039627166634396,-0.2850890041071233,-0.7624409635498601,-0.36532,0.13347,-0.23506,12.9,-34.8,-18.3
73.0308,19102.7673,-0.13815102229014362,-0.2808738115773029,-0.7073410097502695,-0.32623,0.17379,-0.14099,13.0,-34.7,-18.2
73.0763,19102.7873,-0.18876037637207416,-0.13098192431382513,-0.6948284608545912,-0.25842,0.12003,-0.0347,13.1,-34.6,-18.1
73.0805,19102.8073,-0.1783964990195952,-0.004059087452446649,-0.6999500048733225,-0.1729,0.0785,0.05815,13.4,-34.6,-18.0
73.0882,19102.8274,-0.04733346694740672,0.16039618303939965,-0.6870779785839005,-0.05683,0.06139,0.13879,13.5,-34.5,-17.9
73.1219,19102.8474,0.12866798026390563,0.34423618081360396,-0.6299157545574694,0.04701,0.02291,0.23469,13.6,-34.4,-17.9
73.129,19102.8674,0.399168269576908,0.5004577254676151,-0.5134884276637539,0.06656,0.04551,0.29028,13.6,-34.4,-18.0
73.1476,19102.8874,0.6392753811519712,0.6161515196879362,-0.3347715917948726,0.11238,0.11515,0.3025,13.6,-34.3,-18.0
73.1674,19102.9075,0.8222126286677999,0.673957096001041,-0.10254808498121548,0.1307,0.10965,0.20048,13.6,-34.3,-18.1
73.1892,19102.9275,0.907775853165302,0.6707455981597015,0.16914201670170748,0.16674,0.13103,0.11741,13.6,-34.2,-18.2
73.2079,19102.9475,0.8867438319488266,0.6248312858614614,0.4646851645648624,0.11176,0.1066,0.07465,13.6,-34.1,-18.1
73.2314,19102.9675,0.7777724372914737,0.5512959537697409,0.772709486887118,0.01097,0.0113,-0.00965,13.6,-34.0,-18.1
73.2487,19102.9874,0.617820380107235,0.4608772921947464,1.0855070974958867,-0.08066,-0.01069,-0.19597,13.5,-34.0,-18.1
73.2713,19103.0074,0.47802449039061534,0.3376546910291685,1.392383277309742,-0.07088,0.26786,-0.265,13.6,-33.9,-18.2
73.2876,19103.0274,0.3494560625088548,0.1584133496623696,1.674427057707943,0.03174,0.49327,-0.18864,13.6,-33.9,-18.2
73.3119,19103.0474,0.2886973808234211,-0.10121033318534492,1.8913600511969868,-0.02263,0.29535,-0.05058,13.5,-33.9,-18.3
73.3277,19103.0674,0.23935164739180137,-0.41612888560476763,1.9914359947860802,-0.04034,0.20556,-0.00416,13.5,-33.8,-18.4
73.3474,19103.0874,0.20505822228954818,-0.7361245452801449,1.920848492965339,-0.13075,0.11393,-0.01026,13.5,-33.8,-18.3
73.3693,19103.1074,0.15876609480894052,-0.9927747586494043,1.6453963591736027,-0.26331,-0.06017,-0.00232,13.4,-33.8,-18.4
73.3878,19103.1274,0.0814930727629033,-1.1566471570674963,1.165998821026271,-0.28041,-0.00641,-0.01637,13.3,-33.7,-18.4
73.4144,19103.1474,-0.009282288406875219,-1.1973906076664556,0.539089392797683,-0.11609,0.3937,-0.04142,13.3,-33.7,-18.3
73.4336,19103.1674,-0.15764773020619693,-1.1302235539143253,-0.12629694710609307,0.22172,0.73701,-0.04631,13.3,-33.7,-18.3
73.4504,19103.1874,-0.3271936821413682,-0.9939591225313198,-0.6970504876405101,0.29319,0.76694,-0.0121,13.4,-33.6,-18.2
73.4682,19103.2074,-0.45698670782897205,-0.8760051896334636,-1.0670778146184023,0.11054,0.56902,0.0777,13.5,-33.6,-18.2
73.4901,19103.2274,-0.489764556965767,-0.852589621707047,-1.1912211583670285,-0.08921,0.41386,0.12107,13.6,-33.5,-18.0
73.5252,19103.2474,-0.39744832062372576,-0.9455386527914599,-1.0951052692337946,-0.09226,0.41875,0.17361,13.7,-33.5,-18.0
73.538,19103.2674,-0.21558969718159376,-1.1440525034788458,-0.8653883726140759,0.02502,0.32467,0.22736,13.8,-33.5,-17.9
73.5504,19103.2874,0.019299879243702155,-1.3494056761988134,-0.6085405327285773,0.02136,0.02413,0.25302,14.0,-33.4,-17.9
73.569,19103.3074,0.22890784524701185,-1.4665840164785182,-0.4228358228628206,0.0012,-0.15913,0.2518,14.0,-33.4,-17.7
73.5931,19103.3274,0.3752353925335325,-1.438958605263718,-0.37021934955914304,0.05312,-0.05345,0.17238,14.0,-33.4,-17.6
73.6202,19103.3474,0.45678138785407796,-1.2642202132330944,-0.4628149072589878,0.10993,0.17196,0.07831,14.1,-33.4,-17.5
73.6335,19103.3674,0.43906491055060304,-0.9722781269150815,-0.6585991523233599,0.10504,0.41081,-0.00232,14.1,-33.4,-17.3
73.6491,19103.3873,0.34177533014962164,-0.6454631975354214,-0.890395768496111,0.07939,0.33384,-0.07563,14.3,-33.4,-17.2
73.6698,19103.4073,0.2021115239039745,-0.35111746523992593,-1.086935236999743,0.02624,0.10171,-0.07379,14.4,-33.4,-17.1
73.6884,19103.4273,0.06088539903456252,-0.1258715693624521,-1.1970325951818612,0.00853,-0.00336,-0.02248,14.4,-33.5,-16.9
73.7204,19103.4473,-0.03719398990280221,0.018631386674564154,-1.1995614837951862,0.01891,-0.01436,0.04044,14.5,-33.4,-16.8
73.7326,19103.4673,-0.06658794382596583,0.08469525409373511,-1.0998126053804533,-0.03423,0.04001,0.03799,14.5,-33.4,-16.7
73.7604,19103.4873,-0.04789191711785593,0.09049372084589692,-0.9214676534401445,0.01403,0.13225,0.07342,14.5,-33.5,-16.5
73.7825,19103.5073,-0.006961442474607349,0.05384191162901797,-0.6958389864178773,0.13681,0.01619,0.0887,14.4,-33.5,-16.5
73.7939,19103.5273,0.037500680603607436,0.0029133432759388413,-0.4529438850877021,0.14109,-0.01436,0.10336,14.4,-33.5,-16.5
73.8085,19103.5473,0.05816692756446418,-0.05217916696091541,-0.21637753162031537,0.10688,-0.12737,0.08136,14.3,-33.5,-16.5
73.8326,19103.5673,0.046452574916859724,-0.08199314008411035,-0.0016183586351754542,0.09161,-0.11698,0.0496,14.3,-33.6,-16.3
73.8521,19103.5873,0.027384495829856623,-0.03876973112489948,0.18479022531096412,0.05556,-0.05101,0.01967,14.2,-33.6,-16.1
73.8681,19103.6073,0.003178806058776675,0.0873523554802805,0.34514676834093017,-0.05806,-0.05773,-0.02065,14.2,-33.5,-16.1
73.8932,19103.6273,-0.02223980054836592,0.27410348485553604,0.4895879016553035,-0.07944,-0.11209,-0.01149,14.2,-33.5,-16.2
73.9164,19103.6473,-0.043200857486748345,0.44440831951905596,0.6332058180311613,0.03235,-0.06445,-0.02187,14.2,-33.5,-16.1
73.9335,19103.6673,-0.043502500788907154,0.5111429584635752,0.7875450111888398,0.12032,-0.05162,-0.01576,14.1,-33.5,-16.3
73.9521,19103.6873,-0.008505855966322222,0.39483724622418215,0.950783805136389,-0.08005,-0.12126,0.03066,14.0,-33.5,-16.3
73.9765,19103.7073,0.07943878872832712,0.08801453184722696,1.1031390659992422,-0.29629,-0.07911,-0.00416,13.8,-33.5,-16.5
73.9935,19103.7273,0.20902415641183453,-0.4062228074950956,1.212422619443391,-0.48749,-0.03146,-0.05852,13.8,-33.4,-16.5
74.0213,19103.7473,0.3657454833986345,-0.8813826895956461,1.2442189729490671,-0.70924,-0.14081,-0.07563,13.7,-33.5,-16.6
74.0323,19103.7673,0.497738312392637,-1.4387002207875397,1.1419125796984826,-0.79904,-0.37354,-0.02554,13.7,-33.4,-16.8
74.0496,19103.7873,0.5886651656198785,-1.7957691399547633,0.894112352072197,-0.49482,-0.49816,-0.0121,13.7,-33.3,-17.0
74.0705,19103.8072,0.6342131975201648,-1.9329976574986787,0.5161671106640178,-0.04401,-0.35216,-0.07807,13.6,-33.2,-17.1
74.1016,19103.8272,0.640221622764381,-1.8630606131749887,0.07434834072460283,0.12643,-0.14997,-0.05058,13.6,-33.1,-17.2
74.1163,19103.8472,0.6359831129435388,-1.6257467468976334,-0.33618466768873034,-0.00063,-0.08522,-0.04264,13.6,-33.0,-17.3
74.1346,19103.8672,0.6052473950535728,-1.3457110951097724,-0.6446182183543208,-0.08921,-0.01497,-0.05547,13.5,-33.0,-17.6
74.1582,19103.8872,0.5593857992000396,-1.118297480668918,-0.8221769983584473,-0.11975,-0.04184,-0.0909,13.4,-32.9,-17.9
74.1734,19103.9072,0.5011903106654516,-0.9926851005306188,-0.885738740556663,-0.02263,-0.07361,-0.13794,13.3,-32.9,-18.0
74.1874,19103.9272,0.44733618904909106,-0.93800128129305,-0.8815424352330208,-0.03851,-0.07605,-0.10434,13.3,-32.8,-18.1
74.2108,19103.9472,0.40459903308791406,-0.8940606502289807,-0.8637092315576833,-0.08127,-0.17074,-0.08784,13.2,-32.7,-18.3
74.2308,19103.9672,0.37245700922251596,-0.8164455765401609,-0.8729729693018324,-0.055,-0.16157,-0.11289,13.1,-32.6,-18.4
74.2476,19103.9872,0.346383285103063,-0.6830914450323519,-0.9226437321554801,0.0464,-0.06567,-0.14221,13.2,-32.6,-18.6
74.2694,19104.0072,0.3241181489582335,-0.5054692764803296,-1.0002356681576714,0.12459,0.02474,-0.12022,13.2,-32.5,-18.6
74.2875,19104.0272,0.29726714754666145,-0.30060817279278823,-1.0773830646603617,0.06045,-0.02046,-0.10678,13.2,-32.4,-18.8
74.3122,19104.0472,0.27429736314472986,-0.10631255102718812,-1.1265053941847292,-0.08249,-0.03268,-0.10617,13.2,-32.3,-19.0
74.3315,19104.0672,0.24987988359277544,0.045712195275607104,-1.1272018966957642,-0.06722,-0.02657,-0.10617,13.1,-32.2,-19.2
74.3515,19104.0872,0.2382692812023255,0.13788299935639284,-1.0699984191999743,0.04946,-0.0956,-0.05913,13.1,-32.1,-19.2
74.3686,19104.1072,0.25792816735580903,0.1743300781564586,-0.9550024739049014,0.03418,-0.12187,-0.01149,13.1,-32.1,-19.2
74.3901,19104.1272,0.32630831803146193,0.17112582384698616,-0.7898734148931101,-0.03912,-0.07728,0.02272,13.1,-32.0,-19.4
74.4081,19104.1472,0.45336180808967624,0.14126672940800886,-0.5879489137672618,-0.06844,0.02291,0.00501,13.1,-32.0,-19.4
74.4336,19104.1672,0.6251721081699396,0.09783989817851353,-0.3664197932724331,-0.08432,0.05589,0.00623,13.2,-31.9,-19.4
74.4561,19104.1872,0.7992989516977043,0.0347928472367329,-0.1429761946431629,-0.0605,-0.0449,-0.00477,13.2,-31.8,-19.5
74.4691,19104.2072,0.955906931356771,-0.024591782909659708,0.0632953737243902,0.10199,-0.22938,0.04655,13.2,-31.8,-19.5
74.4881,19104.2271,1.054245659049685,-0.060035306516472514,0.23944007082796936,0.21011,-0.23854,0.08992,13.2,-31.7,-19.7
74.5129,19104.2471,1.0943698409488989,-0.051800206092299836,0.37819165210605377,0.13742,0.09377,0.08503,13.2,-31.7,-19.8
74.5286,19104.2671,1.0641253939306736,0.010486289829806357,0.4883439242493903,0.02319,0.35277,-0.0457,13.2,-31.7,-19.9
74.5484,19104.2871,0.9584680806387521,0.0729438338420185,0.5936522610375796,0.18568,0.16402,-0.20574,13.0,-31.7,-19.9
74.5699,19104.3071,0.7816960081579984,0.08571759979159368,0.7240482449908843,0.31946,-0.07483,-0.27782,13.0,-31.6,-19.8
74.589,19104.3271,0.5665560414845541,0.017792265477802202,0.8967315808005658,0.27548,-0.14875,-0.24117,13.0,-31.6,-19.9
74.6103,19104.3471,0.36802998306847373,-0.17479107591919069,1.1037665180161476,0.21134,-0.13714,-0.18681,13.0,-31.6,-19.8
74.6292,19104.3671,0.21185674705718993,-0.4761689355944641,1.3107869851368683,0.0238,-0.00275,-0.15015,13.0,-31.5,-19.7
74.6481,19104.3871,0.08957764654740377,-0.844033301520989,1.4630910900426475,-0.05806,0.00275,-0.13183,13.0,-31.5,-19.7
74.674,19104.4071,-0.03102942571956649,-1.1772663753916788,1.503264591330998,-0.16923,-0.09866,-0.0628,13.0,-31.5,-19.6
74.6916,19104.4271,-0.1771671291480957,-1.4400405411919026,1.3824949606080885,-0.34638,-0.28741,-0.02798,13.0,-31.5,-19.6
74.7119,19104.4471,-0.33736633736499205,-1.560465164153637,1.0943364902156638,-0.18145,-0.11759,-0.05669,13.0,-31.5,-19.6
74.7298,19104.4671,-0.48981513259528664,-1.5380291349849564,0.6805974701544653,0.19606,0.19945,-0.14099,13.0,-31.5,-19.6
74.749,19104.4871,-0.609327376546381,-1.4053493534913415,0.22553860213609767,0.32068,0.4218,-0.10617,13.1,-31.5,-19.5
74.7705,19104.5071,-0.6750154305801216,-1.231478778995943,-0.18131980607918052,0.21744,0.36988,-0.01332,13.1,-31.5,-19.4
74.7914,19104.5271,-0.6642382673818328,-1.0862173473200778,-0.47984791587722064,0.18873,0.13592,0.12474,13.2,-31.5,-19.3
74.8159,19104.5471,-0.5539328560919526,-1.035983213937532,-0.6570655957646281,0.2602,0.04245,0.2408,13.3,-31.5,-19.1
