AppTimestamp(s),SensorTimestamp(s),gyro_x,gyro_y,gyro_z
0.0466,5258.038,-0.25705,-0.42559,-0.79958
0.0516,5258.058,-0.74208,-0.33762,-0.9242
0.0563,5258.078,-0.34257,-0.65405,-0.80019
0.0809,5258.098,0.24264,-1.12381,-0.78675
0.0937,5258.118,0.43017,-1.46467,-0.85212
0.1319,5258.138,0.41551,-1.56118,-0.76659
0.1357,5258.1579,0.42345,-1.15007,-0.39274
0.1622,5258.1779,0.1339,-0.74324,0.02692
0.1703,5258.1979,0.31411,-0.97109,0.11305
0.1896,5258.2179,0.57128,-0.6174,0.03181
0.2091,5258.2379,0.43139,-0.41459,0.08434
0.2313,5258.2579,0.58716,-1.04195,0.28287
0.2508,5258.2779,0.75698,-1.3486,0.28776
0.2808,5258.2979,0.78447,-0.53493,0.0593
0.3085,5258.3179,1.01782,0.40336,0.14787
0.3112,5258.3379,0.93902,0.39664,0.16681
0.3331,5258.3579,1.08013,0.61594,0.43559
0.3522,5258.3779,1.24079,0.9849,0.68604
0.3694,5258.3979,1.02515,1.39296,0.69398
0.3868,5258.4179,0.5609,1.78208,0.69948
0.4083,5258.4379,0.22064,2.11012,0.9762
0.4305,5258.4579,-0.0121,2.11806,1.36105
0.4494,5258.4779,-0.13916,2.00016,1.73001
0.4725,5258.4979,-0.25644,2.24512,1.91144
0.4903,5258.5179,-0.50018,2.58537,1.88334
0.5089,5258.5379,-0.88747,2.7222,1.85341
0.5371,5258.5579,-1.36028,2.66051,1.93038
0.5594,5258.5779,-1.64555,2.55727,1.76666
0.5753,5258.5979,-1.55331,2.2781,1.48505
0.5911,5258.6178,-1.22955,1.6874,1.45085
0.6098,5258.6378,-0.59914,1.39907,1.47345
0.6278,5258.6578,-0.33036,1.45038,1.05073
0.6588,5258.6778,-0.61013,1.14861,0.36412
0.6757,5258.6978,-1.00597,0.39236,-0.15451
0.6889,5258.7178,-0.98765,-0.78416,-0.29623
0.7094,5258.7378,-0.60219,-1.48483,-0.45444
0.7313,5258.7578,-0.52461,-1.96985,-0.7275
0.7491,5258.7778,-0.74819,-2.45305,-1.06042
0.7719,5258.7978,-0.72681,-2.84278,-1.27117
0.8141,5258.8178,-0.36823,-2.74993,-1.3909
0.8214,5258.8378,-0.05974,-2.71877,-1.41961
0.8348,5258.8578,0.24386,-2.52513,-1.52468
0.8503,5258.8778,0.25424,-2.23436,-1.7678
0.8738,5258.8978,0.53035,-2.023,-1.99077
0.8918,5258.9178,0.95674,-1.96924,-2.1221
0.9167,5258.9378,1.30737,-2.01628,-2.02192
0.9338,5258.9578,1.55233,-2.02422,-1.95595
0.9502,5258.9778,1.6293,-2.03277,-1.96817
0.976,5258.9978,1.50224,-2.01628,-2.00054
0.989,5259.0178,1.45215,-2.17205,-2.23573
1.0071,5259.0377,1.47719,-2.22397,-2.39089
1.0292,5259.0577,1.21269,-1.95031,-2.31758
1.0495,5259.0777,0.68063,-1.73528,-2.13677
1.0785,5259.0977,0.26096,-1.7249,-1.95473
1.0963,5259.1177,0.02517,-1.49949,-1.66457
1.1084,5259.1377,-0.2992,-1.07494,-1.35303
1.1286,5259.1577,-0.84471,-0.78477,-1.25406
1.1501,5259.1777,-1.24116,-0.41398,-1.27056
1.1716,5259.1977,-1.45801,-0.30891,-1.26384
1.1896,5259.2177,-1.75917,-0.4543,-1.20703
1.2108,5259.2377,-1.96931,-0.50317,-1.30232
1.2292,5259.2577,-2.07071,-0.32296,-1.5033
1.2577,5259.2777,-2.09576,-0.13054,-1.36219
1.2735,5259.2977,-2.03956,-0.17941,-0.92237
1.3086,5259.3177,-2.04628,-0.17574,-0.4691
1.3146,5259.3377,-2.08171,0.05944,-0.45078
1.3419,5259.3578,-1.80621,0.16451,-0.47949
1.3545,5259.3778,-1.13487,0.22987,-0.04761
1.3718,5259.3978,-0.64312,0.29951,0.51195
1.3908,5259.4178,-0.49896,0.59089,0.80028
1.409,5259.4379,-0.39022,0.95619,1.02507
1.4293,5259.4579,-0.01271,1.40212,1.15763
1.452,5259.4779,0.1394,1.57011,1.21078
1.4738,5259.498,0.12657,1.5133,1.1894
1.4926,5259.518,0.27623,1.33554,1.28713
1.5109,5259.538,0.6006,1.27201,1.51499
1.5286,5259.558,0.77592,1.28178,1.87234
1.5514,5259.5781,0.81929,1.29095,2.40685
1.5727,5259.5982,0.7637,1.22375,3.00367
1.615,5259.6182,0.64275,1.15228,3.56322
1.622,5259.6383,0.54624,1.23169,3.70311
1.6361,5259.6584,0.64031,1.38624,3.80146
1.6524,5259.6784,0.57067,1.41312,3.66401
1.6735,5259.6985,0.62687,1.43328,3.11484
1.6954,5259.7185,0.65497,1.34348,2.66586
1.7117,5259.7386,0.65191,0.96413,2.76665
1.731,5259.7587,0.86327,0.878,3.00183
1.7571,5259.7787,0.76126,1.03438,2.77581
1.7821,5259.7988,0.52424,1.29461,2.26208
1.7973,5259.8188,0.45827,1.38624,1.64816
1.8109,5259.8389,0.48881,1.23108,1.37021
1.829,5259.859,0.28478,0.88167,1.15213
1.8494,5259.879,-0.08784,0.34166,0.89435
1.8759,5259.8991,-0.19169,-0.03646,0.69521
1.8911,5259.9191,0.027,-0.12443,0.35495
1.9112,5259.9392,0.00195,-0.01814,-0.02012
1.9329,5259.9592,-0.49346,0.12786,-0.28523
1.9564,5259.9792,-0.96505,0.12664,-0.40679
1.9793,5259.9992,-0.8728,-0.16352,-0.37014
1.9949,5260.0193,-0.6474,-0.45735,-0.50453
2.0096,5260.0393,-0.6474,-0.96803,-0.68901
2.0807,5260.0593,-0.62846,-1.35777,-0.77026
2.0838,5260.0793,-0.34196,-1.43046,-0.80874
2.0866,5260.0994,-0.17581,-1.34127,-0.90587
2.1055,5260.1194,-0.0964,-1.27774,-1.00544
2.1331,5260.1394,0.12596,-1.32356,-1.19542
2.1354,5260.1595,0.38191,-1.26919,-1.49169
2.1482,5260.1795,0.44239,-1.27591,-1.72871
2.171,5260.1995,0.50103,-1.27958,-1.84783
2.1891,5260.2194,0.73438,-1.3315,-1.96389
2.2148,5260.2394,0.86694,-1.60028,-2.01887
2.2317,5260.2594,0.93291,-1.82752,-2.23267
2.2535,5260.2794,1.07463,-1.74933,-2.37439
2.2696,5260.2994,1.01782,-1.42924,-2.19846
2.2918,5260.3194,0.75943,-1.02973,-2.29864
2.317,5260.3394,0.41918,-0.60701,-2.64378
2.3397,5260.3594,-0.09151,-0.57342,-2.80505
2.3516,5260.3795,-0.22284,-0.96681,-2.58636
2.371,5260.3995,-0.23506,-1.06455,-2.71342
2.3945,5260.4195,-0.29126,-0.79333,-2.69632
2.4119,5260.4396,-0.39694,-1.01874,-2.05063
2.4306,5260.4596,-0.16115,-1.00713,-1.15816
2.4607,5260.4796,-0.14282,-0.52088,-0.59983
2.4829,5260.4996,-0.38167,-0.13115,-0.33044
2.4988,5260.5197,-0.71154,0.19566,-0.31883
2.5121,5260.5397,-1.00597,0.52859,-0.25041
2.5327,5260.5597,-1.25704,0.84685,-0.20399
2.5508,5260.5798,-1.64983,1.09669,-0.22415
2.5741,5260.5998,-1.73657,1.08325,-0.13862
2.5971,5260.6198,-1.45496,0.9623,0.13016
2.6167,5260.6398,-1.00048,1.08631,0.47163
2.6311,5260.6599,-0.85142,1.26285,0.7227
2.6666,5260.6799,-0.63396,1.21459,1.05867
2.6734,5260.6999,-0.04753,0.99223,1.43863
2.6913,5260.72,0.47415,0.80164,1.96947
2.7128,5260.74,0.65986,0.9006,2.46794
2.7307,5260.76,0.58961,1.15839,2.8369
2.7505,5260.78,0.66291,1.61898,3.1014
2.7747,5260.8001,0.67635,1.92075,3.08552
2.7901,5260.8201,0.47354,2.29154,2.66341
2.8104,5260.8401,0.07465,2.20358,2.30667
2.8352,5260.8602,-0.13427,1.28239,2.21809
2.8527,5260.8802,-0.08723,0.20483,1.99024
2.8723,5260.9002,0.12535,-0.39443,1.65732
2.8961,5260.9202,0.52302,-0.03769,1.30241
2.9103,5260.9403,0.76004,0.37465,1.1955
2.9339,5260.9603,0.78386,0.7204,1.28897
2.9525,5260.9803,0.55173,1.40334,1.16863
2.9716,5261.0003,0.14062,2.01726,0.90595
2.9898,5261.0202,-0.26866,2.14005,0.65794
3.0114,5261.0402,-0.58448,2.03009,0.38672
3.0301,5261.0602,-0.76041,1.40762,0.15154
3.0499,5261.0802,-0.7995,0.55546,0.10633
3.0739,5261.1002,-0.5747,-0.33396,0.16986
3.0908,5261.1202,-0.37128,-0.81349,0.16986
3.1113,5261.1402,-0.53194,-0.65405,0.08617
3.1333,5261.1602,-0.72681,-0.57342,-0.09892
3.1521,5261.1802,-0.62724,-0.69864,-0.29256
3.1701,5261.2002,-0.35113,-1.00041,-0.2724
3.1993,5261.2202,-0.07196,-1.41946,-0.21132
3.2133,5261.2402,-0.04386,-1.64304,-0.2834
3.2302,5261.2602,-0.31447,-1.83791,-0.48193
3.2514,5261.2802,-0.63579,-1.94786,-0.82279
3.2929,5261.3002,-0.50629,-2.07737,-1.13556
3.2968,5261.3202,-0.26744,-1.95397,-1.22963
3.3336,5261.3402,-0.0121,-1.73895,-1.12212
3.3362,5261.3602,0.29639,-1.65953,-1.02255
3.3502,5261.3802,0.41734,-1.74322,-1.09646
3.3758,5261.4002,0.46621,-1.81714,-1.29072
3.3891,5261.4202,0.68063,-2.01567,-1.45993
3.4148,5261.4401,0.848,-2.15739,-1.48986
3.4339,5261.4601,0.78203,-2.06576,-1.4923
3.4532,5261.4801,0.57311,-1.84463,-1.57477
3.4702,5261.5001,0.49126,-1.51659,-1.86065
3.4925,5261.5201,0.47354,-1.43901,-2.13188
3.5148,5261.5401,0.28723,-1.38587,-2.23878
3.5317,5261.5601,-0.03897,-1.18856,-2.34202
3.5543,5261.5801,-0.21368,-0.91306,-2.42448
3.582,5261.6001,-0.36395,-0.65588,-2.44159
3.5924,5261.6201,-0.6419,-0.6626,-2.48618
3.6163,5261.6401,-1.00964,-0.5331,-2.53505
3.6315,5261.6601,-1.28941,-0.54715,-2.29864
3.652,5261.6801,-1.30957,-0.8312,-1.73115
3.6748,5261.7001,-1.28636,-0.77134,-1.07752
3.6998,5261.7201,-1.51788,-0.36206,-0.52286
3.7152,5261.7401,-1.81232,0.07288,-0.23942
3.7332,5261.7601,-1.86363,0.24209,-0.08853
3.7519,5261.7801,-1.66876,0.19383,0.14421
3.7708,5261.8001,-1.17824,0.39542,0.51134
3.7976,5261.8201,-0.78118,0.88716,0.86808
3.8107,5261.84,-0.32547,1.27018,1.35555
3.8317,5261.86,0.24202,1.47543,1.72146
3.8543,5261.88,0.59205,1.47665,1.92182
3.8767,5261.9,0.57372,1.37524,2.15701
3.8931,5261.92,0.39902,1.34898,2.40502
3.9167,5261.94,0.25485,1.51452,2.67685
3.932,5261.96,0.12596,1.65746,2.9548
3.9586,5261.98,0.05327,1.90853,3.13256
4.0132,5262,0.02272,2.13516,3.29749
4.0163,5262.02,-0.24239,2.11928,3.52718
4.0177,5262.04,-0.46902,1.69961,3.71105
4.0388,5262.06,-0.0683,1.58111,3.49175
4.0493,5262.08,0.54318,1.7833,2.95419
4.0693,5262.1,0.6959,1.68251,2.64631
4.0903,5262.12,0.34893,1.05576,2.59133
4.1106,5262.14,-0.2711,0.39358,2.58461
4.1299,5262.16,-0.66511,-0.30158,2.7471
4.1551,5262.18,-0.29859,-0.0835,2.50825
4.1755,5262.2,-0.11839,0.87006,1.73368
4.1952,5262.22,-0.50323,1.3783,1.15274
4.2162,5262.24,-0.99498,1.29339,1.05501
4.233,5262.2599,-1.45435,0.75461,1.02019
4.2586,5262.2799,-1.54659,0.25309,0.78378
4.2768,5262.2999,-1.25582,-0.24966,0.48996
4.3093,5262.3199,-0.67611,-1.04256,0.38672
4.3124,5262.3399,-0.25827,-1.74933,0.31708
4.3411,5262.3599,-0.30531,-1.97718,0.12466
4.3561,5262.3799,-0.45131,-1.84035,-0.07448
4.3709,5262.3999,-0.46658,-1.73101,-0.28829
4.3915,5262.4199,-0.33891,-1.65831,-0.56623
4.4091,5262.4399,-0.32303,-1.48177,-0.95413
4.4316,5262.4599,-0.2595,-1.40664,-1.14716
4.4532,5262.4799,-0.09945,-1.39014,-1.21375
4.4718,5262.4999,0.01967,-1.17573,-1.38784
4.4895,5262.5199,0.12901,-0.8538,-1.62486
4.5117,5262.5399,0.26279,-0.66138,-1.72932
4.5375,5262.5599,0.45827,-0.59724,-1.89059
4.55,5262.5799,0.62992,-0.55692,-2.25466
4.5714,5262.5999,0.74721,-0.68459,-2.54849
4.5934,5262.6199,0.74599,-0.90328,-2.51
4.6146,5262.6399,0.75454,-1.09265,-2.29803
4.6354,5262.6598,0.80707,-1.15496,-2.1893
4.6593,5262.6798,0.8926,-1.13358,-2.25649
4.6743,5262.6998,0.83823,-0.93505,-2.46785
4.6922,5262.7198,0.58105,-0.72369,-2.67372
4.7101,5262.7398,0.15039,-0.37366,-2.81605
4.7308,5262.7598,-0.13854,-0.02852,-2.75068
4.7549,5262.7798,-0.24056,-0.02425,-2.67616
4.7731,5262.7998,-0.49773,-0.27287,-2.84231
4.7971,5262.8198,-0.70909,-0.28936,-2.93944
4.8132,5262.8398,-0.97115,-0.15497,-2.75863
4.8308,5262.8598,-1.09821,0.02279,-2.45503
4.852,5262.8798,-0.93695,-0.02425,-2.32858
4.872,5262.8998,-0.78912,0.08265,-2.47396
4.8903,5262.9198,-0.91862,0.0063,-2.66761
4.9164,5262.9398,-1.03102,0.07532,-2.60041
4.9425,5262.9598,-1.0353,0.41374,-2.10561
4.9726,5262.9798,-0.93267,0.91771,-1.53751
4.9772,5262.9998,-0.39328,0.69535,-1.19481
5.0015,5263.0198,-0.32242,-0.35411,-0.43123
5.0133,5263.0398,-0.6193,-0.80249,-0.07265
5.0301,5263.0598,-0.96749,-0.12504,0.08923
5.0566,5263.0797,-1.4122,0.69596,0.66222
5.0713,5263.0997,-1.62356,0.8328,1.24926
5.0904,5263.1197,-1.1984,0.5182,1.50705
5.1121,5263.1397,-0.98398,0.15657,1.43863
5.1303,5263.1597,-1.07561,0.68313,1.19306
5.155,5263.1797,-1.15136,0.9452,1.41725
5.1781,5263.1997,-0.90762,0.86151,1.90044
5.1968,5263.2197,-0.46963,0.88044,2.25658
5.2181,5263.2397,-0.29432,0.6196,2.41418
5.2386,5263.2597,0.15895,1.35936,2.35126
5.2595,5263.2797,0.6397,1.47482,2.66036
5.2783,5263.2997,0.27501,1.01911,3.36652
5.3154,5263.3197,-0.2992,0.38992,3.61942
5.3207,5263.3397,-0.55577,-0.12809,3.32437
5.3345,5263.3597,-0.58997,0.0063,3.18204
5.3539,5263.3797,-0.66267,1.11196,3.57055
5.3725,5263.3997,-0.94672,0.70757,4.08184
5.3905,5263.4198,-0.90824,0.26836,4.56382
5.4117,5263.4398,-0.51789,0.18345,4.26083
5.4329,5263.4598,-0.28882,0.54508,3.34331
5.455,5263.4799,-0.08173,0.23354,2.69701
5.4779,5263.4999,0.36725,-0.36939,2.50398
5.4966,5263.5199,0.53829,-1.23804,2.58278
5.5129,5263.5399,0.39779,-2.25635,2.71961
5.541,5263.56,0.36908,-2.04621,2.47343
5.5667,5263.58,0.2915,-0.87457,1.84547
5.5741,5263.6,-0.12327,0.10037,0.82532
5.5964,5263.6201,-0.50506,-0.06823,0.29387
5.61,5263.6401,-0.40244,-0.77989,0.05563
5.6311,5263.6601,-0.13549,-1.22521,-0.02439
5.6529,5263.6801,-0.11228,-1.34738,-0.01767
5.6751,5263.7002,-0.04264,-1.17023,-0.16306
5.6911,5263.7202,-0.10983,-1.04867,-0.47704
5.7141,5263.7402,-0.21063,-1.07799,-0.76598
5.7332,5263.7603,-0.23934,-1.20749,-1.02377
5.7547,5263.7803,-0.01759,-1.26553,-1.37196
5.7759,5263.8003,0.22125,-1.25942,-1.85149
5.7921,5263.8203,0.30311,-1.27835,-2.30292
5.811,5263.8404,0.35992,-1.17939,-2.6053
5.845,5263.8604,0.53157,-1.09754,-2.80994
5.8581,5263.8804,0.57372,-0.78966,-3.08971
5.8804,5263.9005,0.42406,-0.48301,-3.43974
5.8976,5263.9205,0.48393,-0.17024,-3.66026
5.91,5263.9405,0.8871,-0.12321,-3.56191
5.9497,5263.9605,1.25667,-0.20323,-3.13797
5.9524,5263.9805,1.35258,-0.30952,-2.42204
5.9713,5264.0005,1.12106,-0.36511,-2.31331
5.9906,5264.0205,0.68368,-0.39077,-2.42754
6.0108,5264.0405,0.1846,-0.14031,-2.51367
6.0365,5264.0605,-0.28027,0.43818,-2.51367
6.0517,5264.0805,-0.82516,0.40763,-2.36767
6.0777,5264.1005,-1.26009,-0.45063,-2.38905
6.0929,5264.1205,-1.23627,-1.04561,-2.91806
6.1161,5264.1405,-0.67488,-0.82937,-3.52832
6.1336,5264.1605,-0.11411,-0.77806,-3.4147
6.1521,5264.1805,-0.16054,-0.97781,-2.49351
6.1766,5264.2005,-0.73719,-1.10304,-1.74092
6.1951,5264.2205,-1.31446,-1.06822,-1.33226
6.2115,5264.2405,-1.76406,-0.80249,-0.88205
6.2416,5264.2605,-1.95953,-0.30036,-0.41535
6.259,5264.2805,-1.94243,0.2879,-0.02623
6.2753,5264.3004,-1.83247,0.39664,0.33846
6.3045,5264.3204,-1.43236,0.00507,0.81005
6.3151,5264.3404,-0.74025,-0.13298,1.22666
6.3322,5264.3604,-0.18131,0.64954,1.10937
6.355,5264.3804,-0.15626,1.23536,1.16985
6.3751,5264.4004,-0.00293,1.37708,1.66282
6.3906,5264.4204,0.3758,1.00323,1.99329
6.4117,5264.4404,0.91092,0.80042,2.09959
6.4323,5264.4604,1.2585,0.64098,2.20954
6.4592,5264.4804,1.33486,0.66847,2.4319
6.4783,5264.5004,1.25606,0.81569,2.71106
6.4984,5264.5204,1.18153,1.20787,2.97862
6.5113,5264.5404,0.99766,1.58538,3.3091
6.5306,5264.5604,0.55112,1.49131,3.54611
6.5628,5264.5804,0.14123,0.79492,3.55406
6.5824,5264.6004,0.27562,0.54325,3.30727
6.5915,5264.6204,0.43567,0.76499,2.89249
6.6163,5264.6404,0.07159,0.66664,2.60049
6.6315,5264.6604,-0.3499,0.50537,2.74038
6.6523,5264.6804,-0.5521,0.63304,2.90898
6.6775,5264.7004,-0.52889,1.23047,2.96701
6.6939,5264.7203,-0.71765,1.72038,2.7697
6.7126,5264.7403,-1.07928,1.31966,2.8314
6.7349,5264.7603,-0.92351,0.7656,3.16799
6.7535,5264.7803,-0.36945,0.66481,3.20953
6.7749,5264.8003,0.06976,0.64526,2.87722
6.7973,5264.8203,-0.26194,0.33189,2.43373
6.8178,5264.8403,-0.97177,0.34655,2.10753
6.8416,5264.8603,-1.35844,0.58662,1.84363
6.8589,5264.8803,-1.21367,0.4003,1.65671
6.877,5264.9003,-0.76346,-0.13665,1.5773
6.8982,5264.9203,-0.36457,-0.72063,1.57974
6.9139,5264.9403,-0.31997,-0.93993,1.40931
6.932,5264.9603,-0.52644,-1.09387,1.07455
6.9514,5264.9803,-0.63396,-1.3822,0.70681
6.9925,5265.0003,-0.27904,-1.52637,0.234
7.0007,5265.0203,0.21881,-1.41824,-0.34204
7.0116,5265.0403,0.19926,-1.34616,-0.86861
7.0339,5265.0603,-0.22895,-1.15007,-1.42816
7.0519,5265.0803,-0.52217,-0.86907,-1.91319
7.0773,5265.1003,-0.61563,-0.5331,-2.31392
7.0944,5265.1202,-0.77934,-0.56303,-2.64562
7.112,5265.1402,-0.5857,-0.67787,-2.61263
7.1353,5265.1602,-0.41405,-0.92894,-2.55643
7.1606,5265.1802,-0.5857,-1.08837,-2.43181
7.1769,5265.2002,-0.74697,-0.96559,-2.28459
7.1929,5265.2202,-0.76041,-0.61984,-2.34812
7.2132,5265.2402,-0.61563,-0.25577,-2.3414
7.2323,5265.2602,-0.42321,0.11686,-2.22351
7.2617,5265.2802,-0.66572,0.55058,-2.08362
7.2903,5265.3002,-1.41037,0.93115,-1.7904
7.299,5265.3202,-1.99313,1.16144,-2.21618
7.3147,5265.3403,-1.65654,1.24818,-2.88569
7.3417,5265.3603,-1.14647,1.00811,-2.81544
7.3523,5265.3803,-1.02125,0.8328,-2.60286
7.3706,5265.4003,-1.69686,0.90915,-2.58697
7.4003,5265.4204,-2.5985,0.87311,-3.04085
7.4113,5265.4404,-2.8404,0.89694,-3.33895
7.4331,5265.4604,-2.91126,1.4797,-3.74578
7.4526,5265.4805,-2.67913,1.58905,-3.91377
7.4734,5265.5005,-1.62539,1.74054,-3.63338
7.492,5265.5205,-0.64923,1.41251,-3.22777
7.517,5265.5405,-0.00293,1.13334,-3.11232
7.5373,5265.5606,0.49737,0.77354,-3.41225
7.5526,5265.5806,0.79669,0.35938,-3.88934
7.5729,5265.6006,0.46255,0.79614,-4.41468
7.5941,5265.6207,0.76859,1.17916,-3.904
7.6227,5265.6407,1.36602,1.39296,-2.94677
7.6328,5265.6607,0.99217,-0.21117,-2.094
7.6533,5265.6807,-0.02431,-0.45979,-0.99323
7.6717,5265.7008,-0.38411,0.4901,0.0935
7.6955,5265.7208,-0.56004,0.56096,0.64512
7.7115,5265.7408,-1.15502,0.60128,1.01163
7.7324,5265.7609,-1.99008,1.28972,1.15458
7.7592,5265.7809,-2.36759,1.26223,1.19612
7.7786,5265.8009,-1.64555,-0.1452,1.55836
7.796,5265.8209,-0.3499,-2.70717,1.7856
7.8135,5265.841,0.61954,-2.90753,1.24437
7.8322,5265.861,1.06791,-0.76523,0.42643
7.8556,5265.881,1.45154,-0.57647,0.48568
7.8847,5265.9011,1.33669,-0.84708,0.94077
7.8976,5265.9211,1.00683,-0.24721,1.57607
7.9274,5265.941,0.64703,-0.31135,1.89189
7.9336,5265.961,0.91275,-1.38342,2.02384
7.9845,5265.981,0.9995,-1.52026,1.92549
7.9859,5266.001,1.34952,-0.64672,2.38486
8.0027,5266.021,1.43749,1.80468,2.64081
8.0101,5266.041,-0.35723,1.4119,2.12769
8.0299,5266.061,-0.43359,0.90854,2.34027
8.051,5266.081,-0.28821,0.0344,2.52841
8.0732,5266.101,-1.13731,-1.3486,2.6512
8.0905,5266.121,-2.64004,-2.1299,2.7636
8.1145,5266.141,-4.13788,-1.03767,3.135
8.1332,5266.161,-3.62903,0.51087,4.11422
8.1515,5266.181,-2.16356,1.77231,4.06779
8.1748,5266.201,-0.03714,0.29096,3.686
8.1915,5266.221,1.50713,-0.65283,3.38179
8.2159,5266.241,1.4717,0.36182,3.32009
8.2344,5266.261,0.71606,0.38992,3.44166
8.2596,5266.281,0.53219,-1.01202,3.59071
8.2727,5266.301,0.87855,-1.34005,3.82406
8.2944,5266.321,1.67756,-0.27226,3.88881
8.3156,5266.3409,1.02393,-2.52208,3.32742
8.3376,5266.3609,-0.16664,-2.17083,2.61027
8.3534,5266.3809,-2.03956,-0.47995,3.07269
8.3722,5266.4009,-3.44333,0.56829,3.80207
8.393,5266.4209,-3.83184,-0.56059,3.68173
8.4119,5266.4409,-2.07682,-1.93015,2.62554
8.4341,5266.4609,-0.18558,-3.07185,1.4203
8.4512,5266.4809,0.8645,-2.06759,1.00003
8.4726,5266.5009,0.56884,-1.56668,0.9762
8.4912,5266.5209,0.44117,-2.22764,0.73003
8.5106,5266.5409,0.43139,-4.25082,0.56937
8.5323,5266.5609,0.78936,-5.35527,1.19123
8.5508,5266.5809,1.2078,-6.4817,1.68725
8.5706,5266.6009,1.60181,-6.50064,1.8925
8.5924,5266.6209,1.48391,-5.64787,2.05621
8.6191,5266.6409,1.02515,-3.99182,2.03728
8.6459,5266.6609,0.13268,-1.9839,2.0104
8.6613,5266.6809,-0.67977,-0.01508,1.79782
8.6747,5266.7009,-1.11715,1.25613,1.5492
8.6962,5266.7209,-0.84776,1.20054,1.39648
8.7134,5266.7409,0.04166,0.11686,1.02324
8.732,5266.7608,0.57495,-1.06455,0.43986
8.7515,5266.7808,0.31105,-1.17267,-0.13374
8.773,5266.8008,-0.01026,-0.58258,-1.00056
8.791,5266.8208,0.04105,-0.23988,-2.0543
8.8113,5266.8408,0.15101,-0.0157,-2.83315
8.8341,5266.8608,0.038,0.6361,-3.52893
8.8518,5266.8808,0.00623,1.16877,-4.17644
8.8714,5266.9008,0.19071,0.9006,-4.68468
8.8947,5266.9208,0.40146,0.26286,-5.44827
8.911,5266.9408,0.38497,0.49377,-6.05241
8.9308,5266.9608,0.39474,0.7766,-6.03225
8.9583,5266.9808,0.12474,0.79798,-6.25094
8.9801,5267.0008,0.19987,0.67397,-6.61868
8.9915,5267.0208,0.60854,0.30684,-6.7885
9.0144,5267.0408,0.79425,0.73506,-5.98827
9.0308,5267.0608,0.34954,1.53529,-5.20453
9.0536,5267.0808,0.173,1.92197,-5.22591
9.0794,5267.1008,0.86694,1.25124,-5.60343
9.0943,5267.1208,1.40633,0.06983,-5.21492
9.117,5267.1408,1.13755,-0.57952,-4.59672
9.1359,5267.1608,0.79608,-0.19162,-3.99624
9.1527,5267.1808,0.27318,0.0515,-3.5778
9.1735,5267.2007,-0.254,-0.12565,-3.22105
9.1946,5267.2207,-0.34441,-0.48667,-2.65539
9.2144,5267.2407,-0.94122,0.38564,-1.78124
9.2453,5267.2607,-1.18312,0.47116,-1.22841
9.2813,5267.2807,-0.69993,1.56461,-1.273
9.2997,5267.3007,-1.16724,1.73077,-1.03721
9.3061,5267.3207,-1.43114,0.7656,-0.72322
9.3128,5267.3407,-0.72742,-0.57647,-0.36892
9.3424,5267.3607,0.2292,-1.08349,0.08251
9.3583,5267.3807,0.58289,-0.67054,0.32869
9.3751,5267.4007,0.08992,-0.21667,0.62557
9.3912,5267.4207,-0.33769,0.14069,0.99697
9.4107,5267.4407,-0.42809,0.15229,1.41908
9.4331,5267.4607,-0.31447,0.31051,1.97008
9.453,5267.4807,-0.39144,0.64343,2.50153
9.4789,5267.5007,-0.76041,0.97635,2.64875
9.4967,5267.5207,-1.03652,1.36669,2.78314
9.5093,5267.5407,-1.34684,1.47054,3.23396
9.5319,5267.5607,-1.74634,1.08997,3.97189
9.5517,5267.5807,-1.92533,0.47239,5.00058
9.5718,5267.6006,-1.99741,-0.46835,5.61511
9.5919,5267.6206,-1.68892,-1.57829,5.69453
9.6134,5267.6406,-1.36272,-1.7475,6.18383
9.6345,5267.6606,-1.69808,-0.72247,6.32738
9.653,5267.6806,-2.05849,0.17978,5.38421
9.6787,5267.7006,-2.08598,0.34044,3.61514
9.6985,5267.7206,-1.42442,-0.19529,2.29384
9.7132,5267.7406,-0.46963,-0.83548,1.59501
9.7403,5267.7606,0.10336,-0.8984,1.22238
9.7546,5267.7806,0.4204,-0.63633,0.62129
9.7761,5267.8006,0.63176,-0.76645,0.01165
9.7925,5267.8206,0.96407,-1.0279,-0.76476
9.8105,5267.8406,1.35319,-1.21971,-1.38968
9.8301,5267.8606,0.97873,-1.41274,-1.59432
9.8526,5267.8806,0.33915,-1.5563,-1.78979
9.8768,5267.9006,0.11741,-1.39136,-2.23573
9.8943,5267.9206,0.43689,-1.91671,-3.10499
9.9127,5267.9406,0.89748,-2.26551,-4.06099
9.9521,5267.9606,0.79119,-2.41334,-4.56862
9.9546,5267.9806,0.53035,-2.45855,-4.74882
9.9717,5268.0005,0.42467,-1.94603,-4.92598
9.9909,5268.0205,0.13696,-1.25392,-4.8429
10.0096,5268.0405,-0.71703,-0.41887,-4.4269
10.0311,5268.0605,-1.07806,0.09915,-3.85207
10.0555,5268.0805,-0.94244,0.13274,-3.29558
10.0738,5268.1005,-0.57226,0.04417,-3.23449
10.0926,5268.1205,-0.50323,0.0515,-3.2803
10.1128,5268.1405,-0.6309,0.03928,-3.32368
10.1331,5268.1605,-0.50934,0.14435,-2.89974
10.1557,5268.1805,-0.50995,0.15474,-2.31208
10.1734,5268.2005,-0.64251,0.14618,-2.28765
10.1953,5268.2205,-0.56615,-0.16536,-2.40677
10.2202,5268.2405,-0.43604,-0.35473,-2.15631
10.2542,5268.2605,-0.76407,0.05333,-1.74948
10.2723,5268.2805,-1.32668,0.26042,-1.2052
10.2831,5268.3005,-1.58935,0.2818,-0.4575
10.2923,5268.3205,-1.6144,-0.07434,0.31708
10.3251,5268.3405,-1.54659,-0.45124,1.00675
10.3379,5268.3606,-1.15441,-0.54837,1.36288
10.3511,5268.3806,-0.97421,0.25003,1.69092
10.3721,5268.4006,-1.25215,0.85418,2.39402
10.3943,5268.4206,-1.66754,0.82058,3.03604
10.4122,5268.4407,-1.64738,0.03928,3.69517
10.4311,5268.4607,-0.81661,0.03623,3.80146
10.4533,5268.4807,0.02395,1.03255,3.88453
10.478,5268.5008,0.73377,1.20542,3.94257
10.4963,5268.5208,1.48269,0.72162,3.80818
10.5178,5268.5408,1.53095,-0.14092,3.42761
10.5327,5268.5608,1.1742,-0.5502,3.58765
10.5529,5268.5809,0.74538,-0.36083,4.00732
10.5767,5268.6009,0.41673,-0.46224,4.36101
10.5926,5268.6209,0.39169,-0.65771,3.95784
10.6141,5268.641,0.70995,-1.30035,3.53878
10.6363,5268.661,0.74965,-1.53858,3.98227
10.6558,5268.681,0.00318,-0.90145,5.16674
10.6813,5268.7011,-0.99864,0.046,5.00547
10.703,5268.7212,-1.58324,-0.17819,4.41965
10.7134,5268.7412,-1.42747,-1.33578,3.4496
10.7378,5268.7613,-0.47574,-2.58377,2.07393
10.7565,5268.7814,0.56884,-3.21235,1.25293
10.78,5268.8014,0.74232,-2.43411,1.1222
10.8005,5268.8215,0.32327,-1.30096,0.86197
10.815,5268.8415,0.11802,-0.70536,-0.00423
10.8334,5268.8616,0.35687,-0.31319,-1.06958
10.8533,5268.8817,0.68063,-0.34862,-1.93762
10.878,5268.9017,1.09846,-0.42498,-2.81055
10.8972,5268.9218,1.36418,-0.33945,-3.55642
10.9159,5268.9418,1.13205,-0.45185,-4.19599
10.9405,5268.9618,0.76309,-0.6962,-5.22408
10.9659,5268.9818,0.36298,-0.55509,-5.67612
10.9779,5269.0019,0.09908,-0.14337,-5.30166
10.998,5269.0219,0.23225,0.27691,-4.50753
11.0125,5269.0419,0.24141,0.26469,-4.09214
11.0359,5269.062,0.38863,-0.54715,-4.1966
11.0595,5269.082,1.0838,-1.07249,-4.5619
11.0875,5269.102,1.5114,-1.19283,-4.68346
11.1023,5269.122,1.43627,-1.00285,-4.61871
11.1148,5269.1421,1.18459,-0.83914,-4.33466
11.1356,5269.1621,0.81502,-0.7805,-4.47394
11.1564,5269.1821,0.49187,-0.73896,-4.75616
11.1755,5269.2022,-0.06402,-1.42557,-3.8423
11.1935,5269.2222,-0.44886,-1.07371,-3.31696
11.2161,5269.2422,-0.84287,-1.03462,-3.06772
11.2364,5269.2622,-0.99437,-1.65953,-2.54177
11.2615,5269.2822,-0.91862,-1.06822,-1.96145
11.2784,5269.3022,-1.82453,0.48277,-0.75621
11.3083,5269.3223,-3.09697,0.32089,1.11792
11.3221,5269.3423,-2.63882,-0.34801,1.07272
11.3362,5269.3623,-1.64372,-0.03952,0.96826
11.3558,5269.3823,-2.23748,0.79859,1.43252
11.375,5269.4024,-3.04749,1.68679,1.47345
11.3929,5269.4224,-3.08841,1.21947,1.33845
11.4142,5269.4424,-2.07987,1.06798,1.22788
11.4327,5269.4625,-1.49161,1.32576,1.44352
11.4527,5269.4825,-1.41586,1.6257,1.97986
11.4782,5269.5025,-1.59424,1.82301,2.32377
11.4955,5269.5225,-1.23688,0.31723,2.21076
11.5174,5269.5426,0.33182,-0.06273,1.37632
11.5389,5269.5626,0.84128,0.34227,1.18084
11.5535,5269.5826,0.36481,0.76194,1.48322
11.5756,5269.6027,0.15345,0.67031,1.87051
11.5979,5269.6227,0.60793,0.26103,2.09287
11.6157,5269.6427,1.43749,0.24514,1.68236
11.633,5269.6627,1.7136,0.64282,0.88641
11.6583,5269.6828,1.51079,0.743,0.52233
11.6774,5269.7028,1.53217,0.78026,0.80577
11.6948,5269.7228,1.51079,0.76988,1.53515
11.7271,5269.7429,1.38679,0.64221,2.49482
11.7332,5269.7629,1.16077,0.57135,3.10263
11.7533,5269.7829,1.00133,0.15168,2.96091
11.7768,5269.8029,1.12411,-0.38283,2.44167
11.7987,5269.823,1.12534,-0.46163,2.16128
11.8132,5269.843,0.74232,0.19994,2.38181
11.8369,5269.863,0.00562,1.07531,2.84301
11.8567,5269.8831,-0.48674,1.19137,3.05376
11.8765,5269.9031,-0.49773,0.82424,2.76543
11.9033,5269.9231,-0.39816,0.49132,2.22298
11.9182,5269.9431,-0.57287,0.55485,1.96031
11.9655,5269.9631,-0.8331,0.63182,2.19916
11.9682,5269.9831,-0.83982,0.12358,2.1509
11.9741,5270.0031,-0.46597,-0.54409,1.12587
11.9923,5270.0231,-0.13977,-1.18917,0.11366
12.0132,5270.043,-0.19597,-0.90267,-0.07937
12.0323,5270.063,-0.78789,-0.18552,-0.08426
12.0533,5270.083,-1.23138,-0.3193,-0.43306
12.0741,5270.103,-1.03896,-1.12136,-1.17526
12.0943,5270.123,-0.4959,-1.55935,-1.52285
12.1129,5270.143,-0.31203,-1.6522,-1.6047
12.1374,5270.163,-0.32608,-1.26553,-1.48558
12.1541,5270.183,-0.41221,-0.95643,-1.68228
12.1757,5270.203,-0.21979,-1.35471,-1.9138
12.1975,5270.223,0.34954,-1.87822,-2.25466
12.2195,5270.243,0.69956,-1.68458,-2.45747
12.2443,5270.263,0.57128,-1.48055,-2.521
12.2668,5270.283,0.4601,-1.62533,-2.60102
12.282,5270.303,0.4204,-1.73834,-2.55276
12.2941,5270.323,0.32693,-1.81103,-2.53444
12.3211,5270.343,0.34221,-1.83058,-2.66822
12.3408,5270.363,0.443,-1.63021,-2.62973
12.3554,5270.383,0.37336,-1.46467,-2.29926
12.3762,5270.403,0.15345,-1.39625,-1.89853
12.3926,5270.423,-0.07563,-1.35288,-1.6157
12.4138,5270.4429,-0.22407,-1.27408,-1.48436
12.4383,5270.4629,-0.39205,-0.84525,-1.3964
12.4531,5270.4829,-0.76713,-0.46224,-1.32004
12.4731,5270.5029,-1.05545,-0.21484,-1.23024
12.5211,5270.5229,-1.21855,-0.01508,-0.89732
12.527,5270.5429,-1.40792,0.18345,-0.36159
12.5473,5270.5629,-1.61745,0.44673,-0.01951
12.5577,5270.5829,-1.72618,0.72223,0.22667
12.5748,5270.6029,-1.65349,1.09852,0.70315
12.5934,5270.6229,-1.58752,1.46565,1.37693
12.6174,5270.6429,-1.24727,1.23475,1.67015
12.6338,5270.6629,-0.47635,0.8951,1.4594
12.6527,5270.6829,-0.02004,1.09791,1.02691
12.6759,5270.7029,-0.17214,1.78941,0.66955
12.6946,5270.7229,-0.31631,2.261,0.66527
12.7136,5270.7429,-0.12083,2.15654,0.91878
12.7368,5270.7629,0.31716,1.46749,1.17046
12.7559,5270.7829,1.28538,0.68069,0.96948
12.7794,5270.8029,1.93779,0.63915,0.75324
12.7968,5270.8229,1.81561,0.89449,0.92184
12.8149,5270.8429,1.21574,1.41067,1.05684
12.8335,5270.8628,0.59266,1.68007,1.358
12.8577,5270.8828,0.44239,1.38013,1.64999
12.8787,5270.9028,0.64947,0.67397,1.62067
12.8991,5270.9228,1.0447,0.21094,1.30668
12.921,5270.9428,1.31287,0.60922,1.20222
12.9426,5270.9628,1.17909,1.0075,1.45696
12.9543,5270.9828,0.9152,1.2714,1.75078
12.976,5271.0028,0.45338,1.36181,1.83386
12.9944,5271.0228,0.0099,1.19687,1.64083
13.0169,5271.0428,0.11069,0.97635,1.2682
13.0352,5271.0628,0.2854,1.3276,1.07394
13.0575,5271.0828,-0.02553,1.57378,1.12953
13.0759,5271.1028,-0.39083,1.1028,1.17351
13.0968,5271.1228,-0.26683,0.13519,0.98353
13.1143,5271.1428,0.22675,-0.21911,0.71475
13.1362,5271.1628,0.11191,0.07532,0.67871
13.1646,5271.1828,-0.46658,0.60433,0.59502
13.1811,5271.2028,-0.98154,0.69169,0.40382
13.1945,5271.2228,-1.03835,0.31967,0.35923
13.215,5271.2428,-1.01758,-0.22217,0.29937
13.2349,5271.2627,-0.86181,-0.54104,0.08129
13.2582,5271.2827,-0.40855,-0.68459,-0.19849
13.2844,5271.3027,0.02761,-1.15496,-0.2327
13.3097,5271.3227,0.16444,-1.48177,-0.22354
13.3149,5271.3427,0.02089,-1.67297,-0.33777
13.3394,5271.3627,-0.10983,-1.83913,-0.44345
13.353,5271.3827,-0.02859,-2.17999,-0.60655
13.3733,5271.4027,0.45705,-2.54834,-0.93092
13.3999,5271.4227,0.75515,-2.28811,-1.15266
13.4124,5271.4427,0.62809,-1.89777,-1.24185
13.4343,5271.4627,0.47415,-1.72184,-1.41228
13.4549,5271.4827,0.21515,-1.62716,-1.51918
13.4738,5271.5027,0.01967,-1.66809,-1.68289
13.4922,5271.5227,0.06182,-1.59356,-1.66579
13.5141,5271.5427,0.33915,-1.50804,-1.53506
13.5322,5271.5627,0.59205,-1.41519,-1.43549
13.5514,5271.5827,0.57678,-1.46772,-1.34081
13.5745,5271.6027,0.45277,-1.607,-1.27056
13.5947,5271.6227,0.26707,-1.62349,-1.17221
13.6158,5271.6427,0.06915,-1.25087,-1.23879
13.637,5271.6626,-0.30226,-0.83731,-1.3799
13.659,5271.6826,-0.73169,-0.47262,-1.30843
13.686,5271.7026,-1.0414,-0.24294,-1.04881
13.706,5271.7226,-1.11471,-0.20079,-0.83868
13.7158,5271.7426,-1.09638,-0.22828,-0.71956
13.7329,5271.7626,-1.21428,-0.17208,-0.51186
13.7547,5271.7826,-1.46779,0.13824,-0.10136
13.7729,5271.8026,-1.74207,0.52614,0.23217
13.7961,5271.8226,-1.86424,0.85662,0.5657
13.8163,5271.8426,-1.72924,1.01667,0.81921
13.8371,5271.8626,-1.37188,1.013,0.85831
13.8648,5271.8826,-0.93389,1.19443,0.83571
13.8805,5271.9026,-0.53988,1.4626,0.85098
13.9002,5271.9226,-0.33585,1.75032,0.91023
13.9194,5271.9426,-0.18436,2.03681,0.96338
13.9386,5271.9626,0.14795,1.84317,0.78745
13.9722,5271.9826,0.57067,1.27812,0.68055
13.9735,5272.0026,0.85839,0.96413,0.7288
13.9932,5272.0226,1.0673,0.92504,0.83876
14.0128,5272.0426,1.3257,1.04904,0.90534
14.0326,5272.0626,1.17482,1.18343,0.74102
14.0557,5272.0825,0.80952,1.23658,0.49362
14.0759,5272.1025,0.60549,1.14739,0.4307
14.096,5272.1225,0.68124,1.0466,0.6164
14.1162,5272.1425,1.11862,0.98429,0.99636
14.1332,5272.1625,1.40511,1.01117,1.31829
14.1528,5272.1825,1.11617,0.93542,1.13197
14.1874,5272.2025,0.86694,0.91832,0.96765
14.1967,5272.2225,0.67207,1.00017,1.05989
14.2173,5272.2425,0.29822,1.21581,1.27186
14.2397,5272.2625,-0.09762,1.28667,1.45207
14.2667,5272.2825,-0.27416,1.03255,1.45696
14.2766,5272.3025,-0.13854,0.83157,1.43313
14.2955,5272.3225,0.03922,1.07836,1.57668
14.3122,5272.3425,-0.12449,1.31294,1.58463
14.3372,5272.3625,-0.22407,0.95741,1.52232
14.3577,5272.3825,-0.09762,0.35449,1.25415
14.3763,5272.4025,-0.10189,0.35449,0.88396
14.393,5272.4226,-0.42932,0.76438,0.73674
14.4157,5272.4426,-0.71154,0.67214,0.64634
14.4329,5272.4626,-0.58753,-0.15009,0.41848
14.4552,5272.4826,-0.32791,-0.7524,0.11733
14.4777,5272.5027,-0.4959,-0.90634,-0.17283
14.4927,5272.5227,-0.76468,-0.71208,-0.35731
14.5128,5272.5427,-0.74391,-0.70597,-0.45933
14.5346,5272.5628,-0.50506,-1.14457,-0.48193
14.5531,5272.5828,-0.32242,-1.58928,-0.48987
14.5732,5272.6028,-0.24911,-1.8318,-0.57051
14.5956,5272.6228,-0.05547,-1.92404,-0.68046
14.6192,5272.6429,-0.0402,-1.94359,-0.78553
14.6369,5272.6629,-0.08296,-1.8373,-1.01766
14.656,5272.6829,-0.04753,-1.64426,-1.23452
14.6782,5272.703,0.11496,-1.54836,-1.21314
14.7107,5272.723,0.47965,-1.71634,-1.12395
14.7213,5272.743,0.77409,-1.84951,-1.20886
14.7352,5272.763,0.80402,-1.84585,-1.29438
14.7552,5272.7831,0.81563,-1.89105,-1.27545
14.776,5272.8031,0.86388,-2.05843,-1.23391
14.7948,5272.8231,0.93658,-2.26857,-1.17771
14.8145,5272.8432,0.94635,-2.38585,-1.15327
14.8377,5272.8632,0.88465,-2.39074,-1.13556
14.8574,5272.8832,0.6513,-2.24047,-1.14961
14.883,5272.9032,0.22614,-1.81408,-1.24185
14.9003,5272.9233,-0.34013,-1.16168,-1.30416
14.9221,5272.9433,-0.80256,-0.61984,-1.31271
14.9387,5272.9633,-1.03407,-0.34068,-1.21253
14.9571,5272.9833,-1.19351,-0.00837,-1.1661
14.9873,5273.0033,-1.56675,0.48521,-1.33042
14.9955,5273.0233,-1.77811,0.24392,-1.61203
15.0168,5273.0433,-1.65105,0.0967,-1.71344
15.0354,5273.0633,-1.85324,1.03744,-1.76964
15.0548,5273.0833,-2.38409,1.7155,-1.50696
15.0752,5273.1033,-2.2442,1.30561,-0.83074
15.0951,5273.1233,-1.92838,0.54752,-0.182
15.1128,5273.1433,-1.76711,0.21399,0.35434
15.1397,5273.1633,-1.44763,0.43329,0.7734
15.1576,5273.1833,-1.15502,0.96963,0.96093
15.1738,5273.2033,-1.20817,1.55728,0.94872
15.1956,5273.2233,-1.39509,2.115,0.99331
15.2154,5273.2433,-1.29858,2.35324,1.16191
15.2427,5273.2633,-0.78851,2.06369,1.29263
15.2788,5273.2833,-0.30165,1.70756,1.3189
15.2865,5273.3033,-0.17275,1.64952,1.33845
15.3002,5273.3233,0.01661,1.61898,1.55103
15.3223,5273.3433,0.50042,1.56217,1.66282
15.3485,5273.3633,0.97323,1.46321,1.48689
15.3581,5273.3834,1.14183,1.32454,1.12403
15.3804,5273.4034,1.0447,1.22192,0.83143
15.3977,5273.4234,0.90787,1.04171,0.78928
15.414,5273.4435,0.89504,0.74728,0.90107
15.4368,5273.4635,0.84189,0.82119,0.99025
15.4551,5273.4835,0.88771,1.18038,1.17596
15.4788,5273.5035,1.18459,1.07714,1.33723
15.5008,5273.5236,1.41,0.53592,1.17657
15.5186,5273.5436,1.20902,0.57135,1.13808
15.5349,5273.5636,0.61771,1.20909,1.28408
15.5644,5273.5837,-0.00599,1.84256,1.8192
15.5796,5273.6037,-0.6309,2.30437,2.59561
15.5956,5273.6237,-1.12021,2.1596,2.55468
15.6161,5273.6437,-1.14525,1.53896,1.91877
15.6347,5273.6638,-1.01086,1.42411,1.90838
15.6633,5273.6838,-1.28025,2.06491,2.12158
15.6778,5273.7038,-1.62173,2.09668,1.86868
15.6976,5273.7238,-1.44824,1.20848,1.20711
15.7134,5273.7439,-0.68588,0.35571,0.58525
15.736,5273.7639,-0.23445,0.17489,0.3067
15.765,5273.7839,-0.2821,-0.01508,0.16742
15.7766,5273.804,-0.21551,-0.32357,0.02936
15.7963,5273.824,0.14123,-0.88251,-0.07693
15.8171,5273.844,0.37092,-1.37609,-0.40435
15.8365,5273.8641,0.15956,-1.28019,-0.76537
15.8571,5273.8841,-0.18497,-1.00713,-0.86311
15.8808,5273.9042,-0.08784,-1.23682,-0.82402
15.9005,5273.9242,0.13329,-1.84646,-0.78736
15.9182,5273.9443,0.26402,-2.38952,-0.75804
15.9506,5273.9643,0.45705,-2.67113,-0.73666
15.9598,5273.9843,0.69529,-2.6754,-0.8735
15.9768,5274.0043,0.74843,-2.48909,-0.91809
15.9941,5274.0244,0.78569,-2.293,-0.88938
16.0162,5274.0444,0.93841,-2.36142,-0.87472
16.0366,5274.0644,1.06975,-2.24535,-1.05187
16.0597,5274.0845,0.90909,-1.95703,-1.17465
16.0777,5274.1045,0.68368,-1.79698,-1.36707
16.098,5274.1245,0.56456,-1.84157,-1.50391
16.1155,5274.1445,0.55967,-1.89288,-1.64624
16.1356,5274.1646,0.67513,-1.87273,-1.79468
16.1582,5274.1846,0.73805,-1.87945,-1.8967
16.1777,5274.2046,0.60915,-1.95458,-1.78979
16.1963,5274.2247,0.44117,-1.86417,-1.56866
16.2181,5274.2447,0.29212,-1.51232,-1.47153
16.2371,5274.2647,-0.11167,-1.24537,-1.57721
16.2616,5274.2847,-0.7152,-0.98697,-1.71221
16.2814,5274.3048,-1.27598,-0.76034,-1.71221
16.3043,5274.3248,-1.64616,-0.51783,-1.46604
16.3278,5274.3448,-1.85447,-0.0609,-1.3011
16.3367,5274.3649,-2.31078,0.26286,-1.127
16.3582,5274.3849,-2.37859,0.37465,-0.78064
16.3756,5274.4049,-2.13424,0.42535,-0.19421
16.3973,5274.4249,-1.68037,0.5744,0.43925
16.4144,5274.445,-1.33706,0.91893,0.7453
16.4381,5274.465,-1.30713,1.02827,0.77828
16.4659,5274.485,-1.03591,1.09302,1.08738
16.4772,5274.505,-0.37067,1.09913,1.37938
16.4953,5274.525,0.3642,1.14861,1.31401
16.5175,5274.5449,0.6678,1.38257,1.01408
16.5359,5274.5649,0.41429,1.34409,0.68604
16.5552,5274.5849,0.01906,1.2268,0.40321
16.5799,5274.6049,0.0832,1.28667,0.35129
16.5983,5274.6249,0.5108,1.16511,0.38366
16.6282,5274.6449,1.11678,1.08692,0.57242
16.6409,5274.6649,1.43382,1.03499,0.61457
16.6581,5274.6849,1.43443,0.78148,0.45636
16.6838,5274.7049,1.23101,0.78026,0.4026
16.7021,5274.7249,0.8926,0.86884,0.60969
16.7216,5274.7449,0.77103,0.97391,0.88091
16.7384,5274.7649,0.67513,1.08692,0.95238
16.7582,5274.7849,0.5328,0.85112,0.84731
16.7759,5274.8049,0.48026,0.85479,0.8803
16.8005,5274.8249,0.11741,1.36547,1.13625
16.8187,5274.8449,-0.1471,1.58477,1.18634
16.8351,5274.8649,-0.34013,1.64525,1.38671
16.8565,5274.8849,-0.5747,1.45588,1.70069
16.8781,5274.9049,-0.75918,1.02216,2.0892
16.8971,5274.9249,-0.91007,0.71001,2.30972
16.9167,5274.9449,-1.03224,0.42046,2.27429
16.9369,5274.9648,-1.05484,0.18284,2.17106
16.9601,5274.9848,-1.15319,0.22376,2.12952
16.983,5275.0048,-1.2827,0.45956,2.16739
17.0083,5275.0248,-1.26681,0.68924,1.87234
17.02,5275.0448,-1.05912,0.44978,1.31218
17.035,5275.0648,-0.66083,-0.13298,0.92123
17.0581,5275.0848,-0.15504,-0.4152,0.5205
17.0748,5275.1048,0.05205,-0.07556,0.33785
17.0957,5275.1248,-0.34196,0.01973,0.21873
17.1172,5275.1448,-0.37251,-0.5667,-0.00301
17.1349,5275.1648,0.12352,-1.23926,-0.20521
17.1554,5275.1848,0.20293,-1.64304,-0.28401
17.1771,5275.2048,-0.0347,-1.63388,-0.23881
17.1968,5275.2248,-0.19719,-1.51476,-0.11175
17.2228,5275.2448,-0.1752,-1.68702,-0.00362
17.2447,5275.2648,-0.06524,-2.05293,-0.38419
17.2696,5275.2848,0.03372,-2.03888,-0.86006
17.279,5275.3048,-0.07929,-1.71451,-1.01766
17.3044,5275.3248,0.038,-1.61189,-1.00117
17.333,5275.3447,0.3196,-1.79698,-1.01888
17.3371,5275.3647,0.53402,-2.14823,-1.25773
17.357,5275.3847,0.76065,-2.36569,-1.67739
17.3808,5275.4047,0.75576,-2.2087,-1.97244
17.3953,5275.4247,0.51814,-1.79209,-2.20213
17.4168,5275.4447,0.19315,-1.22704,-2.32797
17.4373,5275.4647,-0.04386,-0.63389,-2.37012
17.4563,5275.4847,-0.03653,-0.45369,-2.35423
17.4779,5275.5047,0.23958,-0.69376,-2.42876
17.4945,5275.5247,0.4992,-0.9265,-2.34568
17.5147,5275.5447,0.43567,-1.06516,-2.0598
17.5359,5275.5647,0.05876,-1.03889,-1.6945
17.5542,5275.5847,-0.46475,-0.87457,-1.44527
17.5748,5275.6047,-0.96749,-0.75851,-1.38784
17.5982,5275.6247,-1.23993,-0.83181,-1.22658
17.616,5275.6447,-1.26742,-0.71819,-1.05004
17.634,5275.6647,-1.36944,-0.11527,-0.81607
17.6585,5275.6847,-1.70541,0.44429,-0.52591
17.6798,5275.7047,-2.15012,0.6532,-0.30356
17.7054,5275.7247,-2.22893,0.73261,-0.0867
17.717,5275.7447,-2.02245,0.81019,0.22789
17.7354,5275.7646,-1.75306,0.81569,0.51744
17.7551,5275.7846,-1.3615,0.59883,0.71292
17.7796,5275.8046,-0.73597,0.29768,0.83815
17.7999,5275.8246,-0.17703,0.25064,0.93772
17.815,5275.8446,-0.09762,0.36915,1.05501
17.8397,5275.8646,-0.34502,0.56707,1.25232
17.8569,5275.8846,-0.05547,0.49621,1.10693
17.8754,5275.9046,0.61832,0.89572,0.89985
17.8995,5275.9246,1.08013,1.66968,0.86014
17.9157,5275.9446,1.02393,1.99711,0.96765
17.966,5275.9646,0.70262,1.85172,1.19062
17.9697,5275.9846,0.57433,1.40396,1.25842
17.9782,5276.0046,0.73377,0.71246,0.90351
17.9958,5276.0246,0.88771,0.43329,0.37572
18.0201,5276.0446,0.86572,1.06554,0.26332
18.0335,5276.0646,0.98667,1.54445,0.54371
18.0543,5276.0846,1.2524,1.47298,0.8467
18.0763,5276.1046,1.21513,1.2549,1.11059
18.0946,5276.1246,0.93536,0.99956,1.23032
18.1174,5276.1446,0.65802,0.75461,1.40931
18.1378,5276.1646,0.47904,0.69657,1.53576
18.1542,5276.1845,0.22125,0.95863,1.60662
18.1778,5276.2045,-0.13488,1.19015,1.57241
18.1985,5276.2245,-0.47208,1.13823,1.48139
18.215,5276.2445,-0.73475,1.04782,1.58279
18.2355,5276.2645,-0.72436,0.9513,1.75872
18.2707,5276.2845,-0.50751,0.60739,1.82897
18.2854,5276.3045,-0.30104,0.08876,1.50949
18.3044,5276.3245,-0.12022,-0.43353,0.99086
18.3207,5276.3445,-0.16481,-0.43475,0.63473
18.3339,5276.3645,-0.4452,-0.09694,0.43437
18.3529,5276.3845,-0.77262,0.20788,0.0819
18.3765,5276.4045,-1.09577,0.00385,-0.26202
18.3935,5276.4245,-1.03957,-0.53127,-0.47582
18.4147,5276.4445,-0.7378,-0.87885,-0.60166
18.4384,5276.4645,-0.63945,-0.85258,-0.60227
18.4613,5276.4845,-0.7152,-0.76889,-0.6322
18.4766,5276.5045,-0.62052,-1.05233,-0.69451
18.4978,5276.5245,-0.25094,-1.40908,-0.68535
18.5231,5276.5445,-0.07501,-1.61861,-0.65664
18.5358,5276.5645,-0.03714,-1.72306,-0.72933
18.5581,5276.5844,0.09481,-1.66809,-0.91748
18.5778,5276.6044,0.15589,-1.55874,-1.01644
18.597,5276.6244,0.2744,-1.5563,-1.05859
18.6167,5276.6444,0.46743,-1.64548,-1.15999
18.6373,5276.6644,0.64825,-1.68153,-1.32676
18.6549,5276.6844,0.72216,-1.58684,-1.40984
18.6781,5276.7044,0.63359,-1.33761,-1.4807
18.697,5276.7244,0.42101,-1.08593,-1.59615
18.7187,5276.7444,0.20415,-0.85014,-1.70549
18.7393,5276.7644,0.09908,-0.7188,-1.78307
18.7562,5276.7844,0.08381,-0.70109,-1.83133
18.7819,5276.8044,0.11924,-0.79882,-1.71649
18.7976,5276.8244,0.2127,-0.90695,-1.565
18.8144,5276.8444,0.16933,-0.91,-1.51002
18.8345,5276.8644,-0.10067,-0.82387,-1.40373
18.8562,5276.8844,-0.45253,-0.87885,-1.20153
18.8742,5276.9044,-0.53255,-0.80799,-1.12029
18.8977,5276.9244,-0.70176,-0.36939,-0.98712
18.9167,5276.9444,-1.221,0.06738,-0.73666
18.934,5276.9644,-1.58935,0.26225,-0.51309
18.9546,5276.9844,-1.52399,0.46017,-0.20949
18.9775,5277.0043,-1.59179,0.79431,0.02753
18.9959,5277.0243,-1.8844,1.04171,0.20163
19.0177,5277.0443,-1.76345,1.03499,0.70193
19.0367,5277.0643,-0.95405,0.57868,1.05501
19.0547,5277.0843,-0.11472,0.45101,1.2798
19.075,5277.1043,0.07281,0.71307,1.34578
19.0965,5277.1243,-0.11106,1.06798,1.26698
19.1143,5277.1443,-0.24056,1.35081,1.201
19.1364,5277.1643,-0.05363,1.34104,1.06539
19.1585,5277.1843,0.15345,1.3111,0.92123
19.1752,5277.2043,0.12474,1.48398,0.71231
19.1934,5277.2243,0.10091,1.76314,0.56082
19.2157,5277.2443,0.3306,1.82301,0.71536
19.2323,5277.2643,0.77164,1.5078,0.99758
19.2576,5277.2843,1.24262,1.09791,1.10998
19.2772,5277.3043,1.63235,0.79553,0.88396
19.3035,5277.3243,1.56271,0.56951,0.71292
19.3172,5277.3443,1.20475,0.6978,0.64756
19.3407,5277.3643,0.64275,1.24941,0.59564
19.3544,5277.3842,0.589,1.58355,0.76851
19.3745,5277.4042,0.72339,1.50475,1.11059
19.3952,5277.4242,0.94452,1.09302,1.29019
19.4165,5277.4442,1.1064,0.60861,1.26759
19.4379,5277.4642,0.90665,0.61411,1.40809
19.4607,5277.4842,0.36542,0.89083,1.6396
19.4783,5277.5042,0.00928,1.20665,1.75811
19.4942,5277.5242,-0.02553,0.97513,1.66526
19.5173,5277.5442,0.07159,0.50476,1.58218
19.5376,5277.5642,0.03861,0.25431,1.49605
19.5672,5277.5842,-0.05669,0.32395,1.33173
19.5787,5277.6042,-0.1923,0.37098,1.15274
19.5985,5277.6242,-0.28943,0.20238,0.8693
19.6229,5277.6442,-0.42076,0.0008,0.61152
19.6433,5277.6642,-0.6926,-0.20445,0.40138
19.6623,5277.6842,-0.89113,-0.4488,0.31952
19.6817,5277.7042,-0.73414,-0.83364,0.0935
19.6972,5277.7242,-0.46719,-1.01874,-0.14229
19.7152,5277.7442,-0.70298,-0.73224,-0.26141
19.743,5277.7642,-0.97177,-0.86663,-0.29806
19.7565,5277.7841,-0.71215,-1.21788,-0.30478
19.7798,5277.8041,-0.47269,-1.22765,-0.33777
19.7972,5277.8241,-0.49773,-1.17145,-0.45872
19.8158,5277.8441,-0.37128,-1.17756,-0.6432
19.8347,5277.8641,-0.05913,-1.2924,-0.75743
19.8561,5277.8841,0.19682,-1.45367,-0.84112
19.8805,5277.9041,0.25302,-1.59723,-0.95535
19.894,5277.9241,0.27135,-1.68336,-1.11784
19.9143,5277.9441,0.38863,-1.73711,-1.36341
19.9766,5277.9641,0.42712,-1.6687,-1.54117
19.9779,5277.9841,0.33915,-1.4836,-1.74642
19.9796,5278.0041,0.16017,-1.24231,-1.87654
19.9954,5278.0241,0.08259,-1.07066,-1.89975
20.0125,5278.0441,0.13757,-1.10914,-1.86004
20.0331,5278.0641,0.27196,-1.10731,-1.86065
20.0565,5278.0841,0.18338,-1.00591,-1.80079
20.0766,5278.1041,-0.0121,-1.03584,-1.71405
20.095,5278.1241,-0.01576,-1.43046,-1.62242
20.1165,5278.1441,0.17422,-1.69741,-1.56438
20.1384,5278.1641,0.04533,-1.45489,-1.43732
20.1574,5278.1841,-0.46841,-0.94604,-1.2614
20.177,5278.2041,-0.96077,-0.70292,-1.10074
20.1961,5278.2241,-1.09516,-0.63817,-0.95046
20.2208,5278.2441,-0.94061,-0.64733,-0.6884
20.2409,5278.2641,-0.79461,-0.56547,-0.32983
20.2613,5278.2842,-0.9455,-0.2295,0.03181
20.2803,5278.3042,-1.19534,0.1413,0.30425
20.3224,5278.3242,-1.34439,0.39908,0.4417
20.3308,5278.3443,-1.33584,0.62205,0.37939
20.3381,5278.3643,-1.44641,1.00995,0.39466
20.3576,5278.3843,-1.71641,1.39418,0.61335
20.3762,5278.4043,-1.73718,1.39968,0.95788
20.3941,5278.4244,-0.9455,0.90793,1.26575
20.4169,5278.4444,-0.19108,0.65687,1.15152
20.435,5278.4644,0.09297,1.0466,1.0886
20.4554,5278.4845,0.04288,1.52552,1.17535
20.4773,5278.5045,-0.01026,1.62692,1.30729
20.5045,5278.5245,0.18644,1.43389,1.22299
20.5211,5278.5445,0.45461,1.20665,0.94566
20.5419,5278.5646,0.56151,1.08814,0.75874
20.5562,5278.5846,0.47049,1.03316,0.7624
20.5791,5278.6046,0.34282,0.74544,0.85403
20.6033,5278.6247,0.26524,0.26897,0.88702
20.6229,5278.6447,0.18094,-0.06456,1.1051
20.642,5278.6647,0.05388,-0.05235,1.42702
20.6591,5278.6847,0.04838,0.22682,1.81981
20.679,5278.7048,0.12291,0.37037,2.33477
20.7036,5278.7248,-0.05608,0.04906,2.03789
20.7212,5278.7448,-0.6083,-0.32724,1.14541
20.7377,5278.7649,-0.94183,-0.55326,0.38428
20.7588,5278.7849,-1.56186,0.49987,0.0257
20.7794,5278.8049,-3.17455,2.13822,-0.41351
20.7982,5278.8249,-4.27716,3.12782,-0.84784
20.816,5278.8449,-4.76829,3.49189,-1.37624
20.8387,5278.8649,-4.64978,3.56031,-1.70488
20.8677,5278.8849,-4.4763,2.97632,-1.75436
20.8864,5278.9049,-4.39017,1.9293,-1.8802
20.9078,5278.9249,-4.38345,1.22436,-2.116
20.9159,5278.9449,-4.28388,0.78942,-2.09217
20.9349,5278.9649,-3.91125,0.19872,-1.91319
20.9589,5278.9849,-3.3914,-0.70353,-1.65174
20.9792,5279.0049,-2.93753,-1.3034,-1.35364
20.9997,5279.0249,-2.72495,-1.53186,-1.17526
21.0275,5279.0448,-2.35171,-1.35532,-0.97307
21.0356,5279.0648,-1.27353,-0.6571,-0.50453
21.0571,5279.0848,0.35748,-0.1452,0.2847
21.0772,5279.1048,1.89686,0.10403,0.67688
21.0987,5279.1248,2.49734,0.3942,0.57609
21.1164,5279.1448,2.74902,0.10342,0.38916
21.1378,5279.1648,3.39348,-0.07006,0.28409
21.1593,5279.1848,3.52542,0.40947,0.39771
21.179,5279.2048,3.47167,0.58845,0.64145
21.1995,5279.2248,3.42769,0.41496,0.87785
21.2199,5279.2448,3.64454,0.20605,1.13869
21.2547,5279.2648,3.93898,-0.34556,1.27858
21.2744,5279.2848,4.14973,-0.61679,1.1839
21.2864,5279.3048,4.38919,-0.89595,1.2627
21.3048,5279.3248,4.60177,-1.16046,1.30241
21.3261,5279.3448,4.39163,-1.11098,1.47834
21.35,5279.3648,3.73556,-0.88557,2.02628
21.3559,5279.3848,2.94144,-0.14886,2.89799
21.3797,5279.4048,2.00926,0.90305,4.28526
21.3957,5279.4248,0.92008,1.48642,5.3109
21.4152,5279.4449,0.14978,1.44672,5.95537
21.4369,5279.4649,-0.12327,1.09791,7.1942
21.4556,5279.4849,-0.19169,0.72956,7.90464
21.4755,5279.5049,-0.22651,0.30012,8.27665
21.4976,5279.525,-0.18008,-0.43108,8.53016
21.5149,5279.545,-0.08723,-0.73896,8.68655
21.5373,5279.565,-0.09212,-0.8367,8.28337
21.5609,5279.5851,-0.15748,-0.43903,7.69694
21.5809,5279.6051,-0.33036,0.181,7.03599
21.5967,5279.6251,-0.75796,0.40886,5.87779
21.6182,5279.6451,-1.33156,-0.13115,4.61391
21.6358,5279.6652,-1.89356,-0.36328,3.43372
21.6566,5279.6852,-1.95281,0.1077,2.13868
21.6818,5279.7052,-1.7665,0.62266,1.06661
21.6974,5279.7253,-1.25643,0.78576,-0.10075
21.7155,5279.7453,-0.41221,0.41619,-1.28278
21.7377,5279.7653,0.51936,-0.1959,-2.44342
21.7571,5279.7853,1.07219,-0.65771,-3.61628
21.7769,5279.8054,1.03676,-0.49706,-4.70118
21.7989,5279.8254,0.82051,-0.54043,-5.53195
21.8161,5279.8454,0.94208,-1.58012,-6.22651
21.8368,5279.8655,0.95551,-2.3663,-6.31875
21.865,5279.8855,0.56945,-2.7597,-6.34318
21.8814,5279.9055,-0.0066,-2.8159,-6.37067
21.8954,5279.9255,-0.63518,-2.95579,-6.37922
21.9199,5279.9456,-1.1819,-2.97778,-6.37312
21.938,5279.9656,-1.65288,-2.4054,-6.02737
21.9899,5279.9856,-2.20266,-1.09693,-5.03593
21.9924,5280.0056,-2.69502,0.49071,-3.75189
21.9944,5280.0256,-3.07497,0.90305,-2.9089
22.0152,5280.0456,-3.34253,0.38259,-3.19784
22.0366,5280.0656,-3.53373,-0.1623,-3.86246
22.0572,5280.0856,-3.88804,-0.65894,-4.18439
22.078,5280.1056,-4.22523,-1.20994,-4.15079
22.0975,5280.1256,-4.6058,-2.18427,-4.10314
22.1166,5280.1456,-4.91307,-1.95641,-3.93882
22.1395,5280.1656,-5.0328,-1.39197,-3.48556
22.1626,5280.1856,-5.14886,-2.30949,-2.91195
22.1772,5280.2056,-5.12076,-3.47503,-2.96082
22.1972,5280.2256,-4.67849,-2.10913,-4.21615
22.2187,5280.2456,-4.14826,-1.51903,-4.63887
22.2363,5280.2655,-3.18798,-0.34984,-3.1337
22.266,5280.2855,-2.52458,0.31234,-1.15999
22.2825,5280.3055,-2.61683,0.72284,-0.15634
22.3266,5280.3255,-3.33276,0.84196,0.38855
22.33,5280.3455,-2.81597,0.89572,1.03851
22.3383,5280.3655,-1.44274,0.8047,1.58279
22.3564,5280.3855,-0.02981,1.11135,1.91144
22.375,5280.4055,0.44056,1.75093,1.80454
22.3973,5280.4255,0.59327,1.66785,2.10508
22.4166,5280.4455,0.8364,0.66359,1.94259
22.4352,5280.4655,1.88281,0.33433,1.41481
22.4589,5280.4855,2.97259,0.19444,1.27858
22.4788,5280.5055,3.91516,0.90121,1.87234
22.4997,5280.5255,4.6091,2.07469,2.81735
22.5281,5280.5455,4.78931,2.22251,3.68417
22.5415,5280.5655,4.37208,0.83585,3.39584
22.5557,5280.5855,4.12102,0.6135,2.07576
22.5813,5280.6055,4.39957,0.52309,1.00064
22.5974,5280.6255,4.85161,0.89205,1.24682
22.6166,5280.6455,5.18942,1.07592,2.03544
22.6424,5280.6655,5.16682,0.69291,2.50581
22.6599,5280.6854,4.8956,0.57929,2.84912
22.6831,5280.7054,4.59994,1.77047,2.64692
22.7062,5280.7254,4.41729,1.75887,2.35554
22.7255,5280.7454,4.29145,-0.30525,2.28773
22.737,5280.7654,4.25113,-2.00162,1.79721
22.7594,5280.7854,4.06726,-1.2191,0.92856
22.7781,5280.8054,3.66715,-0.46102,1.29752
22.7983,5280.8254,3.11431,-0.02119,2.16006
22.8197,5280.8454,2.58714,-0.60762,2.58645
22.8429,5280.8654,2.3208,-2.39807,2.57423
22.8608,5280.8854,2.40327,-3.13355,2.65242
22.878,5280.9054,2.31286,-2.91914,2.92425
22.8965,5280.9254,1.92129,-2.53735,3.60354
22.918,5280.9454,1.60364,-3.13783,4.56931
22.9376,5280.9654,1.83883,-4.11643,4.45814
22.9564,5280.9854,2.50956,-4.34429,3.77152
22.9763,5281.0054,3.16807,-4.29847,3.65302
22.9992,5281.0254,3.89317,-4.44264,3.63958
23.0171,5281.0454,4.15217,-4.04985,3.48991
23.0424,5281.0654,4.18211,-4.19951,3.64813
23.0593,5281.0854,4.31955,-4.90934,3.63713
23.0784,5281.1053,4.66225,-5.83907,3.38485
23.1006,5281.1253,5.21752,-6.45727,2.73489
23.1183,5281.1453,5.61886,-6.69978,1.92671
23.1371,5281.1653,5.64879,-6.24102,1.64021
23.1604,5281.1853,5.59198,-5.47378,1.61273
23.1795,5281.2053,5.30365,-5.48905,1.10754
23.2006,5281.2253,4.6653,-5.64665,0.2957
23.2212,5281.2453,3.48999,-6.07853,0.02142
23.2375,5281.2653,2.02636,-5.33389,-0.15451
23.2713,5281.2853,0.64214,-4.36811,-0.3396
23.2991,5281.3053,0.07892,-3.86659,-1.23574
23.3028,5281.3253,-0.17581,-4.39499,-2.19602
23.3374,5281.3453,-1.02308,-4.87513,-1.59126
23.3404,5281.3653,-1.99863,-5.30457,-0.29195
23.3682,5281.3853,-3.009,-4.25632,0.34579
23.4,5281.4053,-3.45554,-1.42557,-0.46299
23.4017,5281.4253,-3.21731,-2.6076,0.07762
23.4204,5281.4453,-3.09574,-2.50314,0.61457
23.4399,5281.4653,-2.88499,-2.82751,1.4087
23.4572,5281.4853,-2.66508,-3.64851,1.8589
23.4767,5281.5052,-2.30467,-2.17694,1.46184
23.4958,5281.5252,-1.94915,-1.31012,1.0605
23.5154,5281.5452,-2.31811,-2.49886,1.62983
23.542,5281.5652,-3.04687,-2.63142,2.29262
23.5552,5281.5852,-3.20326,-2.54468,3.04276
23.5747,5281.6052,-3.04749,-2.5795,3.32559
23.5987,5281.6252,-2.11225,-1.72978,3.0391
23.6165,5281.6452,-1.89539,-1.58134,2.7074
23.6411,5281.6652,-2.13363,-1.52759,3.18387
23.6616,5281.6852,-2.56063,-1.49338,3.68906
23.6786,5281.7052,-3.14767,-1.65587,3.9389
23.6977,5281.7252,-3.37185,-1.86601,3.61209
23.7196,5281.7452,-3.38468,-1.4439,3.80756
23.7358,5281.7652,-3.73043,-1.1177,4.34879
23.7574,5281.7852,-4.21851,-0.921,4.33902
23.7813,5281.8052,-4.47202,-0.59174,4.57481
23.7992,5281.8252,-4.33885,0.39053,5.18568
23.8174,5281.8452,-4.18247,1.05515,5.79654
23.8415,5281.8652,-4.78967,0.65626,5.33228
23.8574,5281.8852,-5.67665,1.01056,4.77823
23.8749,5281.9052,-5.94482,2.05636,5.45873
23.9148,5281.9251,-5.90084,3.46257,6.41229
23.9175,5281.9451,-5.87152,3.60429,7.03293
23.938,5281.9651,-5.65344,2.13638,5.60351
23.981,5281.9851,-4.66078,1.59516,3.60415
23.9839,5282.0051,-3.11957,1.33798,3.24984
23.9953,5282.0251,-2.21488,1.79063,3.84116
24.016,5282.0451,-2.80986,2.27627,4.73975
24.0335,5282.0651,-3.92713,1.3838,4.92667
24.0553,5282.0851,-3.96806,0.26469,3.85643
24.0773,5282.1051,-3.03099,-0.27226,2.93281
24.095,5282.1251,-3.29,-0.34984,3.05315
24.1139,5282.1451,-3.90331,-0.51783,3.25473
24.1385,5282.1651,-3.89659,-0.01142,3.64446
24.158,5282.1851,-3.70661,0.42107,3.46915
24.1812,5282.2051,-3.55573,0.14802,2.77459
24.201,5282.2251,-3.30405,0.07532,1.88151
24.2184,5282.2451,-3.02977,-0.66077,1.06234
24.2359,5282.2651,-2.64248,-0.90573,0.83998
24.2698,5282.2851,-2.42624,-0.72613,0.84792
24.2806,5282.3051,-2.4073,-0.49461,0.7117
24.3014,5282.325,-2.58017,-0.8483,0.93711
24.322,5282.345,-2.51359,-1.18795,1.36227
24.3354,5282.365,-2.08598,-1.12075,1.8754
24.3552,5282.385,-1.78422,-0.60518,2.23153
24.3763,5282.405,-1.65227,-0.0719,2.45267
24.3944,5282.425,-1.50444,0.05272,2.79047
24.4146,5282.445,-1.13853,0.29951,3.08797
24.4387,5282.465,-1.19229,0.44123,2.73122
24.4577,5282.485,-1.09577,-0.06151,1.9206
24.4746,5282.505,-0.85204,-0.73407,1.31585
24.4969,5282.525,-0.75002,-0.58258,0.97682
24.5163,5282.545,-0.79522,-0.09328,1.16802
24.5393,5282.565,-0.79095,0.24514,0.93528
24.5597,5282.585,-0.50079,-0.06151,0.33785
24.5802,5282.605,-0.3273,-0.35534,-0.19971
24.6015,5282.625,-0.27721,-0.37488,-0.51186
24.6217,5282.645,-0.12694,-0.25149,-0.51736
24.6368,5282.665,0.24141,-0.37916,-0.587
24.657,5282.685,0.65986,-0.41887,-0.47399
24.6816,5282.705,0.92558,-0.56242,-0.36587
24.707,5282.725,1.10273,-0.38893,-0.63526
24.728,5282.7449,1.09235,-0.55326,-1.24857
24.7558,5282.7649,1.3428,-0.80554,-1.43122
24.7651,5282.7849,1.93595,-1.1067,-1.17893
24.7779,5282.8049,3.23649,-1.58501,-1.12151
24.7978,5282.8249,4.36353,-1.99673,-1.22352
24.817,5282.8449,3.74534,-1.0896,-1.25529
24.8386,5282.8649,2.9225,-0.25271,-0.83501
24.8578,5282.8849,3.40814,-0.45002,-0.47032
24.8783,5282.9049,4.19127,-1.42802,-0.55218
24.8958,5282.9249,4.6879,-2.87943,-1.20703
24.9187,5282.9449,4.60727,-3.91485,-2.30414
24.9378,5282.9649,4.18149,-4.35528,-3.38782
24.9699,5282.9849,3.78504,-4.65583,-4.06954
24.9808,5283.0049,3.50771,-4.55992,-4.09337
24.9971,5283.025,3.20228,-4.48906,-3.52221
25.0194,5283.045,2.9897,-4.66682,-2.91562
25.0402,5283.065,2.6806,-4.50861,-2.71098
25.0572,5283.0851,2.2084,-4.51289,-2.78673
25.0795,5283.1051,2.19863,-4.59596,-2.90523
25.1004,5283.1251,2.45641,-4.57275,-3.20944
25.1188,5283.1451,2.70748,-4.60024,-3.86918
25.1443,5283.1652,1.96466,-5.22577,-4.77754
25.1614,5283.1852,2.11372,-4.97042,-5.30166
25.1848,5283.2052,2.38738,-4.37178,-5.52646
25.2013,5283.2253,2.62257,-4.15247,-5.46109
25.2239,5283.2453,2.82904,-4.10971,-5.07686
25.2461,5283.2653,3.0575,-3.25878,-4.42201
25.2811,5283.2853,2.83148,-2.60393,-3.97425
25.3049,5283.3054,2.65494,-2.59843,-3.96875
25.309,5283.3254,3.1363,-2.73466,-4.21432
25.3292,5283.3454,4.08925,-2.56484,-4.55579
25.342,5283.3655,4.90537,-2.74565,-4.58084
25.3576,5283.3855,4.96096,-2.83667,-4.42629
25.3788,5283.4056,4.29145,-2.04499,-4.11169
25.3983,5283.4256,3.67753,-1.07371,-3.64438
25.4168,5283.4457,3.37332,-0.39932,-3.49289
25.4371,5283.4657,3.26947,0.89327,-2.8698
25.4589,5283.4858,3.03612,1.76559,-2.28398
25.4804,5283.5059,2.5908,2.07957,-2.05369
25.5134,5283.5259,2.30736,2.50168,-2.02131
25.5212,5283.546,1.97627,3.03497,-1.33103
25.5503,5283.5661,1.29699,3.66904,-0.65542
25.5634,5283.5861,0.30617,4.76982,0.22789
25.5827,5283.6061,-0.66878,4.56152,0.56631
25.5995,5283.6261,-1.43541,3.84497,0.22362
25.6235,5283.6462,-1.91861,3.50289,-0.37198
25.6395,5283.6662,-2.09698,3.73196,-0.6542
25.658,5283.6862,-2.27352,4.17789,-0.32983
25.6799,5283.7063,-2.64981,4.23043,0.18636
25.6983,5283.7263,-3.00839,4.42591,0.24989
25.7181,5283.7463,-3.06215,4.74111,0.06785
25.7413,5283.7663,-2.97479,4.75761,-0.00057
25.7609,5283.7864,-3.02855,5.10274,0.01715
25.7849,5283.8064,-3.21059,4.79365,0.06907
25.804,5283.8264,-3.24785,4.73195,-0.43489
25.824,5283.8465,-3.46654,4.81319,-1.08913
25.8373,5283.8665,-3.91675,4.2005,-1.23024
25.8613,5283.8865,-4.17087,3.65255,-1.50757
25.8789,5283.9065,-4.09145,2.89141,-1.4978
25.8999,5283.9266,-3.93691,2.18647,-1.00911
25.9189,5283.9466,-3.78236,1.64525,-0.32494
25.9722,5283.9666,-3.30405,3.08689,-0.50087
25.9742,5283.9866,-2.94058,3.08322,-1.09463
25.9771,5284.0066,-2.78787,2.48274,-1.33103
26,5284.0266,-2.99862,2.30376,-1.38662
26.0153,5284.0466,-3.21853,2.63729,-0.87533
26.036,5284.0666,-3.39812,2.59575,-0.0922
26.0647,5284.0866,-3.51663,2.96166,0.05319
26.0775,5284.1066,-3.5936,3.76128,-0.44039
26.1013,5284.1266,-3.92591,3.80527,-1.03232
26.1189,5284.1466,-4.26189,3.02458,-1.48803
26.1385,5284.1666,-4.2906,2.72709,-1.61692
26.1595,5284.1866,-4.07557,2.91401,-1.17343
26.1807,5284.2066,-4.3584,2.84315,-0.24553
26.1967,5284.2266,-4.48607,3.41187,0.32075
26.2191,5284.2466,-4.32847,4.17851,0.40443
26.2386,5284.2666,-4.03953,2.96838,0.29448
26.265,5284.2866,-3.35231,0.74483,-0.15817
26.2792,5284.3066,-2.4189,-0.31502,-0.61143
26.3012,5284.3266,-1.45191,0.25553,-0.80019
26.3168,5284.3466,-0.36212,0.31723,-0.42451
26.3423,5284.3665,0.22125,-0.96987,-0.14046
26.3642,5284.3865,0.4992,-1.16595,-0.29134
26.3768,5284.4065,0.32205,-0.43169,-0.28707
26.4003,5284.4265,0.38863,-0.3193,0.12649
26.4205,5284.4465,0.74599,-0.64,0.40321
26.4382,5284.4665,1.15527,-0.22461,-0.07937
26.4562,5284.4865,1.33975,-0.11832,-0.44161
26.4787,5284.5065,1.34036,-0.69131,-0.41413
26.4993,5284.5265,0.99889,-1.056,-0.5137
26.5295,5284.5465,0.79974,-0.88923,-0.52836
26.5424,5284.5665,0.80646,-0.20506,-0.65969
26.5592,5284.5866,0.84617,0.23965,-0.60777
26.5781,5284.6066,0.79364,0.15779,-0.33166
26.6035,5284.6266,0.68796,-0.01692,-0.10136
26.6224,5284.6466,0.46927,-0.37672,-0.0415
26.6377,5284.6667,0.25913,-0.62228,-0.1655
26.6604,5284.6867,0.24264,-0.21362,-0.32555
26.6802,5284.7067,0.2182,0.58967,-0.21682
26.7102,5284.7268,0.22553,1.13334,0.099
26.724,5284.7468,0.2353,1.06615,0.3464
26.7375,5284.7668,0.37092,1.04232,0.39527
26.7585,5284.7868,0.63786,1.36669,0.18391
26.7829,5284.8069,0.93169,1.53224,-0.12274
26.8015,5284.8269,1.09052,1.54812,-0.22048
26.8199,5284.8469,1.37029,1.75581,-0.17833
26.8407,5284.867,1.50896,1.834,-0.10686
26.8619,5284.887,1.12411,0.59395,-0.23514
26.8791,5284.907,-0.13549,-0.28509,-0.24492
26.9014,5284.927,-1.01453,0.36182,-0.13068
26.9267,5284.9471,-1.43541,0.89633,-0.13374
26.9427,5284.9671,-1.47145,0.26286,-0.25225
26.9643,5284.9871,-0.75613,-0.48117,-0.31944
26.989,5285.0072,0.08137,-0.20384,-0.2724
27.0012,5285.0272,0.4094,0.37953,-0.13435
27.0196,5285.0472,0.37092,-0.05846,-0.15145
27.0404,5285.0672,0.6287,-0.03341,-0.15939
27.0577,5285.0873,1.10151,0.51331,-0.20399
27.0794,5285.1073,1.52851,0.54386,-0.51675
27.1003,5285.1273,1.52545,0.19322,-0.81913
27.1191,5285.1474,0.5328,-0.25332,-0.53569
27.1397,5285.1674,-0.81783,-0.2631,-0.07082
27.158,5285.1873,-1.50261,-0.18918,0.46308
27.1775,5285.2073,-1.29247,-0.29792,0.47224
27.1998,5285.2273,-0.42504,0.2317,-0.05799
27.2195,5285.2473,-0.24667,0.40275,-0.28401
27.2418,5285.2673,-0.80744,0.05516,-0.06104
27.2614,5285.2873,-1.02491,-0.02913,0.4533
27.2822,5285.3073,-0.57898,0.53469,0.3745
27.3274,5285.3273,-0.3664,1.0802,0.06968
27.33,5285.3473,-0.57409,1.20237,0.04036
27.3456,5285.3673,-0.48735,0.85051,0.48873
27.3626,5285.3873,0.00012,0.37526,0.82227
27.3798,5285.4073,0.51325,0.41435,0.40016
27.4012,5285.4273,0.35687,0.83524,-0.171
27.4174,5285.4473,-0.13916,1.10891,-0.38908
27.4419,5285.4673,-0.2485,0.70268,-0.19421
27.4594,5285.4873,0.10702,-0.28814,0.30181
27.4798,5285.5073,0.68185,-1.01751,0.58586
27.4999,5285.5273,1.18459,-0.86235,0.35618
27.5209,5285.5473,0.94024,-0.31563,0.16559
27.5374,5285.5673,0.12596,0.03623,0.21568
27.5585,5285.5872,-0.13183,-0.42314,0.48446
27.5866,5285.6072,0.26096,-1.28507,0.59808
27.5996,5285.6272,0.71056,-1.18306,0.34946
27.6222,5285.6472,0.64092,-0.27898,0.06296
27.6404,5285.6672,0.2237,0.04783,0.05135
27.6655,5285.6872,0.25852,-0.31991,0.02325
27.6812,5285.7072,0.27868,-0.91061,-0.08304
27.6984,5285.7272,0.35748,-1.18306,-0.18627
27.7185,5285.7472,0.31288,-1.15129,-0.13496
27.745,5285.7672,0.46132,-0.3981,-0.04028
27.7583,5285.7872,0.67268,0.10159,-0.07693
27.7775,5285.8072,0.72155,0.08937,-0.25897
27.8049,5285.8272,0.60182,0.22193,-0.22292
27.8171,5285.8472,0.24813,-0.13604,0.14054
27.8425,5285.8672,-0.11655,-0.6455,0.41543
27.8593,5285.8872,-0.22223,-0.78966,0.53944
27.8815,5285.9072,-0.2937,-0.80493,0.56937
27.8992,5285.9272,-0.21307,-0.52088,0.40627
27.9184,5285.9472,0.12962,-0.24599,0.02814
27.9366,5285.9672,0.43384,-0.06456,-0.27851
27.9588,5285.9872,0.52424,0.13519,-0.34754
28.0072,5286.0071,0.46988,0.20483,-0.317
28.0085,5286.0271,0.28601,0.11869,-0.23881
28.0206,5286.0471,0.14978,0.2201,0.02997
28.0434,5286.0671,0.0496,0.26958,0.23767
28.0564,5286.0871,-0.07868,0.21765,0.2902
28.0811,5286.1071,-0.15748,0.19811,0.29326
28.1003,5286.1271,-0.03897,0.06433,0.17903
28.119,5286.1471,0.10519,0.06127,0.05074
28.1386,5286.1671,0.12596,0.18956,-0.01095
28.1601,5286.1871,0.06121,0.18894,-0.01034
28.1771,5286.2071,0.06915,0.17184,0.00432
28.1992,5286.2271,0.06976,0.20971,0.03975
28.219,5286.2471,0.00745,0.3887,0.07884
28.2353,5286.2671,-0.08418,0.70574,0.13688
28.2562,5286.2871,-0.11167,0.75888,0.15459
28.2808,5286.3071,0.10702,0.67703,0.12527
28.3149,5286.3271,0.31777,0.4675,0.11733
28.3206,5286.3471,0.4204,0.13885,0.13626
28.3407,5286.3671,0.36847,-0.14398,0.14909
28.3616,5286.3872,0.27501,-0.18735,0.13688
28.3802,5286.4072,0.16078,-0.12932,0.00798
28.4006,5286.4273,0.32999,-0.07067,-0.12519
28.4208,5286.4474,0.42712,-0.07923,-0.10869
28.4383,5286.4675,0.26768,-0.26982,-0.05677
28.463,5286.4876,0.03433,-0.32907,-0.05249
28.4905,5286.5077,-0.18008,-0.18185,-0.06166
28.5036,5286.5278,-0.38106,0.02951,-0.0977
28.5224,5286.5479,-0.41954,0.33983,-0.10014
28.5448,5286.568,-0.19413,0.39847,-0.07693
28.5618,5286.588,0.09419,0.07716,-0.10625
28.5889,5286.6081,0.24141,-0.36328,-0.05677
28.6002,5286.6282,0.26585,-0.5276,0.07396
28.622,5286.6483,0.28662,-0.36206,0.14298
28.6421,5286.6684,0.23103,-0.16047,0.06479
28.6605,5286.6885,0.11008,-0.00103,4e-05
28.6803,5286.7086,-0.04875,-0.01692,-0.06776
28.7031,5286.7287,-0.04997,-0.0609,-0.07754
28.7207,5286.7488,0.05754,-0.08595,-0.07387
28.7404,5286.7689,0.08748,-0.13665,-0.05799
28.7617,5286.789,0.17422,-0.0328,-0.07693
28.7836,5286.8091,0.26768,0.13336,-0.05127
28.8001,5286.8292,0.22431,0.05333,0.02631
28.8235,5286.8493,0.12596,0.06005,0.17047
28.8405,5286.8694,-0.02187,0.13885,0.28837
28.8595,5286.8895,-0.12022,0.17306,0.28654
28.8861,5286.9096,-0.0628,0.12053,0.20407
28.9016,5286.9297,-0.06463,0.05883,0.15337
28.9225,5286.9498,-0.05852,-0.05907,0.07518
28.9417,5286.9698,0.02639,-0.07434,0.07029
28.9595,5286.9898,0.06548,-0.09755,0.07335
28.9791,5287.0099,0.10397,-0.10916,0.1045
29.0078,5287.0299,0.11191,-0.10855,0.12771
29.0328,5287.0499,0.12229,-0.04135,0.09839
29.0442,5287.0699,0.1449,0.10587,0.09534
29.0675,5287.0899,0.13024,0.13763,0.12527
29.093,5287.1099,0.11313,0.05516,0.17169
29.1074,5287.1299,0.0777,0.00263,0.21079
29.1229,5287.1499,0.05449,0.05028,0.23156
29.1454,5287.1699,-0.00232,0.03928,0.25599
29.1653,5287.1899,0.00684,0.11075,0.28837
29.1835,5287.2099,0.07343,0.23781,0.34274
29.2035,5287.2298,0.13268,0.17917,0.33602
29.2259,5287.2498,0.35442,0.09793,0.28837
29.2448,5287.2698,0.4204,-0.01753,0.26699
29.2702,5287.2898,0.29212,0.01607,0.26455
29.2831,5287.3098,0.09542,0.1132,0.21018
29.3299,5287.3299,0.05754,0.11503,0.15093
29.3384,5287.3499,0.06365,0.0234,0.12283
29.3427,5287.3699,0.10519,-0.05968,0.10206
29.365,5287.3899,0.11435,0.02462,0.07762
29.3823,5287.41,0.0777,0.10098,0.06846
29.4035,5287.43,0.0887,0.04539,0.09106
29.4258,5287.45,0.08748,-0.07495,0.12588
29.4423,5287.4701,0.11863,-0.13237,0.12954
29.4608,5287.4901,0.14001,-0.14764,0.1271
29.4829,5287.5101,0.14734,-0.09755,0.09045
29.5029,5287.5301,0.13696,0.10464,0.0373
29.5228,5287.5502,0.1565,0.15474,-0.01156
29.5434,5287.5702,0.2182,-0.00348,-0.04516
29.5623,5287.5902,0.17422,-0.19896,-0.0134
29.5857,5287.6103,0.03372,-0.14398,-0.01645
29.608,5287.6303,-0.01576,0.00446,-0.10808
29.6316,5287.6503,0.02028,0.00568,-0.19788
29.6488,5287.6703,0.11008,-0.07434,-0.21193
29.6668,5287.6904,0.16689,-0.15436,-0.19482
29.6821,5287.7104,0.08381,-0.07678,-0.16795
29.7008,5287.7304,0.03494,0.01179,-0.15145
29.7252,5287.7505,0.10275,0.01424,-0.14962
29.7466,5287.7705,0.12413,0.00996,-0.12457
29.7607,5287.7905,0.07465,-0.0383,-0.03844
29.783,5287.8105,0.04533,-0.08106,-0.01523
29.8,5287.8306,0.0777,-0.05357,-0.10625
29.8215,5287.8506,0.12413,0.07838,-0.23942
29.8473,5287.8706,0.13818,0.06311,-0.22476
29.8624,5287.8907,0.07037,-0.0273,-0.13252
29.8815,5287.9107,-0.05119,-0.09083,-0.02989
29.9023,5287.9307,-0.09395,-0.13115,-0.00057
29.9235,5287.9507,-0.0066,-0.07434,-0.00118
29.9657,5287.9707,0.04838,0.00263,-0.01828
29.9799,5287.9907,0.04288,-0.02242,-0.04333
29.9878,5288.0107,0.01112,-0.08106,-0.10503
30.0027,5288.0307,-0.0011,-0.10061,-0.11236
30.027,5288.0506,-0.00843,-0.05357,-0.06776
30.0514,5288.0706,-0.01026,-0.02364,-0.047
30.0661,5288.0906,0.00073,-0.01386,-0.03783
30.0838,5288.1106,0.02517,-0.02608,-0.00668
30.154,5288.1306,0.0722,-0.04502,-0.01828
30.1572,5288.1506,0.08442,-0.04135,-0.02256
30.1585,5288.1706,0.01539,0.01973,-0.02989
30.1599,5288.1906,-0.02309,0.00324,-0.02317
30.1808,5288.2106,0.01723,-0.08839,0.01226
30.2009,5288.2306,0.07648,-0.10977,0.02509
30.2215,5288.2506,0.0777,-0.07678,-0.00179
30.2418,5288.2706,0.03311,-0.01997,-0.02867
30.2632,5288.2906,0.02211,0.00202,-0.01279
30.2998,5288.3106,0.04227,-0.04318,-0.00118
30.3034,5288.3306,0.09236,-0.04929,-0.03233
30.3244,5288.3506,0.04105,0.07044,-0.07571
30.3397,5288.3706,-0.01332,0.0796,-0.07082
30.36,5288.3906,0.00012,-0.03646,-0.03661
30.3819,5288.4106,0.06793,-0.11893,-0.01034
30.3996,5288.4306,0.08381,-0.06701,-0.01401
30.4209,5288.4506,0.03433,0.08082,-0.04516
30.453,5288.4705,-0.00538,0.13152,-0.07326
30.4709,5288.4905,-0.0066,0.06616,-0.07571
30.4854,5288.5105,-0.02248,-0.03708,-0.04638
30.5044,5288.5305,-0.03836,-0.09328,-0.01218
30.5213,5288.5505,-0.02615,-0.03463,-0.00485
30.5412,5288.5705,0.04288,0.02096,-0.02439
30.5625,5288.5905,0.11313,0.00202,-0.03233
30.5892,5288.6105,0.13512,-0.07312,-0.03233
30.6044,5288.6305,0.07587,-0.0719,-0.04577
30.6241,5288.6505,-0.02676,0.01302,-0.09892
30.6418,5288.6705,-0.0964,0.10953,-0.15023
30.6621,5288.6905,-0.07318,0.06738,-0.13924
30.6845,5288.7105,-0.0182,-0.04257,-0.06715
30.7056,5288.7305,0.03372,-0.07556,-0.00912
30.7262,5288.7505,0.03189,-0.00042,-0.03478
30.7463,5288.7705,-0.00904,0.057,-0.04822
30.7613,5288.7905,-0.05425,0.07532,0.00371
30.7798,5288.8105,-0.03897,0.05822,0.01898
30.8026,5288.8305,0.01051,0.03501,-0.0134
30.8213,5288.8505,0.05938,0.03562,-0.03722
30.8447,5288.8705,0.08014,0.02035,-0.02745
30.8665,5288.8904,0.07831,0.03745,0.0257
30.8881,5288.9104,0.07587,-0.04929,0.00676
30.9035,5288.9304,0.05143,-0.05296,-0.02439
30.9257,5288.9504,0.00928,-0.04746,-0.09892
30.943,5288.9704,0.02211,-0.00226,-0.15512
30.9629,5288.9904,0.03005,-0.00959,-0.18627
30.9831,5289.0104,0.01112,-0.04135,-0.16062
31.0043,5289.0304,0.027,-0.07251,-0.12946
31.0254,5289.0504,0.0551,-0.0609,-0.11541
31.0435,5289.0704,0.07098,0.05272,-0.11908
31.061,5289.0904,0.10641,0.08265,-0.09098
31.0816,5289.1104,0.21759,-0.03341,0.0312
31.1029,5289.1304,0.21576,-0.17269,0.07823
31.1243,5289.1504,0.12779,-0.14825,0.0257
31.1457,5289.1704,0.08931,0.01729,-0.0024
31.1678,5289.1904,0.14673,0.05272,0.0312
31.1921,5289.2104,0.16994,-0.00653,0.06907
31.2093,5289.2304,0.11069,-0.07006,0.07518
31.237,5289.2504,0.04044,-0.11832,-0.00851
31.2639,5289.2703,-0.05425,-0.06151,-0.08853
31.2783,5289.2903,-0.10739,-0.00592,-0.1203
31.2923,5289.3103,-0.04447,-0.00959,-0.08609
31.3017,5289.3303,0.05571,-0.01081,-0.05738
31.3248,5289.3503,0.11008,-0.04563,-0.02073
31.3436,5289.3703,0.1449,-0.16902,0.02081
31.3652,5289.3903,0.13696,-0.29364,0.06174
31.381,5289.4103,0.1003,-0.26371,0.06968
31.4023,5289.4303,0.07465,-0.11282,0.0147
31.4202,5289.4503,0.03861,0.03562,-0.00973
31.4414,5289.4703,0.03372,0.04111,0.00187
31.4709,5289.4903,0.027,-0.0273,-0.01951
31.4862,5289.5103,-0.0628,-0.01325,-0.03783
31.5032,5289.5303,-0.13854,0.04967,-0.036
31.5282,5289.5503,-0.08173,0.04111,-0.02806
31.5415,5289.5703,0.05693,-0.02975,-0.00362
31.5612,5289.5903,0.12352,-0.09389,0.04097
31.5826,5289.6103,0.06976,-0.06029,0.06663
31.6103,5289.6303,-0.02248,0.01912,0.07335
31.6284,5289.6503,-0.06707,0.03073,0.06785
31.6462,5289.6703,-0.04997,-0.01997,0.07823
31.6634,5289.6902,-0.03409,-0.03769,0.10083
31.6838,5289.7102,-0.05119,0.08143,0.08862
31.7065,5289.7302,-0.12572,0.16634,0.0538
31.7249,5289.7502,-0.15687,0.17245,0.06357
31.754,5289.7702,-0.0683,0.0686,0.0764
31.7649,5289.7902,0.016,0.01973,0.0764
31.7833,5289.8102,-0.01026,0.08388,0.03058
31.8007,5289.8302,-0.07318,0.16084,-0.00851
31.8218,5289.8502,-0.02553,0.10159,-0.00973
31.8474,5289.8702,0.0496,0.06555,0.01043
31.8656,5289.8902,0.06915,0.06983,-0.00118
31.8818,5289.9102,0.00073,0.08754,-0.00912
31.9021,5289.9302,-0.08845,0.08326,0.00676
31.9244,5289.9502,-0.10739,0.06433,0.03242
31.9476,5289.9702,0.00806,0.10342,-0.01828
31.9609,5289.9902,0.17788,0.17551,-0.08548
31.9976,5290.0102,0.23225,0.17917,-0.07754
32.0016,5290.0302,0.24813,0.181,-0.02806
32.0269,5290.0502,0.27684,0.1022,0.06235
32.0407,5290.0702,0.23469,-0.03402,0.12405
32.0619,5290.0902,0.18216,-0.00959,0.09289
32.0799,5290.1101,0.15589,0.04295,-0.00546
32.1001,5290.1301,0.17055,0.05761,-0.05982
32.1215,5290.1501,0.21759,-0.12199,-0.09037
32.14,5290.1701,0.27379,-0.24538,-0.07448
32.16,5290.1901,0.24508,-0.28264,-0.11358
32.1818,5290.2101,0.11313,-0.15314,-0.17467
32.2042,5290.2301,-0.03164,0.1248,-0.24308
32.2279,5290.2501,-0.10189,0.14924,-0.30234
32.2558,5290.2701,-0.07501,0.02829,-0.27118
32.2695,5290.2901,-0.06707,-0.08533,-0.14962
32.2833,5290.3101,-0.18986,-0.18674,-0.10258
32.3083,5290.3301,-0.36701,-0.07617,-0.0977
32.3413,5290.3501,-0.58203,0.0063,-0.06776
32.3449,5290.3701,-0.83249,-0.03708,-0.01584
32.3664,5290.3901,-0.92167,-0.21545,-0.02561
32.3832,5290.4101,-0.72192,-0.25088,-0.08853
32.4003,5290.4301,-0.5466,-0.19712,-0.14718
32.4219,5290.4501,-0.42809,-0.08778,-0.12274
32.4409,5290.4701,-0.2876,0.11503,-0.09098
32.4652,5290.4901,-0.23201,0.14985,-0.09586
32.4842,5290.5101,-0.15137,0.03562,-0.12457
32.5011,5290.53,-0.06707,-0.0609,-0.09525
32.5229,5290.55,0.00257,-0.18613,-0.03417
32.5535,5290.57,0.04533,-0.16352,0.0202
32.5642,5290.5901,0.10458,-0.17147,-0.01645
32.5816,5290.6101,0.02272,-0.30647,-0.01401
32.6033,5290.6301,-0.11411,-0.25882,0.12588
32.6244,5290.6501,-0.23262,-0.16719,0.18391
32.6526,5290.6702,-0.29065,-0.15986,0.08006
32.6688,5290.6902,-0.30653,-0.08839,0.02448
32.6889,5290.7102,-0.2711,0.01668,0.06235
32.7086,5290.7303,-0.20085,-0.04929,0.02387
32.7247,5290.7503,-0.16848,-0.05846,-0.06227
32.7523,5290.7703,-0.25339,0.02401,-0.09892
32.761,5290.7903,-0.31692,0.02157,-0.06288
32.7825,5290.8104,-0.15259,-0.03952,-0.02989
32.8054,5290.8304,0.04533,-0.11893,-0.15329
32.825,5290.8504,-0.02737,0.04234,-0.24125
32.8463,5290.8705,-0.18497,0.20299,-0.2443
32.8618,5290.8905,-0.32303,0.16146,-0.20521
32.8838,5290.9105,-0.45558,0.15779,-0.11847
32.905,5290.9305,-0.34013,-0.00226,-0.07693
32.9239,5290.9506,-0.25461,-0.16597,-0.07448
32.946,5290.9706,-0.21307,-0.00226,-0.02012
32.9775,5290.9906,-0.14649,0.07716,-0.03661
32.9907,5291.0107,-0.0402,-0.06762,-0.12457
33.0103,5291.0307,0.08076,-0.25088,-0.11053
33.0243,5291.0507,0.13451,-0.41642,-0.16672
33.0429,5291.0707,0.14001,-0.26676,-0.14718
33.062,5291.0908,0.12535,-0.01753,0.00615
33.0848,5291.1108,0.11191,0.03501,0.02814
33.1038,5291.1308,0.0044,-0.02242,-0.01095
33.1227,5291.1509,-0.05302,-0.10671,0.04952
33.1444,5291.1709,-0.09151,-0.1061,0.34029
33.1657,5291.1909,-0.17153,-0.16658,0.27615
33.1847,5291.2109,-0.32119,-0.15742,0.18025
33.2069,5291.2309,-0.30653,0.08754,0.15764
33.225,5291.2509,-0.19658,0.13519,0.09289
33.2548,5291.2709,-0.13916,0.01851,0.0373
33.2843,5291.2909,0.09664,0.04539,0.05746
33.2863,5291.3109,0.16506,-0.02364,0.10389
33.3084,5291.3308,-0.01698,0.17917,0.15398
33.3298,5291.3508,-0.1752,0.20971,0.06907
33.3431,5291.3708,-0.14221,0.046,-0.00423
33.3684,5291.3908,-0.08173,-0.01386,0.06479
33.384,5291.4108,-0.10434,-0.05174,0.07273
33.4005,5291.4308,-0.09823,-0.10305,0.01715
33.4203,5291.4508,-0.13366,-0.17941,0.03242
33.4427,5291.4708,-0.17947,-0.13176,0.18636
33.4628,5291.4908,-0.25766,-0.10427,0.245
33.487,5291.5108,-0.29798,-0.0438,0.22056
33.5029,5291.5308,-0.17764,-0.13237,0.06479
33.5247,5291.5508,-0.07807,-0.28692,-0.06715
33.5423,5291.5708,-0.10311,-0.25027,-0.05921
33.5654,5291.5908,-0.19536,-0.0609,-0.00668
33.5811,5291.6108,-0.25278,-0.078,0.02325
33.6016,5291.6308,-0.33341,-0.02364,0.09534
33.6239,5291.6508,-0.40671,0.17489,0.17414
33.6423,5291.6708,-0.27721,0.03317,0.06785
33.6613,5291.6908,-0.12327,-0.24416,-0.06227
33.6931,5291.7108,-0.14465,-0.26615,-0.08976
33.7079,5291.7307,-0.09823,-0.17086,-0.04883
33.7223,5291.7507,0.00195,-0.16108,-0.11908
33.7428,5291.7707,0.10947,-0.14703,-0.21315
33.761,5291.7907,0.16933,-0.02975,-0.24797
33.7891,5291.8107,0.25119,0.13397,-0.18261
33.8053,5291.8307,0.25974,0.16084,-0.07876
33.823,5291.8507,0.10336,0.28729,0.06724
33.8429,5291.8707,0.00012,0.44978,0.09778
33.8662,5291.8907,-0.06096,0.51026,0.06357
33.8934,5291.9107,-0.02126,0.46261,-0.0189
33.9021,5291.9307,0.162,0.4058,-0.0812
33.9534,5291.9507,0.43445,0.35388,-0.14351
33.9549,5291.9707,0.60488,0.37465,-0.12824
33.9604,5291.9907,0.59449,0.28424,-0.11786
33.9854,5292.0107,0.34526,0.17856,-0.12091
34.0001,5292.0307,0.03494,0.24942,-0.11786
34.0198,5292.0507,-0.03164,0.34166,-0.04822
34.0427,5292.0707,-0.00293,0.23598,0.01043
34.061,5292.0907,0.0325,0.01607,-0.02134
34.0843,5292.1107,0.02395,-0.06212,-0.025
34.1097,5292.1307,0.00928,-0.02364,0.0202
34.1223,5292.1506,0.0496,0.0234,0.05991
34.1423,5292.1706,-0.03042,0.06983,0.05319
34.1637,5292.1906,-0.12205,0.1584,0.06113
34.1822,5292.2106,-0.08173,0.05761,0.04402
34.2055,5292.2306,0.07648,-0.06823,0.06418
34.2281,5292.2506,0.1901,-0.15131,0.09228
34.2559,5292.2706,0.11741,-0.02852,0.11488
34.2686,5292.2906,0.05082,0.19872,0.13321
34.283,5292.3106,-0.00232,0.20666,0.0819
34.3034,5292.3306,-0.00538,0.07105,-0.0189
34.3311,5292.3506,0.01173,-0.07312,-0.00607
34.3535,5292.3706,0.10702,-0.14703,4e-05
34.3606,5292.3906,0.19132,-0.08839,0.01165
34.38,5292.4106,0.24325,0.08143,0.13688
34.4022,5292.4306,0.34893,0.08571,0.27921
34.4211,5292.4506,0.32266,-0.03463,0.12832
34.4412,5292.4706,0.22797,-0.12504,-0.01706
34.463,5292.4906,0.00928,-0.0945,-0.09281
34.4838,5292.5106,-0.16848,0.13885,-0.08059
34.5019,5292.5306,-0.21735,0.11686,-0.01706
34.5301,5292.5506,-0.08357,0.02401,0.04769
34.5458,5292.5705,0.08259,-0.11771,0.0373
34.5618,5292.5905,0.09297,-0.1733,0.02875
34.5831,5292.6105,0.0832,-0.11282,0.02142
34.6008,5292.6305,0.17177,0.01607,-0.00423
34.6324,5292.6505,0.25424,-0.0383,-0.01645
34.6541,5292.6705,0.28295,-0.06579,0.00126
34.6657,5292.6905,0.23775,-0.04318,0.0428
34.6812,5292.7105,0.12413,0.02279,0.0428
34.7029,5292.7305,0.04594,0.07716,0.06907
34.7257,5292.7505,0.04655,0.06433,0.1271
34.7466,5292.7705,0.06732,-0.00348,0.04036
34.7743,5292.7905,-0.03531,0.04845,-0.08304
34.7886,5292.8105,-0.12083,-0.01142,-0.07632
34.8047,5292.8305,-0.11778,-0.03769,-0.04761
34.8327,5292.8505,-0.02309,0.03134,-0.02256
34.8422,5292.8705,0.12229,0.05578,-0.04761
34.8619,5292.8905,0.17727,-0.01936,-0.04761
34.8865,5292.9105,0.14734,-0.10794,-0.00301
34.9039,5292.9305,0.0551,-0.1171,0.01409
34.9229,5292.9505,-0.00232,0.01057,-0.00301
34.944,5292.9704,-0.05791,0.12908,-0.03172
34.9619,5292.9904,-0.07013,0.18222,-0.02073
34.9898,5293.0104,-0.06035,0.13091,-0.01279
35.0073,5293.0304,-0.05791,0.16451,-0.02745
35.0222,5293.0504,-0.03164,0.21949,-0.03417
35.0416,5293.0704,0.01417,0.10037,-0.10381
35.0678,5293.0904,0.03616,0.0625,-0.13007
35.0922,5293.1104,0.06793,0.00691,-0.0696
35.1064,5293.1304,0.09175,-0.09877,0.01104
35.1233,5293.1504,0.10458,-0.10061,0.0538
35.1474,5293.1704,0.06304,-0.0157,0.04586
35.1671,5293.1904,-0.08235,0.12053,0.02264
35.1823,5293.2104,-0.16298,0.15046,0.04586
35.2007,5293.2304,-0.15137,-0.01692,0.03364
35.2253,5293.2504,-0.08235,-0.05846,0.01959
35.2545,5293.2704,-0.03653,-0.07923,-0.01034
35.2784,5293.2904,0.00806,0.03562,-0.01401
35.2832,5293.3104,0.0832,0.03501,-0.0189
35.3032,5293.3304,0.17239,0.02401,0.00554
35.3377,5293.3504,0.20415,-0.06701,0.05502
35.3411,5293.3703,0.17055,-0.13543,0.04341
35.365,5293.3903,0.06426,0.01668,0.04952
35.3808,5293.4103,0.02089,0.03745,0.0593
35.4015,5293.4303,0.04533,0.01179,0.0428
35.4229,5293.4503,0.08503,-0.00592,0.02753
35.4406,5293.4703,-0.01026,-0.01325,0.03608
35.4617,5293.4903,-0.1697,0.0851,-0.00546
35.4829,5293.5103,-0.19597,0.14741,-0.02195
35.5006,5293.5303,-0.02615,0.0063,-0.04455
35.5312,5293.5503,0.22309,-0.07067,-0.04516
35.5436,5293.5703,0.1846,-0.06456,-0.01156
35.5673,5293.5903,0.04288,-0.05296,0.01348
35.5857,5293.6103,-0.15809,0.06433,-0.01645
35.6055,5293.6303,-0.20757,0.11136,-0.07082
35.6233,5293.6503,-0.06219,0.01179,-0.09953
35.6436,5293.6703,0.17972,-0.11649,-0.04638
35.6661,5293.6903,0.26646,-0.16047,-0.00118
35.6867,5293.7103,0.13085,-0.04135,0.02753
35.7021,5293.7303,-0.0402,0.08326,0.00493
35.7252,5293.7503,-0.11045,0.10953,-0.02806
35.7458,5293.7703,-0.00904,0.00202,-0.01034
35.7662,5293.7902,0.12657,-0.10549,0.01592
35.7909,5293.8102,0.13329,-0.11649,0.02814
35.8096,5293.8302,0.04105,-0.05235,-0.00729
35.8247,5293.8502,-0.12144,0.13274,-0.025
35.8455,5293.8702,-0.19474,0.22254,-0.00485
35.8728,5293.8902,-0.09701,0.11808,0.04708
35.8932,5293.9102,0.09297,-0.0835,0.06296
35.907,5293.9302,0.19499,-0.11893,0.04097
35.9253,5293.9502,0.13696,-0.00287,0.04097
35.9479,5293.9702,0.01539,0.11625,0.03547
35.9927,5293.9902,-0.07257,0.10281,0.03058
35.9955,5294.0102,-0.08418,0.04722,0.02142
36.0016,5294.0302,-0.01271,-0.03097,-0.03478
36.0214,5294.0502,0.0832,0.06983,-0.04333
36.0392,5294.0702,0.12413,0.04417,-0.01767
36.0601,5294.0902,0.08381,0.01485,0.00982
36.0856,5294.1102,0.05205,-0.01508,0.0147
36.1009,5294.1302,0.04838,-0.05601,-0.00851
36.1204,5294.1502,0.027,-0.02669,-0.03539
36.1424,5294.1702,0.03616,0.01485,-0.06838
36.1604,5294.1902,0.10641,0.09304,-0.05005
36.1797,5294.2101,0.15711,-0.02425,-0.0134
36.2058,5294.2301,0.13329,-0.09389,0.04463
36.2199,5294.2501,0.01723,-0.10244,0.06418
36.2393,5294.2701,-0.10434,0.07716,0.07396
36.261,5294.2901,-0.09212,0.06983,0.01959
36.2813,5294.3102,0.05327,-0.01753,-0.00423
36.3065,5294.3302,0.17727,-0.15009,0.02081
36.325,5294.3502,0.16261,-0.16108,0.03425
36.3454,5294.3702,0.07465,-0.02242,-0.00973
36.3603,5294.3903,-0.07196,0.14069,-0.07509
36.3829,5294.4103,-0.11533,0.11992,-0.08181
36.4019,5294.4303,-0.03531,-0.03158,-0.06593
36.4305,5294.4504,0.05815,-0.11649,-0.04638
36.4506,5294.4704,0.09969,-0.03646,-0.03356
36.4655,5294.4904,0.0441,0.11381,-0.01645
36.4837,5294.5104,0.00379,0.03623,0.00065
36.5041,5294.5305,0.00134,-0.05968,0.02875
36.5225,5294.5505,0.02883,-0.12809,0.02753
36.5428,5294.5705,0.07465,-0.05418,-0.03111
36.5649,5294.5906,0.01478,0.08815,-0.06593
36.5862,5294.6106,-0.0237,0.03134,-0.04089
36.6043,5294.6306,-0.02737,-0.03036,-0.00851
36.6264,5294.6506,0.01295,-0.09144,-0.03722
36.6453,5294.6707,0.05205,-0.02975,-0.06838
36.6663,5294.6907,0.03128,-0.02486,-0.08853
36.6872,5294.7107,0.01906,-0.04868,-0.06471
36.7175,5294.7308,-0.01698,-0.06212,-0.0415
36.7265,5294.7508,-0.04508,-0.03219,-0.04089
36.7467,5294.7708,-0.04386,0.00996,-0.06043
36.7652,5294.7908,0.01906,0.00324,-0.08304
36.7823,5294.8109,0.05449,-0.09144,-0.08243
36.8044,5294.8309,0.03311,-0.08289,-0.05127
36.8227,5294.8509,-0.01759,-0.06029,-0.04272
36.8426,5294.8709,-0.0573,-0.00042,-0.06288
36.8647,5294.891,-0.03592,0.046,-0.05433
36.8827,5294.911,-0.01332,-0.00409,-0.00607
36.9062,5294.931,-0.06341,-0.02119,0.03853
36.9396,5294.951,0.00745,0.02157,0.02325
36.9475,5294.971,0.14917,0.00813,0.01898
36.9728,5294.991,0.08381,-0.06273,0.05319
36.99,5295.0109,-0.0744,-0.10244,0.05441
37.0023,5295.0309,-0.17764,-0.11099,0.00798
37.0221,5295.0509,-0.1416,-0.12382,-0.02439
37.0428,5295.0709,-0.14832,-0.1507,-0.02439
37.0653,5295.0909,-0.14404,-0.09999,-0.04089
37.0828,5295.1109,-0.11289,-0.04257,-0.08914
37.1032,5295.1309,-0.1025,-0.00959,-0.12824
37.1221,5295.1509,-0.11533,0.06983,-0.1093
37.1415,5295.1709,-0.06585,0.09731,-0.04394
37.1634,5295.1909,0.03738,-0.04624,0.04341
37.1834,5295.2109,0.09419,-0.27104,0.06357
37.2029,5295.2309,0.00928,-0.35228,0.07151
37.2341,5295.2509,-0.21246,-0.20506,0.00065
37.2497,5295.2709,-0.39205,0.03317,-0.02256
37.2688,5295.2909,-0.45253,0.1022,-0.02867
37.2946,5295.3109,-0.40488,0.02584,-0.03478
37.3022,5295.3309,-0.18497,-0.09328,-0.04028
37.3227,5295.3509,-0.07135,-0.17757,-0.07998
37.3509,5295.3709,-0.19352,-0.12504,-0.09648
37.3635,5295.3909,-0.25339,-0.01386,-0.07876
37.3805,5295.4108,-0.11655,-0.01753,-0.04333
37.4033,5295.4308,0.06671,-0.11221,-0.06166
37.4263,5295.4508,0.08686,-0.12871,-0.05494
37.4451,5295.4708,-0.06035,-0.00898,-0.05371
37.4731,5295.4908,-0.13121,0.09487,-0.06349
37.4894,5295.5108,-0.06585,0.09487,-0.07693
37.5014,5295.5308,0.01295,-0.06762,-0.09892
37.5229,5295.5508,0.04471,-0.17452,-0.10014
37.541,5295.5708,-0.01332,-0.15925,-0.10319
37.5613,5295.5908,-0.08357,-0.02242,-0.07632
37.5855,5295.6108,-0.09456,0.05944,-0.02561
37.6117,5295.6308,-0.01454,0.00141,0.01776
37.6293,5295.6508,0.01173,-0.06701,0.05685
37.6441,5295.6708,0.13207,-0.10488,0.06296
37.6688,5295.6908,0.34954,-0.11771,0.0538
37.6827,5295.7108,0.27379,-0.12443,0.07945
37.7065,5295.7309,0.05815,-0.08961,0.10816
37.7225,5295.7509,-0.05486,-0.06212,0.08801
37.7467,5295.7709,-0.02248,-0.03952,0.02875
37.7701,5295.791,0.00073,-0.04257,-0.00546
37.7859,5295.811,-0.04264,-0.11282,-0.03722
37.8065,5295.831,-0.00843,-0.07312,-0.04333
37.8305,5295.851,0.07831,-0.04196,-0.06288
37.8434,5295.8711,0.10153,-0.09144,-0.08243
37.8631,5295.8911,0.07526,-0.13298,-0.09159
37.8845,5295.9111,0.00562,-0.08533,-0.06776
37.9019,5295.9312,0.01356,0.01179,-0.02623
37.9283,5295.9512,0.02456,0.20971,-0.00729
37.9468,5295.9713,-0.00843,0.34105,-0.00423
37.9922,5295.9913,-0.00415,0.23659,-0.01462
37.9979,5296.0114,0.04105,-0.0719,-0.0024
38.0096,5296.0315,0.00928,-0.24905,0.01959
38.0228,5296.0515,-0.01332,-0.15192,0.01837
38.042,5296.0716,-0.01332,0.03745,-0.01645
38.0644,5296.0917,0.00379,0.0796,-0.00607
38.0902,5296.1117,0.0832,-0.07128,0.03181
38.1027,5296.1318,0.11741,-0.22889,0.0593
38.1267,5296.1518,0.11496,-0.20445,0.04158
38.1442,5296.1719,0.08503,-0.01508,-0.00851
38.165,5296.192,-0.06524,0.14435,-0.01095
38.1901,5296.212,-0.15626,0.10831,0.02081
38.2068,5296.2321,-0.08173,-0.07067,0.05074
38.2288,5296.2521,0.08198,-0.12565,0.05319
38.2535,5296.2722,0.09908,-0.10305,0.05685
38.2856,5296.2922,0.03433,0.02706,0.0654
38.2894,5296.3123,-0.03653,0.05883,0.05685
38.3186,5296.3323,0.02578,0.02035,0.06479
38.3295,5296.3524,0.07526,-0.07923,0.06357
38.3444,5296.3724,0.0325,-0.10244,0.06601
38.3654,5296.3925,0.02211,-0.04135,0.04463
38.3839,5296.4125,0.04655,0.07105,0.01287
38.4042,5296.4326,0.03372,0.08449,0.0257
38.4255,5296.4527,0.04349,0.0124,0.01776
38.4445,5296.4727,0.05999,-0.03402,0.00615
38.4644,5296.4928,0.05327,-0.03585,0.00187
38.4939,5296.5129,0.03494,-0.00409,0.02753
38.5133,5296.5329,0.06671,0.01546,0.02753
38.5291,5296.5529,0.09664,0.06188,0.04402
38.5515,5296.573,0.11985,0.03195,0.01898
38.5644,5296.593,0.10397,-0.00837,0.02081
38.5877,5296.613,0.04838,-0.11893,0.03058
38.6089,5296.6331,-0.04875,-0.09938,0.00737
38.6284,5296.6531,-0.01515,0.05394,-0.04822
38.649,5296.6731,0.04777,0.11686,-0.06349
38.6701,5296.6931,0.05449,-0.00531,-0.01401
38.6908,5296.7132,0.04899,-0.1788,0.01653
38.708,5296.7332,-0.04142,-0.13115,-0.00485
38.7295,5296.7532,-0.12755,-0.04624,-0.03111
38.7483,5296.7733,-0.13916,-0.00103,-0.03233
38.7901,5296.7933,-0.09578,-0.05907,-0.03233
38.8106,5296.8133,-0.03958,-0.13176,-0.04211
38.8131,5296.8333,-0.01698,-0.06395,-0.05188
38.8324,5296.8534,-0.08235,0.12419,-0.03844
38.847,5296.8734,-0.17642,0.14313,-0.03172
38.8649,5296.8934,-0.12816,0.09793,-0.00912
38.8901,5296.9135,-0.02004,0.05089,0.02631
38.9068,5296.9335,0.08931,0.02829,0.05258
38.9257,5296.9535,0.15101,0.04173,0.04891
38.9449,5296.9735,0.13573,0.09365,0.0483
38.967,5296.9935,0.1003,0.11564,0.05991
38.9856,5297.0135,0.11008,0.09304,0.05868
39.0053,5297.0335,0.12718,0.02523,0.04341
39.0313,5297.0535,0.1449,-0.02791,0.02448
39.0606,5297.0734,0.14795,0.01973,0.05074
39.0712,5297.0934,0.08809,0.05211,0.08129
39.0922,5297.1134,0.03983,0.05578,0.12893
39.1056,5297.1334,0.02822,-0.00165,0.0935
39.1245,5297.1534,0.0661,0.04173,0.0593
39.1459,5297.1734,0.11863,-0.03646,-0.01401
39.1677,5297.1934,0.07465,0.03195,-0.03661
39.1899,5297.2134,0.00745,0.03623,-0.06776
39.2102,5297.2334,-0.03287,0.04234,-0.08731
39.2326,5297.2534,-0.03592,0.04661,-0.08304
39.2775,5297.2734,-0.01271,0.05272,-0.06776
39.2972,5297.2934,-0.03287,0.06494,-0.03295
39.3141,5297.3134,-0.02676,0.07227,-0.02317
39.325,5297.3334,0.02089,0.05455,0.01165
39.3548,5297.3534,0.03922,0.01607,0.02936
39.3576,5297.3734,-0.03164,-0.05846,0.05074
39.3665,5297.3934,-0.04875,-0.03036,0.04891
39.3858,5297.4134,-0.00477,-0.02364,0.06296
39.4055,5297.4334,0.03311,0.06433,0.08312
39.424,5297.4535,0.0496,0.05761,0.10939
39.4461,5297.4735,0.03616,0.00263,0.1216
39.464,5297.4935,0.02333,-0.05174,0.10572
39.4851,5297.5135,0.02944,0.03012,0.01653
39.5063,5297.5336,0.0215,0.12114,-0.02867
39.5247,5297.5536,0.00623,0.12725,-0.03417
39.5451,5297.5736,0.0099,0.06494,0.02264
39.5688,5297.5937,0.03677,-0.06395,0.00737
39.5915,5297.6137,0.02578,-0.00775,-0.0079
39.6099,5297.6337,-0.03714,0.09487,-0.01095
39.6279,5297.6537,-0.05547,0.11564,0.02692
39.651,5297.6738,0.04105,-0.04196,0.06113
39.6639,5297.6938,0.07587,-0.07251,0.07457
39.6867,5297.7138,0.01784,0.04722,0.08373
39.7043,5297.7339,-0.0518,0.10648,0.06785
39.7298,5297.7539,-0.04142,0.07349,0.03181
39.7486,5297.7739,0.02395,-0.01631,-0.00729
39.7646,5297.7939,0.06732,-0.0328,-0.01218
39.7845,5297.814,0.02517,0.01729,-0.02439
39.8073,5297.834,-0.05974,0.12114,-0.06838
39.8289,5297.854,-0.09151,0.15107,-0.10136
39.852,5297.8741,-0.03287,0.05028,-0.08792
39.873,5297.8941,0.05327,-0.0719,-0.03539
39.894,5297.9141,0.08259,-0.08228,0.01043
39.9043,5297.9341,0.06976,-0.02119,0.00798
39.9278,5297.9542,0.01845,0.05028,-0.02012
39.9461,5297.9742,-0.01332,0.04661,-0.04211
39.966,5297.9942,0.00928,-0.0328,-0.04883
39.9904,5298.0142,-0.00232,-0.0664,-0.036
40.0026,5298.0342,-0.01087,-0.04441,-0.05555
40.0227,5298.0542,-0.03348,0.10098,-0.10442
40.0448,5298.0742,-0.0854,0.1584,-0.09403
40.0643,5298.0942,-0.0518,0.01424,-0.06288
40.0849,5298.1142,0.0044,-0.07556,-0.025
40.1077,5298.1342,0.04655,-0.0499,-0.01401
40.1243,5298.1542,0.01723,0.04539,-0.04089
40.1452,5298.1742,-0.00049,0.17489,-0.05188
40.1664,5298.1942,0.01295,0.12908,-0.02317
40.185,5298.2142,0.03677,0.046,0.02875
40.2071,5298.2342,0.08381,-0.0609,0.03792
40.2275,5298.2542,0.14306,-0.04868,0.01715
40.248,5298.2742,0.10947,-0.04502,-0.0189
40.2763,5298.2941,0.01051,0.01912,-0.0696
40.2883,5298.3142,-0.0121,0.1022,-0.06349
40.3207,5298.3342,-0.04142,0.07227,-0.025
40.3372,5298.3542,0.03555,-0.06334,0.01837
40.3477,5298.3743,0.11863,-0.13176,0.02142
40.3647,5298.3943,0.09236,-0.08045,-0.0024
40.3851,5298.4143,-0.0011,0.05761,-0.01462
40.4063,5298.4343,-0.04936,0.14069,-0.02684
40.4247,5298.4544,-0.02737,0.06738,-0.01218
40.4479,5298.4744,0.04349,-0.0273,0.00493
40.4724,5298.4944,0.10458,-0.04685,0.0147
40.492,5298.5145,0.06976,0.01729,0.01653
40.516,5298.5345,-0.00049,0.06738,0.01898
40.5354,5298.5545,-0.05669,0.03562,0.0373
40.5472,5298.5745,-0.04753,0.01912,0.07029
40.5652,5298.5946,0.03433,-0.10061,0.07212
40.5893,5298.6146,0.09725,-0.10916,0.03425
40.6057,5298.6346,0.12291,-0.04135,0.02203
40.6296,5298.6547,0.10702,-0.06273,-0.02256
40.6491,5298.6747,0.0496,-0.04013,-0.02561
40.6724,5298.6947,-0.01515,-0.04685,-0.01034
40.6897,5298.7147,-0.07074,-0.00531,-0.00423
40.7155,5298.7348,-0.04142,-0.0102,-0.05371
40.7293,5298.7549,0.00073,0.02279,-0.07571
40.747,5298.7749,0.01295,0.01546,-0.05921
40.7753,5298.795,0.00134,-0.01447,-0.05555
40.788,5298.8151,-0.03958,0.0625,-0.03356
40.8073,5298.8351,-0.02615,0.04845,-0.02134
40.8281,5298.8552,0.03189,0.04906,0.00798
40.8479,5298.8752,0.09969,0.0234,0.05135
40.868,5298.8953,0.08137,-0.03463,0.06724
40.8881,5298.9153,-0.00477,-0.01753,0.05197
40.906,5298.9354,-0.01759,0.00813,0.0202
40.9286,5298.9554,0.01661,0.04967,0.00676
40.9479,5298.9754,0.04777,0.0063,0.01715
40.966,5298.9954,0.01112,-0.00653,0.03792
40.9859,5299.0155,-0.03103,-0.00959,0.02875
41.008,5299.0355,0.01295,0.07593,-0.04089
41.032,5299.0555,0.08198,0.13213,-0.0641
41.0573,5299.0756,0.07953,0.07593,-0.03844
41.0733,5299.0956,0.0496,0.02768,0.0031
41.0895,5299.1156,0.0044,0.02768,0.02692
41.1142,5299.1356,-0.0237,0.01485,0.01409
41.1305,5299.1557,-0.01148,0.06494,0.01287
41.1474,5299.1757,0.01417,0.08571,0.02997
41.1689,5299.1957,0.02883,0.05272,0.03914
41.1899,5299.2158,0.00257,0.00752,0.03975
41.2076,5299.2358,-0.01026,-0.01936,0.05197
41.251,5299.2558,-0.06341,0.05822,0.05319
41.2799,5299.2758,-0.07501,0.10953,0.05135
41.2864,5299.2959,-0.04142,0.09487,0.06052
41.3046,5299.3159,-0.03042,-0.01692,0.12954
41.3172,5299.3359,0.01417,-0.08167,0.14298
41.3282,5299.3559,-0.02187,-0.01814,0.1271
41.3472,5299.3759,-0.04814,0.05516,0.08556
41.3733,5299.396,0.01051,0.04234,0.08862
41.3944,5299.416,0.07709,0.05639,0.08984
41.4069,5299.436,0.08686,0.0796,0.05319
41.4296,5299.456,0.00501,0.192,-0.00729
41.4467,5299.4761,-0.09517,0.08632,-0.08976
41.4671,5299.4961,-0.08784,-0.00531,-0.08731
41.4918,5299.5161,0.04777,-0.08045,-0.05494
41.5132,5299.5361,0.13268,-0.07984,-0.02317
41.5377,5299.5562,0.04105,-0.11527,0.0202
41.5545,5299.5762,-0.06585,-0.19407,0.07335
41.5704,5299.5962,-0.08296,-0.19651,0.04219
41.5876,5299.6163,-0.02798,-0.078,0.01104
41.6143,5299.6363,0.03616,-0.10733,-0.00546
41.6425,5299.6563,0.09542,-0.18185,0.01715
41.6548,5299.6763,0.1339,-0.27531,0.04647
41.6765,5299.6964,0.0832,-0.25882,0.05013
41.6913,5299.7164,-0.03531,-0.10305,0.0031
41.7083,5299.7364,-0.02126,-0.05296,-0.0696
41.7294,5299.7565,0.04105,-0.03646,-0.09098
41.7496,5299.7765,0.08809,-0.14459,-0.05616
41.7682,5299.7965,0.08686,-0.21423,-0.01951
41.7885,5299.8165,0.01356,-0.20384,-0.04883
41.8087,5299.8366,-0.13244,-0.05601,-0.10686
41.8325,5299.8566,-0.14465,-0.00898,-0.14412
41.8547,5299.8766,-0.05974,-0.07923,-0.11236
41.8706,5299.8967,0.0496,-0.16536,-0.06654
41.8973,5299.9167,0.08931,-0.16108,-0.08059
41.9172,5299.9367,0.03311,-0.09328,-0.11969
41.9307,5299.9567,-0.0292,-0.05662,-0.12702
41.9851,5299.9767,-0.03592,-0.0383,-0.09892
41.9958,5299.9967,0.00928,-0.05174,-0.07571
41.9988,5300.0167,0.0551,-0.10916,-0.06104
42.008,5300.0367,0.0606,-0.16536,-0.04394
42.0296,5300.0567,0.04349,-0.13909,-0.05982
42.0471,5300.0767,0.01478,-0.04257,-0.09098
42.0688,5300.0967,-0.01576,-0.02669,-0.10319
42.0887,5300.1167,-0.01393,-0.04624,-0.08181
42.1086,5300.1367,0.0099,-0.078,-0.05127
42.1269,5300.1567,0.01906,-0.02058,-0.06654
42.1524,5300.1767,0.016,0.06677,-0.06838
42.1687,5300.1967,0.02822,0.0344,-0.07143
42.1886,5300.2167,0.02395,-0.04074,-0.05494
42.2098,5300.2367,0.05327,-0.09938,-0.04822
42.2314,5300.2567,0.02822,-0.00837,-0.02684
42.2519,5300.2767,0.00195,-0.01386,-0.0415
42.269,5300.2967,0.00562,0.05578,-0.03172
42.3074,5300.3167,0.04288,0.01851,-0.00851
42.314,5300.3366,0.08564,-0.09083,0.06357
42.3326,5300.3566,0.12474,-0.13726,0.08923
42.3499,5300.3766,0.09297,-0.02242,0.08068
42.3666,5300.3966,-0.03164,0.0686,0.08801
42.388,5300.4166,-0.10678,0.01851,0.05807
42.42,5300.4366,-0.04264,-0.06212,0.04341
42.4365,5300.4566,0.14367,-0.10122,0.0092
42.4523,5300.4766,0.11374,-0.03769,0.0538
42.4699,5300.4966,0.03494,0.0405,0.05074
42.4974,5300.5166,0.03433,-0.0102,0.02753
42.5114,5300.5367,0.04899,-0.07373,0.0031
42.529,5300.5567,0.06671,-0.04929,0.00554
42.5493,5300.5767,0.09481,-0.03036,0.0312
42.5754,5300.5968,0.09664,-0.01325,0.05746
42.5954,5300.6168,0.0215,0.04295,0.0654
42.6143,5300.6368,-0.04142,0.03073,0.04097
42.6373,5300.6568,-0.01637,-0.04013,0.01776
42.6521,5300.6769,0.0551,-0.04135,0.00982
42.6752,5300.6969,0.12718,-0.00226,-0.0024
42.6971,5300.7169,0.10519,0.04234,-0.00057
42.7198,5300.737,0.01661,0.06005,-0.00485
42.73,5300.757,-0.05119,0.01851,0.0031
42.7519,5300.777,0.03433,-0.0273,-0.02561
42.7835,5300.797,0.11802,-0.04746,-0.04333
42.7915,5300.8171,0.09664,0.01179,-0.04394
42.8115,5300.8372,0.02578,0.08815,-0.03478
42.8318,5300.8572,-0.04386,0.12603,-0.02928
42.8514,5300.8773,-0.0744,0.06677,0.0092
42.8717,5300.8973,-0.05974,0.04783,0.03975
42.8916,5300.9174,0.00257,0.00507,0.07212
42.9163,5300.9375,0.02517,-0.03036,0.06418
42.9483,5300.9575,-0.09395,0.08937,0.0202
42.9584,5300.9776,-0.18375,0.14008,-0.00423
42.9739,5300.9977,-0.1135,0.06188,0.0092
42.9918,5301.0177,-0.00538,-0.05296,0.06724
43.0111,5301.0378,0.07281,-0.08167,0.07701
43.0296,5301.0578,0.03005,0.06555,0.02081
43.0573,5301.0779,-0.11839,0.18833,0.05685
43.0718,5301.098,-0.14771,0.12175,0.06846
43.0948,5301.118,-0.19902,0.0796,0.02692
43.1117,5301.138,-0.2314,0.13397,-0.00607
43.1306,5301.158,-0.12938,0.19811,-0.01034
43.155,5301.1781,-0.04508,0.12358,0.0031
43.1761,5301.1981,-0.09212,-0.02608,-0.00301
43.2008,5301.2181,-0.20818,-0.01692,0.04769
43.2201,5301.2382,-0.1978,-0.0102,0.04525
43.2356,5301.2582,-0.02187,0.01729,0.04525
43.2581,5301.2782,0.11313,-0.0102,0.03792
43.2751,5301.2982,0.14978,-0.0047,-0.03172
43.2906,5301.3183,0.16444,0.02035,-0.07082
43.3221,5301.3383,0.11374,-0.13298,-0.04577
43.3322,5301.3583,-0.01637,-0.19162,-0.01156
43.3526,5301.3784,-0.06952,-0.10305,-0.03356
43.3691,5301.3984,-0.03225,-0.00531,-0.07754
43.3883,5301.4184,-0.01515,0.05944,-0.08426
43.41,5301.4384,-0.00354,-0.00103,-0.0531
43.4283,5301.4584,0.05693,0.00385,-0.06227
43.4509,5301.4784,0.04533,0.10953,-0.07387
43.4759,5301.4984,0.00257,0.08204,-0.07143
43.4915,5301.5184,-0.02615,-0.02608,-0.036
43.5088,5301.5384,-0.07074,-0.05723,-0.00301
43.5299,5301.5583,-0.02065,-0.00103,-0.01401
43.5508,5301.5783,0.06243,0.08754,0.0031
43.5747,5301.5983,0.13634,0.04661,0.01287
43.5923,5301.6183,0.17849,-0.01631,0.03975
43.6191,5301.6383,0.11069,-0.04746,0.02264
43.6358,5301.6583,-0.0011,0.0063,-0.02439
43.6545,5301.6783,-0.02004,0.02096,-0.04822
43.6765,5301.6983,0.09297,0.07288,-0.01156
43.6946,5301.7183,0.16933,-0.03097,0.05746
43.713,5301.7383,0.19621,-0.05296,0.10022
43.7429,5301.7583,0.09664,-0.03402,0.11183
43.7499,5301.7783,-0.00293,0.00019,0.07762
43.771,5301.7983,-0.03042,-0.02242,0.0538
43.789,5301.8183,0.06976,-0.02486,0.0312
43.8094,5301.8383,0.14367,0.02279,0.04463
43.8392,5301.8583,0.12229,-0.01203,0.06174
43.8511,5301.8783,-0.01882,0.03195,0.09778
43.8723,5301.8983,-0.04508,0.0515,0.05502
43.8921,5301.9183,-0.00049,0.08937,-0.01645
43.9122,5301.9383,0.04716,0.08632,-0.04577
43.9308,5301.9583,0.09481,0.01668,-0.01645
43.9524,5301.9782,0.09542,-0.01386,-0.02256
43.9727,5301.9982,0.05021,-0.00287,-0.0641
44.0079,5302.0182,0.02944,0.05028,-0.09953
44.0152,5302.0382,-0.01882,0.03134,-0.07937
44.0305,5302.0582,-0.0518,-0.04196,-0.03233
44.0486,5302.0782,-0.08479,-0.0835,-0.00729
44.0976,5302.0982,-0.05608,-0.10488,-0.02561
44.0996,5302.1182,0.01906,-0.06518,-0.03783
44.1145,5302.1382,0.06487,-0.00959,-0.03111
44.1287,5302.1582,0.09786,0.07349,-0.01279
44.1494,5302.1782,0.12596,0.09426,0.03058
44.169,5302.1982,0.1284,0.01546,0.07884
44.1944,5302.2182,0.0832,-0.03463,0.05807
44.2115,5302.2382,0.04533,0.04234,0.04891
44.2428,5302.2582,0.00379,-0.04502,0.03975
44.2661,5302.2782,-0.07135,-0.0609,0.01653
44.2847,5302.2982,-0.06952,-0.09755,-0.00362
44.2956,5302.3182,-0.00477,-0.10794,-0.01095
44.3194,5302.3382,0.09053,-0.06212,-0.03233
44.3326,5302.3582,0.12107,0.01973,-0.04028
44.3586,5302.3781,0.04227,0.04539,-0.0079
44.3748,5302.3981,-0.01271,-0.00714,-0.01156
44.3897,5302.4181,-0.03042,0.06616,-0.00729
44.4085,5302.4381,0.02456,0.01118,-0.02256
44.4298,5302.4581,0.1339,-0.00042,0.00432
44.4482,5302.4781,0.1846,-0.04074,0.07518
44.4685,5302.4981,0.05449,-0.0609,0.11916
44.4939,5302.5181,-0.04325,-0.07495,0.07945
44.512,5302.5381,-0.03653,-0.01264,0.00126
44.5321,5302.5581,-0.02431,0.05211,-0.03111
44.5516,5302.5781,0.03128,0.00385,-0.0415
44.5788,5302.5981,0.06976,-0.02486,-0.02623
44.5913,5302.6181,0.03861,0.01485,-0.025
44.6139,5302.6381,-0.02126,0.04722,-0.00423
44.632,5302.6581,-0.04142,0.06372,-0.03661
44.6497,5302.6781,-0.03714,0.06677,-0.03783
44.6759,5302.6981,0.05571,-0.02791,-0.00973
44.6917,5302.7181,0.13512,-0.09999,0.01592
44.7097,5302.7381,0.10275,-0.09205,0.03058
44.7315,5302.7581,-0.00782,0.01179,0.02753
44.7548,5302.7781,-0.07501,0.08754,0.00493
44.7792,5302.798,-0.01026,0.0289,-0.0134
44.7919,5302.818,0.09481,-0.09144,0.02264
44.8117,5302.838,0.08381,-0.14214,0.05319
44.829,5302.858,-0.00171,-0.02975,0.00554
44.8513,5302.878,-0.03042,0.11808,-0.07693
44.8695,5302.898,-0.02309,0.12725,-0.07632
44.896,5302.918,0.08625,-0.04624,-0.03966
44.9156,5302.938,0.16139,-0.13665,0.00065
44.9323,5302.958,0.07892,-0.07739,0.01898
44.9532,5302.978,-0.05486,0.05028,-0.0024
44.9752,5302.998,-0.07624,0.16817,-0.01156
45.0005,5303.018,0.01295,0.05516,0.02264
45.0215,5303.038,0.08625,-0.03158,0.099
45.0386,5303.058,0.02822,-0.05723,0.1271
45.0511,5303.078,-0.08601,0.03745,0.09534
45.0769,5303.098,-0.09456,0.07777,0.02936
45.0916,5303.118,-0.00232,0.04906,0.02631
45.1088,5303.138,0.13207,-0.05907,0.0092
45.1284,5303.158,0.15528,-0.09877,0.00371
45.1547,5303.178,0.00684,-0.05662,-0.02012
45.1729,5303.1979,-0.06585,0.10281,-0.04638
45.1916,5303.2179,0.00257,0.12236,-0.04822
45.2143,5303.2379,0.08198,-0.00042,0.02814
45.2365,5303.2579,0.09114,-0.08839,0.07945
45.2756,5303.2779,0.01234,-0.07923,0.07884
45.2893,5303.2979,-0.04325,-0.00226,0.03303
45.3033,5303.3179,-0.02187,0.08998,0.01653
45.3157,5303.3379,0.05938,0.0405,0.04036
45.335,5303.3579,0.13024,-0.04807,0.06601
45.3538,5303.3779,0.08198,-0.07739,0.05807
45.3773,5303.3979,-0.06891,0.00141,-0.00912
45.3919,5303.4179,-0.09762,0.13824,-0.07265
45.4135,5303.4379,0.04166,0.18467,-0.07815
45.4292,5303.4579,0.18949,0.00996,0.00554
45.4501,5303.4779,0.19438,-0.12626,0.07518
45.4697,5303.4979,0.07159,-0.10244,0.08129
45.4918,5303.5179,-0.06524,0.0179,0.02325
45.5178,5303.5379,-0.0854,0.09487,-0.05249
45.5345,5303.5579,-0.0182,0.08082,-0.07204
45.5507,5303.5779,0.04166,0.0063,-0.025
45.5744,5303.5979,0.06182,-0.07923,0.02325
45.5901,5303.6178,0.00257,-0.07251,0.03303
45.6145,5303.6378,-0.02309,0.01118,-0.01523
45.6301,5303.6578,-0.02798,0.11198,-0.14046
45.6492,5303.6778,-0.03775,0.23048,-0.19727
45.6702,5303.6978,-0.07807,0.16084,-0.10564
45.6904,5303.7178,0.02822,-0.02547,0.00798
45.7158,5303.7378,0.1168,-0.07861,0.05807
45.737,5303.7578,0.05571,-0.0328,0.09534
45.7519,5303.7778,-0.05363,-0.06273,0.09961
45.7688,5303.7978,-0.06524,-0.05296,0.08312
45.7959,5303.8178,-0.05608,-0.04441,0.06785
45.8125,5303.8378,-0.00171,-0.02852,0.02387
45.8294,5303.8578,0.07831,-0.08106,-0.03417
45.8491,5303.8778,0.05143,-0.06823,-0.06104
45.8718,5303.8978,-0.09701,-0.0609,-0.06838
45.8906,5303.9178,-0.14588,-0.02669,-0.11053
45.9132,5303.9378,-0.05425,0.05455,-0.13801
45.9321,5303.9578,0.08686,0.05028,-0.11358
45.9543,5303.9778,0.10153,0.00813,-0.00729
45.9702,5303.9978,0.05143,-0.08045,0.04708
46.0112,5304.0177,0.03555,-0.06456,0.01348
46.0128,5304.0377,0.04899,0.0179,-0.07204
46.0275,5304.0577,0.04899,0.13213,-0.06288
46.0502,5304.0777,0.02456,0.0234,0.0031
46.0683,5304.0977,0.05815,-0.10061,0.03364
46.0873,5304.1177,-0.00538,-0.089,0.05197
46.111,5304.1377,-0.07013,0.01302,0.03364
46.1288,5304.1577,-0.03409,0.11014,0.0202
46.1502,5304.1777,0.00257,-0.0102,0.03914
46.1723,5304.1977,0.07159,-0.11832,0.08373
46.1929,5304.2177,0.16444,-0.17086,0.01837
46.2153,5304.2377,0.1284,0.01118,-0.02195
46.2345,5304.2577,0.0496,0.15474,-0.01523
46.2577,5304.2777,0.00867,0.08815,0.01104
46.2749,5304.2977,0.02272,-0.05051,0.04463
46.2969,5304.3177,0.01967,-0.1171,0.04708
46.3153,5304.3377,-0.04936,-0.03158,0.00248
46.331,5304.3577,-0.11778,0.07288,-0.01828
46.3531,5304.3777,-0.06585,0.05272,0.0147
46.3676,5304.3977,0.09481,-0.04318,0.04708
46.3879,5304.4176,0.14795,-0.07312,0.08312
46.4095,5304.4376,0.08748,-0.04746,0.06357
46.4302,5304.4576,-0.05791,0.06677,-0.00179
46.4512,5304.4776,-0.08662,0.07716,-0.0305
46.4719,5304.4976,-0.01882,0.0124,-0.04638
46.4947,5304.5176,0.08809,-0.00959,-0.02745
46.5195,5304.5376,0.11802,-0.02852,0.00615
46.5319,5304.5576,0.02761,-0.01692,0.01653
46.5487,5304.5776,-0.10434,0.02218,0.00371
46.571,5304.5976,-0.09029,-0.00592,-0.01034
46.593,5304.6176,0.02883,0.00019,-0.01279
46.6151,5304.6376,0.07343,-0.01814,0.00615
46.6301,5304.6576,0.0777,-0.04563,0.01043
46.65,5304.6776,0.03494,-0.05113,-0.03539
46.672,5304.6976,-0.06463,0.04722,-0.0812
46.6914,5304.7176,-0.12205,0.09426,-0.07021
46.7134,5304.7376,-0.05913,-0.00287,-0.0305
46.7317,5304.7576,0.04227,-0.10427,-0.00912
46.7526,5304.7776,0.08259,-0.13481,-0.01645
46.7759,5304.7976,-0.02676,-0.02608,-0.03417
46.7981,5304.8175,-0.12144,0.09121,-0.04516
46.8183,5304.8375,-0.0744,0.08082,-0.03233
46.8336,5304.8575,0.0325,-0.0438,0.01226
46.8481,5304.8775,0.12107,-0.13543,0.03364
46.8763,5304.8975,0.08748,-0.01447,0.01409
46.8902,5304.9175,-0.03287,0.0967,-0.01523
46.908,5304.9375,-0.07257,0.12419,-0.02256
46.9279,5304.9575,-0.00415,0.03256,-0.02195
46.9543,5304.9775,0.11496,-0.00775,0.00798
46.9705,5304.9975,0.13329,-0.04868,0.0031
46.992,5305.0175,0.05632,-0.02975,-0.03295
47.0285,5305.0375,-0.0121,-0.03036,-0.06166
47.0379,5305.0575,-0.02859,0.05883,-0.06043
47.0505,5305.0775,0.02517,0.05394,-0.06593
47.0701,5305.0975,0.08137,-0.01875,-0.04211
47.0951,5305.1175,0.02272,-0.00165,0.00065
47.1104,5305.1375,-0.0066,-0.00898,-0.00912
47.1324,5305.1575,0.01051,-0.01386,-0.03844
47.148,5305.1775,0.04044,0.01546,-0.04028
47.1696,5305.1975,0.0496,-0.03158,-0.02989
47.1912,5305.2175,0.00745,-0.04685,0.02264
47.2119,5305.2375,-0.00354,-0.02303,0.0257
47.2355,5305.2574,0.01051,-0.01692,-0.00546
47.2624,5305.2774,0.06426,0.05822,-0.00729
47.2827,5305.2974,0.038,0.04234,0.00982
47.2902,5305.3175,0.00257,-0.01142,0.03914
47.3125,5305.3375,-0.01148,-0.089,0.05074
47.3344,5305.3575,0.01906,-0.07067,0.0257
47.3542,5305.3775,-0.02004,0.00691,-0.01279
47.3709,5305.3976,-0.09151,0.15351,-0.0079
47.3929,5305.4176,-0.04997,0.10587,0.00248
47.4084,5305.4376,0.1113,-0.02913,-0.00362
47.4342,5305.4577,0.11313,-0.08656,0.00798
47.4561,5305.4777,-0.02615,-0.04502,0.01653
47.4703,5305.4977,-0.08968,0.00324,0.01348
47.4905,5305.5177,0.00073,0.01485,-0.00912
47.5107,5305.5378,0.0832,-0.01936,-0.01462
47.5294,5305.5578,0.04044,-0.08045,0.01104
47.5515,5305.5778,-0.0292,-0.10366,0.00065
47.569,5305.5979,-0.02492,-0.0102,-0.01767
47.5915,5305.6179,0.00684,0.0967,-0.01218
47.6253,5305.6379,-0.0011,-0.00348,0.00493
47.6396,5305.6579,0.00928,-0.11527,0.02387
47.6557,5305.678,0.00562,-0.15253,0.0147
47.6751,5305.698,-0.03287,-0.05174,-0.047
47.6908,5305.718,-0.07257,0.08082,-0.07937
47.7105,5305.7381,-0.02859,0.06555,-0.03661
47.7317,5305.7581,0.05815,-0.09999,0.02081
47.7514,5305.7781,0.02089,-0.078,0.01165
47.7692,5305.7981,-0.0964,0.03012,-0.02623
47.791,5305.8182,-0.18864,0.0289,-0.05799
47.8141,5305.8382,-0.24056,-0.05723,-0.07937
47.8306,5305.8582,-0.39022,-0.07128,-0.10808
47.8527,5305.8783,-0.52706,-0.07251,-0.1374
47.8744,5305.8983,-0.31692,-0.12443,-0.11114
47.8969,5305.9183,-0.04386,-0.10733,-0.1429
47.9175,5305.9383,0.05632,0.01057,-0.10564
47.9394,5305.9583,0.06243,0.05211,-0.04638
47.9478,5305.9783,-0.0066,0.08937,0.01104
47.9813,5305.9983,-0.19841,0.08021,-0.01462
47.9882,5306.0183,-0.2821,0.00202,-0.06838
48.0076,5306.0383,-0.20818,-0.13115,-0.10808
48.0287,5306.0583,-0.1135,-0.08533,-0.09648
48.0472,5306.0782,-0.06402,0.04906,-0.04761
48.0698,5306.0982,0.00745,0.02645,-0.01279
48.0901,5306.1182,0.06548,-0.05051,0.01959
48.1099,5306.1382,0.13879,-0.14337,0.02692
48.1319,5306.1582,0.21515,-0.09511,0.02081
48.1534,5306.1782,0.14367,0.09793,-0.02745
48.1739,5306.1982,-0.03164,0.1584,-0.06349
48.1899,5306.2182,-0.05058,0.08754,-0.03783
48.211,5306.2382,0.04838,0.01424,0.01592
48.2315,5306.2582,0.01173,0.04173,0.11122
48.2592,5306.2782,-0.03531,0.04906,0.06479
48.2778,5306.2982,-0.07257,0.0515,0.00248
48.2916,5306.3182,-0.08357,0.00446,0.01043
48.3095,5306.3382,0.05449,-0.0664,0.07212
48.3362,5306.3582,0.20965,-0.08289,0.13199
48.3489,5306.3782,0.10458,0.03867,0.12099
48.3689,5306.3982,0.0044,0.10953,0.05013
48.3918,5306.4182,-0.0011,0.05516,0.00982
48.409,5306.4382,0.02944,0.00874,0.03669
48.4311,5306.4582,0.07709,-0.01264,0.07457
48.4524,5306.4781,0.08748,-0.02242,0.08068
48.4695,5306.4981,0.05754,0.04783,0.05319
48.4882,5306.5181,0.03616,0.02829,-0.01523
48.5131,5306.5381,0.03433,-0.01325,-0.03722
48.5308,5306.5581,0.04166,-0.02669,0.00126
48.5516,5306.5781,0.10214,-0.02913,0.03792
48.5726,5306.5982,0.08442,0.00691,0.04463
48.6002,5306.6182,0.02639,0.01118,0.00248
48.6169,5306.6382,-0.02187,-0.00531,0.00065
48.6338,5306.6582,-0.0518,-0.01203,0.02997
48.6546,5306.6783,-0.02126,-0.03402,0.03181
48.6731,5306.6983,0.03494,-0.00653,0.02448
48.6928,5306.7183,0.09786,0.02462,0.0147
48.7112,5306.7384,0.07953,0.02462,0.03853
48.7311,5306.7584,0.04838,-0.01081,0.03914
48.754,5306.7784,0.00318,-0.04624,0.03486
48.7729,5306.7984,-0.02187,0.00141,-0.00057
48.8046,5306.8185,0.00745,0.08326,-0.02745
48.8166,5306.8385,0.11313,0.05944,-0.03172
48.8353,5306.8585,0.17177,-0.03585,-0.01095
48.8528,5306.8786,0.06915,-0.07067,0.00432
48.8742,5306.8986,-0.08662,-0.01447,-0.04089
48.8951,5306.9186,-0.108,0.06616,-0.08181
48.9155,5306.9386,0.03372,0.05944,-0.05005
48.932,5306.9587,0.08992,-0.02364,0.00554
48.9513,5306.9787,0.06304,-0.12321,0.01959
48.9721,5306.9987,0.04471,-0.1116,-0.00423
48.9942,5307.0187,0.02028,0.02645,-0.02623
49.0126,5307.0388,-0.02309,0.16207,-0.01951
49.0343,5307.0588,-0.02309,0.05944,0.02692
49.0532,5307.0788,0.06365,-0.0719,0.07273
49.0745,5307.0989,0.09358,-0.05357,0.05135
49.0915,5307.1189,0.03433,0.05089,0.02142
49.1136,5307.1389,-0.0628,0.07899,-0.00668
49.1327,5307.1589,-0.10128,0.05333,0.00493
49.1542,5307.179,-0.05058,0.0008,0.01409
49.1808,5307.199,0.04227,-0.02791,-0.0024
49.1979,5307.219,0.10519,-0.0102,-0.02256
49.2145,5307.239,0.05754,-0.01631,-0.01462
49.2357,5307.259,-0.03653,-0.00714,0.01898
49.2602,5307.279,-0.09029,0.00996,0.01226
49.2738,5307.2989,-0.04875,0.02157,-0.0415
49.298,5307.319,-0.02553,0.03989,-0.03172
49.3117,5307.339,0.00806,0.00385,0.01592
49.3335,5307.359,0.00806,-0.01997,0.05563
49.3513,5307.3791,0.02089,-0.0218,0.03792
49.373,5307.3991,-0.00415,-0.01386,0.01837
49.3943,5307.4191,-0.05669,-0.01142,0.01165
49.4122,5307.4392,-0.02798,-0.00775,0.01531
49.4324,5307.4593,0.05266,-0.00042,0.00493
49.4569,5307.4793,0.07281,-0.00287,0.01837
49.4734,5307.4994,0.0661,-0.04441,0.02936
49.4906,5307.5195,0.03922,-0.04624,0.02081
49.5145,5307.5395,0.027,0.04295,0.02387
49.5325,5307.5596,0.07831,0.05761,0.02875
49.5543,5307.5796,0.11008,0.02035,0.06479
49.5736,5307.5997,0.08809,-0.05479,0.099
49.5935,5307.6198,0.12352,-0.08228,0.07518
49.6151,5307.6398,0.08381,0.01485,0.05258
49.6323,5307.6599,0.02395,0.08693,0.03425
49.6547,5307.68,0.00501,0.0234,0.01715
49.6741,5307.7,0.00623,-0.04135,0.01653
49.6938,5307.7201,-0.00599,-0.07495,-0.00607
49.7186,5307.7401,-0.01515,0.00568,-0.04822
49.7332,5307.7602,0.01356,0.1022,-0.08426
49.7509,5307.7803,0.02272,0.10648,-0.07754
49.7723,5307.8003,0.00501,-0.04196,-0.05799
49.7936,5307.8204,0.00501,-0.10733,-0.03783
49.8135,5307.8404,-0.0182,-0.05479,-0.02073
49.8476,5307.8605,-0.02065,0.01057,-0.02073
49.8546,5307.8806,-0.0011,0.06372,-0.02623
49.8759,5307.9006,-0.04814,0.05455,4e-05
49.8968,5307.9207,-0.06096,-0.09389,0.01776
49.9121,5307.9407,-0.01637,-0.10549,0.00554
49.9305,5307.9607,0.03616,0.01302,-0.01156
49.9783,5307.9807,0.04777,0.08265,-0.01034
49.9842,5308.0008,0.04044,-0.00165,-0.01218
49.9969,5308.0208,0.01112,-0.10427,-0.02684
50.0119,5308.0408,-0.02553,-0.03891,-0.04333
50.0305,5308.0608,-0.01148,0.06921,-0.06349
50.0497,5308.0808,0.00745,0.09426,-0.04333
50.0746,5308.1008,0.05266,-0.0102,0.0031
50.0914,5308.1207,0.07465,-0.06701,0.03608
50.1108,5308.1407,0.03922,-0.04746,0.01226
50.1324,5308.1607,-0.02492,0.10281,-0.00668
50.1504,5308.1807,-0.01759,0.08082,0.00432
50.1707,5308.2007,0.0887,-0.01875,0.04463
50.1923,5308.2207,0.15284,-0.12809,0.04463
50.2097,5308.2407,0.08625,-0.09144,0.00126
50.2323,5308.2607,-0.04325,0.057,-0.025
50.2653,5308.2807,-0.07257,0.09426,-0.02928
50.2723,5308.3007,0.01784,0.00996,-0.02378
50.292,5308.3207,0.05815,-0.08778,4e-05
50.3266,5308.3407,0.05999,-0.0554,-0.01279
50.3337,5308.3607,-0.03287,0.00996,-0.05188
50.3525,5308.3807,-0.0628,0.04295,-0.06166
50.3719,5308.4007,0.00928,0.01607,-0.025
50.3921,5308.4207,0.07343,-0.03341,0.01043
50.4128,5308.4407,0.0606,-0.03769,0.00493
50.4347,5308.4607,0.00745,-0.02058,-0.01706
50.4548,5308.4807,-0.03409,-0.01692,-0.03722
50.4713,5308.5007,-0.05669,0.04539,-0.02195
50.5,5308.5206,0.02211,0.02584,0.00371
50.5294,5308.5406,0.12046,-0.03524,0.0031
50.5425,5308.5606,0.07709,-0.04074,0.00737
50.5594,5308.5806,0.00012,-0.00653,-0.00057
50.5723,5308.6006,-0.04386,0.07044,-0.04333
50.5902,5308.6206,-0.00538,0.15412,-0.05066
50.6154,5308.6406,0.05082,0.02462,-0.02439
50.6358,5308.6606,0.07281,-0.09328,0.01226
50.6554,5308.6806,0.04288,-0.09144,-0.01218
50.6776,5308.7006,-0.03409,0.0234,-0.06349
50.6987,5308.7206,-0.05791,0.03745,-0.07815
50.7168,5308.7406,-0.08845,-0.00714,-0.04211
50.7382,5308.7606,-0.0854,-0.04013,0.01531
50.7583,5308.7806,0.02761,-0.06273,-0.01279
50.7819,5308.8006,0.06793,-0.01814,-0.03539
50.7939,5308.8206,-0.02126,0.0179,-0.0305
50.817,5308.8406,-0.06402,0.05761,0.01287
50.8303,5308.8606,0.03189,-0.01997,0.03486
50.8522,5308.8806,0.1449,-0.05051,0.01226
50.8707,5308.9006,0.12779,-0.06884,-0.00973
50.8964,5308.9206,0.03372,0.00019,-0.04272
50.9168,5308.9405,-0.01454,0.07471,-0.03844
50.9339,5308.9605,0.05266,0.05455,-0.01462
50.9565,5308.9805,0.09786,-0.01692,-0.00485
50.9851,5309.0005,0.02456,0.00141,0.01043
50.9931,5309.0205,-0.03348,0.02706,0.00798
51.0146,5309.0405,0.00684,-0.01508,0.00126
51.0347,5309.0605,0.07953,-0.04807,-0.01218
51.054,5309.0805,0.11558,-0.01631,-0.02317
51.0704,5309.1005,0.05938,0.03256,0.00065
51.0929,5309.1205,-0.00415,0.02768,-0.01279
51.1124,5309.1405,-0.0237,-0.02547,-0.04822
51.1349,5309.1605,0.01234,-0.04746,-0.07143
51.1568,5309.1805,0.05082,-0.06456,-0.07754
51.1744,5309.2005,-0.00415,-0.00714,-0.03172
51.1943,5309.2205,-0.07501,0.02279,-0.03172
51.2171,5309.2405,-0.05119,0.03806,-0.02928
51.2476,5309.2605,0.03555,-0.05846,-0.02989
51.2812,5309.2805,0.07465,-0.06823,-0.0024
51.3012,5309.3005,0.01845,-0.05418,-0.02317
51.3219,5309.3205,-0.03103,0.03317,-0.03417
51.3242,5309.3405,0.00928,-0.0102,-0.03172
51.3371,5309.3605,-0.03164,-0.00042,-0.03844
51.3535,5309.3805,-0.06646,0.05822,-0.01584
51.3735,5309.4004,-0.05363,-0.01447,-0.00057
51.3938,5309.4205,0.04716,0.00263,0.0092
51.411,5309.4405,0.12657,0.00507,0.02875
51.4312,5309.4605,0.11252,0.00263,0.00859
51.4529,5309.4806,0.04838,-0.01264,-0.00423
51.4728,5309.5006,-0.02431,0.00691,-0.01462
51.4946,5309.5206,0.00318,0.00202,-0.0189
51.5197,5309.5406,0.05999,-0.01936,-0.02134
51.5348,5309.5607,0.05938,0.01302,4e-05
51.554,5309.5807,0.04533,-0.01692,4e-05
51.5746,5309.6007,0.02211,-0.04074,-0.0189
51.5933,5309.6208,-0.0573,-0.02791,-0.02378
51.6141,5309.6408,-0.0463,-0.03891,-0.02745
51.6409,5309.6608,0.03311,-0.02913,-0.04394
51.6526,5309.6808,0.03738,-0.01814,-0.04028
51.6716,5309.7009,0.00928,0.03989,-0.04028
51.6935,5309.7209,-0.0121,0.05394,-0.03722
51.716,5309.7409,0.00134,0.02157,-0.00423
51.7398,5309.761,0.04166,-0.03585,0.05991
51.7577,5309.781,0.08137,-0.07678,0.09595
51.779,5309.801,0.07343,-0.07373,0.08617
51.7972,5309.821,0.05449,-0.09389,0.0483
51.8154,5309.8411,-0.01943,-0.05296,0.0312
51.8353,5309.8611,-0.07379,-0.00837,-0.01951
51.8534,5309.8811,-0.02431,0.08449,-0.05066
51.8727,5309.9012,0.0325,0.01607,-0.06654
51.8996,5309.9212,0.04471,-0.02303,-0.06349
51.9123,5309.9412,0.04838,-0.07495,-0.04089
51.9645,5309.9612,0.09908,-0.02669,-0.05616
51.966,5309.9813,0.13879,0.13458,-0.13191
51.9705,5310.0013,0.13573,0.18894,-0.18505
51.9916,5310.0213,0.09297,0.16084,-0.22231
52.0102,5310.0413,0.07953,0.13458,-0.23087
52.0302,5310.0613,0.06243,0.04356,-0.20399
52.0525,5310.0813,-0.10311,-0.0554,-0.10869
52.0731,5310.1013,-0.25094,-0.17147,-0.03966
52.0942,5310.1213,-0.19108,-0.12871,0.00737
52.1133,5310.1413,-0.09273,-0.11343,0.07884
52.1309,5310.1612,0.08931,-0.05296,0.07823
52.152,5310.1812,0.22797,0.04783,0.04097
52.1758,5310.2012,0.2573,0.09609,-0.02378
52.2034,5310.2212,0.18033,0.13824,-0.07265
52.2234,5310.2412,0.09236,0.11625,-0.11053
52.2483,5310.2612,0.05021,0.08388,-0.10319
52.2742,5310.2812,0.06426,0.0234,-0.07204
52.2824,5310.3012,0.09419,0.01302,0.00859
52.2945,5310.3212,0.07465,0.03073,0.06113
52.3178,5310.3412,0.03189,0.08937,0.11733
52.3379,5310.3612,0.07159,0.03684,0.16253
52.3556,5310.3812,0.12535,-0.00592,0.15276
52.3738,5310.4012,0.04105,-0.07434,0.11855
52.3916,5310.4213,-0.01759,-0.06884,0.04952
52.4149,5310.4413,-0.01637,-0.0328,-0.03905
52.433,5310.4613,-0.02126,-0.02486,-0.08609
52.4578,5310.4813,-0.05852,-0.03524,-0.09892
52.4741,5310.5014,-0.09762,-0.02791,-0.08181
52.4996,5310.5214,-0.05363,-0.01875,-0.07509
52.523,5310.5414,-0.01393,0.06738,-0.06654
52.5449,5310.5615,-0.00477,0.04722,-0.02867
52.5551,5310.5815,-0.03287,-0.0218,0.00554
52.5749,5310.6015,-0.06341,-0.00959,0.0312
52.5975,5310.6215,-0.00843,0.00935,0.05685
52.6133,5310.6416,0.0722,0.01057,0.0874
52.6343,5310.6616,0.08137,-0.00775,0.10267
52.6563,5310.6816,0.03372,0.01179,0.08068
52.6778,5310.7017,-0.01576,0.01851,0.03975
52.6988,5310.7217,-0.0182,-0.01203,0.00187
52.7189,5310.7417,0.05693,0.01607,-0.02073
52.7376,5310.7617,0.11313,0.09487,-0.0189
52.7572,5310.7818,0.07648,0.00324,-0.00607
52.781,5310.8018,-0.01026,-0.05174,0.00493
52.8005,5310.8218,-0.05058,-0.05723,-0.01462
52.8172,5310.8419,0.05021,-0.01875,-0.03661
52.8447,5310.8619,0.10153,0.03073,-0.00546
52.8609,5310.8819,0.05815,-0.01753,0.05991
52.88,5310.9019,0.01906,-0.05662,0.08312
52.8968,5310.922,-0.00477,-0.05418,0.05624
52.915,5310.942,-0.01759,-0.00226,-0.01156
52.9331,5310.962,-0.02065,0.05944,-0.04822
52.9538,5310.982,0.02883,0.03501,-0.036
52.9808,5311.002,0.09664,-0.01814,0.01104
52.9961,5311.022,0.12107,-0.00042,0.03364
53.0154,5311.042,0.03738,0.04783,0.02753
53.0332,5311.062,-0.05669,0.02951,-0.0079
53.053,5311.082,-0.05302,-0.02486,-0.06288
53.0785,5311.102,-0.0237,-0.02119,-0.08243
53.0994,5311.122,0.01784,0.01302,-0.09342
53.118,5311.142,-0.06585,0.05761,-0.06532
53.1374,5311.162,-0.24911,0.1248,-0.10319
53.1536,5311.182,-0.23567,0.09854,-0.10258
53.1719,5311.202,-0.08723,0.00568,-0.04089
53.1943,5311.222,-0.01148,-0.03769,0.06296
53.2127,5311.242,-0.09884,-0.01753,0.12649
53.247,5311.262,-0.15015,0.03867,0.11183
53.2776,5311.282,-0.06035,0.00324,0.08495
53.3113,5311.302,0.09481,-0.05235,0.09656
53.3154,5311.322,0.162,-0.0664,0.09717
53.3195,5311.342,0.12352,-0.02975,0.05624
53.3327,5311.362,0.06487,0.00691,0.00982
53.3558,5311.3821,0.01234,-0.02547,-0.04455
53.3768,5311.4021,0.00562,0.0289,-0.03905
53.3951,5311.4222,0.02761,-0.07312,-0.0531
53.4144,5311.4423,-0.01576,-0.05174,-0.05677
53.4374,5311.4623,-0.10373,-0.07006,-0.05249
53.4545,5311.4824,-0.2656,0.00141,-0.03905
53.4743,5311.5025,-0.25278,-0.03769,-0.04883
53.4943,5311.5225,-0.01698,-0.09877,-0.00851
53.5197,5311.5426,0.26768,-0.14764,0.01959
53.5364,5311.5626,0.29639,-0.15375,0.04647
53.5577,5311.5827,0.14123,-0.1226,0.00859
53.5737,5311.6028,0.01539,-0.07739,-0.05005
53.5933,5311.6228,-0.02004,-0.02486,-0.0696
53.6147,5311.6429,0.01051,-0.00103,-0.09098
53.6354,5311.6629,0.06548,0.01485,-0.08365
53.6563,5311.683,0.05021,-0.03402,-0.06776
53.6791,5311.7031,0.00623,-0.02242,-0.047
53.6946,5311.7231,-0.01393,-0.07312,-0.01034
53.713,5311.7432,-0.04081,-0.04074,-0.00179
53.7373,5311.7633,-0.04753,0.04417,-0.025
53.7554,5311.7833,0.01845,-0.00592,-0.00729
53.7782,5311.8034,0.08503,-0.09633,0.05685
53.7955,5311.8234,0.06854,-0.12871,0.09106
53.8137,5311.8435,0.03311,-0.07678,0.05319
53.8341,5311.8636,-0.00293,0.06921,-0.01584
53.856,5311.8836,-0.02859,0.08937,-0.04577
53.8743,5311.9037,0.01173,-0.01814,-0.03478
53.9085,5311.9237,0.04349,-0.08961,-0.01218
53.9176,5311.9438,0.05754,-0.05357,-0.00973
53.974,5311.9638,0.02761,0.03806,-0.01828
53.977,5311.9838,-0.02065,0.06066,-0.0189
53.9792,5312.0038,-0.02859,-0.04135,0.00126
53.9951,5312.0238,0.01356,-0.12932,0.02142
54.0127,5312.0438,0.0325,-0.13848,0.03425
54.0351,5312.0638,0.01478,-0.02303,0.02814
54.0533,5312.0838,0.01661,0.04661,0.01592
54.0745,5312.1038,0.038,-0.00837,0.00371
54.0962,5312.1238,0.01661,-0.08411,0.00615
54.1156,5312.1438,-0.03958,-0.0609,0.02692
54.1355,5312.1638,0.00257,-0.05051,0.01043
54.1591,5312.1838,0.05999,0.00568,-0.04028
54.1852,5312.2038,0.06426,0.0625,-0.04822
54.1951,5312.2237,0.0099,-0.02242,-0.04028
54.2165,5312.2437,-0.02126,-0.0102,-0.02806
54.2357,5312.2637,0.02272,-0.03036,-0.0641
54.2625,5312.2837,-0.04325,0.01668,-0.08548
54.2776,5312.3037,-0.09151,0.0179,-0.0641
54.3021,5312.3237,-0.02065,-0.04563,-0.03661
54.3152,5312.3437,0.09481,-0.04441,-0.01767
54.338,5312.3637,0.09481,-0.04868,0.00187
54.3554,5312.3837,-0.01271,-0.05785,-0.0024
54.3734,5312.4037,-0.09884,-0.0218,-0.01095
54.3945,5312.4237,-0.09762,0.03745,-0.02073
54.4145,5312.4437,0.02944,0.02768,-0.02378
54.4345,5312.4637,0.0887,-0.02425,0.00554
54.4578,5312.4837,0.0606,-0.04502,0.01898
54.4738,5312.5037,0.03066,0.06921,-0.02623
54.4961,5312.5237,-0.00415,0.17489,-0.04822
54.5147,5312.5437,0.00806,0.14008,-0.02561
54.5333,5312.5637,0.0496,0.02279,0.01898
54.5562,5312.5837,0.04594,-0.07984,0.02814
54.578,5312.6037,-0.00171,-0.04746,0.04158
54.5976,5312.6237,-0.04814,0.0063,0.01715
54.6176,5312.6438,-0.01637,0.12603,0.01653
54.6398,5312.6638,0.02944,-0.00653,0.01776
54.6585,5312.6838,0.03494,-0.07739,0.0428
54.6824,5312.7039,0.0044,-0.10855,0.05197
54.6993,5312.7239,-0.02737,-0.05051,0.02753
54.7204,5312.7439,-0.0573,0.03378,-0.01523
54.7363,5312.7639,-0.04081,0.10159,-0.03233
54.76,5312.784,-0.01393,-0.00592,-0.00485
54.7764,5312.804,-0.01515,-0.11893,0.03486
54.7969,5312.824,-0.0121,-0.11038,0.04036
54.8178,5312.8441,-0.0402,-0.03891,0.04402
54.8356,5312.8641,-0.03348,0.06983,0.03303
54.8555,5312.8841,-0.02248,0.05761,0.03547
54.8779,5312.9041,0.01112,-0.06762,0.05258
54.9,5312.9242,0.04838,-0.14764,0.04525
54.9194,5312.9442,0.04471,-0.11588,0.01226
54.9401,5312.9642,-0.0066,-0.00042,-0.01462
54.959,5312.9843,-0.05669,0.0741,-0.02928
54.9773,5313.0043,-0.0402,0.07532,-0.02439
54.9983,5313.0243,0.05815,-0.0554,-0.00851
55.0161,5313.0443,0.11008,-0.12748,0.00982
55.0381,5313.0644,0.038,-0.04807,0.03486
55.0639,5313.0844,-0.00843,0.01546,0.0257
55.0842,5313.1044,-0.05547,0.09243,0.01837
55.0974,5313.1245,-0.04264,-0.01142,0.01837
55.1167,5313.1445,0.0325,-0.14214,0.01348
55.1351,5313.1645,0.04105,-0.15558,-0.00057
55.1569,5313.1845,0.01906,-0.00775,-0.02745
55.1789,5313.2045,0.00745,0.07899,-0.03539
55.1999,5313.2245,0.03066,-0.00348,-0.04272
55.2208,5313.2445,-0.01332,-0.05357,-0.03539
55.2491,5313.2645,-0.04508,-0.09877,-0.06532
55.2668,5313.2845,-0.00354,-0.05968,-0.10197
55.2797,5313.3045,0.05876,0.04478,-0.11114
55.2974,5313.3245,0.07526,0.09059,-0.07876
55.3222,5313.3445,-0.0066,0.0179,-0.00729
55.3394,5313.3645,-0.05791,-0.04135,0.0257
55.3602,5313.3845,0.00379,-0.06762,0.01043
55.3752,5313.4045,0.07159,0.01363,-0.0189
55.3966,5313.4245,0.0215,0.04539,-0.01279
55.4189,5313.4445,-0.04325,-0.03341,0.02142
55.4408,5313.4645,-0.10311,-0.06029,0.01531
55.4586,5313.4845,-0.07501,0.04967,-0.05677
55.4848,5313.5046,0.00012,0.05944,-0.11541
55.4998,5313.5246,0.0099,0.02706,-0.12702
55.5205,5313.5446,-0.00171,-0.02425,-0.10319
55.5379,5313.5646,-0.00354,-0.04807,-0.07998
55.556,5313.5847,0.05021,-0.0328,-0.07693
55.5805,5313.6047,0.03922,-0.01875,-0.04394
55.6038,5313.6247,-0.01515,0.05516,-0.00118
55.6318,5313.6448,0.0215,0.03501,0.00615
55.6435,5313.6648,0.04288,-0.07556,0.0764
55.6614,5313.6848,-0.05363,-0.10733,0.11794
55.683,5313.7048,-0.14221,0.00507,0.08251
55.7096,5313.7249,-0.08357,0.16879,0.01043
55.726,5313.7449,0.03922,0.05455,0.01959
55.7397,5313.7649,0.12535,-0.09511,0.09656
55.7551,5313.785,0.09175,-0.07251,0.10816
55.7773,5313.805,-0.03164,0.10648,0.03669
55.7962,5313.825,-0.09334,0.18284,0.00432
55.8163,5313.845,-0.0182,0.06005,0.03486
55.8386,5313.8651,0.06548,-0.11588,0.08312
55.8564,5313.8851,0.08748,-0.08045,0.05746
55.8762,5313.9051,0.03372,0.09243,0.02448
55.9034,5313.9252,-0.05119,0.1584,0.01653
55.9168,5313.9452,-0.06952,0.10159,0.0257
55.9648,5313.9652,-0.0011,-0.00348,0.02203
55.97,5313.9852,0.06182,-0.05296,0.03547
55.9798,5314.0053,0.03066,-0.02119,0.01653
55.9963,5314.0253,-0.00049,0.08998,0.01348
56.0178,5314.0453,0.01539,0.0967,0.00798
56.0351,5314.0653,0.00684,0.03195,0.03303
56.0547,5314.0853,-0.00843,-0.0328,0.05502
56.08,5314.1053,0.01173,-0.00837,0.04402
56.097,5314.1253,0.05938,0.05272,0.00432
