AppTimestamp(s),SensorTimestamp(s),gyro_x,gyro_y,gyro_z
0.0691,68102.1249,-0.81856,0.12217,0.02688
0.0715,68102.1349,-0.89247,-0.08186,0.00977
0.0734,68102.1449,-0.79229,-0.31826,-0.09896
0.0763,68102.1549,-0.54917,-0.48869,-0.29322
0.0776,68102.165,-0.27978,-0.65179,-0.52718
0.0798,68102.1749,-0.1967,-0.7477,-0.65179
0.0813,68102.1849,-0.25901,-0.70066,-0.63591
0.0835,68102.1949,-0.39034,-0.60353,-0.56566
0.0848,68102.2049,-0.54489,-0.47037,-0.44654
0.0871,68102.2149,-0.61087,-0.562,-0.21502
0.0886,68102.225,-0.57727,-0.27122,-0.35552
0.1022,68102.2349,-0.30482,0.20647,-0.49602
0.1083,68102.2449,-0.0171,0.26756,-0.45265
0.1251,68102.2549,0.146,0.18631,-0.27061
0.1309,68102.2649,0.23091,0.18692,-0.03482
0.1585,68102.2749,0.21869,0.03726,0.13317
0.1594,68102.2849,0.135,-0.44166,0.29505
0.1604,68102.2949,0.09774,-0.77213,0.34697
0.1949,68102.3049,0.10934,-0.95478,0.30116
0.1973,68102.3149,0.10568,-1.0458,0.21625
0.1989,68102.3249,0.06231,-0.89492,0.02566
0.2001,68102.3349,-0.12278,-0.30482,-0.11301
0.2087,68102.3449,-0.13561,0.36408,-0.20159
0.2161,68102.3549,-0.16432,0.42516,-0.14294
0.2327,68102.3649,-0.10812,0.3146,-0.02688
0.2361,68102.3749,0.00061,0.1576,0.12523
0.248,68102.3849,0.16799,-0.13256,0.35919
0.2561,68102.3949,0.29505,-0.31154,0.52168
0.2692,68102.4049,0.43616,-0.40867,0.65424
0.2762,68102.4149,0.56627,-0.34331,0.74892
0.2886,68102.4249,0.75564,0.05192,0.87598
0.2961,68102.4349,0.93829,0.70555,1.03786
0.309,68102.4449,1.1808,0.86132,1.18997
0.3237,68102.4549,1.24128,0.67989,1.28404
0.3327,68102.4649,1.21623,0.70433,1.36773
0.3387,68102.4759,1.13438,0.73365,1.44347
0.355,68102.4859,1.02748,0.7251,1.50395
0.359,68102.4959,0.95417,0.76297,1.52533
0.3702,68102.5059,0.87781,0.8436,1.53999
0.3778,68102.5159,0.82711,0.9615,1.5571
0.3931,68102.5259,0.78252,1.1356,1.59741
0.4043,68102.5359,0.74037,1.31336,1.63223
0.4103,68102.5459,0.6805,1.59191,1.65789
0.4186,68102.5569,0.64568,1.78495,1.68416
0.4308,68102.5669,0.5791,1.98165,1.72142
0.4387,68102.5769,0.49236,2.08366,1.73913
0.4558,68102.5869,0.30482,2.15086,1.74341
0.4592,68102.5969,0.08063,2.14292,1.7318
0.4756,68102.6069,-0.21686,2.11787,1.67683
0.4794,68102.6169,-0.42028,2.12825,1.60169
0.5028,68102.6269,-0.61514,2.24004,1.45264
0.5054,68102.6369,-0.73609,2.38604,1.23945
0.5141,68102.6469,-0.8656,2.49355,0.92057
0.5203,68102.6569,-0.99143,2.49111,0.66462
0.5371,68102.6669,-1.20279,2.38299,0.41172
0.5456,68102.6769,-1.41721,2.25837,0.31337
0.5563,68102.6869,-1.65728,2.10138,0.34575
0.5588,68102.6969,-1.8161,1.89551,0.4215
0.5703,68102.7069,-1.87352,1.64017,0.49847
0.5784,68102.7169,-1.85703,1.40804,0.52595
0.5962,68102.7269,-1.75807,1.20768,0.52595
0.5983,68102.7369,-1.64262,1.00304,0.52229
0.6103,68102.7469,-1.50578,0.70677,0.53756
0.6187,68102.7569,-1.39338,0.43921,0.55833
0.6312,68102.7669,-1.24494,0.02749,0.54734
0.6388,68102.7769,-1.10506,-0.31093,0.43616
0.66,68102.7869,-0.93646,-0.551,0.22052
0.6712,68102.7969,-0.82528,-0.72632,0.0336
0.6833,68102.8069,-0.72876,-0.99571,-0.16738
0.6872,68102.8169,-0.67684,-1.21807,-0.28466
0.6967,68102.8269,-0.62797,-1.4337,-0.34453
0.704,68102.8369,-0.56016,-1.59497,-0.32132
0.7191,68102.8469,-0.41417,-1.79717,-0.24312
0.7215,68102.8569,-0.22602,-2.05495,-0.16188
0.7314,68102.8669,-0.00061,-2.35855,-0.14355
0.7475,68102.8769,0.18692,-2.50577,-0.24435
0.7541,68102.8869,0.32926,-2.52165,-0.42761
0.7584,68102.8969,0.40256,-2.39704,-0.66157
0.7711,68102.9069,0.37202,-2.15086,-0.90042
0.7784,68102.9169,0.26023,-1.90895,-1.05435
0.7952,68102.9269,0.12645,-1.74402,-1.16187
0.8023,68102.9369,0.04093,-1.64628,-1.18447
0.8122,68102.9469,0.04093,-1.57542,-1.17836
0.8188,68102.9569,0.15638,-1.51006,-1.17164
0.8415,68102.9669,0.3879,-1.44409,-1.19302
0.8434,68102.9769,0.59437,-1.39399,-1.24494
0.853,68102.9869,0.85765,-1.36895,-1.35979
0.8601,68102.9969,1.03297,-1.39766,-1.47219
0.8712,68103.0069,1.1527,-1.46974,-1.58397
0.8811,68103.0169,1.19119,-1.54793,-1.64384
0.8963,68103.0279,1.20463,-1.65239,-1.69332
0.9002,68103.0379,1.22173,-1.70981,-1.71042
0.9116,68103.0479,1.28404,-1.75563,-1.73119
0.9202,68103.0579,1.36101,-1.76968,-1.75318
0.9333,68103.0689,1.47829,-1.76601,-1.81366
0.9408,68103.0789,1.54305,-1.74158,-1.86314
0.9529,68103.0889,1.57359,-1.7147,-1.89551
0.9607,68103.0989,1.56504,-1.68477,-1.88818
0.9816,68103.1089,1.54915,-1.63895,-1.84726
0.9968,68103.1189,1.53144,-1.59253,-1.78434
0.9998,68103.1289,1.51189,-1.54488,-1.69637
1.0046,68103.1389,1.49418,-1.48624,-1.62185
1.0129,68103.1489,1.43614,-1.4166,-1.50578
1.0207,68103.1589,1.35123,-1.38361,-1.383
1.0344,68103.1689,1.22173,-1.36467,-1.22662
1.0432,68103.1789,1.07085,-1.34329,-1.07696
1.0635,68103.1889,0.86987,-1.3042,-0.94501
1.0746,68103.1989,0.62675,-1.2651,-0.85277
1.0774,68103.2089,0.32315,-1.1692,-0.81428
1.0812,68103.2189,0.03543,-1.05313,-0.832
1.1031,68103.2289,-0.26817,-0.89309,-0.86499
1.1049,68103.2389,-0.5846,-0.70433,-0.89614
1.1142,68103.2489,-0.9279,-0.53206,-0.90958
1.1254,68103.2589,-1.19913,-0.37568,-0.90591
1.1332,68103.2689,-1.44531,-0.17837,-0.91385
1.1409,68103.2789,-1.58703,-0.05559,-0.93585
1.1539,68103.2899,-1.72875,0.01405,-0.95112
1.1613,68103.2999,-1.79533,0.05864,-0.93218
1.1747,68103.3099,-1.82465,0.08796,-0.8882
1.1811,68103.3199,-1.81793,0.10324,-0.81856
1.1991,68103.3299,-1.80144,0.05803,-0.71349
1.203,68103.3399,-1.79839,-0.01588,-0.58277
1.2204,68103.3509,-1.82832,-0.09652,-0.34636
1.2245,68103.3609,-1.8778,-0.09468,-0.13134
1.2397,68103.3709,-1.91934,-0.02627,0.16249
1.2443,68103.3809,-1.95782,0.15272,0.37935
1.263,68103.3909,-2.02013,0.45693,0.53206
1.2678,68103.4009,-2.10138,0.74037,0.60964
1.2808,68103.4109,-2.25715,0.99021,0.67928
1.2853,68103.4209,-2.39093,1.12277,0.74831
1.3015,68103.4309,-2.50394,1.17592,0.85277
1.3088,68103.4409,-2.51188,1.16431,0.93096
1.3255,68103.4509,-2.34267,1.16553,0.98227
1.3393,68103.4609,-2.13558,1.19668,0.93829
1.3402,68103.4719,-1.76174,1.22417,0.83444
1.3474,68103.4819,-1.49357,1.18935,0.78863
1.3559,68103.4919,-1.14293,1.04947,0.79657
1.364,68103.5019,-0.79535,0.87842,0.87537
1.378,68103.5119,-0.32009,0.72693,1.02809
1.385,68103.5219,0.09652,0.64202,1.16003
1.3993,68103.5329,0.70188,0.61453,1.31886
1.4062,68103.5429,1.1301,0.63225,1.4001
1.4196,68103.5529,1.48074,0.66706,1.45203
1.426,68103.5629,1.63834,0.72021,1.48135
1.4395,68103.5729,1.72997,0.78496,1.50273
1.4466,68103.5829,1.72508,0.83627,1.50334
1.462,68103.5939,1.66766,0.86621,1.51556
1.4682,68103.6039,1.61268,0.90958,1.52044
1.481,68103.6139,1.53083,1.00243,1.52777
1.4872,68103.6239,1.47341,1.1075,1.51739
1.5023,68103.6349,1.40988,1.20402,1.50273
1.5094,68103.6449,1.3885,1.20768,1.49845
1.5214,68103.6549,1.39644,1.1808,1.51617
1.5291,68103.6659,1.4282,1.18569,1.54488
1.5428,68103.6759,1.42759,1.29381,1.53266
1.5534,68103.6859,1.38727,1.49173,1.50762
1.5644,68103.6959,1.29565,1.67072,1.48379
1.5679,68103.7059,1.16981,1.7202,1.47463
1.5834,68103.7159,0.98044,1.69698,1.50273
1.5934,68103.7259,0.74709,1.62001,1.56443
1.5999,68103.7359,0.47831,1.46913,1.69149
1.6076,68103.7459,0.24435,1.37811,1.83137
1.6218,68103.7559,0.01649,1.30847,2.01647
1.6277,68103.7659,-0.12645,1.27854,2.1704
1.6421,68103.7759,-0.23763,1.27304,2.35305
1.6541,68103.7859,-0.28283,1.40194,2.45629
1.6609,68103.7959,-0.29688,1.80816,2.4178
1.6713,68103.8059,-0.33537,2.2205,2.215
1.6869,68103.8159,-0.52351,2.68475,1.88391
1.6891,68103.8259,-0.73915,2.80021,1.63162
1.7003,68103.8359,-1.02381,2.73851,1.44042
1.7083,68103.8459,-1.21196,2.57968,1.41782
1.7241,68103.8559,-1.28404,2.3781,1.45142
1.736,68103.8659,-1.27182,2.14963,1.45447
1.7445,68103.8759,-1.20035,1.8949,1.37384
1.7555,68103.8859,-1.10444,1.70065,1.27182
1.7669,68103.8959,-0.99754,1.52655,1.17408
1.7713,68103.9059,-0.90652,1.32863,1.07879
1.7822,68103.9159,-0.84422,1.04091,0.96395
1.788,68103.9259,-0.83872,0.73182,0.85277
1.8007,68103.9359,-0.81489,0.41905,0.73731
1.8117,68103.9459,-0.75442,0.25168,0.6579
1.8247,68103.9559,-0.6579,0.1014,0.53634
1.8278,68103.9659,-0.57605,-0.0226,0.38301
1.8583,68103.9759,-0.52657,-0.1857,0.22235
1.8669,68103.9859,-0.52229,-0.32803,0.13928
1.8682,68103.9959,-0.54062,-0.54795,0.11545
1.8695,68104.0059,-0.55711,-0.72693,0.15882
1.8831,68104.0159,-0.53817,-0.97433,0.24862
1.8956,68104.0259,-0.47037,-1.19058,0.31093
1.9005,68104.0359,-0.35736,-1.44347,0.28833
1.9086,68104.0459,-0.24007,-1.6133,0.15577
1.9209,68104.0559,-0.14539,-1.76845,-0.09346
1.9286,68104.0659,-0.10629,-1.84665,-0.33231
1.9441,68104.0759,-0.1295,-1.8778,-0.52779
1.9514,68104.0859,-0.17226,-1.93889,-0.65301
1.9629,68104.0959,-0.19914,-2.02746,-0.71593
1.9677,68104.1059,-0.14294,-2.14658,-0.76908
1.9852,68104.1159,-0.00489,-2.19911,-0.8937
1.9875,68104.1259,0.10934,-2.15758,-1.04091
1.9998,68104.1359,0.22235,-2.05006,-1.24067
2.0187,68104.1459,0.2755,-1.89307,-1.37384
2.0199,68104.1559,0.2981,-1.69271,-1.45569
2.0311,68104.1659,0.31215,-1.57786,-1.47707
2.0439,68104.1759,0.36285,-1.54549,-1.50029
2.0489,68104.1859,0.43188,-1.62063,-1.52105
2.0635,68104.1959,0.55161,-1.77273,-1.54427
2.089,68104.2059,0.65607,-1.93278,-1.54305
2.0897,68104.2158,0.80084,-2.18445,-1.51922
2.0925,68104.2259,0.95051,-2.45018,-1.49662
2.0999,68104.2359,1.14415,-2.75806,-1.48562
2.1078,68104.2459,1.30359,-2.99935,-1.4954
2.1196,68104.2559,1.45997,-3.19238,-1.51189
2.1271,68104.2658,1.52411,-3.31394,-1.51983
2.1387,68104.2759,1.55343,-3.31639,-1.56443
2.1471,68104.2859,1.49967,-3.20277,-1.64873
2.1587,68104.2959,1.36528,-2.97736,-1.79961
2.167,68104.3059,1.1918,-2.74584,-1.95538
2.1787,68104.3159,0.87598,-2.37382,-2.17712
2.1871,68104.3259,0.55955,-2.01586,-2.33778
2.1994,68104.3359,0.20036,-1.65178,-2.4569
2.2071,68104.3459,-0.04643,-1.44225,-2.5131
2.2216,68104.3559,-0.31887,-1.23334,-2.54731
2.2282,68104.3659,-0.43494,-1.15515,-2.5693
2.2447,68104.3759,-0.50702,-1.17592,-2.61267
2.2485,68104.3859,-0.51557,-1.25044,-2.64199
2.2703,68104.3969,-0.4893,-1.44347,-2.65971
2.2738,68104.4069,-0.45082,-1.66827,-2.64993
2.2867,68104.4169,-0.42516,-1.91262,-2.60901
2.299,68104.4269,-0.44776,-2.0745,-2.56869
2.3032,68104.4369,-0.56139,-2.19484,-2.52226
2.3105,68104.4469,-0.76175,-2.1588,-2.48195
2.3262,68104.4569,-1.07207,-1.98837,-2.46057
2.3301,68104.4669,-1.3604,-1.78189,-2.45934
2.3408,68104.4769,-1.75196,-1.48624,-2.46057
2.3507,68104.4869,-2.09893,-1.24983,-2.41842
2.3621,68104.4969,-2.45446,-1.10078,-2.2376
2.3715,68104.5069,-2.67131,-1.04336,-1.97859
2.3822,68104.5169,-2.77699,-0.97311,-1.62429
2.3885,68104.5269,-2.78738,-0.80268,-1.3775
2.401,68104.5369,-2.81792,-0.47892,-1.12399
2.4088,68104.5469,-2.90711,-0.15821,-0.92057
2.4279,68104.5569,-3.07143,0.06903,-0.63286
2.4298,68104.5669,-3.19788,0.07819,-0.33048
2.4463,68104.5769,-3.24797,-0.08247,0.18082
2.4486,68104.5869,-3.06227,-0.27184,0.68661
2.4605,68104.5969,-2.57968,-0.405,1.15942
2.4688,68104.6069,-2.10626,-0.3769,1.37445
2.4805,68104.6169,-1.51678,-0.16677,1.48379
2.4884,68104.6269,-1.11361,0.12828,1.46119
2.5005,68104.6369,-0.84177,0.51068,1.3549
2.5086,68104.6469,-0.73304,0.77336,1.23945
2.5209,68104.6569,-0.68295,1.05435,1.16736
2.5285,68104.6669,-0.64568,1.26083,1.13377
2.5458,68104.6769,-0.5901,1.39949,1.09284
2.5487,68104.6869,-0.55467,1.47952,1.05435
2.5606,68104.6969,-0.51557,1.56809,1.00243
2.5686,68104.7069,-0.45021,1.6133,0.96883
2.5833,68104.7169,-0.31704,1.55771,1.0006
2.5895,68104.7269,-0.11668,1.39033,1.07451
2.6003,68104.7369,0.17287,1.1918,1.20768
2.6082,68104.7469,0.54123,0.96578,1.30908
2.6227,68104.7569,0.99082,0.74648,1.4001
2.6285,68104.7669,1.35734,0.67562,1.42148
2.6463,68104.7769,1.66644,0.68539,1.37689
2.6509,68104.7869,1.7825,0.72998,1.2816
2.6636,68104.7969,1.78495,0.8039,1.13865
2.6757,68104.8069,1.68232,0.91141,1.0458
2.6809,68104.8169,1.54977,1.02137,1.02137
2.6945,68104.8268,1.45814,1.10078,1.05374
2.7037,68104.8369,1.39522,1.17714,1.14415
2.7087,68104.8469,1.40804,1.20157,1.24372
2.722,68104.8569,1.4618,1.22906,1.37139
2.7298,68104.8669,1.49662,1.22967,1.46302
2.746,68104.8769,1.48562,1.23456,1.54732
2.7497,68104.8879,1.38361,1.26816,1.61146
2.7641,68104.8979,1.16614,1.2987,1.6475
2.77,68104.9079,0.9334,1.31519,1.67499
2.782,68104.9179,0.62308,1.3549,1.72447
2.7897,68104.9279,0.38851,1.38422,1.79778
2.802,68104.9379,0.21991,1.36956,1.91262
2.8127,68104.9479,0.16432,1.31947,2.02807
2.8227,68104.9579,0.18204,1.23639,2.17102
2.8302,68104.9679,0.26695,1.09834,2.34145
2.8431,68104.9779,0.44532,0.95295,2.51982
2.8514,68104.9889,0.68417,1.01343,2.65421
2.8656,68104.9989,0.86987,1.2254,2.69941
2.8715,68105.0089,0.98471,1.49662,2.67131
2.8879,68105.0189,0.96211,1.80999,2.5919
2.897,68105.0299,0.82222,2.08733,2.52593
2.9139,68105.0399,0.54306,2.39215,2.44041
2.9298,68105.0498,0.20586,2.55158,2.35672
2.9313,68105.0599,-0.23335,2.59557,2.28891
2.936,68105.0699,-0.62614,2.56136,2.29624
2.9568,68105.0799,-1.01343,2.38848,2.33839
2.9609,68105.0899,-1.25533,2.12337,2.37688
2.9743,68105.1009,-1.43859,1.72081,2.39765
2.9792,68105.1109,-1.45264,1.54854,2.32617
2.9981,68105.1209,-1.40804,1.43798,2.20339
3.0044,68105.1309,-1.32863,1.32436,2.0635
3.0081,68105.1409,-1.23089,1.17408,1.94988
3.0158,68105.1509,-1.15392,1.01831,1.91323
3.0272,68105.1609,-1.08856,0.80146,1.90346
3.0401,68105.1709,-1.02748,0.5736,1.90101
3.0456,68105.1809,-0.94318,0.33781,1.82099
3.0524,68105.1909,-0.92302,0.12767,1.63529
3.065,68105.2009,-0.99815,-0.09652,1.37323
3.0723,68105.2109,-1.0965,-0.32376,1.20157
3.084,68105.2209,-1.21012,-0.60537,1.06901
3.0926,68105.2309,-1.24983,-0.8656,1.01159
3.1041,68105.2409,-1.19241,-1.09711,0.88087
3.1126,68105.2509,-1.09956,-1.19974,0.67989
3.1277,68105.2609,-0.90469,-1.26388,0.24984
3.1325,68105.2707,-0.77702,-1.25288,-0.07758
3.1498,68105.2809,-0.64324,-1.20524,-0.45143
3.153,68105.2909,-0.58521,-1.19546,-0.72998
3.1644,68105.3009,-0.53206,-1.24678,-0.956
3.1745,68105.3109,-0.43494,-1.35918,-1.15637
3.1844,68105.3209,-0.27,-1.4056,-1.37017
3.1971,68105.3309,-0.11484,-1.45447,-1.56565
3.2076,68105.3409,0.00122,-1.50456,-1.76112
3.2127,68105.3509,0.05192,-1.55832,-1.95966
3.2297,68105.3609,0.06842,-1.61452,-2.1985
3.2377,68105.3709,0.05437,-1.6585,-2.44346
3.2444,68105.3809,0.04459,-1.70615,-2.71407
3.2555,68105.3909,0.06292,-1.71348,-2.901
3.2655,68105.4009,0.13195,-1.86436,-3.12641
3.2732,68105.4109,0.24312,-1.99448,-3.31944
3.2854,68105.4209,0.29688,-1.96027,-3.56745
3.2933,68105.4309,0.27611,-1.91567,-3.74583
3.3109,68105.4409,0.14783,-1.77212,-4.01705
3.3155,68105.4519,-0.09285,-1.59986,-4.22902
3.3324,68105.4619,-0.43127,-1.38727,-4.34814
3.3356,68105.4718,-0.68722,-1.13499,-4.30355
3.3496,68105.4819,-1.0849,-0.76419,-4.07447
3.3558,68105.4919,-1.44836,-0.51313,-3.74033
3.3658,68105.5019,-1.87475,-0.17654,-3.30906
3.3743,68105.5119,-2.19789,0.2755,-3.03111
3.3889,68105.5229,-2.62672,0.91813,-2.72751
3.3966,68105.5329,-2.89184,1.36651,-2.4905
3.4192,68105.5429,-3.04761,1.78434,-2.16552
3.4237,68105.5529,-3.03111,2.05678,-1.8833
3.4336,68105.5629,-2.89978,2.53265,-1.6921
3.4366,68105.5729,-2.67376,2.89672,-1.65117
3.448,68105.5829,-2.25837,2.97308,-1.61513
3.4586,68105.5929,-1.82221,2.9291,-1.62368
3.4674,68105.6029,-1.12766,2.73973,-1.76296
3.4801,68105.6129,-0.41356,2.71591,-1.97432
3.4879,68105.6229,0.47586,2.85824,-2.23088
3.4953,68105.6329,1.24128,3.03722,-2.57296
3.5072,68105.6427,1.8949,3.14596,-2.95414
3.5152,68105.6529,2.40375,3.05555,-3.29195
3.528,68105.6629,2.82098,2.86251,-3.51431
3.5358,68105.6729,3.0751,2.31274,-3.58395
3.5565,68105.6829,3.22109,1.44164,-3.46544
3.5636,68105.6929,3.30967,1.0849,-3.12458
3.5686,68105.7029,3.38542,0.64996,-2.66154
3.5797,68105.7129,3.31578,-0.20036,-2.39032
3.6022,68105.7229,2.85824,-1.9285,-2.35122
3.6041,68105.7329,1.59314,-4.32676,-2.85641
3.6128,68105.7429,-0.26206,-5.80505,-3.11602
3.6185,68105.7529,-1.30664,-5.94372,-2.75928
3.6299,68105.7629,-2.71163,-4.02316,-2.38787
3.6351,68105.7729,-3.13863,-1.98653,-1.95538
3.6465,68105.7829,-3.51186,-0.17226,-1.77212
3.6545,68105.7929,-3.47033,0.24801,-1.91506
3.6698,68105.8029,-3.13374,1.10933,-1.80938
3.6773,68105.8139,-2.62244,1.31825,-1.4282
3.6902,68105.8239,-1.95416,1.21012,-0.97494
3.701,68105.8339,-1.3885,0.82406,-0.73793
3.7102,68105.8439,-0.85399,0.13073,-0.71899
3.7177,68105.8549,-0.36102,-0.72815,-0.81978
3.7316,68105.8649,0.33292,-1.54366,-0.94928
3.7389,68105.8749,1.02809,-1.68171,-0.95906
3.7488,68105.8849,1.6475,-1.44164,-0.63958
3.7566,68105.8949,1.8949,-1.17958,-0.09468
3.7684,68105.9049,1.90895,-0.71044,0.77763
3.7767,68105.9149,1.73608,-0.57605,1.48379
3.7899,68105.9249,1.41232,-0.8998,1.94255
3.7977,68105.9349,1.15637,-1.20951,2.06839
3.8153,68105.9449,1.03603,-1.53022,2.30052
3.8184,68105.9559,1.04947,-1.74646,2.66765
3.8308,68105.9659,1.11605,-2.02685,2.89733
3.8387,68105.9759,1.23578,-2.43124,2.91566
3.851,68105.9859,1.44286,-1.9566,2.9517
3.8584,68105.9959,1.49662,-1.56259,3.12152
3.8772,68106.0059,1.54793,-1.51983,3.32616
3.8887,68106.0159,1.85581,-1.26938,3.65786
3.8917,68106.0259,2.30724,-0.81856,4.17526
3.9055,68106.0359,2.81975,-0.49175,4.69389
3.9168,68106.0459,3.32372,-0.49419,5.21007
3.9194,68106.0559,3.69512,-0.22907,5.61202
3.9342,68106.0659,3.9523,-0.21258,5.68349
3.9382,68106.0759,4.15327,-0.4496,5.45075
3.9507,68106.0859,4.22902,-0.66401,4.99566
3.9591,68106.0959,4.01766,-0.65912,4.80568
3.975,68106.1059,3.63709,0.06109,4.88204
3.9924,68106.1159,3.21254,0.01833,4.91808
3.9935,68106.1259,2.28708,-0.75503,4.52895
4,68106.1359,1.78495,-0.13622,4.25407
4.0149,68106.1459,1.44897,0.89614,4.26201
4.0264,68106.1559,1.1692,1.50151,4.42694
4.0378,68106.1659,0.86743,2.1704,5.00787
4.0387,68106.1758,0.71716,2.31762,5.60896
4.0533,68106.1858,0.42516,2.33289,6.41836
4.0646,68106.1958,0.0562,2.07205,6.77633
4.0691,68106.2059,-0.45693,1.45447,6.7464
4.0821,68106.2159,-0.73548,0.77763,6.65293
4.1122,68106.2269,-0.82528,-0.00367,6.78916
4.1132,68106.2369,-0.72815,-0.50763,7.0219
4.1137,68106.2469,-0.47342,-1.17653,7.35787
4.1275,68106.2569,-0.146,-1.77151,7.44767
4.13,68106.2669,0.20281,-2.08672,7.22348
4.1402,68106.2769,0.36652,-2.09527,6.82886
4.1497,68106.2869,0.46059,-1.9285,6.43424
4.1621,68106.2969,0.5901,-1.78434,6.1001
4.1726,68106.3069,1.03358,-1.87536,5.92478
4.1783,68106.3169,1.36712,-1.54366,5.50817
4.1944,68106.3269,0.71716,-0.21075,4.86737
4.1984,68106.3369,0.43677,0.60109,4.64196
4.2103,68106.3468,-0.01405,1.4618,4.59737
4.2206,68106.3569,-0.42272,2.34756,4.76719
4.2399,68106.3669,-0.87048,3.01584,4.86799
4.2463,68106.3769,-1.0568,2.81548,4.62364
4.2517,68106.3869,-0.9615,1.92178,4.11662
4.2655,68106.3969,-0.53023,0.90591,3.7501
4.2731,68106.4068,0.20342,-0.18265,3.59128
4.2791,68106.4169,0.62736,-0.76541,3.79408
4.2912,68106.4269,0.68417,-1.24372,4.08058
4.2989,68106.4369,0.38546,-1.16492,4.27911
4.313,68106.4469,-0.04093,-0.89797,4.06103
4.3189,68106.4568,-0.21869,-0.75014,3.94497
4.3313,68106.4668,-0.16738,-0.72876,3.6884
4.3388,68106.4768,0.06414,-0.63958,3.50148
4.3532,68106.4869,0.15638,-0.22663,3.41413
4.3612,68106.4969,0.0452,0.06292,3.42329
4.3754,68106.5079,-0.13073,0.10812,3.46177
4.3807,68106.5179,-0.22846,0.02321,3.33105
4.3968,68106.5279,-0.3207,-0.15699,2.9572
4.4066,68106.5378,-0.32376,-0.39889,2.60717
4.4127,68106.5479,-0.27978,-0.80879,2.45446
4.4332,68106.5589,-0.3824,-0.48197,2.72812
4.435,68106.5689,-0.31826,-1.372,3.08731
4.4418,68106.5799,-0.16982,-1.81427,3.67558
4.4573,68106.5899,-0.00428,-2.34022,4.33775
4.4619,68106.5999,0.00122,-2.81975,4.80446
4.4764,68106.6099,-0.28955,-3.13801,4.92724
4.484,68106.6199,-0.56566,-3.14229,4.71771
4.4964,68106.6299,-0.73976,-2.93521,4.23696
4.5061,68106.6399,-0.7196,-2.70674,3.82341
4.5186,68106.6499,-0.57849,-2.54548,3.54241
4.5226,68106.6609,-0.51129,-2.43674,3.463
4.5357,68106.6709,-0.72815,-2.31335,3.52103
4.5427,68106.6809,-1.05985,-2.1197,3.63098
4.5581,68106.6909,-1.52838,-1.91995,3.78003
4.5628,68106.7008,-1.71409,-1.94377,3.77331
4.5776,68106.7109,-1.64628,-2.20278,3.65358
4.5829,68106.7209,-1.42087,-2.52837,3.49965
4.5947,68106.7309,-1.07573,-3.10992,3.26385
4.6036,68106.7409,-0.88331,-3.57539,3.15329
4.6176,68106.7519,-0.85949,-4.00911,3.12641
4.6244,68106.7619,-0.92424,-4.16488,3.14229
4.6366,68106.7719,-1.16553,-4.13006,3.2944
4.6464,68106.7818,-1.50029,-3.85151,3.50637
4.6617,68106.7919,-1.96149,-3.23881,3.75255
4.6651,68106.8029,-2.32068,-2.76905,3.83318
4.6784,68106.8129,-2.48072,-2.71652,3.74155
4.6848,68106.8229,-2.48195,-2.95537,3.68902
4.6968,68106.8329,-2.46606,-3.50942,3.65664
4.7048,68106.8429,-2.4905,-4.02499,3.71345
4.7198,68106.8529,-2.5864,-4.55339,3.8735
4.7249,68106.8629,-2.68597,-4.9529,4.02255
4.7368,68106.8729,-2.70369,-5.4086,4.003
4.7448,68106.8829,-2.60595,-5.54605,3.85212
4.7601,68106.8929,-2.56014,-5.26444,3.60472
4.7709,68106.9029,-2.63894,-4.74031,3.36037
4.7783,68106.9129,-2.85579,-4.18504,3.16245
4.7851,68106.9229,-3.11236,-3.8063,3.09648
4.798,68106.9328,-3.38908,-3.48682,3.08182
4.8052,68106.9429,-3.46238,-3.29134,3.07021
4.8174,68106.9529,-3.35915,-3.22109,3.08609
4.8251,68106.9629,-3.21315,-3.24736,3.07143
4.8422,68106.9729,-3.03111,-3.43428,2.93948
4.8493,68106.9829,-2.93643,-3.64748,2.75439
4.8636,68106.9928,-2.94132,-3.79164,2.5186
4.8692,68107.0029,-3.03905,-3.70245,2.32068
4.8789,68107.0129,-3.27485,-3.50453,2.13131
4.8856,68107.0229,-3.44589,-3.08365,2.00425
4.8989,68107.0329,-3.75071,-2.70369,1.87169
4.9082,68107.0429,-4.06103,-2.57785,1.76357
4.9195,68107.0529,-4.48436,-2.40864,1.54854
4.9278,68107.0639,-4.7843,-2.29258,1.35184
4.9395,68107.0739,-5.00971,-2.20522,1.14232
4.9466,68107.0838,-5.07263,-2.0409,0.92118
4.9601,68107.0939,-5.0598,-2.08549,0.58215
4.9695,68107.1039,-5.03414,-2.44774,0.23213
4.9847,68107.1139,-5.03903,-2.95353,-0.08125
4.9917,68107.1239,-5.05491,-3.20277,-0.20281
5.0015,68107.1339,-5.06468,-3.17955,-0.15455
5.0064,68107.1438,-5.13249,-3.2608,-0.14416
5.0178,68107.1539,-5.29803,-3.18139,-0.25595
5.03,68107.1639,-5.44586,-2.77088,-0.27672
5.043,68107.1739,-5.56071,-2.05556,-0.21625
5.0454,68107.1839,-5.66333,-1.53205,-0.12767
5.0602,68107.1939,-5.74885,-1.14965,0.13622
5.0652,68107.2039,-5.74946,-1.26571,0.3708
5.0768,68107.2139,-5.62057,-1.54121,0.69822
5.0859,68107.2247,-5.33591,-1.85153,0.97311
5.0977,68107.2348,-4.82828,-1.90834,1.15698
5.106,68107.2449,-4.34081,-1.71836,1.19852
5.1181,68107.2549,-3.89976,-1.66522,1.15392
5.1271,68107.2649,-3.57601,-1.75929,1.06901
5.1393,68107.2749,-3.1991,-1.92178,0.92852
5.1471,68107.2849,-3.06166,-2.35916,0.91141
5.1632,68107.2948,-3.03111,-2.84052,1.15209
5.1807,68107.3049,-2.9627,-2.9346,1.50029
5.1839,68107.3149,-2.8729,-2.71224,1.94866
5.1914,68107.3247,-2.83503,-2.23577,2.16918
5.2023,68107.3349,-2.90466,-1.67866,2.26264
5.207,68107.3449,-3.02317,-1.248,2.22538
5.2218,68107.3549,-3.13679,-0.7086,1.98165
5.2281,68107.3649,-3.17406,-0.56077,1.62429
5.2423,68107.3749,-3.09953,-0.88698,1.37567
5.2463,68107.3849,-3.00485,-1.08184,1.33657
5.2581,68107.3949,-2.9236,-1.15026,1.34513
5.2664,68107.4049,-2.89123,-0.94318,1.42942
5.2783,68107.4149,-2.99935,-0.53084,1.61146
5.2881,68107.4249,-3.20277,0.10996,1.96454
5.3022,68107.4349,-3.3677,0.4948,2.53387
5.3072,68107.4449,-3.36403,0.03604,2.77088
5.3197,68107.4548,-3.30845,-1.55343,2.95659
5.3268,68107.4649,-3.26263,-3.30967,3.00546
5.3393,68107.4749,-3.14718,-4.11357,2.79104
5.3468,68107.4849,-3.01829,-3.79469,2.58335
5.36,68107.4949,-2.75989,-2.20645,2.49844
5.3679,68107.5049,-2.49355,-0.93462,2.56747
5.3813,68107.5149,-2.08977,0.0617,2.58946
5.3881,68107.5248,-1.84787,0.18876,2.3836
5.4017,68107.5349,-1.70615,-0.2364,1.95966
5.408,68107.5448,-1.69882,-0.80634,1.66278
5.4224,68107.5559,-1.80816,-1.09772,1.36101
5.4328,68107.5669,-1.85947,-0.80756,1.15881
5.4481,68107.5769,-1.86619,-0.48381,1.03053
5.4546,68107.5869,-1.82954,-0.43799,0.97066
5.4629,68107.5969,-1.74891,-0.4777,0.93462
5.4696,68107.6069,-1.66339,-0.54367,0.95295
5.4866,68107.6169,-1.54732,-0.53329,1.04886
5.4939,68107.6269,-1.45875,-0.32376,1.19424
5.506,68107.6369,-1.42942,0.16554,1.44164
5.5151,68107.6469,-1.49479,0.58093,1.67744
5.5219,68107.6568,-1.71897,0.99632,1.99814
5.5285,68107.6669,-2.02991,1.25411,2.20583
5.5414,68107.6769,-2.41536,1.29198,2.33167
5.5498,68107.6869,-2.66826,1.11972,2.29869
5.5611,68107.6969,-2.94865,0.76053,2.06411
5.5687,68107.7069,-3.1313,0.34331,1.75746
5.5804,68107.7169,-3.35121,-0.03176,1.43981
5.5883,68107.7269,-3.45261,-0.17898,1.36895
5.6005,68107.7369,-3.51614,-0.00489,1.49845
5.6087,68107.7469,-3.57967,0.13561,1.78922
5.6205,68107.7569,-3.71528,0.16982,2.12154
5.6287,68107.7669,-3.88999,0.27,2.36955
5.6417,68107.7769,-4.18259,0.07575,2.68597
5.6507,68107.7869,-4.48375,-0.14539,2.93887
5.6612,68107.7969,-4.83927,-0.13073,3.2382
5.6696,68107.8078,-5.13921,-0.01466,3.55279
5.6817,68107.8179,-5.32736,0.04459,3.85395
5.6901,68107.8279,-4.75497,2.32923,4.0366
5.7025,68107.8389,-3.86556,1.64017,4.20886
5.7106,68107.8489,-2.94376,0.9218,4.22963
5.7233,68107.8589,-1.92056,1.23517,4.20703
5.7314,68107.8689,-1.48318,1.53327,4.23452
5.7425,68107.8789,-1.45691,1.65544,4.35852
5.7505,68107.8889,-1.67438,1.80938,4.38846
5.7667,68107.8989,-1.8833,2.24371,4.45382
5.7713,68107.9089,-2.02746,2.54059,4.71344
5.7835,68107.9189,-2.17224,2.7941,5.16792
5.7913,68107.9289,-2.29685,3.13924,5.59003
5.8069,68107.9389,-2.39765,3.52103,6.05917
5.8193,68107.9489,-2.3952,3.90465,6.34445
5.8279,68107.9588,-2.42819,3.90526,6.44341
5.8355,68107.9689,-2.68414,3.5815,6.14347
5.848,68107.9789,-2.99629,3.52103,5.52589
5.8555,68107.9899,-3.21926,3.74155,5.11233
5.8643,68107.9999,-3.5925,4.13617,5.15082
5.875,68108.0099,-3.89854,4.50941,5.57842
5.8836,68108.0199,-4.21375,4.98588,6.3585
5.8941,68108.0299,-4.32248,5.21923,6.87407
5.9087,68108.0407,-4.35913,5.17464,7.1685
5.9167,68108.0519,-4.31576,5.07568,6.97242
5.9309,68108.0619,-4.18626,5.06713,6.59857
5.9344,68108.0719,-4.01461,5.06468,6.15508
5.951,68108.0819,-3.77881,5.00971,5.53566
5.9637,68108.0919,-3.62182,4.38968,4.86127
5.9681,68108.1019,-3.34571,3.6206,4.0421
5.9738,68108.1119,-2.96209,3.27668,3.51614
5.9859,68108.1219,-2.33473,2.83869,3.01034
5.9938,68108.1319,-1.78678,2.36038,2.62611
6.0051,68108.1419,-1.32619,1.83198,2.1252
6.0134,68108.1519,-1.07451,1.42942,1.64873
6.0315,68108.1619,-0.78802,0.96761,0.9163
6.0333,68108.1719,-0.51435,0.59926,0.49724
6.046,68108.1819,-0.15088,-0.16066,0.27061
6.0532,68108.1919,0.16982,-0.51557,0.36346
6.0647,68108.2019,0.85399,-1.07085,0.91385
6.0737,68108.2119,1.59191,-1.43004,1.53327
6.0846,68108.2218,2.32251,-1.48135,2.15513
6.093,68108.2319,2.68475,-1.39399,2.43124
6.1048,68108.2418,2.74034,-1.29809,2.3726
6.1133,68108.2519,2.70125,-1.38056,2.0073
6.1271,68108.2619,2.74584,-1.6359,1.46791
6.1333,68108.2719,2.89917,-1.89368,1.02442
6.148,68108.2818,3.07815,-2.10199,0.71471
6.1533,68108.2919,3.22048,-2.29258,0.61575
6.165,68108.3019,3.38175,-2.53265,0.58582
6.1767,68108.3119,3.51797,-2.94742,0.41661
6.1851,68108.3219,3.57417,-3.52103,0.13744
6.1975,68108.3319,3.71895,-3.70245,-0.13867
6.2077,68108.3419,4.21619,-4.07753,-0.66279
6.2138,68108.3518,4.72016,-4.0702,-1.11361
6.2292,68108.3619,5.30842,-3.94375,-1.73913
6.2345,68108.3728,5.54177,-3.87533,-2.23577
6.2464,68108.3829,5.39028,-3.92664,-2.55769
6.2548,68108.3929,4.99627,-4.01461,-2.56563
6.2684,68108.4029,4.51002,-3.96757,-2.35977
6.2753,68108.4129,4.21008,-3.91626,-2.04884
6.2899,68108.4229,3.9804,-3.97062,-1.53083
6.2946,68108.4328,3.92664,-4.03721,-1.09223
6.3081,68108.4429,4.12029,-4.10196,-0.82711
6.3144,68108.4529,4.42511,-4.15388,-0.79596
6.3266,68108.4629,4.88875,-4.23269,-1.02809
6.3353,68108.4729,5.89485,-3.37137,-1.67988
6.3557,68108.4829,6.08422,-3.88388,-2.4905
6.3579,68108.4928,5.85453,-3.79042,-3.29256
6.3743,68108.5039,5.81177,-3.48621,-3.96574
6.3766,68108.5139,5.87164,-3.46544,-4.30477
6.3897,68108.5238,6.05673,-3.39824,-4.49719
6.3972,68108.5338,6.32856,-3.31028,-4.57172
6.4101,68108.5439,6.79893,-3.3451,-4.68045
6.4169,68108.5539,7.11353,-3.52042,-4.79102
6.4285,68108.5639,7.37803,-3.67374,-4.82828
6.4363,68108.5739,7.4159,-3.77576,-4.88204
6.4515,68108.5838,7.39391,-3.87533,-5.03109
6.4631,68108.5939,7.37803,-3.93092,-5.3243
6.4732,68108.6048,7.29129,-3.72689,-5.82399
6.477,68108.6149,7.16667,-3.35365,-6.28825
6.4915,68108.6249,6.96203,-3.0415,-6.76655
6.5061,68108.6349,6.66637,-3.11358,-7.07993
6.5089,68108.6449,6.09521,-3.07876,-6.94737
6.5171,68108.6549,5.50145,-2.89,-6.4489
6.5335,68108.6649,4.8686,-2.63222,-5.72992
6.537,68108.6748,4.35669,-2.44835,-5.15265
6.5519,68108.6849,3.57539,-2.11298,-4.31271
6.5589,68108.6949,2.95231,-1.95966,-3.75255
6.5692,68108.7049,2.04334,-1.91506,-3.17711
6.5778,68108.7159,1.22845,-1.77945,-2.71469
6.5895,68108.7259,0.46059,-1.65667,-2.22844
6.5978,68108.7359,-0.17349,-1.7373,-1.77762
6.6175,68108.7459,-0.82222,-1.80877,-1.33474
6.6215,68108.7558,-1.2199,-1.82893,-1.06963
6.6333,68108.7659,-1.57359,-1.9676,-0.69455
6.6451,68108.7769,-1.63651,-2.2376,-0.31948
6.6608,68108.7868,-1.50884,-2.54731,0.00489
6.6631,68108.7969,-1.26571,-2.82525,0.27184
6.6738,68108.8069,-1.07451,-3.05982,0.43616
6.6826,68108.8179,-1.18997,-3.11847,0.44471
6.6935,68108.8289,-1.4789,-2.86251,0.34819
6.7011,68108.8388,-1.57725,-2.29197,0.14172
6.714,68108.8489,-1.51128,-2.39704,-0.011
6.721,68108.8588,-1.41782,-2.59251,0.07453
6.7344,68108.8689,-1.20585,-2.82831,0.42333
6.7454,68108.8789,-1.0458,-2.92666,0.85155
6.7546,68108.8889,-1.02137,-3.15023,1.28831
6.7632,68108.8988,-1.14415,-3.34449,1.61085
6.7754,68108.9089,-1.43614,-3.3622,1.95171
6.7807,68108.9189,-1.6811,-3.171,2.34633
6.7938,68108.9289,-1.93644,-3.02256,2.91566
6.8007,68108.9389,-2.03785,-2.99752,3.22903
6.8179,68108.9489,-2.13864,-2.98591,3.35121
6.8207,68108.9588,-2.1869,-3.01706,3.26202
6.8396,68108.9689,-2.19789,-3.05555,2.96086
6.8467,68108.9789,-2.24921,-3.13068,2.70613
6.8542,68108.9889,-2.43857,-3.17039,2.66887
6.865,68108.9989,-2.61023,-3.12763,2.94071
6.874,68109.0089,-2.89917,-2.8222,3.5253
6.8812,68109.0188,-3.21071,-2.62306,4.00056
6.896,68109.0289,-3.44406,-2.50638,4.32676
6.9008,68109.0389,-3.44284,-2.49844,4.46176
6.9139,68109.0489,-3.37931,-2.21683,4.54728
6.9209,68109.0589,-3.36526,-2.02257,4.66457
6.935,68109.0689,-3.51675,-1.91751,4.80934
6.9421,68109.0789,-3.91381,-1.73974,4.90464
6.9652,68109.0888,-4.34753,-1.36345,5.00726
6.9703,68109.0989,-4.68961,-0.91691,5.19358
6.9771,68109.1089,-4.95106,-0.49541,5.4593
6.9814,68109.1188,-5.13249,-0.44776,5.48679
6.9951,68109.1299,-5.30659,-0.6243,5.15998
7.0073,68109.1399,-5.46358,-1.05252,4.6047
7.0153,68109.1499,-5.62729,-1.52594,3.61388
7.0215,68109.1599,-5.60896,-1.70065,2.45201
7.0456,68109.1698,-5.37928,-1.50517,1.18264
7.0473,68109.1807,-4.99016,-0.99082,0.4612
7.0549,68109.1909,-4.57416,0.03726,0.28039
7.0627,68109.2008,-4.30416,0.90286,0.66279
7.0765,68109.2109,-4.10929,1.53877,1.48379
7.0824,68109.2209,-3.95902,1.2596,2.44224
7.0967,68109.2309,-3.79653,0.54245,3.22964
7.1024,68109.2409,-3.68902,-0.15394,3.52347
7.1145,68109.2509,-3.58089,-0.56933,3.51553
7.1224,68109.2608,-3.51981,-0.36041,3.40435
7.135,68109.2709,-3.49415,-0.29199,3.33532
7.1423,68109.2809,-3.55585,-0.47647,3.48438
7.1567,68109.2909,-3.76904,-0.62492,4.0201
7.165,68109.3019,-4.42205,-0.15699,5.14593
7.1789,68109.3128,-5.36401,-0.10629,6.63216
7.2011,68109.3239,-6.13553,-0.16127,7.84534
7.2036,68109.3338,-6.85269,-0.66462,8.85877
7.2077,68109.3439,-7.01579,-1.11483,9.24545
7.2208,68109.3538,-6.80809,-1.66278,9.32058
7.2295,68109.3638,-6.3585,-2.08061,9.0628
7.2412,68109.3739,-5.4929,-2.49661,8.29922
7.2493,68109.3839,-4.54362,-2.53448,7.1404
7.2621,68109.3938,-3.38236,-2.38176,5.5943
7.2659,68109.4039,-2.39276,-2.26998,4.29438
7.2809,68109.4139,-1.50334,-2.20156,3.24308
7.2861,68109.4239,-0.99388,-2.20706,2.79288
7.301,68109.4339,-0.46853,-2.14169,2.6029
7.3101,68109.4439,-0.00916,-1.85947,2.63955
7.3199,68109.4538,0.43616,-1.29626,2.7996
7.3258,68109.4639,0.80634,-0.81673,3.19299
7.3433,68109.4739,1.03481,-0.81917,3.84967
7.3461,68109.4839,0.94257,-1.18997,4.28522
7.3626,68109.4939,0.2248,-0.89797,4.49108
7.3719,68109.5039,-0.24923,-1.07451,4.39518
7.3828,68109.5139,-0.7196,-1.04947,4.11845
7.386,68109.5238,-0.81489,-1.00732,3.93764
7.4038,68109.5339,-0.52351,-0.8882,3.89976
7.4085,68109.5439,-0.06353,-0.69089,4.04393
7.4228,68109.5539,0.67134,-0.37202,4.39884
7.4265,68109.5639,1.26327,-0.31704,4.71405
7.4418,68109.5738,1.7092,-0.59804,4.95656
7.4503,68109.5838,1.74585,-0.74526,5.13554
7.4616,68109.5939,1.74646,-1.09039,5.29559
7.4665,68109.6039,1.94133,-1.33657,5.22351
7.4783,68109.6139,2.11237,-1.75929,4.68778
7.4868,68109.6249,1.98776,-1.80755,3.89671
7.4999,68109.6349,1.55771,-1.68721,3.07082
7.5072,68109.6449,1.21623,-1.66766,2.67742
7.5188,68109.6549,1.21196,-1.77945,2.77944
7.5268,68109.6649,1.60658,-1.94988,3.18749
7.5389,68109.6748,2.27792,-2.06839,3.65847
7.5467,68109.6849,3.09953,-2.30357,3.9804
7.5598,68109.6949,4.05676,-2.69147,3.93886
7.5712,68109.7049,4.57721,-3.03417,3.65175
7.5875,68109.7148,5.0824,-3.66763,3.38419
7.5898,68109.7249,5.46724,-4.25223,3.15451
7.6029,68109.7348,5.57048,-4.6383,2.76417
7.6108,68109.7449,5.40799,-4.78246,2.36283
7.6192,68109.7549,5.05124,-4.52101,1.95538
7.6291,68109.7649,4.67373,-4.28278,1.67866
7.6393,68109.7749,4.08241,-4.29377,1.41904
7.6536,68109.7849,3.53813,-4.33348,1.32619
7.6615,68109.7948,2.91261,-4.10074,1.28098
7.6682,68109.8049,2.46362,-3.63587,1.1692
7.679,68109.8149,1.74769,-2.53631,1.44347
7.6868,68109.8249,1.30725,-2.18934,1.41476
7.6988,68109.8349,1.24617,-1.8387,1.3494
7.7077,68109.8449,1.41537,-1.82404,1.41171
7.7213,68109.8559,1.8161,-2.20034,1.63223
7.7287,68109.8658,2.21866,-2.84846,1.76723
7.7499,68109.8759,2.61573,-3.63343,1.6585
7.7635,68109.8858,2.84846,-4.15083,1.34268
7.7649,68109.8959,2.99141,-4.71527,0.63713
7.7697,68109.9059,3.01218,-5.1667,-0.2022
7.781,68109.9159,2.89,-5.55582,-1.11972
7.7884,68109.9259,2.7153,-5.68777,-1.73302
7.8006,68109.9359,2.64321,-5.63034,-2.07939
7.8091,68109.9458,2.7776,-5.56437,-2.26081
7.8208,68109.9559,3.18566,-5.72381,-2.2602
7.828,68109.9659,3.58883,-5.99014,-2.14658
7.8405,68109.9759,4.08852,-6.41958,-1.99631
7.8478,68109.9858,4.40312,-6.64377,-1.96393
7.8649,68109.9959,4.75375,-6.77266,-2.02563
7.869,68110.0058,5.04819,-6.92599,-2.20706
7.8801,68110.0159,5.36156,-7.18805,-2.5974
7.8943,68110.0259,5.53872,-7.39208,-3.02562
7.9044,68110.0359,5.51611,-7.63704,-3.58944
7.9089,68110.0459,5.30109,-7.77937,-3.91259
7.9208,68110.0559,5.05735,-7.74638,-3.99628
7.9277,68110.0659,4.9193,-7.64864,-3.86617
7.9402,68110.0758,4.89853,-7.43606,-3.54058
7.9478,68110.0859,5.0488,-7.33527,-3.15756
7.9617,68110.0959,5.24794,-7.56984,-2.81609
7.9695,68110.1069,5.26199,-7.84473,-2.74401
7.9936,68110.1169,5.34385,-6.72868,-3.19116
7.9993,68110.1269,5.37989,-5.69449,-3.84723
8.0022,68110.1369,5.19785,-5.23206,-4.62547
8.0179,68110.1469,4.99871,-5.31758,-5.14165
8.0338,68110.1568,4.75314,-5.46236,-5.40433
8.0356,68110.1669,4.52346,-5.41471,-5.33041
8.0492,68110.1769,4.08791,-4.95717,-4.8686
8.0501,68110.1869,3.63037,-4.75681,-4.15877
8.0633,68110.1969,3.07387,-4.85455,-3.3005
8.07,68110.2069,2.50394,-5.10256,-2.40009
8.0797,68110.2168,1.85703,-5.61568,-1.47157
8.0879,68110.2268,1.26205,-5.89913,-0.87476
8.1209,68110.2369,0.70433,-4.78674,-0.78496
8.1217,68110.2469,0.38423,-3.53202,-1.1301
8.1221,68110.2569,0.00428,-3.32616,-1.61513
8.1336,68110.2669,-0.26878,-3.74705,-1.7318
8.1395,68110.2769,-0.46487,-4.04393,-1.41843
8.148,68110.2868,-0.64813,-4.07447,-0.93829
8.1594,68110.2968,-0.96822,-4.12029,-0.02016
8.168,68110.3068,-1.26938,-4.38723,0.97861
8.1808,68110.3169,-1.62063,-4.79102,2.03479
8.1881,68110.3269,-1.84359,-5.07324,2.64077
8.2,68110.3369,-1.96943,-5.15265,3.04455
8.2079,68110.3468,-1.95904,-4.73787,3.00607
8.2203,68110.3568,-1.93033,-2.99629,2.40314
8.2281,68110.3669,-2.05678,-2.33595,1.61513
8.2395,68110.3769,-2.27059,-2.52471,1.05374
8.2481,68110.3869,-2.41719,-2.87718,0.89309
8.2607,68110.3969,-2.43369,-3.09709,1.20951
8.268,68110.4068,-2.36099,-2.9908,1.75563
8.2794,68110.4168,-2.24921,-2.86251,2.39215
8.288,68110.4269,-2.10077,-2.84052,3.04455
8.2995,68110.4369,-1.96638,-2.83014,3.65847
8.3089,68110.4469,-1.98531,-2.85274,4.06897
8.3195,68110.4568,-2.27303,-2.83869,4.5033
8.328,68110.4668,-2.66459,-2.73423,4.83317
8.3396,68110.4768,-3.24553,-2.39948,5.15082
8.3492,68110.4869,-3.71773,-2.24798,5.48007
8.3634,68110.4969,-4.05859,-2.1423,5.94738
8.3679,68110.5069,-4.17465,-2.00669,6.22899
8.3822,68110.5169,-4.38662,-1.70615,6.74884
8.388,68110.5269,-4.61692,-1.45691,7.11108
8.3995,68110.5368,-4.9364,-0.96944,7.56251
8.4098,68110.5469,-5.17708,-0.62186,7.92353
8.4216,68110.5569,-5.53688,-0.31215,8.23752
8.4281,68110.5669,-5.92784,-0.16493,8.24118
8.4395,68110.5769,-6.37255,-0.17776,7.86428
8.4494,68110.5869,-6.62911,-0.16005,7.39513
8.4615,68110.5968,-6.73235,-0.03604,6.92294
8.4681,68110.6068,-6.69447,0.33353,6.71952
8.4793,68110.6168,-6.54298,1.04947,6.72746
8.4879,68110.6268,-6.41286,1.61085,6.95409
8.5006,68110.6369,-6.34567,2.19117,7.33527
8.5086,68110.6469,-6.29191,2.51188,7.62177
8.5196,68110.6568,-6.28947,2.62977,7.69202
8.5298,68110.6668,-6.18501,2.66643,7.42568
8.546,68110.6769,-5.94616,2.66337,6.85635
8.5594,68110.6878,-5.61446,2.79165,6.2577
8.5649,68110.6979,-5.18319,3.05555,5.66333
8.5711,68110.7088,-4.83072,3.43367,5.36523
8.5847,68110.7188,-4.5595,3.79653,5.45686
8.598,68110.7289,-4.41106,3.95963,5.79467
8.6056,68110.7389,-4.30843,4.04759,6.37438
8.6111,68110.7489,-4.2559,4.01644,6.8142
8.626,68110.7589,-4.12517,3.74277,6.86857
8.6309,68110.7688,-3.85273,3.32799,6.36644
8.6465,68110.7788,-3.29806,2.99629,5.31025
8.6508,68110.7889,-2.80693,2.94376,4.49963
8.6638,68110.7989,-2.24126,2.86007,4.03721
8.6727,68110.8087,-1.89124,2.69575,3.9242
8.6871,68110.8189,-1.59986,2.71957,4.01766
8.6905,68110.8289,-1.53755,2.89428,4.23635
8.7048,68110.8388,-1.87536,2.48133,4.36524
8.7106,68110.8489,-2.19606,1.8723,4.31515
8.7223,68110.8589,-2.53081,0.97861,3.97001
8.7303,68110.8689,-2.53815,0.35064,3.32922
8.747,68110.8789,-2.27364,-0.26267,2.52837
8.7538,68110.8889,-2.01158,-0.90042,1.9511
8.7706,68110.8988,-1.98592,-1.32619,1.54305
8.7749,68110.9099,-2.23027,-1.70309,1.10322
8.7942,68110.9209,-2.56014,-1.8497,0.60598
8.7967,68110.9309,-2.71102,-1.85398,0.26573
8.8049,68110.9409,-2.78555,-1.85825,-0.10446
8.8126,68110.9508,-2.85213,-1.82465,-0.35003
8.825,68110.9609,-2.98224,-1.74158,-0.45143
8.8328,68110.9709,-3.12091,-1.66278,-0.38179
8.845,68110.9809,-3.40557,-1.64017,-0.13073
8.8529,68110.9909,-3.81302,-1.62429,0.1295
8.8665,68111.0009,-4.43183,-1.51556,0.27306
8.8737,68111.0119,-5.04147,-1.1808,0.32437
8.8879,68111.0219,-5.52894,-0.55589,0.46059
8.8987,68111.0318,-5.69265,-0.25717,0.72143
8.9084,68111.0418,-5.61263,-0.48014,0.95906
8.9139,68111.0519,-5.40371,-0.86437,0.89675
8.9348,68111.0619,-4.94129,-1.27732,0.4777
8.9452,68111.0719,-4.57966,-1.45386,0.15577
8.9468,68111.0819,-4.19909,-1.32985,-0.15333
8.954,68111.0919,-4.0085,-1.03542,-0.29138
8.9691,68111.1018,-3.94985,-0.8491,-0.25412
8.9784,68111.1119,-3.87961,-0.76541,-0.07697
8.9868,68111.1219,-3.73178,-0.75808,0.25534
8.9936,68111.1319,-3.60777,-0.85521,0.416
9.0053,68111.1419,-3.50148,-1.0965,0.49541
9.0205,68111.1519,-3.44284,-1.09711,0.52473
9.0343,68111.1618,-3.41352,-0.80023,0.48075
9.0398,68111.1718,-3.441,-0.4331,0.45448
9.0456,68111.1819,-3.52958,-0.44838,0.54917
9.0547,68111.1919,-3.58028,-0.53695,0.47953
9.0672,68111.2019,-3.41168,-0.82284,0.18692
9.0734,68111.2119,-3.02806,-0.97128,-0.04887
9.0849,68111.2218,-2.16979,-1.0232,-0.27
9.0934,68111.2318,-1.32924,-1.07329,-0.33048
9.1054,68111.2419,-0.04643,-1.02686,-0.29199
9.1133,68111.2519,0.8772,-0.84116,-0.22602
9.125,68111.2619,2.00791,-0.3207,-0.03054
9.1332,68111.2719,2.88145,0.18143,0.29749
9.145,68111.2818,3.50881,0.45815,0.7086
9.1532,68111.2918,3.94314,0.39034,1.04947
9.1664,68111.3019,4.284,0.42272,1.21868
9.1738,68111.3119,4.38968,0.6689,1.2535
9.1868,68111.3219,4.32432,0.83689,1.24006
9.1978,68111.3319,4.21436,0.80329,1.21807
9.2064,68111.3419,4.20092,0.71899,1.19852
9.2137,68111.3518,4.33531,0.6353,1.18813
9.2261,68111.3619,4.64563,0.57299,1.07634
9.2354,68111.3719,5.00176,0.6182,0.90775
9.2476,68111.3819,5.45747,0.79901,0.66279
9.254,68111.3919,5.74946,0.9279,0.51862
9.2659,68111.4019,5.9034,0.8998,0.53756
9.2775,68111.4118,5.9596,0.686,0.6915
9.2861,68111.4218,6.07811,0.25534,0.97128
9.2958,68111.4328,6.29619,-0.0843,1.20218
9.3069,68111.4428,6.70119,-0.28222,1.43248
9.3155,68111.4529,7.05122,-0.36469,1.55099
9.328,68111.4629,7.3933,-0.47037,1.52716
9.3423,68111.4729,7.50143,-0.75931,1.3158
9.351,68111.4829,7.44889,-1.2816,1.00854
9.3595,68111.4928,7.33588,-1.85764,0.7758
9.3682,68111.5039,7.11047,-2.62,0.35797
9.3759,68111.5139,6.78977,-2.99019,-0.00611
9.3877,68111.5238,6.36888,-3.17894,-0.4215
9.3957,68111.5339,6.07505,-3.182,-0.72021
9.4077,68111.5439,5.78306,-3.39519,-1.03603
9.416,68111.5539,5.67249,-3.63282,-1.32252
9.4303,68111.5639,5.6896,-3.70429,-1.58764
9.4361,68111.5739,5.7232,-3.64076,-1.66339
9.451,68111.5838,5.7684,-3.60716,-1.53633
9.4614,68111.5949,5.92723,-3.66947,-1.15698
9.4713,68111.6048,6.28947,-3.80141,-0.53267
9.4774,68111.6159,6.62972,-3.73361,-0.08247
9.489,68111.6259,7.06832,-3.5253,0.38912
9.4971,68111.6358,7.33038,-3.37198,0.67256
9.5104,68111.6458,7.3988,-3.32555,0.82955
9.5189,68111.6559,7.36215,-3.45444,0.84788
9.5291,68111.6659,7.29617,-3.70123,0.82039
9.5374,68111.6759,7.26197,-3.89549,0.79107
9.5503,68111.6859,7.28518,-4.03171,0.66706
9.5574,68111.6958,7.37375,-3.97246,0.5284
9.5693,68111.7058,7.59916,-3.87105,0.31765
9.5788,68111.7159,7.77265,-3.9016,0.15638
9.5914,68111.7259,7.84656,-3.89121,0.07636
9.6,68111.7369,7.79098,-3.84112,0.12462
9.6265,68111.7478,7.57229,-3.98345,0.25901
9.6304,68111.7578,7.35726,-4.15388,0.29566
9.6351,68111.7679,7.19294,-4.3237,0.1631
9.6398,68111.7779,7.17095,-4.47092,0.00061
9.6541,68111.7879,7.23753,-4.78063,-0.30665
9.6613,68111.7989,7.29251,-5.35301,-0.69455
9.6771,68111.8089,7.30961,-5.89729,-1.32436
9.6817,68111.8199,7.34627,-6.26565,-1.98837
9.7003,68111.8299,7.43301,-6.4825,-2.80448
9.7098,68111.8409,7.47821,-6.55397,-3.44528
9.7258,68111.8518,7.38047,-6.53931,-3.97124
9.7304,68111.8619,7.0726,-6.41836,-4.07875
9.7408,68111.8719,6.34506,-6.23021,-3.88938
9.7516,68111.8819,5.5546,-5.89546,-3.62426
9.7596,68111.8919,4.44099,-5.18502,-3.26202
9.764,68111.9019,3.46544,-4.76292,-2.88939
9.7758,68111.9118,2.45507,-4.53323,-2.47278
9.7841,68111.9218,1.78373,-4.34264,-2.12703
9.7955,68111.9319,1.08795,-4.18626,-1.64567
9.8034,68111.9419,0.57299,-4.05737,-1.16003
9.8197,68111.9519,-0.12889,-4.18626,-0.50641
9.8245,68111.9619,-0.76297,-4.60898,-0.09163
9.8408,68111.9718,-1.67133,-5.15937,0.3934
9.8451,68111.9818,-2.27669,-5.29987,0.76603
9.8575,68111.9919,-2.80326,-4.9981,1.26022
9.8643,68112.0019,-3.04516,-4.2614,1.66155
9.8773,68112.0119,-3.10442,-3.18505,1.8387
9.8844,68112.0219,-3.11847,-2.81426,1.92056
9.9008,68112.0318,-3.06288,-2.99385,2.04273
9.9056,68112.0418,-2.94254,-3.51919,1.93889
9.9258,68112.0519,-2.73729,-3.8399,1.62307
9.9285,68112.0628,-2.53631,-3.99139,1.40438
9.945,68112.0729,-2.35305,-4.29683,1.39705
9.949,68112.0829,-2.25348,-4.65052,1.58153
9.9617,68112.0929,-2.26509,-4.7959,1.89307
9.966,68112.1029,-2.43552,-4.69083,2.18995
9.9935,68112.1129,-2.79898,-4.33287,2.56563
10.0075,68112.1228,-3.09892,-3.71528,2.73607
10.0137,68112.1328,-3.49598,-3.27302,2.64566
10.0235,68112.1429,-3.91687,-2.91016,2.39459
10.0256,68112.1528,-4.3402,-2.8393,2.19056
10.0297,68112.1629,-4.3964,-3.22781,2.28097
10.0423,68112.1729,-4.21497,-3.79164,2.7434
10.05,68112.1828,-3.94985,-4.06653,3.37931
10.0604,68112.1928,-3.63526,-4.04881,3.97185
10.0653,68112.2029,-3.46849,-3.7727,4.44954
10.0841,68112.2129,-3.42268,-3.39152,4.96695
10.0867,68112.2229,-3.45139,-3.06166,5.31575
10.0996,68112.2329,-3.53263,-2.51127,5.79711
10.1043,68112.2429,-3.64198,-1.83809,6.30902
10.118,68112.2528,-3.87899,-1.1527,7.11719
10.1243,68112.2629,-4.12334,-0.80329,7.74394
10.136,68112.2729,-4.44038,-0.41966,8.2082
10.1448,68112.2829,-4.70122,-0.0898,8.37191
10.1569,68112.2929,-4.95473,0.0788,8.36213
10.1678,68112.3029,-5.10928,0.08125,8.006
10.176,68112.3128,-5.23573,0.20953,7.309
10.1877,68112.3228,-5.33102,0.4441,6.83131
10.1972,68112.3329,-5.46908,0.97861,6.45379
10.2057,68112.3438,-5.46663,1.35368,6.38599
10.2208,68112.3539,-5.30231,1.47707,6.54053
10.2294,68112.3639,-5.0879,1.52594,6.77083
10.2377,68112.3739,-4.74948,1.65606,7.06343
10.2459,68112.3839,-4.43488,1.85886,7.32061
10.2588,68112.3938,-4.11784,2.0971,7.68346
10.2682,68112.4038,-3.94191,2.34878,7.90093
10.2838,68112.4139,-3.88205,2.81731,8.19231
10.2909,68112.4239,-4.29255,3.07143,8.28089
10.2986,68112.4339,-5.12944,3.21132,7.9162
10.306,68112.4439,-5.47702,3.34327,7.58389
10.3291,68112.4538,-5.48862,3.51309,7.41407
10.3324,68112.4638,-5.12088,3.55096,7.34993
10.3403,68112.4739,-4.42938,3.47338,7.42262
10.3489,68112.4839,-3.70978,3.32066,7.52158
10.3626,68112.4939,-3.047,3.14901,7.58084
10.3695,68112.5039,-2.53387,3.06471,7.6181
10.38,68112.5139,-2.1643,2.90833,7.65536
10.3866,68112.5249,-1.87047,2.56258,7.69385
10.3999,68112.5349,-1.46852,2.1026,7.72683
10.4075,68112.5448,-1.05069,1.78312,7.69202
10.42,68112.5548,-0.43616,1.22723,7.47882
10.4275,68112.5649,0.22358,0.46426,7.02862
10.4412,68112.5758,0.92729,-0.59132,6.29252
10.4511,68112.5859,1.4392,-1.68416,5.51611
10.4631,68112.5959,1.86008,-2.84663,4.58027
10.468,68112.6058,1.96576,-3.44956,3.90526
10.4839,68112.6159,1.84848,-3.72506,3.4856
10.4888,68112.6269,1.69821,-3.08976,3.24797
10.5029,68112.6369,1.46241,-2.21744,3.26752
10.5088,68112.6469,1.24861,-1.78678,3.52591
10.5208,68112.6568,1.11911,-1.58825,3.95291
10.5327,68112.6668,1.10261,-1.55954,4.50391
10.5463,68112.6769,1.17958,-1.80144,5.04575
10.5512,68112.6869,1.38178,-2.17163,5.22595
10.5654,68112.6969,1.799,-2.73362,4.88142
10.5735,68112.7079,2.09527,-2.96025,4.36524
10.5825,68112.7179,2.25226,-2.9627,3.80813
10.5897,68112.7279,2.14902,-2.82464,3.58089
10.6035,68112.7379,1.9511,-2.54181,3.57906
10.6102,68112.7478,1.7709,-2.12276,3.78614
10.6266,68112.7578,1.66216,-1.32375,4.1435
10.6306,68112.7679,1.50578,-0.69516,4.51368
10.6452,68112.7779,1.36162,-0.67867,5.03842
10.6518,68112.7879,1.41965,-1.24311,5.36767
10.666,68112.7979,1.83076,-2.54486,5.44586
10.6692,68112.8078,2.46362,-3.81058,5.10317
10.6842,68112.8178,3.17283,-4.61814,4.29194
10.6893,68112.8279,3.4801,-4.7281,3.54363
10.7021,68112.8379,3.29684,-4.57355,2.7379
10.7107,68112.8479,2.755,-4.39029,2.54914
10.7218,68112.8579,1.82893,-4.39212,2.6988
10.7332,68112.8678,1.21257,-4.55461,2.92849
10.765,68112.8778,0.81123,-4.65174,3.00485
10.7664,68112.8878,0.90836,-4.66029,2.72568
10.7671,68112.8979,1.51678,-4.56683,1.85031
10.773,68112.9079,2.04945,-4.38601,1.10383
10.7873,68112.9179,2.41353,-4.10868,0.39034
10.794,68112.9279,2.45812,-4.0311,-0.05253
10.8036,68112.9378,2.23027,-4.0592,-0.2529
10.8094,68112.9479,1.87963,-4.22658,-0.24435
10.8224,68112.9579,1.40804,-4.45687,-0.14905
10.8294,68112.9679,1.15942,-4.71099,-0.03238
10.8414,68112.9779,1.03419,-4.90342,0.11484
10.8494,68112.9879,1.06718,-4.94618,0.28588
10.8625,68112.9978,1.24739,-5.11661,0.48991
10.8707,68113.0078,1.52472,-5.24672,0.60476
10.8917,68113.0179,1.97126,-5.51306,0.60415
10.8948,68113.0279,2.36344,-5.92112,0.42516
10.9048,68113.0379,2.71469,-6.52648,0.04887
10.9096,68113.0479,2.83136,-6.98402,-0.31826
10.9222,68113.0578,2.76783,-7.61871,-0.86682
10.931,68113.0689,2.63711,-8.13978,-1.24861
10.9432,68113.0789,2.49233,-8.66268,-1.39827
10.9528,68113.0888,2.4343,-8.89542,-1.3494
10.9749,68113.0989,2.40742,-8.70911,-1.2932
10.9871,68113.1089,2.55281,-7.8881,-1.40255
10.9883,68113.1189,2.72324,-7.10009,-1.36651
10.9927,68113.1289,2.82036,-6.90278,-1.0965
11.0079,68113.1389,3.02134,-6.75189,-0.58399
11.0127,68113.1488,3.14168,-6.39393,-0.27184
11.0354,68113.1588,3.10442,-5.74274,0.09041
11.037,68113.1689,2.8784,-5.36951,0.40623
11.0473,68113.1789,2.40253,-5.24428,0.77336
11.0525,68113.1889,1.58581,-5.35057,1.23822
11.0637,68113.1989,0.3207,-5.19297,1.72875
11.0787,68113.2088,-0.79107,-5.04636,1.95966
11.0852,68113.2188,-1.5742,-4.87593,1.92056
11.0912,68113.2299,-1.91018,-3.23026,1.34696
11.1033,68113.2398,-1.98348,-1.38361,0.6243
11.1113,68113.2499,-1.95599,-1.01953,0.43005
11.1245,68113.2599,-1.7764,-1.30786,0.55161
11.1326,68113.2708,-1.34513,-1.40499,0.70494
11.1469,68113.2809,-0.74953,-1.20218,0.82589
11.1534,68113.2909,-0.33964,-1.14232,1.01404
11.1705,68113.3009,-0.0336,-1.23028,1.10383
11.1826,68113.3109,-0.1741,-1.61757,0.92668
11.1875,68113.3208,-0.63591,-2.65116,0.51801
11.1938,68113.3308,-1.29503,-3.78798,0.14905
11.2062,68113.3409,-2.19973,-4.07203,-0.24068
11.2129,68113.3509,-2.75928,-3.26996,-0.59315
11.2252,68113.3609,-3.19238,-2.57296,-0.86865
11.2329,68113.3709,-3.36037,-2.58029,-0.88637
11.2467,68113.3809,-3.27302,-2.62244,-0.79351
11.2647,68113.3908,-3.12396,-2.38665,-0.70066
11.2703,68113.4009,-3.01462,-2.04701,-0.47342
11.2746,68113.4109,-3.07204,-1.93217,-0.16616
11.3023,68113.4208,-3.20216,-2.29869,0.19487
11.3212,68113.4309,-3.29745,-2.9346,0.48503
11.3279,68113.4409,-3.51858,-3.72933,0.86926
11.331,68113.4519,-3.78675,-4.43305,1.09345
11.3376,68113.4618,-3.96146,-4.79346,1.07085
11.3417,68113.4729,-3.88449,-4.32798,0.81062
11.3554,68113.4839,-3.66092,-2.94315,0.40745
11.3603,68113.4948,-3.57906,-2.3445,0.36469
11.3712,68113.5049,-3.46116,-2.03785,0.58215
11.3768,68113.5149,-3.19727,-2.23699,0.69761
11.389,68113.5249,-2.81181,-2.53448,0.47709
11.3967,68113.5349,-2.56258,-2.78799,0.11301
11.4171,68113.5448,-2.35489,-3.11541,-0.37813
11.4203,68113.5548,-2.2431,-3.54241,-0.73793
11.4333,68113.5649,-2.21378,-3.87227,-0.98349
11.4464,68113.5749,-2.30663,-3.95902,-0.97494
11.457,68113.5848,-2.55036,-3.80752,-0.80573
11.4587,68113.5949,-2.89367,-3.41901,-0.50702
11.4712,68113.6048,-3.21804,-3.19055,-0.04643
11.48,68113.6159,-3.46605,-3.00057,0.4667
11.4893,68113.6259,-3.75988,-2.80631,1.18935
11.4973,68113.6358,-3.99506,-2.62428,1.89185
11.5125,68113.6467,-4.17649,-2.21805,2.7043
11.5185,68113.6568,-4.19848,-1.67133,3.16367
11.5332,68113.6668,-4.08608,-1.08734,3.55157
11.5384,68113.6769,-3.93458,-0.77091,3.71162
11.552,68113.6869,-3.73605,-0.4777,3.76232
11.5587,68113.6969,-3.5815,-0.1631,3.78187
11.572,68113.7069,-3.44956,0.31093,3.92603
11.5813,68113.7169,-3.41779,0.74831,4.24918
11.5951,68113.7268,-3.47582,1.45997,4.90097
11.6026,68113.7369,-3.56623,2.00303,5.77512
11.618,68113.7469,-3.71895,2.51005,6.88812
11.6236,68113.7578,-3.92481,3.01706,7.84779
11.6336,68113.7679,-4.30232,3.54913,8.82578
11.6411,68113.7779,-4.80018,4.27972,9.52644
11.6537,68113.7879,-5.54482,5.60713,10.14525
11.6595,68113.7979,-6.00969,6.29558,10.42014
11.6724,68113.8078,-6.74395,7.05672,10.73107
11.6794,68113.8178,-7.10925,7.32061,10.85508
11.6914,68113.8279,-7.27479,7.3426,10.82331
11.7081,68113.8379,-7.30228,7.11902,10.27048
11.7208,68113.8479,-6.64255,6.28641,8.97789
11.7228,68113.8579,-5.76657,5.92967,7.9443
11.7355,68113.8678,-4.46848,5.9541,6.8307
11.7412,68113.8778,-3.60655,6.34017,6.30779
11.7602,68113.8889,-2.7434,6.87773,6.04818
11.7646,68113.8988,-2.43491,6.88506,5.89913
11.7843,68113.9088,-2.21255,6.90033,5.44342
11.7859,68113.9189,-2.17529,6.83803,4.89364
11.7938,68113.9289,-2.13864,5.90035,3.78248
11.8051,68113.9389,-1.91628,4.71588,2.84236
11.8161,68113.9499,-1.06901,3.11358,1.55893
11.8231,68113.9609,-0.01222,2.42208,0.76358
11.8369,68113.9709,0.77397,2.34022,0.38912
11.8426,68113.9809,1.14415,2.43002,0.56872
11.8582,68113.9909,1.28404,2.67437,1.06596
11.864,68114.0009,1.21929,3.22109,1.73791
11.8758,68114.0108,0.9444,4.37013,2.56624
11.8824,68114.0208,0.64752,5.22045,3.0922
11.8956,68114.0309,0.19242,6.2461,3.65481
11.903,68114.0409,-0.18692,6.94554,3.9523
11.9152,68114.0509,-0.67501,7.43056,4.18198
11.9232,68114.0609,-1.1472,7.09031,4.25651
11.9382,68114.0708,-1.72325,5.99198,4.09646
11.945,68114.0819,-2.30785,4.62303,3.37198
11.9595,68114.0919,-2.72507,3.23759,2.44163
11.98,68114.1029,-2.82525,1.98165,2.33778
11.9831,68114.1129,-2.56747,0.63163,2.67315
11.9865,68114.1228,-1.98043,-0.35247,3.04761
12.0038,68114.1328,-1.10689,-1.0458,3.42268
12.0059,68114.1429,-0.40378,-1.19607,3.71284
12.0203,68114.1529,0.01466,-1.13438,4.10868
12.0308,68114.1639,0.01894,-1.17897,4.62975
12.0398,68114.1739,-0.43433,-1.61146,5.03109
12.0463,68114.1839,-1.32802,-2.42391,5.00054
12.0583,68114.1939,-2.16124,-2.96209,4.64135
12.0717,68114.2039,-2.57235,-2.97186,4.03965
12.0773,68114.2138,-2.51799,-2.7153,3.48438
12.107,68114.2239,-2.17896,-2.5076,3.39152
12.1078,68114.2339,-1.74524,-2.07511,3.77026
12.1107,68114.2439,-1.52716,-1.48929,4.37563
12.1194,68114.2539,-1.50517,-0.74037,5.34324
12.1262,68114.2639,-1.67438,-0.36285,6.07261
12.1365,68114.2738,-1.90101,-0.49175,6.488
12.1484,68114.2838,-2.0183,-0.91202,6.43302
12.157,68114.2939,-2.12764,-1.45875,6.04818
12.1683,68114.3039,-2.17529,-1.88208,5.65783
12.1768,68114.3139,-2.15758,-2.26326,5.39577
12.1878,68114.3239,-2.15452,-2.47462,5.36095
12.2011,68114.3338,-2.15025,-2.56136,5.4422
12.2052,68114.3438,-2.16979,-2.36466,5.39638
12.2201,68114.3539,-2.33045,-2.03113,5.09645
12.2253,68114.3639,-2.43674,-1.90407,4.77758
12.2396,68114.3739,-2.339,-2.10871,4.59187
12.2469,68114.3839,-2.11237,-2.64077,4.54239
12.2622,68114.3949,-1.84176,-3.55524,4.43916
12.2703,68114.4048,-1.6921,-4.15327,4.16427
12.2803,68114.4149,-1.56931,-4.79651,3.7446
12.2863,68114.4247,-1.40377,-5.07263,3.57478
12.3009,68114.4348,-1.21379,-5.09706,3.70429
12.3068,68114.4449,-1.18874,-5.0714,3.98223
12.3203,68114.4548,-1.28648,-5.03231,4.22291
12.3268,68114.4649,-1.33718,-5.16975,4.33898
12.3397,68114.4749,-1.23456,-5.61629,4.33959
12.3489,68114.4848,-1.15942,-6.04085,4.23696
12.3601,68114.4948,-1.09162,-6.51366,4.0311
12.3737,68114.5049,-1.15087,-6.65599,3.64564
12.3851,68114.5149,-1.31519,-6.2858,3.00851
12.3901,68114.5249,-1.44347,-5.66028,2.48256
12.4015,68114.5349,-1.46852,-4.96817,2.01586
12.408,68114.5459,-1.3549,-4.55461,1.7935
12.421,68114.5559,-1.15637,-4.15266,1.46608
12.4279,68114.5658,-1.07818,-3.45689,1.09345
12.4394,68114.5758,-1.21379,-2.36038,0.62675
12.4483,68114.5859,-1.65667,-0.91508,0.19731
12.4597,68114.5959,-2.21683,0.80573,-0.34331
12.4678,68114.6059,-2.4624,2.09038,-0.70188
12.4796,68114.6159,-2.37382,2.79654,-0.99082
12.4878,68114.6259,-2.07755,2.66887,-1.29992
12.4999,68114.6358,-1.48074,1.67255,-1.86131
12.5101,68114.6458,-0.82284,0.2755,-2.4288
12.5198,68114.6559,-0.13561,-1.30908,-3.09281
12.5279,68114.6659,0.21564,-2.18751,-3.66153
12.5426,68114.6759,0.41294,-2.93887,-4.16977
12.5523,68114.6859,0.38362,-3.16428,-4.34936
12.5646,68114.6958,0.22113,-3.11236,-4.29438
12.5694,68114.7069,0,-2.68781,-4.08425
12.5828,68114.7169,-0.24923,-1.99264,-3.86006
12.5903,68114.7279,-0.62553,-1.21623,-3.65297
12.606,68114.7379,-1.31214,-0.39706,-3.44711
12.6136,68114.7478,-2.0238,0.17837,-3.31944
12.6215,68114.7578,-2.87595,0.83383,-3.39947
12.6353,68114.7679,-3.32066,0.97555,-3.66702
12.6456,68114.7779,-3.44161,0.51129,-3.91626
12.65,68114.7879,-3.3848,-0.25229,-3.87838
12.6614,68114.7979,-3.06288,-1.04947,-3.66214
12.6695,68114.8078,-2.54792,-1.65606,-3.42756
12.6813,68114.8178,-1.86253,-1.97615,-3.2382
12.6894,68114.8279,-1.22051,-1.6475,-3.36281
12.7021,68114.8379,-0.71349,-0.76419,-3.86861
12.7096,68114.8479,-0.54611,-0.39401,-4.48192
12.7251,68114.8579,-0.71899,-0.65179,-5.07201
12.7357,68114.8678,-1.10383,-1.12094,-5.50939
12.7504,68114.8778,-1.70554,-1.51556,-5.89546
12.7632,68114.8879,-2.1533,-1.47829,-6.18318
12.765,68114.8979,-2.41903,-1.52594,-6.53809
12.7695,68114.9079,-2.5076,-1.77029,-6.58452
12.7817,68114.9179,-2.50577,-1.63101,-6.40981
12.7896,68114.9279,-2.4178,-1.32375,-6.26809
12.8029,68114.9378,-2.11848,-0.73609,-6.12576
12.8102,68114.9479,-1.83504,-0.39951,-6.07444
12.8243,68114.9578,-1.51006,0.11057,-6.04757
12.8311,68114.9679,-1.43737,0.5455,-6.04451
12.8418,68114.9779,-1.60658,0.96761,-6.04451
12.8514,68114.9879,-1.92972,1.15576,-6.10071
12.8611,68114.9978,-2.40253,1.34207,-6.0946
12.8694,68115.0078,-2.82464,1.30786,-5.93578
12.8813,68115.0179,-3.2382,0.77641,-5.61568
12.8892,68115.0279,-3.6261,0.38485,-5.15448
12.9029,68115.0379,-3.98528,-0.13806,-4.60898
12.9092,68115.0479,-4.24124,-0.38668,-4.41045
12.9212,68115.0578,-4.41717,-0.29199,-4.40251
12.9291,68115.0678,-4.53567,0.07086,-4.37502
12.945,68115.0779,-4.78124,1.02014,-4.1771
12.95,68115.0879,-4.91747,1.62796,-3.82218
12.9625,68115.0979,-5.02681,2.29074,-3.22598
12.9702,68115.1079,-5.11844,2.71041,-2.79226
12.9825,68115.1179,-5.35057,3.20154,-2.41903
12.9974,68115.1278,-5.5546,3.35854,-2.24188
13.0066,68115.1379,-5.76229,3.03295,-2.15574
13.0107,68115.1479,-5.95899,2.6872,-2.17285
13.026,68115.1579,-6.22166,2.49844,-2.24798
13.0364,68115.1679,-6.3023,2.50088,-2.30602
13.0459,68115.1779,-6.24854,2.1252,-2.36649
13.0569,68115.1878,-6.10804,1.77151,-2.35305
13.0628,68115.1978,-5.84415,1.19485,-2.23638
13.0706,68115.2079,-5.55154,0.88698,-2.05434
13.0877,68115.2179,-5.2791,0.79657,-1.73241
13.0898,68115.2279,-5.17647,0.83627,-1.24067
13.1018,68115.2379,-5.15448,0.87842,-0.44288
13.1092,68115.2478,-5.19724,0.84299,0.24557
13.121,68115.2578,-5.27788,0.70921,1.18691
13.1291,68115.2679,-5.34202,0.67134,1.81427
13.141,68115.2779,-5.41349,0.36041,2.05801
13.1491,68115.2879,-5.46358,-0.30971,1.91262
13.1609,68115.2979,-5.45258,-1.23945,1.19058
13.1692,68115.3078,-5.30475,-1.69454,0.21014
13.1812,68115.3178,-5.03414,-1.81977,-0.81612
13.1986,68115.3279,-4.79529,-1.90895,-1.20279
13.2107,68115.3379,-4.43671,-1.82099,-1.01648
13.2138,68115.3479,-4.10624,-1.58275,-0.34941
13.2279,68115.3579,-3.84173,-1.19424,0.64752
13.2353,68115.3679,-3.75499,-0.8937,1.50395
13.2461,68115.3777,-3.84295,-0.5681,2.16552
13.2512,68115.3879,-4.02988,-0.10873,2.53326
13.2621,68115.3979,-4.31576,-0.09713,2.48439
13.2745,68115.4079,-4.56316,-0.51496,1.83076
13.2849,68115.4179,-4.72138,-1.11911,0.60109
13.29,68115.4279,-4.81484,-1.74646,-0.45815
13.3021,68115.4378,-4.84477,-2.47523,-1.48013
13.3099,68115.4478,-4.75742,-3.10992,-1.81427
13.3236,68115.4578,-4.54789,-3.26507,-1.66278
13.3365,68115.4678,-4.21069,-2.8784,-1.21501
13.3498,68115.4779,-3.82951,-2.0861,-0.7086
13.3552,68115.4879,-3.53874,-1.59986,-0.33964
13.3652,68115.4978,-3.1991,-1.3494,0.04276
13.3751,68115.5078,-2.91077,-1.21135,0.31643
13.3853,68115.5179,-2.41353,-1.18386,0.5174
13.3895,68115.5279,-1.93339,-1.0739,0.46976
13.4017,68115.5379,-1.60108,-0.76175,0.23824
13.4098,68115.5479,-1.56076,-0.54489,0.00061
13.4222,68115.5578,-1.69882,-0.8039,-0.25045
13.4308,68115.5678,-1.65789,-1.18813,-0.35003
13.4424,68115.5779,-1.08795,-1.32069,-0.22235
13.4501,68115.5879,-0.24801,-1.28587,0.08247
13.463,68115.5979,0.84177,-0.81673,0.41783
13.4701,68115.6079,1.61024,-0.35797,0.69639
13.4836,68115.6178,2.49905,0.01222,1.19852
13.4902,68115.6278,3.19055,0.1124,1.72508
13.5035,68115.6379,3.6939,0.1124,2.19117
13.5109,68115.6479,4.02988,-0.05925,2.50394
13.5236,68115.6579,4.3457,-0.26756,2.59373
13.5315,68115.6689,4.67678,-0.14661,2.40986
13.5498,68115.6789,4.94557,-0.00367,2.09649
13.5599,68115.6889,5.09523,-0.08674,1.88941
13.5654,68115.6989,5.19907,-0.416,1.66644
13.5754,68115.7088,5.20885,-0.84177,1.53755
13.5868,68115.7188,5.16181,-1.37933,1.36345
13.5927,68115.7298,5.09278,-1.42332,1.11605
13.6129,68115.7398,5.15265,-1.35979,0.78924
13.6209,68115.7509,5.31392,-1.52838,0.58643
13.6281,68115.7608,5.58575,-1.62307,0.35736
13.6382,68115.7708,5.81299,-1.56381,0.22724
13.6454,68115.7809,5.84476,-1.40499,0.22358
13.6559,68115.7918,5.69082,-1.39338,0.31032
13.6677,68115.8019,5.43242,-1.54977,0.39889
13.676,68115.8119,5.24367,-1.68782,0.40989
13.6871,68115.8219,5.0995,-1.76784,0.39095
13.6964,68115.8319,5.04025,-1.81366,0.38179
13.7067,68115.8419,4.99016,-1.98104,0.42699
13.7132,68115.8518,4.94679,-2.32495,0.51985
13.7261,68115.8619,4.88692,-2.70308,0.69944
13.7333,68115.8719,4.86921,-2.85274,0.84788
13.7479,68115.8819,4.91747,-2.98957,0.90591
13.7548,68115.8919,4.98405,-3.15878,0.76358
13.769,68115.9019,4.99688,-3.24247,0.44899
13.7798,68115.9118,4.82645,-3.22354,0.19487
13.7941,68115.9218,4.45443,-3.23026,0.07208
13.796,68115.9319,4.0928,-3.39641,0.11484
13.8092,68115.9419,3.79836,-3.79958,0.18998
13.8197,68115.9519,3.74033,-3.97795,0.09346
13.827,68115.9619,3.62854,-3.99262,-0.23946
13.8348,68115.9729,3.41779,-3.9187,-0.6689
13.8477,68115.9829,3.16123,-3.97429,-1.05374
13.8561,68115.9928,3.07998,-4.01827,-1.12766
13.8696,68116.0028,3.13496,-4.19359,-1.06291
13.8747,68116.0129,3.25164,-4.36585,-1.02686
13.8904,68116.0229,3.47033,-4.42511,-1.16248
13.8956,68116.0329,3.7556,-4.29683,-1.47341
13.9083,68116.0429,4.25468,-4.21619,-1.92667
13.916,68116.0529,4.68106,-4.24002,-2.22477
13.9271,68116.0639,5.02864,-4.36769,-2.46057
13.9413,68116.0739,5.04453,-4.62547,-2.47339
13.9472,68116.0838,5.00482,-5.03292,-2.44468
13.957,68116.0938,5.0543,-5.39333,-2.55953
13.967,68116.1039,5.26138,-5.94128,-2.96881
13.9752,68116.1139,5.51856,-6.34261,-3.52286
13.9871,68116.1239,5.76474,-6.80076,-4.10257
13.9981,68116.1339,5.9199,-7.10558,-4.42511
14.0095,68116.1438,6.14653,-7.05549,-4.72321
14.0211,68116.1538,6.30352,-6.70364,-4.85699
14.0272,68116.1639,6.52954,-6.53076,-4.93885
14.0355,68116.1739,6.72502,-6.59857,-5.03536
14.0465,68116.1839,6.88934,-6.6737,-5.25466
14.055,68116.1939,6.92294,-6.77205,-5.57842
14.0665,68116.2039,6.72929,-7.05366,-5.86797
14.075,68116.2138,6.35544,-7.31817,-6.00481
14.0865,68116.2238,5.79589,-7.29312,-6.06406
14.095,68116.2338,5.0543,-7.08359,-5.95899
14.1065,68116.2438,4.01888,-6.87651,-5.61813
14.115,68116.2539,3.03967,-6.7354,-5.21679
14.1293,68116.2639,1.98409,-6.44829,-4.7733
14.1378,68116.2738,1.30664,-5.33713,-4.5876
14.1467,68116.2838,0.51068,-4.19664,-4.34264
14.1552,68116.2938,-0.17165,-3.97918,-3.79592
14.1666,68116.3038,-0.73059,-3.85884,-2.80326
14.1751,68116.3138,-0.96517,-3.45811,-1.86742
14.1897,68116.3239,-1.12399,-2.89123,-0.62186
14.1951,68116.3338,-1.19485,-2.90711,0.05253
14.209,68116.3438,-1.26571,-3.20093,0.686
14.2164,68116.3538,-1.35184,-3.37625,1.11849
14.2292,68116.3638,-1.55648,-3.32066,1.52044
14.2367,68116.3738,-1.93889,-3.61449,1.97432
14.2506,68116.3848,-2.59862,-4.08425,2.65726
14.2578,68116.3948,-3.0134,-4.45076,3.15939
14.2701,68116.4049,-3.31028,-3.97551,3.48438
14.2779,68116.4149,-3.16428,-2.02319,3.22231
14.2912,68116.4258,-2.75073,-1.37811,2.44346
14.2988,68116.4359,-2.48256,-1.62001,1.94133
14.3125,68116.4468,-2.12887,-1.3268,1.80389
14.3199,68116.4568,-1.87536,-1.02259,2.24737
14.3349,68116.4678,-1.74707,-0.59437,3.29989
14.341,68116.4777,-1.89551,-0.09713,4.15083
14.3556,68116.4879,-2.3671,0.27733,4.94312
14.3702,68116.4978,-3.03356,0.37935,5.36767
14.3745,68116.5078,-3.9242,0.33903,5.70792
14.3864,68116.5188,-4.61631,0.43982,6.07322
14.3998,68116.5299,-5.10256,1.20035,6.8026
14.4064,68116.5399,-5.24306,1.91873,7.37375
14.4246,68116.5498,-5.39761,2.55525,7.88199
14.426,68116.5609,-5.42754,2.56197,7.69996
14.4357,68116.5708,-5.28704,2.32434,6.97058
14.4485,68116.5819,-5.08606,2.03846,6.00053
14.4612,68116.5918,-4.86371,1.93217,5.09584
14.4667,68116.6018,-4.72993,2.25165,4.80201
14.4766,68116.6118,-4.72382,2.72446,5.10011
14.4851,68116.6218,-4.8466,3.11602,5.58331
14.4954,68116.6318,-5.13493,3.75804,6.32979
14.5033,68116.6419,-5.53138,4.16182,6.87773
14.5178,68116.6519,-5.95533,4.55339,7.30595
14.5232,68116.6618,-6.03718,4.53384,7.31817
14.5373,68116.6718,-5.80994,4.32187,6.8252
14.5433,68116.6818,-5.20091,4.29438,6.09888
14.5556,68116.6918,-4.27117,4.48009,5.41471
14.5645,68116.7019,-3.54791,4.76475,5.17892
14.5856,68116.7119,-3.08426,5.37195,5.39089
14.5874,68116.7218,-2.94987,5.58392,5.78428
14.5966,68116.7318,-3.04639,6.04146,6.14592
14.604,68116.7418,-3.17344,6.23144,6.33956
14.6215,68116.7518,-3.20521,5.73969,5.926
14.6248,68116.7618,-2.86801,5.32552,5.05858
14.6473,68116.7719,-2.14719,5.04453,3.61388
14.6542,68116.7818,-1.73974,4.99993,2.95048
14.6586,68116.7918,-1.43553,5.08667,2.66154
14.666,68116.8018,-1.31092,5.52772,2.80204
14.6778,68116.8118,-1.28282,6.26137,3.51553
14.6879,68116.8228,-1.33963,6.76961,4.44832
14.6969,68116.8328,-1.34268,7.06099,5.44586
14.7048,68116.8428,-1.17103,7.12697,5.86064
14.7179,68116.8529,-0.77702,7.04083,5.93272
14.727,68116.8629,-0.30788,7.05366,5.66394
14.7389,68116.8728,0.13195,6.28519,4.9926
14.7449,68116.8828,0.27917,4.71893,4.05492
14.7562,68116.8928,0.25229,2.4117,2.47217
14.766,68116.9028,0.11484,0.87965,1.13193
14.776,68116.9128,-0.00977,0.12706,0.23213
14.7843,68116.9229,0.01649,0.33414,0.07208
14.7969,68116.9328,0.17471,1.38666,0.41722
14.8057,68116.9428,0.24801,2.05678,1.03664
14.8183,68116.9528,0.2645,2.34694,1.71836
14.8266,68116.9638,0.27122,2.59862,2.13986
14.8437,68116.9738,0.30543,3.33594,2.3219
14.8522,68116.9838,0.2529,4.11357,2.32007
14.8659,68116.9938,0.18448,4.81362,2.2712
14.8691,68117.0039,0.19059,5.23756,2.24859
14.8806,68117.0148,0.32132,5.5827,2.3555
14.8876,68117.0258,0.47647,5.54666,2.68597
14.8996,68117.0358,0.73793,5.54543,2.901
14.9077,68117.0458,0.5962,5.1386,2.44529
14.9226,68117.0559,-0.54306,3.65542,1.00487
14.9313,68117.0668,-1.27671,2.64321,-0.21747
14.9428,68117.0769,-1.01281,2.52287,-0.45204
14.9482,68117.0869,-0.44043,2.32923,-0.1631
14.9606,68117.0968,-0.18509,1.69026,0.31704
14.9682,68117.1068,-0.17776,1.28098,0.43127
14.9804,68117.1168,-0.11912,0.85643,0.33353
14.99,68117.1268,-0.00244,0.43005,0.30177
15.017,68117.1368,0.08735,0.11606,0.33292
15.0184,68117.1469,0.12462,0.06658,0.31887
15.0242,68117.1568,0.11118,0.12584,0.25229
15.0282,68117.1668,0.05925,0.17287,0.20708
15.0402,68117.1767,-0.00855,0.29932,0.21441
15.0489,68117.1868,-0.14783,0.36224,0.19487
15.0593,68117.1967,-0.35736,0.37874,0.06292
15.0691,68117.2067,-0.43371,0.34453,-0.06475
15.0795,68117.2168,-0.42089,0.2193,-0.23091
15.0878,68117.2267,-0.31032,-0.011,-0.34575
15.0997,68117.2367,-0.15088,-0.3934,-0.4331
15.1079,68117.2468,-0.01344,-0.78374,-0.44349
15.1194,68117.2568,0.07758,-1.18325,-0.45204
15.1279,68117.2668,0.17898,-1.63712,-0.47953
15.1395,68117.2768,0.34819,-2.16368,-0.49724
15.1498,68117.2867,0.5058,-2.37199,-0.42577
15.1618,68117.2967,0.51435,-2.47828,-0.28344
15.1681,68117.3068,0.2303,-2.85457,-0.20831
15.1831,68117.3168,-0.29077,-3.57112,-0.16616
15.1884,68117.3268,-0.69394,-4.29805,-0.13867
15.2028,68117.3368,-0.97616,-5.20457,-0.15272
15.2084,68117.3467,-1.08429,-6.0775,-0.20342
15.2202,68117.3567,-1.03603,-7.41285,-0.36041
15.2297,68117.3668,-0.73793,-8.69933,-0.52962
15.2486,68117.3768,-0.16188,-10.00903,-0.68906
15.2616,68117.3868,0.39034,-10.8337,-0.72082
15.2649,68117.3978,1.0965,-11.2894,-0.56383
15.2769,68117.4078,1.49357,-10.83064,-0.43738
15.2865,68117.4178,1.57909,-9.86547,0.281
15.2924,68117.4278,1.4166,-9.09456,1.16614
15.3033,68117.4377,1.01953,-8.24118,2.5748
15.3109,68117.4477,0.60598,-7.61077,3.77026
15.324,68117.4577,0.13256,-7.03472,4.86188
15.3335,68117.4678,-0.18387,-6.63461,5.39455
15.3417,68117.4778,-0.40195,-5.90523,5.44525
15.3524,68117.4878,-0.38485,-5.13982,4.80323
15.3654,68117.4977,-0.17593,-4.72138,3.60655
15.3737,68117.5077,0.09163,-5.04147,2.72873
15.3824,68117.5178,0.44349,-5.78428,2.32068
15.3898,68117.5278,0.91935,-6.55275,2.2266
15.4023,68117.5378,1.58153,-7.06466,2.31151
15.4098,68117.5478,2.19973,-7.18988,2.51982
15.4273,68117.5577,2.75989,-7.20149,2.83869
15.4299,68117.5677,3.22048,-7.15568,3.16856
15.4547,68117.5778,3.57601,-7.12269,3.44161
15.4573,68117.5878,3.79469,-6.95898,3.52103
15.4651,68117.5978,3.97124,-6.5106,3.28401
15.4739,68117.6077,4.03354,-6.12637,2.91749
15.4844,68117.6177,3.98345,-5.88691,2.47217
15.4919,68117.6277,3.92847,-5.87042,2.25654
15.5018,68117.6378,3.97857,-5.86614,2.22172
15.5096,68117.6478,4.09952,-5.75313,2.28097
15.5248,68117.6578,4.31637,-5.52833,2.37016
15.5347,68117.6678,4.51735,-5.24306,2.39948
15.5442,68117.6778,4.67006,-5.00543,2.32312
15.553,68117.6877,4.7116,-5.00543,2.19423
15.5638,68117.6977,4.80568,-5.16059,1.99875
15.5713,68117.7078,5.00299,-5.36828,1.74463
15.5825,68117.7178,5.35118,-5.65295,1.372
15.5912,68117.7278,5.69326,-5.86797,0.97005
15.6037,68117.7378,6.04085,-5.97121,0.63225
15.6092,68117.7477,6.26076,-5.89668,0.52351
15.6225,68117.7577,6.54664,-5.50695,0.53145
15.6293,68117.7678,6.69569,-5.17769,0.49175
15.6453,68117.7778,6.79099,-4.81179,0.08674
15.6501,68117.7878,6.74212,-4.53445,-0.46304
15.6661,68117.7978,6.4544,-4.05981,-1.14843
15.6734,68117.8088,5.91134,-3.3848,-1.49112
15.6862,68117.8187,5.46724,-3.3677,-1.55099
15.6956,68117.8298,5.20274,-3.64687,-1.6756
15.7163,68117.8398,5.11539,-3.73239,-2.03113
15.7194,68117.8508,5.06346,-3.64381,-2.38909
15.7287,68117.8608,4.84538,-3.32616,-3.00424
15.7347,68117.8708,4.49536,-2.69636,-3.54302
15.7446,68117.8807,4.00178,-1.73974,-3.87594
15.7545,68117.8907,3.53386,-0.8827,-3.81791
15.7657,68117.9008,3.04089,-0.11851,-3.53019
15.7816,68117.9108,2.55525,0.59865,-3.15206
15.7849,68117.9208,2.0635,1.38789,-2.83197
15.7926,68117.9308,1.60291,1.91262,-2.74462
15.8088,68117.9408,1.05191,2.2266,-2.89428
15.8175,68117.9518,0.51007,2.20461,-3.10075
15.828,68117.9618,-0.05986,2.0128,-3.32983
15.8335,68117.9717,-0.47953,1.79961,-3.49232
15.8464,68117.9817,-0.85032,1.45691,-3.69757
15.8534,68117.9918,-1.08612,1.28037,-3.82951
15.8686,68118.0018,-1.41476,1.36651,-3.8961
15.8736,68118.0118,-1.77456,1.58092,-3.86556
15.8871,68118.0218,-2.28036,1.88635,-3.66886
15.8936,68118.0317,-2.70858,1.98287,-3.44039
15.9057,68118.0417,-3.26569,1.96943,-3.28035
15.9139,68118.0518,-3.74583,1.99203,-3.29684
15.9282,68118.0618,-4.2504,2.09832,-3.4013
15.938,68118.0718,-4.61631,2.18812,-3.45994
15.9474,68118.0818,-5.09278,2.35183,-3.34693
15.9585,68118.0928,-5.53077,2.38787,-3.00851
15.989,68118.1038,-5.89729,2.19606,-2.86618
15.9923,68118.1138,-6.15325,1.91567,-3.06593
15.9934,68118.1238,-6.38171,1.57848,-3.42329
15.9961,68118.1338,-6.5497,1.2816,-3.74888
16.0116,68118.1437,-6.66393,0.94501,-4.04881
16.016,68118.1537,-6.63522,0.82161,-4.15572
16.0279,68118.1638,-6.42813,0.72204,-4.3518
16.0438,68118.1738,-6.13064,0.5174,-4.57538
16.0487,68118.1847,-5.75863,0.2138,-4.79529
16.0625,68118.1948,-5.42387,0.00733,-4.91319
16.0702,68118.2048,-5.03231,-0.3036,-4.94557
16.0766,68118.2148,-4.67984,-0.61514,-4.87287
16.0915,68118.2248,-4.26995,-0.8772,-4.75253
16.1006,68118.2347,-3.95352,-1.1356,-4.68778
16.1078,68118.2447,-3.59616,-1.52777,-4.64868
16.1174,68118.2548,-3.34021,-1.89735,-4.67617
16.1417,68118.2647,-3.09098,-2.15941,-4.71466
16.1431,68118.2748,-2.94254,-2.29685,-4.70122
16.1489,68118.2848,-2.87412,-2.35366,-4.60104
16.156,68118.2947,-2.94681,-2.42758,-4.47398
16.1675,68118.3047,-3.10686,-2.3616,-4.32187
16.176,68118.3148,-3.21315,-2.25959,-4.13434
16.1879,68118.3248,-3.30845,-2.21866,-3.7446
16.196,68118.3348,-3.31333,-2.12398,-3.48743
16.2075,68118.3448,-3.32311,-2.24004,-3.23392
16.2167,68118.3548,-3.42329,-2.53509,-3.09281
16.2313,68118.3647,-3.57051,-2.12764,-3.29745
16.2366,68118.3747,-3.6939,-1.42881,-3.69818
16.2506,68118.3848,-3.92114,-0.94012,-4.13983
16.2564,68118.3948,-4.17954,-0.99999,-4.28644
16.2715,68118.4048,-4.40984,-1.26571,-4.29805
16.2808,68118.4148,-4.565,-1.57481,-4.16488
16.2892,68118.4247,-4.7171,-2.00608,-3.67252
16.2962,68118.4347,-4.7959,-1.91384,-3.05677
16.3079,68118.4448,-4.82889,-1.12155,-2.44285
16.3162,68118.4547,-4.93396,-0.42883,-2.07877
16.3281,68118.4648,-5.22045,0.16432,-1.69576
16.3363,68118.4748,-5.51489,0.40806,-1.3775
16.349,68118.4847,-5.7177,0.56749,-1.01281
16.3573,68118.4947,-5.70426,0.63163,-0.83994
16.3684,68118.5048,-5.53749,0.57299,-0.68234
16.377,68118.5148,-5.45319,0.5736,-0.66768
16.3891,68118.5248,-5.43914,0.52107,-0.62369
16.4015,68118.5348,-5.50512,0.51862,-0.49663
16.4091,68118.5447,-5.6279,0.61514,-0.32254
16.4194,68118.5547,-5.76168,0.64019,-0.1405
16.43,68118.5648,-5.82582,0.89125,-0.05437
16.4387,68118.5748,-5.76596,1.27121,-0.02077
16.4559,68118.5848,-5.66455,1.53083,0.10629
16.4593,68118.5948,-5.50939,1.71226,0.28039
16.4715,68118.6047,-5.22656,1.96699,0.63469
16.4766,68118.6147,-4.88998,2.37199,1.00793
16.4973,68118.6248,-4.57049,2.70613,1.40988
16.4989,68118.6348,-4.63219,1.6811,1.4618
16.5101,68118.6448,-4.90342,-0.13011,0.94745
16.5165,68118.6548,-4.90586,-1.40255,0.08308
16.5285,68118.6648,-4.47703,-2.16613,-0.95845
16.5399,68118.6747,-3.91198,-2.36222,-1.62796
16.5497,68118.6847,-2.9517,-2.30174,-2.2431
16.5585,68118.6948,-2.26936,-2.25531,-2.36283
16.5697,68118.7048,-1.50151,-2.09405,-2.19973
16.5808,68118.7148,-0.99754,-1.76662,-1.77151
16.5897,68118.7258,-0.55589,-1.09467,-0.95784
16.5977,68118.7358,-0.27061,-0.67073,-0.06658
16.6146,68118.7458,-0.13256,-0.81062,0.83994
16.6185,68118.7568,-0.01344,-1.18508,1.10322
16.6313,68118.7668,0.24496,-1.81305,1.04641
16.6388,68118.7768,0.53329,-2.49172,0.82284
16.6527,68118.7867,0.89431,-3.16856,0.56322
16.6595,68118.7967,1.25166,-3.40741,0.33781
16.6787,68118.8068,1.8442,-3.23881,0.00183
16.684,68118.8168,2.46484,-2.87229,-0.25168
16.6955,68118.8268,3.08243,-2.755,-0.4386
16.7014,68118.8378,3.29989,-2.7214,-0.39279
16.7129,68118.8478,3.04883,-2.64321,-0.011
16.7218,68118.8578,2.69208,-2.80204,0.62675
16.7323,68118.8677,2.47767,-3.1258,1.63895
16.7395,68118.8776,2.46667,-3.43367,2.43735
16.7517,68118.8878,2.77272,-3.82341,3.24614
16.7608,68118.8978,3.3396,-4.02438,3.69879
16.7764,68118.9078,4.04332,-4.12701,3.96452
16.7807,68118.9178,4.51185,-4.09219,4.01644
16.7921,68118.9278,4.76658,-3.66886,3.88999
16.7996,68118.9377,4.83194,-2.95231,3.71895
16.8118,68118.9477,4.73054,-2.25287,3.71223
16.8209,68118.9578,4.53934,-1.89613,3.98528
16.837,68118.9678,4.28461,-1.95599,4.55461
16.846,68118.9778,4.09463,-2.5186,4.97855
16.8609,68118.9878,3.90465,-3.61999,5.25527
16.864,68118.9977,3.76721,-4.30232,5.23206
16.8735,68119.0077,3.57906,-4.2394,5.03475
16.8804,68119.0178,3.42512,-3.9016,4.83805
16.8934,68119.0278,3.24492,-3.37503,4.51185
16.9006,68119.0378,3.13313,-2.99568,4.16854
16.9136,68119.0478,3.05433,-2.61878,3.71223
16.9207,68119.0577,3.01157,-2.54792,3.28829
16.9347,68119.0677,3.07448,-2.96697,2.69941
16.941,68119.0778,3.22598,-3.62243,2.22844
16.958,68119.0887,3.40496,-4.39701,1.81488
16.9681,68119.0987,3.51981,-4.83805,1.65606
16.9821,68119.1088,3.65969,-5.22473,1.53816
16.986,68119.1187,3.71284,-5.39699,1.41843
16.994,68119.1288,3.8625,-5.44647,1.18691
17.0067,68119.1398,4.11479,-5.29742,0.90652
17.0286,68119.1498,4.29316,-4.94251,0.59193
17.0365,68119.1598,4.22597,-4.72138,0.4777
17.0427,68119.1697,3.9468,-4.84111,0.59804
17.0446,68119.1797,3.79836,-5.3243,0.91508
17.0583,68119.1898,3.87716,-6.21189,1.39644
17.0621,68119.1998,4.16549,-6.90522,1.61879
17.0774,68119.2098,4.52285,-7.46661,1.529
17.0811,68119.2198,4.72016,-7.94308,1.25472
17.0954,68119.2298,4.96023,-8.59793,0.67073
17.1026,68119.2396,5.14837,-8.8325,0.3708
17.1128,68119.2497,5.36217,-8.81173,0.02932
17.1209,68119.2597,5.4984,-8.69444,-0.1124
17.1337,68119.2697,5.53383,-8.44949,0.02382
17.1409,68119.2797,5.41837,-8.15872,0.27855
17.1526,68119.2898,5.1276,-7.68652,0.67623
17.161,68119.2997,4.80812,-7.28396,1.05496
17.1726,68119.3097,4.41411,-7.02923,1.33841
17.181,68119.3197,3.92237,-6.91072,1.50762
17.1935,68119.3297,3.18566,-6.65599,1.44958
17.2009,68119.3397,2.68781,-6.01702,1.12338
17.2125,68119.3497,1.97187,-5.33774,0.54734
17.221,68119.3597,1.39277,-5.04636,0.17165
17.233,68119.3697,0.70433,-4.57172,-0.13928
17.2413,68119.3797,0.14478,-3.95108,-0.20647
17.2539,68119.3897,-0.41722,-3.26691,-0.05192
17.2632,68119.3997,-0.77336,-2.83136,0.14722
17.2762,68119.4097,-1.1918,-2.53631,0.57116
17.283,68119.4195,-1.43187,-2.60534,0.95234
17.3041,68119.4307,-1.85031,-2.99263,1.37933
17.3075,68119.4406,-2.21744,-3.09831,1.49662
17.3168,68119.4507,-2.70369,-2.27975,1.26693
17.3289,68119.4618,-3.24797,-1.10322,0.59071
17.3393,68119.4717,-3.66763,-0.96822,0.11606
17.3519,68119.4817,-3.73605,-1.38239,-0.06292
17.3618,68119.4917,-3.55768,-1.71226,-0.30788
17.3648,68119.5017,-3.1429,-1.7147,-0.59987
17.3761,68119.5116,-2.65238,-1.71836,-0.87537
17.3839,68119.5217,-2.3726,-2.00852,-0.93523
17.3962,68119.5317,-2.23027,-2.5467,-0.79351
17.4038,68119.5417,-2.34022,-3.36526,-0.39767
17.4201,68119.5517,-2.78677,-4.3237,0.31643
17.4255,68119.5617,-3.39213,-4.93946,0.87659
17.4378,68119.5717,-4.10929,-5.27177,1.47829
17.4459,68119.5817,-4.43671,-4.60531,1.61207
17.456,68119.5917,-4.39884,-3.16489,1.19058
17.4636,68119.6017,-4.16121,-2.31151,0.57788
17.4761,68119.6117,-3.88938,-2.02135,0.08308
17.4845,68119.6227,-3.63037,-2.04945,-0.14966
17.4982,68119.6327,-3.44711,-2.08366,-0.07391
17.5197,68119.6425,-3.24736,-2.11115,0.06231
17.5224,68119.6527,-2.90711,-2.25287,0.24068
17.5275,68119.6627,-2.67803,-2.36038,0.32987
17.5454,68119.6727,-2.62122,-2.40803,0.24129
17.5489,68119.6837,-2.81487,-2.37016,-0.04704
17.565,68119.6937,-3.36953,-2.45323,-0.28466
17.5709,68119.7047,-4.06164,-2.41719,-0.34941
17.5959,68119.7147,-4.74031,-2.2712,-0.10324
17.6087,68119.7248,-5.05186,-2.18934,0.15882
17.61,68119.7357,-5.32552,-2.18507,0.71838
17.6154,68119.7457,-5.33163,-2.11665,1.19852
17.6232,68119.7557,-5.15998,-1.84603,1.60902
17.6287,68119.7657,-4.89547,-1.53999,1.82588
17.6401,68119.7757,-4.42083,-1.19791,2.05556
17.6476,68119.7857,-3.93764,-0.98777,2.12337
17.6639,68119.7957,-3.4691,-0.93951,2.10993
17.6677,68119.8057,-3.24614,-0.9951,2.08
17.6813,68119.8158,-3.12763,-1.20951,2.12825
17.6888,68119.8267,-3.16489,-1.13743,2.35794
17.7014,68119.8367,-3.39091,-0.73793,2.94376
17.7089,68119.8467,-3.63526,-0.16127,3.53324
17.7212,68119.8567,-3.95657,0.56016,4.31088
17.729,68119.8667,-4.2223,0.94379,4.81973
17.7465,68119.8767,-4.3964,0.86621,4.90952
17.7614,68119.8867,-4.42144,0.51618,4.29133
17.7631,68119.8967,-4.30599,0.23457,3.24675
17.7731,68119.9077,-4.27484,0.22602,1.91873
17.7885,68119.9177,-4.30171,0.17593,0.90652
17.7908,68119.9278,-4.3457,0.15944,0.55344
17.8049,68119.9377,-4.44832,0.15882,0.70494
17.8102,68119.9487,-4.63769,0.47953,1.17592
17.8244,68119.9587,-4.94373,1.3042,1.83198
17.8313,68119.9697,-5.25344,1.81244,2.67803
17.8429,68119.9798,-5.54238,1.69026,3.48987
17.8512,68119.9897,-5.70609,1.48074,3.70734
17.8638,68119.9997,-5.76474,1.28343,3.31578
17.8719,68120.0097,-5.72564,1.24311,2.71285
17.8838,68120.0197,-5.59491,1.05496,1.81855
17.8917,68120.0297,-5.40555,0.90652,1.18386
17.9047,68120.0398,-5.12577,0.95417,0.85032
17.9138,68120.0507,-4.87532,1.11177,0.92546
17.935,68120.0607,-4.60715,1.06535,1.28221
17.9374,68120.0707,-4.4361,0.80451,1.51678
17.9456,68120.0807,-4.20397,0.34453,1.63284
17.9609,68120.0907,-3.99506,0.09652,1.58397
17.9645,68120.1007,-3.70551,0.01466,1.42942
17.9734,68120.1107,-3.48376,0.05315,1.25899
17.9912,68120.1207,-3.30845,0.09896,1.13438
17.9944,68120.1307,-3.24736,0.135,1.15392
18.0128,68120.1407,-3.26813,0.06658,1.27549
18.0141,68120.1507,-3.32677,-0.0226,1.28831
18.0249,68120.1607,-3.4184,-0.18998,1.18997
18.0393,68120.1707,-3.46055,-0.31154,1.04336
18.0467,68120.1807,-3.45811,-0.40989,0.9389
18.0531,68120.1908,-3.44589,-0.52229,0.98044
18.0678,68120.2007,-3.47949,-0.63163,1.2596
18.0731,68120.2107,-3.55951,-0.73731,1.51983
18.0845,68120.2207,-3.7501,-0.84544,1.83565
18.0919,68120.2307,-4.05798,-0.99266,2.07022
18.1052,68120.2407,-4.48742,-1.10506,2.40192
18.1119,68120.2508,-4.87226,-1.22784,2.73057
18.1233,68120.2607,-5.19297,-1.41537,3.17711
18.1318,68120.2707,-5.30475,-1.52594,3.60472
18.1433,68120.2807,-5.22534,-1.47219,4.22108
18.1519,68120.2907,-4.99443,-1.32619,4.85455
18.1635,68120.3007,-4.62303,-1.07757,5.60102
18.1729,68120.3107,-4.32187,-0.83017,6.14958
18.1842,68120.3207,-3.99933,-0.53512,6.79221
18.1919,68120.3307,-3.83501,-0.49236,6.94371
18.208,68120.3407,-3.67313,-0.38362,6.73784
18.2185,68120.3507,-3.48804,-0.40989,6.30657
18.2261,68120.3607,-3.09464,-0.39279,5.47641
18.2329,68120.3707,-2.61084,-0.16432,4.61387
18.246,68120.3808,-2.0354,-0.0843,3.69207
18.2528,68120.3907,-1.56381,-0.19303,3.06227
18.2647,68120.4007,-1.13499,-0.20097,2.7379
18.275,68120.4107,-0.79107,-0.04826,2.82098
18.2847,68120.4207,-0.57971,0.13256,3.42512
18.2985,68120.4307,-0.59559,0.22174,4.26934
18.3084,68120.4408,-0.81367,0.30299,5.27116
18.3157,68120.4507,-1.1075,-0.01344,5.87042
18.3249,68120.4607,-1.61085,-0.73304,5.89241
18.3323,68120.4707,-2.00975,-0.9218,5.2119
18.3463,68120.4807,-2.19728,-0.81184,3.9578
18.3581,68120.4907,-2.14414,-0.81856,2.87718
18.3665,68120.5008,-1.88513,-0.99388,1.47035
18.3742,68120.5107,-1.68721,-1.16125,0.74403
18.3875,68120.5207,-1.5461,-1.32558,0.20831
18.398,68120.5307,-1.5632,-1.37506,0.0898
18.4125,68120.5407,-1.7373,-1.22417,0.22907
18.4263,68120.5507,-1.97371,-0.85582,0.49786
18.4291,68120.5607,-2.27181,-0.39095,0.87842
18.4412,68120.5707,-2.58763,-0.17043,1.23334
18.4473,68120.5807,-2.99568,-0.2248,1.44286
18.4563,68120.5907,-3.46971,-0.32376,1.29748
18.4652,68120.6007,-3.94375,-0.36896,0.69272
18.4789,68120.6107,-4.2223,-0.2755,-0.00244
18.4908,68120.6207,-4.41289,-0.19548,-0.73426
18.4973,68120.6307,-4.46909,-0.20586,-1.21929
18.5089,68120.6407,-4.39518,-0.31765,-1.69698
18.5146,68120.6507,-4.22047,-0.4722,-1.90895
18.5308,68120.6607,-3.97368,-0.60842,-1.78861
18.5357,68120.6707,-3.80691,-0.67806,-1.41599
18.549,68120.6807,-3.66519,-0.80573,-0.78924
18.5578,68120.6908,-3.62549,-0.81978,-0.55833
18.5651,68120.7007,-3.5644,-0.85094,-0.49663
18.5735,68120.7107,-3.4801,-0.90164,-0.54489
18.5931,68120.7207,-3.28279,-0.8656,-0.69394
18.5967,68120.7307,-3.036,-0.76847,-0.8937
18.6136,68120.7407,-2.72507,-0.59193,-1.12888
18.6222,68120.7508,-2.44285,-0.51679,-1.27732
18.6301,68120.7607,-2.13864,-0.52534,-1.29931
18.6378,68120.7707,-1.77334,-0.52107,-1.21379
18.649,68120.7807,-1.29687,-0.56383,-1.01098
18.662,68120.7917,-0.89125,-0.87476,-0.94928
18.6757,68120.8017,-0.51801,-0.98899,-1.14476
18.691,68120.8127,-0.13683,-0.84422,-1.46852
18.6924,68120.8227,0.4893,-0.72693,-1.69821
18.7025,68120.8327,1.03419,-0.62553,-1.72692
18.7138,68120.8427,1.98165,-0.58704,-1.61757
18.7175,68120.8537,2.84052,-0.49786,-1.33352
18.7315,68120.8637,3.49354,-0.48197,-0.967
18.7382,68120.8737,3.80813,-0.35186,-0.64996
18.7474,68120.8837,3.94619,0.04093,-0.19853
18.757,68120.8937,3.86494,0.38729,0.22969
18.767,68120.9037,3.62915,0.68478,0.7025
18.7752,68120.9137,3.44589,0.93401,0.9389
18.787,68120.9237,3.29317,1.11788,1.11177
18.7952,68120.9337,3.28462,1.1637,1.17286
18.8069,68120.9437,3.42879,1.08612,1.16492
18.8152,68120.9538,3.65481,0.81856,1.1075
18.827,68120.9637,3.91992,0.52718,0.9725
18.8353,68120.9737,4.21925,0.4777,0.72449
18.8492,68120.9837,4.55889,0.62186,0.416
18.8598,68120.9937,4.8069,0.55039,0.3091
18.8745,68121.0037,4.96267,0.15455,0.38668
18.8777,68121.0136,5.04086,-0.4893,0.45937
18.8957,68121.0237,5.16548,-1.10872,0.35491
18.8981,68121.0337,5.38294,-1.38361,0.23579
18.916,68121.0437,5.63951,-1.31886,0.02871
18.9213,68121.0537,5.86186,-1.36651,-0.11729
18.9276,68121.0637,6.23816,-1.50334,-0.25045
18.9412,68121.0737,6.61689,-1.83993,-0.41417
18.9471,68121.0837,7.03961,-2.58763,-0.6182
18.9553,68121.0937,7.27113,-3.15878,-0.76786
18.9686,68121.1037,7.05427,-3.38664,-0.87537
18.9819,68121.1137,6.64927,-3.37442,-0.9499
18.9887,68121.1237,6.03596,-2.51005,-1.00182
19.0008,68121.1337,5.40066,-1.65606,-0.95906
19.0112,68121.1437,5.01154,-1.41904,-0.83139
19.0163,68121.1537,4.9028,-1.74402,-0.66157
19.0322,68121.1637,5.02192,-2.36649,-0.42699
19.0353,68121.1737,5.25283,-2.75317,-0.21136
19.0466,68121.1837,5.56132,-2.90344,-0.03726
19.0551,68121.1937,5.71281,-2.87534,0.05498
19.0669,68121.2038,5.7513,-2.56563,0.12095
19.0752,68121.2137,5.72808,-2.33656,0.17165
19.0873,68121.2237,5.7348,-2.43369,0.26573
19.0954,68121.2337,5.76474,-2.69575,0.35736
19.108,68121.2437,5.92967,-3.01523,0.4386
19.1166,68121.2537,6.13797,-2.99996,0.42455
19.14,68121.2638,6.37621,-2.70858,0.40623
19.1427,68121.2737,6.42264,-2.50882,0.49358
19.1527,68121.2836,6.31451,-2.5302,0.73731
19.1565,68121.2937,6.17035,-2.7434,0.99205
19.1787,68121.3037,6.05123,-2.90833,1.19791
19.1889,68121.3137,6.02557,-2.81975,1.19363
19.1908,68121.3236,6.06589,-2.53387,1.01953
19.1991,68121.3347,5.95166,-2.24065,0.74526
19.2097,68121.3447,5.57476,-2.10932,0.65607
19.2188,68121.3548,5.2174,-2.10871,0.82467
19.2288,68121.3647,4.84538,-2.13436,1.23212
19.2392,68121.3747,4.67801,-2.16796,1.58886
19.249,68121.3847,4.69022,-2.29746,1.79778
19.261,68121.3947,4.82461,-2.44346,1.74769
19.275,68121.4047,5.05796,-2.78005,1.52411
19.279,68121.4157,5.30414,-3.14718,1.2877
19.29,68121.4257,5.53688,-3.78798,1.10567
19.2973,68121.4357,5.61507,-4.13311,1.05619
19.3094,68121.4457,5.70854,-4.419,0.98716
19.3173,68121.4556,5.81116,-4.53873,0.88698
19.3293,68121.4657,5.88813,-4.59371,0.74098
19.347,68121.4757,5.91501,-4.72199,0.66157
19.362,68121.4857,5.99014,-4.74948,0.5455
19.3666,68121.4967,6.1111,-4.71771,0.31398
19.378,68121.5067,6.20028,-4.83439,0.03604
19.3825,68121.5167,6.18501,-5.01032,-0.18021
19.3995,68121.5268,6.03291,-5.25894,-0.46548
19.4014,68121.5367,5.75496,-5.57109,-0.77336
19.4198,68121.5467,5.24489,-5.95594,-1.15331
19.4218,68121.5567,4.64258,-6.18501,-1.50273
19.4319,68121.5667,3.8735,-5.65844,-1.91262
19.4402,68121.5767,3.22598,-4.86554,-2.16307
19.4554,68121.5868,2.25226,-4.03232,-2.12459
19.4662,68121.5967,1.48624,-3.64625,-1.88085
19.4707,68121.6067,0.86132,-3.4801,-1.5125
19.4823,68121.6167,0.61087,-3.39641,-1.27915
19.492,68121.6267,0.43188,-3.22964,-1.02381
19.4984,68121.6367,0.2419,-3.34082,-0.75442
19.5183,68121.6467,-0.11912,-3.92542,-0.32254
19.5206,68121.6567,-0.56933,-4.69389,0.0898
19.5312,68121.6667,-1.33352,-5.73297,0.60048
19.5403,68121.6767,-1.934,-5.19174,0.7813
19.5515,68121.6867,-2.46973,-3.13007,0.55711
19.5598,68121.6967,-2.6872,-2.36038,0.48381
19.5699,68121.7067,-3.00912,-2.10077,0.69578
19.5784,68121.7168,-3.29256,-2.33167,1.18386
19.5907,68121.7267,-3.54058,-2.49416,1.82527
19.5986,68121.7367,-3.67985,-2.44285,2.29746
19.6107,68121.7467,-3.72506,-2.37199,2.62733
19.6185,68121.7567,-3.65847,-2.4459,2.83075
19.6315,68121.7667,-3.50514,-2.67864,2.96025
19.6502,68121.7777,-3.41596,-2.97675,3.05799
19.6588,68121.7877,-3.42818,-3.16367,3.07448
19.662,68121.7977,-3.47582,-2.12337,2.91322
19.6736,68121.8077,-3.55279,0.02443,2.58518
19.682,68121.8177,-3.73483,0.79657,2.57846
19.6947,68121.8275,-4.04881,0.59498,2.94498
19.7021,68121.8377,-4.51918,0.19548,3.50209
19.7126,68121.8477,-5.17403,0.27122,4.16549
19.7254,68121.8577,-5.72075,0.55161,4.72077
19.7317,68121.8677,-6.20212,0.70738,5.27971
19.7416,68121.8777,-6.57658,0.82345,5.5882
19.7573,68121.8877,-6.73723,1.26877,5.802
19.7612,68121.8977,-6.52282,1.32863,5.85148
19.772,68121.9077,-6.21739,1.1973,5.62424
19.7802,68121.9177,-5.96754,1.237,5.30903
19.7924,68121.9278,-5.60713,1.78922,4.77697
19.7999,68121.9377,-5.20274,2.56563,4.15938
19.8127,68121.9477,-4.88387,2.79288,3.51186
19.82,68121.9577,-4.77758,2.70919,3.09648
19.8349,68121.9677,-4.81179,2.60534,2.8503
19.8408,68121.9777,-4.97489,2.766,2.80326
19.8534,68121.9878,-5.19419,2.96942,2.97491
19.8629,68121.9987,-5.43975,2.92482,3.20643
19.8847,68122.0097,-5.71159,2.69697,3.33777
19.8876,68122.0207,-5.85026,2.48195,3.32555
19.9158,68122.0307,-5.61141,3.6658,3.35182
19.9187,68122.0417,-4.46054,2.67926,3.30112
19.9198,68122.0517,-3.93275,3.00179,3.59677
19.929,68122.0627,-3.40374,3.50087,3.83074
19.9425,68122.0727,-2.80021,4.22413,4.02927
19.9577,68122.0827,-2.53204,4.58515,4.13678
19.9693,68122.0927,-2.40437,4.17221,4.02438
19.9772,68122.1027,-2.41842,3.72261,3.61877
19.9786,68122.1128,-2.47217,3.44467,3.02745
19.9871,68122.1227,-2.50516,3.33288,2.41719
19.9995,68122.1327,-2.5693,3.05066,1.88574
20.0043,68122.1427,-2.62672,2.76417,1.58031
20.0203,68122.1527,-2.68109,2.63955,1.40988
20.0383,68122.1627,-2.67987,2.74156,1.31886
20.0393,68122.1737,-2.55342,3.09159,1.45814
20.0469,68122.1837,-2.44957,3.38175,1.72447
20.059,68122.1937,-2.35672,3.98956,2.13009
20.0647,68122.2037,-2.3445,4.68473,2.58396
20.0768,68122.2136,-2.41536,5.56743,3.02745
20.1065,68122.2237,-2.51921,6.35055,3.28401
20.107,68122.2337,-2.67803,7.05855,3.34876
20.1077,68122.2437,-2.87351,7.57717,3.26446
20.1174,68122.2537,-3.15756,7.50326,2.9798
20.125,68122.2637,-3.40069,6.94798,2.64871
20.1365,68122.2737,-3.60594,5.96204,2.05739
20.1454,68122.2837,-3.58761,5.23084,1.53205
20.159,68122.2937,-3.40924,4.38785,0.91569
20.1666,68122.3047,-3.12152,3.80936,0.44593
20.184,68122.3147,-2.71652,3.60838,0.1576
20.1873,68122.3247,-2.36894,3.74949,0.06231
20.203,68122.3347,-1.94927,4.44221,0.06781
20.2107,68122.3447,-1.71897,5.19724,0.13134
20.2262,68122.3547,-1.80144,5.55215,0.15821
20.2349,68122.3646,-2.24798,5.12027,0.07086
20.2427,68122.3757,-3.23697,3.87594,-0.10018
20.2497,68122.3857,-3.7385,3.45811,-0.04154
20.2623,68122.3957,-3.72506,3.47766,0.31582
20.2705,68122.4057,-3.28523,3.54913,0.54
20.2833,68122.4157,-2.48683,3.38542,0.57238
20.2898,68122.4257,-1.73364,3.10381,0.42822
20.3001,68122.4357,-0.83505,3.01218,0.20097
20.3116,68122.4457,-0.46242,3.00668,0.11301
20.321,68122.4556,-0.31215,2.80204,0.09407
20.3292,68122.4657,-0.45876,2.50882,0.11118
20.3393,68122.4757,-0.69761,2.33778,0.0507
20.3521,68122.4857,-0.79962,2.23027,-0.04276
20.3599,68122.4957,-0.74098,1.87291,-0.11912
20.3724,68122.5067,-0.50091,1.44042,-0.09591
20.381,68122.5167,-0.13622,0.82589,0.011
20.3887,68122.5267,0.15699,0.27794,0.06231
20.4046,68122.5367,0.49114,-0.48747,0.15944
20.4129,68122.5477,0.75564,-1.23273,0.30849
20.4263,68122.5577,0.93157,-1.98043,0.41356
20.4302,68122.5677,1.0177,-2.65116,0.42577
20.4482,68122.5777,1.15087,-3.73239,0.32437
20.4513,68122.5877,1.29626,-4.82522,0.11912
20.4687,68122.5977,1.50762,-5.8527,-0.04765
20.4729,68122.6077,1.70737,-6.24732,-0.12584
20.4883,68122.6177,1.89307,-6.51488,-0.19548
20.497,68122.6277,1.89918,-6.43547,-0.23457
20.5033,68122.6376,1.68843,-6.06345,-0.25901
20.5097,68122.6477,1.32313,-5.66639,-0.24923
20.5223,68122.6577,0.92302,-5.09278,-0.19364
20.53,68122.6677,0.62492,-4.35975,-0.11545
20.5437,68122.6777,0.4893,-4.2675,-0.04337
20.5564,68122.6887,0.56139,-4.37441,-0.01344
20.5645,68122.6987,0.85094,-4.54545,-0.02566
20.5708,68122.7087,1.09101,-4.37746,-0.05986
20.5892,68122.7187,1.15759,-3.75865,-0.01772
20.5941,68122.7287,0.99388,-2.87473,0.03848
20.6028,68122.7387,0.65546,-2.03052,0.10263
20.6127,68122.7487,0.22663,-1.45264,0.2193
20.6245,68122.7587,-0.21197,-1.44958,0.33353
20.6309,68122.7687,-0.37446,-1.80389,0.24251
20.6447,68122.7787,-0.26695,-2.04029,0.10812
20.6514,68122.7897,0.11484,-2.0183,0.10201
20.6645,68122.7997,0.6463,-1.89551,0.28039
20.6712,68122.8097,1.06474,-1.60169,0.56627
20.683,68122.8197,1.2987,-1.06718,0.96639
20.6912,68122.8297,1.31458,-0.50702,1.30236
20.7059,68122.8397,1.07268,-0.01161,1.76112
20.7118,68122.8497,0.686,0.20647,2.17529
20.7268,68122.8597,0.1741,0.19059,2.63955
20.7327,68122.8697,-0.1631,0.04093,2.99996
20.7436,68122.8797,-0.45571,-0.13439,3.47949
20.7548,68122.8897,-0.62064,-0.06048,3.98956
20.7654,68122.8997,-0.7422,0.09835,4.68534
20.7742,68122.9097,-0.81001,0.14294,5.22717
20.7853,68122.9207,-0.89492,0.12584,5.90951
20.7952,68122.9307,-0.95417,0.01588,6.28336
20.8124,68122.9407,-1.03053,-0.22297,6.45013
20.8193,68122.9507,-1.08917,-0.46242,6.43485
20.8261,68122.9607,-1.13743,-0.84788,6.24243
20.8326,68122.9707,-1.11177,-1.15576,5.94128
20.8459,68122.9805,-1.03847,-1.21073,5.58209
20.8531,68122.9907,-0.96944,-1.0739,5.3017
20.8647,68123.0007,-0.83017,-0.73304,4.93274
20.8753,68123.0107,-0.68478,-0.3769,4.69572
20.8845,68123.0206,-0.49663,0.01161,4.58088
20.8948,68123.0307,-0.33231,0.17776,4.6102
20.9051,68123.0407,-0.15272,0.2248,4.58821
20.9125,68123.0505,-0.07575,0.13622,4.45809
20.9287,68123.0607,-0.00611,-0.0055,4.18382
20.9376,68123.0705,0.03787,-0.06964,3.93703
20.9472,68123.0807,0.10446,0.03299,3.61571
20.96,68123.0907,0.10201,0.18815,3.37625
20.9799,68123.1017,-0.00794,0.28283,3.12152
20.9864,68123.1117,-0.10812,0.24984,2.89672
20.9879,68123.1217,-0.146,0.08186,2.64688
20.9983,68123.1317,-0.0843,-0.13867,2.40131
21.0096,68123.1417,0.05498,-0.41233,2.05801
21.02,68123.1517,0.18754,-0.66829,1.64628
21.0281,68123.1617,0.3036,-0.93646,1.18019
21.0397,68123.1717,0.3769,-1.14782,0.75686
21.0476,68123.1817,0.41356,-1.38666,0.37568
21.0577,68123.1917,0.41478,-1.53327,0.06658
21.0667,68123.2017,0.37141,-1.47341,-0.3427
21.0734,68123.2117,0.27794,-1.25533,-0.68906
21.0851,68123.2217,0.10507,-0.89614,-1.15576
21.0941,68123.2317,-0.03971,-0.57299,-1.54121
21.1047,68123.2417,-0.08796,-0.24251,-1.8888
21.1164,68123.2517,-0.0226,-0.06048,-2.06595
21.1295,68123.2617,0.18998,0.02321,-2.1478
21.1477,68123.2717,0.40134,-0.01894,-2.16063
21.1507,68123.2817,0.61453,-0.22785,-2.2431
21.1572,68123.2917,0.73609,-0.62614,-2.52104
21.1747,68123.3017,0.91141,-1.22295,-2.90039
21.1803,68123.3127,1.09956,-1.69332,-3.28584
21.2006,68123.3227,1.24922,-1.95355,-3.5925
21.2045,68123.3327,1.28526,-2.06167,-3.81485
21.2103,68123.3426,1.24372,-2.22416,-4.19787
21.222,68123.3527,1.21807,-2.27669,-4.40006
21.2308,68123.3627,1.16553,-2.23393,-4.59554
21.235,68123.3727,1.09345,-2.08549,-4.64135
21.2471,68123.3827,1.00182,-1.77945,-4.58454
21.2568,68123.3927,0.9108,-1.44836,-4.47276
21.2686,68123.4027,0.78741,-1.12338,-4.36891
21.2786,68123.4137,0.67256,-0.9108,-4.42999
21.289,68123.4237,0.52718,-0.91141,-4.63341
21.2974,68123.4337,0.36041,-1.17775,-4.91502
21.3082,68123.4437,0.12095,-1.56748,-5.1386
21.3174,68123.4537,-0.06597,-1.63101,-5.13432
21.3277,68123.4637,-0.35613,-1.28954,-4.93946
21.3364,68123.4737,-0.72998,-0.76603,-4.63708
21.3484,68123.4836,-1.72692,-1.21868,-4.53201
21.356,68123.4937,-2.59496,-1.78739,-4.52224
21.3682,68123.5037,-3.48865,-2.74278,-4.68473
21.3766,68123.5137,-4.07691,-3.47582,-4.8857
21.3881,68123.5237,-4.58027,-3.99017,-5.1557
21.3962,68123.5337,-4.67251,-4.12395,-5.39272
21.4082,68123.5437,-4.3402,-3.70795,-5.77023
21.4167,68123.5537,-3.81974,-2.93765,-6.11354
21.4282,68123.5637,-3.05372,-1.66583,-6.38476
21.436,68123.5737,-2.38604,-0.6298,-6.33956
21.4518,68123.5837,-1.76296,-0.00305,-6.01886
21.4566,68123.5937,-1.4337,-0.00428,-5.66944
21.4714,68123.6037,-1.1582,-0.33475,-5.27665
21.4772,68123.6137,-1.0232,-0.44471,-5.20946
21.4905,68123.6237,-0.86743,-0.66951,-5.43181
21.5003,68123.6337,-0.77519,-0.96944,-5.94433
21.51,68123.6447,-0.61697,-1.09528,-6.6902
21.5177,68123.6557,-0.47159,-1.19424,-7.31817
21.5295,68123.6657,-0.45509,-1.14476,-7.77876
21.5403,68123.6757,-0.51191,-1.12888,-8.00722
21.5496,68123.6857,-0.43921,-1.13987,-8.0341
21.5587,68123.6957,-0.27,-1.20951,-7.69751
21.5696,68123.7057,-0.05925,-1.36834,-7.03961
21.5776,68123.7157,0.03726,-1.38911,-6.51549
21.5897,68123.7257,0.1967,-1.19119,-5.92723
21.5977,68123.7357,0.43371,-0.92974,-5.50084
21.6132,68123.7457,0.84666,-0.58643,-5.12394
21.6215,68123.7567,1.27243,-0.33109,-4.91075
21.6425,68123.7667,1.7935,0.03176,-4.7281
21.6457,68123.7767,2.10993,0.18754,-4.57416
21.6512,68123.7867,2.43735,0.3934,-4.16366
21.6596,68123.7967,2.60595,0.55344,-3.65358
21.6705,68123.8067,2.68659,0.63774,-2.88206
21.6785,68123.8167,2.61878,0.64141,-2.22966
21.692,68123.8267,2.36344,0.73487,-1.5571
21.6997,68123.8367,2.12764,0.81062,-1.13682
21.7125,68123.8467,1.86314,0.92118,-0.65668
21.7207,68123.8577,1.59191,1.10872,-0.0788
21.7333,68123.8677,1.50334,1.23456,0.78191
21.7414,68123.8777,1.47341,1.52961,1.69026
21.762,68123.8887,1.39216,2.05129,2.80509
21.7648,68123.8987,1.2987,2.59373,3.87044
21.7757,68123.9085,1.10261,3.07204,4.98894
21.7819,68123.9187,0.85521,3.40313,5.75557
21.8036,68123.9287,0.46976,3.70917,6.52832
21.8186,68123.9387,0.13195,3.79897,6.94676
21.8201,68123.9497,-0.29566,3.79531,7.09642
21.8245,68123.9597,-0.48808,3.86739,7.03289
21.8336,68123.9697,-0.67989,3.90526,6.85513
21.8416,68123.9797,-0.76358,3.8118,6.67676
21.8578,68123.9897,-0.81428,3.69635,6.62239
21.8617,68123.9997,-0.93401,3.5699,6.70669
21.8746,68124.0097,-0.87415,2.62855,6.60284
21.8829,68124.0197,-0.78007,1.77823,6.32429
21.9074,68124.0297,-0.62797,1.10139,5.8582
21.916,68124.0397,-0.36346,0.78557,5.37134
21.9183,68124.0497,-0.06658,0.62186,4.8295
21.9243,68124.0597,0.14722,0.5003,4.32187
21.9385,68124.0697,0.26023,0.38851,3.91442
21.9434,68124.0807,0.2419,0.40195,3.78248
21.9569,68124.0905,0.20036,0.50457,3.82402
21.9637,68124.1007,0.15027,0.67317,4.02682
21.9767,68124.1107,0.06781,0.9053,4.44221
21.9867,68124.1207,0.00672,1.05313,4.88387
22.0127,68124.1307,-0.05559,1.20646,5.37317
22.0142,68124.1407,-0.11912,1.39216,5.71709
22.0149,68124.1507,-0.28344,1.69637,6.16791
22.026,68124.1607,-0.46304,1.9114,6.47456
22.0354,68124.1707,-0.71349,2.15391,6.89178
22.045,68124.1807,-0.87293,2.34756,7.19844
22.0583,68124.1907,-1.01709,2.64566,7.49654
22.0622,68124.2007,-1.1301,3.09098,7.62421
22.0733,68124.2106,-1.38605,3.65725,7.70973
22.0818,68124.2207,-1.60719,4.08241,7.76593
22.0942,68124.2307,-1.71775,4.61814,7.85817
22.102,68124.2407,-1.57664,5.04697,7.91559
22.1169,68124.2507,-1.12277,5.53016,7.80869
22.1238,68124.2607,-0.77274,5.60163,7.59428
22.1453,68124.2717,-0.19364,5.18869,6.91072
22.1479,68124.2817,0.18815,4.49841,6.07567
22.1589,68124.2917,0.44349,3.56745,4.91136
22.1664,68124.3017,0.42638,2.88389,3.94802
22.1961,68124.3117,0.22541,1.76845,2.73973
22.1991,68124.3217,0.10324,1.00243,2.06961
22.2022,68124.3317,0.01833,0.15944,1.43859
22.2081,68124.3417,-0.07025,-0.26939,1.08978
22.2176,68124.3517,-0.22785,-0.40012,0.87537
22.2237,68124.3617,-0.44043,-0.28222,0.71288
22.2391,68124.3717,-0.75381,-0.05803,0.5962
22.2462,68124.3816,-0.98471,0.13011,0.50641
22.2583,68124.3917,-1.06901,0.18631,0.36896
22.2717,68124.4017,-0.99143,0.10201,0.24984
22.2802,68124.4117,-0.7929,-0.13806,0.08369
22.2835,68124.4217,-0.63041,-0.416,-0.10812
22.301,68124.4317,-0.47037,-0.75014,-0.38973
22.3065,68124.4417,-0.33414,-0.95112,-0.65424
22.3171,68124.4517,-0.12767,-1.13377,-1.06413
22.3236,68124.4617,0.02138,-1.25227,-1.44958
22.3353,68124.4717,0.02443,-1.36162,-1.74463
22.3445,68124.4817,-0.04154,-1.43248,-1.86986
22.3554,68124.4917,-0.07514,-1.47035,-2.04945
22.3648,68124.5017,0.0055,-1.51922,-2.31579
22.3775,68124.5117,0.18876,-1.76784,-2.85274
22.383,68124.5215,0.34025,-1.99875,-3.3732
22.3949,68124.5316,0.40928,-2.204,-4.06409
22.4032,68124.5417,0.1686,-2.33778,-4.59737
22.4196,68124.5517,-0.42822,-2.54731,-5.00848
22.4242,68124.5627,-0.97311,-2.69636,-5.24306
22.4369,68124.5727,-1.26083,-2.74706,-5.45503
22.4448,68124.5827,-1.24006,-2.76966,-5.60958
22.4606,68124.5927,-1.04641,-2.74767,-5.76535
22.465,68124.6027,-0.90103,-2.6762,-5.84354
22.4826,68124.6127,-0.80268,-2.50882,-5.90035
22.4851,68124.6227,-0.77702,-2.37077,-5.96693
22.5052,68124.6327,-0.89858,-2.24432,-6.05673
22.5079,68124.6427,-1.1808,-2.26264,-6.1508
22.5182,68124.6527,-1.50762,-2.38237,-6.32856
22.5279,68124.6627,-1.76174,-2.38237,-6.56802
22.5412,68124.6727,-1.9676,-2.43247,-7.02495
22.5462,68124.6827,-2.08672,-2.36099,-7.43667
22.5597,68124.6927,-2.10749,-2.4288,-7.68652
22.5669,68124.7027,-2.0238,-2.45385,-7.61077
22.583,68124.7127,-1.75807,-2.64199,-7.21859
22.5977,68124.7227,-1.4111,-2.78066,-6.73968
22.5986,68124.7327,-0.94195,-2.83503,-6.25282
22.6105,68124.7427,-0.47953,-2.87901,-6.0268
22.6188,68124.7527,0.31215,-3.18322,-6.04634
22.6271,68124.7627,0.89431,-3.3787,-6.22288
22.6371,68124.7727,1.62246,-3.53508,-6.50755
22.6461,68124.7827,2.16674,-3.53141,-6.74029
22.6564,68124.7927,2.90711,-3.60105,-6.95042
22.6644,68124.8027,3.65236,-3.91198,-7.12391
22.6785,68124.8127,4.54056,-4.419,-7.32916
22.6847,68124.8227,5.2626,-4.76414,-7.4831
22.6991,68124.8327,5.84659,-5.03414,-7.40124
22.7091,68124.8427,6.02557,-5.08179,-7.13063
22.7223,68124.8527,5.89729,-5.13616,-6.59551
22.7313,68124.8637,5.52833,-5.34629,-6.04512
22.7416,68124.8737,5.19052,-5.45442,-5.70792
22.7487,68124.8837,4.959,-5.4477,-5.6279
22.7569,68124.8937,4.85577,-5.12699,-6.00969
22.7655,68124.9037,4.88204,-4.68289,-6.72685
22.777,68124.9137,4.97061,-4.62181,-7.46661
22.786,68124.9237,5.14898,-4.78796,-8.03166
22.8084,68124.9337,5.52344,-4.89425,-8.52768
22.8109,68124.9437,5.8356,-4.83439,-8.8044
22.8195,68124.9537,6.26137,-4.56683,-9.01087
22.8321,68124.9637,6.60101,-4.20336,-8.9785
22.843,68124.9737,7.07626,-3.48193,-8.56555
22.8492,68124.9847,7.36093,-2.78738,-8.04204
22.8586,68124.9947,7.49348,-2.15941,-7.43362
22.8668,68125.0047,7.3988,-1.72325,-7.03411
22.8787,68125.0147,6.98097,-1.0794,-6.65049
22.8867,68125.0247,6.43363,-0.16616,-6.31207
22.9021,68125.0347,5.7348,0.72021,-5.79345
22.9066,68125.0447,5.14593,1.03481,-5.28276
22.9215,68125.0547,4.44771,1.34696,-4.55583
22.9295,68125.0647,3.93886,1.65178,-3.89732
22.9387,68125.0747,3.40985,1.84542,-3.22903
22.9467,68125.0847,3.00301,2.07144,-2.86007
22.9586,68125.0947,2.50333,2.47706,-2.62183
22.9827,68125.1047,2.12642,2.79532,-2.58946
22.9838,68125.1147,1.81305,2.99813,-2.61695
22.9894,68125.1247,1.62612,3.04577,-2.52043
23.0029,68125.1347,1.54121,3.06166,-2.31579
23.0102,68125.1447,1.48929,2.97064,-2.11054
23.0218,68125.1547,1.43981,3.17955,-1.94377
23.0316,68125.1647,1.42393,3.47582,-1.88391
23.0393,68125.1757,1.38178,3.60227,-1.70676
23.0493,68125.1857,1.2987,3.51736,-1.39399
23.0638,68125.1957,1.12644,3.63526,-0.91874
23.0671,68125.2057,0.92668,3.80936,-0.51435
23.0793,68125.2157,0.65118,4.29744,-0.33109
23.0871,68125.2257,0.39767,4.64135,-0.35858
23.0995,68125.2357,-0.02932,4.88814,-0.46365
23.1071,68125.2457,-0.50274,5.0433,-0.51985
23.1197,68125.2557,-1.05313,5.39394,-0.42944
23.1273,68125.2657,-1.48318,5.69632,-0.19975
23.141,68125.2757,-2.07877,5.93089,0.08369
23.1471,68125.2857,-2.62672,6.1227,0.06109
23.1589,68125.2957,-3.12824,6.21494,-0.28283
23.1848,68125.3057,-3.43367,6.34139,-0.6298
23.1869,68125.3157,-3.75377,6.53687,-0.99999
23.191,68125.3257,-3.992,6.62239,-1.17469
23.2049,68125.3357,-4.20397,6.69203,-1.22173
23.2087,68125.3467,-4.38662,6.77938,-1.15637
23.223,68125.3567,-4.59432,6.83131,-0.94501
23.2284,68125.3667,-4.73421,6.82642,-0.67562
23.2405,68125.3767,-4.79957,6.66515,-0.45448
23.2527,68125.3867,-4.69328,6.78366,-0.47342
23.2631,68125.3967,-4.01338,6.54298,-0.86926
23.2717,68125.4077,-3.59983,6.36522,-1.26999
23.2813,68125.4177,-3.1203,6.05062,-1.74891
23.2892,68125.4277,-2.84663,5.62179,-2.06961
23.3009,68125.4377,-2.7605,5.03781,-2.39276
23.3137,68125.4477,-2.87473,4.57294,-2.58579
23.3249,68125.4576,-3.1203,4.18992,-2.73484
23.3326,68125.4677,-3.37992,4.05004,-2.77455
23.3468,68125.4777,-3.75316,3.99384,-2.70858
23.3495,68125.4877,-4.10868,3.89182,-2.56624
23.3677,68125.4977,-4.51368,3.47643,-2.49416
23.3759,68125.5077,-4.78979,3.05921,-2.56014
23.3837,68125.5177,-4.97672,2.52776,-2.7324
23.3911,68125.5277,-4.96939,2.2431,-3.00607
23.4022,68125.5377,-4.76169,2.00364,-3.38725
23.4137,68125.5477,-4.48742,1.71287,-3.67497
23.4222,68125.5577,-4.19787,1.39705,-3.78064
23.4299,68125.5677,-3.96207,1.15026,-3.71834
23.4423,68125.5777,-3.78981,0.98899,-3.53019
23.4563,68125.5887,-3.72933,0.91508,-3.25958
23.4699,68125.5987,-3.80141,1.1527,-2.9627
23.4752,68125.6087,-3.9468,1.66522,-2.75928
23.4847,68125.6186,-4.16732,2.22111,-2.75561
23.4918,68125.6287,-4.33775,2.37871,-2.81853
23.5027,68125.6387,-4.42511,2.38543,-2.83197
23.5103,68125.6487,-4.44282,2.44652,-2.78493
23.5226,68125.6587,-4.40984,2.61634,-2.71102
23.5305,68125.6687,-4.32981,2.88939,-2.64932
23.5449,68125.6787,-4.22841,3.32555,-2.48195
23.5529,68125.6897,-4.16121,3.733,-2.20522
23.5688,68125.6997,-4.15633,4.19237,-1.8045
23.5728,68125.7097,-4.15572,4.63097,-1.41721
23.5879,68125.7197,-4.08669,5.05858,-0.96639
23.5988,68125.7297,-3.99933,5.29376,-0.69578
23.6062,68125.7397,-3.93764,5.07385,-0.57177
23.6121,68125.7497,-3.92847,4.45076,-0.68722
23.6275,68125.7597,-3.96574,3.54424,-1.05496
23.6382,68125.7696,-3.99872,3.11419,-1.31886
23.6513,68125.7797,-4.03293,2.23027,-1.7373
23.6564,68125.7897,-4.09524,1.09834,-2.11237
23.6751,68125.7995,-4.18015,0.09102,-2.6536
23.6818,68125.8107,-4.15572,-0.40623,-3.22354
23.6892,68125.8207,-3.97673,-0.5962,-3.8118
23.6934,68125.8307,-3.79836,-0.56383,-4.09035
23.7085,68125.8417,-3.66641,-0.39645,-3.97246
23.7142,68125.8517,-3.6542,-0.24496,-3.60166
23.7329,68125.8617,-3.79531,-0.0562,-2.89794
23.7364,68125.8717,-4.16427,0.37202,-2.10871
23.75,68125.8817,-4.68595,0.84971,-1.21929
23.7567,68125.8917,-4.99749,1.15392,-0.68722
23.766,68125.9017,-5.3017,1.33352,-0.31032
23.7839,68125.9117,-5.52894,1.08612,-0.26634
23.7879,68125.9216,-5.66822,0.69272,-0.38607
23.7963,68125.9317,-5.58942,0.30788,-0.57971
23.8061,68125.9417,-5.22534,-0.13561,-0.86376
23.8168,68125.9527,-4.87165,-0.39767,-0.97494
23.8274,68125.9627,-4.42328,-0.79596,-0.97433
23.8346,68125.9727,-4.01949,-0.97555,-0.94318
23.8497,68125.9827,-3.3958,-1.10628,-0.80451
23.8564,68125.9927,-2.90222,-1.20157,-0.60231
23.8759,68126.0027,-2.2095,-1.39461,-0.20831
23.8822,68126.0137,-1.71287,-1.39522,0.08491
23.8895,68126.0237,-1.52716,-0.84177,0.38546
23.8971,68126.0337,-1.37994,-0.62675,0.58521
23.91,68126.0436,-1.05008,-0.75075,0.75198
23.9188,68126.0537,-0.68295,-0.95295,0.87781
23.9282,68126.0637,0.03238,-1.14965,0.93768
23.9385,68126.0737,0.832,-1.01892,0.91996
23.9488,68126.0837,1.76601,-0.72876,0.86743
23.9561,68126.0937,2.46667,-0.59987,0.75747
23.9675,68126.1037,2.901,-0.45998,0.51191
23.9792,68126.1147,3.12641,-0.60415,0.13806
23.9891,68126.1247,3.20643,-0.94745,-0.19059
24.0043,68126.1347,3.24064,-1.27854,-0.36224
24.0106,68126.1447,3.3225,-1.56626,-0.51007
24.0237,68126.1547,3.39641,-1.59069,-0.62797
24.0297,68126.1647,3.48804,-1.77517,-0.73854
24.0357,68126.1747,3.5534,-2.08183,-0.81184
24.0479,68126.1846,3.56379,-2.53387,-0.7929
24.0557,68126.1947,3.57173,-2.94071,-0.71227
24.0674,68126.2047,3.61388,-3.15634,-0.60537
24.0758,68126.2147,3.62793,-3.23026,-0.48258
24.0874,68126.2247,3.61082,-2.84419,-0.3372
24.1146,68126.2346,3.65297,-2.47523,-0.2193
24.1177,68126.2446,3.85028,-2.46973,-0.10629
24.1184,68126.2547,4.05553,-2.55647,-0.09835
24.1343,68126.2647,4.21008,-2.61695,-0.1741
24.1381,68126.2747,4.29438,-2.82586,-0.22969
24.148,68126.2847,4.38968,-3.22903,-0.27367
24.1579,68126.2946,4.4642,-3.6096,-0.3091
24.1682,68126.3046,4.55828,-4.05553,-0.38607
24.178,68126.3147,4.66701,-4.49047,-0.45143
24.1895,68126.3247,4.92785,-5.13921,-0.55955
24.1974,68126.3347,5.29009,-5.54299,-0.71593
24.2075,68126.3445,6.10804,-5.28704,-0.86376
24.2167,68126.3547,6.35911,-5.7794,-0.9334
24.2294,68126.3646,6.33712,-5.87408,-1.13804
24.2366,68126.3746,6.18562,-5.37867,-1.28709
24.2486,68126.3847,5.8637,-4.91197,-1.35184
24.2566,68126.3947,5.48862,-5.00543,-1.37017
24.2737,68126.4047,5.05858,-5.26077,-1.4282
24.2765,68126.4147,4.76536,-5.38539,-1.52655
24.2994,68126.4246,4.43916,-5.13005,-1.68293
24.3017,68126.4346,4.26262,-4.81973,-1.75257
24.3093,68126.4447,4.09952,-4.64196,-1.8216
24.3169,68126.4546,4.0366,-4.77025,-1.89979
24.3294,68126.4647,4.08363,-5.07446,-2.05556
24.337,68126.4747,4.25101,-5.2174,-2.28769
24.358,68126.4846,4.5033,-5.39333,-2.61695
24.3605,68126.4946,4.66823,-5.62851,-2.89733
24.3761,68126.5047,4.79468,-5.96571,-3.3732
24.383,68126.5156,4.77636,-6.10621,-3.73544
24.3913,68126.5267,4.67923,-6.1844,-3.95719
24.3985,68126.5366,4.59187,-6.18135,-3.9578
24.411,68126.5466,4.54911,-5.93944,-3.82646
24.4188,68126.5567,4.56316,-5.57537,-3.7275
24.4321,68126.5667,4.63708,-5.1276,-3.64503
24.4418,68126.5767,4.72932,-4.93152,-3.60838
24.4509,68126.5867,4.8686,-4.8912,-3.69146
24.4588,68126.5966,4.98771,-4.97611,-3.89182
24.4706,68126.6066,4.98344,-5.08057,-4.11784
24.4823,68126.6167,4.83683,-4.93885,-4.19787
24.4906,68126.6267,4.49597,-4.53934,-4.19726
24.5023,68126.6367,4.09829,-4.33226,-4.15694
24.5166,68126.6467,3.66275,-4.3011,-4.11173
24.5221,68126.6566,3.3903,-4.24979,-4.10196
24.5337,68126.6666,3.11236,-4.11173,-4.11601
24.5436,68126.6767,3.00362,-4.06714,-4.15694
24.5542,68126.6876,2.89489,-4.01888,-4.36708
24.5772,68126.6987,2.7831,-3.89671,-4.64013
24.5794,68126.7086,2.66765,-3.8289,-4.94618
24.5834,68126.7186,2.59679,-3.87899,-5.12821
24.5949,68126.7287,2.56869,-4.014,-5.20091
24.6022,68126.7386,2.57846,-4.1099,-5.13432
24.6154,68126.7487,2.57296,-4.14655,-4.77941
24.6214,68126.7586,2.55097,-3.94008,-4.3237
24.6382,68126.7686,2.45751,-3.51431,-3.53508
24.6453,68126.7786,2.3219,-3.13863,-2.83136
24.6547,68126.7886,2.05434,-2.75745,-1.89613
24.6615,68126.7987,1.71287,-2.61939,-1.09467
24.6746,68126.8087,1.28343,-2.69575,-0.30788
24.6841,68126.8186,0.91935,-2.88695,0.20403
24.6933,68126.8287,0.65973,-2.84236,0.38179
24.7008,68126.8386,0.50519,-2.7214,0.29749
24.7178,68126.8486,0.39218,-2.48867,-0.01833
24.7283,68126.8587,0.35797,-2.27547,-0.32742
24.7337,68126.8687,0.37202,-2.35,-0.48014
24.741,68126.8787,0.41172,-2.60901,-0.49052
24.7531,68126.8887,0.46731,-2.75683,-0.41478
24.7603,68126.8986,0.4612,-2.64932,-0.22358
24.7727,68126.9086,0.32803,-2.55036,0.12767
24.7894,68126.9187,0.11973,-2.49477,0.48197
24.7966,68126.9287,-0.27122,-2.2883,1.03419
24.8044,68126.9387,-0.69211,-2.02624,1.5968
24.8149,68126.9497,-1.16125,-1.67072,2.36405
24.8227,68126.9597,-1.43798,-1.40621,2.86374
24.8399,68126.9697,-1.67011,-0.99021,3.4239
24.8462,68126.9797,-1.788,-0.58704,3.88205
24.8584,68126.9896,-1.82832,-0.04643,4.39151
24.864,68126.9996,-1.8106,0.30116,4.79957
24.8835,68127.0097,-1.78739,0.62125,5.29865
24.8854,68127.0197,-1.91079,0.75014,5.64623
24.9017,68127.0297,-2.12215,0.94684,5.90462
24.9083,68127.0397,-2.32251,1.05802,5.99748
24.9216,68127.0496,-2.60473,0.9163,5.96693
24.9241,68127.0596,-2.80204,0.80879,5.7513
24.9375,68127.0697,-3.0024,0.89492,5.36095
24.9474,68127.0797,-3.15145,1.06535,5.04086
24.9566,68127.0897,-3.2553,1.34024,4.89547
24.9662,68127.0997,-3.26935,1.71959,4.95412
24.981,68127.1096,-3.12885,2.07877,5.18136
24.983,68127.1196,-2.94559,2.34939,5.32919
24.9939,68127.1297,-2.78249,2.21683,5.31392
25.0021,68127.1406,-2.83625,0.61392,4.94251
25.0217,68127.1506,-2.9346,-0.23213,4.22535
25.0235,68127.1607,-2.93521,-0.12401,3.60533
25.034,68127.1707,-2.82342,0.2022,3.2779
25.042,68127.1807,-2.5522,0.44593,3.32433
25.0549,68127.1907,-2.26326,0.90591,3.80508
25.0623,68127.2006,-2.1081,1.63834,4.45138
25.0744,68127.2106,-2.12887,2.92421,5.17159
25.0823,68127.2207,-2.24065,4.12639,5.74824
25.0955,68127.2307,-2.48378,5.69143,6.59001
25.1024,68127.2407,-2.85335,6.01152,7.2357
25.1151,68127.2507,-3.40313,5.86003,7.63154
25.1222,68127.2606,-3.80997,5.91745,7.6291
25.1347,68127.2706,-4.25895,6.25343,7.23692
25.1421,68127.2807,-4.49475,6.58757,6.76472
25.1579,68127.2907,-4.70366,6.6682,6.13309
25.164,68127.3007,-4.76047,6.56863,5.72197
25.1773,68127.3107,-4.71344,6.7354,5.34202
25.1834,68127.3206,-4.6212,7.04939,5.21618
25.1946,68127.3306,-4.52224,7.17034,5.18869
25.203,68127.3407,-4.46848,6.85208,5.1893
25.2161,68127.3507,-4.42022,6.1453,5.0714
25.2225,68127.3607,-4.31698,5.53322,4.74764
25.2346,68127.3707,-4.08974,5.14226,4.25956
25.243,68127.3807,-3.80997,4.92846,3.84784
25.2569,68127.3906,-3.43673,4.64807,3.45566
25.2641,68127.4006,-3.17161,4.51735,3.24247
25.289,68127.4107,-2.94193,4.48986,3.0586
25.2971,68127.4216,-2.80998,4.57294,2.94376
25.2993,68127.4317,-2.71224,4.63097,2.87473
25.3151,68127.4417,-2.56197,4.59065,2.85335
25.3196,68127.4527,-2.25715,4.68534,2.88145
25.3295,68127.4627,-1.99264,4.87715,2.94009
25.3466,68127.4727,-1.72997,5.28704,3.00301
25.349,68127.4827,-1.60841,5.46052,3.03905
25.3577,68127.4937,-1.58581,5.53749,3.11847
25.3656,68127.5037,-1.89613,5.28093,3.00485
25.3778,68127.5137,-2.71163,4.84538,2.59496
25.3855,68127.5236,-3.59005,4.54056,2.01097
25.3979,68127.5336,-4.43549,4.40373,1.44164
25.4071,68127.5437,-4.88814,4.18931,1.15515
25.4241,68127.5537,-5.01459,3.88877,1.08062
25.4342,68127.5637,-4.91441,3.53752,1.16981
25.4401,68127.5737,-4.70366,3.31455,1.33596
25.4453,68127.5836,-4.56683,3.40008,1.50884
25.4583,68127.5936,-4.5314,3.38603,1.68538
25.4662,68127.6037,-4.58882,2.98041,1.7709
25.4804,68127.6137,-4.69755,2.32679,1.59986
25.4921,68127.6247,-4.7452,2.02135,1.38422
25.5094,68127.6347,-4.64991,1.80816,1.21318
25.5129,68127.6447,-4.42083,1.4954,1.14293
25.5196,68127.6547,-4.08669,1.10322,1.17836
25.5267,68127.6647,-3.84112,0.73243,1.26144
25.539,68127.6746,-3.66641,0.25534,1.34146
25.5468,68127.6846,-3.53935,-0.27245,1.41232
25.559,68127.6947,-3.38114,-0.9725,1.43981
25.568,68127.7047,-3.10747,-1.56504,1.19852
25.5806,68127.7147,-2.53387,-1.57664,0.7477
25.589,68127.7257,-1.83321,-1.10139,0.55222
25.6029,68127.7366,-0.97372,-0.40195,0.75259
25.61,68127.7467,-0.50763,-0.08186,1.10017
25.6234,68127.7567,-0.31276,0.23946,1.35612
25.63,68127.7667,-0.34392,0.60964,1.31458
25.6445,68127.7766,-0.5455,0.58093,1.13865
25.6511,68127.7866,-0.78069,0.28161,1.04947
25.6639,68127.7977,-1.03053,0.0898,1.07696
25.6711,68127.8076,-1.23212,-0.17226,1.07451
25.6887,68127.8176,-1.27426,-0.73915,0.83627
25.6981,68127.8277,-1.03481,-1.19119,0.41905
25.7095,68127.8386,-0.52473,-1.5235,-0.19975
25.7243,68127.8486,-0.0055,-1.64811,-0.76786
25.7253,68127.8587,0.55222,-1.69454,-1.17836
25.7357,68127.8696,0.96028,-1.70859,-1.28587
25.7434,68127.8795,1.28709,-1.63284,-1.23212
25.7518,68127.8897,1.42087,-1.58336,-1.11849
25.7637,68127.8997,1.44958,-1.63345,-0.99632
25.7714,68127.9097,1.45752,-1.70004,-0.85888
25.7831,68127.9196,1.47524,-1.66644,-0.71044
25.7912,68127.9296,1.4954,-1.51983,-0.57727
25.8087,68127.9397,1.52228,-1.41599,-0.51618
25.8154,68127.9497,1.56565,-1.40255,-0.50641
25.8251,68127.9597,1.57664,-1.38727,-0.46304
25.8374,68127.9697,1.55221,-1.33718,-0.40439
25.8441,68127.9797,1.49784,-1.12338,-0.38729
25.8529,68127.9896,1.42087,-0.80756,-0.38912
25.8639,68127.9996,1.26632,-0.46365,-0.34575
25.8731,68128.0097,1.11605,-0.24312,-0.26939
25.8856,68128.0197,0.95051,-0.21502,-0.15882
25.8925,68128.0296,0.8998,-0.30482,-0.07453
25.9054,68128.0397,0.99266,-0.53634,-0.01833
25.9128,68128.0496,1.13193,-0.83444,0.01222
25.9248,68128.0607,1.35246,-1.34818,0.03971
25.9326,68128.0706,1.48807,-1.81122,0.05986
25.9484,68128.0806,1.58336,-2.27975,0.0336
25.9554,68128.0907,1.66155,-2.73607,-0.01527
25.9685,68128.1006,1.79106,-3.20277,-0.09285
25.9785,68128.1107,1.92239,-3.51919,-0.13134
26.004,68128.1207,2.06045,-3.72139,-0.14478
26.0069,68128.1305,2.13803,-3.77087,-0.09468
26.0088,68128.1406,2.13314,-3.7049,-0.01161
26.0127,68128.1506,2.02929,-3.51614,0.0898
26.0311,68128.1607,1.76662,-3.16245,0.18631
26.033,68128.1707,1.5687,-2.95109,0.21991
26.0449,68128.1807,1.25899,-2.78555,0.16493
26.0552,68128.1907,1.04397,-2.91871,0.01649
26.0638,68128.2006,0.96028,-3.34693,-0.14294
26.0765,68128.2106,1.05985,-3.89121,-0.30177
26.0866,68128.2207,1.24311,-4.32493,-0.52718
26.0957,68128.2307,1.42759,-4.53751,-0.73304
26.1039,68128.2407,1.60047,-4.47825,-0.85888
26.1123,68128.2507,1.71042,-4.23757,-0.85643
26.1256,68128.2606,1.74769,-3.92053,-0.72937
26.1325,68128.2706,1.75807,-3.65236,-0.59743
26.146,68128.2807,1.76723,-3.61571,-0.51191
26.1542,68128.2907,1.77456,-3.99506,-0.61392
26.1656,68128.3007,1.74646,-4.66823,-0.94867
26.1724,68128.3107,1.69759,-5.13493,-1.29198
26.1861,68128.3206,1.39155,-5.87591,-1.65239
26.1932,68128.3306,1.05252,-6.40981,-1.90834
26.2098,68128.3407,0.81551,-6.79038,-2.16307
26.2173,68128.3507,0.75381,-6.87101,-2.3671
26.2274,68128.3607,0.8094,-6.74395,-2.61267
26.2426,68128.3707,0.93523,-6.41775,-2.77883
26.2513,68128.3807,1.11788,-6.03229,-2.82647
26.2539,68128.3906,1.28037,-5.72197,-2.71591
26.2647,68128.4006,1.42576,-5.4367,-2.47706
26.2725,68128.4107,1.54671,-5.30842,-2.20706
26.2899,68128.4207,1.67621,-5.0769,-2.14658
26.2942,68128.4317,1.78067,-4.74826,-2.43918
26.3063,68128.4417,1.98104,-5.22595,-2.98408
26.3145,68128.4517,2.14902,-6.31268,-3.42451
26.3264,68128.4617,2.31946,-8.01944,-3.88388
26.3353,68128.4716,2.51615,-9.34868,-4.21558
26.3506,68128.4816,2.79776,-10.31263,-4.45443
26.3656,68128.4917,3.05555,-10.62661,-4.61325
26.3691,68128.5017,3.44223,-10.75001,-4.8747
26.3763,68128.5117,3.63831,-10.73412,-5.08179
26.3886,68128.5217,3.76049,-10.56308,-5.20335
26.403,68128.5327,3.77087,-10.6541,-5.15631
26.4154,68128.5426,3.71162,-10.86179,-5.0207
26.4253,68128.5527,3.62976,-10.8056,-4.92846
26.4393,68128.5626,3.56867,-10.31324,-4.97428
26.4413,68128.5726,3.58578,-9.67488,-5.14104
26.4508,68128.5836,3.61754,-8.93513,-5.30903
26.4587,68128.5947,3.57539,-8.4275,-5.28337
26.4768,68128.6046,3.33532,-7.66514,-5.10072
26.485,68128.6157,2.98835,-6.66271,-4.981
26.4917,68128.6257,2.54975,-5.42326,-4.71405
26.4987,68128.6356,2.23638,-4.59554,-4.43122
26.5088,68128.6456,1.95416,-3.74888,-4.02866
26.5224,68128.6557,1.78128,-2.90711,-3.69757
26.5293,68128.6657,1.59925,-1.66033,-3.463
26.5372,68128.6757,1.47768,-0.81917,-3.35365
26.55,68128.6857,1.46547,-0.27184,-3.35304
26.5584,68128.6956,1.63773,-0.1912,-3.49781
26.5694,68128.7056,1.94866,-0.35125,-3.67435
26.5775,68128.7157,2.26142,-0.28222,-3.78126
26.5891,68128.7257,2.5412,0.21319,-3.80813
26.5973,68128.7357,2.77211,0.94501,-3.70978
26.617,68128.7457,2.94559,2.13742,-3.55096
26.6232,68128.7556,2.9743,3.38419,-3.50759
26.6366,68128.7667,2.83747,4.26567,-3.64198
26.6474,68128.7777,2.67498,4.4642,-4.00605
26.6729,68128.7877,2.62,4.26567,-4.48925
26.677,68128.7987,2.63527,4.05309,-5.00604
26.678,68128.8087,2.63405,3.587,-5.44831
26.681,68128.8186,2.67559,3.37747,-5.43975
26.6937,68128.8287,2.81059,3.62854,-5.17708
26.7061,68128.8386,2.92727,4.06897,-4.92418
26.7139,68128.8486,2.95781,4.22352,-4.65052
26.7207,68128.8587,2.79043,4.13189,-4.65418
26.7385,68128.8687,2.26692,3.99872,-4.85088
26.7495,68128.8787,1.6023,3.92053,-4.97672
26.7571,68128.8887,0.55528,4.04881,-4.83439
26.7608,68128.8986,-0.41294,4.56438,-4.4245
26.7757,68128.9086,-1.39705,5.52589,-3.87227
26.7852,68128.9187,-2.15208,6.36522,-3.598
26.7937,68128.9287,-2.8729,7.20882,-3.45078
26.8007,68128.9387,-3.37625,7.444,-3.36953
26.8163,68128.9487,-3.6603,7.45439,-3.64564
26.8228,68128.9586,-3.76171,7.43667,-4.00728
26.8364,68128.9686,-3.92175,7.34627,-4.13983
26.8449,68128.9787,-4.15083,7.29984,-4.07997
26.8563,68128.9887,-4.47092,7.37253,-3.95169
26.8609,68128.9987,-4.67068,7.66025,-3.81058
26.8726,68129.0087,-4.88142,7.94369,-3.76232
26.8806,68129.0186,-5.06896,7.64803,-3.95963
26.8931,68129.0286,-5.23145,6.71219,-4.40861
26.9005,68129.0387,-5.33224,5.86186,-4.59126
26.9156,68129.0487,-5.50695,5.24122,-4.48619
26.9237,68129.0587,-5.64195,5.13738,-4.34447
26.9435,68129.0687,-5.76107,5.37684,-4.11723
26.9465,68129.0787,-5.65844,5.76535,-3.93092
26.9581,68129.0897,-5.3243,6.28825,-3.73116
26.9653,68129.1007,-4.87532,6.43058,-3.63159
26.9757,68129.1116,-4.12945,5.92295,-3.66641
26.9836,68129.1217,-3.49048,5.36645,-3.86067
26.9995,68129.1317,-2.96025,4.78796,-4.12395
27.0076,68129.1417,-2.65299,4.42633,-4.35608
27.0154,68129.1517,-2.58457,4.02194,-4.62058
27.0242,68129.1616,-2.70064,3.45994,-4.97672
27.0352,68129.1716,-2.98224,2.41597,-5.5882
27.046,68129.1817,-3.10136,1.43492,-6.24121
27.0589,68129.1917,-2.82953,0.82833,-6.66454
27.0641,68129.2017,-2.36588,0.61087,-6.79588
27.0747,68129.2117,-1.8326,0.51313,-6.81176
27.083,68129.2216,-1.58214,0.54367,-6.76778
27.0958,68129.2316,-1.57176,0.55833,-6.62239
27.106,68129.2417,-1.78312,0.52657,-6.41164
27.1143,68129.2516,-2.17163,0.57299,-6.07933
27.1228,68129.2616,-2.50271,0.66645,-5.81666
27.1361,68129.2717,-2.89672,0.93646,-5.53933
27.1428,68129.2816,-3.18627,1.33657,-5.33774
27.1551,68129.2916,-3.43428,1.52533,-5.14776
27.1632,68129.3017,-3.57356,1.4508,-4.98161
27.1764,68129.3117,-3.57662,1.20279,-4.77697
27.1833,68129.3217,-3.28279,1.19485,-4.56988
27.1986,68129.3317,-2.97247,0.91324,-4.30599
27.2063,68129.3417,-2.82525,0.65607,-4.06409
27.2217,68129.3516,-2.81609,0.46487,-3.78431
27.2268,68129.3616,-2.91505,0.38423,-3.5082
27.2588,68129.3717,-3.08731,0.39279,-3.31761
27.2725,68129.3817,-3.25469,0.48258,-3.30112
27.2744,68129.3916,-3.51064,0.74159,-3.42207
27.277,68129.4017,-3.68963,0.97128,-3.48926
27.2779,68129.4116,-3.98101,1.40927,-3.463
27.2872,68129.4216,-4.25529,1.86314,-3.32494
27.2959,68129.4317,-4.56622,2.24859,-3.08609
27.3062,68129.4417,-4.76536,2.22966,-2.88817
27.3173,68129.4517,-4.92785,1.85825,-2.69086
27.3272,68129.4617,-4.96328,1.383,-2.57785
27.3354,68129.4716,-4.88631,0.8039,-2.45873
27.3475,68129.4816,-4.73482,0.30299,-2.32862
27.3611,68129.4917,-4.3854,-0.2755,-2.04273
27.3635,68129.5017,-3.90099,-0.49847,-1.69637
27.3764,68129.5117,-3.26385,-0.47403,-1.32741
27.384,68129.5217,-2.76111,-0.37018,-1.02625
27.3979,68129.5316,-2.42452,-0.23335,-0.81428
27.4065,68129.5416,-2.29502,-0.00611,-0.72754
27.4265,68129.5527,-2.27059,0.23213,-0.61697
27.434,68129.5637,-2.21683,0.20036,-0.4331
27.4459,68129.5737,-1.95966,-0.22907,-0.22052
27.4477,68129.5836,-1.66155,-0.74281,-0.16432
27.4592,68129.5936,-1.24372,-1.40132,-0.17593
27.4668,68129.6037,-1.00671,-1.6359,-0.16371
27.4779,68129.6137,-0.84483,-1.7147,-0.13378
27.4866,68129.6237,-0.73059,-1.76723,-0.29077
27.4976,68129.6337,-0.49297,-1.51067,-0.48564
27.5055,68129.6436,-0.13317,-1.0794,-0.44715
27.5183,68129.6536,0.27428,-0.66584,-0.15882
27.5252,68129.6637,0.62064,-0.34941,0.21197
27.537,68129.6737,0.8827,-0.23824,0.55222
27.5451,68129.6837,0.99082,-0.33414,0.7025
