AppTimestamp(s),SensorTimestamp(s),acc_x,acc_y,acc_z,gyro_x,gyro_y,gyro_z,mag_x,mag_y,mag_z,PitchX,RollY,YawZ,Quat_w,Quat_x,Quat_y,Quat_z
0.0697,68102.126,-2.7246,9.14346,4.4197,-0.81856,0.12217,0.02688,17.16,-22.08,2.64,49.65501,11.024087,128.037613,0.3594926931674099,0.10472547,0.41389796,0.8297506
0.074,68102.146,-1.16598,9.46667,7.18261,-0.79229,-0.31826,-0.09896,17.16,-22.2,2.46,48.80735,10.935333,128.265823,0.3600747257604382,0.10135925,0.40793282,0.83286452
0.0783,68102.166,-0.22027,8.80827,7.44357,-0.27978,-0.65179,-0.52718,17.16,-21.96,2.52,48.096523,10.583979,128.143921,0.36378679058062297,0.10167119,0.40175304,0.83421618
0.082,68102.186,-1.92494,7.55371,6.25365,-0.25901,-0.70066,-0.63591,17.58,-21.96,2.4,47.780273,10.513783,127.213013,0.37150035496159556,0.10423242,0.39848295,0.83206636
0.0854,68102.206,-3.43329,7.5992,6.7708,-0.54489,-0.47037,-0.44654,18.18,-21.9,1.56,47.353909,10.589233,126.219788,0.37939235565169616,0.10547967,0.39485282,0.83007634
0.0891,68102.226,-2.55701,8.36534,9.74679,-0.57727,-0.27122,-0.35552,17.64,-21.96,1.56,46.636066,10.389956,125.768822,0.384938289530189,0.10566456,0.38877925,0.83036631
0.1087,68102.246,-2.31759,6.41167,8.99262,-0.0171,0.26756,-0.45265,17.64,-21.72,1.68,45.997414,10.865653,125.177071,0.38904129133047405,0.10169847,0.38540781,0.83052099
0.1312,68102.266,-3.20584,5.89692,6.67982,0.23091,0.18692,-0.03482,16.98,-21.42,1.86,45.895519,11.752154,124.49173,0.39124789391590337,0.097181,0.3871251,0.8292256
0.1597,68102.286,-2.93769,7.13472,4.24253,0.135,-0.44166,0.29505,16.56,-20.88,2.34,46.144779,12.160671,124.377029,0.390113283501071,0.09562151,0.39014179,0.82852733
0.1953,68102.306,-1.42455,8.28873,6.34463,0.10934,-0.95478,0.30116,17.16,-21.06,2.16,46.377007,11.317108,124.80864,0.38932426159987205,0.10118745,0.38924706,0.82865822
0.1993,68102.326,-0.77812,8.70771,7.86974,0.06231,-0.89492,0.02566,17.04,-21.36,1.74,46.572418,9.978036,125.199959,0.39058896785347585,0.1103197,0.38640651,0.82822692
0.209,68102.346,-1.79565,7.20894,8.30788,-0.13561,0.36408,-0.20159,17.46,-21.78,1.14,46.514072,9.421393,125.145103,0.39298392730992016,0.11429626,0.38404366,0.82765359
0.2331,68102.366,-3.98156,6.58645,6.82347,-0.10812,0.3146,-0.02688,17.46,-22.14,1.02,46.262432,10.296711,124.784576,0.39320330007666204,0.10818762,0.38494715,0.82795066
0.2485,68102.386,-4.43406,6.32069,6.95755,0.16799,-0.13256,0.35919,17.22,-21.96,1.02,46.097336,10.99466,124.591789,0.3926187774526508,0.10313311,0.38601804,0.82837439
0.2695,68102.406,-3.66552,6.359,8.51618,0.43616,-0.40867,0.65424,16.92,-21.9,0.96,46.231056,10.829541,124.910561,0.3905687441296517,0.10378651,0.38666821,0.82895845
0.2889,68102.426,-3.80918,6.14831,10.71166,0.75564,0.05192,0.87598,16.32,-21.72,1.44,46.551292,10.234952,125.578407,0.38703002819331594,0.10710001,0.38749027,0.82981241
0.3096,68102.446,-3.36146,5.82749,8.40125,1.1808,0.86132,1.18997,15.9,-21.72,1.5,47.235859,10.267791,126.583229,0.37812534975464196,0.10610281,0.39330399,0.83130944
0.3338,68102.466,-3.02148,5.29358,6.79714,1.21623,0.70433,1.36773,15.72,-21.72,1.56,48.345287,10.480822,127.926704,0.3651786943030339,0.10412184,0.40296784,0.83271849
0.356,68102.487,-2.15478,4.98233,6.0693,1.02748,0.7251,1.50395,15.78,-22.32,2.28,49.504395,10.300247,129.694778,0.35040306065541305,0.10345073,0.41211134,0.83467352
0.3714,68102.507,-1.33596,4.8315,6.26802,0.87781,0.8436,1.53999,15.84,-22.56,3.06,50.357056,9.844928,131.701004,0.33557049958698687,0.10255522,0.41854426,0.83767271
0.3938,68102.527,-0.46926,4.31196,6.35421,0.78252,1.1356,1.59741,15.48,-23.22,3.9,50.991398,9.273087,133.955032,0.3198282790938737,0.10064083,0.42339787,0.84161484
0.4113,68102.547,0.69192,3.93846,6.22971,0.6805,1.59191,1.65789,14.52,-24.3,4.98,51.473484,8.636545,136.618011,0.3016090722998956,0.09701423,0.42741227,0.84672248
0.4335,68102.568,1.71904,3.7182,5.39414,0.5791,1.98165,1.72142,13.98,-24.9,5.58,51.878304,8.032685,139.8918,0.27882574776904917,0.09045875,0.4314844,0.85316741
0.4569,68102.588,2.54743,3.95283,3.76847,0.30482,2.15086,1.74341,13.38,-25.68,6.06,52.18932,7.306112,143.484741,0.25417005301336126,0.08318292,0.43478981,0.85990465
0.4768,68102.608,3.77805,4.77883,3.39737,-0.21686,2.11787,1.67683,12.66,-25.8,7.2,52.27845,6.15024,147.536179,0.22788477807140936,0.07672986,0.43584511,0.86730623
0.5036,68102.628,5.12359,5.6575,4.97036,-0.61514,2.24004,1.45264,11.88,-25.86,7.8,51.856415,4.621025,151.821899,0.20165085117585282,0.07118531,0.43257284,0.87587118
0.5186,68102.648,6.25605,5.94001,4.67588,-0.8656,2.49355,0.92057,10.56,-26.1,8.4,51.092274,3.38735,155.81073,0.17649767404143676,0.06424189,0.42706859,0.88449645
0.5381,68102.668,5.09007,5.35822,3.21062,-1.20279,2.38299,0.41172,9.3,-26.04,8.82,50.135963,3.010232,158.892853,0.1549042626020371,0.05418509,0.42074004,0.89221436
0.5569,68102.688,3.19147,4.92487,2.99754,-1.65728,2.10138,0.34575,8.52,-26.52,8.58,48.839478,3.094754,161.145889,0.13807127099210267,0.04343404,0.41171339,0.89974546
0.5713,68102.708,2.78924,5.15472,4.16831,-1.87352,1.64017,0.49847,7.56,-26.82,8.52,47.108871,2.957353,163.284515,0.12299525532507288,0.0346631,0.39868274,0.90814245
0.5968,68102.728,3.44526,5.9041,5.66947,-1.75807,1.20768,0.52595,7.14,-27.0,8.46,45.228477,2.335412,165.445404,0.10913495301141041,0.03003766,0.38373104,0.9164812
0.6141,68102.748,3.64637,6.80193,6.03818,-1.50578,0.70677,0.53756,7.14,-27.24,8.16,43.565811,1.456688,167.383194,0.09733725473238196,0.02903972,0.37011099,0.92341757
0.6339,68102.768,4.27365,7.96551,6.56011,-1.24494,0.02749,0.54734,6.96,-27.42,7.5,42.222904,0.143046,169.142319,0.08781172413405729,0.03291739,0.3586776,0.92873889
0.6625,68102.788,5.6551,9.02853,7.94875,-0.93646,-0.551,0.22052,6.78,-27.42,6.78,41.177471,-1.798212,170.654144,0.08175460769892555,0.04328582,0.34924883,0.93245256
0.6849,68102.808,5.2457,9.1674,7.85059,-0.72876,-0.99571,-0.16738,6.72,-27.6,5.58,40.47607,-3.800887,171.465149,0.08121967710186159,0.05675574,0.342457,0.93429404
0.6983,68102.828,4.20661,8.89207,8.32224,-0.62797,-1.4337,-0.34453,6.42,-27.54,4.62,39.977119,-5.816102,171.593628,0.08608476091656743,0.07257081,0.33697963,0.93475538
0.7199,68102.848,3.11725,8.82024,9.25119,-0.41417,-1.79717,-0.24312,6.48,-27.84,3.84,39.578125,-7.954031,171.402634,0.09377399018294817,0.09039272,0.33190122,0.93427896
0.7362,68102.868,3.69665,9.73004,9.93594,-0.00061,-2.35855,-0.14355,6.84,-28.08,3.06,39.45145,-10.514231,171.319977,0.10177107938334043,0.11143553,0.32860762,0.93233138
0.7546,68102.888,5.15232,10.65899,11.02051,0.32926,-2.52165,-0.42761,7.02,-28.02,3.0,39.742012,-13.600989,171.258667,0.11129837957097422,0.13675977,0.328044,0.92806065
0.7762,68102.908,4.92248,10.71166,10.74039,0.37202,-2.15086,-0.90042,7.26,-28.38,3.12,40.345619,-16.135248,170.598572,0.12439650035872203,0.15927094,0.3294957,0.92227483
0.7958,68102.928,3.68707,10.37647,10.01734,0.12645,-1.74402,-1.16187,7.44,-27.9,3.0,41.032082,-17.667362,169.274551,0.14007943095747707,0.17556369,0.33135444,0.91638386
0.8127,68102.948,3.21781,9.81862,11.12346,0.04093,-1.57542,-1.17836,7.62,-27.72,2.94,41.54282,-18.518517,167.553024,0.15676591897496076,0.18750171,0.33164766,0.91119558
0.8423,68102.968,3.60567,9.77792,12.23676,0.3879,-1.44409,-1.19302,7.8,-27.42,2.58,42.085361,-19.180727,165.855164,0.17267270519843464,0.19790092,0.3322064,0.90590191
0.8538,68102.988,3.83312,9.70609,11.54484,0.85765,-1.36895,-1.35979,8.34,-27.12,2.04,43.079319,-19.769463,164.305313,0.18755020620435023,0.20756643,0.33650628,0.89916885
0.8736,68103.008,3.17711,9.07881,9.63427,1.1527,-1.46974,-1.58397,8.7,-26.7,2.04,44.653976,-20.246929,162.678055,0.20314143476247612,0.2170548,0.34522852,0.89018989
0.8972,68103.029,2.18351,8.06367,8.59997,1.20463,-1.65239,-1.69332,9.12,-26.52,2.4,46.456001,-20.631062,160.81369,0.22030261007540108,0.22691621,0.35516721,0.87967724
0.9144,68103.049,1.44849,7.07726,8.66701,1.28404,-1.75563,-1.73119,9.66,-26.52,3.06,48.269386,-20.923157,158.598022,0.23958762961601301,0.23748311,0.3643252,0.86802459
0.9341,68103.07,1.02711,6.20338,8.43238,1.47829,-1.76601,-1.81366,10.62,-26.22,3.12,49.977249,-21.045465,156.334534,0.2582429523214057,0.24717928,0.37256539,0.85639244
0.9533,68103.09,0.06704,5.26964,7.35978,1.57359,-1.7147,-1.89551,11.76,-26.28,3.78,51.954189,-20.872244,153.693954,0.27843831965349997,0.25658852,0.38241085,0.84285015
0.9834,68103.11,-1.16119,4.42927,6.33985,1.54915,-1.63895,-1.84726,12.78,-26.1,3.84,53.80175,-20.188198,150.804764,0.2980169215721316,0.26351964,0.39167371,0.82965958
1.0019,68103.13,-2.05662,3.59849,5.51624,1.51189,-1.54488,-1.69637,13.74,-25.8,4.08,55.506428,-19.022158,147.603958,0.3173646290438032,0.26853979,0.40023986,0.81668484
1.0135,68103.15,-2.92093,3.07176,4.22337,1.43614,-1.4166,-1.50578,13.98,-25.32,4.62,57.061958,-17.38998,144.162704,0.33589973224653996,0.27163619,0.40837979,0.80412132
1.0414,68103.17,-3.63679,2.68869,2.9305,1.22173,-1.36467,-1.22662,14.34,-24.6,4.26,58.421661,-15.252351,140.505478,0.3532526772588192,0.272452,0.41612563,0.79235214
1.0643,68103.19,-3.7158,2.74615,1.78368,0.86987,-1.3042,-0.94501,15.42,-23.64,4.26,59.506889,-12.811164,136.705536,0.3697219756560989,0.2719529,0.42265847,0.78147751
1.0787,68103.21,-3.2202,3.23696,1.50116,0.32315,-1.1692,-0.81428,16.02,-23.04,4.32,60.246761,-10.500308,133.120941,0.38474908903968974,0.27140954,0.42703554,0.77197516
1.1038,68103.23,-3.09331,3.57215,1.58257,-0.26817,-0.89309,-0.86499,16.74,-22.86,4.32,60.490658,-8.571621,130.019089,0.3980575913472066,0.27071813,0.42799515,0.76490653
1.1145,68103.25,-3.39019,3.66073,1.87945,-0.9279,-0.53206,-0.90958,17.4,-22.2,4.68,60.09016,-6.174033,126.746689,0.4114950249678469,0.26573986,0.42604005,0.76062083
1.1335,68103.27,-3.33033,4.01747,2.90896,-1.44531,-0.17837,-0.91385,17.34,-22.02,4.8,58.891869,-2.951618,123.10228,0.425830719201594,0.25382838,0.42141008,0.75937665
1.1542,68103.291,-3.46202,4.31675,3.66073,-1.72875,0.01405,-0.95112,17.58,-21.42,4.32,57.027832,1.028923,119.202675,0.44091977487944073,0.23474194,0.4157213,0.76004064
1.1751,68103.311,-4.11084,4.51068,4.58729,-1.82465,0.08796,-0.8882,18.18,-20.94,3.6,54.624836,4.751314,115.760849,0.45589982660764644,0.21255825,0.40785995,0.76198727
1.1999,68103.331,-4.74531,4.5418,4.84586,-1.80144,0.05803,-0.71349,18.18,-20.7,2.7,52.1665,7.824932,113.117813,0.46876803114192456,0.190594,0.39980626,0.76425481
1.2214,68103.352,-5.65032,4.44843,5.27203,-1.82832,-0.09652,-0.34636,18.78,-20.28,1.68,49.696053,10.214393,111.216896,0.47965193060028044,0.16975477,0.39100897,0.7669611
1.2407,68103.372,-5.99987,5.2433,6.72531,-1.91934,-0.02627,0.16249,19.44,-20.04,1.08,47.116718,11.622034,110.349884,0.48756643872359084,0.15088823,0.37941414,0.77172315
1.2652,68103.392,-4.63757,7.02938,8.61913,-2.02013,0.45693,0.53206,19.56,-20.04,0.3,44.716969,12.195694,110.69783,0.4896163405132327,0.13424754,0.36701548,0.77945691
1.2818,68103.412,-4.01508,8.49463,8.9208,-2.25715,0.99021,0.67928,20.1,-20.28,-0.6,42.407513,12.754996,111.786598,0.48627376887552315,0.11580907,0.35568962,0.78969043
1.3027,68103.432,-3.84748,9.75158,10.05086,-2.50394,1.17592,0.85277,20.04,-20.76,-1.62,39.993359,13.433166,113.370338,0.4791615642252319,0.09468639,0.34417272,0.80186272
1.3267,68103.452,-2.36547,11.28866,13.18726,-2.34267,1.16553,0.98227,19.74,-20.94,-2.58,37.51548,13.712218,115.50489,0.469159092694648,0.07475431,0.33033448,0.81558609
1.3407,68103.473,-1.37906,12.06917,14.71476,-1.76174,1.22417,0.83444,19.74,-20.76,-3.12,35.307522,13.837305,117.732384,0.4578323589792406,0.05740402,0.31704175,0.82860053
1.3569,68103.493,-2.13563,11.65258,14.68364,-1.14293,1.04947,0.79657,19.26,-20.76,-3.54,33.638405,14.311842,119.578789,0.4467543561043451,0.04141632,0.30810529,0.83890784
1.379,68103.513,-2.76291,10.5273,15.65329,-0.32009,0.72693,1.02809,18.72,-20.7,-3.48,32.802147,14.629039,121.130882,0.4362873583968744,0.03126071,0.30393144,0.84634614
1.4001,68103.534,-2.31759,9.72764,15.83525,0.70188,0.61453,1.31886,18.72,-20.76,-3.84,32.995136,14.609632,122.723267,0.4241291908978526,0.02799973,0.30564162,0.85200566
1.4215,68103.554,-1.70228,8.88488,13.78821,1.48074,0.66706,1.45203,18.6,-21.18,-3.84,34.460335,14.488614,124.365257,0.4091187649012433,0.03060181,0.31609395,0.85543555
1.4405,68103.574,-1.26653,8.00621,11.25035,1.72997,0.78496,1.50273,18.3,-21.42,-3.6,36.605648,14.44055,125.853615,0.39353206638332733,0.03554391,0.33171991,0.85663939
1.4639,68103.595,-1.20668,6.99825,9.42597,1.66766,0.86621,1.51556,18.18,-21.84,-3.12,38.954632,14.459295,127.349037,0.3771580013981077,0.04035207,0.34909239,0.85688859
1.4821,68103.615,-1.22823,6.52181,8.88728,1.53083,1.00243,1.52777,17.7,-22.56,-2.28,41.166874,14.276859,129.109924,0.3596485189415531,0.0448306,0.36498943,0.85756975
1.5042,68103.636,-0.73981,5.66229,7.9703,1.40988,1.20402,1.50273,17.04,-22.98,-1.38,42.975807,14.061962,130.979431,0.3423215667862771,0.04718676,0.37804091,0.85887975
1.5225,68103.656,-0.31364,4.49392,7.27119,1.39644,1.1808,1.51617,16.02,-24.06,-0.24,44.639446,13.865831,133.055756,0.3237191091645375,0.04773535,0.39027861,0.86058694
1.5507,68103.677,0.60094,3.95283,6.8977,1.42759,1.29381,1.53266,15.3,-24.54,1.2,46.221725,13.399049,135.370163,0.3044785802645868,0.04875344,0.40137866,0.86244482
1.5649,68103.697,1.04866,3.26809,5.36541,1.29565,1.67072,1.48379,14.64,-24.9,2.7,47.626144,12.948315,137.772202,0.2849858057157881,0.04828338,0.41140565,0.86440569
1.5871,68103.717,0.77093,2.21942,3.36625,0.98044,1.69698,1.50273,13.62,-25.56,4.32,48.775333,12.655095,140.325027,0.2643836955550892,0.04484653,0.42010352,0.86695045
1.6005,68103.737,0.03831,1.63524,2.71981,0.47831,1.46913,1.69149,13.32,-25.56,5.7,49.476551,12.089269,143.192215,0.2433329782925951,0.04063552,0.42505783,0.87089819
1.6223,68103.757,-0.40941,1.30005,3.41653,0.01649,1.30847,2.01647,12.54,-26.16,6.36,49.643475,10.968161,146.511551,0.2218688570162172,0.03732711,0.42514706,0.87671596
1.643,68103.777,0.56982,1.52511,4.96318,-0.23763,1.27304,2.35305,11.52,-26.7,7.2,49.413509,9.226079,150.487167,0.19813697449579293,0.03546377,0.42148897,0.88421214
1.6618,68103.797,3.93607,2.78446,7.27598,-0.29688,1.80816,2.4178,10.44,-27.12,7.86,48.600189,6.42545,155.564285,0.17003595720016737,0.03703095,0.41237247,0.89424014
1.6877,68103.817,6.01423,3.58412,5.65032,-0.52351,2.68475,1.88391,9.54,-27.78,8.4,47.763351,4.078586,160.793747,0.13823781382316713,0.03541296,0.40435123,0.90340263
1.7013,68103.837,4.26647,4.1707,3.78763,-1.02381,2.73851,1.44042,8.52,-28.02,9.12,46.706371,3.171565,165.098923,0.10812392285659905,0.02618927,0.39619505,0.91140157
1.7246,68103.857,2.97839,4.2928,4.5849,-1.28404,2.3781,1.45142,6.96,-28.8,9.3,45.207829,2.73473,168.710587,0.0816506231847881,0.01587161,0.38455251,0.91934794
1.7451,68103.877,4.06775,4.8722,5.69581,-1.20035,1.8949,1.37384,5.76,-29.58,9.06,43.623909,1.968451,172.224884,0.05656768384358133,0.00927701,0.3717331,0.92656815
1.7697,68103.897,4.64954,5.98311,6.28717,-0.99754,1.52655,1.17408,4.38,-29.58,8.64,42.27589,0.980339,175.350662,0.0347480103447757,0.00665392,0.36062831,0.93203837
1.7835,68103.917,4.90572,6.69658,5.66468,-0.84422,1.04091,0.96395,3.42,-30.0,8.28,41.272915,-0.104764,178.054367,0.01620899504566051,0.00683917,0.35237172,0.93569475
1.8046,68103.937,5.02782,7.31668,6.46195,-0.81489,0.41905,0.73731,2.7,-30.0,8.28,40.458511,-1.448418,-179.713852,0.0020170208947384973,0.0109964,0.34577826,0.93824965
1.8252,68103.957,5.29837,7.65426,7.60638,-0.6579,0.1014,0.53634,1.68,-29.76,7.86,39.701607,-3.0677,-177.932251,0.00788262681362411,-0.01904803,-0.33984941,-0.94025391
1.859,68103.977,5.12599,7.46033,7.37414,-0.52657,-0.1857,0.22235,0.96,-30.18,7.62,39.140274,-4.683266,-176.589111,0.014340012651008172,-0.02852003,-0.33567828,-0.94143564
1.8686,68103.997,4.11084,7.34302,7.10599,-0.54062,-0.54795,0.11545,0.12,-30.3,7.2,38.715759,-6.220992,-175.762344,0.016852594227994903,-0.03892215,-0.33264571,-0.9420976
1.8835,68104.017,3.78044,7.87214,7.65187,-0.53817,-0.97433,0.24862,-0.18,-30.3,6.72,38.278847,-7.965282,-175.119247,0.017378326202550632,-0.05162869,-0.32957351,-0.94255704
1.9028,68104.037,5.21457,9.13627,8.72447,-0.35736,-1.44347,0.28833,0.0,-30.42,6.0,37.875767,-10.2231,-174.359543,0.017469187355964276,-0.0682656,-0.32700711,-0.9423911
1.9213,68104.057,6.49307,9.87608,9.05487,-0.14539,-1.76845,-0.09346,0.06,-30.0,5.34,37.711552,-12.900312,-173.711578,0.01532202279646931,-0.08853574,-0.32648888,-0.94092065
1.9445,68104.077,6.07648,9.90242,8.74123,-0.1295,-1.8778,-0.52779,0.18,-29.82,4.74,37.852047,-15.463763,-173.696503,0.0079608109954615,-0.10940103,-0.3279092,-0.93831956
1.9636,68104.097,5.3271,9.3733,8.97826,-0.19914,-2.02746,-0.71593,0.12,-29.4,4.38,38.07275,-17.689518,-174.290878,0.003555666753874411,0.12911837,0.32912832,0.93540919
1.9858,68104.117,5.49469,9.62708,10.22564,-0.00489,-2.19911,-0.8937,0.42,-29.04,4.38,38.287231,-19.809587,-175.197754,0.017369404432364545,0.14882229,0.32957351,0.93216497
2.0008,68104.137,5.35583,9.22965,10.56801,0.22235,-2.05006,-1.24067,0.96,-29.34,4.32,38.766155,-21.639458,-176.450821,0.03357806983230986,0.16689993,0.33130994,0.92803591
2.0209,68104.157,4.2928,8.32464,10.01495,0.2981,-1.69271,-1.45569,1.2,-29.46,3.9,39.597523,-22.925848,-178.085205,0.051896945531714936,0.18141341,0.33503935,0.92311674
2.0442,68104.177,3.59849,7.80749,9.06445,0.36285,-1.54549,-1.50029,1.62,-29.04,3.78,40.568451,-23.655659,-179.915634,0.07038162640253387,0.19201019,0.33945814,0.91812128
2.0655,68104.197,3.32555,7.35978,8.3821,0.55161,-1.77273,-1.54427,2.4,-28.62,3.54,41.657757,-24.264601,178.236984,0.0887811461333786,0.20175944,0.34457305,0.91251326
2.0899,68104.2169,2.91374,6.78996,7.70454,0.80084,-2.18445,-1.51922,3.24,-28.14,3.9,42.959705,-25.168438,176.446838,0.1078975532920368,0.21372429,0.35092014,0.90528178
2.1001,68104.2369,2.81079,6.21056,7.37175,1.14415,-2.75806,-1.48562,4.26,-27.9,4.56,44.473621,-26.660265,174.849319,0.12763456342946522,0.22974469,0.3582783,0.89585906
2.1198,68104.257,2.478,5.64553,7.02219,1.45997,-3.19238,-1.51189,5.34,-27.9,4.56,46.235229,-28.823153,173.440796,0.14851652912018357,0.25027984,0.36654741,0.8837114
2.1391,68104.277,2.41814,5.34146,6.56969,1.55343,-3.31639,-1.56443,5.82,-27.66,5.46,48.185989,-31.377947,172.168518,0.17014814903488074,0.27311984,0.37523493,0.86928356
2.159,68104.297,2.84431,5.25767,5.99987,1.36528,-2.97736,-1.79961,6.12,-27.78,5.52,50.20129,-33.858009,170.85498,0.19219472272059948,0.29520151,0.38351411,0.85371786
2.1789,68104.317,2.88501,5.02064,5.0805,0.87598,-2.37382,-2.17712,7.32,-27.18,5.76,52.118717,-35.383553,168.973129,0.21511426375036224,0.31195068,0.39035922,0.83906633
2.1996,68104.337,1.95367,4.6256,4.33829,0.20036,-1.65178,-2.4569,8.94,-26.7,5.76,53.749382,-35.12817,165.86351,0.24002104170494654,0.32016551,0.39456832,0.8271637
2.2224,68104.357,1.30723,4.19464,4.08451,-0.31887,-1.23334,-2.54731,10.2,-26.7,5.76,54.881081,-33.098518,161.504425,0.2662708927658919,0.32049575,0.39537182,0.81857401
2.2454,68104.377,1.29047,4.13,4.03423,-0.50702,-1.17592,-2.61267,11.94,-26.04,5.58,55.504822,-30.052044,156.422836,0.29279521757325844,0.3164759,0.39337078,0.8120181
2.2711,68104.398,0.51475,3.75171,3.64637,-0.4893,-1.44347,-2.65971,12.9,-25.92,5.1,55.891735,-26.691633,150.957718,0.32023612512525657,0.31172881,0.39028707,0.8049534
2.2875,68104.418,-0.51954,3.38301,3.45004,-0.42516,-1.91262,-2.60901,13.8,-25.62,4.92,56.234959,-23.307261,144.985748,0.3506394209105794,0.30875406,0.3865926,0.7951535
2.3039,68104.438,-1.26893,3.27048,3.26809,-0.56139,-2.19484,-2.52226,15.36,-24.12,3.78,56.529953,-20.500036,139.303955,0.3803808952683281,0.30898258,0.38241595,0.78332508
2.329,68104.458,-1.71664,3.44526,3.45962,-1.07207,-1.98837,-2.46057,16.8,-23.16,3.06,56.545734,-17.882292,133.56778,0.41061087024446485,0.31024712,0.37606812,0.77053112
2.3414,68104.478,-2.42054,3.15316,3.74453,-1.75196,-1.48624,-2.46057,18.12,-21.78,1.8,55.842979,-14.750923,127.62471,0.44065385082284,0.30672407,0.36666238,0.75980473
2.3625,68104.498,-4.85544,2.52109,4.29041,-2.45446,-1.10078,-2.2376,19.2,-20.58,0.48,54.081474,-10.440864,121.119881,0.47199005109326525,0.29310298,0.35444334,0.75212097
2.3829,68104.518,-6.69419,3.13401,6.88812,-2.77699,-0.97311,-1.62429,19.8,-20.28,-0.54,51.059425,-5.655612,114.790604,0.5035479538180446,0.26944792,0.33863035,0.74777454
2.4017,68104.538,-6.57687,4.13718,8.65504,-2.81792,-0.47892,-1.12399,20.04,-19.32,-1.74,47.480305,-2.272503,110.331535,0.5293191901542864,0.24481478,0.32001504,0.74664402
2.4284,68104.558,-7.54652,4.66151,8.39407,-3.07143,0.06903,-0.63286,20.28,-18.42,-3.0,43.768562,0.601391,107.320465,0.548287507010596,0.21694556,0.30312464,0.74861932
2.4467,68104.578,-9.12909,4.73573,9.82341,-3.24797,-0.08247,0.18082,20.7,-17.52,-4.32,39.745583,2.947847,105.642143,0.5611649290145876,0.18608205,0.28537098,0.7543413
2.4612,68104.598,-7.38372,5.75806,14.74349,-2.57968,-0.405,1.15942,20.82,-16.92,-5.58,35.74704,3.697801,105.763489,0.5661417324583385,0.16063102,0.26313576,0.76448727
2.481,68104.618,-4.2138,8.20732,17.14248,-1.51678,-0.16677,1.48379,20.46,-16.26,-6.72,32.959053,2.836544,107.510178,0.5611144244920858,0.14852513,0.24274372,0.7772814
2.5012,68104.638,-2.25773,9.79707,15.9382,-0.84177,0.51068,1.3549,20.4,-15.6,-7.32,31.517282,1.714471,109.716606,0.550581459933204,0.14453304,0.23034701,0.7892468
2.5215,68104.658,-2.10929,9.90481,14.32211,-0.68295,1.05435,1.16736,20.22,-15.78,-7.98,30.65546,1.539301,111.560944,0.5393766948209433,0.13793002,0.22584523,0.79940104
2.5462,68104.678,-2.15478,9.94551,13.34049,-0.5901,1.39949,1.09284,19.92,-15.9,-8.64,29.936958,2.08147,113.162781,0.5280603034273107,0.12758303,0.2252131,0.80879784
2.5613,68104.698,-1.7765,9.65582,12.69885,-0.51557,1.56809,1.00243,20.16,-16.26,-8.76,29.335432,3.016324,114.638771,0.5165683939055681,0.11524551,0.22680193,0.81757963
2.5858,68104.718,-1.95846,8.45393,12.21761,-0.31704,1.55771,1.0006,19.92,-16.98,-9.12,28.853416,4.194042,115.982048,0.5052637914750395,0.10191938,0.22990565,0.82550853
2.6025,68104.738,-2.02549,7.42681,12.66533,0.17287,1.1918,1.20768,19.44,-17.28,-8.4,28.704042,5.220387,117.369019,0.49336276797236805,0.09100928,0.23447865,0.83266455
2.6234,68104.758,-1.20668,6.98628,13.01967,0.99082,0.74648,1.4001,19.38,-17.28,-8.16,29.249928,5.685707,118.990952,0.47976561685767977,0.08666081,0.24163564,0.83900362
2.6466,68104.778,0.14605,6.8115,12.19606,1.66644,0.68539,1.37689,19.02,-17.58,-7.74,30.750151,5.650371,120.692978,0.46511017400360777,0.08971728,0.25364557,0.84337848
2.6644,68104.798,0.44053,6.47632,10.1993,1.78495,0.8039,1.13865,18.66,-18.18,-6.6,32.850719,5.636845,122.225624,0.4506370369195935,0.09513958,0.27006713,0.84554034
2.6815,68104.818,-0.56024,5.66468,8.95671,1.54977,1.02137,1.02137,18.66,-18.84,-6.36,34.894276,5.892179,123.478958,0.43752822747840103,0.09858694,0.28695425,0.84646732
2.7041,68104.838,-1.15161,4.52504,8.62152,1.39522,1.17714,1.14415,18.48,-19.74,-5.34,36.558586,6.350453,124.675766,0.42476558315778945,0.09880695,0.30179039,0.84778178
2.7225,68104.858,-1.17795,3.64876,8.0517,1.4618,1.22906,1.37139,18.54,-20.46,-4.62,37.987202,6.78059,126.156898,0.410208617094423,0.09724421,0.31500119,0.85032153
2.7464,68104.878,-0.65841,3.18189,6.7325,1.48562,1.23456,1.54732,18.84,-21.24,-3.84,39.410172,6.997649,127.962868,0.39371274376116655,0.09600054,0.32764459,0.85347712
2.7647,68104.899,-0.09098,2.97839,5.27682,1.16614,1.2987,1.6475,18.42,-21.72,-2.76,40.844269,6.978628,130.1689,0.37481090694228403,0.09499859,0.33990067,0.85729784
2.7831,68104.919,-0.27533,2.88022,5.01346,0.62308,1.3549,1.72447,18.24,-22.14,-1.44,41.734428,6.819,132.507965,0.3562138394016055,0.09231682,0.34784743,0.8623175
2.8024,68104.939,-0.3735,2.48279,5.69102,0.21991,1.36956,1.91262,17.58,-22.86,-0.48,41.953255,6.527515,135.119141,0.3370085204071575,0.08729608,0.3506346,0.86940211
2.8232,68104.959,-0.50278,1.49398,6.359,0.18204,1.23639,2.17102,16.92,-23.7,0.96,41.689621,5.97648,138.098618,0.3163828881304004,0.08156401,0.34928128,0.87820941
2.8486,68104.979,0.3735,1.21625,7.72609,0.44532,0.95295,2.51982,16.68,-24.72,1.5,41.304447,4.881569,141.577179,0.29344603969470623,0.07831968,0.34586412,0.88776881
2.8667,68105.0,2.30083,1.54905,8.65983,0.86987,1.2254,2.69941,15.42,-25.32,2.04,41.206573,2.986318,145.849548,0.2659876497334816,0.07997513,0.34343141,0.89716744
2.8885,68105.02,3.70862,1.73819,7.28795,0.96211,1.80999,2.5919,14.46,-26.04,3.12,41.35981,1.197356,150.278931,0.23636285241128702,0.08111707,0.34382346,0.90517294
2.9152,68105.041,4.48434,2.37744,4.9943,0.54306,2.39215,2.44041,12.84,-26.4,3.54,41.534813,-0.187702,154.975479,0.2031389238292442,0.07831329,0.3458215,0.91269332
2.9332,68105.061,4.19225,2.25055,2.95684,-0.23335,2.59557,2.28891,11.16,-26.58,4.74,41.176563,-1.134445,159.430237,0.17055642600658402,0.07190003,0.34432834,0.92042321
2.9588,68105.081,3.42371,2.32716,2.40378,-1.01343,2.38848,2.33839,10.02,-27.06,5.58,40.065014,-1.959684,163.806473,0.1381032391425909,0.06414582,0.33682606,0.92917222
2.9772,68105.102,4.27365,3.61764,4.51546,-1.43859,1.72081,2.39765,8.64,-27.24,5.94,38.30867,-3.101508,168.113434,0.10660708717640194,0.05938857,0.32358366,0.93829715
2.9998,68105.122,6.09085,4.9129,6.74925,-1.40804,1.43798,2.20339,6.96,-27.42,6.0,36.197174,-4.740027,172.349365,0.07617679178911803,0.05992661,0.30707338,0.94673747
3.0088,68105.142,6.4428,4.94163,7.2688,-1.23089,1.17408,1.94988,5.58,-28.08,5.64,34.300087,-6.256765,175.884979,0.05033641355291297,0.06268428,0.29237354,0.95291901
3.0276,68105.162,6.16986,5.40371,7.4723,-1.08856,0.80146,1.90346,4.02,-28.38,5.46,32.648911,-7.726524,178.971008,0.02753406882214377,0.06717493,0.27984574,0.95729607
3.0459,68105.182,7.07008,6.30633,7.73088,-0.94318,0.33781,1.82099,2.7,-28.62,5.04,31.198027,-9.480109,-178.109085,0.0063651862066540065,0.0751588,0.26926035,0.96010911
3.0652,68105.202,7.98466,7.03177,6.62715,-0.99815,-0.09652,1.37323,1.74,-28.92,4.86,29.991592,-11.556252,-175.507507,0.011632216670791624,-0.08708322,-0.26104727,-0.96131968
3.0843,68105.222,7.24007,7.20655,6.62954,-1.21012,-0.60537,1.06901,0.54,-28.74,3.96,28.811043,-13.689496,-173.66188,0.02355501540795581,-0.10160053,-0.2530137,-0.9618246
3.1065,68105.242,8.21211,8.40125,8.73884,-1.19241,-1.09711,0.88087,-0.36,-28.92,3.3,27.509401,-16.055569,-172.341476,0.031101439468587948,-0.11962232,-0.24396905,-0.96187437
3.1281,68105.262,9.79228,9.41879,10.44351,-0.90469,-1.26388,0.24984,-0.78,-28.92,2.46,26.37641,-18.588366,-171.464783,0.0347540700722124,-0.14005315,-0.23623234,-0.96092224
3.1502,68105.282,9.25119,9.48104,10.55604,-0.64324,-1.20524,-0.45143,-1.26,-28.86,1.8,25.569132,-20.174946,-171.688782,0.030918637357773834,-0.15457252,-0.22967005,-0.96041816
3.1648,68105.302,7.98945,9.03572,10.10353,-0.53206,-1.24678,-0.956,-1.2,-28.5,1.8,25.14517,-21.14382,-172.75032,0.02080326031792182,-0.1651832,-0.2248746,-0.96005893
3.185,68105.322,7.37654,8.8777,10.78827,-0.27,-1.4056,-1.37017,-1.62,-28.44,1.26,25.075228,-22.015701,-174.278,0.00642795761721457,-0.17552209,-0.22212414,-0.95906806
3.2092,68105.342,6.61518,8.52815,10.21366,0.00122,-1.50456,-1.76112,-1.74,-28.5,1.08,25.513517,-22.879341,-176.109192,0.011315049708117414,0.1859818,0.22286782,0.95687652
3.23,68105.362,5.98072,8.31985,9.69412,0.06842,-1.61452,-2.1985,-1.14,-28.44,0.66,26.385498,-23.688457,-178.26535,0.032412913908065825,0.19643047,0.22636785,0.95347893
3.2448,68105.382,5.20021,8.00142,9.47386,0.04459,-1.70615,-2.71407,-0.84,-28.62,0.48,27.6537,-24.477888,179.121582,0.057935261966809745,0.20763047,0.23197201,0.94853681
3.2662,68105.402,4.41251,7.24007,9.61272,0.13195,-1.86436,-3.12641,0.36,-28.56,0.3,29.230118,-25.059652,175.981049,0.0878284099361181,0.21843582,0.2388016,0.94209647
3.2859,68105.422,3.62722,6.53856,9.2919,0.29688,-1.96027,-3.56745,1.14,-28.44,0.06,31.084709,-25.468546,172.326126,0.12181574791271846,0.22938257,0.24656285,0.93367624
3.3117,68105.442,3.87382,5.4923,8.339,0.14783,-1.77212,-4.01705,2.94,-28.44,0.24,33.194229,-25.436157,168.136551,0.15915589191452906,0.23864679,0.25533655,0.92332029
3.3332,68105.463,2.24097,4.00311,7.2664,-0.43127,-1.38727,-4.34814,4.68,-28.02,-0.06,35.277672,-24.417473,162.821655,0.20246920588654232,0.24350272,0.26274276,0.91141587
3.35,68105.483,-0.83797,2.71742,6.8139,-1.0849,-0.76419,-4.07447,6.66,-28.08,0.06,36.515755,-22.28933,156.990341,0.24517663250935623,0.24117641,0.26459998,0.90094906
3.3662,68105.503,-0.90022,1.16358,5.18105,-1.87475,-0.17654,-3.30906,9.24,-27.3,-0.24,36.453175,-19.264542,151.131165,0.28410957087494876,0.23077901,0.25901568,0.8938309
3.3893,68105.524,-1.39343,0.61531,4.7477,-2.62672,0.91813,-2.72751,11.04,-26.58,-0.96,34.945019,-15.810937,145.924683,0.3163086862687037,0.21257214,0.24590313,0.89123148
3.42,68105.544,-3.0981,0.33998,6.09085,-3.04761,1.78434,-2.16552,13.02,-25.98,-1.98,32.019985,-11.273349,141.145447,0.3437105586183128,0.18032698,0.22744238,0.89309305
3.4344,68105.564,-2.94008,2.19309,8.83221,-2.89978,2.53265,-1.6921,14.34,-24.24,-3.0,28.549395,-6.734866,137.675064,0.3627698670999058,0.14194821,0.20899457,0.89697826
3.449,68105.584,-2.56898,2.28886,8.23127,-2.25837,2.97308,-1.61513,15.3,-23.34,-3.96,25.211895,-1.96732,135.131317,0.37583322614810577,0.09876067,0.19530402,0.90047324
3.4679,68105.604,-1.61369,2.75094,10.46027,-1.12766,2.73973,-1.76296,16.62,-22.32,-4.44,22.609777,2.561887,133.095062,0.38614854416320377,0.05788785,0.18851526,0.90111059
3.4883,68105.624,-0.73263,3.4692,12.44506,0.47586,2.85824,-2.23088,17.7,-21.36,-4.32,21.420172,6.554075,130.940109,0.397605027036967,0.02593,0.19210932,0.89684552
3.5079,68105.6438,0.51236,2.46603,9.52653,1.8949,3.14596,-2.95414,18.66,-20.82,-4.5,21.745985,10.825094,128.017059,0.4124576064077864,-0.00096674,0.20939334,0.88658458
3.5288,68105.664,-2.10211,1.06063,5.65032,2.82098,2.86251,-3.51431,19.86,-19.86,-3.3,22.970404,15.711868,123.839149,0.4329439313651336,-0.02533289,0.23707752,0.869317
3.5585,68105.684,-4.37421,-1.64482,3.77326,3.22109,1.44164,-3.46544,20.46,-18.72,-1.86,24.256416,20.648108,118.628746,0.4584779081242579,-0.04519778,0.26717362,0.84638846
3.5693,68105.704,-5.52582,1.2378,2.37265,3.38542,0.64996,-2.66154,20.82,-17.22,-0.24,25.617453,24.529976,113.273643,0.48468477877036503,-0.05387127,0.29485473,0.82172942
3.6029,68105.724,-8.03973,4.33351,-3.73495,2.85824,-1.9285,-2.35122,21.72,-15.42,1.86,27.644825,27.964869,108.164841,0.5060033538624156,-0.05401675,0.32539088,0.7969715
3.6169,68105.744,-5.2457,3.69186,-5.30076,-0.26206,-5.80505,-3.11602,22.38,-14.04,3.12,28.691278,27.288252,103.544037,0.5366661787770528,-0.03053498,0.33056056,0.77574915
3.6303,68105.764,-5.80594,3.57933,8.5904,-2.71163,-4.02316,-2.38787,23.28,-12.6,3.12,26.620939,23.436529,100.027618,0.5764806084059013,-0.00657287,0.29973003,0.76012421
3.6469,68105.784,-0.96965,1.76453,11.80102,-3.51186,-0.17226,-1.77212,23.88,-11.4,2.1,22.531303,21.095591,98.721878,0.6008127036948889,-0.01114592,0.26266372,0.75492227
3.6714,68105.804,-6.60081,0.62249,13.65413,-3.13374,1.10933,-1.80938,24.3,-10.38,0.42,17.822615,21.729654,98.149033,0.613507650395046,-0.04104282,0.23692931,0.75218904
3.6909,68105.825,-10.40759,-2.66235,10.33577,-1.95416,1.21012,-0.97494,24.24,-8.94,-1.56,13.505772,23.873333,97.717209,0.620911964656223,-0.07899073,0.22177258,0.7476936
3.7108,68105.845,-8.43956,-0.06464,9.34936,-0.85399,0.13073,-0.71899,23.88,-7.8,-2.46,11.015333,25.598055,97.657303,0.6229872912276129,-0.10437275,0.21561658,0.74464935
3.7322,68105.866,-5.77242,2.06859,13.5033,0.33292,-1.54366,-0.94928,24.06,-7.02,-2.82,9.755782,25.615393,97.182625,0.6284954462162806,-0.11081654,0.20828195,0.74116921
3.7493,68105.886,-9.38766,-0.68714,14.41309,1.6475,-1.44164,-0.63958,23.94,-6.06,-2.82,9.690847,24.371609,95.881287,0.6392282524046106,-0.10084839,0.20219912,0.73507303
3.7689,68105.906,-13.19205,-1.52032,11.90397,1.90895,-0.71044,0.77763,24.06,-5.4,-2.94,11.276396,23.229052,94.709694,0.6458249702528304,-0.082177,0.20651653,0.7304163
3.7907,68105.926,-12.95981,1.18752,8.77475,1.41232,-0.8998,1.94255,24.0,-5.34,-3.3,13.681137,22.443693,95.143898,0.6399449465502054,-0.06380192,0.21659561,0.73449719
3.8162,68105.946,-12.11466,1.05584,9.69891,1.03603,-1.53022,2.30052,23.58,-5.28,-3.54,15.891952,20.815712,96.802567,0.6280410869325076,-0.04352998,0.22046262,0.74502736
3.8324,68105.967,-10.21845,2.24816,11.19529,1.11605,-2.02685,2.89733,23.7,-5.52,-3.84,18.073723,18.101456,99.296463,0.6126504524116281,-0.01796128,0.21879987,0.75925189
3.8517,68105.987,-4.51786,3.72059,15.30853,1.44286,-1.9566,2.9517,23.34,-6.72,-4.2,20.308599,14.564001,102.205284,0.5957146823246372,0.01270733,0.21444739,0.77393466
3.8831,68106.007,-4.77404,1.97043,16.1872,1.54793,-1.51983,3.32616,22.86,-7.62,-5.04,22.721788,11.363797,105.359016,0.5759632921199992,0.04164992,0.2147347,0.78766781
3.893,68106.027,-5.62398,-0.48363,15.28698,2.30724,-0.81856,4.17526,22.26,-9.3,-5.94,25.321846,8.151098,109.204857,0.5510344841602168,0.07011308,0.21838102,0.80234337
3.9174,68106.047,-4.17549,-2.44209,10.33577,3.32372,-0.49419,5.21007,21.78,-11.4,-7.08,28.318386,5.462256,114.132927,0.5167676475324652,0.09406175,0.23019235,0.81921613
3.9351,68106.067,4.43406,0.29928,6.59603,3.9523,-0.21258,5.68349,21.24,-13.44,-7.26,31.500589,2.276083,120.486549,0.4729089330798375,0.11810181,0.24509364,0.83805621
3.9513,68106.087,7.11557,3.29682,2.79643,4.22902,-0.66401,4.99566,20.64,-16.32,-6.6,34.977242,-2.090792,127.838272,0.42417228831372134,0.14772615,0.26222092,0.85410482
3.9754,68106.107,3.03345,2.61447,1.51314,3.63709,0.06109,4.88204,19.5,-18.84,-5.46,38.159725,-7.220073,135.09816,0.3792184830878335,0.17958345,0.27878565,0.86384124
3.9948,68106.127,2.27449,4.05817,-1.39343,2.28708,-0.75503,4.52895,17.58,-21.12,-3.24,40.933758,-12.322665,143.01738,0.3310149968554629,0.20562157,0.29780617,0.87147021
4.0153,68106.147,2.40617,1.1157,3.31836,1.44897,0.89614,4.26201,15.78,-22.98,-1.8,41.878296,-17.652687,150.181213,0.29044366848116127,0.22934337,0.30438346,0.87772137
4.038,68106.167,-2.34392,-2.00874,3.91931,0.86743,2.1704,5.00787,13.38,-24.12,-0.06,41.641354,-20.927433,156.972076,0.2467234555220621,0.23610613,0.30861551,0.88777131
4.0536,68106.187,-0.16759,-3.52666,1.34315,0.42516,2.33289,6.41836,11.46,-25.2,1.68,40.186508,-23.530186,164.710587,0.19173487505085088,0.23452942,0.30786866,0.90191495
4.0695,68106.207,5.44202,-1.98719,-1.04387,-0.45693,1.45447,6.7464,9.06,-26.28,2.58,37.23019,-26.606941,173.511871,0.12552481602226964,0.2353,0.29780477,0.91661865
4.1125,68106.228,4.81235,-3.94564,1.85551,-0.82528,-0.00367,6.78916,5.88,-26.7,3.48,32.995514,-29.875401,-178.777878,0.06331560886490613,0.2442162,0.2770015,0.92715681
4.1139,68106.248,6.07409,-5.95438,3.90015,-0.47342,-1.17653,7.35787,2.1,-27.12,3.84,27.116753,-34.274891,-171.2285,0.002132155154341768,-0.26848269,-0.24527653,-0.93153203
4.1302,68106.268,11.21444,-3.80918,4.84108,0.20281,-2.08672,7.22348,-1.74,-26.7,3.78,19.937452,-39.865791,-163.793427,0.07208443308004035,-0.30948025,-0.20844495,-0.92497379
4.15,68106.288,13.64695,-2.48518,5.80354,0.46059,-1.9285,6.43424,-5.16,-26.1,3.66,13.47126,-44.988926,-157.246262,0.13700259035693238,-0.35111153,-0.18118556,-0.90836269
4.1729,68106.308,13.7499,-2.14281,6.83305,1.03358,-1.87536,5.92478,-8.64,-25.5,4.2,7.756739,-48.77409,-151.864975,0.19378037263329573,-0.38462469,-0.15988757,-0.888228
4.1947,68106.328,15.57189,-0.46926,4.16591,0.71716,-0.21075,4.86737,-11.16,-24.3,4.5,3.068962,-51.909409,-146.693039,0.24635752570844346,-0.41225243,-0.14844868,-0.86447608
4.2109,68106.348,11.78426,-2.22182,3.66313,-0.01405,1.4618,4.59737,-13.98,-22.56,4.68,-1.193549,-52.451645,-143.017761,0.28885887174631103,-0.4220362,-0.1312867,-0.84924072
4.2408,68106.368,10.9846,-2.94008,5.38935,-0.87048,3.01584,4.86799,-16.56,-20.34,5.1,-5.766623,-50.784473,-140.098389,0.32813503533248356,-0.41807324,-0.103416,-0.84074211
4.2523,68106.388,11.83454,-1.01035,5.7796,-0.9615,1.92178,4.11662,-18.36,-18.06,4.8,-10.558797,-47.829655,-137.558975,0.3642511108089129,-0.40673363,-0.06769775,-0.83504844
4.2735,68106.408,8.56645,-3.66552,6.98389,0.20342,-0.18265,3.59128,-19.86,-16.02,3.96,-14.332343,-46.340355,-135.24144,0.3926783641787311,-0.40465206,-0.04258781,-0.82477069
4.2917,68106.428,7.49625,-5.26006,3.56018,0.68417,-1.24372,4.08058,-20.76,-14.22,3.06,-17.045509,-46.644093,-132.078247,0.42242946230660217,-0.41305554,-0.03463903,-0.80606365
4.3136,68106.448,10.86489,-3.95283,3.69665,-0.04093,-0.89797,4.06103,-21.84,-12.66,2.58,-20.034367,-47.528568,-128.466003,0.454913681619908,-0.42657855,-0.02914156,-0.78117543
4.3318,68106.468,9.91199,-4.06296,6.40928,-0.16738,-0.72876,3.6884,-22.44,-10.98,2.28,-23.30426,-47.931183,-125.622887,0.481897338071585,-0.43818939,-0.01760563,-0.75858754
4.3538,68106.488,8.1355,-6.39731,6.16028,0.15638,-0.22663,3.41413,-22.86,-9.0,2.7,-26.223072,-47.987022,-123.010551,0.5055610638781086,-0.44692981,-0.00679798,-0.73798072
4.3773,68106.509,8.47547,-5.63834,4.30717,-0.13073,0.10812,3.46177,-23.7,-7.14,3.9,-28.869673,-47.245312,-120.330765,0.5280709864345223,-0.45025364,0.0050606,-0.71999103
4.3974,68106.529,10.96784,-4.27604,3.59849,-0.3207,-0.15699,2.9572,-24.24,-5.16,3.96,-31.675747,-46.404953,-117.740952,0.5491631511723127,-0.45412496,0.01877477,-0.70131153
4.4132,68106.549,6.62715,-7.86495,2.42533,-0.27978,-0.80879,2.45446,-24.72,-3.72,4.38,-34.087288,-46.292721,-115.947876,0.5638797486351198,-0.46154162,0.02919147,-0.68422717
4.4355,68106.57,2.82755,-12.13381,0.81163,-0.31826,-1.372,3.08731,-25.14,-2.28,4.44,-36.942719,-46.475349,-114.136978,0.5787180217201731,-0.47235844,0.04091034,-0.66354299
4.4578,68106.591,2.4373,-13.83609,1.33118,-0.00428,-2.34022,4.33775,-24.84,-0.36,4.56,-40.739517,-46.918453,-111.248314,0.5999276775317431,-0.4883092,0.05282333,-0.6315462
4.4768,68106.611,9.10754,-11.17374,1.26893,-0.28955,-3.13801,4.92724,-24.78,1.2,5.16,-45.013863,-47.394592,-107.033226,0.6266830329270019,-0.50694495,0.06106026,-0.58868229
4.4968,68106.631,13.56555,-8.44435,3.12443,-0.73976,-2.93521,4.23696,-24.54,3.18,5.94,-49.388836,-48.454777,-103.05957,0.6496586114478167,-0.52891344,0.06634194,-0.54202676
4.5192,68106.651,10.26394,-9.32781,2.59053,-0.57849,-2.54548,3.54241,-23.76,5.34,6.66,-53.180359,-49.851124,-100.253624,0.6646592103264176,-0.5494585,0.06992023,-0.5014326
4.5381,68106.672,6.5673,-11.21205,-1.04627,-0.72815,-2.31335,3.52103,-23.16,6.78,7.56,-56.66716,-51.066151,-97.680191,0.6767520893231245,-0.5674966,0.07271793,-0.46332097
4.5585,68106.692,6.11,-12.78025,0.00479,-1.52838,-1.91995,3.78003,-21.72,8.64,9.24,-60.383434,-52.134693,-95.658607,0.6850292610843443,-0.58477283,0.07981829,-0.42708862
4.5782,68106.712,7.5968,-10.75475,2.75094,-1.64628,-2.20278,3.65358,-20.46,10.02,10.38,-64.580452,-53.485203,-94.575592,0.6887097582102605,-0.60310525,0.09250716,-0.39164442
4.5952,68106.732,7.65905,-10.36211,1.39343,-1.07573,-3.10992,3.26385,-19.14,10.92,11.88,-68.428993,-55.42979,-93.656784,0.6915879812420835,-0.62105715,0.09990823,-0.35498229
4.6182,68106.753,6.08127,-11.00615,-2.33674,-0.85949,-4.00911,3.12641,-17.4,11.7,12.9,-71.603416,-58.179817,-92.425545,0.6957527955986892,-0.63839734,0.09617663,-0.31484431
4.6396,68106.773,4.18028,-12.94305,-3.68946,-1.16553,-4.13006,3.2944,-15.54,12.54,13.62,-74.979233,-62.288063,-91.544014,0.6992397117061524,-0.65739447,0.08701839,-0.26706579
4.6622,68106.793,3.14119,-13.46978,-2.19309,-1.96149,-3.23881,3.75255,-13.44,13.32,14.28,-78.727203,-68.381165,-93.176727,0.69840718468477,-0.67614973,0.08252878,-0.21963139
4.6789,68106.814,3.89058,-12.22479,-2.79643,-2.48072,-2.71652,3.74155,-11.52,14.16,15.24,-83.217453,-83.943962,-105.298576,0.6902772088621193,-0.69701737,0.08908886,-0.17247416
4.6973,68106.834,2.62883,-12.2631,-4.81953,-2.46606,-3.50942,3.65664,-9.66,14.76,16.38,-85.837265,-130.907578,-149.285416,0.6778713741905453,-0.71727276,0.09636925,-0.12931804
4.7205,68106.854,1.16598,-13.80257,-5.52342,-2.5864,-4.55339,3.8735,-8.16,14.76,17.16,-83.964348,173.115295,158.728104,0.6644589610828789,-0.73667705,0.09747831,-0.07936745
4.7372,68106.874,4.82432,-13.40274,-3.96001,-2.70369,-5.4086,4.003,-6.18,14.28,18.78,-79.69017,150.266846,140.90715,0.6494851300725927,-0.75431275,0.09336405,-0.02155215
4.7612,68106.894,6.11,-12.46421,-2.04465,-2.56014,-5.26444,3.60472,-3.18,13.62,19.62,-75.208588,139.526001,135.96817,0.633514741927026,-0.76825774,0.08297022,0.03943424
4.7789,68106.914,3.28724,-12.71321,-2.87783,-2.85579,-4.18504,3.16245,0.18,12.96,20.52,-71.206413,134.118607,135.881958,0.6158997242297156,-0.77917165,0.07090047,0.09236987
4.7987,68106.934,0.68474,-13.44344,-3.05261,-3.38908,-3.48682,3.08182,3.96,11.7,21.36,-67.241592,131.910477,137.995544,0.593660143005933,-0.79079974,0.06193806,0.13552521
4.8179,68106.954,-0.71347,-12.56477,-2.5594,-3.35915,-3.22109,3.08609,7.32,10.74,21.42,-63.069298,130.901291,140.723175,0.5670771449276505,-0.80321205,0.05589725,0.17363586
4.8436,68106.974,-0.0814,-10.4866,-3.47399,-3.03111,-3.43428,2.93948,10.02,8.82,21.66,-59.055779,129.578354,143.059845,0.540350704995473,-0.8131907,0.05028857,0.21026902
4.8646,68106.994,0.5363,-9.26795,-4.39815,-2.94132,-3.79164,2.5186,12.0,7.26,21.48,-55.538998,127.796104,145.320297,0.5154092505779727,-0.81957138,0.04114531,0.24690711
4.88,68107.014,-0.59855,-9.50498,-4.56814,-3.27485,-3.50453,2.13131,13.86,5.04,21.06,-52.455536,126.207909,148.143143,0.490368528622407,-0.82415962,0.02730572,0.28205323
4.9048,68107.034,-1.18992,-9.51456,-5.64074,-3.75071,-2.70369,1.87169,16.02,2.76,20.82,-49.419243,125.759171,151.850693,0.46159795055171876,-0.83062387,0.01179066,0.31121102
4.9202,68107.054,-0.75657,-9.22486,-5.43963,-4.48436,-2.40864,1.54854,17.94,0.72,20.16,-46.255032,126.529327,156.339966,0.4281529783824392,-0.84009898,-0.00456869,0.3330133
4.9402,68107.075,-1.60651,-8.97826,-3.73974,-5.00971,-2.20522,1.14232,19.68,-2.1,19.26,-42.725704,127.981285,161.880066,0.3876039450449532,-0.85168523,-0.02595069,0.3517414
4.9618,68107.095,-1.22583,-8.07564,-3.4668,-5.0598,-2.08549,0.58215,20.94,-4.44,18.0,-39.505276,129.636108,167.576996,0.34737404125257076,-0.8622725,-0.05080147,0.36501592
4.9856,68107.115,-1.29526,-7.90087,-4.39097,-5.03903,-2.95353,-0.08125,21.66,-6.84,16.26,-36.73745,131.011444,173.372818,0.30903398110655345,-0.86974442,-0.08051664,0.37624422
5.0023,68107.135,-3.33512,-10.30704,-3.25372,-5.06468,-3.17955,-0.15455,21.9,-8.64,14.58,-34.445637,131.179718,179.275162,0.27211241995277874,-0.87053585,-0.11685915,0.39302176
5.0186,68107.155,-2.60729,-10.84813,-2.20745,-5.29803,-3.18139,-0.25595,22.5,-10.5,12.36,-32.281391,130.790588,-174.955368,0.2349092052966171,-0.86742306,-0.15406884,0.41067955
5.0435,68107.175,-4.33829,-10.04846,-0.97444,-5.56071,-2.05556,-0.21625,23.04,-11.82,10.2,-30.117586,130.375626,-169.071075,0.19616468083706182,-0.86215204,-0.19200195,0.42585036
5.0607,68107.195,-6.9384,-10.49857,-1.99437,-5.74885,-1.14965,0.13622,23.7,-12.9,7.92,-27.639023,130.867584,-163.331436,0.15643142380259492,-0.85943359,-0.22626945,0.43093532
5.077,68107.215,-7.90565,-10.75475,-0.31603,-5.62057,-1.54121,0.69822,24.18,-13.92,5.46,-24.662285,131.31926,-158.126968,0.1146538156300897,-0.8572281,-0.25529167,0.43225068
5.0979,68107.236,-8.2983,-6.96234,2.33195,-4.82828,-1.90834,1.15698,24.18,-14.16,3.3,-21.220537,130.233704,-153.705734,0.06858785151662061,-0.85066444,-0.27825403,0.44072714
5.1184,68107.256,-6.13873,-4.1707,1.54905,-3.89976,-1.66522,1.15392,24.42,-14.76,0.78,-18.372202,128.270859,-150.517166,0.029337957145904835,-0.84132749,-0.29338169,0.45302817
5.1398,68107.276,-6.37336,-2.81798,-0.73981,-3.1991,-1.92178,0.92852,24.24,-15.06,-2.22,-16.139477,126.096039,-147.954651,0.003576434158006583,0.83071315,0.30475622,-0.46586105
5.171,68107.296,-9.89284,-5.91847,-2.54025,-3.03111,-2.84052,1.15209,24.06,-15.48,-4.62,-14.402301,123.400955,-145.626923,0.03353442663208728,0.81697112,0.31488955,-0.48195249
5.1848,68107.316,-11.03966,-6.5649,-0.72305,-2.8729,-2.71224,1.94866,24.06,-16.44,-7.44,-12.411148,119.771515,-143.514175,0.06733685857875735,0.79975682,0.32071528,-0.50298756
5.2027,68107.336,-9.0429,-4.11084,-0.63686,-2.90466,-1.67866,2.26264,23.04,-16.44,-9.66,-9.863802,116.535881,-141.759964,0.10254859900154624,0.78581196,0.32027587,-0.51904404
5.2224,68107.356,-7.1419,-1.0343,-0.84276,-3.13679,-0.7086,1.98165,22.26,-16.44,-11.52,-6.970671,114.415634,-139.748108,0.13802443841356268,0.77652085,0.31963134,-0.52516705
5.2426,68107.376,-9.01417,-1.51314,-1.61369,-3.09953,-0.88698,1.37567,20.76,-15.6,-13.5,-4.424915,113.283409,-137.214081,0.1704001337207849,0.76937741,0.32420528,-0.52336711
5.2585,68107.396,-11.16656,-1.73101,-0.24181,-2.9236,-1.15026,1.34513,19.5,-15.12,-15.06,-2.334747,111.634094,-134.455688,0.2018839872740994,0.75817609,0.33068848,-0.52445877
5.2787,68107.416,-11.91115,-2.20267,0.91698,-2.99935,-0.53084,1.61146,18.6,-15.0,-16.38,-0.324224,109.759308,-131.765747,0.23295453198554397,0.7458806,0.33569959,-0.52602291
5.3034,68107.436,-11.87045,-1.77889,-1.00317,-3.3677,0.4948,2.53387,17.28,-13.92,-17.88,2.118172,108.80957,-128.955765,0.26430437632696474,0.73831147,0.34058473,-0.51869202
5.3201,68107.4559,-9.35893,-0.27054,-3.68707,-3.30845,-1.55343,2.95659,16.74,-13.2,-18.9,5.569439,108.476807,-126.092377,0.2997264148362437,0.73532462,0.3420673,-0.50244576
5.3398,68107.476,-8.01818,-0.35674,0.87867,-3.14718,-4.11357,2.79104,15.84,-12.12,-19.92,9.19822,104.891869,-123.245758,0.3446800660425188,0.71849895,0.332573,-0.50433135
5.3607,68107.496,-7.85777,1.02951,5.31034,-2.75989,-2.20645,2.49844,14.16,-10.08,-21.36,12.243911,99.183945,-120.08699,0.3921970625206985,0.69047904,0.31815994,-0.5178749
5.3823,68107.516,-5.96156,3.73017,3.61285,-2.08977,0.0617,2.58946,12.42,-9.0,-22.32,15.052212,95.994286,-117.080399,0.4292541734407746,0.67416078,0.30972633,-0.51508999
5.4026,68107.536,-3.9648,4.18267,0.85473,-1.70615,-0.2364,1.95966,10.32,-7.98,-23.58,17.868654,94.856308,-114.67807,0.4569475662792119,0.66916174,0.30415341,-0.50091136
5.4292,68107.557,-6.08845,4.77643,2.41336,-1.80816,-1.09772,1.36101,8.52,-7.14,-24.48,20.067709,92.930275,-112.386383,0.4823327860849282,0.65993762,0.29747409,-0.49330172
5.4514,68107.578,-8.21929,4.02465,3.08373,-1.86619,-0.48381,1.03053,7.5,-6.3,-25.32,21.724596,90.175285,-109.555351,0.5089282099894777,0.64490366,0.29243848,-0.48945999
5.4636,68107.598,-8.47308,3.52426,2.27928,-1.74891,-0.4777,0.93462,7.2,-5.64,-26.22,22.806572,88.180649,-106.866127,0.5299439239776834,0.63240343,0.2922889,-0.48352098
5.4876,68107.618,-8.84179,4.75488,2.09253,-1.54732,-0.53329,1.04886,6.6,-4.5,-26.64,23.790005,86.260872,-104.343315,0.5492756328456982,0.62065154,0.29147106,-0.47763225
5.507,68107.638,-10.39562,4.86023,1.84354,-1.42942,0.16554,1.44164,6.18,-3.78,-27.24,24.906927,84.677193,-102.068077,0.5668283663616003,0.61158741,0.28964007,-0.46986708
5.5225,68107.658,-10.39562,3.60567,0.59616,-1.71897,0.99632,1.99814,5.58,-3.54,-27.48,26.420429,84.100883,-99.801796,0.5827142375214673,0.60808253,0.29019725,-0.45438454
5.5424,68107.678,-7.95833,4.69742,-0.23463,-2.41536,1.29198,2.33167,5.1,-2.88,-27.3,28.514503,84.118248,-96.95314,0.600550220574988,0.60730922,0.29351828,-0.42937392
5.5619,68107.698,-5.72693,5.88255,0.38068,-2.94865,0.76053,2.06411,5.16,-2.28,-27.3,30.838106,83.683861,-93.101524,0.6226572263454535,0.60307527,0.29844603,-0.39940977
5.5809,68107.718,-5.79397,6.00226,0.88107,-3.35121,-0.03176,1.43981,5.28,-0.96,-27.54,32.594196,82.015175,-88.571182,0.6470706844927848,0.59133738,0.30299088,-0.37391999
5.6012,68107.738,-8.08282,5.29119,2.32238,-3.51614,-0.00489,1.49845,5.64,0.9,-27.36,33.545444,79.230583,-83.547722,0.6726477020248236,0.57250112,0.30720463,-0.35413677
5.621,68107.758,-9.1243,4.16591,2.63362,-3.71528,0.16982,2.12154,5.76,2.28,-27.3,34.447582,76.388985,-78.137032,0.698209751093704,0.55290484,0.3118732,-0.33095995
5.6422,68107.778,-10.30225,3.70622,2.08296,-4.18259,0.07575,2.68597,5.76,4.08,-27.3,35.452248,73.425674,-72.161644,0.724308697865055,0.53260493,0.3164587,-0.30259344
5.6617,68107.798,-9.33739,1.63045,3.38061,-4.83927,-0.13073,3.2382,5.76,5.88,-26.58,36.333874,69.507271,-65.14164,0.75356042620665,0.50746262,0.31854326,-0.2704784
5.6844,68107.819,-8.36295,0.61052,8.32703,-5.32736,0.04459,3.85395,6.06,7.5,-25.8,36.883602,64.120659,-56.157993,0.7883767644850113,0.47355717,0.31809431,-0.2302644
5.7029,68107.84,-5.62398,3.7158,8.38689,-3.86556,1.64017,4.20886,6.78,9.66,-24.9,37.330994,59.77787,-46.879379,0.8170500919647917,0.44237483,0.32277659,-0.18041322
5.7238,68107.86,-5.83706,3.05979,10.88165,-1.92056,1.23517,4.20703,7.68,11.34,-23.34,38.598991,55.995052,-38.669785,0.8377158715124423,0.42205715,0.32144421,-0.12951255
5.743,68107.88,-6.14113,3.78763,6.75165,-1.45691,1.65544,4.35852,8.82,12.66,-22.38,40.537857,53.504837,-32.64534,0.8477285251471439,0.41555232,0.31830227,-0.08576877
5.7672,68107.9,-6.35182,3.2202,6.38055,-1.8833,2.24371,4.45382,10.68,13.26,-21.18,42.449837,51.151814,-26.361841,0.8543140879758837,0.40971598,0.31735694,-0.0395579
5.7841,68107.92,-6.88572,2.87304,6.84023,-2.17224,2.7941,5.16792,12.48,12.96,-20.28,43.967846,48.834335,-19.132847,0.8583276132803958,0.39982888,0.32134095,0.01227065
5.8075,68107.94,-6.42125,3.4285,7.38132,-2.39765,3.52103,6.05917,14.58,12.0,-19.62,45.656929,45.991985,-10.386565,0.85866395172318,0.38826767,0.32626095,0.07415003
5.8284,68107.96,-3.12443,4.68306,5.14753,-2.42819,3.90526,6.44341,16.62,10.44,-18.36,47.637337,42.636021,-0.02255,0.8522617663055423,0.37627661,0.33250627,0.14664711
5.8485,68107.98,-0.21548,6.12676,4.26168,-2.99629,3.52103,5.52589,18.54,9.12,-17.34,49.344685,38.321911,11.283982,0.8407395618036622,0.36307031,0.33557934,0.22073388
5.8647,68108.001,-4.4604,3.78763,5.60722,-3.5925,4.13617,5.15082,20.7,7.5,-15.36,49.287781,34.12463,22.544746,0.8282345553254582,0.33880439,0.33946258,0.28983489
5.884,68108.021,-7.36935,-0.24421,7.8051,-4.21375,4.98588,6.3585,22.32,5.28,-13.02,47.798927,30.918186,33.59185,0.8123849678215226,0.30339885,0.34613296,0.35801086
5.9092,68108.0418,-3.49075,1.09415,8.55688,-4.35913,5.17464,7.1685,24.12,3.6,-10.92,45.961292,27.342779,46.602165,0.7850905955310147,0.26234505,0.34990805,0.43860254
5.9317,68108.063,-1.34794,2.69108,9.57441,-4.18626,5.06713,6.59857,25.08,1.26,-8.64,43.682556,23.411333,61.226101,0.7437973927479496,0.21762553,0.34758854,0.5278132
5.9517,68108.083,0.57461,2.30322,9.64624,-3.77881,5.00971,5.53566,25.5,-1.62,-6.6,41.052368,21.059292,72.952003,0.7022812124536923,0.17545854,0.34255409,0.59889239
5.9686,68108.103,0.29209,2.1069,11.39879,-3.34571,3.6206,4.0421,25.92,-4.32,-4.68,38.211273,19.991432,82.430267,0.6625822055708792,0.13441268,0.3357653,0.65588087
5.9865,68108.123,-1.5682,2.60729,12.04283,-2.33473,2.83869,3.01034,25.92,-7.44,-2.7,35.395737,19.414143,89.302475,0.6320029645666808,0.10027709,0.32486013,0.69640696
6.0055,68108.143,-0.2873,3.62243,10.82419,-1.32619,1.83198,2.1252,25.5,-10.14,-1.08,33.502388,19.145397,94.297241,0.6070325157200545,0.07654255,0.31665528,0.72483253
6.0319,68108.163,0.26815,4.15633,10.58477,-0.78802,0.96761,0.9163,25.26,-11.94,0.06,32.304901,18.713537,97.690781,0.5896499453562655,0.06306051,0.30944577,0.743357
6.0464,68108.183,-4.10366,1.06063,11.5185,-0.15088,-0.16066,0.27061,24.36,-13.14,0.78,31.131184,18.536316,99.202866,0.5832678914734923,0.05348788,0.30224061,0.752056
6.0651,68108.203,-8.30309,0.09816,13.4219,0.85399,-1.07085,0.91385,23.58,-13.98,1.8,30.358835,17.917217,99.785286,0.5829749392981932,0.05168092,0.29464296,0.75541699
6.0849,68108.223,-7.36935,1.4437,12.16015,2.32251,-1.48135,2.15513,23.22,-14.22,1.86,31.148277,16.192669,100.857567,0.578383475480852,0.06475361,0.29131919,0.75921845
6.1051,68108.2429,0.28491,3.83312,8.03734,2.74034,-1.29809,2.3726,22.98,-14.7,1.98,33.676971,13.561651,103.030914,0.5646832076290981,0.09054369,0.29549047,0.76525819
6.1275,68108.263,2.44448,5.70299,7.93678,2.74584,-1.6359,1.46791,22.5,-15.18,1.8,36.486141,10.699093,105.383888,0.54991434973941,0.11848459,0.30157837,0.76980913
6.1483,68108.283,-0.60334,5.20021,7.55131,3.07815,-2.10199,0.71471,21.96,-15.9,1.38,39.200256,8.013195,106.609131,0.5427671915548257,0.14718598,0.3076503,0.76752287
6.1655,68108.303,-1.1971,4.8315,5.99029,3.38175,-2.53265,0.58582,21.6,-16.92,1.5,42.181759,5.399373,107.064148,0.5403103411789164,0.17830592,0.31518522,0.75955909
6.1867,68108.323,1.76453,4.07493,4.00071,3.57417,-3.52103,0.13744,20.88,-17.52,1.62,45.505356,2.047682,107.603806,0.5389579851664743,0.21507491,0.3217845,0.74814558
6.208,68108.343,3.73495,6.49068,6.1507,4.21619,-4.07753,-0.66279,20.52,-18.12,1.98,49.079933,-2.273552,107.937981,0.5416480673161863,0.25885206,0.32519326,0.73065883
6.2296,68108.363,4.35745,9.49062,4.29999,5.30842,-3.94375,-1.73913,20.46,-18.42,2.46,53.831409,-6.587238,107.517723,0.547249314469578,0.3084932,0.33421302,0.70260358
6.2469,68108.384,1.19471,9.91439,-1.6089,5.39028,-3.92664,-2.55769,20.64,-18.24,2.7,60.597103,-9.310977,105.311646,0.5545706024499613,0.36073661,0.35725245,0.65931118
6.2688,68108.404,-2.82037,8.19296,-4.26886,4.51002,-3.96757,-2.35977,20.94,-17.76,2.94,67.333649,-10.029696,101.278702,0.5632752242011184,0.40648076,0.38083586,0.61029375
6.2902,68108.424,-6.39012,9.31584,-2.81798,3.9804,-3.97062,-1.53083,21.78,-16.56,2.76,73.316513,-8.521346,95.261833,0.5718905594067671,0.44526958,0.39972159,0.56115848
6.3088,68108.444,-4.21858,9.52653,-0.29209,4.12029,-4.10196,-0.82711,22.62,-15.36,2.52,78.502525,-7.112718,89.452385,0.5767391971319247,0.48247272,0.41027361,0.51601118
6.3274,68108.464,1.06542,8.71489,3.304,4.88875,-4.23269,-1.02809,23.16,-14.16,2.28,83.508881,-7.305365,85.129738,0.5770238946419863,0.52162427,0.41453871,0.47234437
6.3567,68108.484,4.09169,7.97987,-2.75333,6.08422,-3.88388,-2.4905,23.94,-13.26,1.68,89.50782,62.298771,11.353574,0.5687404430220995,0.56326395,0.42513499,0.42252606
6.3752,68108.505,2.6432,6.84981,-2.98078,5.81177,-3.48621,-3.96574,24.18,-12.72,1.32,82.659332,150.810715,-81.34124,0.5600103254399618,0.59980476,0.44272584,0.36140907
6.3903,68108.525,-2.09493,5.20978,-2.10211,6.05673,-3.39824,-4.49719,24.66,-11.46,0.24,74.39093,145.323166,-79.778175,0.552222675668084,0.62587094,0.46789408,0.29053539
6.4111,68108.545,-4.42688,3.28484,-1.96564,6.79893,-3.3451,-4.68045,25.08,-10.38,-1.08,65.900322,141.572968,-79.697388,0.5411175327382985,0.64516312,0.49366561,0.2173721
6.429,68108.565,-6.99107,1.04148,-4.28323,7.37803,-3.67374,-4.82828,25.38,-8.58,-1.62,56.19091,138.879852,-81.108772,0.5220767457181379,0.66268468,0.52003497,0.13359834
6.4521,68108.585,-7.82425,0.48363,-6.52181,7.39391,-3.87533,-5.03109,26.1,-6.54,-2.52,45.678604,136.204132,-83.236328,0.49614968190604947,0.6761502,0.54311967,0.04095637
6.4736,68108.606,-6.69658,-0.33758,-7.18261,7.29129,-3.72689,-5.82399,26.1,-4.98,-3.42,34.936752,133.259216,-85.489342,0.4649032556851607,0.68176138,0.56222844,-0.054457
6.492,68108.626,-6.62476,-1.64242,-8.24563,6.96203,-3.0415,-6.76655,25.56,-3.24,-4.02,23.18239,130.192612,-87.416519,0.42411600662982846,0.67511636,0.58381784,-0.15329789
6.5094,68108.646,-11.72919,-5.07331,-9.69173,6.09521,-3.07876,-6.94737,25.44,-1.68,-5.76,11.522364,127.281425,-88.523788,0.37914286952255905,0.65413266,0.60734838,-0.24390386
6.534,68108.666,-15.17684,-3.73017,-9.30147,4.8686,-2.63222,-5.72992,24.6,0.24,-7.26,1.126451,124.118011,-89.415565,0.33910178263247565,0.62472916,0.62458706,-0.32344159
6.5524,68108.686,-14.27662,-1.98479,-10.37647,3.57539,-2.11298,-4.31271,23.7,2.1,-8.82,-6.941281,121.324966,-90.467857,0.3069308818414747,0.59690857,0.63383007,-0.38438657
6.5698,68108.706,-11.59272,-0.77333,-12.06199,2.04334,-1.91506,-3.17711,22.86,3.9,-10.92,-12.723077,118.982086,-91.354988,0.2842304996118361,0.5732708,0.63849819,-0.4276607
6.5899,68108.727,-10.03889,-2.11169,-11.37725,0.46059,-1.65667,-2.22844,21.66,5.22,-12.06,-16.715021,116.816963,-91.366096,0.27351230341928023,0.54978669,0.64325297,-0.45733055
6.6184,68108.747,-10.80982,-3.54102,-9.36133,-0.82222,-1.80877,-1.33474,20.7,6.3,-13.26,-18.815563,115.219009,-90.37886,0.2745324094890549,0.52929467,0.64923221,-0.47220403
6.6338,68108.767,-11.20486,-5.13556,-6.608,-1.57359,-1.9676,-0.69455,19.74,7.2,-13.98,-19.467695,113.973465,-88.48159,0.2857946985320731,0.51061642,0.65636349,-0.47621343
6.6614,68108.788,-11.89918,-3.81636,-4.31435,-1.50884,-2.54731,0.00489,19.02,7.8,-14.22,-19.060581,112.580032,-86.102966,0.3059338322508583,0.49288717,0.66221082,-0.47428215
6.6749,68108.808,-11.41316,-1.76213,-4.20182,-1.07451,-3.05982,0.43616,18.12,8.7,-14.88,-18.090422,110.435501,-84.375481,0.3307099382257641,0.47826114,0.66122079,-0.47400874
6.6969,68108.83,-12.02368,-2.19309,-5.79636,-1.4789,-2.86251,0.34819,17.04,9.18,-15.54,-16.926266,107.583244,-82.923882,0.359238138663717,0.46328026,0.65564752,-0.4758631
6.7152,68108.85,-12.60308,-2.93769,-4.4173,-1.51128,-2.39704,-0.011,16.14,9.42,-16.02,-15.956096,105.438744,-80.893837,0.3848514783058062,0.44721696,0.65419626,-0.47319508
6.7352,68108.87,-12.78504,-4.35026,-3.92888,-1.20585,-2.82831,0.42333,15.06,10.26,-16.44,-15.435971,103.484413,-78.958191,0.4065569256617656,0.43054038,0.65346754,-0.47151524
6.7554,68108.89,-10.85052,-4.59447,-4.9129,-1.02137,-3.15023,1.28831,13.8,10.74,-17.34,-14.506645,101.019356,-77.495796,0.4310266443301782,0.41653696,0.64731777,-0.47084254
6.7758,68108.91,-10.34295,-5.33189,-5.12838,-1.43614,-3.3622,1.95171,12.66,11.16,-17.94,-12.916267,98.220673,-76.183815,0.4594621320407509,0.40547115,0.63661391,-0.46819913
6.7945,68108.93,-10.58955,-4.55617,-3.23457,-1.93644,-3.02256,2.91566,11.16,12.0,-18.78,-10.643137,95.466949,-74.379517,0.4920073717440636,0.39569134,0.62469566,-0.45946974
6.8186,68108.95,-8.82263,-3.37582,-3.02867,-2.13864,-2.98591,3.35121,10.08,12.0,-19.62,-7.495052,93.081871,-72.065468,0.5271426925515792,0.38971984,0.61218476,-0.44211859
6.8405,68108.97,-6.25605,-2.60968,-3.4261,-2.19789,-3.05555,2.96086,9.0,12.48,-19.68,-4.31588,90.772278,-69.48349,0.5614365914881074,0.38365266,0.59960878,-0.42198211
6.855,68108.99,-8.34619,-3.81875,-3.32076,-2.43857,-3.17039,2.66887,8.04,12.9,-20.22,-1.909417,88.316086,-66.722343,0.5927385745632682,0.37305546,0.58834082,-0.40416047
6.8746,68109.01,-11.37725,-4.93924,-2.48758,-2.89917,-2.8222,3.5253,7.74,13.32,-20.28,0.206981,85.669273,-63.472004,0.6243186357602011,0.35874948,0.57753122,-0.38468525
6.8965,68109.03,-9.64624,-4.40773,-0.826,-3.44406,-2.50638,4.32676,7.14,14.22,-20.4,3.052848,83.295044,-59.459682,0.6574379772093982,0.34672388,0.5669983,-0.35506448
6.9147,68109.05,-9.79228,-2.99993,0.24421,-3.37931,-2.21683,4.54728,6.78,15.06,-20.4,6.325404,80.816963,-54.786613,0.6914863275818631,0.33509433,0.55534053,-0.31804928
6.9354,68109.07,-9.49301,-2.49715,-1.62566,-3.51675,-1.91751,4.80934,6.6,15.96,-19.98,9.597391,78.580139,-50.031883,0.721288764827136,0.32551384,0.54445183,-0.2781285
6.9687,68109.09,-6.03339,-2.67432,0.27054,-4.34753,-1.36345,5.00726,6.66,16.56,-19.8,12.707923,76.265396,-44.668388,0.7490751016613115,0.31372902,0.53457427,-0.23386095
6.9777,68109.11,-5.66229,-1.33596,3.19147,-4.95106,-0.49541,5.4593,6.72,17.22,-18.84,15.549754,73.930939,-38.105545,0.774840514411807,0.29666215,0.52788186,-0.18153371
6.9977,68109.131,-4.07254,-1.97043,1.61848,-5.30659,-0.6243,5.15998,7.62,17.7,-17.52,18.215452,71.683678,-30.590481,0.7965153286612092,0.27628803,0.52383935,-0.12173985
7.0157,68109.151,0.40462,-6.32788,2.80361,-5.62729,-1.52594,3.61388,8.76,18.3,-16.32,19.299109,68.106117,-22.132645,0.8196254517981285,0.24225621,0.5151161,-0.06466414
7.0461,68109.171,3.51948,-4.9153,8.23845,-5.37928,-1.50517,1.18264,9.96,19.38,-14.46,18.142181,63.046989,-14.300002,0.8454792573305114,0.19761188,0.49556658,-0.02298119
7.0555,68109.192,-5.22415,-1.1564,13.23994,-4.57416,0.03726,0.28039,11.28,19.8,-12.9,14.418348,58.531776,-7.92195,0.867634577628206,0.1427151,0.47627789,0.00141825
7.0769,68109.212,-14.17367,0.16281,7.70694,-4.10929,1.53877,1.48379,11.88,20.52,-11.7,11.123929,57.427284,-3.11232,0.873845314492166,0.09795807,0.47568563,0.02284216
7.0971,68109.232,-13.80257,-0.63686,2.46842,-3.79653,0.54245,3.22964,12.54,21.06,-9.66,9.727096,58.044724,2.011688,0.8704256883761493,0.06563957,0.48463103,0.05642103
7.1148,68109.252,-11.62864,-0.59855,3.77566,-3.58089,-0.56933,3.51553,13.14,21.3,-7.92,9.962605,57.44545,7.671089,0.8688953015085495,0.04395068,0.4827776,0.10007538
7.1353,68109.272,-10.28549,1.64242,4.16112,-3.49415,-0.29199,3.33532,13.5,21.3,-6.24,10.461639,56.206982,13.157755,0.8677199140741108,0.02614413,0.47522858,0.14330538
7.1578,68109.292,-9.4978,-2.62405,2.80122,-3.76904,-0.62492,4.0201,14.94,20.64,-4.44,10.685372,55.174461,18.582472,0.8639170378848571,0.0069997,0.46836141,0.18502958
7.1797,68109.314,-11.87524,-9.46667,2.12126,-5.36401,-0.10629,6.63216,16.5,19.92,-3.0,11.089863,53.94355,25.733004,0.8550281001850668,-0.01657031,0.45927092,0.24025527
7.2043,68109.335,-7.93678,-12.41154,2.85149,-6.85269,-0.66462,8.85877,18.48,18.48,-1.8,12.205713,51.995354,37.011715,0.8327136871281633,-0.04772471,0.44364277,0.32785875
7.2263,68109.3549,-3.18429,-12.08832,7.59201,-6.80809,-1.66278,9.32058,21.12,15.96,-0.66,12.895823,48.303471,49.87159,0.8028001487991281,-0.07849179,0.41186807,0.42392883
7.2422,68109.375,1.92494,-5.78439,12.35169,-5.4929,-2.49661,8.29922,23.1,12.66,-0.06,13.01456,42.767422,62.879608,0.7677831441316461,-0.09892216,0.36412227,0.51782084
7.2631,68109.395,4.64954,0.39744,14.96137,-3.38236,-2.38176,5.5943,24.6,8.22,-0.3,12.63778,36.441521,73.734154,0.7346513212341358,-0.10281764,0.31135467,0.59394801
7.2818,68109.415,-0.22745,0.81163,13.67329,-1.50334,-2.20156,3.24308,25.74,4.2,-1.62,11.875962,31.384832,80.486893,0.7128364388654863,-0.09777567,0.2696887,0.63997823
7.302,68109.435,-4.99191,-0.55067,12.15776,-0.46853,-2.14169,2.6029,25.92,0.9,-2.82,11.328737,27.481388,84.229042,0.7013353992954297,-0.08739053,0.23963535,0.66563237
7.3204,68109.455,-3.99592,-0.17957,11.28387,0.43616,-1.29626,2.7996,25.74,-1.74,-4.02,11.512311,24.222721,87.136314,0.6903522465370203,-0.07282543,0.21884051,0.68572521
7.3439,68109.475,-3.02388,0.51236,9.02375,1.03481,-0.81917,3.84967,25.38,-3.42,-4.98,12.704781,22.125536,90.132835,0.6738765269269745,-0.05831219,0.21156484,0.70550013
7.3634,68109.495,0.00479,0.51236,6.11,0.2248,-0.89797,4.49108,25.08,-4.74,-5.7,14.633151,19.703558,94.27504,0.6487811798134011,-0.03904083,0.20741221,0.73112172
7.3833,68109.515,1.97761,0.43096,7.28316,-0.7196,-1.04947,4.11845,24.6,-5.88,-6.78,15.471956,16.789465,99.395523,0.6190784298944904,-0.02419202,0.19512939,0.76031649
7.4064,68109.535,-0.58179,-0.08619,12.38042,-0.52351,-0.8882,3.89976,23.94,-7.44,-7.44,15.146672,13.924077,104.291794,0.5912012610732325,-0.01459088,0.17702802,0.78672057
7.4234,68109.555,-2.18591,-1.76692,13.56794,0.67134,-0.37202,4.39884,22.56,-9.54,-8.04,15.038142,11.556915,108.974739,0.5622370663918472,-0.00562356,0.16395569,0.8105408
7.4424,68109.575,-1.3623,-2.30322,11.72919,1.7092,-0.59804,4.95656,21.3,-11.28,-8.34,16.168322,9.616483,114.109673,0.5266449312071102,0.00656619,0.1627301,0.83433861
7.4622,68109.595,0.20111,-1.9417,9.77553,1.74646,-1.09039,5.29559,20.1,-13.56,-8.4,17.915945,7.026015,119.785484,0.48631702254724285,0.02559868,0.16481161,0.8577165
7.4813,68109.615,5.03979,1.58975,10.97263,2.11237,-1.75929,4.68778,18.48,-15.84,-8.22,19.648001,3.274982,126.010704,0.44272425880326244,0.05232607,0.1647512,0.87983763
7.5003,68109.636,5.93523,1.80762,7.31189,1.55771,-1.68721,3.07082,16.92,-17.82,-8.46,21.36821,-1.332489,131.608536,0.40468903258539074,0.08640206,0.16441271,0.89539373
7.5193,68109.656,0.42856,0.57461,10.40759,1.21196,-1.77945,2.77944,14.76,-19.92,-8.16,21.925825,-4.849125,135.290878,0.38050228678399645,0.11067604,0.15992801,0.90409726
7.5396,68109.676,0.37828,0.00718,12.81137,2.27792,-2.06839,3.65847,12.0,-21.18,-7.86,22.240036,-8.412542,139.157944,0.3547001477144139,0.1345596,0.15514559,0.91214657
7.5603,68109.696,5.98311,1.22823,11.30781,4.05676,-2.69147,3.93886,9.72,-22.32,-7.56,23.56366,-13.030173,144.523239,0.31839254677407286,0.16760133,0.15938102,0.91931152
7.588,68109.7159,6.84981,2.81798,8.12831,5.0824,-3.66763,3.38419,7.86,-23.76,-6.36,26.282036,-19.006054,150.753937,0.27879288250373224,0.2121768,0.17637601,0.91986251
7.6036,68109.736,7.04135,5.33428,5.39174,5.57048,-4.6383,2.76417,5.58,-24.54,-5.16,29.710094,-26.733896,157.419479,0.24223264732869138,0.26796857,0.20085333,0.91058999
7.6199,68109.756,7.1012,3.2609,1.21865,5.05124,-4.52101,1.95538,3.96,-25.26,-3.12,32.88681,-35.793301,164.28035,0.21097999887134675,0.32879996,0.22653583,0.89222169
7.6401,68109.776,7.62793,4.66391,-1.10612,4.08241,-4.29377,1.41904,2.22,-25.5,-0.54,35.29372,-44.754387,170.799088,0.1857149355940692,0.38410249,0.25032032,0.86908859
7.6619,68109.796,7.88171,8.08522,-0.25618,2.91261,-4.10074,1.28098,0.66,-25.5,2.04,36.798668,-53.305599,176.471161,0.16763465930403235,0.43413523,0.26885915,0.84329116
7.6794,68109.816,8.92558,5.04219,-1.71425,1.74769,-2.53631,1.44347,0.0,-25.5,4.8,37.137516,-60.881443,-178.850662,0.1531317832699689,0.47749394,0.27934954,0.81884921
7.6994,68109.836,10.51773,6.61518,1.77889,1.24617,-1.8387,1.3494,-0.36,-25.38,6.66,36.311737,-65.807724,-175.490555,0.13775469118553474,0.50549263,0.28172207,0.80382431
7.7225,68109.857,8.18817,5.78679,3.20584,1.8161,-2.20034,1.63223,-0.48,-25.2,8.04,35.362011,-69.490555,-172.817825,0.12372070983504384,0.52630919,0.28308395,0.79218388
7.7509,68109.877,7.71412,4.29999,0.29928,2.61573,-3.63343,1.6585,-1.08,-24.48,8.76,34.129314,-74.589203,-169.105621,0.10480862026758626,0.55446094,0.28738078,0.77395123
7.7653,68109.897,11.19529,5.71496,-2.61926,2.99141,-4.71527,0.63713,-1.5,-24.12,9.66,33.04377,-81.454491,-164.803726,0.08785270968525319,0.59153163,0.29632783,0.74468923
7.7815,68109.917,12.61026,6.62715,-3.62243,2.89,-5.55582,-1.11972,-1.68,-23.22,10.92,32.997211,-89.467064,-160.512924,0.08171780677159554,0.63095504,0.31304184,0.70514023
7.8011,68109.937,8.81784,4.4987,-3.99832,2.64321,-5.63034,-2.07939,-1.56,-22.56,12.06,34.273388,-98.154877,-156.393082,0.08988711084855858,0.66730189,0.33662665,0.65826362
7.8212,68109.957,4.02944,4.23055,-3.43089,3.18566,-5.72381,-2.2602,-0.36,-21.9,13.62,35.896366,-106.998535,-151.95929,0.10323670700744193,0.697541,0.36310986,0.6090402
7.8413,68109.977,0.97205,4.93206,-4.06296,4.08852,-6.41958,-1.99631,1.44,-20.88,14.82,36.78154,-117.002121,-146.235336,0.11343058528799947,0.72636151,0.3927063,0.55255246
7.8655,68109.997,1.58017,4.69024,-6.25605,4.75375,-6.77266,-2.02563,3.6,-19.98,16.14,36.109314,-128.360504,-139.544113,0.1186009154933381,0.75638914,0.42257318,0.4850167
7.8809,68110.017,3.2202,4.13957,-8.9184,5.36156,-7.18805,-2.5974,6.66,-18.54,16.62,33.926643,-140.210159,-132.469711,0.11991394200225798,0.78313094,0.45331645,0.40844923
7.9052,68110.037,3.00951,2.77009,-11.4395,5.51611,-7.63704,-3.58944,9.48,-16.68,17.16,30.457247,-152.391998,-125.079765,0.12018188734229043,0.80254459,0.48770013,0.3219116
7.9212,68110.057,-0.85473,-0.24421,-11.89918,5.05735,-7.74638,-3.99628,12.24,-14.4,17.04,26.024281,-164.528442,-117.884926,0.12346580361003238,0.81142157,0.52403992,0.22744976
7.9425,68110.077,-4.29759,-1.07021,-9.91439,4.89853,-7.43606,-3.54058,15.18,-11.76,15.84,20.825943,-175.6987,-111.929146,0.12901493697692296,0.81067318,0.55572051,0.13167709
7.9625,68110.097,-5.48033,-0.65601,-9.40203,5.24794,-7.56984,-2.81609,17.94,-8.7,15.0,14.872112,174.600723,-107.936951,0.13201691949331845,0.80458802,0.5777064,0.03827488
7.9976,68110.118,-5.6551,-2.2721,-8.98544,5.34385,-6.72868,-3.19116,20.28,-6.42,12.9,7.880401,164.906357,-105.682327,0.13343186192879336,0.79364449,0.59018677,-0.06327668
8.0047,68110.138,-3.60567,-2.9736,-10.38365,5.19785,-5.23206,-4.62547,22.2,-4.02,10.56,0.597424,157.871521,-103.8321,0.12239806690343341,0.77308416,0.60455483,-0.14789541
8.0346,68110.158,-4.96079,-4.2952,-10.99896,4.75314,-5.46236,-5.40433,23.76,-1.2,8.22,-7.15853,152.346451,-101.181496,0.10458908401670441,0.73930693,0.62678397,-0.22277397
8.0495,68110.178,-7.91044,-4.76207,-11.06121,4.08791,-4.95717,-4.8686,24.12,0.78,4.74,-14.765965,146.977127,-98.453339,0.09076643141152914,0.69620019,0.6486038,-0.29390451
8.0636,68110.198,-9.67976,-4.20901,-10.92714,3.07387,-4.85455,-3.3005,24.12,3.36,1.8,-21.079699,142.279648,-96.640556,0.08204714480347589,0.65552962,0.66281021,-0.35246533
8.08,68110.218,-8.4635,-4.38378,-11.73877,1.85703,-5.61568,-1.47157,23.94,6.48,-1.26,-25.212784,137.246902,-95.985649,0.08703069678246031,0.62202311,0.66727293,-0.40032455
8.1211,68110.238,-5.80354,-5.8227,-10.40041,0.70433,-4.78674,-0.78496,22.5,8.4,-3.96,-27.081728,131.284012,-95.948975,0.1099880471537971,0.59326428,0.66465259,-0.44065526
8.1223,68110.2579,-3.27527,-3.93128,-10.6518,0.00428,-3.32616,-1.61513,21.18,10.2,-6.24,-28.031981,127.723541,-95.028168,0.12834668870735166,0.57025522,0.66696733,-0.46205053
8.1397,68110.2779,-8.74362,-4.55138,-8.25281,-0.46487,-4.04393,-1.41843,19.8,11.1,-8.52,-29.163023,125.342171,-92.972015,0.14372414232445258,0.54393011,0.67579991,-0.47621202
8.1596,68110.2978,-12.5097,-6.22492,-6.71095,-0.96822,-4.12029,-0.02016,18.3,11.22,-10.44,-29.629513,122.151009,-90.984062,0.16817375263011425,0.5167504,0.68136132,-0.49034005
8.181,68110.3179,-11.70286,-7.30471,-5.67426,-1.62063,-4.79102,2.03479,17.52,11.4,-12.9,-28.358212,118.346527,-89.581337,0.20440081796729076,0.49747056,0.67929029,-0.49930757
8.2003,68110.3379,-7.93917,-5.85143,-4.45322,-1.96943,-5.15265,3.04455,16.68,11.76,-14.64,-25.148993,113.633835,-88.441597,0.25575473733290294,0.484299,0.66850466,-0.50313568
8.2207,68110.3578,-6.19619,-4.42688,-3.40934,-1.93033,-2.99629,2.40314,15.48,12.18,-16.38,-21.409763,109.061256,-87.078636,0.30910724096283815,0.47312203,0.65435231,-0.50242543
8.2397,68110.3779,-5.55694,-3.12204,-5.09007,-2.27059,-2.52471,1.05374,14.52,12.42,-17.88,-18.889256,107.35791,-85.065605,0.3411730337876651,0.46566534,0.65137726,-0.49240676
8.262,68110.3979,-10.33816,-4.40773,-2.08535,-2.43369,-3.09709,1.20951,13.32,12.48,-18.72,-17.441271,105.576607,-82.330124,0.37053080567718955,0.4491314,0.65297127,-0.4843722
8.2796,68110.4179,-11.76511,-5.43244,-0.64165,-2.24921,-2.86251,2.39215,12.06,12.9,-20.34,-15.570498,103.094696,-79.73336,0.40490864107905644,0.43270081,0.64953309,-0.47636726
8.2997,68110.4379,-11.21205,-3.69186,-1.69509,-1.96638,-2.83014,3.65847,10.98,13.02,-21.0,-12.487559,100.558281,-77.646149,0.4424755985050085,0.42519575,0.6392644,-0.46342739
8.3197,68110.4579,-11.14022,-3.45244,-4.44843,-2.27303,-2.83869,4.5033,9.9,13.62,-21.9,-8.313931,98.008942,-75.866043,0.48241208180988565,0.42525452,0.62296897,-0.44536147
8.3399,68110.4779,-10.64462,-5.87298,-5.27203,-3.24553,-2.39948,5.15082,8.7,13.86,-22.2,-3.515249,95.63427,-73.466072,0.5243136598428015,0.42647126,0.60590345,-0.41964087
8.3636,68110.4979,-10.60392,-6.46195,-2.27449,-4.05859,-2.1423,5.94738,8.04,14.34,-21.24,1.736126,93.569008,-69.820213,0.5677793643333646,0.42553508,0.59163415,-0.38277346
8.3824,68110.5179,-10.93432,-5.67905,-1.74298,-4.38662,-1.70615,6.74884,7.38,15.0,-21.12,7.521193,91.352074,-65.294662,0.6123683554247322,0.42369035,0.57635313,-0.33661336
8.3997,68110.5379,-11.03009,-6.13634,-1.35751,-4.9364,-0.96944,7.56251,7.74,15.42,-20.58,13.813166,89.072212,-60.045738,0.654888206156709,0.42259029,0.55996031,-0.28103974
8.4218,68110.5579,-9.05487,-5.35583,-2.39899,-5.53688,-0.31215,8.23752,8.1,16.02,-20.22,20.497633,86.880219,-53.660812,0.6928068134217115,0.42067671,0.54547429,-0.21332516
8.4397,68110.5779,-5.56412,-3.80439,-1.91776,-6.37255,-0.17776,7.86428,9.24,16.32,-19.8,27.167645,84.130325,-45.898415,0.7258568427148911,0.41448727,0.53170347,-0.13646819
8.4619,68110.5978,-5.4085,-2.40617,0.93374,-6.73235,-0.03604,6.92294,10.68,17.1,-18.18,32.389236,79.755943,-36.34565,0.7559719242665633,0.39538732,0.51824862,-0.05994735
8.4795,68110.6178,-7.9296,-2.56658,4.07254,-6.54298,1.04947,6.72746,11.94,16.98,-16.44,35.806129,74.18132,-25.48538,0.7812537891759548,0.3657555,0.50565398,0.01339715
8.5024,68110.6379,-8.86094,-4.14676,5.85143,-6.34567,2.19117,7.33527,14.28,16.56,-14.22,38.346901,68.729828,-13.736138,0.7962442540539645,0.33291534,0.4969047,0.09081951
8.5198,68110.6579,-6.23929,-2.44927,5.95199,-6.28947,2.62977,7.69202,16.62,15.66,-12.36,40.704857,63.061638,-0.653225,0.8001709691305322,0.29923525,0.48861164,0.17732273
8.5465,68110.6779,-3.84269,-0.06225,7.32386,-5.94616,2.66337,6.85635,18.96,13.32,-10.02,42.199863,56.500919,13.279154,0.7966133908094462,0.26393032,0.47529629,0.2642751
8.5656,68110.6989,-6.09803,0.29449,8.30549,-5.18319,3.05555,5.66333,21.12,11.16,-7.8,42.188,50.145111,27.35343,0.7850546677056705,0.22326073,0.46123633,0.34800124
8.5857,68110.7199,-9.14346,-1.25935,7.86495,-4.5595,3.79653,5.45686,22.8,8.82,-5.34,41.024822,46.124401,39.106556,0.7661068117354307,0.18101969,0.45363826,0.41776136
8.606,68110.7399,-10.01495,-2.59531,8.06607,-4.30843,4.04759,6.37438,24.12,6.0,-3.0,39.888065,43.748795,49.625839,0.7384821600219112,0.14034553,0.45073617,0.48143965
8.6264,68110.7599,-4.0055,0.89064,8.63589,-4.12517,3.74277,6.86857,25.2,3.0,-0.72,39.478138,40.93158,61.101772,0.6993878937702372,0.10520945,0.44425333,0.5499332
8.647,68110.7799,0.51475,5.94001,10.51294,-3.29806,2.99629,5.31025,25.68,-0.48,1.08,39.334572,37.245667,72.657104,0.6552437005876253,0.07880162,0.4312025,0.61523199
8.6644,68110.7999,-3.50272,4.20422,9.12191,-2.24126,2.86007,4.03721,25.56,-4.38,2.4,38.667145,34.823853,81.371567,0.6181627415434374,0.05546733,0.4200525,0.66208315
8.6877,68110.8199,-4.76207,3.70622,8.88488,-1.59986,2.71957,4.01766,24.96,-7.8,3.96,38.251823,33.602268,88.025398,0.584679183193402,0.03582781,0.41434231,0.69655371
8.7052,68110.8399,-2.82516,3.30639,5.93283,-1.87536,2.48133,4.36524,23.58,-10.98,4.5,38.431744,32.580063,94.600967,0.5468139498315483,0.01957927,0.41179612,0.72872156
8.7227,68110.8599,0.84036,4.98473,6.49547,-2.53081,0.97861,3.97001,22.38,-13.2,4.92,38.405838,30.186529,101.943726,0.5076177900447081,0.00894709,0.40154412,0.76223779
8.7485,68110.8799,0.66319,6.49547,8.31506,-2.27364,-0.26267,2.52837,21.12,-14.46,5.34,37.48328,26.34473,108.811432,0.47713982626198675,0.00661205,0.37999836,0.79239833
8.7719,68110.8999,-2.58574,6.47392,6.37097,-1.98592,-1.32619,1.54305,19.8,-16.32,5.04,36.208122,22.890554,113.215988,0.4612326599379407,0.0101477,0.35809174,0.81174612
8.7953,68110.9219,-1.04387,5.27921,5.4899,-2.56014,-1.8497,0.60598,18.78,-17.46,4.26,34.419556,19.265944,116.295609,0.4549400256425152,0.01816487,0.33212745,0.82606959
8.8054,68110.9419,0.35913,5.13796,6.72531,-2.78555,-1.85825,-0.10446,18.24,-18.78,2.82,31.693529,15.90785,118.289131,0.4561978479674914,0.02442396,0.30043438,0.83727306
8.8258,68110.9619,0.60573,4.73813,6.72052,-2.98224,-1.74158,-0.45143,17.58,-19.62,1.32,28.809223,13.186436,119.186523,0.4623470602262751,0.02916391,0.26941919,0.84427363
8.8454,68110.9819,-0.75657,3.82593,4.62799,-3.40557,-1.64017,-0.13073,17.58,-19.38,-0.54,25.743982,10.92969,119.697372,0.46909199763654313,0.03110689,0.23839022,0.84979713
8.867,68111.0019,-0.09337,1.96803,1.46046,-4.43183,-1.51556,0.27306,17.34,-18.6,-2.4,22.336308,8.662547,120.647888,0.47162341310026457,0.03124607,0.20448694,0.85719317
8.8884,68111.0229,-0.577,-1.86269,3.75411,-5.52894,-0.55589,0.46059,17.16,-17.94,-4.08,16.813795,6.656068,121.967094,0.47161715906353185,0.02057703,0.15549168,0.867742
8.909,68111.0429,0.9074,-2.90177,6.76601,-5.61263,-0.48014,0.95906,17.04,-16.98,-7.14,10.502552,5.831902,123.510094,0.4665440878978191,-0.00136897,0.10449512,0.87830263
8.9355,68111.0629,4.31196,-2.15718,8.17141,-4.94129,-1.27732,0.4777,16.62,-16.26,-9.66,4.153256,4.232211,125.407463,0.4567889524243536,-0.01618517,0.04910132,0.88807148
8.9474,68111.0829,4.5825,-2.29843,8.00382,-4.19909,-1.32985,-0.15333,16.44,-14.94,-11.58,-1.434062,1.838771,126.251495,0.4521193373314808,-0.01996771,-0.00390867,0.89172536
8.9697,68111.1029,1.84354,-4.63757,7.46751,-3.94985,-0.8491,-0.25412,16.02,-13.32,-13.86,-6.461136,-0.193661,126.145401,0.4520544259260865,-0.02401611,-0.05100841,0.89020681
8.9875,68111.1229,0.09098,-5.22415,7.69257,-3.73178,-0.75808,0.25534,15.48,-11.64,-15.3,-11.326874,-1.562248,125.932594,0.45105553944688137,-0.03276551,-0.09406025,0.88692051
9.0076,68111.1429,0.30646,-4.17309,7.25683,-3.50148,-1.0965,0.49541,14.64,-9.42,-16.92,-15.862293,-2.689521,126.210655,0.44501341259669314,-0.04166986,-0.13353917,0.88453037
9.0349,68111.1629,1.19471,-4.707,6.98389,-3.41352,-0.80023,0.48075,14.04,-7.86,-18.18,-20.09026,-4.009429,126.604088,0.43667785302107137,-0.04754524,-0.17120856,0.88189542
9.046,68111.1829,1.72861,-8.01339,7.37414,-3.52958,-0.44838,0.54917,13.38,-5.7,-19.2,-24.413576,-4.835251,126.834961,0.42900329278338206,-0.05766157,-0.20737058,0.87728488
9.0677,68111.2029,4.13239,-8.85376,12.13142,-3.41168,-0.82284,0.18692,12.36,-4.14,-20.88,-28.733179,-5.583605,126.996292,0.42094393131508623,-0.068363,-0.24284312,0.87129784
9.0852,68111.2229,3.34709,-11.04445,18.6221,-2.16979,-1.0232,-0.27,11.52,-2.7,-21.12,-32.41272,-6.912732,126.653549,0.4152435431908417,-0.07332767,-0.27493095,0.86406529
9.1056,68111.2429,2.46603,-12.36605,22.23974,-0.04643,-1.02686,-0.29199,10.8,-1.38,-21.84,-34.347923,-8.511881,126.023476,0.41285175993404777,-0.07044653,-0.29456919,0.85896432
9.1253,68111.2629,2.96642,-13.0053,23.40093,2.00791,-0.3207,-0.03054,10.38,-0.42,-22.08,-33.830906,-9.729568,125.860245,0.41184792757345795,-0.05968506,-0.29507571,0.8600868
9.1455,68111.2829,2.95444,-13.81933,20.51113,3.50881,0.45815,0.7086,10.14,0.24,-21.84,-31.092197,-9.416383,126.65239,0.41137019619520687,-0.04924579,-0.27418157,0.86785591
9.1666,68111.3029,4.05578,-12.54562,17.06108,4.284,0.42272,1.21868,10.08,0.3,-22.32,-27.031822,-8.022541,128.525528,0.4064566998513346,-0.03997311,-0.2395492,0.8808015
9.1872,68111.3229,4.78362,-9.86651,14.08269,4.32432,0.83689,1.24006,9.84,-0.84,-22.68,-22.276978,-6.461045,130.706879,0.3986193530551839,-0.03017764,-0.19836061,0.89489943
9.2069,68111.3429,4.52983,-8.42041,13.96538,4.20092,0.71899,1.19852,9.96,-2.4,-22.8,-17.54285,-4.837084,132.628677,0.3907736523895714,-0.02301238,-0.1562769,0.9068318
9.227,68111.3629,3.27527,-7.67581,14.6166,4.64563,0.57299,1.07634,9.84,-4.56,-22.74,-12.790689,-3.599156,134.303558,0.3824610318945484,-0.01447043,-0.11471546,0.91670853
9.248,68111.3829,2.34392,-6.7732,13.15374,5.45747,0.79901,0.66279,9.9,-6.72,-22.2,-7.313458,-2.654341,135.691986,0.3748605567536912,-0.0026365,-0.06777058,0.92459708
9.2688,68111.4029,1.09894,-5.81312,9.89763,5.9034,0.8998,0.53756,10.44,-9.36,-20.4,-0.917778,-1.594291,136.530106,0.37016225152138027,0.00995731,-0.0125907,0.92882842
9.2866,68111.4229,-0.38786,-5.17387,8.73644,6.07811,0.25534,0.97128,10.62,-12.0,-18.78,5.262377,-0.84353,137.291931,0.36405067958691584,0.02356411,0.04007645,0.9302181
9.3078,68111.4439,-1.52989,-5.05655,8.92319,6.70119,-0.28222,1.43248,11.1,-15.0,-16.38,11.006626,-1.119236,138.70015,0.3518913156169592,0.04291677,0.08630894,0.93106467
9.3286,68111.4639,0.26336,-3.07894,6.50983,7.3933,-0.47037,1.52716,11.04,-17.94,-13.44,16.964205,-2.095026,140.672607,0.33530174791016,0.06665254,0.13279118,0.93032074
9.3544,68111.4839,0.34955,0.40223,3.43089,7.44889,-1.2816,1.00854,10.5,-20.28,-10.62,23.425648,-3.627643,142.86293,0.31774286055759227,0.09399216,0.18247291,0.92569357
9.3687,68111.5049,-1.00317,2.6001,1.88184,7.11047,-2.62,0.35797,9.78,-22.38,-7.08,29.775673,-6.092153,144.697464,0.3056396133984016,0.12673359,0.22891343,0.91548985
9.3884,68111.5249,-0.44293,4.09648,0.63925,6.36888,-3.17894,-0.4215,9.12,-23.58,-3.54,38.07576,-10.427994,146.443649,0.30012981257314686,0.17601982,0.28621674,0.89275926
9.4082,68111.5449,1.34315,5.37259,0.78769,5.78306,-3.39519,-1.03603,8.58,-24.36,0.18,45.160278,-14.879581,147.740799,0.3021169202923817,0.22062661,0.33254045,0.86571711
9.4309,68111.5649,1.07739,7.41724,2.63841,5.6896,-3.70429,-1.58764,8.76,-23.94,3.24,51.835224,-19.647465,148.888275,0.309510290848049,0.26333228,0.37373996,0.83377331
9.4516,68111.5849,-1.67834,6.27281,2.27449,5.7684,-3.60716,-1.53633,9.6,-23.46,6.0,58.59177,-24.936995,150.312271,0.3202711076249187,0.30440634,0.4135972,0.79605311
9.4738,68111.6059,-3.62003,3.40216,2.17872,6.28947,-3.80141,-0.53267,10.8,-22.5,8.34,65.523193,-33.116539,154.721359,0.3268589971312479,0.34734815,0.45369366,0.75277787
9.4893,68111.6269,-3.5506,0.97683,0.44053,7.06832,-3.5253,0.38912,11.76,-20.82,10.56,71.601433,-50.190689,168.288727,0.32174046130084255,0.39624137,0.49188989,0.70535111
9.5108,68111.6469,-1.17076,0.66798,-4.07254,7.3988,-3.32555,0.82955,12.96,-19.2,12.84,74.603081,-79.78392,-164.83107,0.3047044587369174,0.44432732,0.52823114,0.6562776
9.5295,68111.6669,-0.21069,1.55623,-5.80354,7.29617,-3.70123,0.82039,13.86,-16.98,14.82,72.693245,-112.35289,-134.876404,0.2826610458172622,0.49134174,0.56138408,0.60293776
9.5509,68111.6869,-0.07901,0.93374,-6.03339,7.28518,-4.03171,0.66706,14.94,-15.12,15.48,67.257141,-134.531235,-115.825844,0.2618190959916624,0.53695148,0.58927315,0.54395866
9.5696,68111.7069,-0.43814,0.30885,-6.72771,7.59916,-3.87105,0.31765,16.44,-13.08,15.96,60.242195,-148.605988,-105.151878,0.2414547853594582,0.57879466,0.613868,0.47943968
9.5924,68111.7269,-3.49075,0.71347,-8.48744,7.84656,-3.89121,0.07636,17.7,-10.5,16.68,51.610828,-159.813812,-97.373428,0.21775327408398648,0.61537999,0.64244479,0.40144199
9.6275,68111.7489,-4.88178,-0.21069,-12.57914,7.57229,-3.98345,0.25901,18.78,-7.86,16.8,41.302456,-168.978409,-92.26194,0.19080362447545673,0.64801294,0.66990227,0.30806518
9.6361,68111.7689,-5.40371,-0.27054,-12.8401,7.19294,-4.3237,0.1631,19.98,-5.1,16.68,31.294952,-175.855606,-90.222145,0.16639050978146724,0.67489076,0.68604493,0.21489303
9.6546,68111.7889,-3.61524,-0.8691,-12.6342,7.23753,-4.78063,-0.30665,21.24,-2.28,16.44,22.194271,178.22789,-89.565918,0.14633677548326982,0.69328195,0.69432914,0.12590763
9.6777,68111.8099,-0.64883,-2.77967,-12.74434,7.30961,-5.89729,-1.32436,22.26,-0.6,14.58,12.749567,171.902039,-89.508911,0.12781043155028093,0.70353746,0.69845855,0.02924363
9.7014,68111.8309,-1.25935,-3.7972,-11.46104,7.43301,-6.4825,-2.80448,23.22,1.08,12.6,3.235162,164.710983,-89.171074,0.11434316545658815,0.69813168,0.70295632,-0.07341805
9.7262,68111.8529,-4.56335,-4.80995,-11.17853,7.38047,-6.53931,-3.97124,23.7,3.0,9.48,-6.71195,157.224716,-88.433823,0.10124689712422523,0.67419165,0.70945132,-0.17858754
9.7415,68111.8729,-9.47625,-6.01663,-14.13058,6.34506,-6.23021,-3.88938,24.42,4.74,6.3,-16.599445,149.823441,-87.896278,0.08872222063895234,0.63601029,0.71394521,-0.27910843
9.7602,68111.8929,-12.06917,-5.16429,-15.08108,4.44099,-5.18502,-3.26202,24.42,6.84,2.7,-24.660822,142.794174,-88.155159,0.0830975284065883,0.59513831,0.712547,-0.36219051
9.7777,68111.9129,-11.38682,-5.01585,-14.02044,2.45507,-4.53323,-2.47278,24.18,8.4,-1.38,-30.40173,136.978409,-88.465698,0.08336745815823111,0.55739409,0.71034974,-0.4216218
9.7959,68111.9329,-9.05966,-4.94163,-12.04283,1.08795,-4.18626,-1.64567,23.4,9.54,-5.28,-33.976002,131.982208,-88.368217,0.09302706973277902,0.52363789,0.70933294,-0.46259713
9.82,68111.9529,-7.01022,-4.86741,-11.59512,-0.12889,-4.18626,-0.50641,22.02,10.68,-9.0,-35.822742,127.46714,-88.011497,0.11128240987863752,0.49490738,0.70829636,-0.49091667
9.8421,68111.9729,-5.13796,-5.95917,-13.08192,-1.67133,-5.15937,0.3934,21.18,11.22,-12.0,-35.811333,122.87542,-87.208809,0.14320668672658865,0.46995765,0.70656699,-0.5093081
9.8585,68111.9929,-7.00543,-7.78834,-9.07642,-2.80326,-4.9981,1.26022,19.56,11.82,-14.04,-34.100201,118.028236,-85.18058,0.1922511050800748,0.4435434,0.7055667,-0.5181548
9.878,68112.0129,-9.1674,-7.89368,-4.3766,-3.10442,-3.18505,1.8387,18.18,12.06,-15.42,-31.084558,115.16507,-81.880005,0.24193054603089614,0.42441937,0.70848566,-0.5092994
9.9017,68112.0329,-9.12909,-5.14035,-3.58651,-3.06288,-2.99385,2.04273,16.86,12.24,-16.56,-27.734072,113.925926,-78.664276,0.2820531562078432,0.41478637,0.71234417,-0.49088091
9.9267,68112.0529,-7.13951,-3.18908,-3.34949,-2.73729,-3.8399,1.62307,15.54,12.72,-17.46,-24.461685,112.074158,-75.713104,0.3232448648911109,0.40399352,0.71261901,-0.47378913
9.9456,68112.0739,-6.98628,-2.81798,-4.06535,-2.35305,-4.29683,1.39705,14.76,13.56,-18.06,-21.856289,109.13221,-72.77565,0.3666212351956213,0.3861239,0.7092275,-0.46205363
9.9624,68112.0939,-7.3909,-3.48117,-5.24809,-2.26509,-4.7959,1.89307,13.8,14.58,-18.72,-19.698151,105.651566,-70.204613,0.4086842506388288,0.36687911,0.70171165,-0.45384762
9.9941,68112.1139,-9.76595,-3.20823,-5.88974,-2.79898,-4.33287,2.56563,12.6,15.36,-19.68,-17.059034,101.86158,-67.604904,0.453864601286503,0.3494724,0.69001544,-0.4424417
10.0168,68112.1339,-9.54808,-1.0343,-3.73495,-3.49598,-3.27302,2.64566,10.68,16.08,-19.98,-13.717704,98.962532,-64.371078,0.49756315430617437,0.3363629,0.6800974,-0.42042649
10.0263,68112.1538,-9.88805,-2.00874,-4.90811,-4.3402,-2.8393,2.19056,9.24,16.74,-20.46,-10.532864,97.151176,-60.144943,0.5356659207658504,0.32159495,0.67658836,-0.38970104
10.0428,68112.1739,-12.21761,-3.32315,-3.41174,-4.21497,-3.79164,2.7434,7.98,17.7,-20.1,-7.81162,95.241234,-55.167202,0.5727362889030041,0.30055967,0.67447364,-0.35598081
10.0607,68112.1939,-11.63821,-3.85466,0.10534,-3.63526,-4.04881,3.97185,7.5,18.3,-19.08,-4.563238,91.87294,-50.572021,0.6161041287881509,0.28164998,0.66103178,-0.32268557
10.0845,68112.2139,-9.85214,-3.8403,0.00479,-3.42268,-3.39152,4.96695,7.14,19.38,-18.48,-0.493281,88.159615,-46.423859,0.6590353022121973,0.27133802,0.64056122,-0.28588367
10.0999,68112.2339,-9.82102,-4.63996,1.11809,-3.53263,-2.51127,5.79711,6.72,20.4,-17.52,4.116425,84.821007,-42.097115,0.6973226581916924,0.26682189,0.6195069,-0.2424013
10.1184,68112.2539,-9.24162,-6.55772,1.78129,-3.87899,-1.1527,7.11719,6.96,20.52,-16.86,9.136595,82.142319,-37.179035,0.7289724367464973,0.26568854,0.6015982,-0.18996945
10.1365,68112.2739,-9.25359,-7.50822,0.58179,-4.44038,-0.41966,8.2082,7.32,21.12,-16.14,15.024154,80.134842,-31.276962,0.7533176336402042,0.26837406,0.58757013,-0.12348785
10.1572,68112.2939,-6.66067,-5.27203,1.04866,-4.95473,0.0788,8.36213,9.36,20.94,-15.3,21.23996,77.889893,-24.076134,0.7717782390148687,0.26903343,0.57432646,-0.04613546
10.1764,68112.3139,-4.76686,-1.96085,2.28886,-5.23573,0.20953,7.309,11.52,20.16,-14.1,26.738419,74.750504,-15.689911,0.7850638861145383,0.26263979,0.55997455,0.03351923
10.1978,68112.3339,-8.27436,-0.35434,5.18345,-5.46908,0.97861,6.45379,14.16,19.44,-12.96,30.543892,70.717697,-6.551521,0.7941685576056432,0.24636368,0.54507273,0.10722387
10.2213,68112.3549,-8.67419,-2.09014,6.25126,-5.30231,1.47707,6.54053,17.46,17.1,-11.4,33.22823,66.453209,3.839481,0.7958891651686842,0.22145462,0.53279352,0.1834376
10.2382,68112.3749,-7.95114,-0.23703,7.25922,-4.74948,1.65606,7.06343,19.98,14.94,-9.84,35.533642,62.01429,14.36508,0.7901656151853134,0.19815029,0.51942664,0.25801304
10.2593,68112.3949,-7.45554,1.652,7.14909,-4.11784,2.0971,7.68346,22.56,12.24,-7.86,38.162239,57.282269,25.253141,0.775107065542171,0.18094629,0.50474769,0.33421138
10.2876,68112.4149,-6.94079,1.98479,6.67743,-3.88205,2.81731,8.19231,24.84,8.7,-5.82,41.044796,52.331612,36.759708,0.7489357876230376,0.16837598,0.4911297,0.4117479
10.2991,68112.4349,-2.79882,1.23062,2.98078,-5.12944,3.21132,7.9162,26.16,5.88,-4.62,43.465431,46.953033,49.695164,0.7111712141916676,0.15268709,0.47851387,0.49188071
10.3295,68112.4549,-4.90572,-1.41497,9.2919,-5.48862,3.51309,7.41407,26.94,2.28,-2.76,43.359917,40.530655,64.263626,0.6701564905256556,0.12228048,0.4568865,0.57200742
10.3412,68112.4749,-6.2369,-1.27372,12.69406,-4.42938,3.47338,7.42262,27.36,-1.5,-1.98,41.874821,34.844093,78.355507,0.6232011266940976,0.08764903,0.43216357,0.64588904
10.363,68112.4949,-4.63039,-0.36871,11.36049,-3.047,3.14901,7.58084,26.4,-5.52,-1.14,40.757435,30.067743,91.24987,0.5685792595189098,0.06139407,0.41043428,0.71027607
10.3807,68112.5149,-4.60644,-0.11971,9.34696,-2.1643,2.90833,7.65536,25.62,-9.72,0.3,40.271954,25.826628,103.170647,0.5083381382130547,0.0440901,0.39327908,0.76483983
10.4003,68112.5359,-4.35745,0.39504,10.5704,-1.46852,2.1026,7.72683,24.06,-13.56,0.96,40.05946,21.321762,115.271065,0.4407246703957942,0.03337357,0.37734804,0.81379139
10.4209,68112.5559,-1.36948,2.2314,11.9327,-0.43616,1.22723,7.47882,21.36,-17.16,1.38,39.990147,16.267338,126.57341,0.37496539667070816,0.0334005,0.3621372,0.85272622
10.4422,68112.5769,3.73256,3.45962,10.83855,0.92729,-0.59132,6.29252,18.54,-20.16,1.86,40.418163,10.22212,137.20105,0.3123917690499405,0.04770282,0.35085651,0.88149619
10.4639,68112.5969,5.05655,4.62799,8.26,1.86008,-2.84663,4.58027,15.3,-22.68,1.98,41.464085,2.609832,146.356262,0.26287064514420044,0.08203238,0.34492585,0.89732707
10.4848,68112.6169,3.51229,3.96001,5.99269,1.84848,-3.72506,3.4856,12.24,-24.54,1.98,42.488346,-5.529981,152.916763,0.2349790414452698,0.12845589,0.34133226,0.90098625
10.5033,68112.6379,4.91051,2.36308,6.73968,1.46241,-2.21744,3.26752,9.78,-26.04,2.52,42.842258,-13.741102,158.85849,0.21249894404783554,0.17599131,0.33601433,0.9005363
10.5215,68112.6579,3.22499,0.75896,7.29753,1.11911,-1.58825,3.95291,7.32,-26.64,3.06,42.039669,-19.765659,164.447571,0.18542367833279197,0.20655173,0.32844138,0.9028182
10.5496,68112.6779,3.2202,0.61052,5.54976,1.17958,-1.80144,5.04575,5.34,-26.82,3.3,40.174423,-25.645912,170.874741,0.14882975326110356,0.2344179,0.31724229,0.90678293
10.566,68112.6979,8.60715,3.48835,5.22654,1.799,-2.73362,4.88142,2.88,-26.94,4.2,37.653316,-32.724247,178.459732,0.10310671382687825,0.27077341,0.30602479,0.9068625
10.583,68112.7189,9.82102,3.55539,4.44843,2.25226,-2.9627,3.80813,0.3,-26.58,5.1,35.457066,-40.707867,-174.110153,0.05989209890455483,0.31619534,0.30213845,0.89729917
10.6039,68112.7389,7.39569,2.62165,3.64876,1.9511,-2.54181,3.57906,-1.86,-26.52,6.18,33.639954,-47.45739,-168.19635,0.02572141252557673,0.35591075,0.30310571,0.88362485
10.6271,68112.7589,5.3271,0.45729,4.54898,1.66216,-1.32375,4.1435,-4.44,-26.34,7.38,31.056135,-52.735909,-163.12059,0.009087432285852513,-0.38808534,-0.30006608,-0.87135959
10.6455,68112.7789,5.3678,-2.33435,2.76291,1.36162,-0.67867,5.03842,-6.18,-25.56,8.58,27.181175,-56.177971,-158.15712,0.05383053546974091,-0.41009262,-0.29026017,-0.86294574
10.6663,68112.7989,9.27753,-1.56102,3.56018,1.83076,-2.54486,5.44586,-7.92,-24.6,9.78,22.105757,-59.339443,-153.133377,0.1058084869520004,-0.43382743,-0.27488425,-0.85149103
10.6845,68112.8189,12.51449,-0.37589,2.6408,3.17283,-4.61814,4.29194,-9.9,-23.28,10.74,17.216688,-64.82122,-147.760269,0.15468581562350014,-0.47402462,-0.26853341,-0.82417399
10.7024,68112.8389,10.6542,-1.37906,-2.5618,3.29684,-4.57355,2.7379,-11.16,-21.3,12.54,13.784613,-71.885941,-142.26503,0.1932623706576113,-0.52000874,-0.2803809,-0.78334355
10.7225,68112.8589,8.79869,-3.14838,-6.22492,1.82893,-4.39212,2.6988,-12.18,-19.08,14.28,11.006564,-78.527779,-137.900101,0.2201649505605731,-0.56126624,-0.29557249,-0.74104285
10.7654,68112.8789,12.44506,-1.92973,-3.3854,0.81123,-4.65174,3.00485,-12.66,-17.4,15.96,7.464963,-84.521881,-135.5746,0.23866457358519014,-0.60306489,-0.29830268,-0.70026243
10.7675,68112.8989,18.251,1.12288,-0.2466,1.51678,-4.56683,1.85031,-12.0,-15.3,18.06,3.982793,-90.105072,-134.379486,0.25104402866590525,-0.64249277,-0.29684627,-0.66035008
10.7877,68112.9189,18.30607,2.75573,-2.42533,2.41353,-4.10868,0.39034,-11.34,-13.74,19.8,2.172339,-95.355606,-132.311005,0.2593167084840134,-0.67098099,-0.31051484,-0.62138546
10.8062,68112.9389,14.34127,3.61524,-5.8203,2.23027,-4.0592,-0.2529,-10.38,-12.84,20.76,1.62404,-100.112366,-129.444061,0.26430352022176956,-0.68930787,-0.33557266,-0.58514041
10.8228,68112.9589,9.55765,1.45567,-8.36773,1.40804,-4.45687,-0.14905,-9.24,-11.4,22.14,1.48631,-104.979752,-126.996643,0.26247618713379056,-0.70630872,-0.36100319,-0.54946423
10.842,68112.9789,5.79157,-0.33279,-7.66384,1.03419,-4.90342,0.11484,-8.22,-10.5,22.92,1.212975,-110.39093,-125.442657,0.25385895634620065,-0.72697741,-0.38167614,-0.5112561
10.8633,68112.9989,4.36224,-0.39265,-6.83305,1.24739,-5.11661,0.48991,-6.54,-9.78,23.64,0.58159,-116.196434,-124.312073,0.24301441991239253,-0.74940324,-0.39888397,-0.46928707
10.8926,68113.0189,5.40611,-0.03831,-6.92403,1.97126,-5.51306,0.60415,-4.38,-8.76,24.42,-0.67819,-122.216057,-123.126755,0.23462648933871225,-0.7712425,-0.41439477,-0.42238891
10.9053,68113.0389,7.27119,-0.55306,-9.58399,2.71469,-6.52648,0.04887,-2.1,-8.16,24.78,-2.544752,-128.77684,-121.325684,0.22919226534395418,-0.79060692,-0.43333149,-0.366927
10.9229,68113.0589,7.0198,-1.5275,-12.14339,2.76783,-7.61871,-0.86682,0.84,-6.96,25.38,-4.54098,-136.388443,-118.797836,0.22060640104061238,-0.80600965,-0.45959604,-0.30075362
10.9437,68113.0799,4.70461,-2.53546,-12.59589,2.49233,-8.66268,-1.39827,3.78,-6.0,25.26,-6.235487,-145.57515,-115.678482,0.20126203688568325,-0.81601417,-0.49408001,-0.22248463
10.9766,68113.0999,1.18752,-3.03824,-11.09952,2.40742,-8.70911,-1.2932,7.14,-4.98,24.78,-7.900457,-155.219681,-112.886665,0.17439465772181661,-0.8201673,-0.52628648,-0.1411901
10.9888,68113.1199,-2.07338,-4.75967,-11.06121,2.72324,-7.10009,-1.36651,10.5,-3.78,24.12,-10.081295,-164.321442,-110.444969,0.14899072951669498,-0.81738573,-0.5530321,-0.0619502
11.0109,68113.1399,-4.98952,-3.93367,-10.87446,3.02134,-6.75189,-0.58399,13.92,-2.28,22.38,-12.930892,-171.982773,-108.426643,0.1317393834459457,-0.80867177,-0.57324296,0.00933874
11.0359,68113.1599,-4.96318,-3.00472,-11.91355,3.10442,-5.74274,0.09041,17.22,-0.48,20.28,-16.368755,-179.384369,-107.718941,0.11810035297360409,-0.79978734,-0.58313489,0.07966315
11.0476,68113.1799,-1.69988,-2.97839,-17.08981,2.40253,-5.24428,0.77336,20.04,1.32,17.94,-19.577284,174.146088,-108.185661,0.10801501305740531,-0.79204375,-0.58421338,0.14033596
11.0651,68113.1999,0.35913,-4.04859,-19.78808,0.3207,-5.19297,1.72875,22.02,2.64,15.3,-21.64538,167.505661,-109.758377,0.09118310996294865,-0.78686631,-0.57842672,0.19480652
11.0855,68113.2199,2.83713,-2.67193,-13.76187,-1.5742,-4.87593,1.92056,23.46,2.94,12.54,-20.797972,160.941818,-111.746117,0.0560054088620907,-0.7862007,-0.5689351,0.2346587
11.1036,68113.2409,1.82199,-2.6408,-8.5904,-1.98348,-1.38361,0.6243,24.6,2.7,10.08,-17.987013,156.862076,-112.31781,0.016889031593776936,-0.78624886,-0.56490928,0.24980992
11.1249,68113.2609,-2.59053,-3.52187,-7.61117,-1.7764,-1.30786,0.55161,25.5,2.04,7.68,-15.718542,156.538208,-111.564697,0.0025161859471725645,0.78639728,0.56841028,-0.24183205
11.1474,68113.2819,-4.63757,-2.04704,-5.53539,-0.74953,-1.20218,0.82589,26.28,1.44,5.34,-13.818668,155.597321,-111.18972,0.021540182963238452,0.78620291,0.56924361,-0.2395469
11.1711,68113.3019,-3.65355,0.71587,-8.47547,-0.0336,-1.23028,1.10383,26.7,0.84,4.14,-12.738792,154.649323,-111.625008,0.03300285240492116,0.78838366,0.56496125,-0.24120697
11.188,68113.3219,-1.49877,2.09732,-14.72913,-0.63591,-2.65116,0.51801,26.88,0.18,2.94,-11.806848,153.511337,-112.340057,0.043706030090886236,0.79119158,0.55862266,-0.24504365
11.2066,68113.3419,-3.36864,-1.26174,-15.77061,-2.19973,-4.07203,-0.24068,26.7,-0.72,1.92,-10.416062,150.659683,-111.832893,0.06860943907866555,0.7850306,0.5589335,-0.25809503
11.2258,68113.3619,-3.56975,-2.08774,-11.39401,-3.19238,-2.57296,-0.86865,26.7,-1.26,0.84,-8.161557,147.59729,-109.63797,0.10449534802323694,0.77144724,0.56810635,-0.26684275
11.2481,68113.3819,-4.35745,-0.51475,-6.75883,-3.27302,-2.62244,-0.79351,26.58,-1.56,-1.14,-5.595753,145.73941,-106.485031,0.13868139385795997,0.75611681,0.58271873,-0.26361662
11.2713,68113.4019,-6.48829,-1.18034,-7.29992,-3.01462,-2.04701,-0.47342,26.76,-1.32,-3.0,-3.233218,143.658905,-103.443893,0.17206326941818031,0.74012023,0.59525853,-0.26131123
11.3031,68113.4218,-6.96952,-1.84832,-9.02135,-3.20216,-2.29869,0.19487,26.88,-0.42,-5.04,-0.935566,141.920044,-100.862335,0.2018526713638362,0.72696614,0.60418797,-0.25638375
11.329,68113.4419,-4.43885,-4.08211,-10.02452,-3.51858,-3.72933,0.86926,27.24,0.24,-6.36,1.664832,139.488693,-98.626175,0.23601388638363913,0.71459281,0.60772985,-0.25361189
11.3387,68113.4629,-1.75256,-3.7182,-7.70933,-3.96146,-4.79346,1.07085,27.18,0.96,-7.5,4.893492,135.30748,-96.433655,0.28254597762441963,0.69986033,0.60361052,-0.25693896
11.3573,68113.4849,-5.07331,-2.86107,-2.78685,-3.66092,-2.94315,0.40745,26.4,1.56,-9.12,7.858884,130.321548,-93.660034,0.332079734392924,0.67999613,0.59841859,-0.2631036
11.3746,68113.5059,-8.69335,-2.06859,-1.32399,-3.46116,-2.03785,0.58215,25.26,2.1,-10.8,9.925635,126.838242,-90.266228,0.3693157571158054,0.6587674,0.60109687,-0.26136935
11.3894,68113.5259,-7.76679,1.79565,-0.54827,-2.81181,-2.53448,0.47709,23.7,3.12,-12.66,11.828592,123.894157,-87.407364,0.4010008641581529,0.64154041,0.60111171,-0.25746635
11.4181,68113.5459,-6.99825,2.89938,-2.31998,-2.35489,-3.11541,-0.37813,22.74,3.78,-14.1,13.1581,120.292526,-84.79879,0.43218129349771517,0.62308091,0.59779269,-0.26006424
11.4343,68113.5659,-7.57286,1.00796,-5.27443,-2.21378,-3.87227,-0.98349,21.72,4.98,-15.6,13.330943,116.105759,-82.053658,0.4611345799139603,0.59955907,0.59549576,-0.27068177
11.4574,68113.5858,-8.94234,-0.59616,-5.88016,-2.55036,-3.80752,-0.80573,20.7,6.12,-16.68,12.795448,111.422485,-79.142654,0.4902028737100196,0.57143813,0.5929119,-0.28568354
11.4718,68113.6059,-9.42597,0.55306,-4.17549,-3.21804,-3.19055,-0.04643,19.38,7.14,-18.3,12.608487,107.095055,-75.865662,0.5200917846493861,0.54293305,0.59047282,-0.29337704
11.4898,68113.6269,-11.7699,0.26576,-3.47878,-3.75988,-2.80631,1.18935,17.4,8.28,-19.98,13.379282,103.013367,-71.885735,0.5540028188795638,0.51499045,0.58678639,-0.28904575
11.5129,68113.6477,-12.75152,-1.38145,-1.21386,-4.17649,-2.21805,2.7043,15.66,9.6,-20.7,15.249729,99.278328,-67.716858,0.589351967490568,0.4921343,0.57929307,-0.27365604
11.5336,68113.6679,-10.97023,-0.52433,1.53947,-4.08608,-1.08734,3.55157,14.34,11.04,-21.24,18.527874,95.756691,-62.928528,0.6269537073314817,0.47420138,0.56805432,-0.24367271
11.5531,68113.6879,-9.1243,0.76136,3.23457,-3.73605,-0.4777,3.76232,13.62,12.18,-21.06,22.097744,93.080368,-58.282242,0.657384387242351,0.46205047,0.55803591,-0.20724636
11.5746,68113.7079,-9.85214,-0.0814,2.61447,-3.44956,0.31093,3.92603,13.44,13.56,-20.4,25.486937,90.758331,-53.717468,0.6821367242522054,0.45187905,0.549344,-0.16945791
11.5955,68113.7279,-12.44267,-1.20668,2.78924,-3.47582,1.45997,4.90097,13.98,14.52,-19.8,28.889071,89.06308,-49.079475,0.7006299709739104,0.44381756,0.54393709,-0.12757766
11.6207,68113.7479,-13.38598,-1.03908,1.59214,-3.71895,2.51005,6.88812,14.88,14.82,-18.66,33.404003,88.240776,-43.997486,0.712476040368045,0.44106629,0.54096806,-0.07205538
11.6341,68113.7689,-12.63181,-1.24259,0.11971,-4.30232,3.54913,8.82578,16.02,15.18,-17.52,40.315258,87.661598,-37.677399,0.7179859026911898,0.44520098,0.53501457,0.00719311
11.6545,68113.7889,-10.97742,-1.91776,1.95127,-5.54482,5.60713,10.14525,17.58,14.22,-15.96,48.371513,86.129913,-29.339931,0.7155726493560803,0.44730583,0.52678204,0.10185264
11.6728,68113.8089,-8.9184,-4.57771,3.80439,-6.74395,7.05672,10.73107,19.86,12.24,-13.68,56.795807,82.016983,-15.9854,0.7007507757639723,0.43566075,0.52170181,0.21673782
11.6918,68113.8289,-3.81636,-3.60567,6.61757,-7.27479,7.3426,10.82331,21.72,8.7,-10.86,63.97477,70.111603,6.561503,0.675751266007649,0.40504497,0.51118165,0.34349981
11.7214,68113.8489,1.88903,4.12521,11.33894,-6.64255,6.28641,8.97789,23.94,4.74,-7.38,67.250748,46.202751,41.23859,0.6403282066934876,0.36167416,0.48515254,0.47307357
11.7359,68113.8689,0.4142,7.70215,12.99094,-4.46848,5.9541,6.8307,25.32,0.3,-4.26,64.842392,24.807364,71.898956,0.599793941178947,0.31744623,0.45418799,0.57722473
11.763,68113.8899,-3.0957,6.58645,10.13944,-2.7434,6.87773,6.04818,25.44,-4.38,-1.2,61.223808,15.13355,90.553299,0.5526992254469972,0.27468762,0.43840533,0.65335369
11.7847,68113.9099,-0.58897,5.6168,7.81946,-2.21255,6.90033,5.44342,25.14,-8.82,0.84,58.292202,10.566611,105.40519,0.4913031215278004,0.22989306,0.43452486,0.71899831
11.7945,68113.9299,3.40216,6.62954,6.70137,-2.13864,5.90035,3.78248,23.22,-12.6,2.94,55.712894,8.602217,116.941658,0.4311635627421996,0.18713763,0.43183109,0.76980478
11.8171,68113.9509,3.5913,9.37809,9.7875,-1.06901,3.11358,1.55893,20.82,-15.78,4.74,53.250961,8.305717,124.405342,0.38708802992192454,0.15117958,0.4255901,0.80385363
11.8373,68113.9719,-2.73178,7.8434,7.94396,0.77397,2.34022,0.38912,18.36,-18.36,5.88,52.205429,9.475408,127.049141,0.3664471168549435,0.12908812,0.42555931,0.81728333
11.8586,68113.9919,-6.05494,5.04219,5.51145,1.28404,2.67437,1.06596,16.44,-19.02,7.14,52.763691,12.003434,127.393723,0.35314430041796874,0.11185133,0.43766719,0.81928372
11.8762,68114.0119,-4.69024,4.35745,5.79157,0.9444,4.37013,2.56624,14.94,-20.34,7.98,53.806786,14.160515,129.137772,0.3296597505654031,0.09355973,0.45272845,0.82316947
11.8965,68114.0319,-2.58574,3.77566,5.52582,0.19242,6.2461,3.65481,14.1,-20.52,9.3,54.717064,15.977342,133.854904,0.2859251606528208,0.06479197,0.46706656,0.83420479
11.9157,68114.0519,-1.58496,6.11719,5.31752,-0.67501,7.43056,4.18198,12.9,-20.4,10.86,55.282848,17.70879,141.034988,0.22461070053467141,0.02433868,0.47763833,0.84901077
11.9389,68114.0719,-1.41258,8.42998,3.32315,-1.72325,5.99198,4.09646,10.62,-21.18,12.54,55.474098,18.976171,149.584854,0.15496509618809087,-0.02037589,0.48124486,0.86253929
11.9609,68114.0929,-0.89783,7.93199,1.93691,-2.72507,3.23759,2.44163,8.22,-21.36,14.16,54.583199,18.163769,158.213852,0.09476312624179264,-0.05218434,0.47112164,0.87540913
11.9843,68114.1139,-6.18422,5.02543,5.43484,-2.56747,0.63163,2.67315,5.34,-21.96,14.34,52.121262,16.943316,163.772888,0.06132891514993914,-0.06968997,0.44885716,0.88876843
12.0045,68114.1339,-4.06775,4.65672,8.58561,-1.10689,-1.0458,3.42268,2.58,-22.86,13.5,50.109951,13.164316,169.16275,0.036653046570834784,-0.06365024,0.42862219,0.90049332
12.0221,68114.1539,-4.27844,5.00388,6.24168,0.01466,-1.13438,4.10868,0.9,-23.46,12.12,49.632607,8.058403,174.759079,0.011936945001383493,-0.04456818,0.42115104,0.9058162
12.0406,68114.1749,-1.65679,5.75087,0.02873,-0.43433,-1.61146,5.03109,-1.14,-23.76,11.28,50.12711,1.882669,-178.213028,0.02107771838104266,0.02148486,-0.42328253,-0.90549767
12.0587,68114.1949,6.19859,6.63194,0.33519,-2.16124,-2.96209,4.64135,-2.94,-23.76,11.04,49.399426,-6.651624,-169.794586,0.05652204305502289,-0.01539457,-0.42019323,-0.90554178
12.0801,68114.2149,7.40527,5.46836,8.2576,-2.51799,-2.7153,3.48438,-4.62,-23.46,11.28,45.900208,-14.986321,-163.21405,0.0829552841665721,-0.06237054,-0.39998701,-0.91062546
12.108,68114.2349,3.66792,0.83318,10.46984,-1.74524,-2.07511,3.77026,-6.9,-22.92,11.28,41.840435,-20.751894,-159.176239,0.10279736831564418,-0.1019881,-0.37584886,-0.91529709
12.1196,68114.2549,0.59376,-2.95205,7.88411,-1.50517,-0.74037,5.34324,-8.46,-22.86,10.38,37.501278,-25.24394,-154.812302,0.1329240091738186,-0.13354684,-0.35125095,-0.91712552
12.1368,68114.2749,4.81713,-1.83875,5.00867,-1.90101,-0.49175,6.488,-10.62,-22.02,9.72,31.957584,-29.075264,-148.838913,0.18338706920816586,-0.16087872,-0.32149228,-0.91494805
12.1573,68114.2949,9.97903,0.18196,3.99832,-2.12764,-1.45875,6.04818,-12.48,-21.06,9.12,25.480072,-33.087929,-142.721268,0.23933445832693592,-0.19560777,-0.28907904,-0.90602976
12.1772,68114.3149,9.22246,-1.30723,3.86424,-2.15758,-2.26326,5.39577,-14.52,-19.74,8.4,18.93325,-37.248791,-138.092896,0.28521578933477354,-0.23844461,-0.25820544,-0.89169842
12.2016,68114.3349,8.57603,-3.48596,4.14915,-2.15025,-2.56136,5.4422,-17.1,-17.64,8.28,12.399227,-41.439831,-134.601837,0.3235729790882212,-0.28550926,-0.22891402,-0.87257284
12.2205,68114.3549,11.92791,-4.61602,4.88657,-2.33045,-2.03113,5.09645,-18.78,-15.72,7.8,5.672798,-45.303207,-131.626816,0.36025809054556207,-0.332178,-0.19925517,-0.84862787
12.2404,68114.3749,11.0229,-4.84347,5.69581,-2.339,-2.10871,4.59187,-20.52,-13.92,7.68,-0.885383,-48.149296,-129.672333,0.3910622347303505,-0.37220103,-0.16706367,-0.82500088
12.263,68114.3959,11.34612,-4.5418,3.87142,-1.84176,-3.55524,4.43916,-22.26,-11.82,7.8,-6.934222,-51.27795,-128.204102,0.41658365567678707,-0.41234532,-0.13959824,-0.79808629
12.2819,68114.4159,13.34767,-5.02543,3.26809,-1.56931,-4.79651,3.7446,-22.86,-10.26,8.04,-12.576142,-56.126389,-126.836037,0.43857186380516644,-0.46143436,-0.12281357,-0.76134741
12.302,68114.4359,9.30626,-8.2983,2.77727,-1.21379,-5.09706,3.70429,-23.64,-8.64,8.82,-17.3081,-61.836571,-126.151596,0.4529770397420729,-0.51135689,-0.11491798,-0.72119331
12.3209,68114.4558,9.22246,-7.92481,1.16837,-1.28648,-5.03231,4.22291,-24.18,-7.14,9.66,-22.161915,-67.652954,-125.516335,0.4682978508202713,-0.5587917,-0.10811485,-0.67584032
12.3444,68114.4759,11.38682,-7.61117,-0.82361,-1.23456,-5.61629,4.33959,-24.0,-5.76,11.58,-27.378956,-73.537552,-125.354042,0.4831017955602481,-0.60371494,-0.09852258,-0.62644571
12.361,68114.4959,14.29099,-6.50505,-2.96881,-1.09162,-6.51366,4.0311,-23.7,-4.02,13.2,-32.369038,-80.506981,-125.740692,0.4945199541313226,-0.6492902,-0.09365848,-0.57017571
12.3883,68114.5159,20.00595,-5.533,-2.74854,-1.31519,-6.2858,3.00851,-22.92,-2.52,14.58,-36.866837,-88.652687,-126.861092,0.5011670411937552,-0.69406289,-0.0941866,-0.50817043
12.402,68114.5359,19.46247,-5.48512,-2.17872,-1.46852,-4.96817,2.01586,-21.72,-0.66,16.56,-39.929028,-96.874908,-129.234161,0.49811415287179533,-0.73247778,-0.09681138,-0.45385697
12.4218,68114.5569,16.59661,-4.75728,-3.20344,-1.15637,-4.15266,1.46608,-19.5,-0.36,18.18,-41.861149,-104.39782,-132.170975,0.490102658908318,-0.76340795,-0.09900653,-0.40890756
12.4398,68114.5769,15.92384,-5.01346,-4.0893,-1.21379,-2.36038,0.62675,-17.58,0.12,20.16,-42.877136,-110.259048,-134.582855,0.48206920267410047,-0.78515005,-0.10204627,-0.37514696
12.4602,68114.5969,16.73308,-5.66947,-2.19548,-2.21683,0.80573,-0.34331,-15.6,0.3,21.66,-42.691719,-113.713387,-137.007019,0.47018039323243527,-0.79854518,-0.10061099,-0.36212349
12.48,68114.6169,13.73554,-6.59842,-0.27533,-2.37382,2.79654,-0.99082,-13.62,0.12,23.1,-41.050381,-114.033585,-139.99025,0.45077861449083534,-0.80347878,-0.08938889,-0.37845755
12.5006,68114.6369,14.03481,-4.59687,-0.56982,-1.48074,1.67255,-1.86131,-13.2,0.36,23.7,-38.833752,-112.433884,-142.244659,0.4311209353400609,-0.80152243,-0.07871275,-0.40681794
12.5202,68114.6569,14.21916,-3.30639,-1.79805,-0.13561,-1.30908,-3.09281,-12.9,-0.42,23.16,-36.064449,-111.566666,-142.490997,0.41429761894843364,-0.80051762,-0.08798034,-0.42401472
12.5432,68114.6769,13.16093,-4.72137,-3.13162,0.41294,-2.93887,-4.16977,-13.14,-1.62,23.34,-32.491425,-112.558907,-140.524734,0.39901192641650257,-0.80407715,-0.12349829,-0.42308107
12.565,68114.6969,8.68138,-6.54335,-3.99592,0.22113,-3.11236,-4.29438,-13.14,-3.36,23.16,-28.056728,-114.297661,-137.460434,0.3806798783621074,-0.80721068,-0.17312312,-0.41655988
12.5832,68114.7179,6.6463,-6.90488,-4.58729,-0.24923,-1.99264,-3.86006,-12.36,-4.74,23.16,-23.702553,-116.227318,-134.611435,0.3603364031151382,-0.80851454,-0.22052513,-0.40967131
12.6065,68114.7389,6.74925,-4.40294,-6.34224,-1.31214,-0.39706,-3.44711,-11.1,-5.82,24.3,-19.706127,-117.315041,-132.789444,0.3391357542410106,-0.80670834,-0.25539342,-0.41107517
12.6227,68114.7589,9.56723,-2.98078,-6.06691,-2.87595,0.83383,-3.39947,-9.0,-6.66,24.78,-15.68023,-117.320999,-132.579697,0.3138583782552006,-0.80322599,-0.27527323,-0.42490655
12.6462,68114.7789,10.46027,-3.23217,-4.25928,-3.44161,0.51129,-3.91626,-7.32,-7.62,24.96,-10.902768,-116.494408,-133.738434,0.2800824323988529,-0.7980721,-0.28654829,-0.45002759
12.6618,68114.7989,8.57842,-2.73418,-2.38702,-3.06288,-1.04947,-3.66214,-6.0,-8.94,24.78,-5.775823,-116.389458,-135.078033,0.2406687256770441,-0.79452229,-0.29973546,-0.47007611
12.6818,68114.8189,7.29513,-1.36469,-0.99359,-1.86253,-1.97615,-3.2382,-4.86,-10.44,23.94,-1.425549,-117.651627,-135.886948,0.2042345321178245,-0.79533648,-0.31530198,-0.47572345
12.7027,68114.8389,9.72285,-2.00634,-2.16675,-0.71349,-0.76419,-3.86861,-3.96,-12.48,23.22,1.962947,-119.250008,-135.453857,0.1779513376026176,-0.79496402,-0.33496198,-0.47346172
12.7259,68114.8589,10.92714,0.45969,-5.64313,-0.71899,-0.65179,-5.07201,-2.52,-14.4,22.62,5.791611,-119.663246,-133.605057,0.15755344168581814,-0.78364038,-0.36344931,-0.47852823
12.7512,68114.8789,10.13705,1.63285,-7.3071,-1.70554,-1.51556,-5.89546,-0.78,-16.02,22.38,10.875201,-120.765251,-131.319031,0.12771607649674965,-0.76920462,-0.39936438,-0.48220426
12.7657,68114.8989,11.43231,1.5706,-6.93361,-2.41903,-1.52594,-6.53809,1.26,-16.56,22.2,17.156973,-122.689896,-129.464874,0.08402508925605427,-0.75415504,-0.43506232,-0.48467591
12.7826,68114.9189,9.08839,-1.35033,-4.72137,-2.50577,-1.63101,-6.40981,3.96,-16.74,21.84,23.869757,-124.934914,-127.516624,0.03549176009486039,-0.73589677,-0.46934932,-0.48673144
12.8035,68114.9389,6.50744,0.89543,-2.91853,-2.11848,-0.73609,-6.12576,6.6,-16.44,21.06,30.12842,-127.164734,-125.357109,0.009598337250682707,0.715253,0.4996607,0.48852861
12.8249,68114.9588,4.66869,3.58173,-3.65355,-1.51006,0.11057,-6.04757,9.78,-15.9,20.16,35.770618,-128.967896,-122.453423,0.045610695255783644,0.68913144,0.52936292,0.49273971
12.8442,68114.9789,4.20182,4.73094,-7.23288,-1.60658,0.96761,-6.04451,12.84,-15.42,19.14,40.998878,-130.927383,-118.382683,0.07439615960821162,0.65736353,0.56132287,0.49724746
12.8616,68114.9989,4.58729,4.69503,-8.77475,-2.40253,1.34207,-6.0946,14.64,-14.46,18.6,46.334789,-132.868149,-113.848053,0.10157204033508811,0.62028491,0.59169728,0.50480103
12.8816,68115.0189,3.01669,3.39498,-9.78271,-3.2382,0.77641,-5.61568,16.2,-13.26,18.66,51.992317,-134.978256,-109.339943,0.13134180478530913,0.58037674,0.61707926,0.51490325
12.9032,68115.0389,0.65122,3.89537,-8.22169,-3.98528,-0.13806,-4.60898,17.46,-12.0,18.72,57.649311,-137.847,-105.383194,0.16686631959934253,0.54513121,0.63338906,0.52326465
12.9215,68115.0589,1.63285,6.81629,-5.87537,-4.41717,-0.29199,-4.40251,18.54,-10.62,18.48,63.221203,-140.740234,-102.634712,0.2065637731888133,0.51611006,0.63879287,0.5318886
12.9457,68115.0789,-1.70467,7.71172,-4.36942,-4.78124,1.02014,-4.1771,19.62,-9.6,17.7,69.154739,-144.474045,-98.857323,0.24716037519129166,0.48299766,0.64149529,0.54231799
12.963,68115.0989,-4.82671,6.47871,-4.45082,-5.02681,2.29074,-3.22598,20.88,-8.76,16.5,75.298225,-148.519775,-93.194435,0.27956373595979983,0.43982339,0.64402872,0.56002367
12.9833,68115.1189,-5.30795,5.94959,-5.12359,-5.35057,3.20154,-2.41903,21.66,-8.16,16.08,81.067894,-152.509354,-86.377563,0.3003893473544153,0.39267704,0.64394963,0.5838663
13.0078,68115.1389,-3.63679,4.28083,-6.40928,-5.76229,3.03295,-2.15574,21.78,-7.86,15.9,86.556793,-161.511642,-73.676468,0.3120843585222088,0.34268942,0.64112669,0.61165667
13.0266,68115.1589,-3.7158,2.47082,-4.05578,-6.22166,2.49844,-2.24798,21.78,-8.1,15.66,87.330612,55.996365,72.152367,0.325373235607802,0.29275963,0.63345808,0.63808692
13.0497,68115.1789,-5.79636,2.07577,-1.36469,-6.24854,2.1252,-2.36649,21.3,-8.7,16.02,80.892021,43.707821,87.573723,0.3428099948513884,0.23865037,0.62115371,0.6630953
13.0633,68115.1989,-9.24641,2.73657,1.04148,-5.84415,1.19485,-2.23638,21.12,-9.48,15.42,73.714172,43.144085,90.916931,0.36473806352742755,0.18158183,0.60392243,0.68503422
13.0882,68115.2189,-10.35013,1.70228,1.66876,-5.2791,0.79657,-1.73241,20.88,-10.56,14.94,66.568825,43.167931,92.905785,0.3892224137984231,0.12868889,0.58174461,0.70250857
13.1038,68115.2389,-13.34289,-0.70629,1.30245,-5.15448,0.87842,-0.44288,21.24,-11.4,14.04,59.897285,43.093342,95.094086,0.4087084105580433,0.07862753,0.55739629,0.71839023
13.1212,68115.2589,-15.1553,-2.85628,2.75333,-5.27788,0.70921,1.18691,21.72,-11.64,12.84,53.961086,41.731842,99.193657,0.41667895504340624,0.03306485,0.52856314,0.73885477
13.1413,68115.2789,-9.9096,-2.70305,4.41012,-5.41349,0.36041,2.05801,21.6,-12.72,11.76,48.768337,38.889515,105.285103,0.41189239258005217,-0.00478063,0.49342397,0.76606435
13.1612,68115.2989,-2.47321,0.17717,4.89614,-5.45258,-1.23945,1.19058,22.02,-13.62,9.96,43.598553,35.390854,111.647675,0.4035076218238869,-0.03475041,0.45122665,0.79521602
13.1826,68115.3189,0.82361,3.00233,7.61117,-5.03414,-1.81977,-0.81612,21.72,-14.82,8.46,37.693871,31.52314,116.050308,0.40787601329887174,-0.05343495,0.39985725,0.81908244
13.2117,68115.3389,-4.85065,0.58179,9.50977,-4.43671,-1.82099,-1.01648,21.6,-16.44,6.06,31.201284,28.938354,117.754074,0.42452147498600123,-0.07141943,0.34730715,0.83310175
13.2291,68115.3589,-9.64145,-0.08619,9.02375,-3.84173,-1.19424,0.64752,21.66,-16.86,3.42,25.604792,27.019424,119.152298,0.43550296115342485,-0.08732849,0.30114767,0.84381336
13.2471,68115.3787,-7.02698,-1.10373,6.12197,-3.84295,-0.5681,2.16552,21.54,-17.34,0.9,21.388353,25.466644,122.092484,0.42820721399741035,-0.10189024,0.26322928,0.858468
13.2656,68115.3989,-0.64404,-0.36871,5.1188,-4.31576,-0.09713,2.48439,21.78,-16.92,-1.62,17.668262,24.231491,126.4739,0.4062681682489957,-0.11756573,0.22746012,0.87714672
13.2854,68115.4189,6.70376,0.06225,4.80037,-4.72138,-1.11911,0.60109,21.42,-16.92,-3.54,13.414937,22.452429,130.957962,0.38361143467540565,-0.12836441,0.18447833,0.8957302
13.3027,68115.4389,3.96959,-1.87227,7.01501,-4.84477,-2.47523,-1.48013,21.0,-16.8,-5.76,7.834053,19.661119,133.119049,0.3803390192187933,-0.12950389,0.1295131,0.90653038
13.3243,68115.4588,-1.75495,-4.42209,10.55364,-4.54789,-3.26507,-1.66278,20.76,-16.08,-7.44,1.458783,16.020546,133.010666,0.3931151148245622,-0.1227623,0.06711023,0.90878278
13.3508,68115.4789,-1.07021,-4.45322,13.61822,-3.82951,-2.0861,-0.7086,19.98,-15.3,-9.6,-4.240852,12.205869,132.60878,0.4029283938381034,-0.11207046,0.00900775,0.90829939
13.3658,68115.4989,-2.9736,-6.52659,13.35007,-3.1991,-1.3494,0.04276,19.8,-13.74,-11.7,-8.931773,10.018184,132.8237,0.40365164011608157,-0.11081504,-0.03625361,0.90745306
13.3857,68115.5189,-1.97043,-6.08367,13.63737,-2.41353,-1.18386,0.5174,19.14,-12.48,-13.92,-12.623542,8.673537,133.596817,0.398099094467315,-0.1122698,-0.07114714,0.90766221
13.4022,68115.5389,3.50032,-5.47554,12.17212,-1.60108,-0.76175,0.23824,18.96,-10.92,-16.08,-15.270155,7.355876,134.469467,0.3905949809036629,-0.10993278,-0.0976581,0.90874267
13.4233,68115.5589,3.53624,-8.48026,11.84651,-1.69882,-0.8039,-0.25045,18.24,-9.48,-17.4,-17.421354,6.295956,134.694321,0.3878046429722215,-0.10833451,-0.11864461,0.90763134
13.443,68115.5789,-2.07338,-10.46984,18.62689,-1.08795,-1.32069,-0.22235,17.7,-8.4,-18.54,-19.364876,5.106118,134.506226,0.38768356817779026,-0.10546163,-0.13797374,0.90528589
13.4635,68115.5989,-3.36385,-9.85214,22.23974,0.84177,-0.81673,0.41783,17.16,-7.14,-19.32,-20.135832,3.604905,134.456802,0.3859796106129625,-0.09618562,-0.14912277,0.90527922
13.4843,68115.6189,-4.55856,-10.73799,20.54465,2.49905,0.01222,1.19852,16.32,-6.48,-19.74,-18.69553,3.128242,134.991714,0.3816228406220333,-0.0870279,-0.13969339,0.90954709
13.5045,68115.6389,-3.45244,-9.94551,16.26381,3.6939,0.1124,2.19117,16.5,-6.84,-19.92,-15.348466,3.650855,136.452347,0.3713850140493699,-0.07882761,-0.11223986,0.91829276
13.5246,68115.6589,-1.66158,-8.34858,14.27902,4.3457,-0.26756,2.59373,16.2,-7.86,-19.68,-10.743062,4.231885,138.748016,0.35371490261216904,-0.06735776,-0.07460405,0.92993706
13.5516,68115.6799,1.55144,-5.62398,13.79539,4.94557,-0.00367,2.09649,16.2,-9.54,-18.96,-5.098363,4.351974,141.216064,0.3330539763536407,-0.05053653,-0.02932914,0.94109559
13.5665,68115.6999,0.93374,-4.27604,11.76511,5.19907,-0.416,1.66644,15.66,-11.76,-17.64,0.81672,4.372767,142.863052,0.3179400325413122,-0.03389554,0.01889943,0.94731623
13.5877,68115.7199,-1.0726,-2.55222,10.00776,5.16181,-1.37933,1.36345,14.76,-14.16,-16.02,6.582369,3.555734,144.081635,0.3059880594504138,-0.01177097,0.06413724,0.94979954
13.6189,68115.7409,0.28012,-1.61369,10.37408,5.15265,-1.35979,0.78924,13.8,-16.2,-15.0,11.500548,1.678541,145.126953,0.29670888272928303,0.01611534,0.09994568,0.94958675
13.6291,68115.7619,-0.01676,-1.42694,9.82102,5.58575,-1.62307,0.35736,12.54,-18.54,-13.08,16.424343,-0.184975,145.726929,0.2918483056611375,0.04361422,0.13602693,0.9457373
13.6458,68115.7819,-0.88346,-0.55067,7.05092,5.84476,-1.40499,0.22358,11.4,-20.88,-11.22,21.423485,-1.963648,146.010666,0.2901932935774005,0.07041945,0.17280434,0.93859875
13.6685,68115.8029,-0.6608,1.57778,5.06374,5.43242,-1.54977,0.39889,10.38,-22.44,-9.3,26.804682,-3.620906,146.554657,0.2867765694042971,0.09609415,0.2130312,0.9290548
13.6876,68115.8229,-0.85952,2.65996,5.06613,5.0995,-1.76784,0.39095,9.84,-24.0,-6.3,31.447325,-5.517088,147.391937,0.2824336106569795,0.12045343,0.2467932,0.91913837
13.707,68115.8429,-1.37906,2.89698,4.83389,4.99016,-1.98104,0.42699,9.72,-25.14,-3.12,35.875523,-7.573029,148.33577,0.27855882697945666,0.14428616,0.2785126,0.90775394
13.7265,68115.8629,-1.86748,2.08535,3.80199,4.88692,-2.70308,0.69944,9.48,-25.86,-0.54,40.163158,-10.041057,149.499893,0.27508318665348774,0.16926567,0.30837694,0.8947525
13.7491,68115.8829,0.00718,3.28963,2.91614,4.91747,-2.98957,0.90591,9.54,-25.86,2.52,44.744999,-14.28884,151.812454,0.2693455469153507,0.20351389,0.33829692,0.87840211
13.77,68115.9029,1.94888,6.07409,2.6025,4.99688,-3.24247,0.44899,9.72,-25.74,4.8,49.602154,-20.163795,155.40567,0.26209858889527315,0.24322404,0.36967123,0.85760689
13.7948,68115.9229,0.43814,6.53138,0.95289,4.45443,-3.23026,0.07208,9.66,-25.08,6.72,54.531025,-26.779913,159.397964,0.25900985905326585,0.28222272,0.40166867,0.8318212
13.8098,68115.9429,-0.11971,6.92882,0.1221,3.79836,-3.79958,0.18998,10.14,-24.6,8.76,58.830433,-33.961594,163.741318,0.25980335613627,0.31826726,0.42902848,0.80445182
13.8275,68115.9629,2.45885,8.10437,-0.73981,3.62854,-3.99262,-0.23946,10.5,-24.06,10.32,62.552765,-42.865704,169.131622,0.2641985309184997,0.35666925,0.45151636,0.77402788
13.8481,68115.9839,2.27689,8.97586,-0.64883,3.16123,-3.97429,-1.05374,10.86,-23.52,11.94,66.249557,-53.235851,175.574814,0.27356076884358255,0.39380646,0.47369593,0.73871046
13.8715,68116.0039,0.44532,7.5154,-0.48123,3.13496,-4.19359,-1.06291,11.76,-22.32,13.2,69.648911,-63.505993,-178.130737,0.28910071116214425,0.42403007,0.49257204,0.70284569
13.8909,68116.0239,0.62728,8.7556,0.3711,3.47033,-4.42511,-1.16248,12.84,-20.7,14.22,72.442253,-76.825119,-169.053162,0.30517036922086366,0.45479608,0.50870615,0.66426623
13.9088,68116.0439,1.29526,9.3733,1.57299,4.25468,-4.21619,-1.92667,14.28,-19.2,14.94,74.612961,-94.337196,-155.75676,0.32101040288976923,0.48378754,0.52534074,0.62202817
13.9275,68116.0649,-0.58179,6.99346,-1.24977,5.02864,-4.36769,-2.46057,15.9,-17.4,15.42,75.859146,-119.587746,-134.433777,0.33610887069952583,0.50872445,0.54910225,0.57159162
13.9476,68116.0849,-1.30484,4.96079,-4.44843,5.00482,-5.03292,-2.44468,17.88,-15.48,15.36,74.067566,-149.369949,-109.059845,0.3507439017533649,0.53473693,0.57633179,0.50879937
13.9673,68116.1049,-0.6177,6.24887,-3.99353,5.26138,-5.94128,-2.96881,19.74,-13.08,15.0,69.79924,-170.023529,-93.473442,0.3661863509111232,0.56089026,0.59619379,0.44256371
13.9875,68116.1249,-2.60968,4.83629,-4.46279,5.76474,-6.80076,-4.10257,21.66,-10.44,14.04,63.79845,173.527649,-83.112038,0.3858376952998426,0.58459628,0.61449593,0.36300305
14.0109,68116.1449,-6.30633,1.41976,-5.21697,6.14653,-7.05549,-4.72321,23.28,-7.44,12.24,55.95911,159.268372,-75.900169,0.4091111144369817,0.60079587,0.63309813,0.26619387
14.0275,68116.1649,-7.50822,0.48363,-5.94001,6.52954,-6.53076,-4.93885,24.48,-4.74,10.2,46.661221,148.506165,-72.338791,0.4261303760034094,0.60834628,0.65001708,0.16064091
14.0468,68116.1849,-8.44674,0.31603,-6.55054,6.88934,-6.6737,-5.25466,25.74,-1.38,7.32,36.555355,140.372238,-71.565971,0.4336323868420361,0.60858744,0.66254574,0.05116076
14.0669,68116.2049,-9.92157,-0.22505,-9.07402,6.72929,-7.05366,-5.86797,26.28,1.62,3.96,25.992033,133.198792,-72.405762,0.4341711665050033,0.6002515,0.66883904,-0.06203123
14.0867,68116.2249,-12.0141,-1.09654,-10.38605,5.79589,-7.29312,-6.06406,26.4,4.2,0.36,15.605124,125.812126,-73.861519,0.43331909783150774,0.57938659,0.6679008,-0.17451149
14.1067,68116.2449,-12.29423,-0.67756,-11.12107,4.01888,-6.87651,-5.61813,25.86,6.3,-3.6,6.330137,118.459267,-75.42395,0.4331247980988405,0.54712534,0.66141373,-0.2749339
14.1331,68116.2649,-11.34612,0.14605,-11.19529,1.98409,-6.44829,-4.7733,24.36,8.22,-7.74,-0.883737,111.595581,-76.347214,0.43794702642852856,0.50773758,0.65284538,-0.35241717
14.1471,68116.2849,-10.88883,-1.80523,-10.41478,0.51068,-4.19664,-4.34264,22.26,10.38,-11.58,-6.356642,105.923958,-76.225616,0.4458780876637163,0.46564674,0.64769626,-0.40602389
