AppTimestamp(s),SensorTimestamp(s),gyro_x,gyro_y,gyro_z
0.0713,5523.278,0.31716,-0.3309,-0.12274
0.0798,5523.298,0.01051,-0.30952,-0.02378
0.0862,5523.318,-0.53011,-0.08595,0.12283
0.0904,5523.338,-0.54721,0.32456,0.1662
0.0935,5523.358,0.12901,0.45834,0.13932
0.0973,5523.378,0.75393,0.13519,0.17536
0.1338,5523.398,0.70995,-0.23133,0.20346
0.1645,5523.418,0.28845,-0.55326,0.19002
0.1676,5523.438,-0.14893,-0.5612,0.19674
0.1778,5523.458,-0.16542,-0.1397,0.25722
0.2041,5523.478,0.23103,0.08326,0.2676
0.2146,5523.498,0.52363,0.06677,0.23095
0.2321,5523.518,0.39535,-0.27043,0.23156
0.2553,5523.538,0.1675,-0.72063,0.24256
0.2731,5523.5579,-0.04569,-1.04928,0.24927
0.2925,5523.5779,-0.00293,-1.02057,0.12771
0.3159,5523.5979,0.12107,-0.72613,0.01959
0.3384,5523.6179,0.26707,-0.17819,0.21812
0.354,5523.6379,0.35931,0.04234,0.42581
0.3725,5523.6579,0.3135,-0.17208,0.55898
0.393,5523.6779,-0.30898,-0.84647,0.5883
0.4121,5523.6979,-1.09821,-0.60579,0.54677
0.433,5523.7179,-1.43847,-0.93138,0.49484
0.4547,5523.7379,-1.14647,-0.47995,0.46124
0.4743,5523.7579,-0.20391,0.86823,0.58403
0.5,5523.7779,0.70811,1.59699,0.70376
0.5249,5523.7979,1.40511,2.02582,1.28347
0.5401,5523.8179,1.51568,1.8505,1.63227
0.5568,5523.8379,1.30798,1.60188,1.59318
0.5748,5523.8579,0.95674,1.50597,1.47467
0.6021,5523.8779,0.45644,1.29583,1.38793
0.6133,5523.8979,0.00806,1.15106,1.40014
0.6391,5523.9179,-0.07379,1.17122,1.48567
0.6569,5523.9379,0.16017,1.73993,1.17412
0.6733,5523.9579,-0.21307,1.82057,0.74469
0.697,5523.9778,-0.76529,1.52796,0.45269
0.7129,5523.9978,-1.23138,1.17244,0.30792
0.7656,5524.0178,-1.66571,0.81203,0.12893
0.7697,5524.0378,-1.79277,0.61838,-0.00851
0.7735,5524.0578,-1.36883,0.55974,0.05624
0.7913,5524.0778,-0.85814,0.26591,0.02631
0.8126,5524.0978,-0.6871,-0.45308,-0.28279
0.8308,5524.1178,-0.61868,-1.14702,-0.53813
0.8524,5524.1378,-0.3328,-1.55935,-0.61815
0.8749,5524.1578,-0.00538,-2.07675,-0.65847
0.8937,5524.1778,0.18338,-2.33271,-0.80752
0.9144,5524.1978,0.3025,-2.21542,-1.149
0.936,5524.2178,0.36175,-2.01139,-1.5314
0.9548,5524.2378,0.46927,-1.79026,-1.80507
0.9741,5524.2578,0.67513,-1.80553,-1.9083
0.9956,5524.2778,0.88771,-1.99795,-1.90586
1.0171,5524.2978,1.15527,-2.26734,-1.97977
1.0501,5524.3178,1.45032,-2.428,-2.18869
1.0735,5524.3378,1.45887,-2.5569,-2.3915
1.0781,5524.3578,1.37518,-2.51475,-2.47213
1.1017,5524.3777,1.21513,-2.22581,-2.45136
1.1218,5524.3977,0.99156,-1.84524,-2.4367
1.1518,5524.4177,0.71606,-1.44207,-2.33346
1.1535,5524.4377,0.37214,-1.27652,-2.0879
1.1743,5524.4577,-0.00232,-1.14946,-1.78857
1.1945,5524.4777,-0.2821,-1.19955,-1.5149
1.2109,5524.4977,-0.49407,-1.21116,-1.33042
1.2323,5524.5177,-0.75002,-1.2081,-1.15938
1.251,5524.5377,-1.07256,-1.09448,-0.87899
1.2716,5524.5577,-1.34561,-0.77073,-0.4801
1.293,5524.5777,-1.55758,-0.11771,-0.14657
1.3151,5524.5977,-1.89173,0.52614,0.02631
1.3348,5524.6177,-2.26863,0.68375,0.22728
1.3538,5524.6377,-2.28268,0.39847,0.67138
1.3727,5524.6577,-1.80071,0.33677,1.26392
1.3964,5524.6777,-1.08233,0.89755,1.9261
1.4145,5524.6977,-0.85326,1.23719,2.31217
1.4321,5524.7177,-0.56737,1.66724,2.40319
1.4532,5524.7377,-0.03042,2.10401,2.06049
1.4742,5524.7577,0.40146,2.15104,1.71108
1.4965,5524.7777,0.55051,1.90364,1.74589
1.516,5524.7976,0.73683,1.47482,2.05011
1.5334,5524.8176,1.1797,1.1199,2.34271
1.5556,5524.8376,1.53645,1.03377,2.44411
1.5814,5524.8576,1.66534,1.13517,2.3085
1.5941,5524.8776,1.6855,1.40212,2.12769
1.6138,5524.8976,1.66962,1.55056,2.08676
1.6314,5524.9176,1.56027,1.8841,1.93587
1.6532,5524.9376,1.28538,2.25367,1.49483
1.671,5524.9576,0.90054,2.47114,1.04157
1.6931,5524.9776,0.49126,2.40883,0.88702
1.7134,5524.9976,0.12535,2.39967,0.95238
1.731,5525.0176,-0.23079,2.80284,0.94444
1.7545,5525.0376,-0.69138,3.38743,0.78439
1.776,5525.0576,-1.27842,3.36361,0.79233
1.793,5525.0776,-1.42686,2.72465,0.90901
1.816,5525.0976,-1.10249,1.79613,0.95666
1.8356,5525.1176,-0.54416,1.00811,0.94872
1.8508,5525.1376,-0.1306,0.49621,0.80516
1.8705,5525.1576,-0.06463,0.14008,0.5602
1.8929,5525.1776,-0.45864,-0.35961,0.31525
1.9109,5525.1976,-0.951,-0.98392,0.27493
1.9362,5525.2175,-1.13059,-1.48177,0.28715
1.9535,5525.2375,-1.04751,-1.58745,0.08312
1.976,5525.2575,-0.90885,-1.20688,-0.39458
1.9973,5525.2775,-0.85448,-1.16962,-0.79958
2.0185,5525.2975,-0.71826,-1.39136,-0.87777
2.0444,5525.3175,-0.30837,-1.68763,-0.87472
2.0528,5525.3375,0.29822,-2.00712,-0.8796
2.1178,5525.3575,0.85594,-2.18549,-0.86067
2.1239,5525.3775,1.19864,-2.2313,-0.88571
2.1259,5525.3975,1.31654,-2.23558,-0.99811
2.1373,5525.4175,1.275,-2.08897,-1.22291
2.1518,5525.4375,1.03187,-1.82997,-1.50391
2.1746,5525.4575,0.81257,-1.81164,-1.60043
2.194,5525.4775,0.64336,-1.87273,-1.65846
2.2119,5525.4976,0.58167,-2.01139,-1.71099
2.2328,5525.5176,0.62382,-2.01445,-1.78857
2.2538,5525.5376,0.63481,-2.11463,-1.81545
2.2716,5525.5577,0.59938,-2.2032,-1.79468
2.2971,5525.5777,0.54624,-2.17755,-1.80629
2.3148,5525.5977,0.47843,-2.01994,-1.87898
2.3365,5525.6177,0.43689,-1.99368,-1.93762
2.3625,5525.6378,0.4766,-1.91365,-1.93335
2.3838,5525.6578,0.29945,-1.79515,-1.96206
2.4106,5525.6778,-0.23689,-1.73406,-1.98283
2.4199,5525.6979,-0.83493,-1.61189,-1.78185
2.4375,5525.7179,-1.11593,-1.15435,-1.408
2.4525,5525.7379,-1.30713,-0.43597,-1.07691
2.4752,5525.7579,-1.66021,-0.15803,-1.09829
2.499,5525.778,-2.01818,-0.19773,-1.01033
2.5126,5525.798,-2.05666,-0.27348,-0.59677
2.5326,5525.818,-1.93266,0.10037,0.0147
2.5538,5525.8381,-1.93571,0.56463,0.6219
2.5721,5525.8581,-1.92166,1.00567,1.13381
2.5934,5525.8781,-1.5753,1.25185,1.46367
2.6218,5525.8981,-0.89724,1.51208,1.67626
2.645,5525.9182,-0.35846,1.42228,1.72085
2.6585,5525.9382,-0.20207,0.82119,1.65671
2.6971,5525.9582,-0.0628,0.45406,1.47528
2.7,5525.9783,0.25424,0.67214,1.18879
2.7116,5525.9983,0.57372,0.97757,1.06295
2.7333,5526.0183,0.79608,1.29217,1.08188
2.7516,5526.0383,0.94024,1.49864,1.11609
2.772,5526.0583,1.22918,1.41862,1.14053
2.7946,5526.0783,1.68489,1.34959,1.21689
2.8136,5526.0983,2.02025,1.24269,1.32745
2.8359,5526.1183,1.93046,1.48337,1.43008
2.8584,5526.1383,1.43016,1.48031,1.3806
2.8821,5526.1583,0.79241,1.48642,1.17229
2.8972,5526.1783,0.43139,1.79919,0.88519
2.9161,5526.1983,0.20598,2.25489,0.59014
2.9345,5526.2183,-0.23628,2.48824,0.47896
2.9536,5526.2383,-0.75674,2.4467,0.57181
2.9748,5526.2583,-1.13975,2.20175,0.70681
3,5526.2783,-1.1929,2.01604,0.82471
3.024,5526.2983,-0.95588,1.85844,0.95788
3.0398,5526.3183,-0.70298,1.43144,1.08127
3.0534,5526.3383,-0.6535,0.89816,1.14114
3.0738,5526.3583,-0.67305,0.56463,1.17229
3.096,5526.3783,-0.59669,0.39542,1.20345
3.1199,5526.3983,-0.39633,0.41924,1.15641
3.1736,5526.4183,-0.28393,0.50782,0.91634
3.178,5526.4382,-0.41649,0.20788,0.62801
3.1796,5526.4582,-0.64556,-0.27409,0.38855
3.1941,5526.4782,-0.7378,-0.53371,0.19918
3.2139,5526.4982,-0.54538,-0.77011,0.13199
3.2342,5526.5182,-0.1923,-1.16595,0.06357
3.2518,5526.5382,0.1003,-1.59173,0.00432
3.2735,5526.5582,0.20232,-1.97963,-0.03478
3.2931,5526.5782,0.21454,-2.14395,-0.06593
3.3166,5526.5982,0.297,-2.10363,-0.12702
3.3337,5526.6182,0.44056,-1.93076,-0.27729
3.3518,5526.6382,0.55234,-1.75972,-0.47827
3.372,5526.6582,0.63237,-1.76888,-0.66519
3.3967,5526.6782,0.79486,-1.94908,-0.80752
3.4185,5526.6982,1.06791,-2.10363,-0.94497
3.4513,5526.7182,1.26583,-2.07553,-1.19115
3.4684,5526.7382,1.16443,-1.92954,-1.47398
3.4815,5526.7582,0.84312,-1.76277,-1.69816
3.4942,5526.7782,0.54807,-1.69557,-1.87715
3.5145,5526.7982,0.43567,-1.78904,-1.88142
3.536,5526.8182,0.57128,-2.15861,-1.64441
3.5708,5526.8381,0.92008,-2.53185,-1.38174
3.5774,5526.8581,1.04592,-2.48665,-1.59126
3.5966,5526.8781,0.36725,-2.14945,-1.96022
3.6196,5526.8981,-0.76041,-1.74811,-2.3634
3.635,5526.9181,-1.75795,-1.53125,-2.63645
3.6527,5526.9381,-2.20755,-1.26064,-2.58331
3.673,5526.9581,-2.24053,-0.65222,-2.51489
3.694,5526.9781,-2.18128,-0.3645,-2.41593
3.723,5526.9981,-2.18128,-0.7188,-2.1105
3.7364,5527.0181,-2.33705,-0.7017,-1.56072
3.7567,5527.0381,-2.71273,-0.49095,-0.8399
3.7729,5527.0581,-3.15439,-0.67665,-0.16367
3.7926,5527.0781,-3.29427,-1.26125,0.14421
3.82,5527.0981,-3.6107,-2.07492,-0.71345
3.8405,5527.1181,-3.0878,-0.98025,-0.33655
3.8577,5527.1381,-2.09637,-1.01385,0.35679
3.8793,5527.1581,-1.41098,-1.00346,0.64512
3.9059,5527.1781,-1.09821,-0.28509,0.68726
3.9276,5527.1981,-1.17518,0.24148,1.00553
3.9377,5527.2181,-1.14403,0.38015,1.67748
3.9553,5527.2381,-0.49529,0.54325,2.06232
3.9778,5527.258,-0.38472,1.18588,1.67992
3.9954,5527.278,-0.56982,1.49986,1.43435
4.0125,5527.298,-0.56554,1.1028,1.59073
4.0341,5527.318,-0.35662,0.87739,1.90411
4.0646,5527.338,0.09053,0.87922,1.93343
4.0727,5527.358,0.67635,0.6025,1.57119
4.0977,5527.378,1.42038,0.26286,1.17107
4.1184,5527.398,1.98482,1.1706,1.17901
4.1331,5527.418,2.40937,1.96717,1.60784
4.155,5527.438,2.73313,2.03864,1.93771
4.1734,5527.458,2.87058,2.1315,1.95664
4.1932,5527.478,2.85408,2.52795,1.70741
4.2143,5527.498,1.96528,2.94944,0.96399
4.2349,5527.518,0.5328,2.11439,1.05073
4.2533,5527.538,-0.8728,1.61165,2.20465
4.2727,5527.558,-2.44334,2.19869,3.20342
4.2949,5527.578,-3.98577,2.17792,3.8375
4.3134,5527.598,-4.65162,0.54569,4.08062
4.3416,5527.6181,-4.62291,-2.31316,4.68477
4.358,5527.6381,-4.62474,-2.53429,4.98348
4.3736,5527.6581,-3.98883,-0.29853,3.76114
4.3945,5527.6781,-2.81841,1.71611,3.41356
4.416,5527.6982,-2.0084,1.16266,3.28161
4.4399,5527.7182,-0.91495,1.09852,2.58461
4.4612,5527.7382,0.32144,0.32517,2.00307
4.4799,5527.7583,0.95368,-0.32785,1.48017
4.5037,5527.7783,0.30617,-1.44634,0.91084
4.5196,5527.7983,-0.40733,-2.47504,0.24622
4.5352,5527.8183,-0.64251,-3.01688,-0.08304
4.5535,5527.8384,-1.04996,-3.03398,0.20285
4.5732,5527.8584,-2.02795,-3.00466,1.23582
4.5954,5527.8784,-2.88011,-2.83484,1.78743
4.617,5527.8985,-3.06703,-2.33821,1.72024
4.6419,5527.9185,-1.98641,-3.08346,1.347
4.6584,5527.9385,-0.6535,-3.70166,0.84731
4.6947,5527.9585,0.07098,-3.35163,0.38855
4.6967,5527.9786,-0.53255,-3.60025,0.59625
4.7187,5527.9986,-1.4739,-3.40539,1.04035
4.7334,5528.0186,-2.13974,-3.50984,1.23399
4.7525,5528.0387,-1.99008,-4.35834,1.77338
4.7768,5528.0587,-1.50994,-4.91422,2.36348
4.7956,5528.0787,-1.15564,-5.19278,2.65486
4.8132,5528.0987,-0.79461,-5.2557,2.82652
4.8349,5528.1188,-0.26988,-5.59167,2.62249
4.8533,5528.1388,0.22797,-5.98446,2.15884
4.8733,5528.1588,0.55845,-5.71446,2.20588
4.8951,5528.1788,0.95735,-5.15124,2.31094
4.9175,5528.1988,1.31959,-4.63262,2.32805
4.9368,5528.2188,1.58471,-4.50311,2.29873
4.9592,5528.2388,1.98238,-4.46585,2.06782
4.9785,5528.2588,2.34035,-4.23372,1.98963
5.0125,5528.2788,2.37944,-4.71875,2.47649
5.0197,5528.2988,2.53155,-4.70531,2.7862
5.038,5528.3188,2.53033,-4.42431,2.64814
5.0577,5528.3388,2.68182,-4.70775,2.52719
5.076,5528.3588,3.20044,-4.95698,2.45205
5.0994,5528.3788,3.57246,-4.85558,2.31889
5.1122,5528.3988,3.55536,-4.24533,2.22481
5.1361,5528.4188,3.19434,-3.16715,1.88578
5.1562,5528.4388,2.76673,-2.11768,1.30546
5.1789,5528.4588,2.64761,-1.45795,0.93711
5.1955,5528.4788,2.83148,-0.86541,0.78745
5.2133,5528.4988,3.15952,-0.69437,0.58708
5.2336,5528.5189,3.12775,-0.63023,0.0428
5.2559,5528.5389,2.60424,-0.38099,-0.67435
5.2787,5528.5589,2.09844,0.14557,-0.99078
5.3014,5528.579,1.83638,1.00506,-1.09341
5.324,5528.599,1.76308,1.59149,-1.53323
5.3384,5528.619,1.62502,1.53346,-2.10439
5.3589,5528.639,1.26706,0.87678,-2.50267
5.3819,5528.6591,1.03798,0.0515,-2.88935
5.3988,5528.6791,1.12289,0.11503,-2.84415
5.4172,5528.6991,1.04409,0.29462,-2.93211
5.4383,5528.7192,0.71361,0.33555,-3.40553
5.4572,5528.7392,0.12779,0.06921,-3.61567
5.4787,5528.7592,-0.45375,-0.14703,-3.83069
5.5008,5528.7792,-0.84898,-0.0664,-4.10619
5.5189,5528.7993,-1.22222,0.39969,-4.37314
5.554,5528.8193,-1.7158,0.72895,-4.81236
5.5676,5528.8393,-2.07621,0.48094,-5.26317
5.5756,5528.8594,-2.00107,-0.29486,-5.72682
5.5952,5528.8794,-1.65105,-0.79699,-6.30287
5.6154,5528.8994,-1.51238,-0.70842,-6.64006
5.634,5528.9194,-1.61134,-0.10305,-6.80072
5.6532,5528.9395,-1.81048,0.22499,-7.0695
5.6764,5528.9595,-2.18372,-0.19712,-7.26315
5.6974,5528.9795,-2.10736,-0.57342,-7.26864
5.7229,5528.9996,-1.80865,-0.25393,-7.04446
5.7388,5529.0196,-1.48306,1.13456,-6.4623
5.7552,5529.0396,-1.43052,2.29582,-5.67062
5.7747,5529.0596,-1.47145,2.83338,-5.35847
5.7999,5529.0796,-1.7836,1.83767,-5.81417
5.8263,5529.0996,-2.23259,0.4394,-6.48307
5.8384,5529.1196,-2.45495,0.63549,-6.56065
5.8568,5529.1396,-2.55268,2.53283,-6.12938
5.8736,5529.1596,-3.10307,3.29825,-5.61137
5.8945,5529.1796,-4.11528,2.82116,-5.59732
5.9195,5529.1996,-4.64978,2.28238,-5.72499
5.9382,5529.2196,-4.66445,1.66113,-5.12512
5.9583,5529.2396,-4.11406,0.85173,-3.74945
5.9813,5529.2596,-2.87644,-0.60457,-2.80994
6.0001,5529.2796,-1.1086,-1.61066,-2.06896
6.0172,5529.2995,0.23958,-1.43901,-0.95413
6.0453,5529.3195,0.53646,-1.40053,-0.25591
6.0577,5529.3395,0.41307,-0.8141,-0.25347
6.083,5529.3595,0.81502,-0.49278,0.03364
6.1022,5529.3795,1.36663,-0.76156,0.6384
6.1245,5529.3995,1.73315,-1.91976,0.77218
6.1333,5529.4195,2.096,-2.62287,0.51806
6.1545,5529.4395,2.45763,-2.70228,0.4698
6.1729,5529.4595,2.782,-2.37364,0.79356
6.2039,5529.4795,2.83209,-2.23069,1.32745
6.2189,5529.4995,2.75757,-2.86844,1.6451
6.2338,5529.5195,2.60485,-3.75175,1.45024
6.2543,5529.5395,2.67938,-4.13293,1.09166
6.2744,5529.5595,2.65983,-4.78533,0.88091
6.2973,5529.5795,2.71603,-5.76638,0.63473
6.3165,5529.5995,3.14241,-6.12068,0.50034
6.3348,5529.6195,3.68669,-6.08647,0.54005
6.3552,5529.6395,4.42584,-5.99484,0.55593
6.3766,5529.6595,4.93469,-5.91665,0.08923
6.3951,5529.6795,4.97684,-5.98996,-0.50087
6.4134,5529.6994,4.6989,-6.20437,-0.75316
6.4354,5529.7194,4.66102,-5.92826,-0.64381
6.4611,5529.7394,4.88521,-5.37359,-0.7165
6.4796,5529.7594,4.94691,-4.68148,-1.19176
6.4942,5529.7794,4.87238,-5.40414,-1.1887
6.5166,5529.7994,5.07091,-5.8629,-1.57905
6.5386,5529.8194,5.45698,-5.86717,-2.48129
6.5593,5529.8394,5.34092,-6.00156,-3.24365
6.5999,5529.8594,5.03548,-5.93254,-3.5216
6.6179,5529.8794,5.20653,-5.7505,-3.52526
6.6244,5529.8994,5.45087,-5.5202,-3.43424
6.6404,5529.9194,5.0141,-5.24959,-3.51549
6.6887,5529.9394,3.78321,-4.84336,-3.29863
6.6912,5529.9594,2.30369,-4.28381,-2.53933
6.7042,5529.9794,1.41977,-3.71693,-1.92724
6.7132,5529.9994,0.52241,-3.91485,-1.63952
6.7321,5530.0194,-0.2204,-3.21113,-1.78246
6.7541,5530.0394,-1.12937,-3.1079,-1.49963
6.7726,5530.0594,-1.37982,-2.62042,-1.07386
6.7972,5530.0794,-1.09272,-2.57461,-0.83562
6.8154,5530.0994,-0.93206,-2.6357,-0.44345
6.833,5530.1193,-1.33279,-2.46282,0.12283
6.8554,5530.1393,-1.7048,-2.32049,0.49973
6.8818,5530.1593,-1.99741,-2.37364,-0.00301
6.8982,5530.1793,-2.39936,-2.95335,-0.4239
6.9148,5530.1993,-2.5759,-3.29116,-0.87044
6.9354,5530.2193,-2.26741,-3.65218,-0.99384
6.9536,5530.2393,-1.93388,-3.45731,-0.45261
6.9764,5530.2593,-2.20449,-3.54039,0.54982
6.9983,5530.2793,-2.38714,-3.13966,0.91573
7.0181,5530.2993,-2.44334,-3.23434,1.06111
7.0402,5530.3193,-2.23076,-3.02543,1.35861
7.0647,5530.3393,-2.21121,-3.42921,2.0721
7.0789,5530.3593,-2.19899,-2.98939,2.34332
7.1063,5530.3793,-2.15318,-2.76459,2.46855
7.145,5530.3993,-1.76345,-2.36325,2.29262
7.1488,5530.4194,-1.98397,-2.71511,2.15945
7.1641,5530.4394,-2.72861,-2.92158,2.58583
7.1758,5530.4594,-2.99373,-2.6754,2.90837
7.1944,5530.4795,-3.01816,-2.23314,2.29018
7.2384,5530.4995,-3.20753,-2.49703,2.49909
7.2415,5530.5195,-3.0823,-2.29483,3.29077
7.256,5530.5395,-2.64554,-1.12686,4.17775
7.2734,5530.5596,-2.11897,-1.09448,3.71899
7.2955,5530.5796,-2.32361,-1.35899,3.94562
7.314,5530.5996,-2.83735,-0.8483,4.59436
7.3356,5530.6197,-3.18798,-0.26554,5.42452
7.3575,5530.6397,-3.70844,0.18467,6.03539
7.3801,5530.6597,-3.98822,0.75766,6.41352
7.4063,5530.6797,-3.66629,1.09852,6.23514
7.4179,5530.6998,-3.46104,1.2152,5.50516
7.4344,5530.7198,-3.5374,1.6874,5.61267
7.4553,5530.7398,-3.58688,2.6208,6.73972
7.476,5530.7599,-3.40362,2.81566,7.36524
7.4965,5530.7799,-3.07253,2.15288,5.94926
7.5267,5530.7999,-3.03771,1.83706,5.19545
7.5512,5530.8199,-3.08536,1.91647,4.94255
7.5643,5530.84,-3.0145,2.29887,5.58457
7.5836,5530.86,-3.009,2.29765,6.51309
7.5999,5530.88,-3.4079,1.78636,6.18505
7.6162,5530.9001,-3.82451,1.18038,4.52228
7.642,5530.9201,-3.87887,1.12784,2.89921
7.6629,5530.9401,-4.0432,0.5799,2.10264
7.6749,5530.9601,-4.07252,0.13763,1.54797
7.6998,5530.9801,-3.99494,-0.22522,1.07883
7.7176,5531.0001,-3.90819,-0.44391,0.7398
7.7349,5531.0201,-3.83367,-0.85441,0.41176
7.7605,5531.0401,-3.59849,-1.00346,-0.14534
7.7805,5531.0601,-3.27106,-1.46772,-0.59555
7.8,5531.0801,-2.69563,-1.63021,-0.71711
7.8203,5531.1001,-2.42501,-1.56607,-0.58028
7.8368,5531.1201,-2.38714,-1.40419,-0.71039
7.8547,5531.1401,-1.42136,-1.0224,-0.7446
7.88,5531.1601,-0.46169,-1.14213,-0.61082
7.9098,5531.1801,0.41001,-1.33272,-0.59005
7.92,5531.2001,1.36296,-2.00528,-0.8173
7.9363,5531.2201,2.57064,-3.54772,-1.28155
7.9563,5531.2401,3.5242,-4.40782,-1.99871
7.9743,5531.2601,3.60545,-4.20867,-2.3579
7.9982,5531.2801,3.49366,-3.60147,-1.543
8.0203,5531.3001,3.53764,-3.46708,-0.69879
8.0361,5531.3201,3.3159,-3.71754,-0.89243
8.0731,5531.3401,3.31651,-3.77313,-1.86126
8.0834,5531.36,3.83513,-3.8165,-2.59308
8.1065,5531.38,4.49792,-4.17141,-3.45318
8.1281,5531.4,4.76548,-4.65338,-4.4605
8.1423,5531.42,5.17782,-4.57947,-4.78609
8.162,5531.44,6.01409,-4.57031,-4.73539
8.1752,5531.46,6.61946,-4.68148,-4.83312
8.1952,5531.48,6.90901,-4.45424,-4.84778
8.2153,5531.5,6.80516,-4.54099,-4.93453
8.2375,5531.52,6.40077,-4.77128,-4.98034
8.2546,5531.54,6.6836,-4.0358,-5.1074
8.2731,5531.56,7.87234,-3.79573,-5.4446
8.2933,5531.58,9.23701,-3.96738,-5.88198
8.3146,5531.6,9.52412,-3.13355,-6.40794
8.3335,5531.62,8.73427,-2.35959,-5.95834
8.3537,5531.64,7.90472,-1.78965,-5.46415
8.3798,5531.66,7.39098,-0.58502,-5.52096
8.4044,5531.68,6.8296,-0.0719,-5.12878
8.419,5531.7,6.369,0.59334,-3.93393
8.4391,5531.72,5.32992,0.29279,-3.70791
8.4546,5531.74,3.9512,0.06921,-4.95591
8.474,5531.7599,2.69159,0.4168,-5.54295
8.5023,5531.7799,1.39473,1.1816,-4.92536
8.5178,5531.7999,0.28601,2.12844,-3.09582
8.5346,5531.8199,-0.2711,3.15286,-1.09585
8.5571,5531.8399,-0.63762,3.58597,-0.9242
8.5752,5531.8599,-1.26987,3.04413,-2.2229
8.6023,5531.8799,-1.96014,2.76557,-2.81788
8.6231,5531.8999,-2.72678,3.13515,-1.66396
8.6418,5531.9199,-3.49525,3.11743,-0.44772
8.6587,5531.9399,-4.1165,3.56336,-0.0305
8.6834,5531.9599,-4.36757,3.98303,-0.65053
8.7022,5531.9799,-4.1501,4.18217,-1.24429
8.7312,5532,-3.79152,4.11375,-1.2614
8.7431,5532.02,-4.33885,3.79671,-1.50208
8.7539,5532.04,-5.0102,2.81811,-2.42693
8.7747,5532.06,-4.72859,2.33736,-2.50451
8.7953,5532.0801,-4.40238,2.126,-2.05185
8.8154,5532.1001,-4.42743,2.21824,-1.87348
8.8351,5532.1201,-3.9815,2.24267,-1.81606
8.8692,5532.1402,-3.1666,2.19564,-2.09889
8.8835,5532.1602,-2.76038,1.5585,-2.93456
8.8957,5532.1802,-2.81108,0.64831,-3.86551
8.9179,5532.2002,-3.80374,-0.35839,-4.50326
8.9426,5532.2203,-4.16293,-0.06029,-4.29006
8.9598,5532.2403,-4.03953,0.40275,-3.47334
8.9774,5532.2604,-3.85871,0.14557,-3.08605
8.997,5532.2804,-3.7622,-0.8141,-3.0103
9.0201,5532.3005,-3.35414,-1.23193,-3.01397
9.0396,5532.3205,-2.85934,-0.63817,-3.44096
9.0571,5532.3406,-2.66508,0.36732,-3.2351
9.0829,5532.3607,-2.24603,0.94214,-2.25222
9.1051,5532.3807,-1.91861,0.60067,-0.65847
9.1224,5532.4008,-2.17822,-0.72369,0.8467
9.14,5532.4208,-1.46901,-0.49278,1.34089
9.1588,5532.4409,-0.31936,-1.73284,1.81798
9.1756,5532.461,1.41733,-3.55627,2.63226
9.1949,5532.481,3.19922,-3.7603,3.1014
9.224,5532.5011,3.91332,-4.84275,2.84545
9.241,5532.5212,3.69708,-6.22209,2.53391
9.2619,5532.5412,4.17233,-6.35648,2.88088
9.2801,5532.5613,4.89804,-5.96308,3.40623
9.297,5532.5813,5.35374,-6.38091,3.21258
9.3167,5532.6013,5.46675,-5.65215,2.51681
9.3394,5532.6214,5.79479,-5.58068,2.09225
9.357,5532.6414,6.12832,-6.08403,1.56691
9.3779,5532.6614,5.83083,-6.62831,0.79417
9.3993,5532.6814,6.2566,-5.70407,0.62801
9.4154,5532.7015,6.51928,-5.25448,1.06417
9.4347,5532.7215,5.90169,-4.88551,1.34517
9.4608,5532.7415,5.4637,-5.13108,1.14053
9.4753,5532.7616,5.3739,-5.14452,0.79844
9.4959,5532.7816,4.49914,-5.63566,0.22606
9.5167,5532.8016,2.54438,-5.19278,-0.41779
9.5353,5532.8216,0.99583,-4.12743,-0.91748
9.5554,5532.8417,0.12779,-3.90141,-0.72322
9.5774,5532.8617,-0.23689,-4.1537,0.15826
9.6051,5532.8817,-1.38532,-5.56235,1.83814
9.6185,5532.9017,-1.88134,-2.42617,1.70313
9.6395,5532.9217,-2.96685,-1.82325,0.78012
9.6566,5532.9417,-3.38163,-2.17755,0.09656
9.6936,5532.9616,-3.5991,-2.58805,0.27982
9.7078,5532.9816,-2.96013,-3.58437,1.19245
9.7252,5533.0016,-2.69563,-5.50493,2.03117
9.739,5533.0216,-2.34621,-1.4384,1.46245
9.7588,5533.0416,-3.17882,-1.26858,0.48568
9.7759,5533.0616,-3.05909,-1.50682,-0.04455
9.7955,5533.0816,-2.45983,-1.75239,-0.24736
9.8175,5533.1016,-2.35965,-2.50497,0.69337
9.8354,5533.1216,-3.31443,-3.24901,2.40074
9.8556,5533.1416,-4.59664,-3.17876,3.46059
9.8815,5533.1616,-4.8642,-1.06822,2.88577
9.8989,5533.1816,-4.84893,-1.48788,2.01284
9.9213,5533.2016,-4.74264,-1.89594,1.63472
9.9429,5533.2216,-4.37551,-2.02239,1.75567
9.9578,5533.2416,-4.00593,-1.56852,2.15945
9.9834,5533.2616,-4.3022,-1.31928,3.24068
9.9974,5533.2816,-5.00897,-0.92894,4.78495
10.016,5533.3016,-4.88252,-0.30586,4.77456
10.0389,5533.3216,-5.08411,0.316,4.16248
10.0684,5533.3416,-5.33273,0.51087,4.24678
10.087,5533.3616,-5.64366,0.78209,5.32862
10.1041,5533.3816,-5.8538,1.38563,6.13313
10.127,5533.4015,-5.47201,1.10952,6.19055
10.1352,5533.4215,-4.74813,1.32943,5.74279
10.1673,5533.4416,-4.27227,1.6538,5.496
10.1804,5533.4616,-3.93507,2.30132,5.98224
10.1981,5533.4816,-3.07375,1.85905,5.6255
10.2163,5533.5017,-1.98702,2.03192,4.6976
10.2409,5533.5217,-1.34317,2.55544,5.42514
10.2559,5533.5417,-1.39143,3.87063,7.00667
10.276,5533.5617,-1.21978,4.54441,8.53505
10.2976,5533.5818,-0.63823,3.21884,8.40249
10.3155,5533.6018,0.29273,2.27077,7.42877
10.336,5533.6218,0.90237,2.21396,6.71162
10.3595,5533.6419,0.98239,2.32881,6.68596
10.378,5533.6619,1.19131,1.49436,6.69024
10.4074,5533.6819,1.81561,0.55119,5.70308
10.4243,5533.7019,1.3764,0.44795,4.93583
10.4465,5533.722,0.3361,0.5292,4.73241
10.4587,5533.742,-0.03531,0.92565,5.03235
10.4784,5533.762,0.49065,0.39664,5.67742
10.5034,5533.7821,1.68183,-1.55935,5.15269
10.522,5533.8021,1.54866,-1.74689,4.18569
10.5397,5533.8221,0.12046,-0.30647,4.02564
10.5575,5533.8421,-0.39144,1.13151,4.78861
10.5821,5533.8622,0.36175,1.56583,5.94437
10.6062,5533.8822,1.58287,0.70024,6.19177
10.6231,5533.9022,2.12105,-2.37608,4.88819
10.6391,5533.9223,1.73681,-3.77435,3.18387
10.6873,5533.9423,1.3202,-2.42067,3.46243
10.6901,5533.9623,0.21331,-1.21543,4.46241
10.7,5533.9823,-0.18192,-1.37731,4.6249
10.7171,5534.0024,0.52608,-1.86723,3.33659
10.7359,5534.0224,0.71239,-2.8721,2.22176
10.7612,5534.0424,0.44972,-4.02725,1.44779
10.7777,5534.0624,0.12779,-4.66377,1.25232
10.7981,5534.0824,-0.29432,-4.72791,2.01834
10.8161,5534.1024,-0.81172,-4.63017,2.71106
10.8389,5534.1224,-1.00231,-4.93927,2.39647
10.8624,5534.1424,-0.97665,-5.42002,1.85463
10.881,5534.1624,-1.10738,-6.31921,1.69397
10.9013,5534.1824,-1.12143,-7.04065,2.12769
10.9216,5534.2024,-0.27721,-6.95207,2.39891
10.9415,5534.2223,0.60427,-6.62159,2.49298
10.9627,5534.2423,0.79241,-6.13168,2.52841
10.9809,5534.2623,1.10029,-6.40596,2.45877
10.9998,5534.2823,1.09052,-6.02478,2.25597
11.0247,5534.3023,0.84861,-5.81342,1.85524
11.04,5534.3223,0.52913,-5.71385,1.58218
11.0575,5534.3423,0.09786,-4.39682,0.67138
11.0781,5534.3623,-0.54844,-3.52512,-0.38847
11.1093,5534.3823,-0.83004,-3.87392,-0.90954
11.1349,5534.4023,-1.98397,-5.05106,0.06113
11.1425,5534.4223,-3.33276,-3.81161,0.70865
11.1762,5534.4424,-4.10428,-3.34125,1.35555
11.1856,5534.4624,-3.70294,-2.25024,1.22055
11.1996,5534.4824,-2.62477,-0.66871,0.12344
11.2179,5534.5024,-1.57225,-1.04561,-0.92298
11.2373,5534.5225,-3.11529,-3.08713,-0.39397
11.2586,5534.5425,-4.37917,-4.47013,0.25905
11.2832,5534.5625,-4.3248,-4.13904,0.8748
11.2975,5534.5826,-3.67118,-1.88494,0.94688
11.3189,5534.6026,-2.51786,0.35266,-0.67558
11.3372,5534.6226,-1.22894,0.25247,-1.44832
11.3575,5534.6426,-0.56432,-0.9998,-0.45933
11.379,5534.6627,-2.87522,-2.30827,1.21322
11.406,5534.6827,-4.74813,-3.84216,1.97253
11.4245,5534.7027,-5.14642,-3.76213,1.83936
11.4438,5534.7228,-4.54655,-0.45002,0.73064
11.4587,5534.7428,-4.44759,-1.22582,0.74591
11.4792,5534.7628,-3.87582,-1.0841,1.24071
11.5009,5534.7828,-3.70722,0.17184,2.15212
11.518,5534.8029,-4.03281,1.46199,3.23518
11.5452,5534.8229,-5.35045,2.11012,4.42943
11.5655,5534.8429,-6.45062,2.9751,4.7257
11.5799,5534.863,-6.43657,3.39599,4.77945
11.5995,5534.883,-5.83853,3.27931,3.89247
11.6234,5534.903,-5.50805,3.28603,2.87661
11.6395,5534.923,-5.50133,3.85719,2.94624
11.6586,5534.9431,-5.74384,4.11131,3.48625
11.6833,5534.9631,-5.56669,3.92744,3.41539
11.6986,5534.9831,-4.9656,4.195,2.95419
11.7185,5535.0032,-4.53922,4.90666,3.0953
11.7399,5535.0232,-4.14154,5.45216,3.95906
11.7583,5535.0431,-3.3407,5.09664,4.42515
11.7809,5535.0631,-2.41463,4.97263,4.38972
11.8119,5535.0831,-1.8899,5.51874,4.59802
11.8234,5535.1031,-2.05727,4.4986,4.8552
11.8397,5535.1231,-1.75428,3.71975,4.62612
11.8595,5535.1431,-0.68527,2.63057,4.67377
11.8773,5535.1631,0.71361,1.21764,4.34452
11.8992,5535.1831,1.49491,0.87189,4.30481
11.923,5535.2031,1.42344,2.33858,5.14231
11.9419,5535.2231,0.94269,3.62323,6.17833
11.9645,5535.2431,0.57433,2.95677,6.7947
11.9965,5535.2632,1.42649,0.52553,6.70551
12.0148,5535.2832,2.80094,-2.25574,6.14107
12.0346,5535.3032,2.22306,-1.76949,5.98835
12.0441,5535.3232,0.96895,-1.0224,5.36588
12.0804,5535.3433,0.51142,-1.7475,4.85337
12.0862,5535.3633,0.97934,-2.02361,5.24249
12.1006,5535.3833,1.02027,-1.29607,5.43919
12.1205,5535.4034,0.74782,-0.75057,4.7654
12.1374,5535.4234,0.77959,-0.2747,3.76053
12.1596,5535.4434,0.92864,0.79614,3.40867
12.1823,5535.4634,1.34708,1.27262,3.14844
12.1992,5535.4835,1.40389,0.57929,2.33599
12.2335,5535.5035,1.22185,-1.04073,0.44781
12.2498,5535.5235,0.93841,-2.18793,-1.64502
12.2657,5535.5436,0.31838,-2.37669,-3.60467
12.2815,5535.5636,-0.69443,-0.67482,-5.03104
12.3,5535.5836,-1.44946,0.5518,-5.27906
12.3196,5535.6036,-1.20634,0.55302,-5.10313
12.3453,5535.6237,-1.21306,-0.94849,-5.67612
12.365,5535.6437,-1.62478,-1.18917,-7.27109
12.3806,5535.6637,-2.39019,0.75216,-9.17393
12.4003,5535.6838,-2.94608,0.63732,-9.35902
12.4182,5535.7038,-3.20631,-0.17024,-9.30344
12.4376,5535.7238,-2.98945,-0.25638,-9.21242
12.4597,5535.7438,-2.99129,-0.34801,-8.79214
12.4784,5535.7639,-3.34131,-0.77011,-8.00779
12.5002,5535.7839,-3.78236,-0.8422,-7.17579
12.5324,5535.8039,-3.78297,-0.55387,-6.45925
12.5389,5535.824,-3.23074,0.68741,-5.62786
12.5618,5535.8439,-2.67486,0.57318,-4.8991
12.5833,5535.8639,-1.84897,0.39725,-4.7586
12.6022,5535.8839,-0.94977,0.01179,-5.05548
12.6223,5535.9039,-0.35235,0.05272,-5.51485
12.6407,5535.9239,-0.52767,-0.1959,-5.52218
12.6777,5535.9439,-0.9174,-0.54837,-5.08969
12.6805,5535.9639,-1.09455,-0.32418,-4.41835
12.7001,5535.9839,-0.97848,-0.16352,-4.07626
12.7171,5536.0039,-0.49346,-0.11343,-4.42201
12.7367,5536.0239,0.18582,0.07593,-4.65048
12.7592,5536.0439,1.18948,0.42535,-4.10009
12.7778,5536.0639,1.7979,-0.18674,-3.29863
12.7973,5536.0839,2.08317,-0.95093,-3.05184
12.8193,5536.1039,2.24322,-0.10794,-3.25954
12.8375,5536.1239,2.31897,0.5518,-3.34261
12.8611,5536.1439,2.19801,0.60128,-2.75924
12.8823,5536.1639,2.0062,0.27935,-1.90341
12.9007,5536.1839,2.13082,0.62693,-1.45015
12.9191,5536.2039,2.61524,0.80286,-1.06164
12.9406,5536.2239,3.1247,0.50049,0.25477
12.9598,5536.2439,3.42524,0.1022,2.20771
12.986,5536.2638,3.73556,-0.86846,3.41844
13.0071,5536.2838,4.02511,-1.20444,3.30299
13.0179,5536.3038,3.60667,-0.39504,2.95724
13.0484,5536.3238,2.72397,0.46261,3.42516
13.06,5536.3438,2.19313,0.37404,5.08977
13.0873,5536.3638,2.58714,-1.43351,5.97858
13.1046,5536.3838,3.61278,-2.1916,5.52776
13.1212,5536.4038,4.29023,-0.95032,3.99266
13.1389,5536.4238,4.03489,0.69963,2.51253
13.1586,5536.4438,3.28841,1.22314,2.5785
13.1808,5536.4638,2.72641,1.20726,4.00243
13.2016,5536.4838,2.22795,1.2207,6.47277
13.2239,5536.5038,2.24872,0.67947,8.16487
13.2442,5536.5238,2.99764,-0.00898,7.9926
13.2585,5536.5438,4.42034,-0.02608,5.53082
13.2797,5536.5638,5.01838,0.30562,3.44043
13.3039,5536.5838,4.43867,1.48092,3.04215
13.3222,5536.6038,3.40203,3.20051,4.16003
13.3387,5536.6238,2.22367,2.52123,5.43735
13.361,5536.6438,2.05629,2.1376,5.45812
13.382,5536.6637,2.36661,2.61469,5.01524
13.4025,5536.6837,2.24994,2.58109,4.74952
13.421,5536.7037,2.4668,2.36546,4.80816
13.4397,5536.7237,3.39714,1.85661,4.27243
13.4609,5536.7437,3.80459,2.00688,3.31765
13.4835,5536.7637,3.2316,2.00566,3.13073
13.5064,5536.7837,3.0459,1.5585,2.9102
13.5232,5536.8037,3.09904,1.22864,2.27551
13.5409,5536.8237,2.65616,1.25368,1.70313
13.5579,5536.8437,2.11799,1.54568,1.04218
13.5787,5536.8637,1.60181,1.58172,-0.02256
13.6042,5536.8837,1.15649,1.59516,-1.42633
13.6206,5536.9037,0.47293,1.60921,-2.40982
13.6411,5536.9237,-0.34074,1.55423,-2.61141
13.6615,5536.9437,-0.5295,0.89572,-2.52894
13.6779,5536.9637,-0.09456,0.13152,-2.40188
13.6985,5536.9837,0.36175,-0.74751,-2.47518
13.7213,5537.0037,0.33976,-0.98453,-3.0494
13.7415,5537.0237,-0.50751,-0.13543,-4.08115
13.7611,5537.0437,-1.57774,1.53896,-5.16971
13.7846,5537.0637,-2.32178,2.02032,-5.48675
13.8053,5537.0836,-2.32789,0.93237,-5.22958
13.8229,5537.1036,-1.88806,0.53897,-5.67429
13.8431,5537.1236,-2.03223,0.68619,-6.33952
13.8644,5537.1437,-2.48427,1.12418,-6.39083
13.8879,5537.1637,-2.43845,0.53286,-6.27843
13.9104,5537.1837,-2.42868,0.42168,-6.8221
13.9243,5537.2038,-2.47572,0.88533,-7.29247
13.9412,5537.2238,-2.55696,0.9232,-7.064
13.9607,5537.2438,-2.39997,0.44551,-6.41099
13.9781,5537.2638,-1.66632,-0.09022,-5.55211
13.9992,5537.2839,-0.57043,-0.10916,-4.76043
14.0272,5537.3039,0.24508,-0.25027,-4.0561
14.0592,5537.3239,0.36542,-0.48423,-3.76044
14.0625,5537.3439,0.08992,-0.72491,-3.6456
14.0814,5537.364,-0.03225,-0.62778,-3.64499
14.0995,5537.384,0.2011,-0.38649,-3.5442
14.1188,5537.404,0.47415,-0.23011,-3.14286
14.1403,5537.4241,0.77409,-0.45002,-2.58819
14.1601,5537.4441,1.22613,-0.22828,-2.46236
14.1789,5537.4641,1.74475,-0.08595,-2.66577
14.2049,5537.4841,2.26826,0.05272,-2.37195
14.2222,5537.5042,2.76123,0.17428,-1.70305
14.2397,5537.5242,3.01047,-0.09877,-0.68352
14.2619,5537.5442,2.89807,-0.39504,0.36412
14.2795,5537.5643,2.51017,-0.46285,1.68542
14.3129,5537.5843,2.03491,-0.26982,3.25473
14.3234,5537.6043,1.64029,-0.11771,4.88757
14.3401,5537.6243,1.25117,-0.63756,5.7941
14.361,5537.6444,1.02027,-0.4769,5.45262
14.3806,5537.6644,0.81135,-0.45796,4.7599
14.3994,5537.6844,0.66413,-0.78355,3.96517
14.4258,5537.7045,0.79364,-0.06212,3.33109
14.4436,5537.7245,0.90726,0.47788,3.47159
14.4591,5537.7446,0.98056,0.34471,4.24128
14.4822,5537.7646,1.17482,-0.86297,4.78495
14.5034,5537.7846,1.42344,-1.41885,4.77579
14.5242,5537.8046,1.77957,-1.53675,5.19056
14.5446,5537.8247,2.11494,-0.35961,5.7379
14.5684,5537.8447,1.99399,0.39969,6.11236
14.5918,5537.8647,1.82355,-0.32663,5.94315
14.6103,5537.8848,1.87242,-0.94665,5.00792
14.6261,5537.9048,1.8486,-0.67543,4.27732
14.6547,5537.9248,1.5676,0.90671,4.38789
14.6671,5537.9448,1.17909,1.9464,4.78861
14.7125,5537.9649,1.25973,1.82728,4.83871
14.7157,5537.9849,1.5731,0.55119,4.37995
14.7291,5538.0049,1.96955,-0.61007,3.5791
14.7406,5538.025,1.84982,-0.22034,2.65059
14.758,5538.045,0.93108,0.8163,1.88273
14.7784,5538.065,0.38985,1.33309,1.2963
14.8019,5538.085,0.69284,1.72771,1.10082
14.8193,5538.1051,1.31837,2.2048,0.66344
14.8395,5538.1251,1.32264,2.61774,-0.30234
14.8619,5538.1451,0.7747,3.48701,-1.8747
14.8796,5538.1652,0.42589,4.01235,-3.22472
14.903,5538.1852,-0.26683,3.59513,-4.57534
14.9248,5538.2052,-0.70726,2.32819,-5.21064
14.9454,5538.2252,-0.31264,0.93176,-5.26501
14.9601,5538.2453,0.12107,1.23108,-5.16116
14.9928,5538.2653,-0.42015,1.94396,-4.94247
15.013,5538.2853,-0.85937,1.80652,-4.80441
15.0267,5538.3053,-0.78912,1.65258,-4.98279
15.0417,5538.3253,-0.54844,1.32576,-4.88566
15.0697,5538.3453,0.02944,0.98551,-4.32
15.0882,5538.3653,0.40085,0.19627,-3.57169
15.1028,5538.3854,-0.43543,0.10037,-3.18318
15.1214,5538.4054,-1.17213,0.8047,-3.74029
15.1437,5538.4254,-1.2546,0.65687,-4.01456
15.1623,5538.4454,-0.3554,0.16756,-2.58697
15.1864,5538.4655,0.69773,0.0234,-0.86311
15.2038,5538.4855,1.11556,0.28546,0.45575
15.225,5538.5055,0.30433,-0.10733,1.59379
15.2437,5538.5256,-0.17764,-0.05785,1.89495
15.2623,5538.5456,0.05266,0.31234,1.71108
15.2871,5538.5657,0.3251,0.15596,1.8699
15.3103,5538.5857,0.66596,0.07593,2.3085
15.3286,5538.6058,0.34098,-0.47629,2.79658
15.3465,5538.6259,-0.11961,-1.22704,2.88271
15.3655,5538.6459,-0.06768,-1.65709,2.56873
15.3856,5538.666,0.20232,-2.05537,2.20832
15.4058,5538.6861,0.51325,-0.58808,1.39709
15.4256,5538.7061,0.15223,0.18956,0.931
15.4488,5538.7262,0.20232,0.338,1.49788
15.4733,5538.7462,0.57861,-0.70109,2.22726
15.4839,5538.7663,0.70139,-2.20137,2.23153
15.5063,5538.7864,0.93475,-3.12011,1.67992
15.5273,5538.8064,0.8926,-3.68455,1.31951
15.5457,5538.8265,1.05875,-2.94541,1.14419
15.5636,5538.8466,1.04043,-2.58255,0.91451
15.5862,5538.8666,0.84984,-2.95274,0.70559
15.6021,5538.8867,0.62443,-3.0859,0.31525
15.6214,5538.9067,0.32449,-2.35042,-0.03417
15.6431,5538.9268,0.10886,-1.55996,-0.07571
15.661,5538.9469,0.03494,-1.21727,0.09289
15.6816,5538.9669,0.4375,-1.30829,-0.21376
15.7031,5538.9869,0.84128,-0.82815,-1.02071
15.7231,5539.007,0.25302,0.28241,-1.74459
15.7629,5539.027,0.23347,0.61899,-1.82767
15.7715,5539.047,1.06914,0.50782,-1.80445
15.7843,5539.0671,1.59265,-0.29058,-2.17036
15.8098,5539.0872,1.08319,-0.60762,-2.77878
15.8274,5539.1072,0.29273,-0.16597,-3.58635
15.8462,5539.1273,-0.33219,0.30745,-4.09581
15.8658,5539.1473,-0.97604,0.31784,-3.98036
15.8881,5539.1673,-1.18312,0.25431,-3.77511
15.909,5539.1874,-1.03224,0.22132,-3.43974
15.9324,5539.2074,-0.9119,0.40091,-3.19662
15.9507,5539.2274,-0.84348,0.58906,-3.31512
15.9663,5539.2475,-0.81233,0.35754,-3.25892
16.0015,5539.2675,-0.78362,0.42963,-2.76535
16.0233,5539.2875,-0.71642,0.28302,-2.35057
16.0323,5539.3075,-0.70665,0.28057,-3.05123
16.0427,5539.3276,-0.86303,0.00691,-3.89972
16.0741,5539.3476,-1.086,-0.09572,-4.08909
16.0849,5539.3676,-1.1086,-0.15436,-3.67492
16.114,5539.3877,-1.04079,-0.51722,-3.43058
16.1257,5539.4077,-0.90946,-0.5948,-3.2968
16.1417,5539.4277,-0.81172,-0.78294,-2.97793
16.1627,5539.4477,-0.72498,-1.23743,-2.85881
16.1879,5539.4678,-0.41038,-1.85684,-2.76596
16.2022,5539.4878,0.04288,-2.62226,-3.01336
16.2238,5539.5078,0.6733,-3.24656,-3.58696
16.2435,5539.5279,1.32509,-3.82994,-3.93821
16.2627,5539.5479,2.19801,-3.82811,-3.90155
16.2877,5539.5679,3.59995,-2.54285,-3.9883
16.3053,5539.5879,5.04098,-2.34309,-3.97058
16.3227,5539.608,6.21506,-2.21481,-3.95898
16.3498,5539.628,6.99208,-1.63632,-3.66637
16.3642,5539.648,7.52965,-1.01996,-3.09888
16.3827,5539.668,8.04827,-0.31624,-2.23756
16.4026,5539.688,8.64631,0.74361,-1.42633
16.4246,5539.708,8.66769,1.36791,-1.55583
16.4467,5539.728,8.32805,1.19321,-2.14776
16.4672,5539.748,8.32377,1.31966,-2.69265
16.4886,5539.768,8.75077,1.67762,-3.31207
16.5099,5539.788,9.18631,1.2268,-3.23388
16.5242,5539.808,9.70066,1.88348,-2.84109
16.5542,5539.828,9.87354,1.13456,-3.43241
16.5646,5539.848,9.69333,-0.00103,-4.72683
16.5823,5539.868,9.11973,0.04478,-5.35358
16.604,5539.888,8.26146,1.59699,-4.68652
16.6447,5539.908,6.04402,3.09544,-2.75557
16.6509,5539.928,4.29328,2.72892,-3.91744
16.6662,5539.9479,2.80277,2.09423,-5.32548
16.6983,5539.9679,2.00315,1.84378,-5.3377
16.7121,5539.9879,1.08746,2.72526,-4.20271
16.723,5540.0079,0.00318,3.82359,-3.4092
16.7414,5540.0279,-1.00842,3.78633,-3.20089
16.7676,5540.0479,-1.23688,4.29335,-2.86125
16.7865,5540.0679,-1.58141,5.02639,-2.66639
16.8074,5540.0879,-2.82085,4.75333,-3.12881
16.8247,5540.1079,-4.10489,4.35382,-3.65354
16.8454,5540.128,-4.3975,4.76371,-4.17156
16.8642,5540.148,-4.54655,5.30311,-4.50753
16.8846,5540.168,-4.56732,5.22675,-4.11108
16.9112,5540.1881,-4.35474,4.75455,-3.89667
16.9267,5540.2081,-4.19958,3.48884,-4.09642
16.9428,5540.2281,-4.32358,2.99465,-3.79832
16.9651,5540.2481,-4.42682,3.03435,-3.48678
16.9814,5540.2682,-4.22218,2.87064,-3.6963
17.0017,5540.2882,-4.06213,1.86516,-4.11169
17.025,5540.3082,-4.33641,1.37586,-4.2864
17.0429,5540.3283,-4.4653,1.3447,-4.46783
17.0667,5540.3483,-4.3584,1.44855,-4.76104
17.0841,5540.3683,-4.35901,1.56522,-5.17154
17.1049,5540.3883,-4.8025,1.34409,-5.31693
17.123,5540.4084,-5.41886,0.69657,-4.75738
17.1454,5540.4284,-5.58196,0.95925,-4.35482
17.1633,5540.4485,-5.2295,2.98915,-4.92842
17.1846,5540.4686,-4.77684,4.00807,-4.91376
17.2045,5540.4886,-4.31198,3.27687,-4.74821
17.223,5540.5087,-4.30892,0.2763,-4.82518
17.2449,5540.5287,-4.39078,-1.61128,-4.5393
17.2654,5540.5488,-4.32358,-1.74261,-3.59246
17.2898,5540.5689,-4.10062,-0.07556,-2.90462
17.3078,5540.5889,-4.04197,0.86334,-2.47518
17.3323,5540.609,-4.18003,0.57868,-2.19907
17.3448,5540.629,-4.24173,0.10831,-2.16487
17.3666,5540.6491,-4.13788,0.01057,-1.75925
17.3879,5540.6692,-3.64613,0.75338,-0.75438
17.41,5540.6892,-2.89049,2.20663,0.18147
17.4316,5540.7093,-2.22404,2.93539,0.59625
17.4525,5540.7293,-2.18983,0.27996,0.46552
17.4664,5540.7493,-1.96625,-2.6809,-0.46666
17.4855,5540.7693,-0.6816,-3.57521,-0.66458
17.5088,5540.7894,-0.1642,-1.95886,-0.39397
17.5253,5540.8094,-0.10189,-0.44025,-0.06104
17.546,5540.8294,0.27623,-0.48667,0.60419
17.5656,5540.8495,1.31165,-1.18123,0.66405
17.5874,5540.8695,2.17786,-1.69313,0.46308
17.6065,5540.8895,2.62073,-1.91488,0.51072
17.6248,5540.9095,2.88524,-1.53919,0.92428
17.6438,5540.9296,2.99275,-1.37182,1.2572
17.6638,5540.9496,3.00008,-1.5172,1.02568
17.6906,5540.9696,2.95976,-1.94175,0.52294
17.7129,5540.9897,2.90845,-2.39196,0.12038
17.7295,5541.0097,3.04406,-2.57889,0.12099
17.7464,5541.0297,3.4118,-2.48726,0.20651
17.7657,5541.0497,3.74106,-2.23619,0.2786
17.7855,5541.0697,4.12407,-2.10791,0.56387
17.8183,5541.0897,4.58039,-2.40723,0.75446
17.8281,5541.1097,4.84184,-3.14516,0.84609
17.8505,5541.1297,4.97745,-3.26977,0.64878
17.8695,5541.1497,5.37696,-3.31742,0.34274
17.8853,5541.1696,5.49302,-3.46708,0.5205
17.9051,5541.1896,5.94751,-3.47075,1.04035
17.9265,5541.2096,6.8467,-3.36018,1.38304
17.9484,5541.2296,7.35005,-3.64668,1.09349
17.9713,5541.2497,7.17718,-3.30765,0.60724
18.0205,5541.2697,6.92794,-2.23802,0.93039
18.0294,5541.2897,7.00919,-1.39808,1.98596
18.0379,5541.3097,7.09899,-1.27347,2.40502
18.0483,5541.3298,6.80638,-1.67908,2.18877
18.0674,5541.3499,6.62984,-2.3211,1.82409
18.0915,5541.3699,6.63962,-3.54833,1.36349
18.1089,5541.39,6.78683,-3.83971,0.76301
18.1252,5541.4101,6.72392,-3.4903,0.42276
18.1446,5541.4301,6.43437,-3.49641,0.6555
18.1672,5541.4502,6.43742,-3.55444,0.82899
18.185,5541.4702,6.8974,-3.39439,1.01347
18.2056,5541.4903,6.53516,-3.57399,0.78256
18.2353,5541.5104,5.18515,-3.94417,0.24561
18.2502,5541.5305,3.57735,-3.76946,0.1271
18.2695,5541.5506,2.32446,-3.00832,0.515
18.2946,5541.5707,1.03187,-2.82934,0.93039
18.3146,5541.5907,-0.11289,-3.37118,1.1839
18.3288,5541.6108,-0.70787,-4.45363,1.29691
18.3504,5541.6309,-0.96382,-5.90199,1.98658
18.3726,5541.651,-1.65654,-5.24592,2.13135
18.3889,5541.6711,-2.8123,-2.56178,1.07455
18.4115,5541.6912,-2.85262,-1.81836,1.41053
18.4285,5541.7113,-2.25397,-1.82691,2.05988
18.4487,5541.7314,-1.97481,-2.574,2.50581
18.4699,5541.7515,-2.40669,-2.99733,2.44167
18.4886,5541.7716,-3.38774,-1.49032,1.65488
18.5089,5541.7917,-3.72371,-2.01017,2.33782
18.5306,5541.8118,-3.38346,-2.25818,2.87783
18.5516,5541.8319,-2.75855,-3.06025,3.19303
18.5776,5541.852,-2.5313,-2.30644,2.2749
18.5899,5541.872,-3.16599,-2.28017,2.5443
18.6085,5541.8921,-3.87704,-1.27469,4.06596
18.633,5541.9121,-4.64184,-1.38587,4.76968
18.6489,5541.9322,-4.9656,-2.55751,3.7306
18.6764,5541.9522,-4.77746,-1.51415,2.7245
18.6883,5541.9723,-4.8025,-0.87091,4.03725
18.7097,5541.9923,-5.15558,-0.95704,4.39338
18.7266,5542.0124,-5.70047,-1.0731,3.93279
18.7466,5542.0325,-6.25514,0.42046,4.04397
18.7701,5542.0525,-6.51537,0.47116,4.63834
18.7914,5542.0726,-6.85623,0.27813,5.27242
18.8164,5542.0927,-7.11707,0.44062,5.65665
18.8345,5542.1127,-7.14517,1.02705,5.34878
18.8571,5542.1327,-6.83057,1.81568,5.67987
18.8743,5542.1528,-6.45428,2.95983,6.31272
18.8941,5542.1728,-5.88801,3.88346,6.18322
18.9089,5542.1928,-5.38038,4.4369,5.69086
18.9288,5542.2129,-4.64551,5.18216,5.62
18.9502,5542.2329,-4.03403,5.93413,5.78738
18.9689,5542.2529,-4.07191,5.28723,5.27914
19.009,5542.2729,-3.83245,4.54808,4.60719
19.0241,5542.293,-3.43538,3.75151,4.38178
19.0365,5542.313,-2.6883,2.30315,4.25594
19.0513,5542.333,-1.63944,1.71427,3.86132
19.0881,5542.3531,-0.91068,3.70081,3.54428
19.093,5542.3731,-0.80194,4.47355,4.26266
19.1129,5542.3931,-0.75369,3.77289,4.94683
19.128,5542.4131,-0.47147,2.33003,4.54977
19.1491,5542.4332,0.29334,2.44304,3.35186
19.1668,5542.4532,0.41001,1.88104,2.64142
19.1893,5542.4732,0.38374,-0.05723,2.41907
19.2086,5542.4933,0.78997,0.1865,2.21443
19.2317,5542.5133,1.07402,1.1706,2.60783
19.252,5542.5333,1.7307,0.85295,4.06352
19.2679,5542.5533,2.75573,-0.30525,5.53815
19.2881,5542.5733,3.14791,-1.49277,6.06532
19.3118,5542.5933,2.87669,-1.85807,5.78799
19.329,5542.6133,2.31958,-2.69129,5.67254
19.349,5542.6333,1.83394,-2.7261,5.48867
19.3745,5542.6533,1.32998,-1.22032,5.05312
19.3917,5542.6733,1.60059,-0.45124,4.67499
19.4172,5542.6933,2.17602,-0.89351,4.46608
19.4323,5542.7133,2.28231,-1.27286,4.43614
19.4479,5542.7333,1.84432,-0.75545,4.85581
19.4686,5542.7533,1.21635,-1.27408,5.65482
19.4926,5542.7733,0.75821,-1.54469,5.98041
19.5141,5542.7933,0.01906,-1.85562,6.61816
19.5349,5542.8132,-0.70115,-2.88737,6.30112
19.5498,5542.8332,-0.55882,-3.41211,5.56319
19.5694,5542.8532,-0.26622,-3.3724,6.07021
19.5898,5542.8732,-0.3945,-3.55749,6.78675
19.6125,5542.8932,-0.64495,-4.14514,6.65359
19.631,5542.9132,-1.0133,-4.2887,6.30295
19.6482,5542.9332,-1.24971,-3.71387,6.14351
19.6754,5542.9532,-1.5136,-3.82078,5.60778
19.6919,5542.9732,-1.22405,-4.4011,5.22355
19.7074,5542.9932,-0.77873,-5.07733,4.92789
19.7302,5543.0132,-0.72436,-5.3235,4.44592
19.7476,5543.0332,-1.10188,-5.24409,3.66584
19.7679,5543.0532,-1.37677,-5.13536,2.46672
19.7896,5543.0732,-1.52277,-4.17141,0.91512
19.8089,5543.0932,-2.15807,-3.81283,-0.10442
19.8262,5543.1132,-2.76893,-4.12987,-0.89793
19.8475,5543.1332,-3.02366,-3.43043,-1.23635
19.8664,5543.1532,-3.15255,-2.80002,-1.39701
19.8859,5543.1732,-3.7176,-2.76092,-1.88998
19.9085,5543.1932,-4.38711,-2.57522,-2.58636
19.927,5543.2132,-4.52395,-2.2032,-2.45319
19.946,5543.2331,-4.02915,-2.33332,-1.18198
19.9675,5543.2531,-3.89292,-2.36203,-0.07754
19.9845,5543.2731,-4.8978,-0.57036,-0.97368
20.006,5543.2931,-5.55509,-0.72613,-1.73848
20.031,5543.3132,-5.44635,-1.56913,-1.71527
20.0484,5543.3332,-5.12504,-2.27468,-1.23513
20.0678,5543.3532,-4.64306,-2.69678,-0.08304
20.0909,5543.3732,-4.33947,-0.20384,-0.13801
20.1078,5543.3933,-5.36144,0.04234,-0.64198
20.1295,5543.4133,-5.56791,-0.37427,-1.03049
20.1486,5543.4333,-5.17024,-0.0438,-0.27302
20.1672,5543.4534,-5.13542,0.06494,0.97315
20.1918,5543.4734,-6.04683,0.77232,1.45573
20.2102,5543.4934,-7.28506,1.39601,1.1558
20.2273,5543.5134,-7.1525,1.67823,0.83571
20.2475,5543.5335,-6.48055,2.12233,0.45514
20.2708,5543.5535,-6.29484,2.25733,0.4924
20.2878,5543.5735,-6.30645,2.61225,0.88091
20.3088,5543.5936,-5.82081,3.66721,1.10754
20.3305,5543.6136,-5.11038,3.84436,0.74957
20.3474,5543.6336,-4.37062,3.68554,0.38916
20.3674,5543.6536,-3.73349,3.36239,0.15337
20.3914,5543.6737,-3.02855,3.5542,0.72575
20.4103,5543.6937,-2.58201,3.31535,1.25293
20.4321,5543.7137,-2.42868,3.74601,1.13197
20.4564,5543.7338,-2.45678,4.28663,1.38487
20.4737,5543.7538,-2.52153,3.50228,0.95299
20.4929,5543.7738,-2.2216,2.95677,-0.12213
20.5111,5543.7939,-1.91128,2.61102,-0.13496
20.5293,5543.814,-1.74634,3.53832,0.59564
20.5496,5543.834,-1.91738,4.341,1.69703
20.5741,5543.8541,-2.177,5.83151,2.58339
20.5905,5543.8742,-2.20388,6.97566,3.18693
20.6148,5543.8942,-2.17028,5.39229,2.48199
20.6373,5543.9142,-1.54231,3.75518,1.01347
20.6499,5543.9343,-1.23993,3.32513,0.10389
20.685,5543.9543,-1.35905,3.3404,0.4924
20.6983,5543.9743,-1.42381,3.88285,1.36655
20.7165,5543.9944,-1.10188,4.83091,2.03667
20.7278,5544.0144,-0.85265,4.39292,2.1625
20.7501,5544.0344,-0.51484,2.86453,1.54675
20.7687,5544.0544,-0.03836,1.991,1.19428
20.7911,5544.0745,-0.09395,2.261,1.29446
20.8117,5544.0945,0.08503,2.65195,0.81677
20.8309,5544.1145,0.16139,2.67517,0.43131
20.8573,5544.1346,-0.39755,2.88653,0.36412
20.8759,5544.1546,-0.93756,2.25611,0.58647
20.8991,5544.1746,-1.11715,1.77475,1.33723
20.9099,5544.1946,-1.32179,1.41984,1.68236
20.9321,5544.2147,-0.84654,0.5237,1.53209
20.9507,5544.2347,-0.22712,-0.28264,1.71352
20.9812,5544.2547,-0.3499,-0.81104,2.19916
21.0041,5544.2748,-0.37984,-1.38098,2.72878
21.0251,5544.2948,-0.59853,-0.775,3.63225
21.029,5544.3148,-1.03102,-0.43292,4.25411
21.0764,5544.3348,-0.7378,-1.18,4.53816
21.08,5544.3549,-0.09334,-2.83362,4.74769
21.0942,5544.3749,0.4882,-4.07123,4.92423
21.1122,5544.3949,0.45888,-4.2661,5.17774
21.1296,5544.4149,-0.30775,-2.82384,5.59007
21.1523,5544.4349,-1.41525,-0.42925,6.3115
21.1715,5544.4549,-2.89233,0.75644,5.99507
21.1909,5544.4748,-3.60765,0.35205,4.11055
21.2181,5544.4948,-2.82941,-1.12686,3.37385
21.2385,5544.5148,-1.91372,-2.31744,3.86193
21.2509,5544.5348,-1.24116,-3.09446,4.89979
21.2708,5544.5548,-0.71826,-3.14821,5.57785
21.2929,5544.5748,-0.92656,-2.4164,6.0079
21.3143,5544.5948,-1.18068,-2.01139,6.58334
21.3364,5544.6148,-1.44152,-2.15617,7.11601
21.3546,5544.6348,-1.72374,-2.44755,7.20703
21.3743,5544.6548,-1.82575,-2.2594,7.1209
21.396,5544.6748,-1.85019,-2.30644,6.98529
21.4166,5544.6948,-1.72679,-2.38646,7.21864
21.4345,5544.7148,-1.71458,-2.17633,7.22902
21.4538,5544.7348,-1.95037,-2.41762,6.74583
21.4856,5544.7548,-1.60279,-3.02054,6.04333
21.5007,5544.7748,-0.95772,-3.48358,5.39032
21.5143,5544.7948,-0.71765,-3.22335,4.50273
21.5332,5544.8148,-1.24727,-3.26306,3.77458
21.5503,5544.8348,-1.92594,-2.67052,3.05254
21.572,5544.8548,-2.02673,-2.25207,2.26085
21.5925,5544.8748,-2.03834,-2.58011,1.45146
21.6101,5544.8947,-1.6877,-3.58254,0.7905
21.6357,5544.9147,-1.64372,-4.71569,0.76546
21.6546,5544.9347,-2.33277,-3.16776,0.09106
21.6739,5544.9547,-3.841,-3.2936,1.18451
21.6918,5544.9747,-3.92163,-3.98632,2.59866
21.7151,5544.9947,-3.05359,-1.88372,1.628
21.7327,5545.0147,-3.47143,-1.64854,-0.39458
21.7605,5545.0347,-3.98455,-2.57583,-0.86922
21.7748,5545.0547,-4.23684,-2.35348,0.31036
21.789,5545.0747,-4.21546,-2.11524,2.76787
21.8094,5545.0947,-4.44515,-0.8648,3.87598
21.8306,5545.1147,-5.11221,0.91954,1.84119
21.8534,5545.1347,-5.53982,-0.64855,-0.21559
21.8734,5545.1547,-4.69316,-1.61189,-1.35974
21.8962,5545.1747,-3.46654,-1.92221,-0.91076
21.9162,5545.1947,-3.144,-1.94664,0.94077
21.9395,5545.2147,-3.75731,-1.78904,2.94869
21.9628,5545.2347,-4.12627,-1.05356,2.94258
21.9779,5545.2547,-4.16293,1.04171,0.99025
22.0008,5545.2746,-4.25639,0.60311,0.63168
22.0148,5545.2946,-3.93446,1.36181,1.45696
22.034,5545.3146,-3.72738,2.62691,2.16006
22.0557,5545.3346,-3.9705,4.29518,2.29812
22.0704,5545.3546,-4.23195,5.64397,1.69825
22.0897,5545.3746,-4.23745,6.264,0.69582
22.1101,5545.3946,-4.17881,6.72642,0.48629
22.132,5545.4146,-4.93384,5.75393,0.78928
22.1516,5545.4346,-5.19284,5.93596,1.15641
22.1686,5545.4546,-5.0218,6.73925,1.3641
22.1906,5545.4746,-5.11465,6.67328,1.04706
22.2105,5545.4946,-4.48058,6.82722,1.15519
22.2279,5545.5146,-3.95767,6.89991,1.68114
22.2534,5545.5346,-3.90514,6.17054,0.92672
22.2724,5545.5546,-3.95401,7.02086,0.38366
22.2987,5545.5746,-4.50806,7.4051,0.6048
22.3158,5545.5946,-3.91308,7.72091,1.41786
22.3287,5545.6146,-3.23685,7.79605,1.55347
22.3496,5545.6346,-2.87033,8.65615,1.39404
22.3734,5545.6546,-2.8288,7.66105,0.89374
22.3915,5545.6745,-2.18555,6.41122,0.31403
22.4192,5545.6945,-1.17885,4.72034,0.25416
22.4354,5545.7145,-0.44276,2.72648,0.20041
22.4502,5545.7345,-0.25583,2.53467,0.32319
22.4697,5545.7545,-0.32913,3.42409,0.80638
22.497,5545.7745,-0.3609,5.02639,0.96338
22.5148,5545.7945,-0.35662,4.88955,1.42336
22.5379,5545.8145,-0.10067,3.36361,2.53086
22.5586,5545.8345,-0.03225,2.39905,3.63164
22.5708,5545.8545,-0.67916,1.50963,3.52718
22.5893,5545.8745,-1.39326,-0.22156,3.2303
22.611,5545.8945,-0.62785,-2.18305,3.46059
22.629,5545.9145,0.18033,-2.49214,4.10628
22.6528,5545.9345,-0.33463,-1.8263,5.56991
22.6882,5545.9545,-1.42442,-2.04255,7.14167
22.6913,5545.9745,-1.84408,-3.35591,7.82034
22.7083,5545.9945,-1.51788,-3.66195,7.77208
22.7295,5546.0145,-1.49528,-2.60393,7.56316
22.7466,5546.0345,-1.50322,-1.43229,7.57355
22.7684,5546.0545,-1.11959,-1.42313,7.95717
22.7954,5546.0745,-0.73475,-2.55018,8.2455
22.8102,5546.0944,-0.48491,-3.60147,7.83011
22.8299,5546.1144,-0.01759,-3.6253,7.46298
22.8504,5546.1344,0.5609,-2.34676,7.63952
22.8686,5546.1544,0.52363,-2.15433,7.57966
22.8884,5546.1744,0.35687,-3.19525,6.99995
22.9097,5546.1944,0.18949,-2.98878,6.441
22.928,5546.2144,-0.64984,-1.90571,5.95903
22.9493,5546.2344,-1.36516,-1.66748,5.15758
22.9753,5546.2544,-1.6932,-1.61922,4.10383
22.9974,5546.2744,-2.07254,-1.63754,2.90532
23.0231,5546.2944,-2.39019,-1.82935,1.51377
23.0307,5546.3144,-2.28207,-2.70289,0.32502
23.0584,5546.3344,-2.41707,-3.65095,-0.56134
23.0847,5546.3544,-3.64369,-3.68822,-0.96757
23.0928,5546.3744,-4.59053,-3.28077,-1.05065
23.1109,5546.3944,-5.53676,-3.28382,-1.4526
23.1288,5546.4144,-6.61249,-4.11766,-0.89854
23.1506,5546.4344,-7.01872,-4.63384,0.10206
23.1675,5546.4544,-6.84035,-3.96922,-0.10991
23.1885,5546.4743,-6.71817,-2.31438,-0.75193
23.2107,5546.4943,-5.95276,-2.21115,-1.47275
23.2281,5546.5143,-5.32907,-4.16164,-1.94801
23.2484,5546.5343,-4.82816,-5.51043,-1.48497
23.2716,5546.5543,-4.79578,-4.77311,0.04463
23.2893,5546.5743,-5.05418,-2.43961,1.17046
23.3214,5546.5943,-5.24538,-0.18063,0.86564
23.3359,5546.6143,-5.41764,-0.39443,-0.12885
23.3507,5546.6343,-5.08777,-0.53737,-1.22108
23.3735,5546.6543,-4.122,-0.37488,-1.35119
23.3925,5546.6743,-2.99251,-0.53554,-0.17955
23.4158,5546.6943,-2.91187,-0.63939,0.03486
23.4355,5546.7143,-3.56855,-0.43597,-0.79103
23.4517,5546.7343,-3.83794,0.22254,-0.94741
23.4694,5546.7543,-4.11283,0.36732,-0.88877
23.495,5546.7743,-4.2741,0.70207,-0.60044
23.5147,5546.7943,-4.2234,1.43877,0.06052
23.5333,5546.8143,-4.08962,2.94334,1.27308
23.5576,5546.8343,-4.18614,3.88529,2.54185
23.5827,5546.8543,-4.39628,5.52302,3.4948
23.5935,5546.8743,-4.81166,6.57798,3.86376
23.6091,5546.8942,-4.95033,6.18153,3.69944
23.6308,5546.9142,-4.24234,6.11739,3.56322
23.6489,5546.9342,-3.9198,7.06301,4.04458
23.669,5546.9542,-4.44698,8.1027,3.95173
23.6954,5546.9742,-4.73286,7.782,3.26573
23.7142,5546.9942,-4.03892,6.79851,2.51497
23.7343,5547.0142,-3.01694,6.91762,2.45877
23.7534,5547.0342,-3.05482,7.90906,2.95296
23.7697,5547.0542,-3.24479,6.77407,2.26269
23.7908,5547.0742,-2.05727,6.51506,1.57546
23.8126,5547.0942,-1.58691,7.47107,1.66282
23.8323,5547.1142,-1.79155,8.54863,1.2682
23.8567,5547.1342,-1.77994,7.70198,0.69948
23.8758,5547.1542,-0.64801,4.91277,0.27004
23.8903,5547.1742,0.83884,3.1327,0.01898
23.9098,5547.1942,0.99889,2.2384,-0.01034
23.9301,5547.2142,0.86327,2.77962,0.72575
23.9491,5547.2342,0.08748,2.7222,1.26759
23.9717,5547.2542,0.10886,0.52431,0.19613
23.9922,5547.2742,1.55477,0.49499,0.05502
24.0139,5547.2942,1.77224,1.27445,0.15887
24.0302,5547.3141,1.16443,1.53651,0.526
24.051,5547.3342,0.95002,1.856,1.25781
24.0756,5547.3542,1.21513,1.52857,1.61639
24.0957,5547.3742,1.50774,1.04965,1.51682
24.1179,5547.3943,1.33792,0.95558,1.15152
24.128,5547.4143,0.75393,0.92198,0.96215
24.1488,5547.4343,0.35809,0.79004,0.71598
24.1707,5547.4543,0.39474,0.12786,0.16559
24.194,5547.4744,0.42467,-0.50256,-0.05616
24.2098,5547.4944,0.22003,-1.39564,0.28898
24.2363,5547.5144,0.11374,-2.56789,0.89068
24.2607,5547.5345,0.23592,-4.17447,1.34028
24.2729,5547.5545,0.11252,-6.42123,1.21994
24.2915,5547.5745,-0.43787,-7.58432,1.0098
24.3115,5547.5945,-0.90885,-8.14448,1.15519
24.3436,5547.6146,-1.39998,-8.38088,1.33906
24.3545,5547.6346,-1.63578,-7.15854,1.34883
24.3742,5547.6546,-1.6822,-6.78103,0.65428
24.3931,5547.6747,-1.61745,-7.90685,-0.06349
24.4129,5547.6947,-1.02369,-8.84392,-0.0189
24.4306,5547.7147,-0.25583,-9.28252,-0.4801
24.4539,5547.7347,0.8028,-8.95998,-1.66762
24.4771,5547.7548,1.39106,-9.10843,-1.74092
24.4912,5547.7748,1.56394,-10.30389,-0.93275
24.5131,5547.7948,1.25606,-11.81822,-0.89304
24.5322,5547.8149,1.51629,-13.25253,-1.38968
24.5525,5547.8349,1.60425,-12.92878,-2.31086
24.5703,5547.8549,1.09846,-10.38208,-2.87836
24.5927,5547.8749,0.20659,-6.61854,-3.22166
24.6418,5547.895,0.03738,-4.06146,-2.56559
24.6579,5547.915,0.48087,-3.35591,-1.64929
24.6624,5547.935,0.54501,-1.95336,-0.97734
24.6999,5547.955,0.03128,0.28485,-0.02989
24.7028,5547.975,-0.84409,2.57621,1.04401
24.7185,5547.995,-1.43419,4.91277,1.42275
24.7276,5548.015,-1.98641,6.43443,1.43313
24.7477,5548.035,-1.80682,7.01048,1.909
24.7694,5548.055,-1.56736,7.44908,2.08065
24.7902,5548.075,-1.77078,7.89623,1.43191
24.8096,5548.095,-2.03345,8.01474,0.52905
24.8322,5548.115,-1.80682,7.33851,-0.10014
24.85,5548.1349,-1.08539,5.58411,-0.2382
24.8715,5548.1549,-0.37861,4.97202,0.6103
24.8943,5548.1749,-0.83493,6.13572,1.23399
24.9174,5548.1949,-1.85996,7.23711,1.1613
24.9409,5548.2149,-3.14828,8.89927,0.74774
24.9572,5548.2349,-4.22829,10.25723,1.06539
24.974,5548.2549,-4.06885,10.73309,1.5608
24.9919,5548.2749,-3.50502,8.92004,1.39343
25.0112,5548.2949,-3.04504,5.41917,0.75751
25.0349,5548.3149,-2.13119,4.69285,1.04462
25.0493,5548.3349,-2.04017,4.96163,1.99696
25.076,5548.3549,-2.33705,4.95553,2.2749
25.0889,5548.3749,-1.23199,3.9928,2.19916
25.1106,5548.3949,-0.69321,2.57987,2.10325
25.1302,5548.4149,-1.31324,1.39296,2.36409
25.1505,5548.4349,-2.38042,0.92076,2.69029
25.1686,5548.4549,-3.12384,0.53347,2.71473
25.1927,5548.4749,-3.44455,0.181,2.96152
25.2089,5548.4949,-2.95769,-0.26737,3.4105
25.2358,5548.5149,-2.13302,-0.76584,4.27243
25.252,5548.5349,-1.63272,-2.169,6.14962
25.2702,5548.5549,-1.18984,-2.13601,7.47153
25.29,5548.5748,-1.06645,-1.93931,7.96206
25.3117,5548.5948,-1.03346,-2.16961,7.23696
25.3298,5548.6148,-0.75857,-1.7249,6.00179
25.3505,5548.6348,-0.50384,-1.10059,5.32007
25.3719,5548.6548,-0.57898,-0.90573,5.15697
25.3903,5548.6748,-0.79584,-0.60946,4.20829
25.4125,5548.6948,-1.17396,-1.0841,3.16066
25.4347,5548.7148,-1.58752,-1.61128,2.15762
25.4515,5548.7348,-1.5301,-2.07859,0.71292
25.4677,5548.7548,-1.06828,-2.43411,-1.03721
25.4908,5548.7748,-0.49224,-2.72244,-2.61691
25.5106,5548.7948,-0.35846,-2.439,-3.60529
25.5285,5548.8148,-0.54416,-1.53797,-4.26319
25.5542,5548.8348,-0.54905,-0.64733,-4.92109
25.5691,5548.8548,-0.57104,0.06738,-5.63214
25.5892,5548.8748,-0.40183,0.30257,-6.25888
25.611,5548.8948,0.37703,-0.08533,-6.73169
25.632,5548.9148,0.55662,-1.00408,-7.31263
25.6495,5548.9348,0.08748,-1.54103,-7.22283
25.6753,5548.9547,-0.54172,-1.27347,-6.67244
25.6946,5548.9747,-0.74758,-0.7133,-6.24667
25.7102,5548.9947,-0.46841,-0.31746,-6.03347
25.7303,5549.0147,-0.05058,-0.92527,-5.64313
25.7477,5549.0347,0.32693,-2.31133,-5.30899
25.7684,5549.0547,0.58716,-2.93685,-5.34625
25.7949,5549.0747,1.07952,-2.66257,-6.16848
25.813,5549.0947,1.31776,-2.24413,-6.58448
25.8366,5549.1147,1.1907,-1.0786,-6.05241
25.8516,5549.1347,0.85778,0.2146,-5.03532
25.8696,5549.1547,0.13696,0.86334,-3.29863
25.8906,5549.1747,-1.05912,1.18404,-1.59798
25.9142,5549.1947,-1.87462,1.19809,-0.72567
25.9362,5549.2147,-1.66143,0.86945,-0.34571
25.9522,5549.2347,-0.79156,0.6196,0.5205
25.9721,5549.2547,0.08442,1.02155,1.37754
26.0017,5549.2747,0.37153,1.20726,1.8027
26.0129,5549.2947,0.08748,0.80042,2.06904
26.0306,5549.3147,-0.76774,0.88716,2.37997
26.0553,5549.3347,-1.57774,1.2549,3.03299
26.0715,5549.3547,-1.95343,1.76009,3.83139
26.0921,5549.3748,-1.75367,1.84133,3.46976
26.1145,5549.3948,-0.94794,1.33126,1.45573
26.1294,5549.4148,-0.03836,0.90732,-0.03661
26.1528,5549.4349,0.0325,0.72528,0.30609
26.1707,5549.4549,-0.67,1.12846,0.19735
26.1961,5549.4749,-1.06584,1.77353,-0.0812
26.2152,5549.4949,-0.80561,2.41005,0.29509
26.2342,5549.515,-0.46536,2.97754,0.41604
26.2507,5549.535,-0.47147,3.71119,-0.06654
26.2726,5549.555,-0.82332,4.81564,-0.02561
26.2924,5549.5751,-1.07317,5.67146,0.39771
26.3132,5549.5951,-1.07256,6.94572,0.0373
26.3321,5549.6151,-1.28819,8.08193,-0.03111
26.3503,5549.6351,-1.49161,8.51626,0.43986
26.3695,5549.6552,-0.96932,6.71054,0.98781
26.3926,5549.6752,0.01417,3.13637,1.23277
26.4137,5549.6952,0.99217,0.71184,1.30974
26.4359,5549.7153,0.76737,0.26408,1.41481
26.4552,5549.7353,0.34648,1.26712,1.32562
26.4709,5549.7553,0.32816,1.58783,1.15702
26.4889,5549.7753,0.42712,1.40518,0.76484
26.5149,5549.7954,0.55234,0.31784,0.57059
26.5295,5549.8154,0.63481,-0.53432,0.56754
26.55,5549.8354,0.42284,-1.12075,0.53394
26.5727,5549.8555,0.04105,-1.85257,0.39588
26.5915,5549.8755,-0.2033,-2.98694,0.07335
26.6147,5549.8955,-0.30653,-4.6204,-0.54119
26.6346,5549.9155,-0.41099,-5.81647,-0.93275
26.6756,5549.9355,-0.33708,-6.91481,-0.82585
26.6789,5549.9555,0.17483,-7.44565,-0.43734
26.6967,5549.9755,0.59388,-7.67472,-0.15695
26.7107,5549.9955,0.98728,-7.68328,-0.06532
26.7326,5550.0155,1.21391,-7.44137,0.02081
26.7566,5550.0355,1.13572,-6.55806,0.39833
26.7697,5550.0555,1.04653,-5.83235,0.91756
26.7918,5550.0755,0.86022,-5.2728,1.44535
26.8119,5550.0955,0.31899,-5.16346,1.493
26.834,5550.1155,0.03861,-6.51042,0.20224
26.851,5550.1355,0.78692,-7.24406,-1.19787
26.8738,5550.1555,1.98604,-6.30761,-1.60226
26.8918,5550.1754,2.242,-4.6821,-1.00056
26.9144,5550.1954,1.46742,-3.50435,-0.54607
26.9366,5550.2154,0.63176,-3.81283,-0.46727
26.9551,5550.2354,0.55967,-5.23676,-0.87533
26.9886,5550.2554,1.53034,-6.55256,-1.08852
27.0202,5550.2754,2.46191,-7.01071,-1.18809
27.035,5550.2954,2.8382,-7.63502,-1.43855
27.044,5550.3154,3.33911,-8.52566,-1.64074
27.0527,5550.3354,3.99579,-8.26115,-2.97915
27.0862,5550.3554,3.895,-7.43221,-3.63827
27.0925,5550.3755,3.57063,-7.41694,-3.78549
27.1131,5550.3955,4.06238,-4.90078,-3.64316
27.1308,5550.4155,4.10758,-3.27222,-2.57414
27.1503,5550.4356,3.66104,-2.41029,-1.72749
27.1717,5550.4556,3.34278,-3.06269,-1.61448
27.1901,5550.4756,3.80093,-3.58804,-2.07751
27.2107,5550.4956,4.43073,-2.55567,-2.27543
27.2349,5550.5157,4.11919,-0.76156,-2.02192
27.2515,5550.5357,4.05566,0.14924,-1.7733
27.2716,5550.5557,4.75876,-0.07373,-1.70244
27.2929,5550.5758,5.54556,-1.20383,-1.80873
27.3126,5550.5958,6.08128,-1.40358,-2.18747
27.3337,5550.6158,6.3855,-0.69253,-2.43181
27.3546,5550.6358,6.4081,0.40886,-2.66333
27.3717,5550.6559,5.85893,0.42474,-3.22899
27.3928,5550.6759,6.05685,0.47666,-3.33773
27.4143,5550.6959,6.09167,1.17794,-3.01885
27.4316,5550.716,5.28594,1.79735,-2.64317
27.452,5550.736,4.32322,1.47359,-3.04268
27.4776,5550.756,3.22671,1.70756,-3.47517
27.5015,5550.776,2.07645,3.09666,-3.52832
27.5176,5550.7961,1.60059,3.85475,-3.4147
27.5366,5550.8161,2.22611,3.47784,-3.55031
27.5571,5550.8361,2.60241,3.54198,-3.75189
27.5718,5550.8562,2.42953,4.3471,-3.85024
27.5938,5550.8762,2.31347,5.45216,-3.92965
27.62,5550.8962,2.30186,5.35381,-4.11719
27.632,5550.9162,2.38433,4.4198,-4.32244
27.6715,5550.9363,1.89441,4.08077,-4.49898
27.6751,5550.9563,0.70201,4.17179,-4.85512
27.6953,5550.9763,0.0887,4.68125,-5.06831
27.715,5550.9964,-0.16603,5.16261,-4.93453
27.7323,5551.0164,-0.14282,5.06059,-4.64253
27.7552,5551.0364,-0.08968,3.73807,-4.48188
27.7759,5551.0565,-0.07318,1.59882,-4.50509
27.7931,5551.0765,0.15101,0.03317,-4.57534
27.8134,5551.0966,0.11435,-0.77744,-4.46233
27.8399,5551.1167,-0.4116,-1.20749,-4.31694
27.858,5551.1367,-0.91068,-0.76278,-4.15873
27.878,5551.1568,-0.89113,1.09425,-3.94309
27.8985,5551.1768,-0.46169,1.77475,-3.84413
27.9208,5551.1969,-0.10678,0.99406,-4.08787
27.9419,5551.217,0.02761,-0.34923,-4.39147
27.9576,5551.237,-0.24728,-1.15129,-4.86794
27.9753,5551.2571,-0.71337,-0.55081,-5.18559
27.9972,5551.2771,-1.0133,0.19811,-5.32487
28.0193,5551.2972,-1.27414,0.38564,-5.32609
28.0373,5551.3173,-1.55087,-0.3535,-5.60281
28.0736,5551.3373,-2.15012,-1.28446,-5.90031
28.0843,5551.3574,-2.78726,-1.86356,-5.80073
28.0949,5551.3775,-3.1776,-1.42252,-5.30288
28.1138,5551.3976,-3.49953,-0.0047,-4.75738
28.1353,5551.4177,-3.91308,1.64341,-4.54052
28.1527,5551.4378,-4.48302,2.58231,-4.51731
28.1757,5551.4579,-5.03402,2.53589,-4.7586
28.1948,5551.478,-5.01691,2.15165,-4.97118
28.2178,5551.4981,-4.18675,2.06002,-4.89421
28.2396,5551.5182,-3.21853,2.27383,-4.25158
28.2572,5551.5383,-2.3963,2.5475,-3.01275
28.2772,5551.5583,-1.86241,2.79795,-2.50878
28.2984,5551.5784,-1.64738,2.50229,-2.64195
28.3193,5551.5984,-2.02978,1.83706,-2.9822
28.3391,5551.6185,-2.50748,1.31171,-3.03229
28.3606,5551.6386,-2.18617,0.63732,-2.42082
28.381,5551.6586,-0.98581,0.25736,-1.23268
28.3991,5551.6786,0.297,0.47972,-0.2834
28.4168,5551.6986,1.03981,0.27385,0.14787
28.4345,5551.7187,1.75514,-0.38893,0.16559
28.4533,5551.7387,2.48207,-0.50744,0.3464
28.4775,5551.7587,2.62501,-0.64672,0.5602
28.4954,5551.7788,2.59874,-0.70414,0.63717
28.5179,5551.7988,2.74107,-0.85747,0.66039
28.5377,5551.8188,2.93472,-0.82021,0.6781
28.5561,5551.8388,2.97931,-1.3144,0.56998
28.5752,5551.8589,2.93961,-1.55202,0.47407
28.5991,5551.8789,2.79361,-1.81592,0.43009
28.6176,5551.8989,2.66166,-1.66992,0.6329
28.638,5551.919,2.1693,-1.57096,0.57914
28.6603,5551.939,1.66656,-1.24781,0.20896
28.6787,5551.959,1.25789,-0.97598,-0.14596
28.6932,5551.979,1.11129,-0.82326,-0.15634
28.7142,5551.999,1.11495,-1.08166,-0.08914
28.7357,5552.0191,1.39778,-1.78171,-0.14473
28.754,5552.0391,1.94267,-2.32171,-0.3286
28.7748,5552.0591,2.35867,-2.36386,-0.18994
28.8193,5552.0792,2.27132,-1.67542,-0.08731
28.8261,5552.0992,1.91091,-0.86907,-0.11908
28.8387,5552.1192,1.80523,-0.38099,0.19246
28.8588,5552.1392,1.89136,-0.19224,0.21446
28.8752,5552.1593,2.17236,0.13274,0.23584
28.8947,5552.1793,2.37883,0.25797,0.4417
28.9172,5552.1993,2.40388,0.06616,0.58159
28.9375,5552.2194,1.79362,-0.02303,0.69154
28.9605,5552.2394,0.93475,-0.37488,0.48446
28.983,5552.2594,0.20049,-0.17574,0.44475
29.0027,5552.2794,-0.39572,0.28424,0.45514
29.0182,5552.2995,-0.80683,0.29157,0.09473
29.0398,5552.3195,-0.96627,0.38015,-0.20154
29.0572,5552.3395,-0.98826,0.58356,-0.26691
29.0792,5552.3595,-1.16297,0.79187,-0.1539
29.0983,5552.3796,-1.44152,0.72712,-0.09709
29.116,5552.3996,-1.50749,0.24637,-0.31883
29.1343,5552.4196,-1.07867,-0.19407,-0.63404
29.155,5552.4397,-0.77507,0.11503,-0.83623
29.1742,5552.4597,-1.13914,0.46383,-0.90648
29.1941,5552.4798,-1.76467,0.89877,-0.83623
29.2166,5552.4998,-2.35415,1.10158,-1.17465
29.2349,5552.5199,-2.58139,0.22621,-1.67739
29.2548,5552.54,-2.38164,0.18406,-1.60653
29.2766,5552.56,-2.21793,1.06187,-1.41778
29.2995,5552.5801,-2.09515,1.43877,-0.8234
29.3242,5552.6001,-1.97908,1.38441,-0.1991
29.346,5552.6202,-1.86118,1.00628,-0.02561
29.3643,5552.6402,-1.80071,0.52981,-0.24186
29.3778,5552.6602,-1.86668,-0.66932,-1.06836
29.3978,5552.6802,-1.45924,-0.59846,-1.65052
29.4159,5552.7003,-0.66145,0.6923,-1.27422
29.4355,5552.7203,0.16261,2.19319,-0.62121
29.458,5552.7403,0.73683,2.80772,-0.29867
29.4778,5552.7604,0.28906,-0.3254,0.2169
29.4967,5552.7804,-1.00964,-2.73771,0.43742
29.5257,5552.8004,-1.24788,-2.92097,0.25477
29.5401,5552.8204,-0.88075,-2.14395,0.54249
29.5599,5552.8405,-0.73231,-0.81104,0.46308
29.5809,5552.8605,-1.22894,0.59089,0.01165
29.6034,5552.8805,-2.47633,1.04538,-0.46788
29.623,5552.9006,-3.31077,1.18282,-0.58883
29.6407,5552.9206,-3.25884,1.02644,-0.46666
29.6597,5552.9406,-3.05482,1.25246,-0.35731
29.6839,5552.9606,-2.92837,0.9849,0.02692
29.6982,5552.9807,-2.39875,0.59883,0.53394
29.7157,5553.0007,-1.46596,-0.30647,0.61824
29.7387,5553.0207,-0.30531,-1.74444,0.391
29.7599,5553.0408,0.42651,-2.61309,0.30425
29.7823,5553.0608,-0.48002,-1.37426,0.15093
29.8016,5553.0808,-1.89234,-0.38588,0.01287
29.8225,5553.1008,-2.177,-0.08533,0.1216
29.84,5553.1209,-1.33462,-0.58075,0.54738
29.8704,5553.1409,-0.34318,-1.31623,0.74957
29.8852,5553.1609,0.52852,-1.22521,0.33418
29.9028,5553.181,1.21697,-0.09816,-0.55035
29.9178,5553.201,1.55783,-0.35534,-0.86922
29.9375,5553.221,1.42099,-0.38832,-0.8008
29.9564,5553.241,1.19803,-0.27837,-0.88693
29.9758,5553.2611,1.06547,-0.80799,-0.32005
29.9956,5553.2811,0.99766,-0.56792,0.18086
30.0199,5553.3011,1.28538,0.42352,0.27371
30.0451,5553.3212,1.56455,1.69228,0.31525
30.0647,5553.3412,1.20536,0.16879,0.27371
30.0774,5553.3613,0.65436,-0.38038,0.2786
30.0972,5553.3813,0.26585,-0.84464,0.25783
30.1218,5553.4014,0.22064,-0.87763,0.19613
30.138,5553.4215,0.45583,-0.7579,0.19552
30.1565,5553.4415,0.7747,-0.4995,0.25355
30.1789,5553.4616,0.99278,0.08754,0.30975
30.2003,5553.4816,1.0166,0.4565,0.38
30.2187,5553.5017,0.99705,0.32028,0.3348
30.2393,5553.5218,0.89382,0.04906,0.19002
30.258,5553.5418,0.63237,-0.2295,0.0874
30.2819,5553.5619,0.3587,-0.10061,0.09167
30.3033,5553.582,0.18521,0.19139,0.17903
30.3254,5553.602,0.16506,0.49438,0.19735
30.3498,5553.6221,0.3135,0.64954,0.14421
30.3854,5553.6421,0.44422,0.65931,0.13932
30.3968,5553.6622,0.30555,0.65198,0.1497
30.4009,5553.6822,0.06182,0.51392,0.19307
30.4194,5553.7022,0.14978,0.18161,0.27004
30.4366,5553.7223,0.61771,0.03378,0.37878
30.4576,5553.7423,0.97812,0.08693,0.35923
30.4819,5553.7623,0.93597,-0.11832,0.17841
30.4971,5553.7823,0.75026,-0.15558,0.02264
30.5177,5553.8024,0.62626,-0.19529,-0.03661
30.5429,5553.8224,0.49553,-0.224,0.01348
30.5613,5553.8424,0.28601,-0.43903,0.01043
30.5849,5553.8625,0.11924,-0.54104,-0.02867
30.6041,5553.8825,-0.01759,-0.42986,-0.03966
30.6214,5553.9025,-0.06646,-0.07067,-0.09586
30.6426,5553.9225,-0.10861,0.33372,-0.11358
30.6845,5553.9425,-0.27049,0.58417,-0.05494
30.6876,5553.9625,-0.43054,0.62938,0.01165
30.6993,5553.9825,-0.53622,0.38564,0.10389
30.7174,5554.0025,-0.59242,-0.09328,0.07273
30.7353,5554.0225,-0.44153,-0.47507,-0.1258
30.7558,5554.0425,-0.09456,-0.31624,-0.24369
30.7775,5554.0625,0.08686,0.03989,-0.11053
30.7977,5554.0825,-0.10128,0.2146,0.06418
30.8174,5554.1025,-0.23445,0.09548,0.14787
30.8383,5554.1225,-0.01148,-0.20873,0.13626
30.8576,5554.1425,0.3813,-0.49522,0.03058
30.8821,5554.1625,0.50897,-0.71147,-0.13496
30.902,5554.1825,0.31227,-0.39626,-0.22903
30.9196,5554.2025,0.00684,0.06005,-0.13924
30.9378,5554.2225,-0.31508,0.36732,0.07396
30.9579,5554.2425,-0.41649,0.38015,0.07151
30.9776,5554.2625,-0.25033,0.13519,-0.21743
30.9954,5554.2824,-0.01087,-0.18613,-0.44284
31.0398,5554.3024,0.15284,-0.22889,-0.43306
31.0446,5554.3224,0.16689,0.07471,-0.25102
31.0595,5554.3425,0.18155,0.41374,-0.10503
31.0796,5554.3625,0.79669,0.42963,0.03853
31.0968,5554.3825,0.99094,-0.24049,-0.2443
31.1178,5554.4026,0.77836,-0.64916,-0.37136
31.142,5554.4226,0.57556,-0.45796,-0.23087
31.16,5554.4426,0.30433,-0.08411,-0.09648
31.1843,5554.4626,-0.12938,0.37281,-0.2046
31.2023,5554.4827,-0.49468,0.65198,-0.41107
31.2221,5554.5027,-0.50079,0.60433,-0.40985
31.2436,5554.5227,-0.26438,0.25003,-0.36831
31.2584,5554.5428,-0.04508,-0.14581,-0.38603
31.2774,5554.5628,0.06854,-0.15436,-0.40252
31.3064,5554.5828,0.0325,-0.02303,-0.29867
31.3233,5554.6028,0.1168,-0.04685,-0.14046
31.3381,5554.6229,0.40696,-0.24294,-0.01279
31.3588,5554.6429,0.82907,-0.41398,0.08006
31.38,5554.6629,0.80524,-0.65283,0.03242
31.4007,5554.683,0.443,-0.67299,-0.09159
31.4194,5554.703,0.06182,-0.78233,-0.21559
31.4512,5554.723,-0.01454,-0.75301,-0.306
31.4663,5554.743,0.20843,-0.45979,-0.39152
31.4781,5554.7631,0.30311,-0.23194,-0.3451
31.4999,5554.7831,0.29212,-0.05051,-0.22292
31.5198,5554.8031,0.32327,-0.02486,-0.19849
31.5409,5554.8232,0.47171,-0.10305,-0.21437
31.5609,5554.8432,0.49187,-0.21728,-0.21437
31.578,5554.8632,0.31594,-0.30525,-0.14473
31.6018,5554.8832,0.18277,-0.30158,-0.06288
31.6253,5554.9033,0.11619,-0.37427,-0.08487
31.6415,5554.9233,0.02089,-0.44147,-0.20338
31.6651,5554.9433,0.03494,-0.36267,-0.25041
31.6924,5554.9633,0.1394,-0.34129,-0.18077
31.712,5554.9833,0.23775,-0.33945,-0.05555
31.7294,5555.0033,0.14184,-0.3254,0.02814
31.7486,5555.0233,0.00806,-0.10244,0.02814
31.7574,5555.0433,0.02089,0.10281,-0.03111
31.7775,5555.0633,0.20659,-0.03097,-0.11663
31.8009,5555.0833,0.37703,-0.15497,-0.15695
31.8195,5555.1032,0.27684,-0.1623,-0.13435
31.8404,5555.1232,0.06243,-0.1507,-0.12213
31.8646,5555.1432,-0.00538,-0.09999,-0.15084
31.8814,5555.1632,-0.04997,-0.05418,-0.10564
31.9022,5555.1832,-0.01759,-0.01386,-0.05494
31.9252,5555.2032,0.02089,-0.06395,-0.02928
31.9464,5555.2232,0.03861,-0.10305,-0.05188
31.9682,5555.2432,0.03189,-0.00409,-0.02806
31.9976,5555.2632,-0.04753,0.11136,0.00737
32.0236,5555.2832,-0.2259,0.2317,0.02264
32.0359,5555.3032,-0.42138,0.32578,0.08373
32.0406,5555.3232,-0.38656,0.17428,0.08556
32.0764,5555.3432,-0.16176,0.10892,0.05319
32.0809,5555.3632,0.09236,0.04478,-0.03722
32.1004,5555.3832,0.11985,0.05639,-0.14473
32.1189,5555.4033,0.00073,0.09609,-0.06838
32.1388,5555.4233,0.03311,-0.16414,0.19246
32.1591,5555.4433,0.11741,-0.03158,0.29204
32.1786,5555.4634,0.1168,0.18345,0.22484
32.2002,5555.4834,0.14001,0.61044,0.07396
32.2244,5555.5034,0.19071,0.72101,0.11977
32.239,5555.5234,0.14306,0.63121,0.369
32.266,5555.5435,0.0887,0.38931,0.46002
32.2854,5555.5635,0.23653,0.23598,0.37389
32.2991,5555.5835,0.4039,0.09243,0.23461
32.3203,5555.6036,0.45399,0.14618,0.34335
32.3442,5555.6236,0.29822,0.24575,0.47591
32.3619,5555.6436,0.21881,0.32517,0.51928
32.3917,5555.6636,0.25119,0.13274,0.38244
32.4052,5555.6837,0.32388,-0.16291,0.16742
32.4202,5555.7037,0.28478,-0.21728,0.07945
32.4391,5555.7237,0.09481,-0.16536,0.07945
32.463,5555.7438,-0.08845,-0.07128,0.08862
32.4793,5555.7638,-0.10311,0.04417,0.00248
32.4993,5555.7838,0.02395,0.1248,-0.05921
32.5209,5555.8038,0.12657,0.08388,-0.03478
32.5403,5555.8239,-0.0011,-0.00653,0.0312
32.5606,5555.8439,-0.18436,-0.11893,0.06174
32.5812,5555.8639,-0.18314,0.0234,-0.0134
32.5984,5555.884,-0.07746,0.09121,0.01653
32.6207,5555.904,-0.00843,0.08326,0.07701
32.6409,5555.924,-0.01943,0.15107,0.13871
32.6706,5555.944,-0.07624,0.13397,0.13321
32.6804,5555.964,-0.11472,0.15962,0.05563
32.7025,5555.984,-0.0237,0.05028,-0.0415
32.7199,5556.004,0.04288,0.06066,-0.01218
32.7437,5556.024,0.05082,0.14618,0.08312
32.7605,5556.044,0.11863,0.1413,0.09106
32.7796,5556.064,0.17422,0.10464,0.07701
32.7984,5556.084,0.21576,0.07655,0.08984
32.8186,5556.104,0.2518,-0.01325,0.14787
32.838,5556.124,0.19743,-0.04013,0.2059
32.8597,5556.144,0.13268,-0.0499,0.1888
32.8844,5556.164,0.08198,0.11686,0.13016
32.9003,5556.184,0.10641,0.23537,0.16986
32.9206,5556.204,0.05205,0.14679,0.16803
32.9437,5556.224,-0.03592,0.03012,0.10939
32.963,5556.244,-0.03164,-0.13481,0.07701
32.9951,5556.264,-0.03958,-0.08472,0.00493
33.0224,5556.284,-0.00171,0.06799,-0.04761
33.0355,5556.304,0.027,0.13458,-0.02195
33.0434,5556.3239,0.02578,0.12603,0.0202
33.0606,5556.3439,0.09786,0.11075,0.05441
33.0858,5556.364,0.15895,0.08082,0.08251
33.1014,5556.384,0.10336,0.03867,0.0654
33.123,5556.404,-0.00904,0.01668,0.0428
33.1379,5556.4241,-0.09701,-0.04257,-0.02378
33.1581,5556.4441,-0.05913,0.02706,-0.07265
33.1848,5556.4641,-0.02737,0.08632,-0.06776
33.201,5556.4841,0.02578,0.10342,4e-05
33.2207,5556.5042,0.02883,0.01668,0.04341
33.2504,5556.5242,0.02456,-0.02058,0.06846
33.266,5556.5442,0.02333,-0.00226,0.04525
33.2806,5556.5643,0.06121,0.03501,0.04036
33.3049,5556.5843,0.02211,-0.00103,0.0257
33.3286,5556.6043,-0.0182,-0.06029,0.0202
33.346,5556.6243,-0.03409,-0.09083,0.04036
33.3618,5556.6444,-0.02187,-0.11893,0.04647
33.3796,5556.6644,0.07281,-0.03219,0.01043
33.4004,5556.6844,0.03128,-0.02119,-0.01462
33.4246,5556.7045,-0.04203,0.01057,-0.03295
33.4434,5556.7245,-0.04569,0.02157,-0.03661
33.4664,5556.7445,-0.07685,-0.03158,-0.04638
33.486,5556.7645,-0.09151,-0.07128,-0.03233
33.5026,5556.7846,-0.09884,-0.078,-0.06043
33.5191,5556.8046,-0.08662,-0.00837,-0.08487
33.5415,5556.8246,-0.05486,0.03378,-0.09403
33.5675,5556.8447,-0.03348,0.04295,-0.07937
33.5856,5556.8647,-0.01454,0.00874,-0.04761
33.6046,5556.8847,0.00195,0.02401,-0.02684
33.625,5556.9047,-0.01087,0.03378,-0.00546
33.6439,5556.9248,-0.02676,0.00996,0.00371
33.6651,5556.9448,-0.04569,-0.03646,-0.02012
33.6865,5556.9648,-0.02492,-0.02547,-0.04028
33.7049,5556.9848,-0.02553,0.00568,-0.03966
33.7264,5557.0048,-0.00354,0.00141,-0.04883
33.7526,5557.0248,0.01173,0.0063,-0.05677
33.7676,5557.0448,0.00562,0.10587,-0.02012
33.7819,5557.0648,0.03677,0.05028,0.00982
33.7997,5557.0848,0.04533,0.05089,0.03792
33.8227,5557.1048,0.05205,0.01179,0.09045
33.8441,5557.1248,0.03738,0.00385,0.06418
33.8612,5557.1447,0.04349,0.03623,0.03914
33.8807,5557.1647,0.03372,-0.0499,0.03914
33.9051,5557.1847,-0.08968,-0.07923,-0.03356
33.9247,5557.2047,-0.07379,0.0008,-0.13191
33.9471,5557.2247,-0.00171,0.06494,-0.12641
33.9644,5557.2447,0.0777,0.05822,-0.10258
33.993,5557.2647,0.14429,0.02768,-0.09403
34.0253,5557.2847,0.11252,0.00568,-0.07632
34.0355,5557.3047,0.00134,-0.01875,-0.06715
34.0522,5557.3247,-0.06341,0.03501,-0.04883
34.0614,5557.3447,-0.01943,0.11747,-0.00668
34.0973,5557.3647,0.05327,0.08326,0.05624
34.1013,5557.3847,0.1168,-0.00226,0.08556
34.1211,5557.4047,0.07037,-0.09938,0.09473
34.1414,5557.4247,-0.05608,-0.00042,0.08251
34.1585,5557.4448,-0.06463,0.00507,0.05868
34.1812,5557.4648,-0.02004,0.00568,0.07273
34.2012,5557.4848,0.00806,-0.0273,0.07273
34.2199,5557.5049,0.00867,-0.01997,0.04769
34.24,5557.5249,0.0606,0.03562,0.01837
34.2638,5557.5449,0.03677,0.01607,0.01348
34.2868,5557.5649,-0.02615,0.11503,-0.02806
34.3143,5557.585,0.01967,0.10342,-0.03478
34.3305,5557.605,0.07037,0.0344,0.02448
34.3429,5557.625,0.10886,0.0008,0.06174
34.3616,5557.6451,0.08076,-0.05907,0.03792
34.384,5557.6651,0.06365,-0.01508,0.0202
34.4007,5557.6851,0.03494,-0.07312,0.04341
34.4241,5557.7051,-0.09945,-0.05051,-0.01645
34.4457,5557.7252,-0.06585,0.13213,-0.0867
34.4639,5557.7452,0.02822,0.11014,-0.05433
34.4868,5557.7652,0.0722,0.03195,0.00554
34.5101,5557.7853,0.04288,-0.00409,0.03486
34.5248,5557.8053,0.05632,0.01912,0.02753
34.5601,5557.8253,0.10397,0.00568,0.04463
34.5703,5557.8453,0.04105,-0.01631,-0.00423
34.5814,5557.8654,0.02578,0.04417,-0.036
34.6,5557.8854,0.0099,0.0796,-0.00301
34.6258,5557.9054,-0.00415,0.07227,0.04036
34.6409,5557.9255,0.03861,0.01607,0.04463
34.6867,5557.9455,0.10947,0.02157,0.03608
34.6899,5557.9655,0.18766,0.07044,0.05441
34.7007,5557.9855,0.14734,0.08204,0.0593
34.719,5558.0055,0.01478,0.05394,0.08068
34.7416,5558.0255,-0.01271,0.00202,0.07273
34.7584,5558.0455,-0.00721,0.00385,0.05441
34.7807,5558.0655,0.02639,-0.02425,0.01776
34.8025,5558.0855,0.03922,-0.04624,-0.00057
34.8238,5558.1055,-0.01759,-0.00592,0.03303
34.844,5558.1255,-0.05425,0.02829,0.01287
34.8629,5558.1455,-0.08235,0.03195,-0.02928
34.8832,5558.1655,-0.04936,0.06677,-0.02867
34.906,5558.1855,0.03372,0.03867,0.02203
34.9228,5558.2055,0.09114,-0.03158,0.0538
34.9407,5558.2255,0.04594,-0.04074,0.03303
34.9603,5558.2455,-0.00538,-0.02364,0.01776
34.9875,5558.2655,-0.01759,0.046,-0.01584
35.012,5558.2855,-0.01332,0.09426,0.00737
35.0233,5558.3055,0.0325,-0.00348,0.04341
35.0426,5558.3255,0.05143,-0.04502,0.01592
35.0623,5558.3455,0.03983,-0.03952,-0.00851
35.0865,5558.3654,0.06426,-0.00042,0.00126
35.1049,5558.3854,0.02883,-0.01081,-0.02928
35.1201,5558.4054,-0.00782,0.00568,-0.05433
35.142,5558.4254,0.01234,0.02584,-0.05921
35.1623,5558.4454,0.01173,0.07593,-0.01218
35.179,5558.4654,0.05571,0.06921,-0.01279
35.2011,5558.4854,0.06487,0.10526,-0.01462
35.2227,5558.5054,0.02395,0.08143,-0.02561
35.2407,5558.5254,-0.03714,0.0344,-0.01462
35.2657,5558.5454,-0.07563,0.05516,-0.00973
35.288,5558.5654,-0.05547,0.08265,-0.03417
35.3056,5558.5854,0.00623,0.0515,-0.03844
35.3223,5558.6054,-0.01087,0.0405,-0.04272
35.3483,5558.6254,-0.02615,0.0344,-0.00546
35.364,5558.6454,0.02822,-0.01997,0.01226
35.3813,5558.6654,0.09297,-0.00837,0.03669
35.4052,5558.6854,0.05327,-0.04196,0.03058
35.4254,5558.7054,0.04288,0.05516,-0.00485
35.4422,5558.7254,-0.01148,0.06983,-0.00912
35.4638,5558.7454,0.00623,0.06372,0.01776
35.4817,5558.7654,0.0496,-0.02791,0.01592
35.5065,5558.7854,-0.00599,-0.02913,-0.0079
35.5256,5558.8054,-0.15687,-0.04013,-0.01584
35.5452,5558.8255,-0.37006,0.05089,-0.05188
35.5656,5558.8455,-0.2821,0.08815,-0.04638
35.5882,5558.8655,-0.03592,0.11014,-0.06104
35.6102,5558.8856,0.14062,0.03867,-0.00668
35.6324,5558.9056,0.21515,-0.05907,0.02997
35.6466,5558.9256,0.12474,-0.03524,0.00859
35.6611,5558.9456,0.00318,0.05883,-0.00973
35.6881,5558.9657,-0.02676,0.046,-0.00912
35.7027,5558.9857,0.01173,0.0008,0.0202
35.7211,5559.0057,0.05876,-0.0383,0.05197
35.7408,5559.0258,0.04227,-0.09083,0.05746
35.7655,5559.0458,0.00073,-0.01264,0.03364
35.7841,5559.0658,-0.01087,0.03195,0.01348
35.8031,5559.0858,-0.0237,0.08265,-0.00362
35.8255,5559.1059,0.00806,0.05394,0.01776
35.8454,5559.1259,0.09053,-0.03524,0.03181
35.8739,5559.1459,0.10397,-0.07617,0.02387
35.8946,5559.166,0.1284,-0.04074,0.04708
35.9027,5559.186,0.03005,-0.00592,0.01776
35.9216,5559.206,-0.01026,0.04783,-0.00668
35.9433,5559.226,0.02456,0.02462,-0.02195
35.9606,5559.2461,-0.02798,0.0124,-0.00729
35.9955,5559.2661,0.00134,-0.02669,-0.00423
36.0167,5559.2861,0.06365,0.00141,-0.01034
36.0314,5559.3062,0.02028,0.01363,-0.04211
36.0414,5559.3262,-0.00171,0.07593,-0.04516
36.0626,5559.3462,0.00623,0.05089,-0.02623
36.0851,5559.3662,-0.07318,0.05333,-0.01584
36.1011,5559.3862,-0.02492,0.02951,-0.02561
36.1223,5559.4063,0.08564,0.02523,0.00065
36.1403,5559.4263,0.12046,-0.06579,0.06724
36.1616,5559.4463,0.09481,-0.11038,0.07518
36.184,5559.4663,0.00379,0.04783,0.01409
36.2018,5559.4864,-0.02798,0.08388,-0.01767
36.2221,5559.5064,-0.01882,0.06188,0.00065
36.245,5559.5264,0.01784,-0.00959,0.01104
36.2663,5559.5465,0.05143,-0.00103,0.01104
36.2838,5559.5665,0.06304,-0.01447,0.02081
36.3042,5559.5865,0.02517,0.01118,0.01348
36.3258,5559.6065,-0.01332,0.04478,0.00554
36.3484,5559.6266,-0.01698,0.03867,0.00126
36.3685,5559.6466,0.016,0.01179,0.02142
36.3897,5559.6666,0.06854,-0.04624,0.0373
36.4046,5559.6867,0.08564,-0.04868,0.0202
36.4291,5559.7067,-0.00049,0.06372,0.00798
36.4448,5559.7267,-0.03897,0.06555,0.01043
36.4611,5559.7467,0.02211,0.00446,0.01653
36.4833,5559.7668,0.09725,-0.06579,0.0257
36.5038,5559.7868,0.05021,-0.08228,0.01776
36.5264,5559.8068,0.00134,0.02401,0.01287
36.5452,5559.8269,0.027,0.0234,0.02387
36.5636,5559.8469,0.00806,0.02462,-0.01279
36.5841,5559.8669,0.00012,0.02218,-0.02439
36.605,5559.8869,-0.0182,0.03317,-0.00362
36.6289,5559.907,-0.00171,-0.00226,0.01837
36.6507,5559.927,0.06365,-0.03219,-0.01034
36.697,5559.947,0.10763,0.03256,-0.0305
36.702,5559.9671,0.07465,0.06188,-0.02623
36.7047,5559.9871,-0.01332,0.04234,-0.01095
36.7232,5560.007,-0.02615,-0.00592,0.00798
36.7403,5560.027,0.00379,-0.0047,0.02081
36.7612,5560.047,0.00012,-0.04563,-0.0079
36.7826,5560.067,0.00501,-0.02242,-0.01218
36.8011,5560.087,-0.00843,-0.01264,-0.00546
36.8212,5560.107,-0.04936,0.03012,0.01165
36.8439,5560.127,-0.03897,0.0234,0.00371
36.8654,5560.147,0.01784,-0.00226,-0.01706
36.8846,5560.167,0.06121,-0.02486,-0.01279
36.9109,5560.187,0.02456,-0.01142,0.01104
36.9242,5560.207,-0.04203,-0.01875,0.01409
36.9437,5560.227,-0.01576,0.02829,-0.01156
36.9681,5560.247,0.01417,0.03073,-0.0189
36.9867,5560.267,0.05388,0.00263,0.01165
37.0076,5560.287,0.03555,-0.0218,0.03364
37.022,5560.307,-0.00843,-0.01753,0.02387
37.0557,5560.327,-0.02248,0.03501,0.00798
37.0627,5560.347,0.0044,0.03195,0.00371
37.0903,5560.367,0.02028,-0.00775,0.0257
37.1034,5560.387,-0.00293,0.00568,0.01959
37.1226,5560.407,-0.02004,-0.00042,-0.03478
37.1429,5560.427,-0.03287,0.0063,-0.03172
37.1625,5560.447,-0.02126,-0.01081,0.00248
37.1824,5560.4671,0.02089,-0.02669,0.03425
37.2068,5560.4871,0.03005,-0.03524,0.02875
37.23,5560.5071,-0.02492,0.01118,-0.0024
37.2499,5560.5272,-0.0237,0.02035,-0.02561
37.2762,5560.5472,0.00501,0.03012,-0.02439
37.2835,5560.5672,0.05632,0.00446,-0.01218
37.302,5560.5872,0.0325,-0.0157,-0.02195
37.3242,5560.6073,0.00928,0.01118,-0.02073
37.3423,5560.6273,-0.00721,0.01973,-0.01462
37.3677,5560.6473,0.00318,-0.0047,0.00432
37.3889,5560.6674,0.05938,0.02584,0.00554
37.4076,5560.6874,0.0441,0.05455,0.01348
37.432,5560.7074,-0.00904,-0.03524,0.00554
37.4531,5560.7274,-0.0292,-0.0102,0.01715
37.4632,5560.7475,0.00928,-0.01447,0.0202
37.4833,5560.7675,-0.00782,0.00263,-0.00973
37.5085,5560.7875,-0.03531,0.00507,-0.02928
37.5254,5560.8076,-0.02309,0.02157,-0.02806
37.5444,5560.8276,0.01295,-0.01142,-0.00423
37.5649,5560.8477,0.03983,-0.01386,-0.01645
37.5833,5560.8677,0.02944,0.01668,-0.01584
37.6082,5560.8878,-0.04814,0.00935,-0.00973
37.6299,5560.9079,-0.03348,0.00813,-0.00179
37.6475,5560.9279,0.027,-0.00165,0.00126
37.6684,5560.948,0.05754,0.0063,0.02997
37.6961,5560.968,0.04777,-0.00959,0.04769
37.7087,5560.9881,0.03311,-0.02791,0.03425
37.7239,5561.0081,-0.01148,-0.01936,-0.01523
37.7449,5561.0282,-0.06341,0.06799,-0.03539
37.7635,5561.0482,-0.04264,0.03745,-0.03783
37.7851,5561.0682,0.01173,0.01668,-0.03417
37.8061,5561.0883,0.0606,-0.04685,-0.01218
37.8257,5561.1083,0.0441,0.0234,-0.01462
37.8471,5561.1283,0.027,0.01485,-0.00362
37.8704,5561.1483,0.0044,0.06494,-0.01523
37.8871,5561.1684,0.01967,0.00263,-0.0079
37.9077,5561.1884,0.05999,-0.00959,-0.00118
37.9356,5561.2084,0.05388,-0.01264,0.00859
37.9514,5561.2285,0.00501,0.03745,-0.00423
37.9682,5561.2485,-0.0573,0.04906,0.00737
37.9898,5561.2685,-0.0066,0.04111,-0.01828
38.0067,5561.2885,0.01661,0.05394,-0.03172
38.0268,5561.3086,0.00562,0.02096,-0.02012
38.0544,5561.3286,0.016,0.00874,-0.0134
38.0667,5561.3486,-0.0121,-0.00714,-0.01095
38.0831,5561.3686,-0.02065,0.00446,-0.0189
38.1053,5561.3887,0.01173,0.00874,-0.02684
38.1225,5561.4087,-0.01637,0.0344,-0.00851
38.1452,5561.4287,-0.00415,0.02706,0.01531
38.1637,5561.4487,0.02456,-0.01081,0.02387
38.1843,5561.4687,0.01784,0.00568,0.01043
38.2049,5561.4887,-0.00721,-0.00348,-0.0189
38.2262,5561.5087,-0.00171,0.04967,-0.02684
38.2511,5561.5287,-0.00477,0.05883,-0.00668
38.2658,5561.5487,0.00073,0.03806,4e-05
38.2865,5561.5687,0.03616,-0.02119,-0.0024
38.3042,5561.5887,0.04716,-0.04685,-0.00118
38.3262,5561.6087,0.00745,0.00202,0.00615
38.3502,5561.6287,-0.0066,0.0344,-0.00851
38.3756,5561.6486,-0.01515,0.01973,-0.02012
38.3878,5561.6686,-0.01271,0.00263,-0.01828
38.4066,5561.6886,0.02028,-0.00042,-0.00301
38.4291,5561.7086,0.03616,0.00019,0.00859
38.4431,5561.7286,-0.00415,0.02096,-0.02256
38.467,5561.7486,-0.0292,0.04417,-0.0189
38.4828,5561.7686,-0.05241,0.01118,-0.00912
38.5044,5561.7886,0.00501,-0.00898,-0.00973
38.5241,5561.8086,0.05938,-0.02119,-0.01279
38.5441,5561.8286,0.03616,-0.04746,-0.02073
38.5639,5561.8486,-0.02126,-0.01875,-0.03844
38.5862,5561.8686,-0.01148,0.04356,-0.03295
38.6044,5561.8886,0.04166,-0.00042,-0.02073
38.6291,5561.9086,0.07404,-0.0383,-0.01645
38.649,5561.9286,0.01417,-0.03585,-0.03356
38.6741,5561.9486,-0.02981,0.03073,-0.03783
38.6876,5561.9686,-0.00782,0.05578,-0.00973
38.7041,5561.9886,0.03738,0.01424,0.01409
38.725,5562.0086,0.00318,-0.07495,-0.00301
38.743,5562.0286,-0.04447,-0.09572,-0.03966
38.7653,5562.0486,-0.0292,-0.06151,-0.02928
38.7874,5562.0685,-0.00293,-0.01692,-0.02012
38.8047,5562.0885,-0.02309,-0.03402,-0.01828
38.8304,5562.1085,-0.03592,-0.02303,0.00126
38.8433,5562.1285,-0.03225,-0.03708,-0.00301
38.8644,5562.1485,-0.00477,0.00507,-0.02806
38.8864,5562.1685,0.03738,0.02584,-0.02134
38.9043,5562.1885,0.06121,0.02157,-0.025
38.9262,5562.2085,0.07281,0.01118,-0.02073
38.9491,5562.2285,0.08381,-0.01447,-0.02684
38.975,5562.2485,0.09603,-0.00103,-0.02012
39.0078,5562.2685,0.11191,-0.03097,-0.02806
39.0195,5562.2885,0.10519,-0.03341,-0.03661
39.0386,5562.3085,0.07465,0.03623,-0.0641
39.0483,5562.3285,0.04533,0.05333,-0.07876
39.0743,5562.3485,0.01784,0.046,-0.09342
39.0913,5562.3685,0.04166,0.03928,-0.08609
39.1051,5562.3885,0.05632,0.05455,-0.05127
39.1281,5562.4085,0.01173,0.02035,-0.02623
39.1421,5562.4285,-0.04325,0.03989,-0.02012
39.1621,5562.4485,-0.05669,0.09854,-0.02561
39.1833,5562.4684,-0.06646,0.10037,0.01776
39.2026,5562.4884,-0.05852,0.02462,0.06785
39.2271,5562.5084,-0.04814,-0.00898,0.10389
39.2497,5562.5284,-0.03287,-0.0157,0.11672
39.2667,5562.5484,-0.01087,0.0289,0.07273
39.2845,5562.5684,0.02944,0.11931,0.03792
39.3085,5562.5884,0.05815,0.12664,0.02692
39.3252,5562.6084,0.07892,0.12419,0.03853
39.3449,5562.6284,0.06854,0.04356,0.03486
39.3655,5562.6484,0.00623,0.03867,0.01226
39.3841,5562.6684,-0.00171,0.09304,4e-05
39.4055,5562.6884,-0.00721,0.0515,0.03792
39.4288,5562.7084,0.01295,-0.01142,0.06785
39.4472,5562.7284,0.0606,-0.00348,0.05807
39.4676,5562.7484,0.05266,-0.02119,0.02081
39.4896,5562.7684,0.02761,-0.0218,-0.01767
39.5087,5562.7884,-0.01271,-0.0157,-0.03966
39.5303,5562.8084,-0.0573,-0.00409,-0.05494
39.5557,5562.8284,-0.07563,0.01424,-0.0586
39.5724,5562.8484,-0.02126,0.01179,-0.07082
39.5903,5562.8684,0.05815,0.03562,-0.05982
39.6053,5562.8883,0.05082,-0.01447,-0.00851
39.6245,5562.9083,0.04166,-0.04624,0.01776
39.6461,5562.9283,0.03005,-0.03402,0.01959
39.6651,5562.9483,0.00928,0.0124,-0.01156
39.6845,5562.9683,0.01173,0.03317,-0.03722
39.7058,5562.9883,0.02944,-0.01264,-0.00362
39.7288,5563.0083,0.0606,-0.00348,0.03303
39.7434,5563.0283,0.06121,0.03134,0.04586
39.7641,5563.0483,0.04288,0.03623,0.0312
39.7871,5563.0683,0.01112,0.07777,0.01165
39.808,5563.0883,0.02456,0.07105,-0.01218
39.8236,5563.1083,0.03311,0.03989,-0.04883
39.8485,5563.1283,0.01661,0.03134,-0.03539
39.8639,5563.1483,0.01356,0.057,0.01348
39.883,5563.1683,-0.00477,0.0344,0.06479
39.9048,5563.1883,-0.00232,-0.0047,0.11733
39.9268,5563.2083,0.01539,-0.08045,0.11305
39.9499,5563.2283,0.04471,-0.10427,0.08678
39.9729,5563.2483,0.06304,-0.10733,0.07151
39.987,5563.2684,0.03311,-0.04746,0.06724
40.0035,5563.2884,0.00806,0.00996,0.0373
40.0278,5563.3084,0.04227,0.0063,0.0092
40.0615,5563.3284,0.06854,-0.078,-0.01523
40.074,5563.3485,0.05693,-0.08961,-0.02439
40.0861,5563.3685,0.06121,0.02523,-0.0586
40.104,5563.3885,-0.00721,0.03745,-0.07754
40.1237,5563.4085,-0.0683,0.06494,-0.07326
40.1453,5563.4286,-0.04264,0.0515,-0.04333
40.1637,5563.4486,-0.02248,-0.0157,0.01104
40.1847,5563.4686,0.0099,-0.07373,0.04891
40.2062,5563.4887,0.07098,-0.02303,0.05807
40.2261,5563.5087,0.05388,0.03867,0.04586
40.2548,5563.5287,0.02089,0.11136,0.04097
40.2733,5563.5487,0.05632,0.07044,0.03058
40.2847,5563.5688,0.11435,0.04295,0.05807
40.3116,5563.5888,0.11069,0.02462,0.09228
40.3251,5563.6088,0.05876,0.04417,0.09228
40.3478,5563.6289,0.03128,0.07716,0.06296
40.3689,5563.6489,0.01906,0.06555,0.07762
40.3857,5563.6689,0.03922,-0.02119,0.10328
40.4063,5563.689,0.03738,-0.0328,0.09228
40.4243,5563.709,0.05632,-0.0047,0.09473
40.4467,5563.7291,0.04777,-0.00226,0.0819
40.465,5563.7492,0.01234,0.0234,0.08129
40.4847,5563.7692,-0.00354,0.00507,0.07762
40.5073,5563.7893,-0.00171,-0.13787,0.05197
40.5275,5563.8094,0.0044,-0.1959,0.04525
40.555,5563.8294,-0.00293,-0.1397,0.02448
40.5761,5563.8494,-0.06463,-0.0438,0.01043
40.5886,5563.8694,-0.06463,-0.03463,0.01959
40.6066,5563.8895,0.00379,-0.10855,0.03914
40.6272,5563.9095,0.01051,-0.19529,0.03364
40.6453,5563.9295,-0.05119,-0.17635,-0.01156
40.6825,5563.9496,-0.06341,-0.05174,-0.06593
40.6857,5563.9696,-0.01393,-0.02058,-0.06838
40.7056,5563.9896,0.03922,-0.07495,-0.00057
40.7241,5564.0096,0.05449,-0.12321,0.0257
40.7454,5564.0297,-0.0066,-0.11343,0.00126
40.7664,5564.0497,-0.02004,-0.0102,-0.0024
40.7948,5564.0698,-0.00538,0.01057,0.00371
40.8082,5564.0899,-0.02065,-0.05235,0.04463
40.8309,5564.1099,0.00501,-0.13054,0.07273
40.8515,5564.13,0.00318,-0.09999,0.07396
40.8723,5564.1501,0.01661,-0.0609,0.05258
40.888,5564.1702,0.00501,-0.01814,-0.00851
40.9076,5564.1903,-0.03103,0.00691,-0.02928
40.9316,5564.2104,-0.0182,-0.00287,-0.04944
40.9508,5564.2305,0.016,-0.02913,-0.07204
40.9733,5564.2506,-0.02676,-0.01936,-0.07937
40.9972,5564.2707,-0.07624,-0.03158,-0.09709
41.0189,5564.2908,-0.05363,-0.0218,-0.08853
41.0281,5564.3108,-0.04081,0.00507,-0.05494
41.0545,5564.3309,-0.07685,0.02462,-0.02806
41.0667,5564.351,-0.07257,0.06311,0.00248
41.094,5564.3711,-0.01454,0.03134,0.01287
41.1164,5564.3912,0.01723,0.00568,0.02448
41.1274,5564.4113,0.01906,0.00568,0.05746
41.1461,5564.4314,0.02089,0.04173,0.0593
41.1675,5564.4515,0.02028,0.05944,0.0428
41.1871,5564.4716,0.0044,0.07105,0.01653
41.2085,5564.4917,-0.02676,0.04478,0.0147
41.2296,5564.5118,-0.02553,0.06311,0.0257
41.2487,5564.5319,-0.02004,0.09731,0.03486
41.2675,5564.552,-0.01454,0.04478,0.02264
41.2948,5564.5721,-0.02615,0.01973,0.01653
41.3093,5564.5922,-0.03714,0.00874,0.0147
41.329,5564.6123,-0.0182,0.06921,0.02325
41.3555,5564.6324,0.01051,0.07838,0.02997
41.373,5564.6524,0.016,0.05272,0.03853
41.3879,5564.6725,-0.00538,0.00813,0.03486
41.4095,5564.6925,-0.02859,0.01485,0.02997
41.4298,5564.7126,-0.02248,0.02584,0.01165
41.4479,5564.7326,0.00928,0.05272,4e-05
41.4695,5564.7526,0.01906,0.04173,0.0147
41.4883,5564.7726,0.0325,0.00752,0.03608
41.5122,5564.7927,0.04655,-0.02364,0.04463
41.5317,5564.8127,0.03861,-0.02608,0.03058
41.5605,5564.8327,0.00318,0.02279,0.02997
41.5743,5564.8528,-0.00965,0.04967,0.01959
41.5895,5564.8728,0.0099,0.01851,0.00554
41.6105,5564.8928,0.03555,-0.04135,-0.00851
41.6272,5564.9128,-0.00049,-0.0664,-0.00607
41.6501,5564.9328,-0.05852,-0.05113,-0.00729
41.6713,5564.9528,-0.03592,0.04234,-0.00607
41.6887,5564.9728,0.02028,0.01302,0.01043
41.7092,5564.9928,0.02517,-0.01936,-0.00729
41.729,5565.0128,-0.00721,-0.00348,0.00126
41.7494,5565.0328,-0.05486,0.02706,-0.00851
41.7696,5565.0528,-0.04325,0.05211,-0.0079
41.7878,5565.0728,0.0325,0.03073,-0.0024
41.8112,5565.0928,0.06793,0.01546,0.00859
41.8338,5565.1128,0.02822,-0.01325,0.0312
41.8511,5565.1328,0.0044,0.04417,0.00432
41.8754,5565.1528,0.02517,0.08449,0.00798
41.8971,5565.1728,0.02333,0.02951,-0.01645
41.9079,5565.1928,0.02333,0.02584,-0.02745
41.9288,5565.2128,0.0441,0.03012,-0.03539
41.9495,5565.2328,0.06426,0.04356,-0.02134
41.9666,5565.2528,0.02517,0.04356,0.01409
42.0004,5565.2728,0.02761,0.03684,0.02264
42.0199,5565.2928,0.02028,0.01851,0.02387
42.0304,5565.3128,0.04044,0.00202,0.03303
42.0509,5565.3327,0.03677,-0.01936,0.00982
42.0711,5565.3527,0.00257,0.0234,0.02264
42.0917,5565.3727,-0.03164,0.0405,-0.00301
42.1099,5565.3927,-0.01271,0.05516,-0.025
42.1316,5565.4127,0.02883,0.02218,-0.01767
42.151,5565.4327,0.038,-0.02547,-0.00912
42.1677,5565.4527,0.03616,-0.0273,-0.01156
42.1883,5565.4727,-0.00354,0.03989,-0.00179
42.2065,5565.4927,-0.02248,0.04173,-0.00179
42.2279,5565.5127,-0.0066,0.03134,-0.03111
42.2484,5565.5327,-0.00538,-0.01264,-0.04272
42.267,5565.5527,0.0044,-0.04746,-0.03233
42.2873,5565.5727,0.00867,-0.02303,-0.01034
42.3097,5565.5927,-0.00415,0.00813,-0.00057
42.3332,5565.6127,-0.01698,0.046,-0.00179
42.3551,5565.6327,0.02517,0.01118,0.0147
42.3765,5565.6527,0.07648,-0.02486,0.04525
42.3911,5565.6727,0.07159,-0.03524,0.03669
42.4114,5565.6927,0.00806,0.01302,0.0147
42.4301,5565.7127,-0.03531,0.04845,-0.00423
42.4476,5565.7327,-0.00049,0.03256,-0.00668
42.47,5565.7526,0.03861,-0.0273,-0.00362
42.4905,5565.7726,0.03189,-0.05907,-0.01645
42.5088,5565.7926,0.01173,-0.01386,-0.02256
42.5278,5565.8126,-0.0237,0.04417,-0.02867
42.5508,5565.8326,-0.04569,0.04356,-0.02134
42.5692,5565.8526,-0.00171,-0.00653,0.00493
42.5891,5565.8726,0.03555,-0.04441,-0.0024
42.6133,5565.8926,0.01661,0.00874,-0.02561
42.6366,5565.9126,-0.02676,0.02829,-0.04944
42.6539,5565.9326,-0.06524,0.03256,-0.01951
42.6754,5565.9526,-0.01515,-0.03097,0.0257
42.694,5565.9726,0.02761,-0.06518,0.03669
42.7065,5565.9926,0.04227,0.01668,0.02081
42.7281,5566.0126,-0.00599,0.01912,-0.01095
42.7461,5566.0326,-0.06524,0.02584,0.01653
42.7691,5566.0526,-0.0518,-0.0273,0.0373
42.7898,5566.0726,-0.02981,-0.06518,0.06724
42.8071,5566.0926,-0.02065,-0.05296,0.08129
42.8299,5566.1126,-0.06219,-0.01081,0.06174
42.8494,5566.1326,-0.04142,-0.00409,0.00859
42.8661,5566.1525,-0.02187,-0.07006,-0.00301
42.8876,5566.1725,-0.04569,-0.13481,0.01043
42.9093,5566.1925,-0.05547,-0.13543,0.00126
42.9324,5566.2126,-0.03775,-0.04257,-0.03844
42.9499,5566.2326,-0.06891,-0.02669,-0.07326
42.97,5566.2526,-0.10067,-0.03952,-0.10014
42.9917,5566.2727,-0.108,-0.07556,-0.1093
43.0108,5566.2927,-0.08418,-0.13298,-0.0977
43.0307,5566.3127,-0.06035,-0.16352,-0.08792
43.0524,5566.3327,-0.10617,-0.1397,-0.10869
43.0748,5566.3528,-0.14038,-0.05846,-0.13618
43.09,5566.3728,-0.09823,-0.05723,-0.14534
43.1082,5566.3928,-0.01759,-0.08961,-0.11847
43.1278,5566.4129,-0.0121,-0.10122,-0.12152
43.1497,5566.4329,-0.04386,-0.06884,-0.13435
43.1754,5566.4529,-0.04203,-0.04868,-0.13679
43.1987,5566.4729,-0.05852,-0.08411,-0.12519
43.2124,5566.493,-0.06707,-0.07861,-0.14046
43.232,5566.513,-0.05608,-0.01875,-0.16306
43.249,5566.533,-0.07624,-0.02791,-0.14412
43.2694,5566.5531,-0.08112,-0.06518,-0.10625
43.2878,5566.5731,-0.05608,-0.05479,-0.08731
43.3115,5566.5931,-0.02004,0.00263,-0.08548
43.3351,5566.6131,0.00073,0.05089,-0.07509
43.3525,5566.6332,-0.01148,0.07105,-0.04089
43.3732,5566.6532,-0.00904,0.01973,-0.00362
43.398,5566.6732,0.01661,-0.03769,-0.01951
43.4121,5566.6933,0.02456,0.02768,-0.03783
43.4312,5566.7133,0.02517,0.06799,-0.0415
43.4518,5566.7333,0.05266,0.07838,-0.03722
43.4722,5566.7533,0.07831,0.0515,-0.03661
43.4893,5566.7734,0.06365,0.02462,-0.047
43.5102,5566.7934,0.02211,0.02096,-0.05127
43.5307,5566.8134,-0.01087,-0.00714,-0.07815
43.5591,5566.8334,-0.00782,0.01057,-0.0696
43.5718,5566.8534,-0.00965,-0.06029,-0.03905
43.5908,5566.8734,-0.05241,-0.12015,-0.01462
43.6099,5566.8935,-0.07868,-0.08595,-0.02989
43.6344,5566.9135,-0.08601,-0.04196,-0.05188
43.6517,5566.9335,-0.06768,-0.05601,-0.02317
43.6739,5566.9536,-0.06158,-0.09389,-0.00301
43.6955,5566.9736,-0.0237,-0.12565,-0.03417
43.7147,5566.9936,-0.03042,-0.01386,-0.05494
43.7352,5567.0136,-0.03531,0.04539,-0.05005
43.7526,5567.0337,0.00134,0.02645,-0.0586
43.7798,5567.0537,0.02944,0.00019,-0.08548
43.7905,5567.0737,0.03372,0.02462,-0.08976
43.8128,5567.0938,0.0215,0.07288,-0.07876
43.8333,5567.1138,0.0551,0.07044,-0.08059
43.8499,5567.1338,0.06365,0.04295,-0.0867
43.8724,5567.1538,0.08137,0.01485,-0.0696
43.8933,5567.1739,0.13451,-0.00531,-0.04761
43.9161,5567.1939,0.13757,0.0686,-0.03905
43.9338,5567.2139,0.05754,0.10281,-0.03905
43.9521,5567.234,-0.01026,0.01363,-0.03539
43.9721,5567.254,-0.01271,-0.0609,-0.04028
43.9907,5567.274,-0.00415,-0.12504,-0.03844
44.0169,5567.294,-0.03348,-0.08289,-0.02561
44.0295,5567.3141,-0.09212,-0.04318,-0.03478
44.0635,5567.3341,-0.1306,-0.03402,-0.03356
44.07,5567.3542,-0.08173,-0.16963,-0.02989
44.0904,5567.3742,0.00623,-0.23805,-0.02195
44.1111,5567.3943,0.05327,-0.17757,-0.01462
44.1289,5567.4144,0.01295,-0.08045,-0.01218
44.1626,5567.4344,-0.04875,-0.03952,0.00798
44.1721,5567.4545,0.027,-0.06579,0.01165
44.1976,5567.4745,0.12352,-0.09022,0.02692
44.2166,5567.4945,0.11008,-0.02425,0.03364
44.2328,5567.5145,0.05938,0.02584,-0.0079
44.2518,5567.5346,0.01661,0.04845,-0.04944
44.2701,5567.5546,0.03433,0.07593,-0.05494
44.2916,5567.5746,0.03983,0.12786,-0.03539
44.3097,5567.5947,-0.03103,0.09487,0.01226
44.3312,5567.6147,-0.03103,0.02096,0.07945
44.3524,5567.6347,0.08076,-0.01814,0.13626
44.376,5567.6547,0.15101,-0.00409,0.15887
44.3946,5567.6748,0.11069,0.04722,0.15276
44.4224,5567.6948,0.09969,0.0179,0.11183
44.4421,5567.7148,0.1113,0.05394,0.09473
44.4638,5567.7349,0.06487,0.05639,0.07701
44.4785,5567.7549,0.03005,0.02096,0.02509
44.4904,5567.7749,0.02272,0.0063,0.00065
44.5117,5567.7949,0.027,0.04417,-0.00485
44.5324,5567.815,0.02761,0.01485,0.00187
44.5511,5567.835,-0.00171,0.01485,-0.01584
44.5713,5567.855,-0.0292,0.01118,-0.02317
44.596,5567.8751,-0.05241,-0.03219,-0.04028
44.6143,5567.8951,-0.0683,-0.06579,-0.06593
44.6377,5567.9151,-0.0463,-0.09633,-0.09342
44.6616,5567.9351,0.00073,-0.0499,-0.06349
44.6696,5567.9551,0.02639,-0.01081,-0.03356
44.6995,5567.9751,0.03738,-0.02547,0.00065
44.7144,5567.9951,0.06426,-0.06579,-0.00423
44.731,5568.0151,0.0661,-0.09083,-0.01462
44.7539,5568.0351,0.04716,-0.15253,-0.04516
44.7701,5568.0551,0.02333,-0.15375,-0.05616
44.7898,5568.0751,-0.05363,-0.0835,-0.036
44.8097,5568.0951,-0.09823,-0.01631,-0.02623
44.8321,5568.1151,-0.06035,-0.06273,-0.07021
44.853,5568.1351,-0.04569,-0.06945,-0.12213
44.8756,5568.1551,-0.06158,-0.02791,-0.13191
44.8979,5568.1751,-0.06096,-0.00226,-0.0977
44.9147,5568.195,-0.02859,0.03562,-0.08487
44.9343,5568.215,0.00195,0.03134,-0.10319
44.9563,5568.235,-0.03225,0.03623,-0.13129
44.9784,5568.255,-0.03348,0.03745,-0.11419
45.0118,5568.275,0.01661,0.08937,-0.07571
45.0239,5568.295,0.05143,0.06738,-0.03661
45.0342,5568.315,0.00134,0.06066,-0.0024
45.0497,5568.335,-0.0237,0.02096,0.00615
45.0771,5568.355,0.00562,0.00996,-0.02684
45.0921,5568.375,0.00134,0.0234,-0.00485
45.1088,5568.395,-0.02065,-0.0102,0.06357
45.1304,5568.415,0.01539,-0.02669,0.11488
45.1484,5568.435,0.04838,-0.04502,0.12038
45.1695,5568.455,0.02456,-0.06395,0.07701
45.1994,5568.475,-0.02309,-0.03708,0.03608
45.2098,5568.495,-0.07501,0.0405,-0.02989
45.2308,5568.515,-0.05119,0.05761,-0.05921
45.253,5568.535,-0.01943,0.07593,-0.05005
45.2746,5568.555,-0.0011,0.02401,-0.01523
45.2942,5568.575,0.01295,-0.00226,-0.01095
45.3127,5568.595,0.0099,-0.01447,-0.01706
45.3334,5568.6149,-0.02065,0.05211,0.02081
45.3521,5568.6349,-0.01576,0.05394,0.0538
45.3739,5568.6549,0.02333,-0.00837,0.06907
45.3925,5568.6749,0.04899,-0.04318,0.04158
45.4113,5568.6949,-0.01271,0.03073,0.04158
45.433,5568.7149,-0.04508,0.04906,0.07884
45.451,5568.7349,0.00073,0.01851,0.08068
45.4757,5568.7549,0.02883,0.0063,0.05135
45.4927,5568.7749,-0.02676,-0.04013,0.0257
45.5126,5568.7949,-0.06707,-0.04929,0.03242
45.5494,5568.8149,-0.04875,-0.01692,0.03425
45.5579,5568.8349,-0.04447,-0.01997,0.04158
45.5728,5568.8549,0.02639,0.0289,0.04158
45.5911,5568.8749,0.04105,0.02157,0.01226
45.611,5568.8949,-0.0182,0.00874,0.00126
45.6309,5568.9149,-0.01148,-0.00042,-0.01645
45.6507,5568.9349,0.02272,0.02523,-0.02806
45.6718,5568.9549,0.0099,-0.00103,-0.03295
45.6897,5568.9749,-0.03287,0.00813,-0.03295
45.7276,5568.9949,-0.03164,0.01973,-0.03417
45.7397,5569.0148,-0.00904,0.02645,-0.02561
45.7597,5569.0349,0.00928,-0.01508,0.01898
45.7738,5569.0549,0.03066,-0.0047,0.05746
45.7924,5569.0749,0.03616,0.01363,0.05502
45.8135,5569.095,0.038,0.03256,0.02203
45.8349,5569.115,-0.00171,0.02279,0.01409
45.8561,5569.135,0.01051,0.00813,0.00554
45.8739,5569.155,0.0551,0.03806,-0.00485
45.8938,5569.1751,0.05388,0.04967,-0.00179
45.9164,5569.1951,0.01784,0.04295,-0.0189
45.9383,5569.2151,-0.03775,0.03623,-0.07693
45.9557,5569.2352,-0.02798,0.03989,-0.11053
45.979,5569.2552,0.016,0.057,-0.08181
45.999,5569.2752,0.01234,0.07349,-0.00668
46.0182,5569.2952,0.00684,0.03867,0.02875
46.0338,5569.3153,0.03128,-0.00653,-0.00057
46.0649,5569.3353,0.03189,0.01363,-0.02623
46.0797,5569.3553,-0.02431,0.00141,-0.04333
46.0944,5569.3754,-0.08296,0.00019,-0.03111
46.111,5569.3954,-0.02492,0.02829,-0.02378
46.1295,5569.4154,0.07159,0.0289,-0.01462
46.1512,5569.4354,0.12474,0.07105,-0.02195
46.1696,5569.4555,0.01356,-0.01508,0.0092
46.1937,5569.4755,-0.04875,-0.04929,0.02142
46.2126,5569.4955,-0.00354,-0.01997,-0.01951
46.2379,5569.5156,0.05021,0.08815,-0.05494
46.2544,5569.5356,0.05021,0.15718,-0.02561
46.2741,5569.5556,-0.05913,-0.04196,0.04097
46.2942,5569.5756,-0.03775,-0.13359,0.02997
46.3188,5569.5957,-0.01271,-0.07067,-0.02867
46.3337,5569.6157,-0.04264,0.13519,-0.05738
46.353,5569.6357,-0.04325,0.16756,-0.03966
46.373,5569.6557,-0.04508,0.00019,0.01653
46.3937,5569.6757,-0.01148,-0.12932,0.05807
46.4151,5569.6957,0.01845,-0.11038,0.01165
46.4381,5569.7157,-0.03225,0.05333,-0.04638
46.4561,5569.7357,-0.10861,0.09182,-0.03966
46.4736,5569.7557,-0.07807,-0.0383,-0.00423
46.495,5569.7757,0.01784,-0.18857,0.07396
46.5187,5569.7957,0.07709,-0.19957,0.12038
46.5383,5569.8157,0.03861,-0.11221,0.11611
46.5598,5569.8356,-0.0628,0.03378,0.09839
46.5768,5569.8556,-0.03592,0.09731,0.07579
46.5928,5569.8756,0.04105,0.04539,0.05563
46.6105,5569.8956,0.02517,-0.06029,4e-05
46.6346,5569.9156,-0.19108,0.03195,-0.11663
46.6532,5569.9356,-0.29737,0.14741,-0.17711
46.6827,5569.9556,-0.30898,0.10526,-0.22598
46.6942,5569.9756,-0.17459,0.05211,-0.21315
46.7093,5569.9956,-0.07318,-0.02791,-0.19116
46.7291,5570.0156,-0.17703,-0.06212,-0.07204
46.7531,5570.0356,-0.23751,0.01912,-0.06166
46.7715,5570.0556,-0.12633,0.06311,-0.08609
46.7925,5570.0756,0.00012,0.0344,-0.01645
46.813,5570.0956,0.18827,-0.01936,0.11244
46.834,5570.1156,0.308,-0.12932,0.12771
46.8507,5570.1356,0.27501,-0.06884,0.09167
46.873,5570.1556,0.13085,-0.03769,0.06296
46.89,5570.1756,-0.00293,0.00935,0.06785
46.9103,5570.1956,-0.0011,0.06005,0.04463
46.9319,5570.2156,0.05266,0.04111,0.03242
46.9503,5570.2356,0.10397,-0.0102,-0.0024
46.9835,5570.2555,0.09908,-0.00898,-0.01645
47.0121,5570.2755,0.04899,-0.0218,-0.00729
47.021,5570.2955,-0.02065,-0.02425,-0.00912
47.0311,5570.3155,0.01661,0.0625,-0.02378
47.057,5570.3355,0.00562,0.00019,-0.04272
47.0917,5570.3555,-0.01332,-0.06884,-0.03966
47.0959,5570.3755,0.02883,-0.13359,-0.02012
47.1132,5570.3955,0.04349,-0.1342,-0.01095
47.1318,5570.4156,-0.00477,-0.02119,-0.02073
47.151,5570.4356,-0.03531,0.01302,-0.03356
47.1724,5570.4556,-0.0518,0.04783,4e-05
47.1908,5570.4757,-0.00782,-0.00898,0.01653
47.211,5570.4957,0.04105,-0.03219,0.00859
47.2354,5570.5157,-0.0182,0.00019,-0.00607
47.2527,5570.5357,-0.0744,0.04234,-0.01645
47.2791,5570.5558,-0.05669,0.02645,0.00187
47.2971,5570.5758,0.00684,-0.03646,0.03486
47.316,5570.5958,0.07465,-0.03769,0.02081
47.3495,5570.6159,0.07648,0.03317,-0.03905
47.36,5570.6359,-0.00293,0.06066,-0.07204
47.3758,5570.6559,-0.04081,0.01179,-0.08181
47.3924,5570.6759,-0.03714,-0.04074,-0.07326
47.414,5570.696,-0.03348,-0.00592,-0.06043
47.4377,5570.716,-0.01148,0.01973,-0.03661
47.4547,5570.736,0.01539,0.01668,0.00737
47.479,5570.7561,0.0099,-0.02364,0.0147
47.4981,5570.7761,0.00928,-0.01203,-0.025
47.518,5570.7961,0.00379,0.01424,-0.05677
47.5366,5570.8161,-0.0237,-0.02791,-0.07143
47.5534,5570.8362,-0.01026,0.01851,-0.07143
47.5765,5570.8562,0.0044,0.02462,-0.05494
47.6003,5570.8762,-0.00782,0.02279,-0.02317
47.6152,5570.8963,0.00684,-0.00348,-0.00668
47.6347,5570.9163,0.05021,-0.03952,4e-05
47.6542,5570.9363,0.0325,0.00996,0.00982
47.6722,5570.9563,-0.00538,0.04539,0.01531
47.6909,5570.9764,0.01051,0.03623,0.01959
47.731,5570.9964,0.04471,0.02035,0.0428
47.7431,5571.0164,0.05938,0.00691,0.08556
47.7609,5571.0364,0.05205,0.01851,0.10083
47.7746,5571.0564,0.04044,-0.00653,0.06724
47.7922,5571.0763,0.01661,-0.02303,0.0147
47.8111,5571.0963,0.016,-0.07251,0.0202
47.8323,5571.1163,0.07953,-0.04563,0.03792
47.8557,5571.1363,0.09603,0.02584,0.06235
47.8744,5571.1563,0.04288,0.03562,0.05319
47.8954,5571.1763,0.02272,0.00568,0.01287
47.9118,5571.1963,0.02028,-0.0499,-0.03233
47.9316,5571.2163,0.03616,-0.03341,-0.04028
47.9534,5571.2363,0.04105,-0.00714,-0.02806
47.9747,5571.2563,0.01661,0.01668,0.00371
48.0024,5571.2762,0.0044,0.04478,0.02692
48.0284,5571.2962,0.01906,0.0179,0.00737
48.0439,5571.3162,0.02211,-0.00531,-0.02439
48.0525,5571.3361,0.0215,-0.03341,-0.0305
48.0864,5571.3561,0.02761,-0.02913,0.0202
48.1005,5571.3761,-0.04936,-0.05357,0.03486
48.1166,5571.3961,0.00379,-0.12504,0.0257
48.1329,5571.4161,0.15528,-0.17269,0.06724
48.1501,5571.4361,0.18644,-0.21728,0.08495
48.17,5571.4561,0.12107,-0.1959,0.04036
48.1945,5571.4761,0.11191,-0.1342,0.00493
48.2107,5571.4961,0.05693,-0.12199,-0.01095
48.2388,5571.5161,-0.02981,-0.01875,-0.05982
48.2574,5571.5361,-0.05974,0.06494,-0.10442
48.2733,5571.5561,-0.01637,0.06005,-0.10747
48.2935,5571.5761,0.06426,-0.0328,-0.09953
48.3188,5571.5961,0.03066,-0.06579,-0.07876
48.3345,5571.6161,-0.02615,-0.04624,-0.047
48.3521,5571.636,0.01356,-0.00103,-0.02684
48.3757,5571.656,0.05205,0.0289,-0.03966
48.3911,5571.676,0.05693,0.01729,-0.07509
48.4102,5571.696,0.0496,0.01179,-0.06288
48.4332,5571.716,-0.00538,0.01607,-0.00057
48.4512,5571.736,-0.02187,0.05578,-0.00179
48.4713,5571.756,0.04899,0.07471,-0.02073
48.4964,5571.776,0.0832,0.03989,-0.02073
48.5145,5571.796,0.04655,0.03012,-0.00607
48.5345,5571.816,-0.02126,0.03256,0.01715
48.5572,5571.836,-0.03714,0.09304,0.02142
48.5762,5571.856,-0.0011,0.05394,0.00798
48.6021,5571.8761,0.04044,-0.05479,0.0312
48.6167,5571.8961,0.02639,-0.10427,0.10206
48.6461,5571.9161,0.0044,-0.04685,0.13749
48.6645,5571.9361,0.00867,0.05272,0.12099
48.6893,5571.9561,0.0215,0.07044,0.09106
48.6921,5571.9761,0.03861,0.00019,0.06724
48.7114,5571.9962,0.03555,-0.07923,0.05197
48.7326,5572.0162,-0.0182,-0.02119,0.02387
48.7538,5572.0362,-0.0518,0.08693,-0.00607
48.7744,5572.0562,-0.01759,0.08632,0.00737
48.7983,5572.0763,0.00684,-0.03585,0.0257
48.8151,5572.0963,-0.07318,-0.08045,0.04463
48.834,5572.1163,-0.19291,-0.06823,-0.0079
48.8587,5572.1364,-0.32913,0.06311,-0.05555
48.876,5572.1564,-0.28637,0.06311,-0.06838
48.9049,5572.1764,-0.18314,-0.03036,-0.0305
48.9217,5572.1964,-0.10434,-0.03769,-0.02928
48.9414,5572.2165,-0.10311,-0.06762,-0.10381
48.9544,5572.2365,-0.15137,-0.03708,-0.15878
48.9763,5572.2566,-0.21002,0.15229,-0.13862
48.9964,5572.2767,-0.21429,0.29585,-0.07204
49.0127,5572.2967,-0.20452,0.2317,-0.04272
49.0426,5572.3168,-0.09517,-0.11038,-0.03478
49.059,5572.3368,0.03983,-0.36083,0.01776
49.0735,5572.3569,0.02578,0.06311,0.15215
49.0952,5572.377,-0.03348,0.22865,0.07212
49.1126,5572.397,0.14917,-0.20262,-0.07448
49.1395,5572.4171,0.13634,-0.12076,-0.036
49.1564,5572.4371,0.02944,-0.16414,0.03364
49.1792,5572.4572,-0.0402,-0.04685,0.0428
49.1935,5572.4773,-0.03287,0.02645,0.02875
49.2149,5572.4974,0.1168,-0.14459,0.04952
49.2413,5572.5175,0.25607,-0.24477,0.06235
49.2574,5572.5376,0.05021,-0.00959,0.0709
49.2781,5572.5577,-0.11716,0.02951,0.03792
49.2966,5572.5778,-0.10067,-0.08595,0.00248
49.3208,5572.5978,-0.00904,-0.15986,-0.00179
49.34,5572.6179,-0.02248,-0.08533,-0.02012
49.367,5572.638,-0.07746,0.01668,-0.04028
49.3774,5572.658,-0.12327,-0.00837,-0.01523
49.396,5572.6781,-0.10067,-0.0047,-0.01218
49.4173,5572.6982,0.01295,-0.06701,-0.08243
49.4408,5572.7182,0.01112,0.07838,-0.07693
49.4548,5572.7383,-0.05363,0.09059,-0.01645
49.4744,5572.7583,-0.00782,0.01851,-0.02561
49.4942,5572.7784,0.0832,-0.09999,-0.05371
49.516,5572.7985,0.16139,-0.21056,-0.0641
49.5358,5572.8185,0.10824,-0.14153,-0.03539
49.5556,5572.8386,-0.05669,0.08998,-0.00546
49.5762,5572.8586,-0.10067,-0.02303,-0.03295
49.5977,5572.8786,-0.03531,-0.21911,-0.07204
49.6189,5572.8986,-0.01148,-0.16414,-0.01218
49.6393,5572.9187,-0.04447,0.02951,0.02631
49.6632,5572.9387,-0.04692,0.3832,0.08984
49.6782,5572.9587,-0.02248,0.25125,0.08617
49.7077,5572.9787,0.00195,0.057,0.05441
49.7208,5572.9988,0.03311,-0.11404,0.00126
49.7338,5573.0188,0.02089,0.05394,-0.02256
49.7553,5573.0388,-0.03836,0.16023,-0.01828
49.7745,5573.0589,-0.02309,0.13702,0.01959
49.7944,5573.0789,0.06548,0.04906,0.05074
49.8217,5573.099,0.0777,-0.0047,0.00859
49.8377,5573.119,-0.01698,0.05394,-0.02684
49.8543,5573.139,-0.04508,0.07655,-0.00423
49.8761,5573.159,0.04655,0.0234,0.0147
49.901,5573.1791,0.10702,-0.08106,-0.00973
49.9191,5573.1991,0.01906,-0.04502,-0.05066
49.9447,5573.2191,-0.08968,0.05516,-0.05921
49.9605,5573.2392,-0.08173,0.03501,-0.04455
49.9761,5573.2592,0.01112,-0.03402,-0.08059
49.9991,5573.2792,0.06915,-0.08289,-0.08792
50.0147,5573.2992,0.06487,-0.05235,-0.04638
50.0467,5573.3193,0.02272,-0.02975,-0.05433
50.0593,5573.3393,-0.04753,0.03317,-0.04516
50.0747,5573.3593,-0.06219,0.02401,-0.06838
50.0943,5573.3793,0.01234,0.00141,-0.0641
50.1167,5573.3994,0.12168,-0.0328,-0.03417
50.1356,5573.4194,0.10458,-0.01814,-0.00607
50.1599,5573.4394,0.01478,0.1132,0.02448
50.1833,5573.4595,0.00012,0.13702,0.03914
50.1963,5573.4795,0.05205,0.06921,0.05441
50.2145,5573.4995,0.10336,-0.07556,0.05197
50.2365,5573.5195,0.04105,-0.11282,0.02142
50.2549,5573.5396,-0.00965,0.00752,-0.01767
50.2745,5573.5596,0.03311,0.08265,-0.03722
50.2989,5573.5796,0.027,0.05516,-0.0134
50.3152,5573.5997,0.03128,-0.01447,-0.00179
50.3352,5573.6197,0.01845,-0.04929,-0.025
50.3745,5573.6397,-0.01148,0.01607,-0.01523
50.384,5573.6597,0.04105,-0.01814,-0.04394
50.4024,5573.6797,0.05143,-0.0273,-0.01401
50.4235,5573.6997,0.02089,-0.06151,0.01959
50.4387,5573.7197,0.01051,-0.01631,0.00554
50.459,5573.7398,-0.02004,0.05944,0.01226
50.4802,5573.7598,0.04716,0.02523,0.01959
50.4974,5573.7798,0.08564,-0.03952,0.05197
50.5173,5573.7998,0.04716,-0.04257,0.05074
50.5412,5573.8199,0.01906,-0.01325,0.01287
50.5586,5573.8399,-0.00782,-0.00409,-0.00179
50.5789,5573.8599,-0.03592,0.01118,0.02875
50.598,5573.88,0.02395,-0.01325,0.00676
50.6161,5573.9,0.07281,-0.04685,-0.01218
50.6363,5573.92,0.0496,-0.01936,0.01531
50.6585,5573.94,-0.00721,0.02035,0.02081
50.6966,5573.9601,-0.00171,0.03684,-0.03356
50.7022,5573.9801,0.04655,0.0008,-0.05616
50.7203,5574.0001,0.11435,-0.06823,-0.01218
50.7367,5574.0202,0.06365,-0.03524,0.03303
50.7546,5574.0402,0.01356,0.01057,0.00737
50.7757,5574.0602,0.00684,0.05089,-0.0415
50.7948,5574.0802,-0.00477,0.05211,-0.00912
50.8149,5574.1003,0.00745,-0.0273,0.02448
50.8413,5574.1203,0.05571,-0.0554,0.04647
50.8549,5574.1403,0.0606,-0.02547,0.02631
50.8799,5574.1604,0.00012,0.05333,0.02509
50.9022,5574.1804,0.0044,0.02279,0.01531
50.92,5574.2004,0.02456,-0.01997,0.01104
50.9442,5574.2204,0.05143,-0.05235,0.01043
50.9689,5574.2405,0.04594,-0.03952,0.00676
50.9865,5574.2605,-0.02004,-0.00837,0.01043
51.018,5574.2805,-0.03164,0.02157,0.00432
51.0227,5574.3006,-0.00843,0.01302,0.00737
51.0363,5574.3206,0.00318,-0.0157,0.01287
51.0584,5574.3405,-0.00232,-0.01814,-0.0134
51.0887,5574.3605,0.02517,0.04845,-0.03356
51.0952,5574.3805,0.00501,0.06738,-0.01095
51.1178,5574.4005,-0.02004,0.05211,0.01776
51.1367,5574.4205,0.03189,0.00263,0.01043
51.1537,5574.4405,0.01845,-0.04441,0.0257
51.1743,5574.4605,0.00745,-0.04929,0.04097
51.1959,5574.4805,0.0215,0.00568,0.01653
51.219,5574.5005,0.00073,0.01607,-0.02378
51.2435,5574.5205,-0.00904,0.03012,-0.02561
51.269,5574.5405,0.02395,-0.01386,-0.00912
51.2791,5574.5605,0.05876,-0.0664,-0.01523
51.295,5574.5805,0.00501,-0.05418,-0.02623
51.317,5574.6005,-0.05241,0.00202,-0.04516
51.3355,5574.6205,-0.01943,0.02829,-0.04028
51.3556,5574.6405,0.0661,-0.00226,-0.02134
51.3794,5574.6605,0.0832,0.02401,-0.01218
51.3966,5574.6805,0.00318,0.08265,0.01715
51.4178,5574.7005,-0.02004,0.07288,0.02814
51.4401,5574.7205,0.027,0.0289,0.02631
51.4584,5574.7404,0.04899,-0.04257,0.00982
51.4774,5574.7604,0.01784,-0.01447,0.0147
51.5018,5574.7804,0.01539,0.046,0.02264
51.52,5574.8004,0.0099,0.00263,0.0312
51.5378,5574.8204,-0.00721,-0.0273,0.03242
51.5577,5574.8404,0.02822,-0.07373,0.02631
51.5758,5574.8604,0.0099,-0.05113,0.02692
51.599,5574.8804,-0.01026,0.00385,-0.00973
51.6213,5574.9004,0.00501,0.02462,-0.03111
51.6429,5574.9204,0.02822,-0.00042,-0.03417
51.6641,5574.9404,0.03433,-0.04013,-0.01828
51.678,5574.9604,0.01356,-0.01692,-0.02256
51.6957,5574.9804,-0.0463,0.02706,-0.02561
51.7157,5575.0004,-0.02798,0.0686,-0.04272
51.7411,5575.0204,-0.00415,0.03501,-0.01951
51.7583,5575.0404,0.0099,-0.04441,-0.01401
51.7775,5575.0604,0.00806,-0.03463,0.00248
51.7962,5575.0804,0.01723,-0.02058,0.00371
51.8149,5575.1004,-0.0237,0.05333,0.01531
51.8387,5575.1204,-0.03164,0.03867,0.02631
51.8581,5575.1404,0.02883,-0.02669,0.01837
51.8772,5575.1603,0.03311,0.00202,0.03364
51.8988,5575.1803,-0.00049,0.01973,0.0202
51.9209,5575.2003,-0.04753,0.0234,-0.00362
51.9412,5575.2203,-0.02187,0.07044,-0.00973
51.9609,5575.2403,0.00379,0.04478,-0.02256
51.9825,5575.2603,-0.00538,0.0179,-0.03172
52.0112,5575.2803,0.00195,0.03134,-0.06593
52.0304,5575.3003,0.05388,0.06494,-0.07265
52.0377,5575.3203,-0.01087,-0.03158,-0.03539
52.0781,5575.3403,-0.01148,-0.0157,-0.02073
52.0847,5575.3603,0.02639,-0.01386,-0.03111
52.0996,5575.3803,0.03616,-0.01692,-0.04394
52.1147,5575.4003,0.00318,0.02096,-0.04394
52.1351,5575.4203,0.01295,-0.01997,-0.05555
52.1559,5575.4403,0.01478,-0.01997,-0.04577
52.1745,5575.4603,-0.0182,0.01485,-0.02928
52.1996,5575.4803,-0.03225,0.04661,-0.03233
52.2186,5575.5003,0.00562,0.03012,-0.03661
52.2408,5575.5203,0.03311,-0.01386,-0.01034
52.258,5575.5403,0.03372,-0.05968,0.04952
52.2831,5575.5603,0.02883,-0.089,0.0874
52.2997,5575.5802,0.07709,-0.07006,0.08801
52.3145,5575.6002,0.03616,-0.08656,0.09961
52.3378,5575.6202,-0.03348,-0.12443,0.08006
52.3545,5575.6402,-0.02065,-0.06823,0.02264
52.3818,5575.6602,0.01173,-0.02303,-0.0024
52.4007,5575.6802,-0.00782,0.01118,-0.01828
52.4189,5575.7002,-0.00232,0.03501,-0.03844
52.4403,5575.7202,0.01784,0.02218,-0.03417
52.4608,5575.7402,0.00562,0.01546,-0.01951
52.4799,5575.7602,-0.00965,0.00996,-0.01584
52.5022,5575.7802,-0.01087,0.02462,-0.02378
52.5227,5575.8002,-0.00354,0.05028,-0.01584
52.5471,5575.8202,0.03616,-0.00226,-0.01706
52.5634,5575.8402,0.01295,-0.01814,-0.01095
52.58,5575.8602,-0.01026,0.00324,-0.00729
52.5965,5575.8802,-0.03958,0.03989,0.01226
52.6149,5575.9002,-0.01943,0.03623,0.02081
52.6379,5575.9202,0.0215,-0.0499,0.0147
52.6659,5575.9402,0.01356,-0.00837,0.02936
52.6757,5575.9602,0.0044,0.02218,0.00615
52.6955,5575.9801,-0.00415,0.08815,-0.01156
52.7139,5576.0001,0.00073,0.04845,-0.02317
52.7393,5576.0201,0.00562,0.02584,-0.01156
52.7597,5576.0401,-0.00293,0.01973,-0.00851
52.7765,5576.0601,-0.00049,0.00813,-0.03722
52.8062,5576.0801,0.02578,0.0289,-0.04089
52.8242,5576.1001,0.04594,0.07838,-0.01279
52.8428,5576.1201,0.02517,0.10831,0.03792
52.8578,5576.1401,0.02456,0.05089,0.06601
52.878,5576.1601,0.06426,-0.00287,0.02142
52.8962,5576.1801,0.03738,-0.01753,4e-05
52.9175,5576.2001,0.00501,-0.03952,-0.01034
52.9368,5576.2201,0.01051,0.02218,-0.01401
52.9563,5576.2401,-0.00415,0.02706,0.02997
52.9781,5576.2601,0.03922,-0.03646,0.04097
53.0077,5576.2801,0.05693,-0.0664,0.02325
53.0234,5576.3001,-0.00232,-0.02058,-0.01095
53.0391,5576.3201,-0.0402,0.03745,0.00065
53.0617,5576.3401,0.01539,0.0405,0.02509
53.0843,5576.3602,0.09481,-0.0328,0.02509
53.0964,5576.3802,0.08076,-0.02852,0.00798
53.1174,5576.4002,-0.01943,-0.00103,4e-05
53.1347,5576.4202,-0.03775,0.01424,-0.00179
53.1548,5576.4403,0.00318,-0.01081,-0.01584
53.176,5576.4603,0.05266,-0.05113,-0.02256
53.1949,5576.4803,0.02333,-0.04807,0.00554
53.2193,5576.5004,-0.01637,-0.00714,0.02631
53.2412,5576.5204,-0.00965,-0.00165,0.00554
53.2639,5576.5404,-0.02065,0.0124,0.00248
53.2791,5576.5604,0.01723,-0.05601,0.0092
53.2982,5576.5805,0.02333,-0.04685,0.04341
53.3181,5576.6005,0.03005,0.00019,0.06052
53.3363,5576.6205,0.03311,0.0741,0.02325
53.3588,5576.6406,0.02089,0.12786,0.01226
53.3765,5576.6606,0.04227,0.06127,-0.00851
53.3979,5576.6806,0.06121,0.00446,-0.00057
53.4228,5576.7006,0.04105,-0.00592,0.00432
53.4423,5576.7207,0.01417,0.03073,-0.01279
53.4603,5576.7407,-0.02615,0.04417,-0.02439
53.483,5576.7607,-0.05425,0.05944,-0.036
53.5011,5576.7807,-0.0402,0.04356,-0.02256
53.5192,5576.8008,0.0044,0.05455,-0.0305
53.5424,5576.8208,-0.01026,0.0686,-0.02989
53.5598,5576.8408,-0.05058,0.11136,0.00126
53.5853,5576.8609,-0.01087,0.05333,0.00737
53.6085,5576.8809,0.03922,-0.04074,0.02509
53.6165,5576.9009,0.03311,-0.03463,0.04402
53.6391,5576.9209,0.04227,0.06616,0.01898
53.6571,5576.9409,0.05327,0.09915,0.02814
53.6757,5576.9609,0.04166,-0.00714,0.00432
53.701,5576.9809,0.00257,-0.05723,0.00493
53.7226,5577.0009,-0.00843,-0.01325,0.00493
53.7441,5577.0209,0.04349,0.06738,-0.00729
53.7559,5577.0409,0.04105,0.05516,-0.00118
53.7775,5577.0609,0.01967,-0.03219,0.02692
53.7957,5577.0809,0.00379,-0.06456,0.0373
53.8162,5577.1009,0.00318,-0.04807,0.03792
53.8458,5577.1209,0.00806,-0.02119,0.03486
53.8655,5577.1409,-0.00171,-0.01203,0.0202
53.8828,5577.1609,0.02822,-0.02058,0.00859
53.8991,5577.1809,0.03983,-0.05418,0.0202
53.9156,5577.2009,-0.00965,-0.0047,0.01287
53.9363,5577.2208,0.00867,0.08876,-0.02989
53.9629,5577.2408,-0.00232,0.05944,-0.01523
53.9875,5577.2608,0.04166,-0.01386,-0.0024
54.0172,5577.2808,0.09847,-0.03036,0.02264
54.027,5577.3008,0.03128,0.02279,0.02692
54.0438,5577.3209,-0.06585,0.1132,0.05624
54.0717,5577.3409,-0.02798,0.1358,0.0764
54.0785,5577.3609,0.0441,0.1022,0.10511
54.0992,5577.3809,0.08014,-0.05051,0.04341
54.1181,5577.401,0.03372,-0.05357,0.0257
54.1374,5577.421,-0.04814,0.03989,0.05135
54.1551,5577.441,-0.02248,0.07288,0.03425
54.1756,5577.4611,0.0441,0.01668,0.00248
54.1988,5577.4811,0.03311,-0.07067,-0.00546
54.2165,5577.5011,-0.04692,-0.01508,0.00737
54.2458,5577.5211,-0.05852,0.03623,-0.03233
54.2597,5577.5412,-0.02492,0.05944,-0.06899
54.2775,5577.5612,0.01967,0.02584,-0.05799
54.2971,5577.5812,0.05082,-0.03036,-0.03783
54.3198,5577.6013,-0.00904,-0.02364,-0.00973
54.3388,5577.6213,-0.05241,0.00202,-0.025
54.3674,5577.6413,-0.00782,0.0625,-0.05371
54.389,5577.6613,0.02089,0.03195,-0.04638
54.4002,5577.6814,0.02333,-0.06395,-0.01279
54.4258,5577.7014,-0.00293,-0.04441,0.01531
54.4393,5577.7214,0.00012,0.01668,-0.00057
54.4567,5577.7415,-0.00477,-0.00348,-0.02623
54.4767,5577.7615,-0.00965,0.03256,-0.02561
54.5029,5577.7815,-0.00293,0.00996,0.0373
54.5212,5577.8015,0.05449,-0.04502,0.04463
54.5422,5577.8216,0.06426,-0.07739,0.01592
54.5604,5577.8416,-0.01026,-0.00775,-0.00362
54.5782,5577.8616,-0.05363,0.00141,-0.02073
54.5983,5577.8817,0.01906,-0.00103,-0.01156
54.6226,5577.9017,0.08076,-0.01203,0.00065
54.651,5577.9217,0.02822,-0.02425,0.00432
54.6625,5577.9417,-0.03531,0.00996,0.01226
54.6891,5577.9617,-0.03592,-0.02975,0.0092
54.6968,5577.9817,0.00867,0.03806,0.00982
54.7272,5578.0017,0.05143,0.06311,0.01653
54.7406,5578.0216,0.03861,-0.00226,0.02509
54.755,5578.0416,0.01234,-0.01203,0.01959
54.7752,5578.0616,-0.01576,-0.02913,0.00859
54.7985,5578.0816,-0.01576,0.01363,-0.00485
54.8165,5578.1017,-0.0066,0.00263,0.00065
54.8376,5578.1217,-0.01882,0.0008,0.00859
54.8631,5578.1417,-0.02431,0.04417,0.01287
54.886,5578.1617,-0.00232,0.06066,0.0031
54.905,5578.1818,-0.00538,0.01546,-0.02989
54.9255,5578.2018,-0.04569,0.00324,-0.0415
54.9408,5578.2219,-0.06096,0.04539,-0.0189
54.9604,5578.2419,0.01906,0.05211,-0.01279
54.9801,5578.262,0.08198,0.02035,0.01104
54.9989,5578.2821,0.04838,0.00324,0.02631
55.0183,5578.3021,-0.00232,-0.01264,0.00554
55.0431,5578.3222,-0.0121,-0.01264,-0.01828
55.0645,5578.3422,0.02028,0.00752,-0.01767
55.079,5578.3623,0.03494,0.0515,-0.01462
55.1011,5578.3824,0.00318,0.00446,-0.02012
55.1174,5578.4024,0.01845,-0.0554,-0.01828
55.1389,5578.4225,0.00806,-0.03158,-0.03295
55.1602,5578.4425,-0.02004,0.03562,-0.03172
55.1765,5578.4626,-0.01515,0.06372,-0.03172
55.1997,5578.4827,-0.01576,0.04417,0.00982
55.2193,5578.5027,0.02517,-0.04074,0.03547
55.2439,5578.5228,0.0496,-0.05235,0.0428
55.2606,5578.5429,0.02089,0.00019,0.0202
55.2809,5578.5629,-0.02065,-0.00165,0.00798
55.2989,5578.583,0.01295,0.02951,-0.01095
55.3229,5578.603,0.04777,-0.03219,0.00859
55.35,5578.6231,0.0606,-0.04013,0.02264
55.362,5578.6432,0.027,-0.01142,0.03792
55.3828,5578.6632,0.00012,0.02645,0.01715
55.4043,5578.6833,0.00806,0.03989,-0.00607
55.4233,5578.7033,0.03738,0.00996,-0.0024
55.4423,5578.7233,0.06121,-0.01447,0.01104
55.4624,5578.7434,0.04777,-0.01325,0.00493
55.4778,5578.7634,0.00134,0.00446,-0.01034
55.4982,5578.7834,0.00073,0.00507,-0.02745
55.5218,5578.8035,0.02211,0.00019,-0.02256
55.5426,5578.8235,0.02517,0.01118,-0.00851
55.5635,5578.8434,0.02639,0.03134,0.0092
55.586,5578.8634,0.03616,0.00568,0.01653
55.5999,5578.8834,0.03372,-0.00837,0.03547
55.62,5578.9034,0.02028,-0.02852,0.03914
55.6412,5578.9234,0.02395,0.01179,0.04708
55.6602,5578.9434,0.03128,-0.00226,0.04952
55.6811,5578.9634,0.03494,0.046,0.04952
55.7002,5578.9834,0.01784,0.02829,0.03608
55.7174,5579.0034,0.00318,-0.02242,0.01959
55.7392,5579.0234,0.02089,-0.01508,0.01531
55.7606,5579.0434,0.05815,0.02218,-0.00607
55.7777,5579.0634,0.03861,0.03806,-0.0305
55.7992,5579.0834,0.01723,0.0124,-0.02928
55.8187,5579.1034,0.00318,-0.01692,-0.01828
55.8381,5579.1234,-0.0402,-0.01447,-0.01706
55.8574,5579.1434,-0.02492,0.00446,-0.04761
55.8801,5579.1634,0.01784,-0.01386,-0.05921
55.8995,5579.1834,0.03738,-0.02364,-0.01401
55.9259,5579.2034,0.01661,0.01668,0.01531
55.944,5579.2234,-0.0237,0.05089,0.03608
55.9598,5579.2434,-0.02615,0.08204,0.05074
55.9789,5579.2633,0.00134,0.00874,0.06052
55.9992,5579.2833,0.02578,-0.02547,0.06663
56.0177,5579.3033,0.02395,-0.05418,0.04158
56.0397,5579.3233,-0.03348,-0.05479,0.01531
56.062,5579.3433,-0.04508,0.02584,-0.0079
56.0822,5579.3633,-0.02492,0.04539,-0.00423
56.0975,5579.3833,-0.01759,0.00202,-0.00607
56.1191,5579.4033,-0.00232,-0.03158,-0.0024
56.139,5579.4233,0.01112,-0.02852,-0.00973
56.1607,5579.4433,-0.0011,-0.02486,-0.0134
56.1801,5579.4633,0.02761,0.02768,-0.02928
