AppTimestamp(s),SensorTimestamp(s),acc_x,acc_y,acc_z,gyro_x,gyro_y,gyro_z,mag_x,mag_y,mag_z
45.0055,5568.275,-0.24032092233081553,-0.0902546261567749,0.11080519728107574,-0.0516786339680548,0.09162159362549802,-0.05377722123438623,-0.1479802306288642,-0.6258964143426287,0.0034150107480733502
45.025,5568.295,-0.22666171211766906,-0.041990058124872706,0.05723166994527764,-0.00028135406418979626,0.069631593625498,-0.06375529812744306,-0.19903410604440783,-0.7258964143426283,0.08940048513214682
45.0366,5568.315,-0.21980050927650968,0.003794174724971601,0.007952478231071938,0.003561390526955933,0.062911593625498,-0.003219643228803196,-0.1479802306288642,-0.7258964143426283,0.0034150107480733502
45.0481,5568.335,-0.20923415235706394,0.043289285174513505,-0.03291924696331355,-0.0018707418172579078,0.023211593625498007,0.02267622590499777,-0.1479802306288642,-0.7258964143426283,0.0034150107480733502
45.0752,5568.355,-0.18691108028586356,0.07779433272027558,-0.06239315329040637,-0.015268353544726351,0.012211593625498007,-0.019377388684000397,-0.1479802306288642,-0.7258964143426283,0.0034150107480733502
45.0907,5568.375,-0.15771199713436418,0.10493755397992979,-0.07887882420525835,0.0014547464045461334,0.025651593625498008,-0.004470463176484015,-0.1479802306288642,-0.7258964143426283,0.0034150107480733502
45.1091,5568.395,-0.12255354326502237,0.1272755716215007,-0.08204561055841536,0.04905926077425115,-0.007948406374501994,0.04936880419988868,-0.23396570501293887,-0.7258964143426283,-0.04763886466747099
45.1307,5568.415,-0.08833624677184077,0.1448390931935465,-0.07287409721770297,0.11157822438048115,-0.02443840637450199,0.04457538270758404,-0.18291182959739527,-0.7258964143426283,-0.13362433905154442
45.1488,5568.435,-0.05129282907356366,0.1611988521541852,-0.05358355799159406,0.13315009897119304,-0.04276840637450199,0.019016737856133108,-0.23396570501293887,-0.7258964143426283,-0.04763886466747099
45.1698,5568.455,-0.02133878180991866,0.17693956407400968,-0.027486141362095165,0.08369716560683789,-0.061698406374501996,0.017356412086698136,-0.01094088082924898,-0.7258964143426283,-0.031516588220457546
45.1979,5568.475,-0.0016043251962667635,0.194052606241958,0.0014138728923550337,0.02417613930593009,-0.03482840637450199,0.03743213942312713,0.16103006793890035,-0.7258964143426283,0.07059116261063113
45.2106,5568.495,0.0019822952733045407,0.1982043128731847,0.029365835758257436,-0.0590556502609934,0.04275159362549801,0.048395556111703944,0.2631378187699876,-0.6258964143426287,-0.10137978615751578
45.2323,5568.515,-0.013994548782763159,0.1917532611686744,0.05257060366054304,-0.07210555822642126,0.05986159362549801,0.012944819841580253,0.3491232931540592,-0.6258964143426287,-0.050325910741973255
45.2507,5568.535,-0.05745990410480026,0.16468899558474598,0.06822972557941563,-0.04801457794086347,0.07818159362549801,-0.009687631834737672,0.3491232931540592,-0.6258964143426287,-0.050325910741973255
45.2799,5568.555,-0.11212360004522245,0.12409367895766149,0.07403617155818573,-0.008716260396659957,0.026261593625498007,-0.0076718098696460495,0.3491232931540592,-0.525896414342629,-0.050325910741973255
45.2952,5568.575,-0.17003110525084236,0.08291751209200879,0.06904187868194343,0.002136987402862267,-8.406374501991783e-06,-0.0175676631528231,0.3491232931540592,-0.525896414342629,-0.050325910741973255
45.3136,5568.595,-0.20991424646120865,0.0510988323158958,0.05434592428380284,-0.004673868282178701,-0.012218406374501993,-0.018064497971998578,0.2631378187699876,-0.525896414342629,-0.10137978615751578
45.334,5568.6149,-0.22465920593502686,0.034224277667543095,0.032595237265247934,0.012291871927621337,0.05436159362549801,0.027538167072202226,0.3491232931540592,-0.525896414342629,-0.050325910741973255
45.353,5568.6349,-0.21588029371852768,0.0322176708120512,0.007241811255919731,0.04315501443474725,0.05619159362549801,0.04017615087440887,0.3491232931540592,-0.525896414342629,-0.050325910741973255
45.3704,5568.6549,-0.18921334541483487,0.04514317564105479,-0.018102308619406357,0.07624195627313128,-0.006118406374501993,0.014360355713628084,0.2631378187699876,-0.525896414342629,-0.10137978615751578
45.3894,5568.6749,-0.15294320166627856,0.07265916121089619,-0.04006964899484636,0.06570497379657797,-0.04092840637450199,-0.021738227365058115,0.09116687000183825,-0.525896414342629,-0.20348753698860447
45.4086,5568.6949,-0.11391606806045426,0.11157718505237829,-0.055669162070225764,0.03420473266518755,0.03298159362549801,0.031314810329915205,0.17715234438591293,-0.525896414342629,-0.15243366157306013
45.4339,5568.7149,-0.08163281972389555,0.15245071634044768,-0.06237047036130697,0.04971678094868185,0.05131159362549801,0.07817098236787133,0.09116687000183825,-0.525896414342629,-0.20348753698860447
45.4486,5568.7349,-0.05505579176333876,0.18105614765655048,-0.05821457136143776,0.07468669400520934,0.020761593625498006,0.03972042786017329,0.005181395617766638,-0.525896414342629,-0.25454141240414696
45.4773,5568.7549,-0.04429938827654526,0.19130805965978648,-0.04275963021209436,0.06381329336012835,0.008551593625498007,0.0005844078988697028,-0.08080407876630803,-0.525896414342629,-0.3055952878196913
45.4905,5568.7749,-0.03325192224122746,0.18153088750861648,-0.01764517412418526,0.013377169837112818,-0.03787840637450199,0.035288414064889195,-0.16678955315037963,-0.4258964143426276,-0.3566491632352339
45.5089,5568.7949,-0.02632902225629886,0.1585779255055278,0.01283880196009854,-0.0014244234642830876,-0.04703840637450199,0.07337997921703374,-0.21784342856592326,-0.4258964143426276,-0.2706636888511604
45.5353,5568.8149,-0.020186552165849962,0.1307177966601305,0.042347273608571635,0.009502180693073055,-0.014668406374501994,0.05856172622997593,-0.21784342856592326,-0.4258964143426276,-0.2706636888511604
45.554,5568.8349,-0.005315453562095462,0.09696660734535079,0.06395648334182794,0.0179900218332109,-0.017718406374501994,0.05862379699429693,-0.3898143773340726,-0.4258964143426276,-0.3727714396822491
45.5708,5568.8549,0.014289580953274338,0.07218694277098608,0.07187627270544883,0.05416679795266511,0.031151593625498006,-0.0023055101542575123,-0.5268537271336878,-0.4258964143426276,-0.33783984071371814
45.5891,5568.8749,0.03320284439277264,0.06647847913525701,0.06404752116062604,0.036440354999173474,0.023821593625498006,-0.02987997697080007,-0.5268537271336878,-0.4258964143426276,-0.33783984071371814
45.6095,5568.8949,0.04489641137679004,0.0820047351020187,0.04305294007762934,-0.003267468366784202,0.010991593625498008,0.015450490306053654,-0.4757998517181442,-0.4258964143426276,-0.4238253150977916
45.6318,5568.9149,0.04316851811985094,0.11116881361478329,0.015315564281292937,-0.015064675452279078,0.001831593625498008,0.0006306250913511423,-0.5617853261022189,-0.4258964143426276,-0.47487919051333594
45.6516,5568.9349,0.024047222025894738,0.14138434698958838,-0.011040788765583967,-0.007587163636154091,0.027481593625498006,-0.03470376208374659,-0.5617853261022189,-0.4258964143426276,-0.47487919051333594
45.6726,5568.9549,-0.009974560060431861,0.1626509468919239,-0.028800005656846164,-0.018336960161807973,0.001221593625498008,-0.026176958775528458,-0.4757998517181442,-0.4258964143426276,-0.4238253150977916
45.6904,5568.9749,-0.05476845953023206,0.169757687282442,-0.03360740091839895,-0.04017270267703598,0.010381593625498009,0.010599028618539758,-0.3898143773340726,-0.4258964143426276,-0.3727714396822491
45.7292,5568.9949,-0.09416440481374835,0.1671198208997824,-0.02486928567951996,-0.04059376279691049,0.021981593625498008,0.00891855000354602,-0.4408682527496162,-0.4258964143426276,-0.2867859652981756
45.7408,5569.0148,-0.13733209437431976,0.1446966635354292,-0.005040064825383564,-0.02169523034572094,0.02870159362549801,-0.006143955471684046,-0.35488277836554155,-0.32589641434262795,-0.23573208988263128
45.7604,5569.0349,-0.16745059753375446,0.1149938281653351,0.02091022740305694,0.025998762658265,-0.012828406374501992,0.0008684286689445975,-0.2688973039814669,-0.32589641434262795,-0.18467821446708693
45.7746,5569.0549,-0.17638455609031317,0.08720105241839288,0.04751690883872493,0.07000129176509969,-0.002448406374501992,0.002130265505530876,-0.21784342856592326,-0.32589641434262795,-0.2706636888511604
45.7931,5569.0749,-0.16278538511663526,0.06733976152475771,0.06984858083492884,0.0707112093379832,0.015881593625498007,-0.0038446501457324285,-0.13185795418185164,-0.32589641434262795,-0.21960981343561786
45.8163,5569.095,-0.12737866581843746,0.0603605806718193,0.08406918599083633,0.04328399264632336,0.03481159362549801,-0.02226945637398722,-0.13185795418185164,-0.32589641434262795,-0.21960981343561786
45.8365,5569.115,-0.07740500107526765,0.0657103411879778,0.08756800208817053,0.016183252052715563,0.02504159362549801,0.007821697795934187,-0.08080407876630803,-0.32589641434262795,-0.3055952878196913
45.8531,5569.135,-0.02615576848380046,0.0768049879853831,0.07911873643570994,0.015070277568656712,0.010381593625498009,-0.0070508335218285685,0.005181395617766638,-0.32589641434262795,-0.25454141240414696
45.8707,5569.155,0.01600740173381434,0.08817414447464328,0.059078539684985935,0.02890130982794238,0.04031159362549801,-0.050696254205361904,0.09116687000183825,-0.32589641434262795,-0.20348753698860447
45.8952,5569.1751,0.044510950951132444,0.09721187115336849,0.029456517575834243,0.030909608064025394,0.05192159362549801,-0.04808498283016057,0.17715234438591293,-0.32589641434262795,-0.15243366157306013
45.9126,5569.1951,0.05459025851399364,0.11115058944305059,-0.006213230171376066,-0.0022023233028514886,0.04520159362549801,-0.025831135945740012,0.2631378187699876,-0.32589641434262795,-0.10137978615751578
45.9402,5569.2151,0.05828526195217694,0.1281688075977932,-0.04302362609697327,-0.08048054343142999,0.03848159362549801,-0.007658374639273539,0.3491232931540592,-0.32589641434262795,-0.050325910741973255
45.9527,5569.2352,0.03555506476696964,0.14082123078543368,-0.07486780991104616,-0.10438369919638008,0.04214159362549801,-0.03321325762622017,0.2980694177385156,-0.32589641434262795,0.035659563642100205
45.9767,5569.2552,0.01361347555863894,0.1503843764644898,-0.09630597961958115,-0.05723517654551809,0.05925159362549801,-0.05636699624099154,0.2980694177385156,-0.32589641434262795,0.035659563642100205
45.9968,5569.2752,-0.01713469886962556,0.1512450168687285,-0.10258944507663526,0.0054971385190273865,0.07574159362549801,-0.014863151278836542,0.3491232931540592,-0.32589641434262795,-0.050325910741973255
46.0162,5569.2952,-0.04481303916209346,0.1433796464199899,-0.09137717702434867,0.033153828945449715,0.040921593625498014,0.007954437872014603,0.3491232931540592,-0.32589641434262795,-0.050325910741973255
46.0322,5569.3153,-0.06105722262594796,0.1295030935608205,-0.06332210756547965,0.02042045500759824,-0.004278406374501992,-0.02802940833929034,0.3491232931540592,-0.32589641434262795,-0.050325910741973255
46.0588,5569.3353,-0.06210843039237416,0.11131655568407678,-0.022538615475852564,-0.0013319890793201939,0.015881593625498007,-0.04165434416466168,0.3491232931540592,-0.32589641434262795,-0.050325910741973255
46.0805,5569.3553,-0.05236630675807316,0.09395691890126659,0.02343943712960153,-0.04472778318253227,0.003661593625498008,-0.0020607202568703616,0.3491232931540592,-0.32589641434262795,-0.050325910741973255
46.0935,5569.3754,-0.03966897278809286,0.07084763309824019,0.06511564938312184,-0.06416345614401482,0.002441593625498008,0.05460854404516816,0.17715234438591293,-0.32589641434262795,-0.15243366157306013
46.1113,5569.3954,-0.024008363271574462,0.045974807400768404,0.09297850003999204,-0.028229051580480724,0.030541593625498006,0.008444823780611269,0.1260984689703693,-0.32589641434262795,-0.06644818718898667
46.1303,5569.4154,-0.01159395742940516,0.020809610119905002,0.10054878743183493,0.02891931303664155,0.031151593625498006,-0.06986322255939421,0.1260984689703693,-0.32589641434262795,-0.06644818718898667
46.1503,5569.4354,-0.008436420954146161,0.0065785391236272,0.08647382139142573,0.049751712547650394,0.07330159362549801,-0.1193067512624886,0.1260984689703693,-0.32589641434262795,-0.06644818718898667
46.1673,5569.4555,-0.01544499813588136,0.014616855765066501,0.05491532408121624,0.019774489131287883,-0.012828406374501992,-0.00780481865033391,0.21208394335444397,-0.32589641434262795,-0.015394311773442321
46.1918,5569.4755,-0.02667842458078756,0.039847134172328096,0.013875248160930442,-0.001529755670403569,-0.04703840637450199,0.05201151401416168,0.1260984689703693,-0.32589641434262795,-0.06644818718898667
46.2106,5569.4955,-0.03144354803926336,0.07051009017358509,-0.02740404375725987,-0.013642153260437563,-0.017718406374501994,-0.007758870162459924,0.1260984689703693,-0.4258964143426276,-0.06644818718898667
46.2339,5569.5156,-0.02782226202770076,0.09726465088992278,-0.06084607648099205,-0.016665348798860096,0.09040159362549802,-0.0720644507036265,0.09116687000183825,-0.32589641434262795,-0.20348753698860447
46.2552,5569.5356,-0.03133840661217316,0.12028153439532299,-0.08135581697477626,0.008554190837988647,0.159431593625498,-0.05709034904424756,0.005181395617766638,-0.4258964143426276,-0.25454141240414696
46.2717,5569.5556,-0.04627878783381096,0.1422272853505894,-0.08753173128584996,0.009981012303549362,-0.03970840637450199,0.07091783889896729,0.005181395617766638,-0.32589641434262795,-0.25454141240414696
46.2933,5569.5756,-0.06573327350508557,0.1638005083513568,-0.08123580355133175,0.011437928685144512,-0.13133840637450198,0.04691821817994258,0.005181395617766638,-0.32589641434262795,-0.25454141240414696
46.3099,5569.5957,-0.07155967968326346,0.1806948591411487,-0.06597498692057446,-0.02620006308962404,-0.06841840637450199,-0.004550537149504185,0.005181395617766638,-0.32589641434262795,-0.25454141240414696
46.3345,5569.6157,-0.05914358818258486,0.1962838951815303,-0.045358239089276664,-0.06616691769716374,0.13744159362549802,0.0065273477018464214,-0.08080407876630803,-0.32589641434262795,-0.3055952878196913
46.3505,5569.6357,-0.05678911592568826,0.1991683518822107,-0.021199540623248664,-0.05124172027634073,0.169811593625498,0.016098605819223597,-0.08080407876630803,-0.4258964143426276,-0.3055952878196913
46.3706,5569.6557,-0.07187767732246626,0.1882455199767004,0.006258456774768037,-0.003860768140034311,0.002441593625498008,0.0463593125964461,-0.029750203350764403,-0.4258964143426276,-0.39158076220376475
46.3947,5569.6757,-0.10766231662924557,0.1577473298490418,0.03757696304057124,0.04901170005873245,-0.12706840637450198,0.038675973051014244,0.05623527103331027,-0.4258964143426276,-0.3405268867882204
46.4163,5569.6957,-0.13842290892717435,0.11041296565251868,0.07272424858516574,0.024377667761517764,-0.108128406374502,-0.010758688400034288,0.05623527103331027,-0.4258964143426276,-0.3405268867882204
46.4358,5569.7157,-0.14959378514738947,0.0525723220477576,0.11020767941466383,-0.05140401785924067,0.05558159362549801,0.003209383209050994,0.05623527103331027,-0.4258964143426276,-0.3405268867882204
46.4589,5569.7357,-0.14287984156388236,-0.008025484052585602,0.14633069338216642,-0.08461053324794005,0.09407159362549801,0.07229871187665401,0.05623527103331027,-0.32589641434262795,-0.3405268867882204
46.4704,5569.7557,-0.13289283090510817,-0.0775252997580043,0.17519995012657374,-0.0385540261217558,-0.03604840637450199,0.06412713605948508,0.05623527103331027,-0.32589641434262795,-0.3405268867882204
46.4964,5569.7757,-0.13143890160631916,-0.1355195314118946,0.18970972984713244,0.07764378821019911,-0.18631840637450198,0.02157749276513379,0.05623527103331027,-0.32589641434262795,-0.3405268867882204
46.5155,5569.7957,-0.10280132209725826,-0.1636475029436446,0.18404033898862854,0.1478076666029956,-0.197318406374502,-0.005669691839534383,0.05623527103331027,-0.32589641434262795,-0.3405268867882204
46.5394,5569.8157,-0.050077342923924656,-0.1447398859434802,0.15443039023048913,0.1244905555868945,-0.109958406374502,0.025237518223213375,0.1422207454173819,-0.32589641434262795,-0.2894730113726779
46.5578,5569.8356,0.036887888854031034,-0.077231210194632,0.10042083220195494,0.0574801944671339,0.03603159362549801,0.10338864107246792,0.22820621980145656,-0.2258964143426283,-0.23841913595713357
46.5708,5569.8556,0.12548043265485787,0.018526234061364104,0.025631546305932534,0.05177075896803141,0.099561593625498,0.06873756971411613,0.17715234438591293,-0.2258964143426283,-0.15243366157306013
46.5911,5569.8756,0.18541763649206305,0.11963173302691829,-0.06116520139225487,0.07373225523954613,0.04764159362549801,-0.007737911203078805,0.17715234438591293,-0.2258964143426283,-0.15243366157306013
46.6113,5569.8956,0.20645260313722974,0.21299933105975297,-0.14799224998333046,0.01782557461345137,-0.05803840637450199,-0.022464267214388635,0.005181395617766638,-0.2258964143426283,-0.25454141240414696
46.6316,5569.9156,0.19099459758793252,0.2891159908662244,-0.22179567432144878,-0.19289768393656018,0.03420159362549801,0.10391476469385547,0.09116687000183825,-0.2258964143426283,-0.20348753698860447
46.6508,5569.9356,0.14207051954420724,0.3264947068187325,-0.26929350976064204,-0.29916686302322915,0.14966159362549802,0.16443134156536637,0.04011299458629464,-0.12589641434262866,-0.117502062604531
46.6812,5569.9556,0.08933203331308624,0.3345132954320738,-0.2812030114420382,-0.3471153192904704,0.10751159362549802,0.14946422622578112,0.04011299458629464,-0.025896414342629015,-0.117502062604531
46.6929,5569.9756,-0.02809408063135386,0.2365722462321295,-0.24945342091947445,-0.2674720797560447,0.05436159362549801,0.04045855941683904,0.04011299458629464,-0.025896414342629015,-0.117502062604531
46.7098,5569.9956,-0.14136036676725947,0.10876143769298549,-0.18189806419102808,-0.1967901388800842,-0.025658406374501994,-0.03551256295217179,0.04011299458629464,-0.025896414342629015,-0.117502062604531
46.7309,5570.0156,-0.23130781746496287,-0.016861326575504702,-0.08924565026410936,-0.14738369141281796,-0.05986840637450199,0.11459872859068403,0.04011299458629464,0.0741035856573724,-0.117502062604531
46.7518,5570.0356,-0.27750741427064685,-0.11828676576948091,0.01390375954074223,-0.1693357830230719,0.02137159362549801,0.1719021357663051,0.1260984689703693,0.0741035856573724,-0.06644818718898667
46.7695,5570.0556,-0.27559254504278885,-0.1942226687497757,0.11066514571890074,-0.13358033572809966,0.06536159362549801,0.06383102358207493,0.04011299458629464,0.17410358565737205,-0.117502062604531
46.7963,5570.0756,-0.23386504060238228,-0.2419780839944915,0.18544306843568123,-0.009142425904076018,0.03665159362549801,-0.009343689937201378,-0.04587247979777697,0.17410358565737205,-0.16855593802007351
46.8105,5570.0956,-0.16918452989938326,-0.2530153274872473,0.22863174632849573,0.19774211862390156,-0.01710840637450199,-0.10532201996774139,0.04011299458629464,0.2741035856573717,-0.117502062604531
46.8364,5570.1156,-0.10615209643332986,-0.2566303334095516,0.23832810481109573,0.27199890559737994,-0.12706840637450198,-0.20047650167183906,-0.04587247979777697,0.2741035856573717,-0.16855593802007351
46.8486,5570.1356,-0.014144241719653759,-0.1757180798012104,0.22215369208682723,0.22416706712977202,-0.06658840637450199,-0.1905097103722951,-0.04587247979777697,0.2741035856573717,-0.16855593802007351
46.8736,5570.1556,0.06792808701388814,-0.0809584961913179,0.18732063177833763,0.1258813706350569,-0.03543840637450199,-0.0812106181320174,0.005181395617766638,0.37410358565737134,-0.25454141240414696
46.8883,5570.1756,0.15032647576254216,0.035958354560658094,0.14164929559045253,0.06178618580152381,0.011601593625498008,0.03631728400681613,0.09116687000183825,0.37410358565737134,-0.20348753698860447
46.9086,5570.1956,0.21161683010949822,0.1317000182961737,0.09040651433715034,0.042754644569646415,0.06230159362549801,0.02288903995409836,0.2631378187699876,0.37410358565737134,-0.10137978615751578
46.9327,5570.2156,0.24455879714351042,0.1840139199797212,0.03690627234723984,0.05970238157074729,0.04336159362549801,-0.029570429263017402,0.4861626429536775,0.37410358565737134,-0.08525750971050236
46.9488,5570.2356,0.24671237066712293,0.20079844311600056,-0.017246502642647668,0.055957982865928346,-0.007948406374501994,-0.09146653558917778,0.40017716856960284,0.37410358565737134,-0.1363113851260467
46.9852,5570.2555,0.22081954899795214,0.1745853253183369,-0.06963794442425286,0.041380489207145946,-0.006728406374501992,-0.09443491538768045,0.40017716856960284,0.37410358565737134,-0.1363113851260467
47.0132,5570.2755,0.17881788478624283,0.1529539035076622,-0.11787855210930345,0.023683872465081274,-0.019548406374501993,-0.04668825628063428,0.5721481173377491,0.37410358565737134,-0.03420363429495983
47.0218,5570.2955,0.12766182609505156,0.1378324499039415,-0.15696830788330915,-0.013443580555531843,-0.021998406374501994,0.012257742160330024,0.6232019927532927,0.37410358565737134,-0.12018910867903328
47.0294,5570.3155,0.07378538431118674,0.1211188349511993,-0.18200392551819897,-0.007026377120405459,0.06475159362549801,-0.02726494373109444,0.7091874671373674,0.37410358565737134,-0.06913523326348894
47.0588,5570.3355,0.02684653721323494,0.10415043406053548,-0.19010906933130486,-0.028922846876917215,0.002441593625498008,-0.027484744099988724,0.5721481173377491,0.37410358565737134,-0.03420363429495983
47.0866,5570.3555,-0.02476728826714586,0.0811944264162032,-0.18087889800224324,-0.03596129536446853,-0.06658840637450199,-0.009636846663929579,0.5721481173377491,0.37410358565737134,-0.03420363429495983
47.095,5570.3755,-0.06741791392273605,0.060620963757060296,-0.15712567971968036,0.002359474817831059,-0.13133840637450198,-0.03590379686061932,0.6581335917218237,0.2741035856573717,0.016850241120584506
47.1135,5570.3955,-0.10490807793523226,0.0399139814418655,-0.12350676945804656,0.01772884095476929,-0.131948406374502,-0.04382762702971913,0.6070797163062801,0.2741035856573717,0.10283571550465795
47.1321,5570.4156,-0.12713718710689176,0.026716468576171194,-0.08563867775193587,-0.015319138715534444,-0.018938406374501993,-0.007324106107605453,0.6581335917218237,0.2741035856573717,0.016850241120584506
47.1525,5570.4356,-0.13593923479985887,0.021280932409315896,-0.04871839970096137,-0.041942928630918086,0.015271593625498008,0.012385645553476333,0.6581335917218237,0.2741035856573717,0.016850241120584506
47.173,5570.4556,-0.13812699237047338,0.017585856105346805,-0.01655567381823897,-0.021470593293892552,0.05008159362549801,0.0437187524190327,0.6581335917218237,0.2741035856573717,0.016850241120584506
47.1894,5570.4757,-0.13600718078711346,0.010915774681748099,0.009045186334073835,0.01516190583979724,-0.006728406374501992,0.014321124840940338,0.6581335917218237,0.2741035856573717,0.016850241120584506
47.2114,5570.4957,-0.12471574708278726,0.004326094392100598,0.028168520355322232,0.033284688089277974,-0.029938406374501996,-0.03175365419855052,0.5210942419222054,0.2741035856573717,0.051781840089113615
47.236,5570.5157,-0.09743196838967576,0.006053632086106195,0.041966398516885536,-0.009570203639136785,0.002441593625498008,0.011708241238094306,0.4351087675381339,0.2741035856573717,0.0007279646735710864
47.2534,5570.5357,-0.05659703468890456,0.015212652788728902,0.05150417774828664,-0.04718777386373912,0.04459159362549801,0.054732685573810155,0.4351087675381339,0.2741035856573717,0.0007279646735710864
47.2806,5570.5558,-0.00940948416050506,0.033070731437408095,0.05693913313781344,-0.022393593620484088,0.02870159362549801,0.04885772803651833,0.4351087675381339,0.37410358565737134,0.0007279646735710864
47.2937,5570.5758,0.03850706995027904,0.044982065528449,0.057716005729055435,0.0384075414303166,-0.03420840637450199,0.011073829659904316,0.3491232931540592,0.2741035856573717,-0.050325910741973255
47.3127,5570.5958,0.08083731075400703,0.05344229482958499,0.053135825665600836,0.06094621519863439,-0.03543840637450199,-0.054405990015819757,0.3491232931540592,0.2741035856573717,-0.050325910741973255
47.3392,5570.6159,0.11789927903652923,0.05946374489236499,0.04359275656628714,0.010409596152432489,0.03542159362549801,-0.08654037402079272,0.2631378187699876,0.2741035856573717,-0.10137978615751578
47.3572,5570.6359,0.13810907324262545,0.07515634026706769,0.031367031010480634,-0.05849889431435653,0.062911593625498,-0.035101982311987835,0.2631378187699876,0.2741035856573717,-0.10137978615751578
47.3735,5570.6559,0.13702207314121845,0.09020426792674238,0.020343408718383943,-0.08623888316908841,0.014041593625498009,-0.007518648243399418,0.4351087675381339,0.2741035856573717,0.0007279646735710864
47.3906,5570.6759,0.11826311488650963,0.09694842000138978,0.01412093558744043,-0.07701344788149969,-0.03848840637450199,-0.006309208805265942,0.3491232931540592,0.2741035856573717,-0.050325910741973255
47.4116,5570.696,0.09174459426199004,0.0920648460350465,0.014298598347570635,-0.06411293967781417,-0.003668406374501992,-0.00290606495190878,0.2631378187699876,0.2741035856573717,-0.10137978615751578
47.4395,5570.716,0.06698375247781405,0.07597591029291398,0.01977751944859904,-0.03239934708810828,0.021981593625498008,-0.00966183619242245,0.2631378187699876,0.2741035856573717,-0.10137978615751578
47.4512,5570.736,0.04786606807785944,0.05553560873940729,0.02732697203352423,0.019135240870163786,0.018931593625498008,-0.010312638751666903,0.2631378187699876,0.2741035856573717,-0.10137978615751578
47.4746,5570.7561,0.037914172341784444,0.0354564292966977,0.033205064334373036,0.022635118382203025,-0.021388406374501994,-0.0018497871400219254,0.17715234438591293,0.2741035856573717,-0.15243366157306013
47.4946,5570.7761,0.03444700859068524,0.020448819653923596,0.034808204751476036,-0.011817648975850505,-0.009778406374501992,-0.021585065738811485,0.2631378187699876,0.2741035856573717,-0.10137978615751578
47.5196,5570.7961,0.03345623610511174,0.008947894177934491,0.03157290946789523,-0.04193809194798398,0.016491593625498006,-0.033084279414644056,0.2631378187699876,0.2741035856573717,-0.10137978615751578
47.5383,5570.8161,0.024392241772425043,-0.002522599928264903,0.024871327850796238,-0.06857827284442207,-0.025658406374501994,-0.01693137064238096,0.2631378187699876,0.2741035856573717,-0.10137978615751578
47.5505,5570.8362,0.00045812704366123697,-0.0172428529820096,0.01705270088189073,-0.061716631988573016,0.020761593625498006,-0.028487818399600427,0.3491232931540592,0.2741035856573717,-0.050325910741973255
47.5741,5570.8562,-0.02783678833813716,-0.033957501916559704,0.010253192908821734,-0.04005312912672063,0.026871593625498007,-0.03267450488828246,0.4351087675381339,0.2741035856573717,0.0007279646735710864
47.6059,5570.8762,-0.06320027702360996,-0.054522323688208404,0.005679706624395139,-0.018974327490679916,0.02504159362549801,-0.005947263699030477,0.3491232931540592,0.2741035856573717,-0.050325910741973255
47.613,5570.8963,-0.10301852002495246,-0.072352273250918,0.003115536293879631,0.0026891753711724884,-0.001228406374501992,-0.010133950187712503,0.40017716856960284,0.37410358565737134,-0.1363113851260467
47.6361,5570.9163,-0.13561491736371245,-0.08974849967184881,0.0012856101578630347,0.030609465017503487,-0.03726840637450199,-0.04399503000016062,0.40017716856960284,0.37410358565737134,-0.1363113851260467
47.6517,5570.9363,-0.15321676347801927,-0.09629287776218651,-0.0014802844252629621,0.0299772030761731,0.012211593625498007,-0.02377393347110105,0.3141916941855312,0.37410358565737134,-0.18736526054158922
47.6704,5570.9563,-0.15515575403928036,-0.0930869055821278,-0.006600228666931468,0.015358597612450809,0.04764159362549801,0.011600221985899314,0.1422207454173819,0.2741035856573717,-0.2894730113726779
47.6938,5570.9764,-0.14514129971335177,-0.0833061318797228,-0.014417833755027656,0.027151236719619033,0.03848159362549801,0.00012223597405530923,0.22820621980145656,0.37410358565737134,-0.23841913595713357
47.7349,5570.9964,-0.13379082765457126,-0.0787291644496009,-0.023657494162277456,0.0645688907162784,0.022601593625498007,-0.01743519178135014,0.22820621980145656,0.37410358565737134,-0.23841913595713357
47.7447,5571.0164,-0.10648273111620236,-0.060903071054621005,-0.031121080782208266,0.10882588308636845,0.009161593625498008,-0.008218623745807256,0.3141916941855312,0.2741035856573717,-0.18736526054158922
47.7595,5571.0364,-0.07463844372119276,-0.046689355066168906,-0.03336820873754587,0.11821361595685713,0.020761593625498006,0.005880038302498839,0.3141916941855312,0.2741035856573717,-0.18736526054158922
47.7725,5571.0564,-0.03496273874168576,-0.0344669683032272,-0.027676721707953558,0.08340374017550223,-0.004278406374501992,-0.0012860448735913406,0.3141916941855312,0.2741035856573717,-0.18736526054158922
47.7907,5571.0763,0.005785615835174042,-0.029487267274102703,-0.013635172444422264,0.026060833422586003,-0.02077840637450199,-0.007619412471193254,0.3141916941855312,0.2741035856573717,-0.18736526054158922
47.8096,5571.0963,0.045267090537748134,-0.0338083301778493,0.006345249022370242,0.030478605873675225,-0.070258406374502,-0.004286937929595507,0.17715234438591293,0.2741035856573717,-0.15243366157306013
47.833,5571.1163,0.07815110149972394,-0.048568944464705305,0.02752052983971244,0.0781497589860279,-0.043378406374501986,-0.049866763082163035,0.09116687000183825,0.2741035856573717,-0.20348753698860447
47.8506,5571.1363,0.10778597633206173,-0.0597947212997999,0.04404557593510094,0.10757989982162175,0.028091593625498006,-0.051581904591517846,0.005181395617766638,0.2741035856573717,-0.25454141240414696
47.8752,5571.1563,0.12873127107482113,-0.068212135722232,0.05078165237958734,0.07256849558467918,0.03787159362549801,-0.010557159944446615,-0.08080407876630803,0.2741035856573717,-0.3055952878196913
47.8935,5571.1763,0.14295428822865752,-0.0657037892269627,0.044284642826154234,0.02760669102924717,0.007931593625498008,-0.01380741087616459,0.09116687000183825,0.2741035856573717,-0.20348753698860447
47.9097,5571.1963,0.14745199702203943,-0.059884161119616405,0.02360298420049553,-0.012504457952493287,-0.04764840637450199,-0.03478571698901891,0.17715234438591293,0.17410358565737205,-0.15243366157306013
47.9324,5571.2163,0.14294397503342604,-0.0570951081366082,-0.009622975518359764,-0.011232947750038805,-0.031158406374501995,-0.05249899341674549,0.2631378187699876,0.17410358565737205,-0.10137978615751578
47.9516,5571.2363,0.13000459428137706,-0.054406887667459505,-0.051187600581373754,0.0017710117275150574,-0.004888406374501992,-0.050464899538347256,0.3491232931540592,0.17410358565737205,-0.050325910741973255
47.9684,5571.2563,0.11157791609171043,-0.0504768707997467,-0.09477396025450005,0.01661102978777633,0.018931593625498008,-0.013230233379361496,0.5210942419222054,0.17410358565737205,0.051781840089113615
47.9996,5571.2762,0.09225282715903645,-0.048500438359792,-0.13273392928100777,0.0303345802040819,0.04703159362549801,0.009118197526881543,0.38405489212259025,0.0741035856573724,0.08671343905764455
48.026,5571.2962,0.07403590948234784,-0.049623810921328504,-0.15733367950908148,0.021008918097914237,0.020151593625498006,-0.0134683056615624,0.38405489212259025,0.0741035856573724,0.08671343905764455
48.0464,5571.3162,0.05911948056029244,-0.0542903892905508,-0.16255726308112636,-0.004742925366293409,-0.0030584063745019915,-0.03230557346225329,0.38405489212259025,0.17410358565737205,0.08671343905764455
48.0493,5571.3361,0.04944725887964574,-0.057075890600039,-0.14595622624711357,-0.010308066491195114,-0.031158406374501995,-0.03490045385640016,0.3330010167070466,0.0741035856573724,0.172698913441718
48.0846,5571.3561,0.04388110598446024,-0.0564958508772809,-0.10992723263687065,0.03640596080941984,-0.026878406374501992,-0.014269851505586432,0.24701554232297196,0.0741035856573724,0.12164503802617366
48.099,5571.3761,0.05250121859081734,-0.0508378292312422,-0.061796877191016064,0.009715263446781086,-0.05131840637450199,0.05939766626375359,0.24701554232297196,0.0741035856573724,0.12164503802617366
48.1134,5571.3961,0.07148063815526073,-0.0376344879537209,-0.011763476066548262,0.02897412877656139,-0.122788406374502,0.009019851640554761,0.2980694177385156,0.0741035856573724,0.035659563642100205
48.1332,5571.4161,0.09133712042819335,-0.021527231983241003,0.03041722716897674,0.14203401070271252,-0.170438406374502,-0.10003176365626129,0.47004036650666187,0.0741035856573724,0.13776731447318707
48.1492,5571.4361,0.12198747924611193,0.009644488003564995,0.05845681455099334,0.1731704257956153,-0.215028406374502,-0.11778319613824578,0.47004036650666187,0.17410358565737205,0.13776731447318707
48.1691,5571.4561,0.14668858081625474,0.0473907454166406,0.07199556528497904,0.10145558440861611,-0.19364840637450198,-0.08433941458116788,0.47004036650666187,0.17410358565737205,0.13776731447318707
48.1951,5571.4761,0.16039715535807192,0.0892975616783408,0.07537055855076943,0.06631439584627509,-0.131948406374502,-0.09455153318731384,0.47004036650666187,0.0741035856573724,0.13776731447318707
48.2091,5571.4961,0.1725440711128126,0.1391909299847155,0.07469346913619104,0.02459048181061835,-0.11973840637450199,-0.0553840747869386,0.10997619252335675,0.0741035856573724,0.15657663699470456
48.2361,5571.5161,0.17225517059359352,0.1720720463756919,0.07631145691310504,-0.06171475105632088,-0.016498406374501992,-0.005750303221769458,0.023990718139282084,0.0741035856573724,0.10552276157916021
48.2531,5571.5361,0.14814262499473674,0.1706274304403651,0.08390822087208953,-0.11534469754348983,0.06719159362549801,-0.002784879173948731,-0.11304863166033621,-0.025896414342629015,0.14045436054768934
48.2703,5571.5561,0.10473784218644873,0.1341160494150617,0.09684603716516964,-0.0958251887444828,0.06230159362549801,-0.04163392261449546,-0.11304863166033621,-0.025896414342629015,0.14045436054768934
48.2944,5571.5761,0.05105719273809203,0.07073237670404989,0.11127238221794203,-0.04783320233083455,-0.030548406374501996,-0.10691033290237971,-0.11304863166033621,-0.025896414342629015,0.14045436054768934
48.3199,5571.5961,-0.010121192322124061,-0.0009018349484677043,0.12206848171406634,-0.04712812144088516,-0.06353840637450199,-0.06741532358552263,-0.19903410604440783,-0.12589641434262866,0.08940048513214682
48.3356,5571.6161,-0.06412847730256135,-0.064994002886977,0.12482241381854364,-0.048822841400073765,-0.04398840637450199,-0.002352264755953859,-0.11304863166033621,-0.12589641434262866,0.14045436054768934
48.3498,5571.636,-0.09798716188894446,-0.1179675781161558,0.11712743547877104,-0.011214675836732187,0.001221593625498008,-0.026204635350095828,-0.11304863166033621,-0.12589641434262866,0.14045436054768934
48.3794,5571.656,-0.10233730068038056,-0.1639750229506051,0.09872640235210264,-0.002587377005327668,0.031151593625498006,-0.06584555126879839,-0.11304863166033621,-0.12589641434262866,0.14045436054768934
48.3918,5571.676,-0.09893819244758827,-0.18577586273022442,0.07140389952696674,-0.030560601459326358,0.019541593625498007,-0.08813003047846828,-0.027063157276261542,-0.12589641434262866,0.1915082359632337
48.4127,5571.696,-0.08334087251439856,-0.19022528405141592,0.038339444542827936,-0.023804024104990346,0.014041593625498009,-0.07559361701787783,-0.11304863166033621,-0.12589641434262866,0.14045436054768934
48.4341,5571.716,-0.06694880223721747,-0.17357193336968071,0.0031211791508240355,0.0017041042802599456,0.018321593625498008,0.003492866569910988,-0.11304863166033621,-0.2258964143426283,0.14045436054768934
48.4499,5571.736,-0.05613818624069456,-0.1440108920387628,-0.031221049465019274,-0.007763702563248892,0.058031593625498014,0.017049014015775067,-0.027063157276261542,-0.2258964143426283,0.1915082359632337
48.4721,5571.756,-0.05130155417929516,-0.1121897695191428,-0.06220824759055085,0.012127424707861802,0.07696159362549801,-0.05354989713648334,-0.027063157276261542,-0.2258964143426283,0.1915082359632337
48.4995,5571.776,-0.05728612033876336,-0.0830502922790318,-0.08737416729515257,0.02959295548751927,0.04214159362549801,-0.08296552792327486,-0.027063157276261542,-0.2258964143426283,0.1915082359632337
48.5158,5571.796,-0.07838293700932217,-0.046415247206796906,-0.10387250613965918,0.023487180692427705,0.03237159362549801,-0.043967353425593256,0.10997619252335675,-0.2258964143426283,0.15657663699470456
48.5354,5571.816,-0.10405661135756206,-0.013042002065789801,-0.10865184283681026,0.008833374925129433,0.03481159362549801,0.026194106625736176,0.24701554232297196,-0.2258964143426283,0.12164503802617366
48.5537,5571.836,-0.12795089203503507,0.007571220016513801,-0.09909299957016066,0.004397599265341047,0.09529159362549801,0.042028600438170756,0.24701554232297196,-0.2258964143426283,0.12164503802617366
48.5727,5571.856,-0.14439249356031475,0.006338223420518499,-0.07417544222148117,0.011240968207883492,0.05619159362549801,0.004177794614301624,0.16103006793890035,-0.2258964143426283,0.07059116261063113
48.6034,5571.8761,-0.15659647303226898,-0.018779007476899,-0.035563779945054164,0.05241457520748216,-0.05253840637450199,-0.01968586157335326,0.2980694177385156,-0.12589641434262866,0.035659563642100205
48.6129,5571.8961,-0.13169744164580036,-0.051401175910655,0.012673605424733739,0.10617081286015273,-0.10201840637450199,0.02857187369706327,0.38405489212259025,-0.12589641434262866,0.08671343905764455
48.6504,5571.9161,-0.11259180126348596,-0.08840986969080211,0.06342457419950154,0.1254087192305519,-0.04459840637450199,0.06556846757384813,0.2980694177385156,-0.12589641434262866,0.035659563642100205
48.6619,5571.9361,-0.04148515951319086,-0.1129796232925736,0.10922572975209353,0.11340111643742351,0.054971593625498014,0.05347299837408349,0.24701554232297196,-0.2258964143426283,0.12164503802617366
48.6872,5571.9561,0.02828835296375374,-0.1258943824980494,0.14191997706083534,0.09421587617008458,0.07269159362549801,0.027160637098734664,0.3330010167070466,-0.2258964143426283,0.172698913441718
48.6935,5571.9761,0.09909885074296194,-0.1138644148696966,0.15600783276160593,0.08246945425539778,0.002441593625498008,0.00028748930763720676,0.38405489212259025,-0.32589641434262795,0.08671343905764455
48.7101,5571.9962,0.14261772915296433,-0.0818913397176393,0.14994437635739624,0.06777722372923414,-0.07697840637450198,-0.0048772819521636585,0.3330010167070466,-0.32589641434262795,0.172698913441718
48.7329,5572.0162,0.16324232147499712,-0.028421180912029803,0.12654085631486273,0.016173847391454804,-0.018938406374501993,0.026993771537508062,0.24701554232297196,-0.32589641434262795,0.12164503802617366
48.7549,5572.0362,0.16546217488182252,0.0337952045922169,0.09294439536827594,-0.02672430577875944,0.089181593625498,0.04059936063114298,0.16103006793890035,-0.32589641434262795,0.07059116261063113
48.7764,5572.0562,0.14765392794914756,0.08752319443173989,0.05972031651262444,0.002297672758117502,0.088571593625498,0.01804537070020052,0.24701554232297196,-0.32589641434262795,0.12164503802617366
48.7999,5572.0763,0.11300852663377874,0.12373471830312618,0.037890296923373736,0.03053127197673547,-0.03359840637450199,0.00639729467184052,0.24701554232297196,-0.32589641434262795,0.12164503802617366
48.8122,5572.0963,0.08208122036070253,0.13539999502640548,0.03547673722250964,0.005955011170122574,-0.07819840637450198,0.0848673698901385,0.24701554232297196,-0.32589641434262795,0.12164503802617366
48.8383,5572.1163,0.06240629118940565,0.1493736100367869,0.054461261393761534,-0.10033996355886157,-0.06597840637450199,0.16099917761440455,0.19596166690742836,-0.32589641434262795,0.20763051241024708
48.8603,5572.1364,0.06557533464839864,0.1351552927965001,0.09079310025926184,-0.2108576311939261,0.06536159362549801,0.25380141918488286,0.19596166690742836,-0.32589641434262795,0.20763051241024708
48.8727,5572.1564,0.07126189487644234,0.0623229148100616,0.13394176926279733,-0.20005893042971626,0.06536159362549801,0.21048381812243885,0.19596166690742836,-0.32589641434262795,0.20763051241024708
48.898,5572.1764,0.07471090865605715,-0.011863232996770404,0.16828473128900062,-0.11478471714156356,-0.028108406374501994,0.14106022092316775,0.05892231710781313,-0.4258964143426276,0.24256211137877803
48.9145,5572.1964,0.05680160487725164,-0.11761708484142061,0.18119060521274816,-0.0735052405266295,-0.03543840637450199,0.07392652438858752,0.023990718139282084,-0.32589641434262795,0.10552276157916021
48.9424,5572.2165,0.02899796333585164,-0.2024426555507019,0.16608236053041894,-0.13696225191746825,-0.06536840637450199,0.03481844970645875,-0.11304863166033621,-0.4258964143426276,0.14045436054768934
48.9551,5572.2365,-0.005729713669219361,-0.2730850435254662,0.12571032150195174,-0.20886706746193476,-0.03482840637450199,0.048250724328288266,-0.11304863166033621,-0.32589641434262795,0.14045436054768934
48.9742,5572.2566,-0.02010408407888796,-0.29677680526739697,0.07118221257039883,-0.2214754937573219,0.15454159362549802,0.10897366633832095,-0.19903410604440783,-0.2258964143426283,0.08940048513214682
48.9938,5572.2767,-0.024095925033776458,-0.290046590956718,0.016001026781090333,-0.16640636539264952,0.298101593625498,0.1466369163461898,-0.1641025070758798,-0.2258964143426283,0.22643983493176278
49.0112,5572.2967,-0.03045895846342376,-0.2705285136398322,-0.028394639730262267,-0.13620746067514056,0.233951593625498,0.15320513177070322,-0.2500879814599514,-0.2258964143426283,0.17538595951622027
49.0411,5572.3168,-0.03683796966542206,-0.22963994287642922,-0.055222391651913366,-0.0735528012421482,-0.108128406374502,0.06323369323971308,-0.1641025070758798,-0.12589641434262866,0.22643983493176278
49.0574,5572.3368,-0.01887704332943976,-0.1927683525435743,-0.06458288053998737,0.04054669881022788,-0.358578406374502,-0.02602299103545947,-0.1641025070758798,-0.12589641434262866,0.22643983493176278
49.0722,5572.3569,0.026512618074026238,-0.1526655335333891,-0.061213554772232254,0.14892950833910032,0.06536159362549801,0.05466927128645192,-0.2500879814599514,-0.025896414342629015,0.17538595951622027
49.0939,5572.377,0.08296517940424024,-0.12352056827148519,-0.05327019163279456,0.04986080661827519,0.230901593625498,0.06476584691139428,-0.2500879814599514,0.0741035856573724,0.17538595951622027
49.1114,5572.397,0.12946213897254966,-0.1070146823686864,-0.04904488935350146,0.017056004617713925,-0.20036840637450198,-0.1671316034103028,-0.19903410604440783,0.17410358565737205,0.08940048513214682
49.1379,5572.4171,0.14134835029881732,-0.1111864803704603,-0.05490413640651867,0.04359300294489113,-0.118508406374502,-0.136454135786925,-0.3360734558440261,0.17410358565737205,0.12433208410067594
49.1603,5572.4371,0.12303107334432463,-0.1119320602852944,-0.07462590669973515,0.04889669448674376,-0.161888406374502,-0.008981744830965916,-0.3360734558440261,0.2741035856573717,0.12433208410067594
49.1739,5572.4572,0.09336919029701264,-0.1107805917334347,-0.10916089407088067,0.02121904510094031,-0.04459840637450199,0.05557507451816662,-0.4220589302280977,0.2741035856573717,0.0732782086851334
49.1919,5572.4773,0.05622302808427594,-0.1099426961707244,-0.15589424168840096,0.012880335017937342,0.02870159362549801,0.04209926974993017,-0.3360734558440261,0.37410358565737134,0.12433208410067594
49.2153,5572.4974,0.020351947950562638,-0.11317180948956809,-0.20891250516322138,0.10715185338195353,-0.14233840637450199,-0.07599129983690416,-0.3871273312595697,0.37410358565737134,0.21031755848474934
49.2432,5572.5175,-0.0034278594997995612,-0.1077077292733926,-0.25898689029116195,0.18928652203665777,-0.24251840637450198,-0.18919305779578902,-0.3360734558440261,0.37410358565737134,0.12433208410067594
49.2546,5572.5376,0.014097092084954438,-0.0564191811127998,-0.2952569805695334,0.09153877216605794,-0.0073384063745019915,-0.007818253880706411,-0.3360734558440261,0.37410358565737134,0.12433208410067594
49.2742,5572.5577,0.04512822729910554,0.010923797543090093,-0.30872336901040687,-0.02226810856880484,0.03176159362549801,0.11925806648387102,-0.3871273312595697,0.37410358565737134,0.21031755848474934
49.2939,5572.5778,0.08431795973396684,0.07143031995912508,-0.29455589586584285,-0.044322576634497325,-0.08369840637450199,0.08698556831066866,-0.3360734558440261,0.474103585657371,0.12433208410067594
49.322,5572.5978,0.11612016559696585,0.10434147468030669,-0.253209779823811,-0.001213490347434646,-0.157608406374502,0.006017077652298443,-0.2500879814599514,0.474103585657371,0.17538595951622027
49.3415,5572.6179,0.14012413532308704,0.0934704766470493,-0.19039715556159656,-0.02383626865788437,-0.08307840637450199,0.008215350045848767,-0.47311280564364133,0.474103585657371,0.15926368306920682
49.3687,5572.638,0.14865855498540936,0.0576116597443646,-0.11569495191364446,-0.06924036099717946,0.018931593625498008,0.04519770257843877,-0.47311280564364133,0.474103585657371,0.15926368306920682
49.3744,5572.658,0.13813598090303675,-0.014300393774636405,-0.039497725404677664,-0.0710887799918296,-0.006118406374501993,0.09737664418537648,-0.6101521554432596,0.474103585657371,0.19419528203773592
49.3943,5572.6781,0.11338698606824195,-0.0859816326551996,0.027996858452992032,-0.056928047179202496,-0.002448406374501992,0.07950107017474996,-0.7471915052428779,0.474103585657371,0.22912688100626508
49.4131,5572.6982,0.07974401523555125,-0.1560731188472031,0.07919433422618194,-0.05932542968687343,-0.06475840637450199,-0.054060973299853675,-0.7471915052428779,0.474103585657371,0.22912688100626508
49.435,5572.7182,0.04766537950487734,-0.20491320221086232,0.10965075312791034,-0.055530514515853835,0.08063159362549802,-0.04967947597077023,-0.6612060308588033,0.474103585657371,0.28018075642180945
49.457,5572.7383,0.01641145292874384,-0.22244006720654522,0.11859726943115574,-0.03658388393993071,0.09284159362549801,0.036873502544238095,-0.7122599062743469,0.474103585657371,0.3661662308058829
49.4752,5572.7583,-0.01899211015093526,-0.2133805452693962,0.10830348654830303,-0.02107237306565131,0.020761593625498006,-0.007192978259169741,-0.5402889575062005,0.474103585657371,0.46827398163696976
49.495,5572.7784,-0.05477332068517096,-0.1915856382815728,0.08361972453307934,0.0012349460356518448,-0.09773840637450198,-0.09980309603532114,-0.5402889575062005,0.474103585657371,0.46827398163696976
49.5142,5572.7985,-0.08224790543492205,-0.1651749761442522,0.05142325506344204,0.03222008043456018,-0.208308406374502,-0.17233963611190317,-0.6262744318902722,0.474103585657371,0.4172201062214272
49.5366,5572.8185,-0.09519469769839366,-0.1411855055333535,0.01890915865874014,0.029771375346866226,-0.13927840637450198,-0.11198078884496555,-0.7633137816898905,0.5741035856573724,0.45215170518995634
49.5563,5572.8386,-0.09581123063512256,-0.12184109266840329,-0.008306875170610864,-0.02869632889283667,0.09223159362549802,0.04511547896855899,-0.7633137816898905,0.5741035856573724,0.45215170518995634
49.5739,5572.8586,-0.09546614350389346,-0.1225904456527731,-0.027506833826301258,-0.07478723020877455,-0.02077840637450199,0.06889718025094155,-0.7633137816898905,0.5741035856573724,0.45215170518995634
49.5937,5572.8786,-0.09844481443780766,-0.147433288103539,-0.03856639510880566,-0.07503013917390955,-0.216858406374502,-0.007259885706424851,-0.8492992560739652,0.5741035856573724,0.401097829774412
49.6202,5572.8986,-0.09605633363504937,-0.1869273569619752,-0.04286139097580677,-0.011393095696079143,-0.161888406374502,0.002810625571594854,-0.8492992560739652,0.5741035856573724,0.401097829774412
49.6413,5572.9187,-0.06697532362407506,-0.2277849374217713,-0.04175876822578686,0.004860039894762888,0.03176159362549801,0.05082787021834342,-0.7633137816898905,0.674103585657372,0.45215170518995634
49.6642,5572.9387,-0.012093141625456761,-0.2519502309666606,-0.03580453554355506,0.058235791823283936,0.38545159362549797,0.08536904139224809,-0.8143676571054341,0.674103585657372,0.5381371795740297
49.6896,5572.9587,0.05125257952984724,-0.2565334666695557,-0.024864788178051767,0.0675576920649473,0.25350159362549796,0.06248051422503008,-0.8143676571054341,0.674103585657372,0.5381371795740297
49.7086,5572.9787,0.10189835438616245,-0.2480981471258915,-0.008635829470591758,0.052721167164582874,0.05925159362549801,0.025259552001024282,-0.6773283073058158,0.674103585657372,0.5032055806055007
49.7215,5572.9988,0.14415970767488362,-0.2306754381541382,0.012096338938798343,0.02292827510893123,-0.11178840637450199,-0.028668656600414438,-0.6773283073058158,0.7741035856573717,0.5032055806055007
49.7322,5573.0188,0.18064543074175982,-0.21021281742090941,0.03487201291559384,-0.0037922484651344976,0.05619159362549801,-0.03032226475466315,-0.7633137816898905,0.7741035856573717,0.45215170518995634
49.754,5573.0388,0.2166003779949735,-0.19176041306787672,0.05590227980741064,-0.030361491345205743,0.16248159362549802,0.02280923468568563,-0.8492992560739652,0.7741035856573717,0.401097829774412
49.7728,5573.0589,0.23888362300802712,-0.1808113978440727,0.07147702754881984,0.009997134579996379,0.139271593625498,0.029013355367103987,-0.8492992560739652,0.7741035856573717,0.401097829774412
49.793,5573.0789,0.24672528107459302,-0.1760743888168791,0.07833507660106943,0.08200002730618224,0.05131159362549801,-0.03124069710292802,-0.7982453806584215,0.8741035856573713,0.31511235539033855
49.8225,5573.099,0.2463075904438044,-0.1711957797336448,0.07451609569712574,0.05199593342907471,-0.002448406374501992,-0.06326733056031345,-0.7122599062743469,0.7741035856573717,0.3661662308058829
49.8388,5573.119,0.24065361541923874,-0.1550581357118663,0.06019099670174904,-0.026806529388639207,0.05619159362549801,5.532852680019928e-05,-0.6262744318902722,0.7741035856573717,0.4172201062214272
49.8566,5573.139,0.23083326968194773,-0.1353389201114256,0.03739249266489954,-0.02171135262216796,0.07880159362549802,0.03576052806017925,-0.7122599062743469,0.7741035856573717,0.3661662308058829
49.8747,5573.159,0.21177260360214623,-0.1202246160256141,0.009887681036143833,0.04134636372199976,0.025651593625498008,-0.033363463501784846,-0.7122599062743469,0.7741035856573717,0.3661662308058829
49.9024,5573.1791,0.18246395349147876,-0.116262723458218,-0.017995899518103667,0.05121239079374984,-0.07880840637450198,-0.09783134162585136,-0.6262744318902722,0.7741035856573717,0.4172201062214272
49.9153,5573.1991,0.14851355759003904,-0.1080484579542361,-0.04236219458187676,-0.02888845268716358,-0.04276840637450199,-0.04309486956520236,-0.6262744318902722,0.7741035856573717,0.4172201062214272
49.9496,5573.2191,0.12249743898157785,-0.0932905473947439,-0.060735254183404364,-0.091756194873864,0.05741159362549801,0.04604062893201013,-0.6612060308588033,0.7741035856573717,0.28018075642180945
49.9586,5573.2392,0.08148176002875573,-0.1006979349948227,-0.07168168559146976,-0.0750919412336231,0.03726159362549801,0.046689281854394984,-0.6612060308588033,0.8741035856573713,0.28018075642180945
49.9745,5573.2592,0.042408778038081546,-0.1200988571606739,-0.07534868194368735,-0.05867758287831092,-0.03176840637450199,-0.051548047810979124,-0.6101521554432596,0.8741035856573713,0.19419528203773592
49.9975,5573.2792,0.005195171414664343,-0.1570068187949123,-0.07193011562527837,-0.03535375424702355,-0.080638406374502,-0.1051876676640163,-0.6612060308588033,0.7741035856573717,0.28018075642180945
50.0155,5573.2992,-0.02439514582032606,-0.1924774470721357,-0.06127178034884126,-0.0018204940556647157,-0.05009840637450199,-0.08029970951276114,-0.7471915052428779,0.7741035856573717,0.22912688100626508
50.0484,5573.3193,-0.03379276303193002,-0.2188371501941724,-0.04349543031486125,-0.030175547756850187,-0.02749840637450199,-0.0481156151554099,-0.8331769796269496,0.7741035856573717,0.17807300559072256
50.0579,5573.3393,-0.03555818276308946,-0.2342861835671523,-0.02023112097142757,-0.05815602723525004,0.03542159362549801,0.016970820975007052,-0.7471915052428779,0.7741035856573717,0.22912688100626508
50.0731,5573.3593,-0.02493632662113096,-0.24320670085118942,0.004677815397220841,-0.08560635252315058,0.026261593625498007,0.017721581648222993,-0.7471915052428779,0.7741035856573717,0.22912688100626508
50.0931,5573.3793,-0.010630100851516059,-0.2537360803165304,0.026001257723738236,-0.04387572087230759,0.003661593625498008,-0.044178286542441686,-0.8842308550424931,0.674103585657372,0.26405847997479603
50.1152,5573.3994,0.0037084460937189395,-0.2640427522767631,0.039361513114346935,0.03768203899020098,-0.030548406374501996,-0.12291437932211538,-0.9702163294265678,0.7741035856573717,0.21300460455925166
50.1363,5573.4194,0.02388599627432514,-0.2586810649970811,0.04329563070102434,0.053113744596067665,-0.015888406374501993,-0.09386472421067106,-0.9702163294265678,0.7741035856573717,0.21300460455925166
50.1605,5573.4394,0.055336085717549346,-0.23360062956025532,0.03945623425933844,0.03353592689724393,0.115451593625498,-0.0010528092743245442,-1.0562018038106393,0.7741035856573717,0.16195072914370914
50.1839,5573.4595,0.09096884696342233,-0.19511206853266821,0.03187314620071284,0.03865689930603041,0.139271593625498,0.01903715940629932,-1.0911334027791706,0.7741035856573717,0.024911379344091353
50.1989,5573.4795,0.12204763656106114,-0.1566550704055422,0.025273807781463237,0.07829915874777023,0.071461593625498,-0.01781917066539651,-1.0911334027791706,0.674103585657372,0.024911379344091353
50.2165,5573.4995,0.14574524007250872,-0.1315109358229905,0.023188279274510337,0.10239685664851425,-0.07330840637450199,-0.06318403213200385,-1.0911334027791706,0.674103585657372,0.024911379344091353
50.2375,5573.5195,0.16378421456060122,-0.12253969577731849,0.026626320744323737,0.044316624452754604,-0.11056840637450199,-0.025203441982736274,-1.0911334027791706,0.674103585657372,0.024911379344091353
50.2555,5573.5396,0.18181497184707712,-0.125583088351747,0.03377619879752194,-0.015179412319660327,0.009771593625498008,-0.0015657663699470351,-1.1771188771632453,0.674103585657372,-0.026142496071452987
50.2751,5573.5596,0.19370542633110405,-0.1410218684354305,0.04124456833344674,-0.010158935434060237,0.08490159362549801,-0.04831418786031562,-1.1771188771632453,0.674103585657372,-0.026142496071452987
50.2961,5573.5796,0.19089637578167823,-0.1652032562063301,0.045561463655012235,0.0072034127763363435,0.05741159362549801,-0.030899442251466236,-1.1771188771632453,0.674103585657372,-0.026142496071452987
50.3131,5573.5997,0.16902329471975341,-0.1906925800630298,0.044528272611030234,0.01937143222011254,-0.012218406374501993,-0.028652265619359973,-1.0911334027791706,0.674103585657372,0.024911379344091353
50.3357,5573.6197,0.13658903754357316,-0.2142040616531749,0.03775969762867594,-0.007136008600245154,-0.04703840637450199,-0.029469933739831023,-0.8681085785954805,0.674103585657372,0.04103365579110472
50.3706,5573.6397,0.10274306306479293,-0.23665987063331811,0.026819260332873143,-0.014015652664793384,0.018321593625498008,0.0012534823714207737,-0.8681085785954805,0.5741035856573724,0.04103365579110472
50.3851,5573.6597,0.07057564419258514,-0.2527775971945757,0.014471091043977938,-0.011883481604675804,-0.015888406374501993,-0.05857225495433558,-0.817054703179937,0.5741035856573724,-0.04495181859296873
50.4048,5573.6797,0.04288646680699444,-0.2674044793179526,0.0029000307748495435,0.0191513631466108,-0.025048406374501994,-0.0522171222835302,-0.817054703179937,0.5741035856573724,-0.04495181859296873
50.4209,5573.6997,0.023696908553365537,-0.2738360759192551,-0.00682987580401756,0.03245062898775246,-0.05925840637450199,-0.008803056267011515,-0.6961376298273343,0.5741035856573724,0.14314140662219157
50.4395,5573.7197,0.016128905587329836,-0.2710645031404172,-0.015176713894082067,0.015070277568656712,-0.014058406374501994,-0.0070508335218285685,-0.6450837544117907,0.5741035856573724,0.05715593223811814
50.4543,5573.7398,0.020363699820326236,-0.2604351007521235,-0.023197546099249164,0.005251542507817874,0.06169159362549801,0.0226485493304304,-0.559098280027716,0.5741035856573724,0.10820980765366248
50.4755,5573.7598,0.030457779697096635,-0.2476550629171022,-0.03120112004856615,0.04586248205941577,0.027481593625498006,-0.031391440387707616,-0.559098280027716,0.5741035856573724,0.10820980765366248
50.4983,5573.7798,0.040789636348127045,-0.2344242033540701,-0.03759467529502927,0.09335010992487992,-0.03726840637450199,-0.04794740607114603,-0.524166681059185,0.5741035856573724,0.24524915745328027
50.5149,5573.7998,0.055424064929288835,-0.2139825124872206,-0.03909947121629656,0.07264695733005465,-0.040318406374501986,-0.015488158195765777,-0.524166681059185,0.5741035856573724,0.24524915745328027
50.5374,5573.8199,0.07118092689931864,-0.1925687488348225,-0.03246497344566465,0.025738119189038275,-0.01099840637450199,-0.010660342513707502,-0.43818120667511334,0.474103585657371,0.2963030328688228
50.5561,5573.8399,0.09045198352235084,-0.174609201743883,-0.01620172471616156,-0.0005906330673650143,-0.0018384063745019918,0.004968054864812748,-0.26621025790696706,0.5741035856573724,0.3984107836999097
50.5813,5573.8599,0.10654375262245443,-0.1695076021965873,0.008113221375358637,0.011323191817763265,0.01343159362549801,0.04472182671864441,-0.26621025790696706,0.474103585657371,0.3984107836999097
50.5955,5573.88,0.11604380245315325,-0.1815378623197919,0.03573306580463854,0.022980941211991474,-0.01099840637450199,-0.017984423998978406,-0.26621025790696706,0.5741035856573724,0.3984107836999097
50.6141,5573.9,0.11768517406094044,-0.20566078138953342,0.05998193967739054,0.03164021589168257,-0.04459840637450199,-0.06966653078674065,-0.18022478352289237,0.5741035856573724,0.449464659115454
50.6376,5573.92,0.11627665583697815,-0.2301443219002408,0.07422638615866883,0.04342801831591669,-0.01710840637450199,-0.03567459183046427,-0.31726413332251074,0.5741035856573724,0.4843962580839832
50.6561,5573.94,0.11712842320441973,-0.2432140173841186,0.07391589076160963,0.019153512783470397,0.022601593625498007,0.015981719314982757,-0.40324960770658236,0.5741035856573724,0.43334238266844066
50.6952,5573.9601,0.12399381772080974,-0.2505235062831699,0.05759997163842804,-0.024788826491295435,0.03909159362549801,-0.016505473839572345,-0.31726413332251074,0.5741035856573724,0.4843962580839832
50.7009,5573.9801,0.11579585635594204,-0.24493555394244731,0.028325099238639143,-0.019582943426554686,0.003051593625498008,-0.06954023962123905,-0.23127865893843605,0.5741035856573724,0.5354501334995275
50.7233,5574.0001,0.10072665899928863,-0.24604699617506462,-0.008535707692306757,0.05284799573929938,-0.06597840637450199,-0.10538489684588476,-0.31726413332251074,0.5741035856573724,0.4843962580839832
50.7375,5574.0202,0.08555963469697034,-0.23615675972815792,-0.045088333398924374,0.06583771387265837,-0.03298840637450199,-0.03870880425779225,-0.31726413332251074,0.5741035856573724,0.4843962580839832
50.756,5574.0402,0.07587996399376094,-0.2239069925240193,-0.07437218870378906,0.01820095495005934,0.012821593625498007,-0.008739104570438357,-0.45430348312212593,0.474103585657371,0.519327857052514
50.776,5574.0602,0.07474780746925934,-0.2113201576993936,-0.09177077241241005,-0.027250966809361888,0.05314159362549801,-0.02791090960740479,-0.3683180087380543,0.474103585657371,0.5703817324680566
50.7949,5574.0802,0.07543599570933024,-0.20561987861705622,-0.09625844954084087,-0.005336225139543517,0.05436159362549801,-0.001396751171860839,-0.40324960770658236,0.474103585657371,0.43334238266844066
50.8143,5574.1003,0.07333521995087713,-0.2096030129842994,-0.09011626345989765,0.029793677829284586,-0.025048406374501994,0.0052499259980280395,-0.45430348312212593,0.474103585657371,0.519327857052514
50.8377,5574.1203,0.06908939214660324,-0.2199893890418767,-0.07755662325172186,0.07334048392188369,-0.05314840637450199,-0.02501991673584777,-0.5402889575062005,0.474103585657371,0.46827398163696976
50.8532,5574.1403,0.07484552203046554,-0.2231396700254572,-0.06283143726785856,0.05850234679387456,-0.023218406374501992,-0.03951706771700255,-0.6262744318902722,0.37410358565737134,0.4172201062214272
50.8762,5574.1604,0.08728255068179024,-0.2193662608868886,-0.04891415882655367,0.02657594015506809,0.05558159362549801,0.01186408991041544,-0.5402889575062005,0.37410358565737134,0.46827398163696976
50.8989,5574.1804,0.10351912069268403,-0.209259283692867,-0.03696632336145997,0.020351666628090976,0.02504159362549801,0.003190842591136931,-0.40324960770658236,0.37410358565737134,0.43334238266844066
50.9161,5574.2004,0.11722416737412784,-0.1992673580888952,-0.026780755711110257,0.026972548155664633,-0.017718406374501994,-0.01632382952493599,-0.45430348312212593,0.37410358565737134,0.519327857052514
50.9418,5574.2204,0.12492872640525003,-0.197642181705161,-0.017719389130874758,0.04016621308607835,-0.05009840637450199,-0.03973955513197134,-0.5402889575062005,0.2741035856573717,0.46827398163696976
50.9706,5574.2405,0.13201756367349943,-0.2011842716545562,-0.009629491914777757,0.03420768841586951,-0.03726840637450199,-0.03689262981603616,-0.5053573585376695,0.2741035856573717,0.6053133314365875
50.9799,5574.2605,0.14568880264934525,-0.2053846354865296,-0.0034919840742678593,0.0036780083265893315,-0.006118406374501993,0.02171426341032595,-0.5053573585376695,0.17410358565737205,0.6053133314365875
51.0133,5574.2805,0.15791790352061436,-0.21019034445032891,-0.0011278456556134686,-0.007497953706480615,0.023821593625498006,0.028569186650988756,-0.5053573585376695,0.17410358565737205,0.6053133314365875
51.0234,5574.3006,0.16492612972215986,-0.2246410207666265,-0.004807121427855859,0.006974207746181298,0.015271593625498008,0.010169101246619391,-0.5053573585376695,0.17410358565737205,0.6053133314365875
51.0346,5574.3206,0.16318999037629162,-0.23937662588535122,-0.015414311635057257,0.01763076377304995,-0.013448406374501991,0.0029941508184833615,-0.41937188415359794,0.17410358565737205,0.65636720685213
51.0569,5574.3405,0.15338605711131703,-0.249616596793653,-0.03156962421314277,-0.0077655834955010425,-0.015888406374501993,-0.005688501162055905,-0.3333864097695233,0.17410358565737205,0.7074210822676744
51.0893,5574.3605,0.14226346749803792,-0.2496267114014713,-0.049061132554543474,-0.011065544779597309,0.05070159362549801,-0.039618369354011286,-0.19634705996990495,0.17410358565737205,0.6724894832991453
51.094,5574.3805,0.11457570577076735,-0.2344228872493688,-0.06126460338500206,-0.0019166903051318967,0.069631593625498,-0.01074041648672767,-0.19634705996990495,0.2741035856573717,0.6724894832991453
51.1152,5574.4005,0.08946926501973344,-0.21108013600227912,-0.06254305061854745,0.009980743598941915,0.05436159362549801,0.0254565124782853,-0.11036158558583335,0.2741035856573717,0.7235433587146878
51.1371,5574.4205,0.062008026442583436,-0.1869237685890475,-0.04949017970974637,0.030190285829881133,0.004881593625498008,-0.022937993437323393,-0.11036158558583335,0.2741035856573717,0.7235433587146878
51.1528,5574.4405,0.043148822152782734,-0.1672233839289747,-0.023236214876512062,0.036458626912480085,-0.04215840637450199,-0.00358561890415041,-0.02437611120175868,0.2741035856573717,0.7745972341302322
51.1733,5574.4605,0.03748498927804064,-0.1571070012261775,0.01079915251373173,0.0439726825552183,-0.04703840637450199,0.013668710054051183,-0.02437611120175868,0.2741035856573717,0.7745972341302322
51.1946,5574.4805,0.05148481452969694,-0.1570374411068158,0.04459653409326764,0.030130902111634626,0.007931593625498008,-0.010889816248469995,-0.11036158558583335,0.2741035856573717,0.7235433587146878
51.2157,5574.5005,0.07973063402932554,-0.1687938582137724,0.07040340909011174,-0.015133732536393786,0.018321593625498008,-0.013610450398903573,-0.11036158558583335,0.2741035856573717,0.7235433587146878
51.2478,5574.5205,0.11181138497113445,-0.1957163648719003,0.08346336251431893,-0.02169523034572094,0.03237159362549801,-0.006143955471684046,-0.11036158558583335,0.2741035856573717,0.7235433587146878
51.264,5574.5405,0.13055133385449402,-0.2310920178321961,0.08370645522479403,0.00932644787980061,-0.011608406374501994,-0.026091779414966734,-0.19634705996990495,0.2741035856573717,0.6724894832991453
51.2798,5574.5605,0.13641817108717275,-0.2705429755097711,0.07470982944914964,0.021844589427084456,-0.06414840637450199,-0.05914271483595242,-0.05930771017028978,0.2741035856573717,0.6375578843306143
51.2955,5574.5805,0.13160553506810824,-0.3073166454520228,0.06181496581181624,-0.01505527079101832,-0.05192840637450199,-0.018541448650222735,-0.11036158558583335,0.2741035856573717,0.7235433587146878
51.3151,5574.6005,0.12003942757621393,-0.3378836459251678,0.04942781029981614,-0.06064745635552857,0.004271593625498008,0.02116691212494983,-0.11036158558583335,0.2741035856573717,0.7235433587146878
51.3382,5574.6205,0.10482266011022463,-0.36354403482763886,0.03919725777893734,-0.0396137970935395,0.030541593625498006,-0.004699668206639064,-0.19634705996990495,0.2741035856573717,0.6724894832991453
51.3538,5574.6405,0.08424300337457374,-0.3799503038442242,0.03024346833714013,0.020338231397718464,-8.406374501991783e-06,-0.06857344044363312,-0.11036158558583335,0.37410358565737134,0.7235433587146878
51.3759,5574.6605,0.06735457487981164,-0.38316127995286947,0.02016489352582504,0.036944713547357545,0.026261593625498007,-0.07860042157524588,-0.11036158558583335,0.2741035856573717,0.7235433587146878
51.3943,5574.6805,0.05516414326873864,-0.3626885121187804,0.007372174368175041,0.021310942076688294,0.08490159362549801,0.005179256686268628,-0.02437611120175868,0.2741035856573717,0.7745972341302322
51.4153,5574.7005,0.050766060230726134,-0.32418742426055436,-0.008517628940289568,0.018906035840008734,0.07513159362549801,0.030755904746418726,-0.11036158558583335,0.17410358565737205,0.7235433587146878
51.4418,5574.7205,0.05318748495706983,-0.2790668653663825,-0.025820522074168364,0.04134824465425191,0.031151593625498006,-0.010625948323953867,-0.11036158558583335,0.17410358565737205,0.7235433587146878
51.4596,5574.7404,0.06495835691459394,-0.23608055566768602,-0.04111765614221785,0.03839598713219624,-0.040318406374501986,-0.03795293819703476,-0.19634705996990495,0.17410358565737205,0.6724894832991453
51.4747,5574.7604,0.08670300674931734,-0.2009019682463738,-0.05047469983779437,0.02668879609019719,-0.012218406374501993,-0.008677033806117358,-0.05930771017028978,0.0741035856573724,0.6375578843306143
51.4964,5574.7804,0.11504923056736784,-0.1783078700856831,-0.05091585601510756,0.0322652228086118,0.04825159362549801,-0.002516711975713393,-0.02437611120175868,0.17410358565737205,0.7745972341302322
51.5144,5574.8004,0.14511271201503984,-0.1680691574528439,-0.04156413831952585,0.036822721655575145,0.004881593625498008,0.00657410230354277,-0.11036158558583335,0.17410358565737205,0.7235433587146878
51.5348,5574.8204,0.16952747912543364,-0.1713757341437598,-0.024282845682648768,0.029136426359461325,-0.025048406374501994,0.02190907425072737,-0.02437611120175868,0.17410358565737205,0.7745972341302322
51.5555,5574.8404,0.18694240287991343,-0.1848244424551175,-0.003569403045739661,0.04197110193432154,-0.071478406374502,-0.011674971111439565,0.06160936318231293,0.17410358565737205,0.8256511095457747
51.574,5574.8604,0.20010612482560614,-0.2020926151757818,0.014495192682328836,0.0331425433519368,-0.04887840637450199,0.004388996435757504,0.06160936318231293,0.17410358565737205,0.8256511095457747
51.5955,5574.8804,0.20711253382274342,-0.2183042062519501,0.024218519767975538,-0.00866359429359971,0.006101593625498008,0.003012422731789976,0.06160936318231293,0.17410358565737205,0.8256511095457747
51.6181,5574.9004,0.20386910623462612,-0.23183455031393932,0.02224319926022554,-0.019251361940961102,0.026871593625498007,-0.021032877770501262,-0.02437611120175868,0.17410358565737205,0.7745972341302322
51.6496,5574.9204,0.18601557043515177,-0.2447058046612478,0.00886187326555174,-0.010032912973166079,0.001831593625498008,-0.042552354962760344,-0.02437611120175868,0.0741035856573724,0.7745972341302322
51.6595,5574.9404,0.15042101589392792,-0.2476117731306039,-0.011746496746106158,0.0067495706943529075,-0.03787840637450199,-0.03969360664409735,-0.02437611120175868,0.0741035856573724,0.7745972341302322
51.676,5574.9604,0.10937426560119805,-0.2479850530276147,-0.033824753896135956,-0.007534497533093845,-0.014668406374501994,-0.02401952948231056,-0.11036158558583335,0.0741035856573724,0.7235433587146878
51.6939,5574.9804,0.07189764225637683,-0.24721746374372922,-0.05147657016411436,-0.040717904325552494,0.029311593625498008,0.025894232283821723,-0.11036158558583335,0.17410358565737205,0.7235433587146878
51.7138,5575.0004,0.04267786682050044,-0.2506170353902949,-0.06106689571875468,-0.04607694901653987,0.070851593625498,0.0014063752930599546,-0.19634705996990495,0.17410358565737205,0.6724894832991453
51.7428,5575.0204,0.022976006869209843,-0.2620303445142088,-0.06223367916746106,-0.013953581900472379,0.03726159362549801,-0.007234358768717076,-0.16141546100137696,0.17410358565737205,0.8095288330987612
51.7542,5575.0404,0.007452748912057543,-0.2803507455023591,-0.05746458225097417,-0.00205131131346446,-0.04215840637450199,-0.0165073547718245,-0.02437611120175868,0.17410358565737205,0.7745972341302322
51.7729,5575.0604,0.004452634795036742,-0.2986640697609128,-0.05075587491991676,0.011188302104823248,-0.03237840637450199,-0.0065064379871344015,-0.16141546100137696,0.2741035856573717,0.8095288330987612
51.7947,5575.0804,0.018281551057305737,-0.3086620245638855,-0.045904295618690666,0.016927563815352698,-0.018328406374501994,-0.013763343320542748,-0.24740093538544858,0.17410358565737205,0.7584749576832187
51.8154,5575.1004,0.048276988374583746,-0.3074495650076335,-0.045392628937495655,0.00600552763632322,0.05558159362549801,0.027352760893061566,-0.16141546100137696,0.17410358565737205,0.8095288330987612
51.8373,5575.1204,0.08660070594695164,-0.2974819243614865,-0.04958498349312995,0.011410252110577135,0.040921593625498014,0.039795933854866794,-0.24740093538544858,0.17410358565737205,0.7584749576832187
51.8589,5575.1404,0.12483296357593225,-0.2822931185503934,-0.05643665414831936,0.03545528390826093,-0.02443840637450199,-0.01625316021317658,-0.3333864097695233,0.17410358565737205,0.7074210822676744
51.8739,5575.1603,0.16002050278311353,-0.2613324038179362,-0.062066124137462764,0.050770371714494215,0.004271593625498008,-0.012137411740861413,-0.3333864097695233,0.17410358565737205,0.7074210822676744
51.8956,5575.1803,0.18758580946928244,-0.2369155739537824,-0.06216161706552206,0.022059821817652082,0.021981593625498008,0.009892066796338205,-0.3333864097695233,0.17410358565737205,0.7074210822676744
51.9167,5575.2003,0.20669857216636522,-0.2120719062159593,-0.053630872324722856,-0.02243766117610593,0.025651593625498008,0.038178600822623865,-0.3333864097695233,0.17410358565737205,0.7074210822676744
51.9424,5575.2203,0.21627152102717534,-0.19330106844699002,-0.03579825314110616,-0.014590949229344324,0.07269159362549801,0.012995336307780903,-0.24740093538544858,0.17410358565737205,0.7584749576832187
51.9577,5575.2403,0.21069359995032494,-0.1908964968148217,-0.010582806160966865,-0.012522461161192456,0.04703159362549801,-0.015618748634986588,-0.3333864097695233,0.2741035856573717,0.7074210822676744
51.9837,5575.2603,0.20427972854922072,-0.20392924028447762,0.017717780906913436,-0.025080370990378933,0.020151593625498006,-0.012410415622030848,-0.5053573585376695,0.17410358565737205,0.6053133314365875
52.0059,5575.2803,0.19492793863222685,-0.2286506224993167,0.044515195402231734,-0.05075375270921111,0.03359159362549801,-0.036178681674040904,-0.5053573585376695,0.17410358565737205,0.6053133314365875
52.0312,5575.3003,0.18976492894969504,-0.2590294727662525,0.06560606471868613,-0.030019699084529047,0.06719159362549801,-0.08426175894961478,-0.5053573585376695,0.2741035856573717,0.6053133314365875
52.0385,5575.3203,0.18153328155473436,-0.2870174352988954,0.07857518585631054,-0.031038895660587772,-0.02932840637450199,-0.009563490306095665,-0.5402889575062005,0.17410358565737205,0.46827398163696976
52.0764,5575.3403,0.18659918086416322,-0.3139811197897627,0.08186202789406304,-0.01874485375591742,-0.013448406374501991,-0.001554480776434124,-0.6262744318902722,0.17410358565737205,0.4172201062214272
52.0824,5575.3603,0.19538608663872142,-0.33466432522209,0.07599293273680263,-0.00833604337711788,-0.011608406374501994,-0.03941657219381616,-0.6262744318902722,0.17410358565737205,0.4172201062214272
52.1,5575.3803,0.20978008739144482,-0.3524517608024706,0.061999307536474535,-0.01438001611249589,-0.014668406374501994,-0.05436756525695439,-0.5402889575062005,0.17410358565737205,0.46827398163696976
52.115,5575.4003,0.2187171580372742,-0.3643511229009744,0.04204218629598864,-0.031217584224542176,0.023211593625498007,-0.026009555805086966,-0.6262744318902722,0.17410358565737205,0.4172201062214272
52.1357,5575.4203,0.21585684242369624,-0.3714540681454443,0.01837928770183153,-0.036212534172434495,-0.017718406374501994,-0.040337691588155554,-0.6262744318902722,0.17410358565737205,0.4172201062214272
52.1548,5575.4403,0.19473185782136676,-0.3720489691486718,-0.0066056547033871565,-0.02686886885756766,-0.017718406374501994,-0.03691815675374393,-0.5402889575062005,0.17410358565737205,0.46827398163696976
52.1729,5575.4603,0.15826869618152145,-0.3670117944528092,-0.03091283683606255,-0.02952743224368023,0.01710159362549801,-0.00014136324585336721,-0.6262744318902722,0.17410358565737205,0.4172201062214272
52.1965,5575.4803,0.11570864907114904,-0.3565363637878216,-0.052521925725614066,-0.03932305870827835,0.04886159362549801,0.010382452704934871,-0.489235082090657,0.17410358565737205,0.3822885072528963
52.2158,5575.5003,0.06897164976190914,-0.3432056343477762,-0.06901149559647565,-0.023669134392050324,0.03237159362549801,-0.02436535231209901,-0.5752205564747286,0.17410358565737205,0.33123463183735374
52.2415,5575.5203,0.02672618363528194,-0.3286647926773519,-0.07776654548168166,0.01295396008037871,-0.011608406374501994,-0.0345909061486175,-0.6612060308588033,0.17410358565737205,0.28018075642180945
52.2559,5575.5403,0.0010245788560427418,-0.31031634084575777,-0.07622820458023596,0.06473629368671989,-0.057428406374501986,-0.0045545677186159365,-0.6612060308588033,0.0741035856573724,0.28018075642180945
52.2865,5575.5603,-0.01850001439808216,-0.3009432290673335,-0.06320898662601956,0.09481105687558684,-0.08674840637450199,0.018989329986173184,-0.5752205564747286,0.17410358565737205,0.33123463183735374
52.2976,5575.5802,0.009585465826912838,-0.28611167549944,-0.038957075339839276,0.11997416854487103,-0.06780840637450199,-0.022195831311545847,-0.6262744318902722,0.0741035856573724,0.4172201062214272
52.3133,5575.6002,0.052443455439612444,-0.279456707288792,-0.006942544912163964,0.10905213236584155,-0.08430840637450199,0.018920272902058475,-0.6262744318902722,0.0741035856573724,0.4172201062214272
52.3347,5575.6202,0.09998862136916674,-0.28077596174894137,0.027277746267095837,0.05668805328437062,-0.12217840637450199,0.06881952461938845,-0.5402889575062005,0.0741035856573724,0.46827398163696976
52.3549,5575.6402,0.1503066807064216,-0.2913086582275415,0.05656817789091294,0.013865406108849882,-0.06597840637450199,0.028472452992306677,-0.6262744318902722,0.0741035856573724,0.4172201062214272
52.3828,5575.6602,0.19086578999699771,-0.309379471556406,0.07432441114964294,0.008865888182630914,-0.02077840637450199,-0.012153534017308428,-0.7633137816898905,0.0741035856573724,0.45215170518995634
52.3972,5575.6802,0.21392943142611015,-0.3324976585215444,0.07628100635407434,-0.014769637793298727,0.01343159362549801,-0.0034507291912103948,-0.5913428329217442,0.0741035856573724,0.5542594560210432
52.4152,5575.7002,0.21631999332497293,-0.35304727046722717,0.06201097095619083,-0.029296346281273037,0.03726159362549801,-0.018472391566108026,-0.5053573585376695,0.0741035856573724,0.6053133314365875
52.4424,5575.7202,0.20285902061520822,-0.3665414816318617,0.03480715573324734,-0.015332305241299502,0.024431593625498006,-0.033627062721693524,-0.5053573585376695,0.0741035856573724,0.6053133314365875
52.4573,5575.7402,0.17359366986567631,-0.36861860687496406,0.0009747512250174312,-0.008965618272373767,0.01771159362549801,-0.01563513961604105,-0.5913428329217442,0.0741035856573724,0.5542594560210432
52.4761,5575.7602,0.14366272748981912,-0.3617874162610288,-0.032739359211511554,-0.013605878138431782,0.012211593625498007,-0.000631480449842586,-0.5402889575062005,0.0741035856573724,0.46827398163696976
52.504,5575.7802,0.12123566648898314,-0.3501928257283124,-0.060296851787558975,-0.021055982084596844,0.026871593625498007,-0.0036361353703510528,-0.45430348312212593,0.0741035856573724,0.519327857052514
52.5243,5575.8002,0.10311609408949983,-0.3394512253446745,-0.07759709961766786,-0.010486486350542067,0.05253159362549801,-0.005885192934709474,-0.45430348312212593,0.0741035856573724,0.519327857052514
52.5353,5575.8202,0.08931308918339104,-0.3287614839874118,-0.08285944660715935,0.008732879401943052,-8.406374501991783e-06,-0.04064428354525627,-0.45430348312212593,0.0741035856573724,0.519327857052514
52.564,5575.8402,0.08397639153614193,-0.32092559623140265,-0.07658765781422447,0.002136987402862267,-0.015888406374501993,-0.0175676631528231,-0.45430348312212593,0.0741035856573724,0.519327857052514
52.5762,5575.8602,0.08399760253964143,-0.3124704147160204,-0.06058394491443417,-0.0065655487186283175,0.005491593625498008,0.004258137291929241,-0.23127865893843605,0.0741035856573724,0.5354501334995275
52.5938,5575.8802,0.09079977709305213,-0.3057442137548862,-0.03788306650243467,-0.0047243847483793445,0.04214159362549801,0.039450111025078345,-0.31726413332251074,0.0741035856573724,0.4843962580839832
52.6157,5575.9002,0.10114097120507583,-0.3039230046742457,-0.011957724092756264,0.012914729207690968,0.03848159362549801,0.02648914428471653,-0.31726413332251074,0.0741035856573724,0.4843962580839832
52.6388,5575.9202,0.11346958399920863,-0.3090275874984433,0.013807677781052435,0.028557367930406086,-0.04764840637450199,-0.011824102168574442,-0.3521957322910387,0.0741035856573724,0.34735690828436716
52.6647,5575.9402,0.12973591318555572,-0.31813702558356727,0.03672509254411334,0.037109160767117094,-0.006118406374501993,0.0024876426334396857,-0.3521957322910387,0.17410358565737205,0.34735690828436716
52.6763,5575.9602,0.15112162859246875,-0.32475651338978256,0.055225367386082434,0.012475397174509847,0.024431593625498006,-0.0014856923969268643,-0.30114185687549505,0.17410358565737205,0.2613714339002937
52.6943,5575.9801,0.17270204211487816,-0.3300933442780608,0.06871062062987923,-0.00711773668693854,0.09040159362549802,-0.003175575673181359,-0.3871273312595697,0.17410358565737205,0.21031755848474934
52.7127,5576.0001,0.18570985257576972,-0.3348750646534124,0.07740744748668854,-0.014609221142650938,0.05070159362549801,-0.013299021758868757,-0.3360734558440261,0.17410358565737205,0.12433208410067594
52.7365,5576.0201,0.18611734427123922,-0.34114396931111957,0.08150466802488043,-0.002129773058839929,0.028091593625498006,-0.011576356520505334,-0.47311280564364133,0.17410358565737205,0.15926368306920682
52.756,5576.0401,0.17234657606032017,-0.350323095771932,0.08067904227349473,-0.003872322438154667,0.021981593625498008,-0.002667455260492975,-0.47311280564364133,0.17410358565737205,0.15926368306920682
52.7779,5576.0601,0.15383189742591202,-0.36157661067051666,0.07388809490788603,-0.02731303757368289,0.010381593625498009,-0.019423068467266942,-0.47311280564364133,0.17410358565737205,0.15926368306920682
52.8117,5576.0801,0.14293198317375683,-0.37419763065664796,0.06004287689427373,-0.01705685141191508,0.031151593625498006,-0.043885129815713485,-0.559098280027716,0.17410358565737205,0.10820980765366248
52.8176,5576.1001,0.12222814600966643,-0.3745098247839502,0.039847820214635635,0.017397528173783153,0.08063159362549802,-0.04687366245977494,-0.47311280564364133,0.17410358565737205,0.15926368306920682
52.8439,5576.1201,0.11340360319809344,-0.37386674603390907,0.01408700682588554,0.05039687231013839,0.11056159362549801,-0.003125059206980712,-0.559098280027716,0.17410358565737205,0.10820980765366248
52.8552,5576.1401,0.10716912019232964,-0.36110487977253536,-0.013346721588847768,0.07423876342458981,0.05314159362549801,0.011740485790988341,-0.47311280564364133,0.17410358565737205,0.15926368306920682
52.8755,5576.1601,0.10602886954829975,-0.3486717623336071,-0.03816415620712746,0.05616622893670227,-0.0006184063745019921,-0.04516067058727971,-0.6450837544117907,0.17410358565737205,0.05715593223811814
52.8942,5576.1801,0.11364110166430165,-0.3349316200621761,-0.05545000665005706,0.024059252801689242,-0.015278406374501993,-0.032963093636683996,-0.6450837544117907,0.17410358565737205,0.05715593223811814
52.9184,5576.2001,0.12861306181421123,-0.32461363261331005,-0.061699922654117556,-0.001392178911389049,-0.03726840637450199,-0.010428987846692854,-0.6450837544117907,0.17410358565737205,0.05715593223811814
52.9418,5576.2201,0.14574392116267543,-0.32119400914418456,-0.05574217442859827,-0.0017398826734296442,0.024431593625498006,-0.017031866165567344,-0.559098280027716,0.17410358565737205,0.10820980765366248
52.9541,5576.2401,0.16104594684114515,-0.3264624866320442,-0.03919487912529726,0.028592030824767165,0.029311593625498008,0.018027098786893906,-0.6101521554432596,0.17410358565737205,0.19419528203773592
52.9796,5576.2601,0.16921971842222933,-0.34257442477365857,-0.01603759284637546,0.06019249877473651,-0.03420840637450199,-0.01364887515776895,-0.6101521554432596,0.17410358565737205,0.19419528203773592
53.0051,5576.2801,0.17831598449407782,-0.3577364676413667,0.00849718758665384,0.05399751404997147,-0.06414840637450199,-0.037923649394822685,-0.6101521554432596,0.17410358565737205,0.19419528203773592
53.0214,5576.3001,0.19358868038009602,-0.36498689935905476,0.028881753957092332,-0.005658939373091243,-0.018328406374501994,-0.004437681214375087,-0.6961376298273343,0.17410358565737205,0.14314140662219157
53.0401,5576.3201,0.20832654880060725,-0.3667155513601881,0.04041128611882694,-0.015023832351946643,0.03970159362549801,0.03405586603051499,-0.47311280564364133,0.17410358565737205,0.15926368306920682
53.0587,5576.3401,0.21594236048933763,-0.3676210928330488,0.04016926440871764,0.0343718669310216,0.04275159362549801,-0.001265892028032574,-0.3871273312595697,0.17410358565737205,0.21031755848474934
53.0806,5576.3602,0.21217499398197637,-0.36992355953061146,0.027886676344543435,0.07491885478604633,-0.030548406374501996,-0.0695555557838637,-0.47311280564364133,0.17410358565737205,0.15926368306920682
53.0974,5576.3802,0.20106831025760336,-0.36367186988834277,0.00625572537001233,0.053033670623047494,-0.026268406374501993,-0.0662099147165009,-0.47311280564364133,0.17410358565737205,0.15926368306920682
53.1163,5576.4002,0.18537489084322056,-0.35017622667866466,-0.020247817642060267,-0.004944453821881085,0.001221593625498008,0.015885254360908124,-0.47311280564364133,0.0741035856573724,0.15926368306920682
53.1338,5576.4202,0.16687728689332365,-0.33457094148787025,-0.04639756465959277,-0.015871057979237217,0.016491593625498006,0.03070350734796593,-0.3871273312595697,0.0741035856573724,0.21031755848474934
53.1539,5576.4403,0.14452878674142805,-0.32602860050699506,-0.06744132790471558,-0.007055665922617536,-0.008558406374501993,-0.01166341681331921,-0.3360734558440261,0.17410358565737205,0.12433208410067594
53.1747,5576.4603,0.11818262356111005,-0.32928079556876966,-0.07980029127724297,0.012427567754383707,-0.04887840637450199,-0.05763984996648328,-0.3871273312595697,0.0741035856573724,0.21031755848474934
53.1936,5576.4803,0.09324962298303784,-0.3401270803743638,-0.08142741663883696,0.021615384396929404,-0.04581840637450199,-0.018074171337866783,-0.47311280564364133,0.0741035856573724,0.15926368306920682
53.2158,5576.5004,0.07565727332007954,-0.35456167182296167,-0.07206150631932226,0.019206178886530645,-0.004888406374501992,0.02666595191641878,-0.47311280564364133,0.0741035856573724,0.15926368306920682
53.2428,5576.5204,0.06951865667464543,-0.37029825423468576,-0.053232921978590864,0.0047778162848831195,0.0006015936254980081,0.010283838114000639,-0.47311280564364133,0.0741035856573724,0.15926368306920682
53.2622,5576.5404,0.07321529628355083,-0.3914985301890439,-0.028215967248604257,-0.003469265526979324,0.014651593625498009,0.018179991708533082,-0.6450837544117907,0.0741035856573724,0.05715593223811814
53.2821,5576.5604,0.08301239232961764,-0.41537371222647906,-0.0011922556461546607,0.02164816635903833,-0.05375840637450199,-0.010960485560229405,-0.6450837544117907,0.0741035856573724,0.05715593223811814
53.2957,5576.5805,0.10338468581221273,-0.4337685280128328,0.023308781946901933,0.054178083546178014,-0.04459840637450199,0.0012599312819995831,-0.6450837544117907,0.0741035856573724,0.05715593223811814
53.3142,5576.6005,0.13235461061064502,-0.4407181128060317,0.04111878391482714,0.07232101864121751,0.002441593625498008,0.004217025486989356,-0.6961376298273343,-0.025896414342629015,0.14314140662219157
53.3375,5576.6205,0.17312163278512482,-0.43135736554540177,0.04914205563589023,0.041836480925988975,0.07635159362549801,-0.017441909396536396,-0.6961376298273343,-0.025896414342629015,0.14314140662219157
53.3561,5576.6406,0.21599738928737555,-0.40496079792176237,0.046331581195740636,0.026147893715399877,0.130111593625498,-0.012545305334970861,-0.7821231042114059,0.0741035856573724,0.09208753120664906
53.3795,5576.6606,0.2514258944622658,-0.37171714937527,0.033793004624952036,0.01920402924967105,0.063521593625498,-0.041532889682094176,-0.7310692287958623,0.0741035856573724,0.006102056822575614
53.3953,5576.6806,0.2676773944984148,-0.3341041349173305,0.015380252095596236,0.035700879919470435,0.0067115936254980085,-0.053764860822443514,-0.817054703179937,-0.025896414342629015,-0.04495181859296873
53.4193,5576.7006,0.2681655266031198,-0.3057604079965387,-0.004392986494162157,0.02961310833307804,-0.003668406374501992,-0.03393365467879423,-0.817054703179937,-0.025896414342629015,-0.04495181859296873
53.4437,5576.7207,0.2574287452462155,-0.2862205292046755,-0.02055256092946156,0.0011777119542649467,0.03298159362549801,-0.0195560772479548,-0.817054703179937,-0.025896414342629015,-0.04495181859296873
53.4617,5576.7407,0.23616803620081084,-0.2817817175316546,-0.02942059166389846,-0.029381525641834754,0.04642159362549801,0.009191016475500554,-0.7821231042114059,-0.025896414342629015,0.09208753120664906
53.4794,5576.7607,0.20668149359091365,-0.2963041972947413,-0.02950485694886687,-0.05371057820959344,0.06169159362549801,0.027425579841680578,-0.7821231042114059,-0.025896414342629015,0.09208753120664906
53.4971,5576.7807,0.17250419011047702,-0.32749172283058087,-0.021755966798650758,-0.03498106095649009,0.04581159362549801,0.022206261546567317,-0.7310692287958623,-0.025896414342629015,0.006102056822575614
53.5159,5576.8008,0.14074623990432072,-0.3660221089125312,-0.00907008641428507,-0.019038279187253072,0.05680159362549801,-0.0201969377367236,-0.817054703179937,-0.025896414342629015,-0.04495181859296873
53.5376,5576.8208,0.11845431482075673,-0.3994397502742289,0.0048989341884463355,-0.02599826592942892,0.070851593625498,-0.007280038551983617,-0.7310692287958623,-0.025896414342629015,0.006102056822575614
53.5558,5576.8408,0.10299967145979523,-0.4202245827489446,0.016847756935534836,-0.019798713226337222,0.11361159362549801,0.04329258691161664,-0.559098280027716,-0.025896414342629015,0.10820980765366248
53.5773,5576.8609,0.09611889394822414,-0.42592124374389767,0.024399232887514333,0.005728493186042034,0.05558159362549801,0.012267146821590783,-0.6450837544117907,0.0741035856573724,0.05715593223811814
53.6032,5576.8809,0.09654390687804613,-0.42184831663645767,0.026438282748408343,0.046538005442545646,-0.03848840637450199,-0.021756230573757276,-0.594029878996247,0.0741035856573724,-0.02882954214595528
53.6148,5576.9009,0.11259747618890874,-0.4074649955725156,0.02326622749535534,0.05969566395556103,-0.03237840637450199,-0.006838019472727989,-0.4220589302280977,0.0741035856573724,0.0732782086851334
53.6378,5576.9209,0.13728244637605225,-0.3953066107115445,0.015757351679836037,0.04284143615785284,0.06841159362549801,-0.027498179330361236,-0.5080444046121724,0.0741035856573724,0.022224333269589062
53.6553,5576.9409,0.16335947990505773,-0.3797766030567525,0.005847208202979334,0.05633363190714376,0.10140159362549801,-0.03228004652454552,-0.594029878996247,0.0741035856573724,-0.02882954214595528
53.6737,5576.9609,0.18078468206722775,-0.3664817429478437,-0.0048152179484369645,0.029924536973112856,-0.004888406374501992,-0.03445816607253708,-0.4220589302280977,0.0741035856573724,0.0732782086851334
53.6983,5576.9809,0.18563239009725363,-0.3584906739078679,-0.014791805441305567,0.010492088466919703,-0.05497840637450199,-0.0005350154957679518,-0.5080444046121724,0.0741035856573724,0.022224333269589062
53.7193,5577.0009,0.18359434362100935,-0.3572077623355493,-0.02311200580623317,0.004876162171209905,-0.01099840637450199,0.008923386686480126,-0.28501958042848247,0.0741035856573724,0.03834660971660248
53.7447,5577.0209,0.17984317714941833,-0.3641185090241267,-0.02900015201353956,0.02087590931722638,0.069631593625498,-0.041959055189510236,-0.3710050548125541,0.0741035856573724,-0.012707265698940044
53.7542,5577.0409,0.17150453202653854,-0.3692213461772584,-0.031179229142326376,0.024883907241954002,0.05741159362549801,-0.03674161782664913,-0.31995117939701045,0.0741035856573724,-0.09869274008301351
53.7752,5577.0609,0.16263942008816457,-0.3759640575593093,-0.029017953773545158,0.03813050698003541,-0.029938406374501996,-0.004011784411566473,-0.31995117939701045,0.0741035856573724,-0.09869274008301351
53.794,5577.0809,0.15807620431083774,-0.37780077324424977,-0.021951771675256762,0.038948443805113905,-0.062308406374501996,0.01494210118875782,-0.31995117939701045,0.17410358565737205,-0.09869274008301351
53.818,5577.1009,0.16116039939411425,-0.37712916438678046,-0.010499825885062958,0.03917012510626035,-0.04581840637450199,0.01578314661007704,-0.28501958042848247,0.17410358565737205,0.03834660971660248
53.8518,5577.1209,0.17314259068536736,-0.3787082606821018,0.0036920972754614367,0.03903039871038623,-0.018938406374501993,0.01002480687241862,-0.28501958042848247,0.17410358565737205,0.03834660971660248
53.858,5577.1409,0.20175717537421745,-0.38367686296926706,0.01795377061550764,0.02143696453758245,-0.009778406374501992,0.0109410895838239,-0.3710050548125541,0.17410358565737205,-0.012707265698940044
53.8811,5577.1609,0.2219204624350205,-0.39650181098737597,0.029699286002759936,0.026734475873463726,-0.018328406374501994,-0.020721717835073893,-0.4220589302280977,0.17410358565737205,0.0732782086851334
53.9,5577.1809,0.2352382989095007,-0.40903969235807336,0.03619857912103964,0.04264474438519927,-0.05192840637450199,-0.024777276475320208,-0.594029878996247,0.17410358565737205,-0.02882954214595528
53.914,5577.2009,0.2384309101817239,-0.4188620974744209,0.03516751347495264,0.011080551557235703,-0.002448406374501992,0.014026087181959985,-0.6800153533803187,0.0741035856573724,-0.0798834175614978
53.9371,5577.2208,0.23154107934815144,-0.42669819226988587,0.025173843682976343,-0.016333767313266512,0.09101159362549802,-0.02355708885288872,-0.6450837544117907,0.0741035856573724,0.05715593223811814
53.9593,5577.2408,0.20782082137761604,-0.4367529082970192,0.006403905377974042,-0.009339117676729588,0.06169159362549801,-0.006622787082160354,-0.6450837544117907,0.0741035856573724,0.05715593223811814
53.9895,5577.2608,0.16735976404027703,-0.4530523531511951,-0.019295640171845957,0.024146313094503123,-0.011608406374501994,-0.03788898650046161,-0.7660008277643934,0.0741035856573724,-0.13093729297704215
54.0086,5577.2808,0.11989929623690933,-0.45743050134842056,-0.04762984659851466,0.07468078250384544,-0.028108406374501994,-0.0739534440940016,-0.7310692287958623,0.0741035856573724,0.006102056822575614
54.0251,5577.3008,0.08095372374065364,-0.4486055893616775,-0.07392314124355095,0.044057861915780025,0.02504159362549801,-0.0139946979875574,-0.817054703179937,0.0741035856573724,-0.04495181859296873
54.0447,5577.3209,0.060047740208884745,-0.4292288860849542,-0.09367226417499816,0.01968017381407284,0.115451593625498,0.08449198955353053,-0.9890256519480832,0.0741035856573724,-0.1470595694240556
54.0726,5577.3409,0.058793224193588636,-0.40800128910555766,-0.10386938841583426,0.05634894806976842,0.13805159362549801,0.06222175168805551,-0.9890256519480832,-0.025896414342629015,-0.1470595694240556
54.0768,5577.3609,0.07635050501200254,-0.3903509679530597,-0.10324642797407085,0.11783501116495974,0.10445159362549801,0.01490098938381794,-0.9890256519480832,-0.025896414342629015,-0.1470595694240556
54.0965,5577.3809,0.10449210502372704,-0.3812678836800299,-0.09219718777406535,0.08318179016974835,-0.04825840637450199,-0.04758841671559254,-1.0400795273636267,-0.025896414342629015,-0.061074095039982144
54.1156,5577.401,0.14802523982568683,-0.36995538975941256,-0.07216002920873177,0.0442545536884336,-0.05131840637450199,-0.016715600842598426,-0.9890256519480832,-0.025896414342629015,-0.1470595694240556
54.1363,5577.421,0.20311561186941995,-0.3562883733562315,-0.046029544540628575,0.02451712545278443,0.04214159362549801,0.06676742753229103,-1.075011126332158,-0.025896414342629015,-0.19811344483959994
54.1542,5577.441,0.259877295824538,-0.3469241880821583,-0.017642110542260267,0.022914033764736365,0.07513159362549801,0.035973342109279834,-1.075011126332158,-0.025896414342629015,-0.19811344483959994
54.176,5577.4611,0.30504591613991544,-0.3463250949376381,0.009005165522708442,0.02958811880458517,0.018931593625498008,-0.03749560295515447,-1.0239572509166144,-0.025896414342629015,-0.28409891922367336
54.1996,5577.4811,0.3315806626363526,-0.3514981332258892,0.030194071786118132,0.017150051230321494,-0.06841840637450199,-0.032099477028338964,-0.9379717765325396,-0.025896414342629015,-0.23304504380812902
54.2149,5577.5011,0.3428130209254303,-0.3581565540897111,0.04272008036467043,-0.01267642890126144,-0.012828406374501992,0.04326491033704926,-0.8009324267329213,-0.025896414342629015,-0.2679766427766581
54.2473,5577.5211,0.3482055781658234,-0.36062609057555856,0.044722810285964636,-0.052734911779941655,0.03848159362549801,0.03297083682563097,-0.8009324267329213,-0.025896414342629015,-0.2679766427766581
54.2573,5577.5412,0.33039712230716084,-0.3778810813094075,0.03668715192931404,-0.06710308454952033,0.06169159362549801,-0.014636633294755995,-0.7149469523488498,-0.025896414342629015,-0.2169227673611156
54.2751,5577.5612,0.3045141117550099,-0.4009631149402087,0.020826430303205842,-0.034879759319481354,0.028091593625498006,-0.04736163002690456,-0.7149469523488498,-0.025896414342629015,-0.2169227673611156
54.2953,5577.5812,0.26847696152035844,-0.42557951459395316,0.001441617270007231,-0.0016418054917103132,-0.028108406374501994,-0.06385364401376983,-0.7149469523488498,-0.025896414342629015,-0.2169227673611156
54.3204,5577.6013,0.23163439700051214,-0.443111222001833,-0.01699507967798486,-0.008040737013530079,-0.021388406374501994,0.0019633999443042795,-0.7660008277643934,0.0741035856573724,-0.13093729297704215
54.3396,5577.6213,0.20312901839781156,-0.45199709472489286,-0.03113694022955127,-0.04331278471969936,0.004271593625498008,0.03145937340872342,-0.6289614779647751,0.0741035856573724,-0.16586889194557125
54.3815,5577.6413,0.19660595593766333,-0.4526382725583294,-0.03953860638710807,-0.04523429136757595,0.06475159362549801,-0.021539117250937496,-0.6289614779647751,0.0741035856573724,-0.16586889194557125
54.3898,5577.6613,0.17839493479649454,-0.45652090817263247,-0.04179022522697917,-0.02427398846342079,0.03420159362549801,-0.04248329787864564,-0.6289614779647751,0.0741035856573724,-0.16586889194557125
54.3984,5577.6814,0.16308884954303315,-0.4575304258148838,-0.03882555039516167,0.005854246942328742,-0.061698406374501996,-0.027432346701535926,-0.886917901116996,-0.025896414342629015,-0.31903051819220246
54.424,5577.7014,0.14784238940772626,-0.457386638373759,-0.03158668728980815,0.016609417560131626,-0.04215840637450199,0.009493577863489514,-0.8009324267329213,0.0741035856573724,-0.2679766427766581
54.4415,5577.7214,0.14246570245056572,-0.4506950468407558,-0.02080087134126006,0.004512067428114845,0.018931593625498008,-0.0012363345212130516,-0.7149469523488498,0.0741035856573724,-0.2169227673611156
54.455,5577.7415,0.14640541072236024,-0.4416600770957563,-0.00750049415165506,-0.020048339806658485,-0.001228406374501992,-0.010132069255460351,-0.5779076025492315,-0.025896414342629015,-0.2518543663296447
54.4749,5577.7615,0.15751619593883937,-0.4328143880682332,0.006776964604611538,-0.02200665898575576,0.03481159362549801,-0.005619444077941197,-0.5429760035807034,-0.025896414342629015,-0.11481501653002872
54.4989,5577.7815,0.16744361702204624,-0.4287784340211638,0.019701005144488734,0.035517623377189375,0.012211593625498007,0.020720325067367554,-0.5429760035807034,-0.025896414342629015,-0.11481501653002872
54.5185,5577.8015,0.17675009609933212,-0.4245756218496305,0.028568893988840133,0.07113549391314711,-0.04276840637450199,-0.024910285256008066,-0.5429760035807034,-0.025896414342629015,-0.11481501653002872
54.5453,5577.8216,0.18451725514505996,-0.41740112836119286,0.03079618016167973,0.05143702784557823,-0.07513840637450199,-0.04796863373513461,-0.6289614779647751,-0.025896414342629015,-0.16586889194557125
54.5575,5577.8416,0.19974901225285424,-0.4019723830230181,0.02479781480951354,-0.0034098818087328225,-0.005498406374501992,0.006131814519679692,-0.6289614779647751,-0.025896414342629015,-0.16586889194557125
54.5751,5577.8616,0.21071317108437182,-0.38693741449324925,0.010909020451723636,-0.04026406224356905,0.003661593625498008,0.03468839667645283,-0.6289614779647751,-0.025896414342629015,-0.16586889194557125
54.5956,5577.8817,0.2109817708133334,-0.3810683644313865,-0.00831082479488296,0.004731867797009134,0.001221593625498008,-0.02313280427772481,-0.7660008277643934,-0.025896414342629015,-0.13093729297704215
54.6167,5577.9017,0.19573356315843515,-0.3866693693077899,-0.028324407970805265,0.04673093535069491,-0.009778406374501992,-0.06995216378446023,-0.7660008277643934,-0.025896414342629015,-0.13093729297704215
54.641,5577.9217,0.16739561239315653,-0.3983846644837087,-0.044127686926547366,0.02306289611726379,-0.021998406374501994,-0.022901718315317607,-0.7660008277643934,-0.025896414342629015,-0.13093729297704215
54.6595,5577.9417,0.13609875284980072,-0.4097475860943989,-0.052234815316465455,-0.002544384268135634,0.012211593625498007,0.035778531268878415,-0.7660008277643934,-0.025896414342629015,-0.13093729297704215
54.6864,5577.9617,0.10915264206167073,-0.4206384526497878,-0.05211582201418535,-0.0054869684243230975,-0.02749840637450199,0.03474079407490563,-0.8519863021484649,-0.025896414342629015,-0.18199116839258467
54.6948,5577.9817,0.09182971388646065,-0.4361021320270155,-0.046416011216937475,0.017811064564649058,0.04031159362549801,-0.0032835949253763493,-0.594029878996247,0.0741035856573724,-0.02882954214595528
54.7312,5578.0017,0.08791591292918274,-0.4559513174874485,-0.039283715588663254,0.04541132702350683,0.06536159362549801,-0.03662526873162318,-0.594029878996247,-0.025896414342629015,-0.02882954214595528
54.7397,5578.0216,0.09534949353915993,-0.4568770145344623,-0.033457109656520656,0.04622657680251083,-8.406374501991783e-06,-0.021231719180014427,-0.6800153533803187,-0.025896414342629015,-0.0798834175614978
54.7541,5578.0416,0.11367381398692593,-0.44702009127227577,-0.030999012543949572,0.02808552263972348,-0.009778406374501992,-0.0014512982071732347,-0.6800153533803187,0.0741035856573724,-0.0798834175614978
54.7745,5578.0616,0.14059529646844032,-0.4267885088422493,-0.03129643287169526,0.004280981465707647,-0.026878406374501992,0.01709469379904161,-0.7660008277643934,0.0741035856573724,-0.13093729297704215
54.797,5578.0816,0.17316118654276413,-0.4033330392046033,-0.03238416562887117,-0.007275466291511825,0.015881593625498007,0.010233052943192546,-0.7660008277643934,0.0741035856573724,-0.13093729297704215
54.8151,5578.1017,0.20488231866644213,-0.38736840128160727,-0.031917375702239154,0.0021302697876760105,0.004881593625498008,0.005164746637466316,-0.7660008277643934,-0.025896414342629015,-0.13093729297704215
54.839,5578.1217,0.22939420882231465,-0.3831453767134992,-0.027926772414046466,0.002718732877992012,0.003051593625498008,0.019725849315194253,-0.7660008277643934,0.0741035856573724,-0.13093729297704215
54.8598,5578.1417,0.2423771359055799,-0.3932386997204649,-0.01965744585969996,0.003596053421317011,0.04642159362549801,0.02663155772666515,-0.6800153533803187,0.0741035856573724,-0.0798834175614978
54.8786,5578.1617,0.24306287914211872,-0.41374221866879296,-0.007532825300000268,0.006422019777871076,0.062911593625498,0.0027353882815087907,-0.7660008277643934,0.0741035856573724,-0.13093729297704215
54.9061,5578.1818,0.2369291987994313,-0.43572669478174486,0.007003619929907431,-0.02350683680915039,0.01771159362549801,-0.0114761297019264,-0.6289614779647751,-0.025896414342629015,-0.16586889194557125
54.9235,5578.2018,0.2219990585634528,-0.4598245051045969,0.021679135431895633,-0.05406956756514695,0.005491593625498008,0.017257260086548994,-0.5429760035807034,0.0741035856573724,-0.11481501653002872
54.9414,5578.2219,0.20728750733552243,-0.481231920488584,0.033832552881996436,-0.04243277713029986,0.04764159362549801,0.04192541786890986,-0.5429760035807034,-0.025896414342629015,-0.11481501653002872
54.9614,5578.2419,0.19761280499832207,-0.4992698509559942,0.04108493626524624,0.003674246462085031,0.05436159362549801,-0.023760766945335993,-0.45699052919662875,-0.025896414342629015,-0.06376114111448439
54.9773,5578.262,0.19461625351330503,-0.507892010518946,0.04243764178274734,0.05628768341926977,0.022601593625498007,-0.06569668891627095,-0.45699052919662875,-0.025896414342629015,-0.06376114111448439
54.9998,5578.2821,0.20045013450141252,-0.5058674951451474,0.03815732385076834,0.05226356321809513,0.005491593625498008,-0.029009642747268773,-0.31995117939701045,0.0741035856573724,-0.09869274008301351
55.0164,5578.3021,0.21726142272311083,-0.4873507083520083,0.02992700469896363,0.008520065352842467,-0.010388406374501991,0.0039811028416480545,-0.31995117939701045,0.0741035856573724,-0.09869274008301351
55.0417,5578.3222,0.24217822419411944,-0.4618725659802715,0.01923946294455614,-0.016954743661083994,-0.010388406374501991,0.000229449112427948,-0.23396570501293887,0.0741035856573724,-0.04763886466747099
55.0632,5578.3422,0.26802217307973564,-0.438926018814431,0.007443657861230635,0.0001010125922118767,0.009771593625498008,-0.027301218853100218,-0.23396570501293887,0.0741035856573724,-0.04763886466747099
55.0772,5578.3623,0.2823758324924989,-0.4234911054230748,-0.004244751877387057,0.010208067696844814,0.05375159362549801,-0.0383495461976313,-0.1479802306288642,0.0741035856573724,0.0034150107480733502
55.1017,5578.3824,0.28170518647544573,-0.41968479910399586,-0.015191823416607658,-0.010735844226255878,0.0067115936254980085,-0.013848522681104477,-0.23396570501293887,0.17410358565737205,-0.04763886466747099
55.1159,5578.4024,0.26405629999546093,-0.42050295436530666,-0.02447176028782576,-0.0013577847216354182,-0.05314840637450199,-0.026039113311906493,-0.19903410604440783,0.17410358565737205,0.08940048513214682
55.1408,5578.4225,0.2380007062631223,-0.426189270605982,-0.03161852345026625,-0.019276351469453976,-0.02932840637450199,-0.024594826046861504,-0.11304863166033621,0.17410358565737205,0.14045436054768934
55.1574,5578.4425,0.20778582493252407,-0.43514388680365407,-0.03582770046834946,-0.03256486912629763,0.03787159362549801,0.00019505492267431944,-0.11304863166033621,0.17410358565737205,0.14045436054768934
55.1754,5578.4626,0.17820290307558906,-0.4471780098567307,-0.036495614832102174,-0.030068334618477542,0.06597159362549801,-0.0040096347747068705,-0.11304863166033621,0.17410358565737205,0.14045436054768934
55.1979,5578.4827,0.14899364876524163,-0.46344902306292796,-0.03336189881912516,0.0053386028006317515,0.04642159362549801,0.017722656466652796,-0.11304863166033621,0.17410358565737205,0.14045436054768934
55.2177,5578.5027,0.12138867827237763,-0.48292951391392686,-0.026644364042658464,0.048290228187728594,-0.03848840637450199,-0.004375879154661531,-0.19903410604440783,0.17410358565737205,0.08940048513214682
55.2445,5578.5228,0.09967064487112744,-0.503094278172191,-0.017021598033592267,0.06706542522409847,-0.05009840637450199,-0.021639881478731332,-0.19903410604440783,0.17410358565737205,0.08940048513214682
55.2614,5578.5429,0.09885704554823284,-0.5151842200236517,-0.0054125984519367565,0.03297514038149531,0.002441593625498008,-0.0084916276269767,-0.19903410604440783,0.0741035856573724,0.08940048513214682
55.2815,5578.5629,0.11300114633893064,-0.5220275956859997,0.006642707940969134,0.0012599355641447153,0.0006015936254980081,0.02098795485638798,-0.19903410604440783,0.0741035856573724,0.08940048513214682
55.2966,5578.583,0.13510768214403945,-0.5256521443919236,0.01745911173479614,0.002136987402862267,0.03176159362549801,-0.0175676631528231,-0.28501958042848247,0.0741035856573724,0.03834660971660248
55.3193,5578.603,0.1578436952878136,-0.5296410594977718,0.025544546127702933,0.036715508517202504,-0.029938406374501996,-0.037531878077160255,-0.3710050548125541,0.0741035856573724,-0.012707265698940044
55.3512,5578.6231,0.17625199213522313,-0.5329248305901427,0.03023494469340443,0.055346679883979066,-0.03787840637450199,-0.041390744944753,-0.4220589302280977,0.0741035856573724,0.0732782086851334
55.363,5578.6432,0.20416236750153083,-0.5189486559469476,0.031939646732821333,0.05133115823024284,-0.009168406374501992,-0.004698593388209252,-0.45699052919662875,0.0741035856573724,-0.06376114111448439
55.3779,5578.6632,0.23407483312690525,-0.49878634734427596,0.030725305522349033,0.01974869348897266,0.02870159362549801,0.007810412202421276,-0.45699052919662875,-0.025896414342629015,-0.06376114111448439
55.408,5578.6833,0.2645440374481192,-0.4794568890677516,0.02712016477044614,0.0038365440449849683,0.04214159362549801,-0.010871544335163382,-0.3710050548125541,-0.025896414342629015,-0.012707265698940044
55.4214,5578.7033,0.2843887688291135,-0.46284291457746257,0.022352481403982938,0.021961207226717853,0.012211593625498007,-0.03420880819682326,-0.45699052919662875,-0.025896414342629015,-0.06376114111448439
55.4442,5578.7233,0.2909426458404029,-0.45779852649354136,0.01706638818812843,0.04568379349546136,-0.012218406374501993,-0.0478375058866989,-0.45699052919662875,-0.025896414342629015,-0.06376114111448439
55.4631,5578.7434,0.2838559486635585,-0.4564569720203872,0.012162856066200933,0.033568440154745416,-0.01099840637450199,-0.03940044991736915,-0.4919221281651598,-0.025896414342629015,-0.2008004909141022
55.476,5578.7634,0.26504710208639165,-0.4577692454568891,0.007532804486135733,-0.003265856139139499,0.0067115936254980085,-0.007273320936797359,-0.4059366537810851,-0.025896414342629015,-0.14974661549855786
55.4962,5578.7834,0.2372129559766547,-0.46443347495551746,0.0021347635731937403,-0.01828939944628928,0.007321593625498008,-0.015484127626654022,-0.4059366537810851,-0.025896414342629015,-0.14974661549855786
55.5186,5578.8035,0.20266626231984514,-0.4761060717888992,-0.00543412603251886,-0.003169391185064866,0.002441593625498008,-0.031371287542148844,-0.4919221281651598,-0.025896414342629015,-0.2008004909141022
55.5393,5578.8235,0.16386357846539024,-0.49065389466470427,-0.016307124073797863,0.01047381655361309,0.01343159362549801,-0.026829373562417613,-0.4919221281651598,-0.025896414342629015,-0.2008004909141022
55.5599,5578.8434,0.12634539228139235,-0.5040227162715825,-0.030477566006307966,0.026324701347102127,0.03359159362549801,-0.018836755013810533,-0.4919221281651598,-0.025896414342629015,-0.2008004909141022
55.5823,5578.8634,0.09566535869699373,-0.5130932266519687,-0.04620872979122495,0.03761540024755332,0.007931593625498008,-0.023495286793175165,-0.4059366537810851,-0.12589641434262866,-0.14974661549855786
55.6008,5578.8834,0.07843412772819384,-0.5152306362019342,-0.06017729942708716,0.05265533453575757,-0.006118406374501993,-0.011727637214499815,-0.45699052919662875,-0.12589641434262866,-0.06376114111448439
55.6171,5578.9034,0.07931330993509544,-0.5131426386338149,-0.06870057764039406,0.048949360589804,-0.026268406374501993,0.0017024877704701117,-0.31995117939701045,-0.12589641434262866,-0.09869274008301351
55.6419,5578.9234,0.09589216912698563,-0.5121737131609252,-0.06908817738602316,0.05765028448364988,0.014041593625498009,0.0026004985685687755,-0.31995117939701045,-0.12589641434262866,-0.09869274008301351
55.6565,5578.9434,0.13260104594084354,-0.5077587177075237,-0.060552401404592754,0.06349057912658063,-8.406374501991783e-06,-0.0024565221436445434,-0.3710050548125541,-0.12589641434262866,-0.012707265698940044
55.6818,5578.9634,0.17659240142308164,-0.5034953751931122,-0.045232362450464775,0.06535915096678953,0.04825159362549801,-0.005603590506101628,-0.4220589302280977,-0.12589641434262866,0.0732782086851334
55.7008,5578.9834,0.2230864540266425,-0.4924146005837613,-0.02711614477359886,0.045072490513512094,0.030541593625498006,0.0022382847577258665,-0.5080444046121724,-0.2258964143426283,0.022224333269589062
55.7159,5579.0034,0.26482985838969714,-0.4754203436215564,-0.011400424611411067,0.023408987651659684,-0.020168406374501992,0.006424971246407893,-0.4220589302280977,-0.12589641434262866,0.0732782086851334
55.7398,5579.0234,0.2965292394522823,-0.457260025085471,-0.0026502814289131593,0.028770450684114116,-0.012828406374501992,-0.01098816213479678,-0.5080444046121724,-0.12589641434262866,0.022224333269589062
55.7611,5579.0434,0.3182401866024128,-0.4388858113018997,-0.003109883040364761,0.029409430240630766,0.024431593625498006,-0.053941668454145775,-0.5080444046121724,-0.12589641434262866,0.022224333269589062
55.7783,5579.0634,0.325655525223053,-0.420962850219349,-0.011829026391661057,-0.0015727484075955995,0.04031159362549801,-0.04961256852351512,-0.594029878996247,-0.12589641434262866,-0.02882954214595528
55.7997,5579.0834,0.3186984667407749,-0.4088545634712535,-0.025556319907462266,-0.011439044183953131,0.014651593625498009,-0.030606016820130588,-0.7310692287958623,-0.2258964143426283,0.006102056822575614
55.8175,5579.1034,0.29682381659886803,-0.4054251604412032,-0.039754932184433156,-0.009153711497588929,-0.014668406374501994,-0.012909131373458475,-0.594029878996247,-0.12589641434262866,-0.02882954214595528
55.8386,5579.1234,0.2667226002110422,-0.4163934168315136,-0.05094117803847106,-0.03025185986536605,-0.012218406374501993,0.02501422469442222,-0.5080444046121724,-0.12589641434262866,0.022224333269589062
55.8558,5579.1434,0.23242116702672672,-0.44666945731624436,-0.05762897797134248,-0.04871939012620543,0.0067115936254980085,-0.003721314730912775,-0.594029878996247,-0.2258964143426283,-0.02882954214595528
55.8783,5579.1634,0.19985601462348596,-0.490979004961498,-0.060487174060432164,-0.0368630680270715,-0.011608406374501994,-0.04641095312574564,-0.594029878996247,-0.2258964143426283,-0.02882954214595528
55.8965,5579.1834,0.17079790743311535,-0.5351039937870443,-0.061261031233909774,0.011978293650726925,-0.021388406374501994,-0.040136163132567876,-0.594029878996247,-0.2258964143426283,-0.02882954214595528
55.9188,5579.2034,0.15210910724263704,-0.5649046715318813,-0.06179097679485687,0.02658534481632885,0.018931593625498008,-0.007307983831158439,-0.7660008277643934,-0.2258964143426283,-0.13093729297704215
55.9445,5579.2234,0.14812985556605723,-0.5703130643882268,-0.06270865589712757,0.023864710665895274,0.05314159362549801,0.037956650816869976,-0.6800153533803187,-0.2258964143426283,-0.0798834175614978
55.9573,5579.2434,0.15990274406012073,-0.5570967050172299,-0.06351331931786505,0.03521936126291962,0.08429159362549801,0.04754779307519847,-0.6289614779647751,-0.32589641434262795,-0.16586889194557125
55.9798,5579.2633,0.18056979847114552,-0.5312638947075351,-0.06183833628759855,0.05766345100941494,0.010991593625498008,0.028903455182656846,-0.6289614779647751,-0.32589641434262795,-0.16586889194557125
55.9975,5579.2833,0.21014214970473633,-0.5023994437377407,-0.05487024283422856,0.0753947306458407,-0.023218406374501992,0.011007997031079015,-0.5429760035807034,-0.32589641434262795,-0.11481501653002872
56.0159,5579.3033,0.24409537070272552,-0.4763193183440837,-0.04025237714365568,0.052921083392525846,-0.05192840637450199,-0.0002074645792861224,-0.6289614779647751,-0.32589641434262795,-0.16586889194557125
56.0405,5579.3233,0.27913211191270243,-0.4560673100156576,-0.017666263455140663,0.0010124586206830524,-0.05253840637450199,0.03576214028782395,-0.6289614779647751,-0.32589641434262795,-0.16586889194557125
56.0599,5579.3433,0.31421375661928613,-0.4471429079163053,0.01025845772773154,-0.024867019532063453,0.028091593625498006,0.033886850832428796,-0.5429760035807034,-0.32589641434262795,-0.11481501653002872
56.0826,5579.3633,0.3400957936972343,-0.44992848056567586,0.03902109274014784,-0.011418891338394367,0.04764159362549801,0.018425856424350046,-0.5429760035807034,-0.32589641434262795,-0.11481501653002872
56.0979,5579.3833,0.34750914845606,-0.465588823428442,0.06300828105333695,-0.009258774999101969,0.004271593625498008,0.011183729844351457,-0.5429760035807034,-0.32589641434262795,-0.11481501653002872
56.1175,5579.4033,0.33674592339819315,-0.4854301449534811,0.07717231364349954,0.0016928186867470366,-0.02932840637450199,-7.257486634610751e-05,-0.5429760035807034,-0.32589641434262795,-0.11481501653002872
56.1354,5579.4233,0.31253694299508844,-0.503765290808695,0.07831712587945984,0.002251724270243514,-0.026268406374501993,-0.015371271691524926,-0.5429760035807034,-0.32589641434262795,-0.11481501653002872
56.1601,5579.4433,0.2813696683238596,-0.5180677483109916,0.06626114348674854,-0.00714272621543141,-0.022608406374501993,-0.006737523949541601,-0.5429760035807034,-0.32589641434262795,-0.11481501653002872
56.1774,5579.4633,0.2454394674685491,-0.526123619275187,0.044259303457930936,-0.006139651915819705,0.029931593625498007,-0.03953130906119741,-0.6289614779647751,-0.2258964143426283,-0.16586889194557125
56.2047,5579.4833,0.20896940999599994,-0.5319317150022855,0.017527437433528734,0.003595784716709562,0.05375159362549801,-0.01882976869401683,-0.6289614779647751,-0.2258964143426283,-0.16586889194557125
56.2163,5579.5033,0.16692519291108582,-0.5368295214873157,-0.00777382187166796,0.0018352321286956579,0.010991593625498008,0.009246100920027853,-0.6289614779647751,-0.2258964143426283,-0.16586889194557125
56.2374,5579.5233,0.12858729487172965,-0.5441207111732809,-0.02718944026812596,-0.002637893471528313,-0.05009840637450199,-0.008330942271721462,-0.7660008277643934,-0.2258964143426283,-0.13093729297704215
56.2557,5579.5433,0.10293225394425805,-0.5531200232656097,-0.03849295067409397,0.008565745136109007,-0.04398840637450199,-0.008063581187308483,-0.7149469523488498,-0.12589641434262866,-0.2169227673611156
56.2777,5579.5633,0.09529284402665193,-0.5606215043306044,-0.042034829447082755,0.038920767230546535,-0.011608406374501994,0.007819816863682036,-0.7149469523488498,-0.12589641434262866,-0.2169227673611156
56.299,5579.5833,0.10809080972932174,-0.5615927842965015,-0.04010632872171285,0.06575092228445195,0.01710159362549801,0.011678415026667334,-0.7149469523488498,-0.12589641434262866,-0.2169227673611156
56.3228,5579.6033,0.13506942540517314,-0.5543572527522661,-0.03573247779159605,0.06954583745547155,0.04825159362549801,0.016059912355750775,-0.8519863021484649,-0.12589641434262866,-0.18199116839258467
56.3509,5579.6233,0.1677591390047639,-0.5416756340994048,-0.031278442537912565,0.07408963236745493,0.001221593625498008,0.0251542197949038,-0.8009324267329213,-0.12589641434262866,-0.2679766427766581
56.37,5579.6433,0.20671033970809305,-0.524143042715051,-0.027403831845475762,0.06482335397953376,-0.05253840637450199,-0.009480460582393546,-0.7149469523488498,-0.12589641434262866,-0.2169227673611156
56.3801,5579.6632,0.24210564525966372,-0.507299245521482,-0.023036829082675764,0.041000540892211314,0.002441593625498008,-0.017228826642828363,-0.8009324267329213,-0.12589641434262866,-0.2679766427766581
56.3967,5579.6832,0.2626875790856261,-0.5005326352850534,-0.01628196415852136,0.01902560939032409,0.05558159362549801,-0.012517628760403484,-0.8009324267329213,-0.12589641434262866,-0.2679766427766581
56.4179,5579.7032,0.26621553103708534,-0.5071947944237888,-0.005771556234121261,-0.009932417449979695,0.006101593625498008,0.0242860352082321,-0.7149469523488498,-0.12589641434262866,-0.2169227673611156
56.4449,5579.7232,0.25574188148964705,-0.5288834844782382,0.007818494313410043,0.0022173300804898847,-0.025658406374501994,0.00023885377368870848,-0.7149469523488498,-0.12589641434262866,-0.2169227673611156
56.4568,5579.7432,0.23709165257370474,-0.5576556929808512,0.021759656831191437,0.018626851752867955,0.007931593625498008,-0.05252855092356501,-0.5429760035807034,-0.12589641434262866,-0.11481501653002872
56.4787,5579.7632,0.22207726228610192,-0.5864397640806467,0.03145558838253834,0.029365631389616374,0.09223159362549802,-0.01915946924735826,-0.5429760035807034,-0.2258964143426283,-0.11481501653002872
56.4963,5579.7832,0.21245310497235342,-0.6028853164473904,0.03281941286228994,0.03658653030562639,0.07452159362549801,0.024913729171235837,-0.45699052919662875,-0.2258964143426283,-0.06376114111448439
56.5227,5579.8032,0.20931350687255434,-0.606326322417609,0.022814824231515235,0.05526150052341734,0.018931593625498008,-0.013727336903144415,-0.45699052919662875,-0.12589641434262866,-0.06376114111448439
56.5434,5579.8232,0.21383217219401585,-0.5933746397397244,0.00139346598980504,0.041630115787467205,-0.021388406374501994,-0.04101025922060347,-0.3710050548125541,-0.12589641434262866,-0.012707265698940044
56.5588,5579.8432,0.2258370704277201,-0.5667058222720628,-0.028810742242036863,0.021993989188826783,-0.014058406374501994,-0.027095122419185894,-0.4220589302280977,-0.12589641434262866,0.0732782086851334
56.58,5579.8632,0.24068217233773753,-0.5358546290021275,-0.06320055018173867,0.02816559661274365,0.012211593625498007,-0.02910610770134341,-0.3360734558440261,-0.2258964143426283,0.12433208410067594
56.5981,5579.8832,0.251577192951355,-0.5054924861676727,-0.09588257478234766,0.015017611465596471,0.05619159362549801,-0.017735066123264597,-0.3360734558440261,-0.2258964143426283,0.12433208410067594
56.6177,5579.9032,0.2532748311986383,-0.48387846212134167,-0.12150872907466245,0.0003323672592265246,0.05925159362549801,-0.00017092075267289178,-0.1641025070758798,-0.2258964143426283,0.22643983493176278
56.6389,5579.9232,0.24446044513964393,-0.4742377978493902,-0.13604362054994126,0.01656346907225764,0.001831593625498008,-0.023923064528235928,-0.1641025070758798,-0.12589641434262866,0.22643983493176278
56.6838,5579.9432,0.23004754403424332,-0.4728383897581794,-0.13755527211975696,0.009028185765530852,-0.020168406374501992,0.0007356885928641835,-0.1641025070758798,-0.12589641434262866,0.22643983493176278
56.6847,5579.9632,0.21381374641579065,-0.4881498097390098,-0.12712770737784507,-0.018314926383997055,0.020151593625498006,0.045592429646783145,-0.07811703269180516,-0.12589641434262866,0.27749371034730713
56.7022,5579.9832,0.20120083941784583,-0.5059182126443362,-0.10708877363729036,-0.021488865207199167,0.040921593625498014,0.01742439435238304,-0.07811703269180516,-0.12589641434262866,0.27749371034730713
56.7173,5580.0032,0.19110737125336913,-0.5276863507003454,-0.08155097695732935,0.010342957409784826,0.020151593625498006,0.012878718508147504,-0.07811703269180516,-0.12589641434262866,0.27749371034730713
56.7381,5580.0232,0.18386358473922665,-0.5479302492547974,-0.05430010673901195,0.030272509439760897,-0.004278406374501992,0.017606038667019392,-0.07811703269180516,-0.12589641434262866,0.27749371034730713
56.7554,5580.0432,0.18259840097792412,-0.5638936918037482,-0.028139310784743257,0.021846739063944052,-0.007948406374501994,0.00905612676256054,-0.07811703269180516,-0.12589641434262866,0.27749371034730713
56.777,5580.0632,0.18751191134381756,-0.5755455565056533,-0.004332230932250963,-0.0027249537643421876,0.029931593625498007,-0.003405049407943855,-0.12917090810734877,-0.025896414342629015,0.3634791847313806
56.7955,5580.0831,0.19481476823821692,-0.5857962874161552,0.01701366663533213,0.020537072807231632,0.063521593625498,-0.00309550170016119,-0.12917090810734877,-0.025896414342629015,0.3634791847313806
56.8155,5580.1031,0.20157480450756815,-0.5965153123861118,0.03608814862130304,0.046432941941032604,0.005491593625498008,0.002336630644052649,-0.07811703269180516,-0.025896414342629015,0.27749371034730713
