AppTimestamp(s),SensorTimestamp(s),acc_x,acc_y,acc_z,gyro_x,gyro_y,gyro_z,mag_x,mag_y,mag_z
45.0055,5568.275,-0.2064437036774822,-0.034538572073307856,0.015267750953881887,0.01661,0.08937,-0.07571,-0.3,-9.9,-22.7
45.025,5568.295,-0.19278449346433577,0.013725995958594486,-0.038305776381916345,0.05143,0.06738,-0.03661,-0.4,-10.0,-22.7
45.0366,5568.315,-0.18592329062317636,0.05951022880843875,-0.08758496809612204,0.00134,0.06066,-0.0024,-0.3,-10.0,-22.7
45.0481,5568.335,-0.17535693370373065,0.09900533925798069,-0.12845669329050757,-0.0237,0.02096,0.00615,-0.3,-10.0,-22.7
45.0752,5568.355,-0.15303386163253027,0.13351038680374272,-0.15793059961760036,0.00562,0.00996,-0.02684,-0.3,-10.0,-22.7
45.0907,5568.375,-0.12383477848103086,0.1606536080633969,-0.17441627053245234,0.00134,0.0234,-0.00485,-0.3,-10.0,-22.7
45.1091,5568.395,-0.08867632461168903,0.18299162570496783,-0.17758305688560938,-0.02065,-0.0102,0.06357,-0.3,-10.0,-22.8
45.1307,5568.415,-0.05445902811850748,0.2005551472770136,-0.16841154354489696,0.01539,-0.02669,0.11488,-0.2,-10.0,-22.8
45.1488,5568.435,-0.017415610420230345,0.21691490623765236,-0.14912100431878805,0.04838,-0.04502,0.12038,-0.3,-10.0,-22.8
45.1698,5568.455,0.01253843684341473,0.23265561815747687,-0.12302358768928912,0.02456,-0.06395,0.07701,-0.2,-10.0,-22.6
45.1979,5568.475,0.03227289345706668,0.24976866032542516,-0.0941235734348389,-0.02309,-0.03708,0.03608,-0.2,-10.0,-22.4
45.2106,5568.495,0.03585951392663791,0.2539203669566518,-0.0661716105689365,-0.07501,0.0405,-0.02989,0.0,-9.9,-22.4
45.2323,5568.515,0.019882669870570236,0.2474693152521415,-0.04296684266665096,-0.05119,0.05761,-0.05921,0.0,-9.9,-22.3
45.2507,5568.535,-0.023582685451466977,0.2204050496682131,-0.02730772074777832,-0.01943,0.07593,-0.05005,0.0,-9.9,-22.3
45.2799,5568.555,-0.07824638139188916,0.17980973304112868,-0.021501274769008205,-0.0011,0.02401,-0.01523,0.0,-9.8,-22.3
45.2952,5568.575,-0.13615388659750907,0.13863356617547593,-0.026495567645250517,0.01295,-0.00226,-0.01095,0.0,-9.8,-22.3
45.3136,5568.595,-0.17603702780787536,0.10681488639936298,-0.04119152204339116,0.0099,-0.01447,-0.01706,0.0,-9.8,-22.4
45.334,5568.6149,-0.19078198728169354,0.0899403317510102,-0.06294220906194603,-0.02065,0.05211,0.02081,0.0,-9.8,-22.3
45.353,5568.6349,-0.1820030750651943,0.08793372489551836,-0.08829563507127425,-0.01576,0.05394,0.0538,0.0,-9.8,-22.3
45.3704,5568.6549,-0.15533612676150152,0.10085922972452195,-0.11363975494660039,0.02333,-0.00837,0.06907,0.0,-9.8,-22.4
45.3894,5568.6749,-0.11906598301294521,0.12837521529436333,-0.1356070953220403,0.04899,-0.04318,0.04158,0.0,-9.8,-22.6
45.4086,5568.6949,-0.08003884940712098,0.16729323913584546,-0.15120660839741973,-0.01271,0.03073,0.04158,0.0,-9.8,-22.5
45.4339,5568.7149,-0.04775560107056225,0.20816677042391488,-0.1579079166885009,-0.04508,0.04906,0.07884,0.0,-9.8,-22.6
45.4486,5568.7349,-0.021178573110005497,0.23677220174001765,-0.15375201768863178,0.00073,0.01851,0.08068,0.0,-9.8,-22.7
45.4773,5568.7549,-0.01042216962321197,0.24702411374325367,-0.13829707653928835,0.02883,0.0063,0.05135,0.0,-9.8,-22.8
45.4905,5568.7749,0.0006252964121059335,0.23724694159208368,-0.11318262045137928,-0.02676,-0.04013,0.0257,0.0,-9.7,-22.9
45.5089,5568.7949,0.007548196397034544,0.21429397958899493,-0.0826986443670954,-0.06707,-0.04929,0.03242,-0.1,-9.7,-22.9
45.5353,5568.8149,0.01369066648748341,0.1864338507435976,-0.053190172718622364,-0.04875,-0.01692,0.03425,-0.1,-9.7,-22.9
45.554,5568.8349,0.028561765091237958,0.15268266142881795,-0.03158096298536606,-0.04447,-0.01997,0.04158,-0.1,-9.7,-23.1
45.5708,5568.8549,0.048166799606607774,0.12790299685445322,-0.023661173621745135,0.02639,0.0289,0.04158,-0.2,-9.7,-23.2
45.5891,5568.8749,0.06708006304610602,0.12219453321872416,-0.0314899251665679,0.04105,0.02157,0.01226,-0.2,-9.7,-23.2
45.6095,5568.8949,0.0787736300301234,0.13772078918548583,-0.05248450624956469,-0.0182,0.00874,0.00126,-0.1,-9.7,-23.2
45.6318,5568.9149,0.07704573677318435,0.16688486769825045,-0.08022188204590108,-0.01148,-0.00042,-0.01645,-0.1,-9.7,-23.3
45.6516,5568.9349,0.05792444067922818,0.1971004010730555,-0.10657823509277797,0.02272,0.02523,-0.02806,-0.1,-9.7,-23.3
45.6726,5568.9549,0.02390265859290155,0.218367000975391,-0.12433745198404011,0.0099,-0.00103,-0.03295,-0.1,-9.7,-23.2
45.6904,5568.9749,-0.020891240876898746,0.22547374136590914,-0.12914484724559294,-0.03287,0.00813,-0.03295,-0.1,-9.7,-23.1
45.7292,5568.9949,-0.06028718616041509,0.2228358749832495,-0.12040673200671392,-0.03164,0.01973,-0.03417,-0.2,-9.7,-23.1
45.7408,5569.0148,-0.10345487572098645,0.20041271761889637,-0.10057751115257751,-0.00904,0.02645,-0.02561,-0.2,-9.6,-23.0
45.7604,5569.0349,-0.13357337888042112,0.17070988224880226,-0.07462721892413704,0.00928,-0.01508,0.01898,-0.2,-9.6,-22.9
45.7746,5569.0549,-0.14250733743697988,0.14291710650186007,-0.04802053748846902,0.03066,-0.0047,0.05746,-0.1,-9.6,-22.9
45.7931,5569.0749,-0.12890816646330194,0.12305581560822487,-0.025688865492265123,0.03616,0.01363,0.05502,-0.1,-9.6,-22.8
45.8163,5569.095,-0.0935014471651041,0.1160766347552864,-0.011468260336357616,0.038,0.03256,0.02203,-0.1,-9.6,-22.8
45.8365,5569.115,-0.043527782421934315,0.12142639527144493,-0.00796944423902346,-0.00171,0.02279,0.01409,0.0,-9.6,-22.8
45.8531,5569.135,0.007721450169532982,0.13252104206885024,-0.016418709891484085,0.01051,0.00813,0.00554,0.0,-9.6,-22.7
45.8707,5569.155,0.049884620387147784,0.1438901985581104,-0.03645890664220808,0.0551,0.03806,-0.00485,0.0,-9.6,-22.6
45.8952,5569.1751,0.0783881696044658,0.15292792523683568,-0.06608092875135974,0.05388,0.04967,-0.00179,0.0,-9.6,-22.5
45.9126,5569.1951,0.08846747716732706,0.16686664352651773,-0.10175067649857006,0.01784,0.04295,-0.0189,0.0,-9.6,-22.4
45.9402,5569.2151,0.09216248060551037,0.18388486168126034,-0.13856107242416726,-0.03775,0.03623,-0.07693,0.0,-9.6,-22.3
45.9527,5569.2352,0.06943228342030307,0.19653728486890082,-0.1704052562382401,-0.02798,0.03989,-0.11053,-0.1,-9.6,-22.3
45.9767,5569.2552,0.04749069421197231,0.20610043054795696,-0.19184342594677517,0.016,0.057,-0.08181,-0.1,-9.6,-22.3
45.9968,5569.2752,0.016742519783707808,0.2069610709521956,-0.19812689140382922,0.01234,0.07349,-0.00668,0.0,-9.6,-22.3
46.0162,5569.2952,-0.01093582050876017,0.199095700503457,-0.18691462335154263,0.00684,0.03867,0.02875,0.0,-9.6,-22.3
46.0322,5569.3153,-0.027180003972614636,0.18521914764428765,-0.1588595538926736,0.03128,-0.00653,-0.00057,0.0,-9.6,-22.3
46.0588,5569.3353,-0.028231211739040897,0.16703260976754397,-0.11807606180304653,0.03189,0.01363,-0.02623,0.0,-9.6,-22.3
46.0805,5569.3553,-0.018489088104739818,0.1496729729847337,-0.07209800919759246,-0.02431,0.00141,-0.04333,0.0,-9.6,-22.3
46.0935,5569.3754,-0.005791754134759583,0.12656368718170735,-0.0304217969440721,-0.08296,0.00019,-0.03111,0.0,-9.6,-22.5
46.1113,5569.3954,0.009868855381758994,0.10169086148423556,-0.002558946287201991,-0.02492,0.02829,-0.02378,-0.1,-9.6,-22.5
46.1303,5569.4154,0.022283261223928204,0.07652566420337216,0.005011341104641076,0.07159,0.0289,-0.01462,-0.1,-9.6,-22.5
46.1503,5569.4354,0.02544079769918728,0.062294593207094365,-0.009063624935768289,0.12474,0.07105,-0.02195,-0.1,-9.6,-22.5
46.1673,5569.4555,0.01843222051745207,0.07033290984853366,-0.04062212224597772,0.01356,-0.01508,0.0092,-0.1,-9.6,-22.4
46.1918,5569.4755,0.007198794072545854,0.09556318825579527,-0.08166219816626352,-0.04875,-0.04929,0.02142,-0.1,-9.6,-22.5
46.2106,5569.4955,0.0024336706140700866,0.1262261442570522,-0.12294149008445387,-0.00354,-0.01997,-0.01951,-0.1,-9.7,-22.5
46.2339,5569.5156,0.006054956625632638,0.1529807049733899,-0.15638352280818602,0.05021,0.08815,-0.05494,0.0,-9.6,-22.6
46.2552,5569.5356,0.002538812041160275,0.17599758847879016,-0.1768932633019702,0.05021,0.15718,-0.02561,0.0,-9.7,-22.7
46.2717,5569.5556,-0.012401569180477605,0.1979433394340565,-0.18306917761304398,-0.05913,-0.04196,0.04097,0.0,-9.6,-22.7
46.2933,5569.5756,-0.031856054851752226,0.21951656243482393,-0.17677324987852572,-0.03775,-0.13359,0.02997,0.0,-9.6,-22.7
46.3099,5569.5957,-0.037682461029930156,0.23641091322461588,-0.16151243324776843,-0.01271,-0.07067,-0.02867,0.0,-9.6,-22.7
46.3345,5569.6157,-0.025266369529251532,0.2519999492649974,-0.14089568541647068,-0.04264,0.13519,-0.05738,0.0,-9.6,-22.8
46.3505,5569.6357,-0.02291189727235491,0.2548844059656778,-0.11673698695044266,-0.04325,0.16756,-0.03966,0.0,-9.7,-22.8
46.3706,5569.6557,-0.03800045866913296,0.24396157406016752,-0.08927898955242597,-0.04508,0.00019,0.01653,0.1,-9.7,-22.8
46.3947,5569.6757,-0.07378509797591222,0.2134633839325089,-0.05796048328662273,-0.01148,-0.12932,0.05807,0.1,-9.7,-22.7
46.4163,5569.6957,-0.10454569027384106,0.16612901973598587,-0.02281319774202828,0.01845,-0.11038,0.01165,0.1,-9.7,-22.7
46.4358,5569.7157,-0.11571656649405618,0.10828837613122473,0.014670233087469953,-0.03225,0.05333,-0.04638,0.1,-9.7,-22.7
46.4589,5569.7357,-0.10900262291054909,0.04769057003088159,0.05079324705497257,-0.10861,0.09182,-0.03966,0.1,-9.6,-22.7
46.4704,5569.7557,-0.09901561225177487,-0.021809245674537268,0.07966250379937989,-0.07807,-0.0383,-0.00423,0.1,-9.6,-22.7
46.4964,5569.7757,-0.09756168295298588,-0.07980347732842757,0.09417228351993856,0.01784,-0.18857,0.07396,0.1,-9.6,-22.7
46.5155,5569.7957,-0.0689241034439249,-0.10793144886017754,0.08850289266143463,0.07709,-0.19957,0.12038,0.1,-9.6,-22.7
46.5394,5569.8157,-0.016200124270591393,-0.08902383186001313,0.05889294390329525,0.03861,-0.11221,0.11611,0.1,-9.6,-22.6
46.5578,5569.8356,0.07076510750736442,-0.021515156111164925,0.004883385874761004,-0.0628,0.03378,0.09839,0.1,-9.5,-22.5
46.5708,5569.8556,0.15935765130819127,0.07424228814483125,-0.0699059000212614,-0.03592,0.09731,0.07579,0.0,-9.5,-22.5
46.5911,5569.8756,0.21929485514539648,0.17534778711038546,-0.15670264771944886,0.04105,0.04539,0.05563,0.0,-9.5,-22.5
46.6113,5569.8956,0.24032982179056311,0.2687153851432201,-0.24352969631052446,0.02517,-0.06029,4e-05,0.0,-9.5,-22.7
46.6316,5569.9156,0.22487181624126593,0.34483204494969155,-0.3173331206486427,-0.19108,0.03195,-0.11663,0.0,-9.5,-22.6
46.6508,5569.9356,0.17594773819754062,0.38221076090219963,-0.364830956087836,-0.29737,0.14741,-0.17711,-0.1,-9.4,-22.6
46.6812,5569.9556,0.1232092519664196,0.39022934951554095,-0.37674045776923215,-0.30898,0.10526,-0.22598,-0.1,-9.3,-22.6
46.6929,5569.9756,0.005783138021979587,0.29228830031559666,-0.3449908672466684,-0.17459,0.05211,-0.21315,-0.1,-9.3,-22.6
46.7098,5569.9956,-0.1074831481139261,0.16447749177645268,-0.277435510518222,-0.07318,-0.02791,-0.19116,-0.1,-9.3,-22.6
46.7309,5570.0156,-0.19743059881162955,0.03885472750796247,-0.18478309659130332,-0.17703,-0.06212,-0.07204,-0.1,-9.2,-22.6
46.7518,5570.0356,-0.24363019561731358,-0.06257071168601383,-0.08163368678645178,-0.23751,0.01912,-0.06166,-0.1,-9.2,-22.5
46.7695,5570.0556,-0.2417153263894555,-0.13850661466630865,0.015127699391706884,-0.12633,0.06311,-0.08609,-0.1,-9.1,-22.6
46.7963,5570.0756,-0.19998782194904896,-0.1862620299110244,0.0899056221084873,0.00012,0.0344,-0.01645,-0.1,-9.1,-22.7
46.8105,5570.0956,-0.13530731124604997,-0.1972992734037802,0.13309430000130185,0.18827,-0.01936,0.11244,-0.1,-9.0,-22.6
46.8364,5570.1156,-0.07227487777999654,-0.2009142793260845,0.14279065848390182,0.308,-0.12932,0.12771,-0.1,-9.0,-22.7
46.8486,5570.1356,0.019732976933679622,-0.12000202571774335,0.12661624575963337,0.27501,-0.06884,0.09167,-0.1,-9.0,-22.7
46.8736,5570.1556,0.10180530566722158,-0.025242442107850867,0.09178318545114372,0.13085,-0.03769,0.06296,0.0,-8.9,-22.7
46.8883,5570.1756,0.1842036944158755,0.09167440864412521,0.04611184926325862,-0.00293,0.00935,0.06785,0.0,-8.9,-22.6
46.9086,5570.1956,0.2454940487628316,0.18741607237964086,-0.005130931990043663,-0.0011,0.06005,0.04463,0.0,-8.9,-22.4
46.9327,5570.2156,0.2784360157968438,0.23972997406318838,-0.0586311739799541,0.05266,0.04111,0.03242,0.1,-8.9,-22.2
46.9488,5570.2356,0.28058958932045636,0.25651449719946773,-0.11278394896984167,0.10397,-0.0102,-0.0024,0.1,-8.9,-22.3
46.9852,5570.2555,0.25469676765128557,0.23030137940180406,-0.16517539075144683,0.09908,-0.00898,-0.01645,0.1,-8.9,-22.3
47.0132,5570.2755,0.2126951034395762,0.2086699575911293,-0.2134159984364974,0.04899,-0.0218,-0.00729,0.1,-8.9,-22.1
47.0218,5570.2955,0.1615390447483849,0.1935485039874086,-0.25250575421050314,-0.02065,-0.02425,-0.00912,0.2,-8.9,-22.1
47.0294,5570.3155,0.10766260296452013,0.17683488903466643,-0.27754137184539296,0.01661,0.0625,-0.02378,0.2,-8.9,-22.0
47.0588,5570.3355,0.060723755866568335,0.15986648814400267,-0.28564651565849886,0.00562,0.00019,-0.04272,0.1,-8.9,-22.1
47.0866,5570.3555,0.009109930386187529,0.1369104804996703,-0.2764163443294372,-0.01332,-0.06884,-0.03966,0.1,-8.9,-22.1
47.095,5570.3755,-0.03354069526940271,0.11633701784052745,-0.25266312604687435,0.02883,-0.13359,-0.02012,0.1,-9.0,-22.0
47.1135,5570.3955,-0.07103085928189896,0.09563003552533265,-0.21904421578524058,0.04349,-0.1342,-0.01095,0.0,-9.0,-22.0
47.1321,5570.4156,-0.09325996845355841,0.08243252265963831,-0.18117612407912986,-0.00477,-0.02119,-0.02073,0.1,-9.0,-22.0
47.1525,5570.4356,-0.10206201614652559,0.07699698649278301,-0.14425584602815533,-0.03531,0.01302,-0.03356,0.1,-9.0,-22.0
47.173,5570.4556,-0.10424977371714,0.07330191018881393,-0.11209312014543293,-0.0518,0.04783,4e-05,0.1,-9.0,-22.0
47.1894,5570.4757,-0.10212996213378014,0.06663182876521523,-0.08649225999312016,-0.00782,-0.00898,0.01653,0.1,-9.0,-22.0
47.2114,5570.4957,-0.09083852842945396,0.060042148475567776,-0.06736892597187172,0.04105,-0.03219,0.00859,0.0,-9.0,-22.1
47.236,5570.5157,-0.06355474973634245,0.06176968616957336,-0.053571047810308414,-0.0182,0.00019,-0.00607,0.0,-9.0,-22.2
47.2534,5570.5357,-0.022719816035571265,0.07092870687219602,-0.044033268578907325,-0.0744,0.04234,-0.01645,0.0,-9.0,-22.2
47.2806,5570.5558,0.024467734492828356,0.08878678552087522,-0.03859831318938056,-0.05669,0.02645,0.00187,0.0,-8.9,-22.2
47.2937,5570.5758,0.07238428860361246,0.10069811961191617,-0.03782144059813852,0.00684,-0.03646,0.03486,0.0,-9.0,-22.3
47.3127,5570.5958,0.11471452940734046,0.10915834891305216,-0.04240162066159314,0.07465,-0.03769,0.02081,0.0,-9.0,-22.3
47.3392,5570.6159,0.1517764976898626,0.11517979897583211,-0.051944689760906826,0.07648,0.03317,-0.03905,0.0,-9.0,-22.4
47.3572,5570.6359,0.1719862918959588,0.13087239435053485,-0.0641704153167133,-0.00293,0.06066,-0.07204,0.0,-9.0,-22.4
47.3735,5570.6559,0.17089929179455182,0.1459203220102095,-0.07519403760881005,-0.04081,0.01179,-0.08181,0.0,-9.0,-22.2
47.3906,5570.6759,0.15214033353984302,0.15266447408485695,-0.08141651073975353,-0.03714,-0.04074,-0.07326,0.0,-9.0,-22.3
47.4116,5570.696,0.12562181291532343,0.1477809001185136,-0.08123884797962333,-0.03348,-0.00592,-0.06043,0.0,-9.0,-22.4
47.4395,5570.716,0.10086097113114746,0.1316919643763811,-0.0757599268785949,-0.01148,0.01973,-0.03661,0.0,-9.0,-22.4
47.4512,5570.736,0.08174328673119288,0.11125166282287449,-0.06821047429366978,0.01539,0.01668,0.00737,0.0,-9.0,-22.4
47.4746,5570.7561,0.07179139099511783,0.09117248338016484,-0.062332381992820984,0.0099,-0.02364,0.0147,0.0,-9.0,-22.5
47.4946,5570.7761,0.06832422724401868,0.07616487373739075,-0.06072924157571791,0.00928,-0.01203,-0.025,0.0,-9.0,-22.4
47.5196,5570.7961,0.06733345475844513,0.06466394826140164,-0.0639645368592987,0.00379,0.01424,-0.05677,0.0,-9.0,-22.4
47.5383,5570.8161,0.0582694604257584,0.05319345415520221,-0.0706661184763977,-0.0237,-0.02791,-0.07143,0.0,-9.0,-22.4
47.5505,5570.8362,0.034335345696994694,0.03847320110145751,-0.07848474544530326,-0.01026,0.01851,-0.07143,0.0,-9.0,-22.3
47.5741,5570.8562,0.0060404303151962825,0.021758552166907474,-0.0852842534183722,0.0044,0.02462,-0.05494,0.0,-9.0,-22.2
47.6059,5570.8762,-0.02932305837027661,0.0011937303952587832,-0.08985773970279887,-0.00782,0.02279,-0.02317,0.0,-9.0,-22.3
47.613,5570.8963,-0.06914130137161917,-0.016636219167450974,-0.09242191003331435,0.00684,-0.00348,-0.00668,0.1,-8.9,-22.3
47.6361,5570.9163,-0.10173769871037913,-0.034032445588381775,-0.09425183616933097,0.05021,-0.03952,4e-05,0.1,-8.9,-22.3
47.6517,5570.9363,-0.1193395448246859,-0.04057682367871944,-0.0970177307524569,0.0325,0.00996,0.00982,0.1,-8.9,-22.4
47.6704,5570.9563,-0.12127853538594706,-0.037370851498660776,-0.1021376749941254,-0.00538,0.04539,0.01531,0.1,-9.0,-22.6
47.6938,5570.9764,-0.11126408106001848,-0.02759007779625574,-0.10995528008222166,0.01051,0.03623,0.01959,0.1,-8.9,-22.5
47.7349,5570.9964,-0.09991360900123795,-0.02301311036613383,-0.11919494048947143,0.04471,0.02035,0.0428,0.1,-8.9,-22.5
47.7447,5571.0164,-0.07260551246286902,-0.005187016971153912,-0.12665852710940229,0.05938,0.00691,0.08556,0.1,-9.0,-22.4
47.7595,5571.0364,-0.040761225067859494,0.009026699017298271,-0.12890565506473983,0.05205,0.01851,0.10083,0.1,-9.0,-22.4
47.7725,5571.0564,-0.001085520088352472,0.02124908578023992,-0.12321416803514751,0.04044,-0.00653,0.06724,0.1,-9.0,-22.4
47.7907,5571.0763,0.03966283448850748,0.02622878680936448,-0.10917261877161621,0.01661,-0.02303,0.0147,0.1,-9.0,-22.4
47.8096,5571.0963,0.07914430919108156,0.02190772390561783,-0.08919219730482375,0.016,-0.07251,0.0202,0.0,-9.0,-22.5
47.833,5571.1163,0.11202832015305739,0.007147109618761817,-0.06801691648748154,0.07953,-0.04563,0.03792,0.0,-9.0,-22.6
47.8506,5571.1363,0.1416631949853951,-0.004078667216332861,-0.05149187039209302,0.09603,0.02584,0.06235,0.0,-9.0,-22.7
47.8752,5571.1563,0.16260848972815453,-0.012496081638764943,-0.04475579394760665,0.04288,0.03562,0.05319,0.0,-9.0,-22.8
47.8935,5571.1763,0.17683150688199098,-0.009987735143495656,-0.05125280350103978,0.02272,0.00568,0.01287,0.0,-9.0,-22.6
47.9097,5571.1963,0.18132921567537283,-0.004168107036149362,-0.0719344621266984,0.02028,-0.0499,-0.03233,0.0,-9.1,-22.5
47.9324,5571.2163,0.1768211936867594,-0.0013790540531411545,-0.10516042184555374,0.03616,-0.03341,-0.04028,0.0,-9.1,-22.4
47.9516,5571.2363,0.16388181293471044,0.0013091664160076446,-0.1467250469085677,0.04105,-0.00714,-0.02806,0.0,-9.1,-22.3
47.9684,5571.2563,0.1454551347450438,0.005239183283720459,-0.190311406581694,0.01661,0.01668,0.00371,0.0,-9.1,-22.1
47.9996,5571.2762,0.1261300458123698,0.007215615723675147,-0.22827137560820177,0.0044,0.04478,0.02692,-0.1,-9.2,-22.2
48.026,5571.2962,0.10791312813568124,0.006092243162138622,-0.25287112583627547,0.01906,0.0179,0.00737,-0.1,-9.2,-22.2
48.0464,5571.3162,0.09299669921362586,0.0014256647929163013,-0.25809470940832036,0.02211,-0.00531,-0.02439,-0.1,-9.1,-22.2
48.0493,5571.3361,0.08332447753297913,-0.0013598365165719364,-0.24149367257430754,0.0215,-0.03341,-0.0305,-0.2,-9.2,-22.2
48.0846,5571.3561,0.07775832463779364,-0.0007797967938138841,-0.20546467896406462,0.02761,-0.02913,0.0202,-0.2,-9.2,-22.3
48.099,5571.3761,0.08637843724415079,0.004878224852224927,-0.15733432351821008,-0.04936,-0.05357,0.03486,-0.2,-9.2,-22.3
48.1134,5571.3961,0.10535785680859419,0.018081566129746256,-0.10730092239374223,0.00379,-0.12504,0.0257,-0.1,-9.2,-22.3
48.1332,5571.4161,0.1252143390815267,0.03418882210022619,-0.0651202191582172,0.15528,-0.17269,0.06724,-0.1,-9.2,-22.1
48.1492,5571.4361,0.15586469789944538,0.06536054208703214,-0.03708063177620069,0.18644,-0.21728,0.08495,-0.1,-9.1,-22.1
48.1691,5571.4561,0.1805657994695881,0.10310679950010775,-0.023541881042214996,0.12107,-0.1959,0.04036,-0.1,-9.1,-22.1
48.1951,5571.4761,0.19427437401140535,0.14501361576180796,-0.020166887776424502,0.11191,-0.1342,0.00493,-0.1,-9.2,-22.1
48.2091,5571.4961,0.206421289766146,0.19490698406818266,-0.02084397719100295,0.05693,-0.12199,-0.01095,-0.3,-9.2,-22.4
48.2361,5571.5161,0.2061323892469269,0.22778810045915907,-0.01922598941408893,-0.02981,-0.01875,-0.05982,-0.3,-9.2,-22.5
48.2531,5571.5361,0.18201984364807014,0.22634348452383227,-0.011629225455104475,-0.05974,0.06494,-0.10442,-0.4,-9.3,-22.6
48.2703,5571.5561,0.13861506083978214,0.18983210349852883,0.0013085908379757427,-0.01637,0.06005,-0.10747,-0.4,-9.3,-22.6
48.2944,5571.5761,0.08493441139142541,0.126448430787517,0.015734935890748147,0.06426,-0.0328,-0.09953,-0.4,-9.3,-22.6
48.3199,5571.5961,0.023756026331209313,0.054814219134999446,0.026531035386872404,0.03066,-0.06579,-0.07876,-0.4,-9.4,-22.7
48.3356,5571.6161,-0.030251258649228,-0.009277948803509972,0.02928496749134979,-0.02615,-0.04624,-0.047,-0.4,-9.4,-22.6
48.3498,5571.636,-0.06410994323561114,-0.06225152403268876,0.02158998915157717,0.01356,-0.00103,-0.02684,-0.4,-9.4,-22.6
48.3794,5571.656,-0.06846008202704722,-0.10825896886713803,0.0031889560249087623,0.05205,0.0289,-0.03966,-0.4,-9.4,-22.6
48.3918,5571.676,-0.0650609737942549,-0.13005980864675734,-0.02413354680022728,0.05693,0.01729,-0.07509,-0.4,-9.4,-22.5
48.4127,5571.696,-0.04946365386106525,-0.1345092299679488,-0.05719800178436607,0.0496,0.01179,-0.06288,-0.4,-9.4,-22.6
48.4341,5571.716,-0.03307158358388417,-0.11785587928621367,-0.09241626717636997,-0.00538,0.01607,-0.00057,-0.4,-9.5,-22.6
48.4499,5571.736,-0.02226096758736123,-0.08829483795529579,-0.1267584957922132,-0.02187,0.05578,-0.00179,-0.4,-9.5,-22.5
48.4721,5571.756,-0.01742433552596182,-0.05647371543567573,-0.15774569391774484,0.04899,0.07471,-0.02073,-0.4,-9.5,-22.5
48.4995,5571.776,-0.023408901685430094,-0.02733423819556472,-0.18291161362234654,0.0832,0.03989,-0.02073,-0.4,-9.5,-22.5
48.5158,5571.796,-0.044505718355988856,0.009300806876670238,-0.1994099524668531,0.04655,0.03012,-0.00607,-0.3,-9.5,-22.4
48.5354,5571.816,-0.07017939270422877,0.04267405201767731,-0.20418928916400425,-0.02126,0.03256,0.01715,-0.2,-9.5,-22.3
48.5537,5571.836,-0.0940736733817017,0.0632872740999809,-0.19463044589735468,-0.03714,0.09304,0.02142,-0.2,-9.5,-22.3
48.5727,5571.856,-0.11051527490698143,0.06205427750398567,-0.16971288854867517,-0.0011,0.05394,0.00798,-0.2,-9.5,-22.4
48.6034,5571.8761,-0.12271925437893567,0.036937046606568144,-0.13110122627224818,0.04044,-0.05479,0.0312,-0.1,-9.4,-22.3
48.6129,5571.8961,-0.09782022299246704,0.004314878172812184,-0.08286384090246024,0.02639,-0.10427,0.10206,-0.1,-9.4,-22.2
48.6504,5571.9161,-0.07871458261015266,-0.032693815607335086,-0.03211287212769243,0.0044,-0.04685,0.13749,-0.1,-9.4,-22.3
48.6619,5571.9361,-0.0076079408598575754,-0.05726356920910655,0.013688283424899694,0.00867,0.05272,0.12099,-0.2,-9.5,-22.3
48.6872,5571.9561,0.062165571617087134,-0.07017832841458238,0.0463825307336414,0.0215,0.07044,0.09106,-0.2,-9.5,-22.2
48.6935,5571.9761,0.1329760693962953,-0.05814836078622955,0.06047038643441205,0.03861,0.00019,0.06724,-0.1,-9.6,-22.2
48.7101,5571.9962,0.17649494780629774,-0.026175285634172263,0.05440693003020236,0.03555,-0.07923,0.05197,-0.2,-9.6,-22.2
48.7329,5572.0162,0.19711954012833055,0.027294873171437334,0.031003409987668817,-0.0182,-0.02119,0.02387,-0.2,-9.6,-22.3
48.7549,5572.0362,0.1993393935351559,0.08951125867568409,-0.0025930509589180417,-0.0518,0.08693,-0.00607,-0.2,-9.6,-22.4
48.7764,5572.0562,0.18153114660248093,0.14323924851520706,-0.035817129814569526,-0.01759,0.08632,0.00737,-0.2,-9.6,-22.3
48.7999,5572.0763,0.1468857452871121,0.1794507723865933,-0.05764714940382021,0.00684,-0.03585,0.0257,-0.2,-9.6,-22.3
48.8122,5572.0963,0.11595843901403594,0.19111604910987268,-0.06006070910468431,-0.07318,-0.08045,0.04463,-0.2,-9.6,-22.3
48.8383,5572.1163,0.096283509842739,0.205089664120254,-0.04107618493343246,-0.19291,-0.06823,-0.0079,-0.3,-9.6,-22.3
48.8603,5572.1364,0.099452553301732,0.19087134687996726,-0.00474434606793217,-0.32913,0.06311,-0.05555,-0.3,-9.6,-22.3
48.8727,5572.1564,0.10513911352977577,0.11803896889352876,0.038404322935603474,-0.28637,0.06311,-0.06838,-0.3,-9.6,-22.3
48.898,5572.1764,0.10858812730939052,0.04385282108669673,0.07274728496180671,-0.18314,-0.03036,-0.0305,-0.4,-9.7,-22.4
48.9145,5572.1964,0.090678823530585,-0.06190103075795356,0.08565315888555425,-0.10434,-0.03769,-0.02928,-0.3,-9.6,-22.5
48.9424,5572.2165,0.062875181989185,-0.14672660146723487,0.07054491420322506,-0.10311,-0.06762,-0.10381,-0.4,-9.7,-22.6
48.9551,5572.2365,0.028147504984114082,-0.2173689894419991,0.030172875174757863,-0.15137,-0.03708,-0.15878,-0.4,-9.6,-22.6
48.9742,5572.2566,0.013773134574445482,-0.24106075118392994,-0.024355233756795158,-0.21002,0.15229,-0.13862,-0.4,-9.5,-22.7
48.9938,5572.2767,0.009781293619556906,-0.23433053687325092,-0.07953641954610369,-0.21429,0.29585,-0.07204,-0.5,-9.5,-22.6
49.0112,5572.2967,0.003418260189909657,-0.21481245955636516,-0.1239320860574562,-0.20452,0.2317,-0.04272,-0.5,-9.5,-22.7
49.0411,5572.3168,-0.002960751012088714,-0.17392388879296217,-0.1507598379791073,-0.09517,-0.11038,-0.03478,-0.5,-9.4,-22.6
49.0574,5572.3368,0.015000175323893632,-0.1370522984601072,-0.16012032686718136,0.03983,-0.36083,0.01776,-0.5,-9.4,-22.6
49.0722,5572.3569,0.060389836727359675,-0.096949479449922,-0.1567510010994262,0.02578,0.06311,0.15215,-0.5,-9.3,-22.7
49.0939,5572.377,0.11684239805757363,-0.06780451418801811,-0.14880763795998853,-0.03348,0.22865,0.07212,-0.5,-9.2,-22.7
49.1114,5572.397,0.16333935762588309,-0.051298628285219396,-0.14458233568069545,0.14917,-0.20262,-0.07448,-0.4,-9.1,-22.7
49.1379,5572.4171,0.17522556895215075,-0.05547042628699325,-0.15044158273371266,0.13634,-0.12076,-0.036,-0.5,-9.1,-22.8
49.1603,5572.4371,0.15690829199765804,-0.05621600620182731,-0.1701633530269291,0.02944,-0.16414,0.03364,-0.5,-9.0,-22.8
49.1739,5572.4572,0.12724640895034603,-0.05506453764996762,-0.20469834039807466,-0.0402,-0.04685,0.0428,-0.5,-9.0,-22.9
49.1919,5572.4773,0.09010024673760936,-0.05422664208725739,-0.2514316880155949,-0.03287,0.02645,0.02875,-0.5,-8.9,-22.8
49.2153,5572.4974,0.05422916660389605,-0.057455755406101046,-0.3044499514904153,0.1168,-0.14459,0.04952,-0.6,-8.9,-22.8
49.2432,5572.5175,0.030449359153533844,-0.051991675189925514,-0.3545243366183559,0.25607,-0.24477,0.06235,-0.5,-8.9,-22.8
49.2546,5572.5376,0.047974310738287895,-0.0007031270293327822,-0.3907944268967274,0.05021,-0.00959,0.0709,-0.5,-8.9,-22.8
49.2742,5572.5577,0.07900544595243893,0.06663985162655721,-0.40426081533760083,-0.11716,0.02951,0.03792,-0.6,-8.9,-22.8
49.2939,5572.5778,0.11819517838730029,0.12714637404259221,-0.3900933421930368,-0.10067,-0.08595,0.00248,-0.5,-8.8,-22.8
49.322,5572.5978,0.1499973842502992,0.1600575287637738,-0.34874722615100495,-0.00904,-0.15986,-0.00179,-0.5,-8.8,-22.7
49.3415,5572.6179,0.17400135397642047,0.1491865307305164,-0.2859346018887905,-0.02248,-0.08533,-0.02012,-0.6,-8.8,-22.9
49.3687,5572.638,0.1825357736387427,0.11332771382783172,-0.2112323982408384,-0.07746,0.01668,-0.04028,-0.6,-8.8,-22.9
49.3744,5572.658,0.17201319955637015,0.041415660308830746,-0.13503517173187163,-0.12327,-0.00837,-0.01523,-0.7,-8.8,-23.0
49.3943,5572.6781,0.14726420472157536,-0.03026557857173258,-0.06754058787420192,-0.10067,-0.0047,-0.01218,-0.8,-8.8,-23.1
49.4131,5572.6982,0.11362123388888466,-0.10035706476373604,-0.016343112101012025,0.01295,-0.06701,-0.08243,-0.8,-8.8,-23.1
49.435,5572.7182,0.08154259815821076,-0.14919714812739523,0.01411330680071643,0.01112,0.07838,-0.07693,-0.8,-8.8,-23.0
49.457,5572.7383,0.050288671582077234,-0.1667240131230781,0.02305982310396182,-0.05363,0.09059,-0.01645,-0.9,-8.8,-23.0
49.4752,5572.7583,0.014885108502398128,-0.15766449118592915,0.012766040221109165,-0.00782,0.01851,-0.02561,-0.9,-8.8,-22.8
49.495,5572.7784,-0.020896102031837605,-0.1358695841981057,-0.011917721794114655,0.0832,-0.09999,-0.05371,-0.9,-8.8,-22.8
49.5142,5572.7985,-0.048370686781588755,-0.10945892206078511,-0.044114191263751934,0.16139,-0.21056,-0.0641,-0.9,-8.8,-22.9
49.5366,5572.8185,-0.06131747904506032,-0.08546945144988641,-0.07662828766845386,0.10824,-0.14153,-0.03539,-1.0,-8.7,-23.0
49.5563,5572.8386,-0.0619340119817892,-0.06612503858493626,-0.10384432149780487,-0.05669,0.08998,-0.00546,-1.0,-8.7,-23.0
49.5739,5572.8586,-0.06158892485056018,-0.06687439156930605,-0.12304428015349522,-0.10067,-0.02303,-0.03295,-1.0,-8.7,-23.0
49.5937,5572.8786,-0.06456759578447437,-0.09171723402007192,-0.13410384143599963,-0.03531,-0.21911,-0.07204,-1.0,-8.7,-23.1
49.6202,5572.8986,-0.06217911498171601,-0.13121130287850816,-0.13839883730300073,-0.01148,-0.16414,-0.01218,-1.0,-8.7,-23.1
49.6413,5572.9187,-0.03309810497074177,-0.1720688833383042,-0.1372962145529808,-0.04447,0.02951,0.02631,-1.0,-8.6,-23.0
49.6642,5572.9387,0.021784077027876634,-0.19623417688319358,-0.13134198187074908,-0.04692,0.3832,0.08984,-1.1,-8.6,-23.0
49.6896,5572.9587,0.0851297981831806,-0.20081741258608862,-0.12040223450524579,-0.02248,0.25125,0.08617,-1.1,-8.6,-23.0
49.7086,5572.9787,0.1357755730394958,-0.19238209304242448,-0.10417327579778579,0.00195,0.057,0.05441,-1.0,-8.6,-22.9
49.7215,5572.9988,0.17803692632821702,-0.17495938407067116,-0.08344110738839561,0.03311,-0.11404,0.00126,-1.0,-8.5,-22.9
49.7322,5573.0188,0.21452264939509322,-0.15449676333744233,-0.060665433411600134,0.02089,0.05394,-0.02256,-1.0,-8.5,-23.0
49.754,5573.0388,0.2504775966483069,-0.13604435898440967,-0.03963516651978338,-0.03836,0.16023,-0.01828,-1.0,-8.5,-23.1
49.7728,5573.0589,0.27276084166136055,-0.12509534376060566,-0.02406041877837417,-0.02309,0.13702,0.01959,-1.0,-8.5,-23.1
49.793,5573.0789,0.2806024997279264,-0.12035833473341201,-0.017202369726124545,0.06548,0.04906,0.05074,-0.9,-8.4,-23.1
49.8225,5573.099,0.28018480909713783,-0.11547972565017774,-0.02102135063006827,0.0777,-0.0047,0.00859,-0.9,-8.5,-23.0
49.8388,5573.119,0.27453083407257217,-0.09934208162839929,-0.035346449625444976,-0.01698,0.05394,-0.02684,-0.9,-8.5,-22.9
49.8566,5573.139,0.2647104883352811,-0.07962286602795855,-0.05814495366229444,-0.04508,0.07655,-0.00423,-0.9,-8.5,-23.0
49.8747,5573.159,0.2456498222554796,-0.06450856194214707,-0.08564976529105017,0.04655,0.0234,0.0147,-0.9,-8.5,-23.0
49.9024,5573.1791,0.21634117214481216,-0.060546669374750964,-0.11353334584529762,0.10702,-0.08106,-0.00973,-0.9,-8.5,-22.9
49.9153,5573.1991,0.1823907762433724,-0.05233240387076904,-0.1378996409090707,0.01906,-0.04502,-0.05066,-0.9,-8.5,-22.9
49.9496,5573.2191,0.15637465763491123,-0.03757449331127684,-0.15627270051059838,-0.08968,0.05516,-0.05921,-0.8,-8.5,-23.0
49.9586,5573.2392,0.11535897868208911,-0.04498188091135564,-0.16721913191866378,-0.08173,0.03501,-0.04455,-0.8,-8.4,-23.0
49.9745,5573.2592,0.07628599669141493,-0.06438280307720687,-0.17088612827088134,0.01112,-0.03402,-0.08059,-0.7,-8.4,-23.0
49.9975,5573.2792,0.039072390067997745,-0.1012907647114452,-0.16746756195247237,0.06915,-0.08289,-0.08792,-0.8,-8.5,-23.0
50.0155,5573.2992,0.009482072833007308,-0.13676139298866866,-0.15680922667603525,0.06487,-0.05235,-0.04638,-0.8,-8.5,-23.1
50.0484,5573.3193,8.445562140333973e-05,-0.16312109611070535,-0.13903287664205521,0.02272,-0.02975,-0.05433,-0.8,-8.5,-23.2
50.0579,5573.3393,-0.0016809641097561175,-0.17857012948368525,-0.1157685672986215,-0.04753,0.03317,-0.04516,-0.8,-8.5,-23.1
50.0731,5573.3593,0.008940892032202441,-0.18749064676772237,-0.09085963092997318,-0.06219,0.02401,-0.06838,-0.8,-8.5,-23.1
50.0931,5573.3793,0.023247117801817364,-0.1980200262330633,-0.06953618860345578,0.01234,0.00141,-0.0641,-0.9,-8.6,-23.2
50.1152,5573.3994,0.03758566474705237,-0.20832669819329608,-0.056175933212847085,0.12168,-0.0328,-0.03417,-0.9,-8.5,-23.3
50.1363,5573.4194,0.05776321492765857,-0.20296501091361405,-0.052241815626169696,0.10458,-0.01814,-0.00607,-0.9,-8.5,-23.3
50.1605,5573.4394,0.08921330437088275,-0.17788457547678826,-0.056081212067855546,0.01478,0.1132,0.02448,-0.9,-8.5,-23.4
50.1839,5573.4595,0.12484606561675579,-0.13939601444920116,-0.06366430012648117,0.00012,0.13702,0.03914,-0.8,-8.5,-23.5
50.1989,5573.4795,0.15592485521439456,-0.10093901632207511,-0.0702636385457307,0.05205,0.06921,0.05441,-0.8,-8.6,-23.5
50.2165,5573.4995,0.17962245872584212,-0.0757948817395234,-0.07234916705268368,0.10336,-0.07556,0.05197,-0.8,-8.6,-23.5
50.2375,5573.5195,0.19766143321393467,-0.06682364169385145,-0.06891112558287027,0.04105,-0.11282,0.02142,-0.8,-8.6,-23.5
50.2555,5573.5396,0.21569219050041055,-0.06986703426827993,-0.06176124752967205,-0.00965,0.00752,-0.01767,-0.8,-8.6,-23.6
50.2751,5573.5596,0.22758264498443745,-0.08530581435196345,-0.05429287799374727,0.03311,0.08265,-0.03722,-0.8,-8.6,-23.6
50.2961,5573.5796,0.22477359443501163,-0.10948720212286304,-0.04997598267218173,0.027,0.05516,-0.0134,-0.8,-8.6,-23.6
50.3131,5573.5997,0.2029005133730868,-0.1349765259795627,-0.05100917371616376,0.03128,-0.01447,-0.00179,-0.8,-8.6,-23.5
50.3357,5573.6197,0.17046625619690656,-0.15848800756970785,-0.05777774869851804,0.01845,-0.04929,-0.025,-0.7,-8.6,-23.3
50.3706,5573.6397,0.13662028171812637,-0.18094381654985103,-0.06871818599432089,-0.01148,0.01607,-0.01523,-0.7,-8.7,-23.3
50.3851,5573.6597,0.10445286284591856,-0.1970615431111086,-0.08106635528321604,0.04105,-0.01814,-0.04394,-0.6,-8.7,-23.3
50.4048,5573.6797,0.07676368546032784,-0.21168842523448556,-0.0926374155523444,0.05143,-0.0273,-0.01401,-0.6,-8.7,-23.3
50.4209,5573.6997,0.05757412720669892,-0.21812002183578805,-0.10236732213121158,0.02089,-0.06151,0.01959,-0.7,-8.7,-23.1
50.4395,5573.7197,0.05000612424066322,-0.21534844905695014,-0.110714160221276,0.01051,-0.01631,0.00554,-0.6,-8.7,-23.1
50.4543,5573.7398,0.05424091847365961,-0.2047190466686564,-0.11873499242644314,-0.02004,0.05944,0.01226,-0.6,-8.7,-23.0
50.4755,5573.7598,0.06433499835043008,-0.19193900883363516,-0.1267385663757601,0.04716,0.02523,0.01959,-0.6,-8.7,-23.0
50.4983,5573.7798,0.07466685500146049,-0.17870814927060308,-0.1331321216222232,0.08564,-0.03952,0.05197,-0.7,-8.7,-22.9
50.5149,5573.7998,0.08930128358262222,-0.15826645840375356,-0.1346369175434905,0.04716,-0.04257,0.05074,-0.7,-8.7,-22.9
50.5374,5573.8199,0.10505814555265207,-0.13685269475135542,-0.12800241977285864,0.01906,-0.01325,0.01287,-0.7,-8.8,-22.8
50.5561,5573.8399,0.12432920217568426,-0.11889314766041595,-0.11173917104335551,-0.00782,-0.00409,-0.00179,-0.7,-8.7,-22.6
50.5813,5573.8599,0.14042097127578787,-0.11379154811312023,-0.08742422495183533,-0.03592,0.01118,0.02875,-0.7,-8.8,-22.6
50.5955,5573.88,0.14992102110648667,-0.12582180823632486,-0.059804380522555434,0.02395,-0.01325,0.00676,-0.7,-8.7,-22.6
50.6141,5573.9,0.15156239271427385,-0.14994472730606634,-0.03555550664980345,0.07281,-0.04685,-0.01218,-0.7,-8.7,-22.5
50.6376,5573.92,0.1501538744903115,-0.1744282678167737,-0.02131106016852513,0.0496,-0.01936,0.01531,-0.8,-8.7,-22.6
50.6561,5573.94,0.15100564185775314,-0.18749796330065155,-0.021621555565584316,-0.00721,0.02035,0.02081,-0.8,-8.7,-22.7
50.6952,5573.9601,0.15787103637414313,-0.19480745219970283,-0.03793747468876596,-0.00171,0.03684,-0.03356,-0.8,-8.7,-22.6
50.7009,5573.9801,0.14967307500927549,-0.18921949985898023,-0.06721234708855484,0.04655,0.0008,-0.05616,-0.8,-8.7,-22.5
50.7233,5574.0001,0.134603877652622,-0.19033094209159754,-0.10407315401950079,0.11435,-0.06823,-0.01218,-0.8,-8.7,-22.6
50.7375,5574.0202,0.11943685335030377,-0.18044070564469084,-0.14062577972611834,0.06365,-0.03524,0.03303,-0.8,-8.7,-22.6
50.756,5574.0402,0.10975718264709433,-0.16819093844055227,-0.169909635030983,0.01356,0.01057,0.00737,-0.9,-8.8,-22.7
50.776,5574.0602,0.10862502612259278,-0.15560410361592658,-0.18730821873960402,0.00684,0.05089,-0.0415,-0.9,-8.8,-22.6
50.7949,5574.0802,0.1093132143626636,-0.14990382453358914,-0.1917958958680348,-0.00477,0.05211,-0.00912,-0.8,-8.8,-22.7
50.8143,5574.1003,0.10721243860421051,-0.1538869589008323,-0.18565370978709161,0.00745,-0.0273,0.02448,-0.9,-8.8,-22.7
50.8377,5574.1203,0.10296661079993662,-0.16427333495840968,-0.17309406957891582,0.05571,-0.0554,0.04647,-0.9,-8.8,-22.8
50.8532,5574.1403,0.10872274068379896,-0.16742361594199012,-0.15836888359505252,0.0606,-0.02547,0.02631,-0.9,-8.9,-22.9
50.8762,5574.1604,0.1211597693351236,-0.1636502068034215,-0.14445160515374766,0.00012,0.05333,0.02509,-0.9,-8.9,-22.8
50.8989,5574.1804,0.1373963393460174,-0.1535432296093999,-0.13250376968865396,0.0044,0.02279,0.01531,-0.8,-8.9,-22.7
50.9161,5574.2004,0.1511013860274612,-0.14355130400542818,-0.12231820203830424,0.02456,-0.01997,0.01104,-0.9,-8.9,-22.7
50.9418,5574.2204,0.1588059450585834,-0.14192612762169396,-0.11325683545806875,0.05143,-0.05235,0.01043,-0.9,-9.0,-22.8
50.9706,5574.2405,0.16589478232683283,-0.1454682175710891,-0.10516693824197176,0.04594,-0.03952,0.00676,-1.0,-9.0,-22.7
50.9799,5574.2605,0.17956602130267862,-0.14966858140306255,-0.09902943040146184,-0.02004,-0.00837,0.01043,-1.0,-9.1,-22.7
51.0133,5574.2805,0.19179512217394776,-0.1544742903668618,-0.09666529198280749,-0.03164,0.02157,0.00432,-1.0,-9.1,-22.7
51.0234,5574.3006,0.19880334837549324,-0.16892496668315943,-0.10034456775504985,-0.00843,0.01302,0.00737,-1.0,-9.1,-22.7
51.0346,5574.3206,0.197067209029625,-0.18366057180188416,-0.11095175796225121,0.00318,-0.0157,0.01287,-1.0,-9.1,-22.6
51.0569,5574.3405,0.1872632757646504,-0.19390054271018597,-0.12710707054033676,-0.00232,-0.01814,-0.0134,-1.0,-9.1,-22.5
51.0893,5574.3605,0.17614068615137132,-0.19391065731800425,-0.14459857888173744,0.02517,0.04845,-0.03356,-0.9,-9.1,-22.4
51.094,5574.3805,0.14845292442410074,-0.17870683316590177,-0.15680204971219602,0.00501,0.06738,-0.01095,-0.9,-9.0,-22.4
51.1152,5574.4005,0.12334648367306685,-0.155364081918812,-0.15808049694574144,-0.02004,0.05211,0.01776,-0.9,-9.0,-22.3
51.1371,5574.4205,0.09588524509591681,-0.13120771450558041,-0.1450276260369403,0.03189,0.00263,0.01043,-0.9,-9.0,-22.3
51.1528,5574.4405,0.07702604080611616,-0.11150732984550762,-0.11877366120370603,0.01845,-0.04441,0.0257,-0.9,-9.0,-22.2
51.1733,5574.4605,0.071362207931374,-0.10139094714271049,-0.0847382938134622,0.00745,-0.04929,0.04097,-0.9,-9.0,-22.2
51.1946,5574.4805,0.08536203318303034,-0.10132138702334871,-0.05094091223392638,0.0215,0.00568,0.01653,-0.9,-9.0,-22.3
51.2157,5574.5005,0.11360785268265898,-0.11307780413030533,-0.025134037237082296,0.00073,0.01607,-0.02378,-0.9,-9.0,-22.3
51.2478,5574.5205,0.14568860362446784,-0.14000031078843325,-0.012074083812875003,-0.00904,0.03012,-0.02561,-0.9,-9.0,-22.3
51.264,5574.5405,0.1644285525078274,-0.175375963748729,-0.011830991102399935,0.02395,-0.01386,-0.00912,-0.9,-9.0,-22.4
51.2798,5574.5605,0.17029538974050618,-0.21482692142630405,-0.020827616878044353,0.05876,-0.0664,-0.01523,-0.8,-9.0,-22.3
51.2955,5574.5805,0.16548275372144164,-0.2516005913685557,-0.03372248051537774,0.00501,-0.05418,-0.02623,-0.9,-9.0,-22.3
51.3151,5574.6005,0.15391664622954734,-0.2821675918417007,-0.04610963602737783,-0.05241,0.00202,-0.04516,-0.9,-9.0,-22.3
51.3382,5574.6205,0.138699878763558,-0.30782798074417184,-0.05634018854825662,-0.01943,0.02829,-0.04028,-0.9,-9.0,-22.4
51.3538,5574.6405,0.1181202220279071,-0.32423424976075715,-0.06529397799005388,0.0661,-0.00226,-0.02134,-0.9,-8.9,-22.3
51.3759,5574.6605,0.10123179353314507,-0.32744522586940245,-0.0753725528013689,0.0832,0.02401,-0.01218,-0.9,-9.0,-22.3
51.3943,5574.6805,0.08904136192207204,-0.3069724580353133,-0.08816527195901891,0.00318,0.08265,0.01715,-0.9,-9.0,-22.2
51.4153,5574.7005,0.08464327888405955,-0.26847137017708733,-0.10405507526748359,-0.02004,0.07288,0.02814,-0.9,-9.1,-22.3
51.4418,5574.7205,0.08706470361040326,-0.22335081128291545,-0.12135796840136237,0.027,0.0289,0.02631,-0.9,-9.1,-22.3
51.4596,5574.7404,0.09883557556792735,-0.18036450158421893,-0.13665510246941182,0.04899,-0.04257,0.00982,-0.9,-9.1,-22.4
51.4747,5574.7604,0.12058022540265076,-0.1451859141629067,-0.14601214616498837,0.01784,-0.01447,0.0147,-0.8,-9.2,-22.3
51.4964,5574.7804,0.14892644922070125,-0.12259181600221605,-0.14645330234230158,0.01539,0.046,0.02264,-0.9,-9.1,-22.2
51.5144,5574.8004,0.17898993066837326,-0.11235310336937684,-0.13710158464671984,0.0099,0.00263,0.0312,-0.9,-9.1,-22.3
51.5348,5574.8204,0.203404697778767,-0.11565968006029272,-0.11982029200984279,-0.00721,-0.0273,0.03242,-0.9,-9.1,-22.2
51.5555,5574.8404,0.22081962153324688,-0.12910838837165048,-0.09910684937293368,0.02822,-0.07373,0.02631,-0.9,-9.1,-22.1
51.574,5574.8604,0.23398334347893956,-0.14637656109231478,-0.08104225364486517,0.0099,-0.05113,0.02692,-0.9,-9.1,-22.1
51.5955,5574.8804,0.24098975247607687,-0.16258815216848302,-0.07131892655921845,-0.01026,0.00385,-0.00973,-0.9,-9.1,-22.1
51.6181,5574.9004,0.23774632488795952,-0.17611849623047224,-0.07329424706696841,0.00501,0.02462,-0.03111,-0.9,-9.1,-22.2
51.6496,5574.9204,0.2198927890884851,-0.1889897505777807,-0.0866755730616422,0.02822,-0.00042,-0.03417,-0.9,-9.2,-22.2
51.6595,5574.9404,0.1842982345472613,-0.19189571904713681,-0.10728394307330014,0.03433,-0.04013,-0.01828,-0.9,-9.2,-22.2
51.676,5574.9604,0.14325148425453146,-0.19226899894414762,-0.1293622002233299,0.01356,-0.01692,-0.02256,-0.9,-9.2,-22.3
51.6939,5574.9804,0.10577486090971029,-0.1915014096602621,-0.1470140164913083,-0.0463,0.02706,-0.02561,-0.9,-9.1,-22.3
51.7138,5575.0004,0.07655508547383383,-0.19490098130682781,-0.15660434204594864,-0.02798,0.0686,-0.04272,-0.9,-9.1,-22.4
51.7428,5575.0204,0.05685322552254321,-0.20631429043074173,-0.157771125494655,-0.00415,0.03501,-0.01951,-1.0,-9.1,-22.3
51.7542,5575.0404,0.0413299675653909,-0.22463469141889206,-0.15300202857816814,0.0099,-0.04441,-0.01401,-0.9,-9.1,-22.2
51.7729,5575.0604,0.038329853448370164,-0.24294801567744578,-0.1462933212471107,0.00806,-0.03463,0.00248,-1.0,-9.0,-22.3
51.7947,5575.0804,0.052158769710639194,-0.25294597048041845,-0.14144174194588466,0.01723,-0.02058,0.00371,-1.0,-9.1,-22.4
51.8154,5575.1004,0.08215420702791713,-0.25173351092416646,-0.1409300752646896,-0.0237,0.05333,0.01531,-1.0,-9.1,-22.3
51.8373,5575.1204,0.12047792460028502,-0.24176587027801943,-0.14512242982032397,-0.03164,0.03867,0.02631,-1.0,-9.1,-22.4
51.8589,5575.1404,0.15871018222926567,-0.2265770644669263,-0.1519741004755133,0.02883,-0.02669,0.01837,-1.0,-9.1,-22.5
51.8739,5575.1603,0.19389772143644696,-0.2056163497344691,-0.15760357046465678,0.03311,0.00202,0.03364,-1.0,-9.1,-22.5
51.8956,5575.1803,0.22146302812261587,-0.18119951987031535,-0.157699063392716,-0.00049,0.01973,0.0202,-1.0,-9.1,-22.5
51.9167,5575.2003,0.24057579081969865,-0.1563558521324922,-0.14916831865191682,-0.04753,0.0234,-0.00362,-1.0,-9.1,-22.5
51.9424,5575.2203,0.2501487396805087,-0.13758501436352294,-0.13133569946830015,-0.02187,0.07044,-0.00973,-1.0,-9.1,-22.4
51.9577,5575.2403,0.24457081860365834,-0.13518044273135463,-0.10612025248816082,0.00379,0.04478,-0.02256,-1.0,-9.0,-22.5
51.9837,5575.2603,0.23815694720255412,-0.1482131862010105,-0.07781966542028051,-0.00538,0.0179,-0.03172,-1.0,-9.1,-22.7
52.0059,5575.2803,0.2288051572855602,-0.17293456841584967,-0.051022250924962265,0.00195,0.03134,-0.06593,-1.0,-9.1,-22.7
52.0312,5575.3003,0.22364214760302847,-0.20331341868278544,-0.029931381608507834,0.05388,0.06494,-0.07265,-1.0,-9.0,-22.7
52.0385,5575.3203,0.2154105002080677,-0.23130138121542834,-0.01696226047088345,-0.01087,-0.03158,-0.03539,-0.9,-9.1,-22.8
52.0764,5575.3403,0.22047639951749662,-0.2582650657062956,-0.013675418433130915,-0.01148,-0.0157,-0.02073,-0.9,-9.1,-22.9
52.0824,5575.3603,0.22926330529205483,-0.27894827113862297,-0.019544513590391333,0.02639,-0.01386,-0.03111,-0.9,-9.1,-22.9
52.1,5575.3803,0.2436573060447782,-0.29673570671900357,-0.03353813879071943,0.03616,-0.01692,-0.04394,-0.9,-9.1,-22.8
52.115,5575.4003,0.2525943766906076,-0.3086350688175073,-0.053495260031205305,0.00318,0.02096,-0.04394,-0.9,-9.1,-22.9
52.1357,5575.4203,0.2497340610770296,-0.31573801406197727,-0.07715815862536246,0.01295,-0.01997,-0.05555,-0.9,-9.1,-22.9
52.1548,5575.4403,0.22860907647470013,-0.3163329150652047,-0.10214310103058111,0.01478,-0.01997,-0.04577,-0.9,-9.1,-22.8
52.1729,5575.4603,0.19214591483485483,-0.31129574036934216,-0.12645028316325657,-0.0182,0.01485,-0.02928,-0.9,-9.1,-22.9
52.1965,5575.4803,0.14958586772448249,-0.3008203097043545,-0.14805937205280806,-0.03225,0.04661,-0.03233,-0.8,-9.1,-22.8
52.2158,5575.5003,0.10284886841524259,-0.2874895802643091,-0.16454894192366964,0.00562,0.03012,-0.03661,-0.8,-9.1,-22.9
52.2415,5575.5203,0.06060340228861536,-0.2729487385938848,-0.17330399180887568,0.03311,-0.01386,-0.01034,-0.8,-9.1,-23.0
52.2559,5575.5403,0.034901797509376116,-0.25460028676229074,-0.1717656509074299,0.03372,-0.05968,0.04952,-0.8,-9.2,-23.0
52.2865,5575.5603,0.015377204255251268,-0.24522717498386648,-0.15874643295321356,0.02883,-0.089,0.0874,-0.8,-9.1,-22.9
52.2976,5575.5802,0.04346268448024623,-0.23039562141597295,-0.13449452166703324,0.07709,-0.07006,0.08801,-0.9,-9.2,-22.9
52.3133,5575.6002,0.08632067409294582,-0.22374065320532496,-0.10247999123935791,0.03616,-0.08656,0.09961,-0.9,-9.2,-22.9
52.3347,5575.6202,0.13386584002250018,-0.22505990766547437,-0.06825970006009818,-0.03348,-0.12443,0.08006,-0.9,-9.2,-22.8
52.3549,5575.6402,0.18418389935975507,-0.2355926041440744,-0.03896926843628101,-0.02065,-0.06823,0.02264,-0.9,-9.2,-22.9
52.3828,5575.6602,0.22474300865033114,-0.2536634174729389,-0.02121303517755102,0.01173,-0.02303,-0.0024,-1.0,-9.2,-23.0
52.3972,5575.6802,0.24780665007944355,-0.2767816044380773,-0.019256439973119654,-0.00782,0.01118,-0.01828,-1.0,-9.2,-22.8
52.4152,5575.7002,0.2501972119783063,-0.2973312163837601,-0.03352647537100317,-0.00232,0.03501,-0.03844,-1.0,-9.2,-22.7
52.4424,5575.7202,0.2367362392685416,-0.31082542754839465,-0.060730290593946634,0.01784,0.02218,-0.03417,-1.0,-9.2,-22.7
52.4573,5575.7402,0.20747088851900972,-0.312902552791497,-0.09456269510217652,0.00562,0.01546,-0.01951,-1.0,-9.2,-22.8
52.4761,5575.7602,0.17753994614315252,-0.30607136217756176,-0.12827680553870557,-0.00965,0.00996,-0.01584,-0.9,-9.2,-22.8
52.504,5575.7802,0.15511288514231655,-0.2944767716448453,-0.1558342981147529,-0.01087,0.02462,-0.02378,-0.9,-9.2,-22.7
52.5243,5575.8002,0.1369933127428332,-0.2837351712612074,-0.17313454594486188,-0.00354,0.05028,-0.01584,-0.9,-9.2,-22.7
52.5353,5575.8202,0.12319030783672441,-0.2730454299039447,-0.17839689293435335,0.03616,-0.00226,-0.01706,-0.9,-9.2,-22.7
52.564,5575.8402,0.11785361018947539,-0.26520954214793563,-0.17212510414141846,0.01295,-0.01814,-0.01095,-0.9,-9.2,-22.7
52.5762,5575.8602,0.11787482119297485,-0.25675436063255336,-0.15612139124162816,-0.01026,0.00324,-0.00729,-0.8,-9.2,-22.5
52.5938,5575.8802,0.12467699574638556,-0.25002815967141917,-0.13342051282962863,-0.03958,0.03989,0.01226,-0.8,-9.2,-22.6
52.6157,5575.9002,0.13501818985840927,-0.2482069505907786,-0.10749517041995027,-0.01943,0.03623,0.02081,-0.8,-9.2,-22.6
52.6388,5575.9202,0.14734680265254207,-0.25331153341497625,-0.08172976854614156,0.0215,-0.0499,0.0147,-0.7,-9.2,-22.7
52.6647,5575.9402,0.1636131318388891,-0.2624209715001002,-0.058812353783080695,0.01356,-0.00837,0.02936,-0.7,-9.1,-22.7
52.6763,5575.9602,0.18499884724580212,-0.26904045930631554,-0.04031207894111155,0.0044,0.02218,0.00615,-0.6,-9.1,-22.7
52.6943,5575.9801,0.20657926076821156,-0.2743772901945937,-0.02682682569731476,-0.00415,0.08815,-0.01156,-0.6,-9.1,-22.8
52.7127,5576.0001,0.21958707122910312,-0.2791590105699453,-0.01812999884050548,0.00073,0.04845,-0.02317,-0.5,-9.1,-22.8
52.7365,5576.0201,0.21999456292457265,-0.28542791522765254,-0.014032778302313531,0.00562,0.02584,-0.01156,-0.6,-9.1,-22.9
52.756,5576.0401,0.20622379471365354,-0.29460704168846497,-0.014858404053699203,-0.00293,0.01973,-0.00851,-0.6,-9.1,-22.9
52.7779,5576.0601,0.18770911607924548,-0.30586055658704964,-0.021649351419307905,-0.00049,0.00813,-0.03722,-0.6,-9.1,-22.9
52.8117,5576.0801,0.1768092018270902,-0.3184815765731809,-0.03549456943292029,0.02578,0.0289,-0.04089,-0.6,-9.1,-23.0
52.8176,5576.1001,0.15610536466299982,-0.3187937707004831,-0.055689626112558344,0.04594,0.07838,-0.01279,-0.6,-9.1,-22.9
52.8439,5576.1201,0.1472808218514268,-0.318150691950442,-0.08145043950130848,0.02517,0.10831,0.03792,-0.6,-9.1,-23.0
52.8552,5576.1401,0.14104633884566306,-0.3053888256890683,-0.10888416791604172,0.02456,0.05089,0.06601,-0.6,-9.1,-22.9
52.8755,5576.1601,0.13990608820163314,-0.29295570825014006,-0.1337016025343214,0.06426,-0.00287,0.02142,-0.6,-9.1,-23.1
52.8942,5576.1801,0.14751832031763504,-0.279215565978709,-0.15098745297725102,0.03738,-0.01753,4e-05,-0.6,-9.1,-23.1
52.9184,5576.2001,0.16249028046754463,-0.26889757852984303,-0.15723736898131158,0.00501,-0.03952,-0.01034,-0.6,-9.1,-23.1
52.9418,5576.2201,0.17962113981600888,-0.2654779550607175,-0.15127962075579227,0.01051,0.02218,-0.01401,-0.6,-9.1,-23.0
52.9541,5576.2401,0.1949231654944785,-0.2707464325485771,-0.13473232545249125,-0.00415,0.02706,0.02997,-0.7,-9.1,-23.0
52.9796,5576.2601,0.20309693707556276,-0.28685837069019154,-0.11157503917356948,0.03922,-0.03646,0.04097,-0.7,-9.1,-23.0
53.0051,5576.2801,0.2121932031474112,-0.3020204135578996,-0.08704025874054011,0.05693,-0.0664,0.02325,-0.7,-9.1,-23.0
53.0214,5576.3001,0.22746589903342943,-0.30927084527558774,-0.0666556923701016,-0.00232,-0.02058,-0.01095,-0.7,-9.1,-23.1
53.0401,5576.3201,0.24220376745394065,-0.31099949727672105,-0.055126160208367025,-0.0402,0.03745,0.00065,-0.6,-9.1,-22.9
53.0587,5576.3401,0.24981957914267103,-0.31190503874958175,-0.05536818191847637,0.01539,0.0405,0.02509,-0.6,-9.1,-22.8
53.0806,5576.3602,0.2460522126353097,-0.31420750544714443,-0.06765076998265052,0.09481,-0.0328,0.02509,-0.6,-9.1,-22.9
53.0974,5576.3802,0.23494552891093679,-0.30795581580487574,-0.08928172095718168,0.08076,-0.02852,0.00798,-0.6,-9.1,-22.9
53.1163,5576.4002,0.21925210949655397,-0.2944601725951976,-0.11578526396925426,-0.01943,-0.00103,4e-05,-0.6,-9.2,-22.9
53.1338,5576.4202,0.200754505546657,-0.27885488740440323,-0.14193501098678674,-0.03775,0.01424,-0.00179,-0.6,-9.2,-22.8
53.1539,5576.4403,0.1784060053947614,-0.270312546423528,-0.16297877423190954,0.00318,-0.01081,-0.01584,-0.5,-9.1,-22.8
53.1747,5576.4603,0.15205984221444344,-0.27356474148530263,-0.17533773760443694,0.05266,-0.05113,-0.02256,-0.6,-9.2,-22.8
53.1936,5576.4803,0.12712684163637122,-0.2844110262908967,-0.17696486296603098,0.02333,-0.04807,0.00554,-0.6,-9.2,-22.9
53.2158,5576.5004,0.10953449197341293,-0.2988456177394946,-0.16759895264651625,-0.01637,-0.00714,0.02631,-0.6,-9.2,-22.9
53.2428,5576.5204,0.10339587532797884,-0.31458220015121874,-0.14877036830578483,-0.00965,-0.00165,0.00554,-0.6,-9.2,-22.9
53.2622,5576.5404,0.10709251493688422,-0.3357824761055768,-0.12375341357579828,-0.02065,0.0124,0.00248,-0.6,-9.2,-23.1
53.2821,5576.5604,0.11688961098295104,-0.359657658143012,-0.09672970197334863,0.01723,-0.05601,0.0092,-0.6,-9.2,-23.1
53.2957,5576.5805,0.13726190446554615,-0.37805247392936575,-0.07222866438029207,0.02333,-0.04685,0.04341,-0.6,-9.2,-23.1
53.3142,5576.6005,0.1662318292639784,-0.38500205872256466,-0.054418662412366814,0.03005,0.00019,0.06052,-0.7,-9.3,-23.1
53.3375,5576.6205,0.20699885143845823,-0.3756413114619347,-0.04639539069130372,0.03311,0.0741,0.02325,-0.7,-9.3,-23.1
53.3561,5576.6406,0.24987460794070898,-0.3492447438382953,-0.04920586513145331,0.02089,0.12786,0.01226,-0.7,-9.2,-23.2
53.3795,5576.6606,0.2853031131155992,-0.3160010952918029,-0.061744441702241915,0.04227,0.06127,-0.00851,-0.6,-9.2,-23.2
53.3953,5576.6806,0.30155461315174825,-0.2783880808338634,-0.08015719423159773,0.06121,0.00446,-0.00057,-0.6,-9.3,-23.3
53.4193,5576.7006,0.30204274525645325,-0.25004435391307167,-0.09993043282135616,0.04105,-0.00592,0.00432,-0.6,-9.3,-23.3
53.4437,5576.7207,0.2913059638995489,-0.23050447512120842,-0.11609000725665553,0.01417,0.03073,-0.01279,-0.6,-9.3,-23.3
53.4617,5576.7407,0.27004525485414427,-0.22606566344818751,-0.1249580379910924,-0.02615,0.04417,-0.02439,-0.7,-9.3,-23.2
53.4794,5576.7607,0.24055871224424705,-0.24058814321127428,-0.1250423032760608,-0.05425,0.05944,-0.036,-0.7,-9.3,-23.2
53.4971,5576.7807,0.20638140876381048,-0.2717756687471138,-0.11729341312584474,-0.0402,0.04356,-0.02256,-0.6,-9.3,-23.2
53.5159,5576.8008,0.17462345855765418,-0.3103060548290641,-0.10460753274147905,0.0044,0.05455,-0.0305,-0.6,-9.3,-23.3
53.5376,5576.8208,0.1523315334740901,-0.3437236961907618,-0.09063851213874763,-0.01026,0.0686,-0.02989,-0.6,-9.3,-23.2
53.5558,5576.8408,0.13687689011312865,-0.3645085286654775,-0.0786896893916591,-0.05058,0.11136,0.00126,-0.6,-9.3,-23.0
53.5773,5576.8609,0.12999611260155755,-0.3702051896604306,-0.07113821343967963,-0.01087,0.05333,0.00737,-0.6,-9.2,-23.1
53.6032,5576.8809,0.13042112553137952,-0.36613226255299064,-0.06909916357878565,0.03922,-0.04074,0.02509,-0.5,-9.2,-23.1
53.6148,5576.9009,0.14647469484224215,-0.3517489414890485,-0.07227121883183862,0.03311,-0.03463,0.04402,-0.5,-9.2,-22.9
53.6378,5576.9209,0.17115966502938565,-0.33959055662807747,-0.07978009464735791,0.04227,0.06616,0.01898,-0.5,-9.2,-23.0
53.6553,5576.9409,0.1972366985583911,-0.3240605489732854,-0.08969023812421462,0.05327,0.09915,0.02814,-0.5,-9.2,-23.1
53.6737,5576.9609,0.21466190072056116,-0.31076568886437667,-0.10035266427563094,0.04166,-0.00714,0.00432,-0.5,-9.2,-22.9
53.6983,5576.9809,0.21950960875058706,-0.3027746198244008,-0.1103292517684995,0.00257,-0.05723,0.00493,-0.5,-9.2,-23.0
53.7193,5577.0009,0.21747156227434275,-0.3014917082520822,-0.11864945213342715,-0.00843,-0.01325,0.00493,-0.4,-9.2,-22.8
53.7447,5577.0209,0.21372039580275176,-0.3084024549406596,-0.12453759834073352,0.04349,0.06738,-0.00729,-0.4,-9.2,-22.9
53.7542,5577.0409,0.2053817506798719,-0.31350529209379135,-0.12671667546952037,0.04105,0.05516,-0.00118,-0.3,-9.2,-22.9
53.7752,5577.0609,0.19651663874149794,-0.3202480034758422,-0.12455540010073918,0.01967,-0.03219,0.02692,-0.3,-9.2,-22.9
53.794,5577.0809,0.19195342296417114,-0.3220847191607827,-0.11748921800245071,0.00379,-0.06456,0.0373,-0.3,-9.1,-22.9
53.818,5577.1009,0.19503761804744765,-0.3214131103033134,-0.1060372722122569,0.00318,-0.04807,0.03792,-0.4,-9.1,-22.8
53.8518,5577.1209,0.20701980933870073,-0.32299220659863476,-0.09184534905173258,0.00806,-0.02119,0.03486,-0.4,-9.1,-22.8
53.858,5577.1409,0.23563439402755085,-0.3279608088858,-0.07758367571168634,-0.00171,-0.01203,0.0202,-0.4,-9.1,-22.9
53.8811,5577.1609,0.25579768108835393,-0.3407857569039089,-0.06583816032443401,0.02822,-0.02058,0.00859,-0.5,-9.1,-22.9
53.9,5577.1809,0.2691155175628341,-0.35332363827460633,-0.05933886720615433,0.03983,-0.05418,0.0202,-0.5,-9.1,-23.1
53.914,5577.2009,0.27230812883505734,-0.36314604339095385,-0.06036993285224135,-0.00965,-0.0047,0.01287,-0.5,-9.2,-23.2
53.9371,5577.2208,0.26541829800148486,-0.37098213818641884,-0.0703636026442176,0.00867,0.08876,-0.02989,-0.6,-9.2,-23.1
53.9593,5577.2408,0.2416980400309494,-0.3810368542135521,-0.08913354094921999,-0.00232,0.05944,-0.01523,-0.6,-9.2,-23.1
53.9895,5577.2608,0.2012369826936104,-0.39733629906772805,-0.1148330864990399,0.04166,-0.01386,-0.0024,-0.5,-9.2,-23.3
54.0086,5577.2808,0.15377651489024274,-0.4017144472649535,-0.14316729292570862,0.09847,-0.03036,0.02264,-0.6,-9.2,-23.2
54.0251,5577.3008,0.11483094239398706,-0.3928895352782104,-0.1694605875707449,0.03128,0.02279,0.02692,-0.6,-9.2,-23.3
54.0447,5577.3209,0.0939249588622181,-0.3735128320014871,-0.18920971050219215,-0.06585,0.1132,0.05624,-0.6,-9.2,-23.5
54.0726,5577.3409,0.09267044284692202,-0.3522852350220906,-0.19940683474302823,-0.02798,0.1358,0.0764,-0.6,-9.3,-23.5
54.0768,5577.3609,0.11022772366533597,-0.3346349138695926,-0.19878387430126487,0.0441,0.1022,0.10511,-0.6,-9.3,-23.5
54.0965,5577.3809,0.13836932367706042,-0.32555182959656287,-0.18773463410125935,0.08014,-0.05051,0.04341,-0.7,-9.3,-23.5
54.1156,5577.401,0.18190245847902023,-0.3142393356759455,-0.16769747553592573,0.03372,-0.05357,0.0257,-0.6,-9.3,-23.5
54.1363,5577.421,0.23699283052275336,-0.3005723192727644,-0.14156699086782254,-0.04814,0.03989,0.05135,-0.6,-9.3,-23.6
54.1542,5577.441,0.29375451447787143,-0.2912081339986912,-0.11317955686945425,-0.02248,0.07288,0.03425,-0.6,-9.3,-23.6
54.176,5577.4611,0.33892313479324887,-0.29060904085417105,-0.0865322808044855,0.0441,0.01668,0.00248,-0.5,-9.3,-23.6
54.1996,5577.4811,0.36545788128968604,-0.29578207914242216,-0.06534337454107586,0.03311,-0.07067,-0.00546,-0.5,-9.3,-23.5
54.2149,5577.5011,0.3766902395787637,-0.30244050000624406,-0.05281736596252351,-0.04692,-0.01508,0.00737,-0.4,-9.3,-23.4
54.2473,5577.5211,0.38208279681915686,-0.3049100364920915,-0.05081463604122938,-0.05852,0.03623,-0.03233,-0.4,-9.3,-23.4
54.2573,5577.5412,0.3642743409604942,-0.3221650272259404,-0.05885029439787992,-0.02492,0.05944,-0.06899,-0.4,-9.3,-23.3
54.2751,5577.5612,0.3383913304083433,-0.3452470608567416,-0.07471101602398811,0.01967,0.02584,-0.05799,-0.4,-9.3,-23.3
54.2953,5577.5812,0.30235418017369187,-0.36986346051048613,-0.09409582905718672,0.05082,-0.03036,-0.03783,-0.4,-9.3,-23.3
54.3204,5577.6013,0.2655116156538455,-0.3873951679183659,-0.11253252600517882,-0.00904,-0.02364,-0.00973,-0.5,-9.2,-23.3
54.3396,5577.6213,0.23700623705114496,-0.39628104064142583,-0.12667438655674523,-0.05241,0.00202,-0.025,-0.4,-9.2,-23.2
54.3815,5577.6413,0.2304831745909967,-0.39692221847486236,-0.135076052714302,-0.00782,0.0625,-0.05371,-0.4,-9.2,-23.2
54.3898,5577.6613,0.21227215344982797,-0.40080485408916544,-0.13732767155417314,0.02089,0.03195,-0.04638,-0.4,-9.2,-23.2
54.3984,5577.6814,0.19696606819636658,-0.4018143717314167,-0.13436299672235563,0.02333,-0.06395,-0.01279,-0.4,-9.3,-23.5
54.424,5577.7014,0.18171960806105966,-0.40167058429029195,-0.12712413361700214,-0.00293,-0.04441,0.01531,-0.4,-9.2,-23.4
54.4415,5577.7214,0.1763429211038991,-0.39497899275728876,-0.11633831766845404,0.00012,0.01668,-0.00057,-0.4,-9.2,-23.3
54.455,5577.7415,0.18028262937569361,-0.38594402301228925,-0.10303794047884907,-0.00477,-0.00348,-0.02623,-0.3,-9.3,-23.2
54.4749,5577.7615,0.1913934145921727,-0.3770983339847661,-0.08876048172258244,-0.00965,0.03256,-0.02561,-0.4,-9.3,-23.1
54.4989,5577.7815,0.20132083567537962,-0.37306237993769675,-0.07583644118270527,-0.00293,0.00996,0.0373,-0.4,-9.3,-23.1
54.5185,5577.8015,0.2106273147526655,-0.3688595677661634,-0.06696855233835386,0.05449,-0.04502,0.04463,-0.4,-9.3,-23.1
54.5453,5577.8216,0.21839447379839336,-0.36168507427772584,-0.06474126616551423,0.06426,-0.07739,0.01592,-0.4,-9.3,-23.2
54.5575,5577.8416,0.23362623090618764,-0.346256328939551,-0.07073963151768048,-0.01026,-0.00775,-0.00362,-0.4,-9.3,-23.2
54.5751,5577.8616,0.24459038973770528,-0.3312213604097822,-0.08462842587547037,-0.05363,0.00141,-0.02073,-0.4,-9.3,-23.2
54.5956,5577.8817,0.24485898946666687,-0.32535231034791945,-0.10384827112207695,0.01906,-0.00103,-0.01156,-0.5,-9.3,-23.3
54.6167,5577.9017,0.22961078181176856,-0.33095331522432286,-0.12386185429799923,0.08076,-0.01203,0.00065,-0.5,-9.3,-23.3
54.641,5577.9217,0.20127283104648996,-0.34266861040024166,-0.1396651332537413,0.02822,-0.02425,0.00432,-0.5,-9.3,-23.3
54.6595,5577.9417,0.16997597150313412,-0.3540315320109318,-0.14777226164365942,-0.03531,0.00996,0.01226,-0.5,-9.3,-23.3
54.6864,5577.9617,0.1430298607150041,-0.3649223985663207,-0.14765326834137937,-0.03592,-0.02975,0.0092,-0.5,-9.3,-23.4
54.6948,5577.9817,0.12570693253979406,-0.38038607794354845,-0.14195345754413147,0.00867,0.03806,0.00982,-0.5,-9.2,-23.1
54.7312,5578.0017,0.1217931315825161,-0.4002352634039814,-0.13482116191585725,0.05143,0.06311,0.01653,-0.5,-9.3,-23.1
54.7397,5578.0216,0.1292267121924933,-0.4011609604509952,-0.12899455598371468,0.03861,-0.00226,0.02509,-0.5,-9.3,-23.2
54.7541,5578.0416,0.14755103264025934,-0.39130403718880874,-0.1265364588711435,0.01234,-0.01203,0.01959,-0.5,-9.2,-23.2
54.7745,5578.0616,0.1744725151217737,-0.3710724547587822,-0.12683387919888922,-0.01576,-0.02913,0.00859,-0.5,-9.2,-23.3
54.797,5578.0816,0.20703840519609754,-0.3476169851211362,-0.1279216119560651,-0.01576,0.01363,-0.00485,-0.5,-9.2,-23.3
54.8151,5578.1017,0.23875953731977556,-0.3316523471981402,-0.12745482202943315,-0.0066,0.00263,0.00065,-0.5,-9.3,-23.3
54.839,5578.1217,0.263271427475648,-0.32742932263003216,-0.12346421874124047,-0.01882,0.0008,0.00859,-0.5,-9.2,-23.3
54.8598,5578.1417,0.2762543545589133,-0.3375226456369978,-0.11519489218689394,-0.02431,0.04417,0.01287,-0.5,-9.2,-23.2
54.8786,5578.1617,0.2769400977954521,-0.3580261645853259,-0.10307027162719429,-0.00232,0.06066,0.0031,-0.5,-9.2,-23.3
54.9061,5578.1818,0.2708064174527647,-0.38001064069827784,-0.08853382639728657,-0.00538,0.01546,-0.02989,-0.4,-9.3,-23.2
54.9235,5578.2018,0.2558762772167862,-0.40410845102112986,-0.07385831089529837,-0.04569,0.00324,-0.0415,-0.4,-9.2,-23.1
54.9414,5578.2219,0.24116472598885585,-0.4255158664051169,-0.061704893445197584,-0.06096,0.04539,-0.0189,-0.4,-9.3,-23.1
54.9614,5578.2419,0.23149002365165547,-0.4435537968725271,-0.054452510061947734,0.01906,0.05211,-0.01279,-0.4,-9.3,-23.0
54.9773,5578.262,0.2284934721666384,-0.4521759564354788,-0.05309980454444663,0.08198,0.02035,0.01104,-0.4,-9.3,-23.0
54.9998,5578.2821,0.2343273531547459,-0.45015144106168037,-0.057380122476425655,0.04838,0.00324,0.02631,-0.3,-9.2,-22.9
55.0164,5578.3021,0.25113864137644426,-0.4316346542685412,-0.06561044162823038,-0.00232,-0.01264,0.00554,-0.3,-9.2,-22.9
55.0417,5578.3222,0.2760554428474528,-0.40615651189680446,-0.07629798338263782,-0.0121,-0.01264,-0.01828,-0.3,-9.2,-22.8
55.0632,5578.3422,0.301899391733069,-0.3832099647309639,-0.08809378846596339,0.02028,0.00752,-0.01767,-0.3,-9.2,-22.8
55.0772,5578.3623,0.31625305114583235,-0.3677750513396077,-0.09978219820458101,0.03494,0.0515,-0.01462,-0.3,-9.2,-22.7
55.1017,5578.3824,0.3155824051287791,-0.3639687450205288,-0.1107292697438016,0.00318,0.00446,-0.02012,-0.3,-9.1,-22.8
55.1159,5578.4024,0.2979335186487943,-0.36478690028183963,-0.12000920661501979,0.01845,-0.0554,-0.01828,-0.4,-9.1,-22.7
55.1408,5578.4225,0.2718779249164557,-0.3704732165225149,-0.12715596977746024,0.00806,-0.03158,-0.03295,-0.4,-9.1,-22.6
55.1574,5578.4425,0.24166304358585747,-0.379427832720187,-0.13136514679554345,-0.02004,0.03562,-0.03172,-0.4,-9.1,-22.6
55.1754,5578.4626,0.21208012172892243,-0.3914619557732636,-0.13203306115929614,-0.01515,0.06372,-0.03172,-0.4,-9.1,-22.6
55.1979,5578.4827,0.18287086741857503,-0.4077329689794609,-0.12889934514631918,-0.01576,0.04417,0.00982,-0.4,-9.1,-22.6
55.2177,5578.5027,0.15526589692571102,-0.42721345983045983,-0.12218181036985243,0.02517,-0.04074,0.03547,-0.4,-9.1,-22.7
55.2445,5578.5228,0.13354786352446085,-0.4473782240887239,-0.11255904436078623,0.0496,-0.05235,0.0428,-0.4,-9.1,-22.7
55.2614,5578.5429,0.13273426420156625,-0.4594681659401846,-0.10095004477913072,0.02089,0.00019,0.0202,-0.4,-9.2,-22.7
55.2815,5578.5629,0.14687836499226403,-0.46631154160253263,-0.08889473838622486,-0.02065,-0.00165,0.00798,-0.4,-9.2,-22.7
55.2966,5578.583,0.16898490079737288,-0.46993609030845657,-0.07807833459239788,0.01295,0.02951,-0.01095,-0.4,-9.2,-22.8
55.3193,5578.603,0.191720913941147,-0.47392500541430477,-0.069992900199491,0.04777,-0.03219,0.00859,-0.4,-9.2,-22.9
55.3512,5578.6231,0.21012921078855654,-0.47720877650667565,-0.06530250163378959,0.0606,-0.04013,0.02264,-0.5,-9.2,-22.9
55.363,5578.6432,0.2380395861548642,-0.46323260186348053,-0.06359779959437262,0.027,-0.01142,0.03792,-0.4,-9.2,-23.0
55.3779,5578.6632,0.2679520517802386,-0.4430702932608089,-0.06481214080484499,0.00012,0.02645,0.01715,-0.4,-9.3,-23.0
55.408,5578.6833,0.2984212561014526,-0.4237408349842845,-0.06841728155674787,0.00806,0.03989,-0.00607,-0.4,-9.3,-22.9
55.4214,5578.7033,0.3182659874824469,-0.40712686049399555,-0.07318496492321103,0.03738,0.00996,-0.0024,-0.4,-9.3,-23.0
55.4442,5578.7233,0.32481986449373634,-0.40208247241007433,-0.07847105813906552,0.06121,-0.01447,0.01104,-0.4,-9.3,-23.0
55.4631,5578.7434,0.3177331673168919,-0.4007409179369201,-0.08337459026099303,0.04777,-0.01325,0.00493,-0.3,-9.3,-23.1
55.476,5578.7634,0.298924320739725,-0.40205319137342205,-0.08800464184105827,0.00134,0.00446,-0.01034,-0.3,-9.3,-23.0
55.4962,5578.7834,0.2710901746299881,-0.4087174208720504,-0.09340268275400021,0.00073,0.00507,-0.02745,-0.3,-9.3,-23.0
55.5186,5578.8035,0.23654348097317857,-0.42039001770543216,-0.10097157235971288,0.02211,0.00019,-0.02256,-0.3,-9.3,-23.1
55.5393,5578.8235,0.1977407971187236,-0.4349378405812372,-0.11184457040099183,0.02517,0.01118,-0.00851,-0.3,-9.3,-23.1
55.5599,5578.8434,0.16022261093472573,-0.4483066621881154,-0.12601501233350199,0.02639,0.03134,0.0092,-0.3,-9.3,-23.1
55.5823,5578.8634,0.12954257735032715,-0.45737717256850163,-0.1417461761184189,0.03616,0.00568,0.01653,-0.3,-9.4,-23.0
55.6008,5578.8834,0.11231134638152725,-0.45951458211846713,-0.15571474575428113,0.03372,-0.00837,0.03547,-0.4,-9.4,-23.0
55.6171,5578.9034,0.11319052858842885,-0.4574265845503478,-0.16423802396758802,0.02028,-0.02852,0.03914,-0.3,-9.4,-22.9
55.6419,5578.9234,0.129769387780319,-0.45645765907745817,-0.1646256237132171,0.02395,0.01179,0.04708,-0.3,-9.4,-22.9
55.6565,5578.9434,0.16647826459417692,-0.45204266362405665,-0.1560898477317867,0.03128,-0.00226,0.04952,-0.4,-9.4,-22.9
55.6818,5578.9634,0.210469620076415,-0.447779321109645,-0.14076980877765877,0.03494,0.046,0.04952,-0.5,-9.4,-22.9
55.7008,5578.9834,0.2569636726799759,-0.43669854650029427,-0.12265359110079288,0.01784,0.02829,0.03608,-0.5,-9.5,-23.0
55.7159,5579.0034,0.2987070770430305,-0.4197042895380893,-0.10693787093860507,0.00318,-0.02242,0.01959,-0.5,-9.4,-22.9
55.7398,5579.0234,0.3304064581056157,-0.40154397100200395,-0.09818772775610718,0.02089,-0.01508,0.01531,-0.5,-9.4,-23.0
55.7611,5579.0434,0.35211740525574625,-0.38316975721843266,-0.09864732936755871,0.05815,0.02218,-0.00607,-0.5,-9.4,-23.0
55.7783,5579.0634,0.3595327438763864,-0.36524679613588196,-0.10736647271885502,0.03861,0.03806,-0.0305,-0.5,-9.4,-23.1
55.7997,5579.0834,0.35257568539410833,-0.3531385093877864,-0.12109376623465629,0.01723,0.0124,-0.02928,-0.6,-9.5,-23.2
55.8175,5579.1034,0.3307010352522014,-0.3497091063577361,-0.13529237851162712,0.00318,-0.01692,-0.01828,-0.5,-9.4,-23.1
55.8386,5579.1234,0.3005998188643756,-0.3606773627480465,-0.14647862436566506,-0.0402,-0.01447,-0.01706,-0.5,-9.4,-23.0
55.8558,5579.1434,0.26629838568006015,-0.39095340323277733,-0.15316642429853644,-0.02492,0.00446,-0.04761,-0.5,-9.5,-23.1
55.8783,5579.1634,0.23373323327681939,-0.4352629508780309,-0.1560246203876261,0.01784,-0.01386,-0.05921,-0.5,-9.5,-23.1
55.8965,5579.1834,0.20467512608644872,-0.47938793970357724,-0.15679847756110377,0.03738,-0.02364,-0.01401,-0.5,-9.5,-23.1
55.9188,5579.2034,0.18598632589597042,-0.5091886174484141,-0.15732842312205086,0.01661,0.01668,0.01531,-0.5,-9.5,-23.3
55.9445,5579.2234,0.18200707421939064,-0.5145970103047597,-0.15824610222432156,-0.0237,0.05089,0.03608,-0.5,-9.5,-23.2
55.9573,5579.2434,0.19377996271345418,-0.5013806509337627,-0.15905076564505904,-0.02615,0.08204,0.05074,-0.4,-9.6,-23.2
55.9798,5579.2633,0.21444701712447894,-0.475547840624068,-0.15737578261479257,0.00134,0.00874,0.06052,-0.4,-9.6,-23.2
55.9975,5579.2833,0.2440193683580697,-0.4466833896542736,-0.15040768916142255,0.02578,-0.02547,0.06663,-0.4,-9.6,-23.1
56.0159,5579.3033,0.27797258935605895,-0.42060326426061667,-0.13578982347084967,0.02395,-0.05418,0.04158,-0.4,-9.6,-23.2
56.0405,5579.3233,0.3130093305660358,-0.4003512559321905,-0.11320370978233463,-0.03348,-0.05479,0.01531,-0.4,-9.6,-23.2
56.0599,5579.3433,0.34809097527261956,-0.39142685383283826,-0.08527898859946248,-0.04508,0.02584,-0.0079,-0.4,-9.6,-23.1
56.0826,5579.3633,0.37397301235056774,-0.3942124264822088,-0.0565163535870461,-0.02492,0.04539,-0.00423,-0.4,-9.6,-23.1
56.0979,5579.3833,0.3813863671093934,-0.40987276934497496,-0.032529165273857075,-0.01759,0.00202,-0.00607,-0.4,-9.6,-23.1
56.1175,5579.4033,0.3706231420515265,-0.42971409087001405,-0.01836513268369444,-0.00232,-0.03158,-0.0024,-0.4,-9.6,-23.1
56.1354,5579.4233,0.3464141616484218,-0.44804923672522795,-0.01722032044773414,0.01112,-0.02852,-0.00973,-0.4,-9.6,-23.1
56.1601,5579.4433,0.315246886977193,-0.4623516942275244,-0.029276302840445467,-0.0011,-0.02486,-0.0134,-0.4,-9.6,-23.1
56.1774,5579.4633,0.2793166861218825,-0.4704075651917199,-0.05127814286926302,0.02761,0.02768,-0.02928,-0.4,-9.5,-23.2
56.2047,5579.4833,0.24284662864933337,-0.47621566091881845,-0.07801000889366527,0.01478,0.0515,-0.01034,-0.4,-9.5,-23.2
56.2163,5579.5033,0.20080241156441925,-0.48111346740384864,-0.10331126819886194,-0.01026,0.00874,0.00248,-0.4,-9.5,-23.2
56.2374,5579.5233,0.162464513525063,-0.4884046570898138,-0.12272688659531994,0.00257,-0.05235,-0.01034,-0.5,-9.5,-23.3
56.2557,5579.5433,0.13680947259759144,-0.49740396918214264,-0.13403039700128794,0.00806,-0.04624,-0.00057,-0.4,-9.4,-23.3
56.2777,5579.5633,0.12917006267998538,-0.5049054502471373,-0.13757227577427678,0.0099,-0.01386,0.03364,-0.4,-9.4,-23.3
56.299,5579.5833,0.14196802838265515,-0.5058767302130344,-0.1356437750489068,0.02028,0.01485,0.05868,-0.4,-9.4,-23.3
56.3228,5579.6033,0.1689466440585065,-0.498641198668799,-0.13126992411879002,0.01845,0.046,0.06418,-0.5,-9.4,-23.4
56.3509,5579.6233,0.2016363576580973,-0.4859595800159377,-0.12681588886510653,0.01295,-0.00103,0.07273,-0.4,-9.4,-23.4
56.37,5579.6433,0.24058755836142645,-0.4684269886315839,-0.12294127817266975,0.038,-0.05479,0.04708,-0.4,-9.4,-23.3
56.3801,5579.6632,0.2759828639129971,-0.4515831914380149,-0.11857427540986976,0.0325,0.00019,0.02264,-0.4,-9.4,-23.4
56.3967,5579.6832,0.29656479773895955,-0.44481658120158635,-0.11181941048571531,0.01723,0.05333,0.00615,-0.4,-9.4,-23.4
56.4179,5579.7032,0.30009274969041877,-0.45147874034032176,-0.10130900256131525,-0.0292,0.00385,4e-05,-0.4,-9.4,-23.3
56.4449,5579.7232,0.2896191001429804,-0.4731674303947711,-0.08771895201378399,-0.00232,-0.02791,-0.00179,-0.4,-9.4,-23.3
56.4568,5579.7432,0.2709688712270381,-0.501939638897384,-0.07377778949600255,0.05143,0.00568,-0.01462,-0.4,-9.4,-23.1
56.4787,5579.7632,0.2559544809394353,-0.5307237099971795,-0.0640818579446556,0.02822,0.08998,0.01165,-0.4,-9.5,-23.1
56.4963,5579.7832,0.24633032362568685,-0.5471692623639233,-0.06271803346490401,-0.00599,0.07227,0.04036,-0.4,-9.5,-23.0
56.5227,5579.8032,0.24319072552588775,-0.5506102683341418,-0.0727226220956787,0.03677,0.01668,0.03669,-0.4,-9.4,-23.0
56.5434,5579.8232,0.24770939084734928,-0.5376585856562572,-0.09414398033738891,0.05327,-0.02364,0.01104,-0.4,-9.4,-22.9
56.5588,5579.8432,0.25971428908105354,-0.5109897681885956,-0.1243481885692308,0.03128,-0.01631,0.00126,-0.5,-9.4,-22.9
56.58,5579.8632,0.2745593909910709,-0.48013857491866047,-0.1587379965089326,0.03616,0.00996,0.00554,-0.5,-9.5,-22.8
56.5981,5579.8832,0.28545441160468843,-0.4497764320842056,-0.1914200211095416,0.01967,0.05394,4e-05,-0.5,-9.5,-22.8
56.6177,5579.9032,0.2871520498519717,-0.42816240803787464,-0.21704617540185644,-0.00293,0.057,-0.00362,-0.5,-9.5,-22.6
56.6389,5579.9232,0.27833766379297736,-0.4185217437659231,-0.2315810668771352,0.02578,-0.00042,-0.00179,-0.5,-9.4,-22.6
56.6838,5579.9432,0.26392476268757675,-0.4171223356747123,-0.2330927184469509,0.00073,-0.02242,0.00432,-0.5,-9.4,-22.6
56.6847,5579.9632,0.24769096506912402,-0.4324337556555427,-0.22266515370503903,-0.0518,0.0179,0.00371,-0.5,-9.4,-22.5
56.7022,5579.9832,0.23507805807117926,-0.45020215856086915,-0.20262621996448438,-0.0292,0.03867,-0.0134,-0.5,-9.4,-22.5
56.7173,5580.0032,0.22498458990670256,-0.47197029661687834,-0.17708842328452334,-0.00904,0.0179,0.01165,-0.5,-9.4,-22.5
56.7381,5580.0232,0.21774080339256008,-0.4922141951713303,-0.14983755306620594,-0.00293,-0.00653,0.0312,-0.5,-9.4,-22.5
56.7554,5580.0432,0.21647561963125755,-0.508177637720281,-0.12367675711193726,0.00012,-0.0102,0.01959,-0.5,-9.4,-22.5
56.777,5580.0632,0.2213891299971509,-0.5198295024221862,-0.09986967725944496,-0.00171,0.02768,-0.0079,-0.6,-9.3,-22.5
56.7955,5580.0831,0.22869198689155032,-0.5300802333326881,-0.07852377969186186,0.0099,0.06127,0.01226,-0.6,-9.3,-22.5
56.8155,5580.1031,0.23545202316090155,-0.5407992583026446,-0.05944929770589091,0.01845,0.00324,0.0373,-0.5,-9.3,-22.5
56.8461,5580.1231,0.24080657113649037,-0.5503975690333895,-0.04312465626232864,0.04227,-0.04013,0.03547,-0.6,-9.3,-22.5
56.8631,5580.1431,0.2582183512692411,-0.5498836094712897,-0.031436941462761325,0.00562,-0.00103,0.02203,-0.6,-9.3,-22.5
56.8862,5580.1631,0.2854855950520005,-0.5394679948251452,-0.027736128598730758,-0.04569,0.0625,0.01959,-0.6,-9.3,-22.5
56.9018,5580.1831,0.3148903903029707,-0.5249561086456332,-0.035630445320657955,-0.01515,0.07105,0.00371,-0.6,-9.3,-22.4
56.916,5580.2031,0.33937783340094635,-0.5066535713698078,-0.05658422316364664,0.04533,0.04478,0.02325,-0.6,-9.3,-22.4
56.9402,5580.2231,0.35319433084375546,-0.48961084505024216,-0.08876080258616881,0.08076,-0.01875,0.03364,-0.6,-9.3,-22.4
56.9581,5580.2431,0.3587247029273001,-0.46610876142539126,-0.12585094302508182,0.00379,-0.01203,0.01959,-0.6,-9.3,-22.4
56.988,5580.2631,0.35818607556708243,-0.4413056489156439,-0.15926423622834918,-0.04753,0.07044,-0.01523,-0.6,-9.3,-22.3
57.0229,5580.2831,0.34907128658251907,-0.4237191426750652,-0.17998466250759293,-0.06219,0.08265,-0.0189,-0.6,-9.4,-22.4
57.0302,5580.3031,0.3175414641074877,-0.44901993205428536,-0.1825727039303544,-0.08357,0.01485,-0.00301,-0.6,-9.4,-22.3
57.0412,5580.3231,0.28190333615452884,-0.4925816108449801,-0.16551790821783818,-0.03592,-0.03158,-0.00912,-0.5,-9.4,-22.3
57.0618,5580.3431,0.25078901152579736,-0.540590417661777,-0.1334095722370634,-0.05852,-0.05968,-0.00668,-0.5,-9.4,-22.3
57.079,5580.3631,0.23600330180651755,-0.584250564301306,-0.09573063954829486,-0.03409,-0.00837,-0.00423,-0.4,-9.4,-22.3
57.1004,5580.3831,0.23915703854300022,-0.6104649151159139,-0.06286854355477445,-0.01148,0.02645,0.0428,-0.4,-9.4,-22.3
57.1166,5580.4031,0.260543870238709,-0.6150147693247119,-0.04342154670823284,0.01295,-0.00837,0.07273,-0.4,-9.4,-22.4
57.1395,5580.4231,0.289256222708616,-0.6016443888129839,-0.04121329006622254,0.07526,-0.06395,0.04402,-0.4,-9.4,-22.5
57.1554,5580.4431,0.32770344968541726,-0.5650762128446277,-0.054385006724562146,0.09114,-0.06518,0.0147,-0.4,-9.4,-22.6
57.1757,5580.4631,0.3618988765809067,-0.5207377718405711,-0.07799187576772049,0.01906,-0.01203,0.01165,-0.4,-9.3,-22.6
57.2035,5580.4831,0.38343718638344243,-0.4801860721532928,-0.10560309281513192,-0.02981,0.02951,-0.01034,-0.3,-9.4,-22.6
57.2174,5580.503,0.37883865184879656,-0.4597214436152994,-0.13167435377957126,-0.00965,0.0124,-0.02195,-0.3,-9.4,-22.6
57.2445,5580.523,0.35012076074129866,-0.4640952571314911,-0.1528434169164239,0.03494,-0.01875,-0.01462,-0.3,-9.3,-22.6
57.2635,5580.543,0.30149634128029057,-0.48821004002297874,-0.16762557543274248,-0.00049,-0.05662,-0.03722,-0.3,-9.3,-22.6
57.2793,5580.563,0.24635137391751716,-0.5203483794290549,-0.17588539020085037,-0.02004,0.01179,-0.05005,-0.3,-9.3,-22.6
57.296,5580.583,0.19861305398912335,-0.5497557360907507,-0.17780294662810192,0.00562,0.00324,-0.02134,-0.3,-9.3,-22.5
57.3175,5580.603,0.16851612038761526,-0.5690719469304493,-0.17338562955193026,-0.0011,0.00935,0.00126,-0.3,-9.3,-22.5
57.3428,5580.623,0.15716227724534512,-0.5782992233784833,-0.16273752195562707,-0.01637,0.01607,0.03547,-0.4,-9.3,-22.6
57.3608,5580.643,0.16934467281271107,-0.5803579543763729,-0.14653636752044363,-0.00232,-0.02791,0.06296,-0.4,-9.3,-22.6
57.3838,5580.663,0.19755374495856584,-0.5781539918219126,-0.12625127350074372,0.0215,-0.04013,0.0764,-0.4,-9.3,-22.6
57.398,5580.683,0.2506625470474876,-0.5686964623407654,-0.10484778477196599,0.05082,-0.09389,0.05013,-0.4,-9.3,-22.6
57.4195,5580.703,0.31193953000410185,-0.5542806326449767,-0.08638724340563542,-0.03775,-0.00042,-0.00973,-0.4,-9.3,-22.5
57.4379,5580.723,0.3675026384740167,-0.5415975484413187,-0.0751898615569413,-0.05974,0.07593,-0.06715,-0.4,-9.2,-22.4
57.4557,5580.743,0.4003456230355696,-0.5361778722023697,-0.07381182634023453,-0.02126,0.08632,-0.03233,-0.5,-9.2,-22.5
57.4751,5580.763,0.4042287212595433,-0.5377836561416729,-0.08243834558351004,0.07281,-0.02852,-0.01095,-0.5,-9.3,-22.5
57.4976,5580.783,0.38543741170098594,-0.539544199674445,-0.09904815550833845,0.04533,-0.05968,-0.01401,-0.5,-9.3,-22.6
57.5176,5580.803,0.3589226409494402,-0.5322847856915538,-0.12012400586620053,-0.02004,-0.03463,-0.02867,-0.5,-9.2,-22.6
57.5359,5580.823,0.33236574645858313,-0.5190879935513975,-0.14174977577321535,-0.01393,0.02951,-0.03783,-0.5,-9.2,-22.6
57.5571,5580.843,0.3063706585854879,-0.5084313653900385,-0.16014753596673437,0.00562,0.07777,-0.02256,-0.5,-9.2,-22.7
57.5782,5580.863,0.2767995886841444,-0.5079362653475402,-0.172058761211618,0.02456,-0.01447,-0.01462,-0.5,-9.2,-22.7
57.61,5580.883,0.2467004628327976,-0.5206704033394981,-0.1754347689429565,0.03128,-0.05296,-0.00851,-0.4,-9.2,-22.7
57.6206,5580.9029,0.22242024486095793,-0.5361306766574727,-0.16927994056229245,0.00562,-0.01753,-0.02134,-0.4,-9.3,-22.7
57.645,5580.9229,0.20968339473252295,-0.5541426610310494,-0.15521023011031154,-0.03225,0.01607,-0.03661,-0.4,-9.3,-22.6
57.6665,5580.9429,0.20495776889925457,-0.5763187637417065,-0.1368378963996637,-0.03348,0.01363,-0.01095,-0.4,-9.3,-22.7
57.6794,5580.9629,0.20774253879726046,-0.6016421557186545,-0.11897475119692125,-0.01759,-0.00959,0.0202,-0.4,-9.2,-22.6
57.7021,5580.9829,0.21652817591018605,-0.6240168883287274,-0.10582131861677269,0.03861,-0.03097,0.03547,-0.4,-9.3,-22.6
57.7249,5581.0029,0.23492994026140152,-0.633705512057265,-0.0995905031269757,0.05571,-0.00348,0.00982,-0.4,-9.3,-22.6
57.7519,5581.0229,0.2601560011441515,-0.6253898310280475,-0.10000912137399176,0.0044,0.01607,-0.03844,-0.4,-9.3,-22.6
57.7631,5581.0429,0.27895139277598696,-0.6051120352898517,-0.1049182797508994,-0.0347,0.0344,-0.02012,-0.3,-9.3,-22.5
57.7836,5581.0629,0.29108979454516565,-0.5819371271875675,-0.11131158416356257,-0.02309,-0.00226,-0.00362,-0.3,-9.3,-22.4
57.7973,5581.0829,0.29316725451503634,-0.5655500589787864,-0.11592920983012789,0.02639,0.00019,-0.00423,-0.3,-9.2,-22.4
57.8157,5581.1029,0.29057814271672355,-0.5581418567267556,-0.1161256649907525,0.03311,0.04722,-0.00729,-0.4,-9.3,-22.5
57.8363,5581.1229,0.2856167658109808,-0.5586458138336655,-0.11046630813455494,-0.02065,0.06372,0.00798,-0.4,-9.2,-22.4
57.8578,5581.1429,0.27878639183247467,-0.5662826221656541,-0.09931380254003663,-0.02737,0.02951,0.01348,-0.4,-9.2,-22.4
57.8834,5581.1629,0.2719872793014375,-0.5802142282993648,-0.08485669462534418,0.02395,-0.01997,0.00126,-0.4,-9.2,-22.5
57.8983,5581.1829,0.27213964409290553,-0.5973442599438942,-0.0705677268535645,0.01417,-0.01875,0.01715,-0.4,-9.2,-22.4
57.9201,5581.2029,0.2801569309535215,-0.6134634006081556,-0.060062707648361524,-0.00904,0.01302,0.02203,-0.3,-9.1,-22.4
57.9462,5581.2229,0.29454029414816935,-0.6265145221636841,-0.05634070613646003,0.01417,0.06433,0.00126,-0.4,-9.2,-22.4
57.9661,5581.2429,0.30773653543613205,-0.6333537055249011,-0.06050469708150885,0.03311,0.01851,0.00615,-0.3,-9.1,-22.4
57.9824,5581.2629,0.31692852150660034,-0.6325596422871971,-0.07176317834065138,0.04655,-0.03097,0.00798,-0.3,-9.1,-22.5
58.0151,5581.2829,0.32323476327545514,-0.62904408810202,-0.0879855359867392,0.03189,-0.01447,0.00187,-0.3,-9.2,-22.5
58.0191,5581.3028,0.3256101318527532,-0.6160687596724618,-0.10530625868565124,-0.00354,0.02279,-0.02256,-0.3,-9.1,-22.5
58.0441,5581.3229,0.3326378921537355,-0.603524173045646,-0.12165565364072783,-0.00538,0.04539,-0.0305,-0.3,-9.1,-22.4
58.0561,5581.3429,0.33047836864397107,-0.5942719253047211,-0.13522162207073407,0.0044,0.02706,-0.00729,-0.3,-9.1,-22.5
58.0818,5581.3629,0.321601862800788,-0.5901708680333039,-0.1465324309226208,0.03128,-0.00409,0.01531,-0.3,-9.1,-22.7
58.0999,5581.383,0.3086806505471877,-0.5853053048009087,-0.1569494060101988,0.02639,-0.04868,0.00493,-0.3,-9.1,-22.7
58.1165,5581.403,0.29506422858313097,-0.5787472645122196,-0.16818607113313533,-0.00232,-0.01875,0.0031,-0.3,-9.1,-22.7
58.1379,5581.423,0.282212833292431,-0.5722351073802548,-0.1806779604882749,0.00501,0.0405,-0.01218,-0.3,-9.1,-22.6
58.1578,5581.443,0.2661890985269194,-0.5665791755450109,-0.19244954601503927,0.03555,0.07105,-0.01523,-0.3,-9.1,-22.6
58.1764,5581.4631,0.24407021854323885,-0.5629208436913539,-0.19966457286325223,0.01234,0.06005,0.00248,-0.2,-9.1,-22.6
58.2025,5581.4831,0.22003166206695882,-0.5614345904986499,-0.19807390553945936,-0.0292,-0.0047,0.00859,-0.3,-9.2,-22.6
58.2264,5581.5031,0.2020026375027272,-0.5656138984144121,-0.18502759447778772,-0.03103,-0.03097,0.00432,-0.4,-9.2,-22.7
58.2428,5581.5232,0.20272782239333922,-0.5788836265783789,-0.16082608152100164,-0.02126,-0.00653,0.0202,-0.3,-9.2,-22.8
58.2573,5581.5432,0.22560286119612388,-0.5965026460722269,-0.12852199428399302,0.01112,-0.01081,0.03486,-0.4,-9.2,-22.8
58.2872,5581.5632,0.26126427671722313,-0.6140009338216218,-0.09369273991499938,0.016,-0.00837,0.04647,-0.3,-9.2,-22.8
58.3,5581.5832,0.3137548601353319,-0.6212391361340475,-0.0632440693153491,0.00501,-0.02303,0.02753,-0.4,-9.2,-22.8
58.3221,5581.6033,0.36317105814498835,-0.6181704913756012,-0.0436978542036055,-0.00538,-0.03036,0.01043,-0.4,-9.2,-22.8
58.3422,5581.6233,0.4034876477487186,-0.6071958727128082,-0.04007834918242281,-0.01576,0.00874,-0.00057,-0.4,-9.3,-22.9
58.3589,5581.6433,0.42294583208179,-0.5928355288206887,-0.053848642982709194,0.01112,0.05272,-0.02928,-0.4,-9.3,-22.8
58.3827,5581.6634,0.4205930486708108,-0.5793942562596399,-0.08257809566164198,0.027,0.07838,-0.05433,-0.3,-9.3,-22.7
58.401,5581.6834,0.3865765777783141,-0.5686430924393616,-0.119335052920583,-0.0011,0.01485,-0.07021,-0.3,-9.3,-22.6
58.4163,5581.7034,0.3322576143588953,-0.5637485045313977,-0.15591603790069541,-0.00782,-0.0102,-0.03783,-0.3,-9.2,-22.6
58.4388,5581.7234,0.27525207111535316,-0.5665833799232509,-0.1843502304759923,-0.00171,-0.00042,-0.01095,-0.3,-9.2,-22.7
58.4581,5581.7435,0.2295367890332272,-0.5775931446427051,-0.19882760638641983,0.0044,-0.00959,0.00737,-0.3,-9.2,-22.7
58.479,5581.7635,0.2044923812567383,-0.5947801493090352,-0.19715564624382154,-0.00477,-0.00837,0.01776,-0.4,-9.2,-22.7
58.5044,5581.7835,0.20001701212356443,-0.6157996247794967,-0.18100905255149868,-0.00049,-0.01325,0.02997,-0.4,-9.2,-22.7
58.5217,5581.8036,0.21534712806107367,-0.6359722206045672,-0.15498207839491052,0.01417,0.00019,0.03547,-0.4,-9.2,-22.6
58.5505,5581.8236,0.2382927111949393,-0.6540433089497631,-0.12495492651147444,0.02456,-0.01814,0.02875,-0.4,-9.1,-22.5
58.5641,5581.8436,0.26649778905930593,-0.6624469265889354,-0.096098668769109,0.01051,-0.01447,-0.01034,-0.4,-9.1,-22.5
58.5821,5581.8636,0.2911301616866759,-0.6633342609244031,-0.0723302369316805,-0.01148,0.01973,-0.03356,-0.4,-9.1,-22.6
58.5978,5581.8837,0.3059051690465609,-0.6602628180194602,-0.05558842932087593,-0.02431,0.03867,-0.02623,-0.4,-9.1,-22.6
58.6175,5581.9037,0.3118624439168173,-0.6561392789851586,-0.04627978742096239,-0.00843,0.0063,-0.01156,-0.4,-9.1,-22.6
58.6467,5581.9237,0.3121781163302586,-0.6534877541048575,-0.04391433334993344,0.0441,-0.01386,-0.00607,-0.5,-9.1,-22.6
58.6578,5581.9437,0.3154890819668468,-0.6407518504265647,-0.0469146076530933,0.0496,0.00019,0.02264,-0.5,-9.1,-22.6
58.6858,5581.9637,0.324292404491764,-0.6252687086408689,-0.05470928445209822,0.00073,0.03256,0.02509,-0.5,-9.1,-22.7
58.6989,5581.9837,0.3365668474919344,-0.6034698022702893,-0.06574745457007225,0.00928,0.057,0.01531,-0.5,-9.1,-22.6
58.7155,5582.0037,0.3462309865445363,-0.585532693666607,-0.0789000086794367,0.02944,0.01118,0.01043,-0.5,-9.1,-22.6
58.7384,5582.0237,0.3482056114720151,-0.5775144488011157,-0.09240177869420307,0.04533,-0.03097,-0.00057,-0.5,-9.1,-22.6
58.7649,5582.0437,0.3422506454809071,-0.580127085478039,-0.10423702139118163,0.01845,-0.00714,-0.00973,-0.5,-9.1,-22.5
58.7802,5582.0637,0.3258422318082267,-0.5942476138820567,-0.11280573207431566,-0.01759,0.04539,-0.01034,-0.5,-9.1,-22.4
58.8012,5582.0837,0.30228764441058475,-0.6213749821629028,-0.11791071141624876,-0.01393,0.02035,-0.02684,-0.6,-9.1,-22.5
58.8201,5582.1037,0.27252657290985266,-0.6568073899944927,-0.12046283832512472,0.0325,-0.0157,-0.01584,-0.6,-9.1,-22.4
58.8414,5582.1236,0.2445592338147804,-0.6902806581100152,-0.12256464626036312,0.03189,-0.04074,0.01531,-0.6,-9.2,-22.5
58.8605,5582.1436,0.2294720649821153,-0.7098100977198012,-0.12671292253307165,-0.00415,-0.00653,0.02936,-0.6,-9.2,-22.4
58.8837,5582.1636,0.23157331405717593,-0.7114861100860898,-0.13509624219538985,0.01784,0.03989,0.0257,-0.6,-9.2,-22.3
58.8987,5582.1836,0.24703774228015696,-0.6946438496115067,-0.1480995517496062,0.04166,0.07655,0.04036,-0.6,-9.2,-22.3
58.9189,5582.2036,0.2661426480581251,-0.6695481127523104,-0.16416482901155582,0.05693,0.01057,0.04708,-0.6,-9.2,-22.3
58.9452,5582.2236,0.28086443544114637,-0.6429192542131437,-0.17920641249606462,0.0661,-0.04135,0.05074,-0.6,-9.3,-22.3
58.9657,5582.2436,0.29707228528519,-0.6133978667853697,-0.18820331380092803,0.02211,-0.03158,0.04341,-0.6,-9.3,-22.3
58.9824,5582.2636,0.31161293495973474,-0.5929006205090588,-0.18788074078068462,-0.02431,0.02462,0.01226,-0.6,-9.3,-22.3
59.0263,5582.2836,0.32236069756918045,-0.5825067969660189,-0.17690298537138993,-0.03103,0.03256,-0.01767,-0.6,-9.3,-22.3
59.0356,5582.3036,0.3188685044487732,-0.60233202538331,-0.15807648276287622,-0.01759,0.02218,0.0092,-0.6,-9.3,-22.4
59.0607,5582.3236,0.3036765725344105,-0.6400907356355672,-0.13553578337738337,0.03983,-0.05785,0.03242,-0.6,-9.3,-22.4
59.0674,5582.3436,0.2951880997090769,-0.6718167865940631,-0.11437520532536816,0.05693,-0.02669,0.0312,-0.6,-9.3,-22.4
59.0863,5582.3636,0.2934275319604888,-0.6939878445057436,-0.09974334898315185,0.0044,0.02645,0.01165,-0.5,-9.3,-22.4
59.1007,5582.3836,0.3011540504759287,-0.7000276262896163,-0.09459190590379407,-0.02615,0.08937,-0.00729,-0.6,-9.4,-22.5
59.1229,5582.4036,0.31564759967049183,-0.6954978709689565,-0.09972481124729882,-0.02431,0.06921,0.00676,-0.5,-9.3,-22.5
59.1396,5582.4236,0.32820964100298244,-0.6877542771969621,-0.1130417857307382,0.04594,-0.01081,0.02142,-0.5,-9.3,-22.4
59.1561,5582.4436,0.3407402085755274,-0.6772827986757457,-0.13027972506846197,0.10458,-0.04013,0.02264,-0.5,-9.3,-22.4
59.1778,5582.4636,0.35511686736959697,-0.6634597757453586,-0.14660580147337932,0.02028,-0.00042,0.00371,-0.5,-9.4,-22.4
59.2015,5582.4836,0.373552315994761,-0.6443837183653308,-0.15827891951686368,-0.05486,0.02279,0.00493,-0.5,-9.4,-22.4
59.221,5582.5036,0.39243726032114956,-0.6290294793691956,-0.1643170497085702,-0.02431,-0.01203,0.00065,-0.5,-9.4,-22.4
59.2428,5582.5235,0.40748680430925044,-0.6221490962761378,-0.16564443398811513,0.02333,-0.00042,0.00126,-0.5,-9.4,-22.5
59.2566,5582.5435,0.4176687592781051,-0.6218493816328122,-0.16417674115964864,0.01845,-0.01814,-0.00179,-0.5,-9.4,-22.3
59.2835,5582.5635,0.4209822950872069,-0.6253665377662647,-0.1616585006695086,-0.00904,-0.03463,-0.01095,-0.4,-9.4,-22.3
59.3183,5582.5835,0.4191566707151685,-0.6258016336309133,-0.15852638894948257,-0.01271,-0.03219,-0.01279,-0.3,-9.4,-22.3
59.3302,5582.6035,0.4059122605914941,-0.6286216022737796,-0.15399741872001016,-0.01637,0.00019,-0.036,-0.4,-9.4,-22.3
59.344,5582.6235,0.3826555450758857,-0.6341532820569897,-0.14586116075746602,-0.01454,0.0289,-0.04761,-0.3,-9.4,-22.3
59.3581,5582.6435,0.35442776178258356,-0.6452257717769142,-0.1316147948070565,-0.04203,0.01302,-0.04761,-0.3,-9.4,-22.4
59.3758,5582.6635,0.3350664180917421,-0.661261020646686,-0.10951969752021107,-0.01393,-0.01081,-0.11358,-0.4,-9.4,-22.4
59.4012,5582.6835,0.342340671136785,-0.6756130239629063,-0.079725596200241,-0.03958,0.03195,-0.16734,-0.3,-9.3,-22.4
59.4192,5582.7036,0.349330068168412,-0.6838634410904904,-0.044464897332611386,-0.01515,0.04234,-0.2553,-0.4,-9.4,-22.4
59.4374,5582.7236,0.3618733753141446,-0.6817726350946037,-0.010708726718037909,-0.12511,0.00141,-0.14718,-0.4,-9.4,-22.5
59.4612,5582.7436,0.37847829673046646,-0.672423185824622,0.012250946022664522,-0.15993,-0.06518,0.04463,-0.4,-9.4,-22.7
59.4798,5582.7637,0.39562278878957086,-0.6804062550713188,0.014701466012482456,0.00623,0.10281,0.04708,-0.4,-9.4,-22.7
59.5009,5582.7837,0.40984908292730665,-0.7062967148846724,-0.007035896994890933,0.10763,0.09426,-0.08792,-0.4,-9.3,-22.8
59.5199,5582.8037,0.4076474931151662,-0.7342669193700938,-0.0484739122401443,0.16078,-0.21301,-0.20093,-0.4,-9.3,-22.9
59.5486,5582.8237,0.3880786195235626,-0.7600401073292076,-0.1003736086351612,0.11619,-0.17452,-0.12763,-0.3,-9.3,-22.8
59.5599,5582.8438,0.34972862796672904,-0.758049492371938,-0.14913855850740276,-0.0121,0.02279,0.00859,-0.3,-9.3,-22.8
59.5852,5582.8638,0.31358067925479693,-0.7511569571227145,-0.18751705881150293,-0.01393,0.07655,0.00432,-0.4,-9.2,-22.7
59.5998,5582.8838,0.28225141300389,-0.7470640944713693,-0.211135247723929,0.04166,0.01179,-0.03172,-0.4,-9.2,-22.8
59.6205,5582.9039,0.2585408354720734,-0.749797793132665,-0.22085629875932078,0.07159,-0.00165,-0.00546,-0.4,-9.2,-22.7
59.6453,5582.9239,0.2393521046916937,-0.7519947903827384,-0.2207405032971188,0.04838,-0.04502,0.00737,-0.3,-9.2,-22.7
59.6623,5582.9439,0.22373232384100256,-0.7468436964969204,-0.21691603933426684,-0.02676,-0.04868,-0.00729,-0.3,-9.2,-22.6
59.6789,5582.9639,0.20730870711907237,-0.7402775498058456,-0.2159115370635334,-0.03958,0.03073,-0.02256,-0.2,-9.2,-22.7
59.6996,5582.984,0.18554950007731466,-0.7371150322081906,-0.22153990873657747,0.03861,0.00874,0.01531,-0.2,-9.2,-22.6
59.7219,5583.004,0.15904556929929686,-0.7378447629897872,-0.23351816074710818,0.09542,-0.09816,0.05135,-0.2,-9.2,-22.6
59.7523,5583.024,0.13324704302098825,-0.739143072337376,-0.2475244179116416,0.06365,-0.14703,0.06479,-0.2,-9.2,-22.6
59.7695,5583.0441,0.15175703118987052,-0.7152566258818172,-0.25575012587246526,0.016,-0.10366,0.06968,-0.2,-9.2,-22.4
59.7901,5583.0641,0.20453123923911645,-0.673089918831619,-0.2529146782443803,-0.03042,0.07349,0.08006,-0.2,-9.2,-22.5
59.809,5583.0841,0.2849062407792304,-0.6206336196082576,-0.23740204009427757,-0.11411,0.16451,0.08373,-0.2,-9.3,-22.5
59.8172,5583.1041,0.36928955995532176,-0.5906544819058795,-0.21305271640101964,-0.17336,0.08388,0.0538,-0.2,-9.3,-22.5
59.8397,5583.1242,0.44073743579444563,-0.56365497537611,-0.18349299426711418,-0.15504,-0.0499,-0.02195,-0.2,-9.3,-22.4
59.8574,5583.1442,0.4835500375922937,-0.5709371104521197,-0.1558649069682776,-0.01576,-0.05846,-0.06715,-0.3,-9.4,-22.6
59.8767,5583.1642,0.4941438060412651,-0.5984360814516579,-0.1328418776798923,0.07709,-0.04318,-0.04211,-0.3,-9.4,-22.7
59.8986,5583.1843,0.4766884768130478,-0.6298117801316361,-0.11406032173379543,-0.03103,-0.03341,-0.02073,-0.3,-9.4,-22.6
59.919,5583.2043,0.44022368037303067,-0.6589021736881883,-0.09795919301357614,-0.14649,0.0008,-0.01401,-0.4,-9.4,-22.7
59.9478,5583.2243,0.3955747466921075,-0.6818356831925122,-0.08374131538822382,-0.12144,-0.08289,-0.04577,-0.4,-9.4,-22.8
59.9687,5583.2443,0.3522222158526529,-0.7232369104193012,-0.07502860115824106,-0.04386,-0.11527,-0.07204,-0.4,-9.4,-22.8
59.9892,5583.2644,0.3163206790987661,-0.7708311690339603,-0.07512939868570712,0.00379,-0.18735,-0.04272,-0.5,-9.4,-22.9
60.0173,5583.2844,0.28409696121662575,-0.8155822900620031,-0.08748983154428913,0.01478,-0.16414,0.01348,-0.5,-9.4,-23.0
60.032,5583.3044,0.2763715779333984,-0.8390612781639797,-0.11304641036525531,0.01967,-0.09266,0.02631,-0.5,-9.4,-23.1
60.0433,5583.3244,0.28066910345530555,-0.8411278662585564,-0.14904973515059616,0.02272,-0.10549,0.01409,-0.6,-9.4,-23.1
60.0636,5583.3444,0.28834895904672414,-0.8229003029959159,-0.18869131734891553,0.01661,-0.15375,-0.09098,-0.7,-9.4,-23.1
60.0872,5583.3644,0.30298832631125683,-0.7864198115038261,-0.22277276690190106,-0.07624,-0.11588,-0.11602,-0.7,-9.4,-23.0
60.1066,5583.3844,0.3137253244357856,-0.7472063157733341,-0.24261547533177819,-0.12083,0.06066,-0.09586,-0.8,-9.4,-23.0
60.1221,5583.4045,0.31629573839121394,-0.714340303048319,-0.24188159003606557,-0.02859,-0.00409,-0.05616,-0.8,-9.4,-23.1
60.1412,5583.4245,0.3168974608934652,-0.6879405294302385,-0.21878413745561254,0.01845,-0.03708,-0.02195,-0.9,-9.3,-23.1
60.1575,5583.4445,0.32388098550554617,-0.6686429621999376,-0.17712074597969973,-0.07379,0.06127,0.05807,-0.9,-9.3,-23.0
60.1811,5583.4646,0.34598185578060753,-0.6526746165863181,-0.12477233276667299,-0.02248,-0.04929,-0.04761,-0.9,-9.2,-23.1
60.2039,5583.4846,0.3753432024274797,-0.6498900112206561,-0.072139319136717,-0.05852,0.0344,-0.14657,-0.9,-9.2,-23.0
60.2296,5583.5046,0.3956724573220781,-0.668150777642165,-0.028679882997010964,-0.0799,-0.0157,-0.11908,-0.8,-9.1,-23.0
60.2436,5583.5246,0.39181644403962124,-0.7016561706156086,-0.00048079123472355434,0.07404,-0.15192,-0.0812,-0.8,-9.1,-22.9
60.2601,5583.5447,0.3757489561663114,-0.7374138263995023,0.009333173245437365,0.12718,-0.14948,-0.04577,-0.9,-9.1,-22.9
60.2775,5583.5647,0.36144442049023284,-0.759246915717424,0.0015889614806283703,0.01723,-0.00531,-0.02378,-0.9,-9.1,-22.9
60.3032,5583.5847,0.3631378020279161,-0.7606539607705645,-0.020673926209182625,-0.04081,0.09731,-0.07326,-0.9,-9.0,-22.8
60.3232,5583.6048,0.36174539452831933,-0.7447213646714809,-0.05247208132246861,-0.02248,0.06921,-0.10014,-0.9,-9.0,-22.8
60.3394,5583.6248,0.34879247110224143,-0.7190142755655414,-0.08927371975204856,0.00562,0.04722,-0.06715,-0.9,-9.0,-22.9
60.364,5583.6448,0.32890148035712635,-0.6814036223939093,-0.12668419705881817,-0.07013,-0.10183,-0.01218,-0.8,-8.9,-22.9
60.3803,5583.6648,0.3111997984680005,-0.6467587323228237,-0.16210151762312464,-0.10128,-0.03219,0.02448,-0.8,-8.9,-22.9
60.4002,5583.6849,0.303349436377593,-0.613731609833105,-0.19174503923259323,-0.13793,0.08449,0.00248,-0.7,-8.9,-22.8
60.4201,5583.7049,0.30498411926941543,-0.5926809018899609,-0.2121027183725932,-0.13366,-0.01325,-0.03111,-0.6,-8.8,-22.7
60.4419,5583.7249,0.3083063896115452,-0.5826935678226933,-0.21857869096261773,-0.10128,-0.03341,0.01715,-0.5,-8.8,-22.7
60.4574,5583.745,0.30993734535620276,-0.5972815647582836,-0.20840731785735755,-0.16664,-0.04685,0.07823,-0.5,-8.8,-22.8
60.4822,5583.765,0.29745309924950475,-0.614751696716599,-0.1787666845152529,-0.22895,0.05272,0.1216,-0.5,-8.8,-22.8
60.5058,5583.785,0.279348920643388,-0.6633728737942892,-0.13463419733451154,-0.19474,-0.04257,0.12649,-0.5,-8.8,-22.9
60.5295,5583.805,0.25577615712300067,-0.7401842148113186,-0.08350842810279246,-0.04142,-0.07434,0.07823,-0.5,-8.8,-22.9
60.5439,5583.8251,0.23203661506453732,-0.8326337158626146,-0.0359129820624311,0.03433,-0.08289,0.0483,-0.6,-8.7,-22.9
60.5665,5583.8451,0.1964455253142148,-0.9135881920085468,-0.0015259567750742775,-0.06158,0.01607,0.0202,-0.6,-8.7,-23.0
60.5798,5583.8651,0.16112232886698716,-0.972457173365577,0.010370280086892336,-0.0854,0.02523,-0.02256,-0.6,-8.6,-23.0
60.5973,5583.8852,0.13698293008296797,-0.9984936397984044,-0.004436083992127138,0.0661,-0.12626,-0.00973,-0.6,-8.7,-23.1
60.6294,5583.9052,0.14899794664750807,-0.9919173074410038,-0.044758252373199525,0.19132,0.07838,0.06174,-0.6,-8.6,-23.0
60.6499,5583.9252,0.1890610119656466,-0.9341735684881334,-0.10064073300436327,-0.02676,0.4058,0.08923,-0.6,-8.6,-23.0
60.6645,5583.9452,0.2494788073986284,-0.8400404514541946,-0.16124839508452915,-0.03103,0.22254,0.09839,-0.7,-8.5,-22.9
60.6983,5583.9652,0.3199318423541943,-0.7420144465843868,-0.21574502660391737,0.13268,0.02523,0.11,-0.7,-8.5,-22.9
60.7013,5583.9852,0.4074887419767892,-0.6376841814431002,-0.25295225604804017,0.0887,0.0179,0.11,-0.8,-8.5,-23.1
60.7229,5584.0052,0.48714040564119526,-0.5630437796996102,-0.26814520272719555,-0.03287,0.07044,0.07823,-0.8,-8.4,-23.0
60.7418,5584.0252,0.5602610795742218,-0.5222677234342619,-0.26112321766333757,-0.02431,0.11931,0.04769,-0.8,-8.4,-23.1
60.7579,5584.0452,0.612650703321637,-0.5185363539168979,-0.23692355417292177,0.00257,-0.00531,-0.01401,-0.8,-8.4,-23.0
60.7774,5584.0652,0.6395163270680414,-0.537615108917681,-0.20492225800504293,-0.04936,-0.02913,-0.04394,-0.8,-8.4,-22.9
60.7992,5584.0852,0.6480822385893642,-0.5552932782411124,-0.1773726545894725,-0.04997,0.00019,-0.02989,-0.8,-8.4,-22.9
60.8174,5584.1052,0.6489238886890686,-0.5621681008459544,-0.16697157524728823,-0.04386,0.057,-0.02928,-0.7,-8.4,-22.8
60.8413,5584.1252,0.6555144650009708,-0.5586298330017437,-0.18259393171659433,-0.06402,0.15229,-0.01706,-0.6,-8.4,-22.7
60.8643,5584.1452,0.6569877338674978,-0.5602139190354057,-0.22410403040430182,0.0325,0.19078,-0.05677,-0.6,-8.3,-22.6
60.8772,5584.1652,0.6537435765828052,-0.5331828589489492,-0.2797552613889902,0.45155,-0.22828,-0.16123,-0.6,-8.4,-22.6
60.8985,5584.1851,0.6618035097141395,-0.4988201068128736,-0.3352820478463716,0.13024,-0.36572,-0.10869,-0.5,-8.3,-22.5
60.9213,5584.2051,0.6977279413538942,-0.4327785910012666,-0.373336113494803,-0.15198,-0.02913,-0.02867,-0.5,-8.3,-22.6
60.9386,5584.2251,0.7594558515926675,-0.3744398890243017,-0.3845371212748887,-0.27355,0.28241,0.04463,-0.5,-8.3,-22.6
60.9581,5584.2451,0.8315158502401714,-0.34449355131722853,-0.3671555683688261,-0.21612,0.17367,0.08312,-0.4,-8.3,-22.5
60.9821,5584.2651,0.8927913929051539,-0.3485710713999828,-0.32875587008213714,-0.02126,-0.07312,-0.02745,-0.4,-8.3,-22.5
61.0159,5584.2851,0.929778531420116,-0.36176852137597015,-0.2842710429808992,-0.05058,-0.22095,-0.04944,-0.4,-8.3,-22.4
61.022,5584.3051,0.9603011037030967,-0.3831572437464778,-0.2553079549746826,-0.21979,-0.03097,0.00798,-0.3,-8.3,-22.6
61.0641,5584.3251,0.9791629872227784,-0.3356534051203525,-0.25476723208025653,-0.15565,0.13458,-0.0024,-0.3,-8.3,-22.5
61.0655,5584.3451,0.9556665786302636,-0.29974242001695345,-0.28981979606865416,0.00257,0.09487,-0.0134,-0.3,-8.4,-22.6
61.0832,5584.3651,0.9121002249506386,-0.22329115275778189,-0.3561608827888403,-0.02737,0.07899,0.04036,-0.3,-8.3,-22.8
61.1007,5584.3851,0.842654601582564,-0.1348812059296802,-0.4383679604131139,-0.13916,0.13824,0.08862,-0.3,-8.4,-22.9
61.1174,5584.4051,0.7593595617212148,-0.0578089864972488,-0.5155655088839151,-0.13121,0.1529,0.09534,-0.4,-8.3,-23.0
61.1429,5584.4251,0.6753252863203104,-0.002547281542009229,-0.566397435795551,-0.11655,0.12603,0.06418,-0.4,-8.3,-23.1
61.1592,5584.4451,0.5973168587658131,-0.008045609181870264,-0.5753499218807452,-0.17642,0.13213,0.08678,-0.3,-8.4,-23.2
61.1801,5584.4651,0.5294133084971971,-0.044140036934129136,-0.5384997902552104,-0.32425,0.14985,0.06418,-0.3,-8.3,-23.3
61.2016,5584.4851,0.4691521262535524,-0.10259476183074559,-0.4660148302696552,-0.39633,0.10648,0.09595,-0.3,-8.3,-23.3
61.2196,5584.5051,0.413094017427563,-0.17077841726304716,-0.38108283323192715,-0.29859,0.07105,0.14604,-0.2,-8.2,-23.4
61.2413,5584.5251,0.3513292331463848,-0.19438362135875228,-0.31173144047065904,-0.20024,0.17245,0.14054,-0.1,-8.2,-23.5
61.2573,5584.5451,0.2825343278925277,-0.159019172068931,-0.2812010944041976,-0.12877,0.15168,0.14482,-0.1,-8.1,-23.6
61.2796,5584.565,0.19999265218811454,-0.03522082847134508,-0.2959992636033544,-0.0683,0.12664,0.17353,0.0,-8.1,-23.7
61.3015,5584.585,0.10780097522492316,0.1554299304757167,-0.34344855305357314,-0.00293,0.27935,0.10145,0.0,-8.0,-23.8
61.322,5584.605,0.0031749870207089794,0.37003717888775356,-0.39462586427838175,-0.00293,0.3722,0.01104,0.1,-8.0,-23.9
61.3431,5584.625,-0.11244502860902368,0.5538667838422424,-0.41546944754768766,-0.07929,0.26652,-0.04455,0.1,-7.9,-23.9
61.3597,5584.645,-0.24369862827286393,0.6564913214086903,-0.3796121454231862,-0.13549,0.11808,-0.10503,0.3,-7.9,-24.0
61.3823,5584.665,-0.363196198012221,0.677891982324433,-0.27919089880421843,-0.26622,0.05211,-0.2162,0.4,-7.8,-24.0
61.399,5584.685,-0.4813872402674742,0.5933524135801677,-0.12385113719329865,-0.45375,0.08693,-0.26385,0.5,-7.8,-24.1
61.4203,5584.705,-0.5671162293761985,0.47397072378470795,0.05616181120828223,-0.53255,0.11808,-0.26752,0.6,-7.7,-24.2
61.4412,5584.725,-0.6296626404402703,0.3280045786722537,0.22359734724096825,-0.4116,0.24575,-0.27912,0.7,-7.6,-24.3
61.4591,5584.745,-0.6839928178073313,0.18203334191206488,0.34105982654964784,-0.21307,0.29707,-0.26446,0.8,-7.5,-24.2
61.478,5584.765,-0.7187362774072116,0.07954329243175885,0.38927857717489367,0.05449,0.18589,-0.14046,0.9,-7.4,-24.2
61.4985,5584.785,-0.728130034552571,0.03510877853720218,0.3752190982808816,0.23408,0.0796,0.03058,1.0,-7.3,-24.4
61.5198,5584.805,-0.7002471013410199,0.046787876556295134,0.32902797850030474,0.22859,0.05333,0.21568,1.2,-7.3,-24.4
61.5428,5584.825,-0.6268765538387888,0.08255834914642174,0.29054595471511035,0.15406,0.01363,0.31891,1.3,-7.2,-24.5
61.5644,5584.845,-0.5018355865561905,0.09951130658651092,0.29389906881695893,0.11008,-0.22705,0.3067,1.4,-7.2,-24.5
61.5809,5584.865,-0.325053635264309,0.06749098895583135,0.3547029979126357,0.18949,-0.32235,0.27432,1.5,-7.2,-24.5
61.602,5584.885,-0.15915737643495778,-0.031856032540462195,0.46367902392139193,0.29273,-0.36022,0.18941,1.6,-7.3,-24.6
61.6185,5584.905,0.007860234101174755,-0.13223233397862713,0.5957098083126677,0.29212,-0.3028,0.12832,1.6,-7.2,-24.6
61.6464,5584.925,0.13340242117474624,-0.224335194783891,0.717540365381689,0.25119,-0.1171,0.06357,1.7,-7.2,-24.6
61.6628,5584.945,0.227652199865015,-0.20810351893295417,0.8037910930911831,0.24752,0.04906,-0.01584,1.7,-7.2,-24.7
61.6783,5584.965,0.27229660501753733,-0.11300830608747298,0.8417157177792323,0.28906,0.11259,-0.03356,1.7,-7.2,-24.7
61.6993,5584.9849,0.2756493203249656,0.006716445870635761,0.8356292744665037,0.35992,-0.09877,-0.06471,1.8,-7.3,-24.7
61.7209,5585.0049,0.25832622615840656,0.12049434295571655,0.8036711570516406,0.40207,-0.23561,-0.08365,1.8,-7.4,-24.7
61.7455,5585.0249,0.2594016559962541,0.17432656352594414,0.7684275421106239,0.28723,-0.2069,-0.14351,1.8,-7.5,-24.7
61.7646,5585.0449,0.2987227084944385,0.14285868529066237,0.7492582661059153,0.07159,-0.13115,-0.28707,1.8,-7.6,-24.9
61.7825,5585.0649,0.36760504063974997,-0.027825073601078644,0.7576269350512774,-0.17398,-0.08839,-0.38053,1.8,-7.8,-25.0
61.7976,5585.0849,0.4284234405557961,-0.35697042201397,0.7904836439569305,-0.30226,-0.06701,-0.41596,1.7,-7.9,-24.8
61.8221,5585.1049,0.47456517564313094,-0.7694688783925109,0.8261855632554358,-0.37128,-0.08045,-0.34265,1.7,-8.0,-24.7
61.8435,5585.1249,0.46079838299412507,-1.257332268989716,0.82155058878433,-0.35907,-0.19773,-0.23453,1.7,-8.1,-24.7
61.8581,5585.1449,0.4122448281027823,-1.7354575085606638,0.7227968986584461,-0.12022,-0.29181,-0.24614,1.6,-8.1,-24.7
61.8816,5585.1649,0.37337437674753093,-2.0958863166371056,0.49553723833119356,0.07587,-0.11221,-0.29623,1.6,-8.2,-24.7
61.8972,5585.1849,0.3339032930257395,-2.2649124236240707,0.1434883614259288,0.2072,0.181,-0.28707,1.6,-8.2,-24.6
61.9255,5585.2049,0.33535484215550404,-2.259065093879262,-0.30273912433994177,0.24508,0.28913,-0.15329,1.6,-8.3,-24.6
61.9423,5585.2249,0.3197194164896653,-2.045744226470597,-0.7583139049763084,0.28417,0.10709,0.10145,1.6,-8.4,-24.6
61.9637,5585.2449,0.32932136622653735,-1.7329271246495448,-1.1583657904513043,0.3361,-0.10794,0.17658,1.6,-8.5,-24.4
61.9766,5585.2649,0.4034366094466601,-1.358414563340184,-1.4344468334855751,0.27501,-0.1452,0.08678,1.7,-8.5,-24.4
61.9976,5585.2849,0.5207692221608405,-1.0183999559743548,-1.56137274335906,0.13879,-0.02913,0.03669,1.7,-8.6,-24.3
62.02,5585.3049,0.6666937656615395,-0.7344277280012731,-1.542827442247491,-0.08357,-0.06395,0.00982,1.7,-8.7,-24.2
62.0441,5585.3249,0.8035292841936454,-0.5239756535423996,-1.4158385694247837,-0.18986,-0.11466,-0.05555,1.7,-8.7,-24.2
62.063,5585.3449,0.9050068811422339,-0.3946823975092899,-1.2340453585240478,-0.11228,-0.19834,-0.1093,1.7,-8.7,-24.1
62.0781,5585.3649,0.9639657830392109,-0.31592625065884544,-1.0505613726870795,-0.01454,-0.1904,-0.11236,1.8,-8.7,-23.9
62.1004,5585.3848,0.9844323164077683,-0.25199072715042486,-0.9048679833742064,0.02944,-0.16352,-0.10442,1.8,-8.8,-24.0
62.119,5585.4048,0.97683132100616,-0.17040331777268097,-0.8132708562854916,0.07281,-0.10366,-0.09586,1.8,-8.9,-24.1
62.1367,5585.4248,0.9470893375749826,-0.0658860065606227,-0.7682769386736243,0.03128,-0.08045,-0.0922,1.7,-8.9,-24.1
62.1678,5585.4448,0.9005541333962971,0.049911063878760376,-0.7463227542158251,-0.07807,-0.10549,-0.07754,1.7,-9.0,-24.1
62.1844,5585.4648,0.8426283223340915,0.13654239843125845,-0.7183182436767854,-0.1306,-0.17086,-0.08914,1.8,-9.1,-24.2
62.198,5585.4848,0.7760491911920971,0.1739055731710279,-0.6593367798335699,-0.15993,-0.1226,-0.11724,1.8,-9.1,-24.1
62.2222,5585.5048,0.7090048855337764,0.17813882743347387,-0.5568447048496221,-0.17825,-0.00959,-0.12274,1.7,-9.1,-24.1
62.241,5585.5248,0.6325914413848166,0.12257849418975146,-0.40951578733833394,-0.23506,-0.0499,-0.07815,1.8,-9.1,-24.0
62.2567,5585.5448,0.5577157784036809,0.019986913351121405,-0.230447786291462,-0.1642,-0.10183,-0.01828,1.8,-9.1,-24.0
62.2804,5585.5648,0.49400454353666823,-0.11255421352606215,-0.03977544363544894,0.03616,-0.15925,0.05685,1.8,-9.2,-24.0
62.2998,5585.5848,0.4713294313483304,-0.25752706190890023,0.14112620209463245,0.20659,-0.0218,0.13749,1.8,-9.2,-24.1
62.3168,5585.6048,0.49807949833341336,-0.38188856413895333,0.2981989324488481,0.28356,0.09059,0.20835,1.9,-9.1,-24.0
62.3403,5585.6248,0.5518047712813252,-0.4876425467240444,0.42593857032360916,0.27807,0.02645,0.22362,1.9,-9.1,-24.0
62.365,5585.6448,0.6203949492672843,-0.5561252822793413,0.5265598468034867,0.23836,-0.05418,0.18269,2.0,-9.1,-23.9
62.378,5585.6648,0.7104316377804398,-0.5588889485362516,0.6073494159731929,0.27562,-0.11221,0.12466,1.9,-9.2,-23.9
62.3985,5585.6848,0.7755995466230453,-0.5618811631543733,0.6776858269892223,0.39352,-0.13237,0.06235,2.0,-9.2,-23.9
62.4416,5585.7048,0.8145767802850041,-0.6427041838603414,0.746171550540307,0.47171,0.02768,0.01104,2.1,-9.3,-23.8
62.4574,5585.7248,0.832571620001284,-0.5936830119503912,0.8370482111438431,0.39841,0.10037,-0.00607,2.2,-9.3,-23.8
62.4825,5585.7448,0.8262549494784623,-0.601219994061328,0.9467474472784243,0.31105,0.12847,-0.02684,2.2,-9.4,-23.7
62.489,5585.7648,0.7658030240359531,-0.5956974924431071,1.0766616384452945,0.29089,0.11747,-0.03844,2.3,-9.5,-23.6
62.51,5585.7847,0.6851472147481524,-0.7051878440222904,1.1974877876828174,0.22309,-0.01631,-0.0977,2.4,-9.6,-23.5
62.5182,5585.8047,0.5618356342662956,-0.8719660494845656,1.2814763645112706,0.04655,-0.04196,-0.14168,2.5,-9.7,-23.5
62.5392,5585.8247,0.41369151932982473,-1.0665168986923415,1.2924001348938123,-0.28088,-0.13604,-0.14412,2.5,-9.9,-23.6
62.557,5585.8447,0.24056106298534793,-1.2945024282534106,1.1963020072041157,-0.35907,-0.15864,-0.1093,2.6,-10.0,-23.6
62.5774,5585.8647,0.05579260975936978,-1.526534051907315,0.9756742079039569,-0.05608,0.06311,-0.08731,2.7,-10.1,-23.6
62.6035,5585.8847,-0.1337401664432093,-1.7415011076010722,0.6357154918699504,0.26218,0.2146,0.02509,2.8,-10.2,-23.6
62.617,5585.9047,-0.31580047622891705,-1.8483651649897617,0.22166253976013905,0.27929,0.06188,0.19307,2.8,-10.4,-23.7
62.6389,5585.9247,-0.4753726051244554,-1.8779432396389357,-0.21933076730304712,0.19987,-0.04502,0.32197,2.9,-10.5,-23.6
62.6855,5585.9447,-0.6489748009423155,-1.8704246700928113,-0.6410694099256009,0.20049,-0.09205,0.41421,3.0,-10.7,-23.7
62.6913,5585.9647,-0.5892830075872562,-1.7455393250049234,-0.9625383236721934,0.19254,-0.01936,0.45514,3.0,-10.7,-23.7
62.705,5585.9847,-0.47510553369268316,-1.625914121951213,-1.193728838248303,0.15467,-0.01264,0.40443,3.0,-10.8,-23.6
62.7191,5586.0047,-0.3111250488889626,-1.5149484304594798,-1.3336096047700323,0.13024,-0.01997,0.32197,3.0,-10.9,-23.5
62.7367,5586.0247,-0.14026189611786297,-1.4173639756208103,-1.4013250749918704,0.09664,-0.0273,0.22606,3.0,-11.0,-23.6
62.7571,5586.0447,0.011262822881485127,-1.3264974054772904,-1.4204298452058062,0.08076,0.0234,0.08006,3.1,-11.0,-23.6
62.7805,5586.0647,0.12778325099442292,-1.2360014062381188,-1.4114793121455627,0.06793,0.08449,-0.03905,3.1,-11.1,-23.6
62.7964,5586.0847,0.19133548579352125,-1.1390204568084414,-1.3851813111331062,0.01661,0.1694,-0.02317,3.0,-11.2,-23.7
62.8207,5586.1047,0.22007527207071603,-1.0392872311485388,-1.3442386003999829,0.01784,0.21827,0.00737,3.1,-11.2,-23.7
62.8424,5586.1247,0.2161311430384799,-0.9352685892746934,-1.2843560831545577,0.0441,0.08204,0.02264,3.1,-11.2,-23.6
62.8601,5586.1447,0.20564042558278917,-0.8284671229943569,-1.2016004471764,0.01845,-0.01814,0.04097,3.1,-11.3,-23.6
62.8778,5586.1647,0.21062465104055317,-0.7222760221126293,-1.0951101346770145,0.00867,-0.04318,0.08251,3.1,-11.3,-23.6
62.903,5586.1847,0.23650464556316206,-0.6230102699355101,-0.9679990701384042,0.04899,0.00568,0.09656,3.1,-11.3,-23.6
62.9177,5586.2047,0.29284320406993103,-0.5308150945483755,-0.8262004852756828,0.03494,0.03928,0.10022,3.2,-11.4,-23.5
62.9452,5586.2246,0.35608427235580015,-0.4606654331409996,-0.6761124741528644,0.03005,0.09854,0.07212,3.2,-11.4,-23.6
62.964,5586.2446,0.4084506043770445,-0.4191997069240059,-0.5208413807953978,0.0606,0.06738,0.03975,3.2,-11.4,-23.5
62.9914,5586.2646,0.4298920394836587,-0.42413146210919167,-0.3595054914035192,0.03189,-0.02852,0.03181,3.3,-11.4,-23.5
63.0184,5586.2846,0.4219366546544054,-0.4691209094632738,-0.18761778039778854,0.09481,-0.15192,0.05441,3.4,-11.4,-23.6
63.0232,5586.3046,0.4132831539604294,-0.5099977521122807,0.0010435852376815546,0.13207,-0.15619,0.00676,3.5,-11.4,-23.7
63.0579,5586.3246,0.38107607227812473,-0.564917992136048,0.21004269992477376,0.06976,-0.06273,-0.02195,3.6,-11.4,-23.6
63.0715,5586.3447,0.3584305310356266,-0.5967831086608208,0.43909560914342904,-0.02492,-0.14153,-0.05249,3.6,-11.4,-23.6
63.0827,5586.3647,0.34887934427074874,-0.6236564458482949,0.6810438931402079,0.01112,-0.2069,-0.06838,3.8,-11.4,-23.7
63.0989,5586.3847,0.3654078634176702,-0.6757261000099478,0.9230594352703072,0.16322,-0.22278,-0.05249,3.8,-11.3,-23.6
63.119,5586.4047,0.43116144252931693,-0.7725833479427182,1.148382665830317,0.17239,-0.15436,-0.05249,3.8,-11.4,-23.4
63.1418,5586.4248,0.5546305775275632,-0.9003256615102694,1.33805754932391,-0.00965,0.02951,-0.0812,3.8,-11.3,-23.4
63.1578,5586.4448,0.6989393932531902,-1.066676503057553,1.4683090946415849,-0.28332,0.1303,-0.1429,3.9,-11.3,-23.3
63.1836,5586.4648,0.8372384950262306,-1.2200872686469797,1.5160560701596388,-0.5521,-0.19651,-0.19727,4.0,-11.2,-23.3
63.1999,5586.4849,0.9282703562501056,-1.4663799045616646,1.4398516534864374,-0.48979,-0.47446,-0.24553,4.0,-11.1,-23.3
63.221,5586.5049,0.9723843061018852,-1.71655346580126,1.2200433410687825,-0.11839,-0.34923,-0.36831,4.0,-11.0,-23.2
63.2476,5586.5249,0.9813352141796982,-1.941138708995621,0.8516984894133799,0.21637,-0.21178,-0.42512,3.9,-10.9,-23.2
63.266,5586.5449,0.92638048740438,-2.027744447841219,0.3872649135720465,0.36786,-0.02852,-0.38786,3.9,-10.8,-23.3
63.2898,5586.565,0.8318748005886105,-1.9906095403485513,-0.10869736730783863,0.35198,-0.07067,-0.26141,3.9,-10.7,-23.2
63.305,5586.585,0.7009892517705049,-1.8111795507654995,-0.5465759296847619,0.2689,-0.26187,-0.19849,4.0,-10.6,-23.1
63.3225,5586.605,0.5740563010691143,-1.5984372004743403,-0.8778091739383616,0.14612,-0.24905,-0.18505,4.0,-10.6,-23.1
63.342,5586.625,0.47232674161662214,-1.4115436776005308,-1.0746968336474847,0.03738,-0.27959,-0.24492,4.0,-10.5,-23.1
63.3667,5586.6451,0.40402642468568634,-1.2792088977845557,-1.1441932649217375,-0.0909,-0.30769,-0.30478,4.0,-10.4,-23.1
63.3879,5586.6651,0.3564752812837288,-1.204735360994637,-1.1233843546652693,-0.16664,-0.16841,-0.30661,3.9,-10.3,-23.0
63.404,5586.6851,0.315341083146349,-1.1649223999666642,-1.065212740239259,-0.14099,-0.10488,-0.22415,4.0,-10.1,-23.1
63.4221,5586.7052,0.28752446180997493,-1.115198080268327,-1.020629573767236,-0.03714,-0.01081,-0.15878,4.0,-10.0,-23.2
63.4441,5586.7252,0.2750867271984254,-1.028453125629494,-1.0247753538526023,0.01784,0.04783,-0.10319,4.0,-9.8,-23.2
63.4662,5586.7452,0.27522124977007595,-0.8945364508402454,-1.0862656948108373,0.08076,-0.0273,-0.06104,4.0,-9.7,-23.3
63.4817,5586.7652,0.2988221989449741,-0.7120720591115969,-1.187136152753892,0.15589,-0.16414,-0.00423,4.0,-9.6,-23.4
63.4996,5586.7853,0.34687068888642264,-0.5141327829293901,-1.294263373390839,0.162,-0.16902,0.05868,4.0,-9.5,-23.5
63.5173,5586.8053,0.4182313133531284,-0.3257055195702025,-1.3698005325080906,0.07953,-0.08656,0.04525,4.0,-9.5,-23.4
63.5411,5586.8253,0.49500230749346,-0.17144945298056308,-1.3845155324403926,-0.04447,-0.02791,0.00737,4.1,-9.4,-23.4
63.5621,5586.8454,0.5600026809202642,-0.0695010865619836,-1.3251197421224763,-0.09029,-0.04074,-0.01645,4.1,-9.3,-23.3
63.5776,5586.8654,0.5983445536372336,-0.02818239313151934,-1.1952511644670274,-0.04386,-0.09938,-0.00912,4.0,-9.3,-23.4
63.5978,5586.8854,0.6100116934012869,-0.033393321056790236,-1.012375012895676,-0.0121,-0.00226,-0.00362,4.0,-9.2,-23.4
63.6225,5586.9054,0.6099105070944506,-0.07052003430252281,-0.8003901618464315,0.01173,0.08754,-0.0189,4.0,-9.1,-23.4
63.6427,5586.9255,0.601218671309787,-0.11784876451023987,-0.5793874974785673,0.04716,0.24331,-0.03722,4.0,-9.0,-23.4
63.6583,5586.9455,0.5864004703821566,-0.1644171558924119,-0.3607495832482588,-0.02798,0.21155,-0.01584,4.0,-8.9,-23.4
63.6801,5586.9655,0.5789902311125815,-0.2085693744584002,-0.145864114355593,-0.02187,0.04783,0.04219,4.0,-8.8,-23.4
63.6978,5586.9855,0.5891420443022415,-0.25996624785565675,0.07320452568140645,-0.04081,0.05578,0.0483,4.0,-8.7,-23.2
63.729,5587.0055,0.6426517543761835,-0.3223586579169036,0.3081990327457955,-0.06585,0.17489,0.0312,4.1,-8.6,-23.1
63.7411,5587.0255,0.7110834474298415,-0.41511195361279823,0.5711971371776396,0.00379,0.42229,0.0031,4.2,-8.6,-23.1
63.7567,5587.0454,0.8007795797089673,-0.5393756828314723,0.8621402121155466,-0.04447,0.46506,0.02325,4.3,-8.4,-22.9
63.7771,5587.0654,0.8866720789578117,-0.6990665340961858,1.1658504610895388,-0.15565,0.30073,0.01531,4.4,-8.2,-22.8
63.7995,5587.0854,0.9264089599443258,-0.8938316537803194,1.4494285283975898,-0.16787,0.20483,-0.01034,4.5,-8.1,-22.6
63.8173,5587.1054,0.8934716685366454,-1.1199578599171884,1.6637771352694557,-0.02737,0.01546,-0.07021,4.6,-7.9,-22.5
63.8398,5587.1254,0.7933009464948372,-1.3404710014229306,1.7577547075955646,-0.15565,-0.13298,-0.11908,4.7,-7.7,-22.5
63.8617,5587.1454,0.6359807445175254,-1.5478622674464955,1.693254320871814,-0.24972,0.09121,-0.17528,4.8,-7.6,-22.5
63.8801,5587.1654,0.418661182634224,-1.7244519142722496,1.4661708329213283,0.06365,0.07349,-0.37075,4.9,-7.4,-22.4
63.9071,5587.1854,0.19678372537184177,-1.8602569990500402,1.1081815022105008,0.18766,0.28485,-0.36892,5.1,-7.2,-22.3
63.9301,5587.2054,-0.08444763456388843,-1.9301828920580995,0.6863898283032963,0.02822,0.34288,-0.21743,5.2,-7.1,-22.3
63.9498,5587.2254,-0.38329055837983617,-1.9517987730997297,0.2640434798948732,-0.0744,0.19505,0.00248,5.3,-6.9,-22.2
63.9662,5587.2454,-0.6287071620972593,-1.9603409193669892,-0.11134776254704626,-0.06219,-0.10061,0.14604,5.4,-6.7,-22.1
63.9879,5587.2654,-0.7809968146261587,-1.971604545038919,-0.41348647753606116,-0.01332,-0.22828,0.245,5.5,-6.6,-22.1
64.0227,5587.2854,-0.8525502416257404,-1.9775349953280417,-0.6403788812149536,0.01845,-0.27104,0.36228,5.6,-6.4,-22.2
64.0275,5587.3054,-0.6688508569399749,-1.9778148210819622,-0.7933698177309321,-0.01698,-0.20934,0.41176,5.6,-6.2,-22.1
64.0443,5587.3254,-0.4426180939273523,-1.9280850366669708,-0.9082393762975585,-0.06646,-0.09999,0.37206,5.5,-6.0,-22.2
64.0595,5587.3454,-0.17235908156948232,-1.8176997430705453,-1.00449220774669,0.09725,-0.08228,0.35007,5.5,-5.9,-22.2
64.1001,5587.3655,0.03926385136282431,-1.6700482367377492,-1.0980094119995059,0.17361,0.05089,0.3574,5.4,-5.8,-22.3
64.1018,5587.3855,0.2663611150064959,-1.4255883450606186,-1.1708255574354727,0.11008,0.2653,0.38611,5.3,-5.7,-22.4
64.1243,5587.4055,0.39782063551138946,-1.171076685276394,-1.2202712090569392,0.06671,0.16573,0.22789,5.2,-5.6,-22.5
64.1413,5587.4256,0.46434904438763336,-0.9241382281153474,-1.227337459377928,0.02944,-0.0835,0.24439,5.1,-5.5,-22.4
64.1621,5587.4456,0.4673717107653596,-0.7268347525696298,-1.1810767414872387,0.04349,-0.07739,0.24011,5.1,-5.4,-22.3
64.1787,5587.4656,0.4499808915983414,-0.5933530397113774,-1.0802869621709146,0.14367,-0.11954,0.19857,5.0,-5.3,-22.2
64.199,5587.4856,0.4207896564945111,-0.5260308284952273,-0.9338932515878611,0.14612,-0.10366,0.16436,4.9,-5.2,-22.2
64.2206,5587.5057,0.4001956535421381,-0.506186598121982,-0.760783182836807,0.04594,-0.06029,0.05502,4.8,-5.0,-22.2
64.2544,5587.5257,0.3861916847405737,-0.5261750832420722,-0.5849433159299959,0.04533,-0.03891,-0.04822,4.7,-4.9,-22.2
64.2662,5587.5457,0.361138733896863,-0.5634500573901361,-0.4278618036297086,0.0496,-0.0554,-0.03783,4.6,-4.8,-22.1
64.2825,5587.5658,0.31565164311770133,-0.6207650150698579,-0.3056064429190499,0.2072,-0.078,-0.0415,4.5,-4.6,-22.1
64.2991,5587.5858,0.2504899064613292,-0.6718136761378622,-0.22091686956740375,0.29334,-0.14825,0.05013,4.5,-4.5,-22.0
64.3191,5587.6058,0.17437097163577314,-0.6984807600407447,-0.16341515365282966,0.22125,-0.06029,0.09595,4.5,-4.4,-21.9
64.3476,5587.6258,0.09859120338463906,-0.6933605444778422,-0.11179009551688601,0.05938,0.00507,0.06357,4.4,-4.3,-21.9
64.361,5587.6459,0.0482756026686077,-0.6523444710378336,-0.03872781715603146,0.03494,-0.06884,0.0092,4.4,-4.2,-21.8
64.3816,5587.6659,0.011878022967164578,-0.6287546354633963,0.07851637611145712,0.16078,-0.15803,0.03425,4.4,-4.0,-21.7
64.4025,5587.6859,-0.0008603078136905862,-0.6537308175277362,0.25520360494798666,0.15223,-0.09999,0.09473,4.3,-3.9,-21.7
64.4231,5587.7059,0.020334643829041932,-0.7494549644778221,0.49048363456649646,0.016,-0.12748,0.16864,4.2,-3.7,-21.4
64.4518,5587.726,0.06283772522213031,-0.9120955196163429,0.764004018696216,-0.0909,-0.06884,0.2505,4.2,-3.5,-21.3
64.4659,5587.746,0.17698420704601886,-1.1634873222006545,1.0312871777109418,-0.20513,-0.06884,0.18819,4.1,-3.3,-21.3
64.4808,5587.766,0.31056844489286883,-1.4625997074338637,1.2375885439376688,-0.50567,-0.12565,0.11,4.1,-3.1,-21.4
64.5079,5587.7861,0.43657726768897964,-1.7176840366283366,1.3332983812664274,-0.58692,-0.15864,0.02753,4.0,-2.9,-21.4
64.5215,5587.8061,0.5555910703906423,-2.0224233246498398,1.2528463234782414,-0.22773,0.02035,-0.09037,3.9,-2.7,-21.3
64.5461,5587.8261,0.6801491470762078,-2.261894684980016,0.9925808527778273,0.19254,0.22743,-0.12152,3.9,-2.4,-21.3
64.56,5587.8461,0.7402329749325204,-2.3560255541615587,0.6026073019060849,0.36908,0.54997,-0.00851,3.8,-2.1,-21.2
64.5808,5587.8662,0.7777566754498568,-2.3264646903931463,0.1503585315962752,0.31533,0.597,0.02325,3.7,-1.9,-21.1
64.5991,5587.8862,0.7520668061155312,-2.174479074228294,-0.2681524828540276,0.18705,0.25919,0.01837,3.5,-1.6,-21.1
64.6258,5587.9062,0.6873543713448595,-1.9833913432481074,-0.5949852469992809,0.10214,-0.05418,0.02387,3.4,-1.3,-21.1
64.6515,5587.9262,0.6124495030357985,-1.8015628869467093,-0.8013117590438146,0.00134,-0.12382,0.0709,3.3,-1.0,-21.0
64.6861,5587.9462,0.552736198916316,-1.6584964997546203,-0.8952485779315804,-0.0066,-0.07251,0.05074,3.2,-0.7,-20.9
64.6898,5587.9662,0.5235280769523626,-1.5682886712661126,-0.9116787113892428,-0.04386,0.07532,0.01959,3.1,-0.5,-20.8
64.7059,5587.9862,0.5085711204256369,-1.4948872484477662,-0.8874790341358754,-0.06096,0.30867,0.05624,3.0,-0.2,-20.7
64.719,5588.0062,0.495867229437558,-1.4192670813244004,-0.8582342910254752,0.07281,0.15596,0.04402,2.9,0.0,-20.8
64.7403,5588.0262,0.49711898064423454,-1.3277544694830574,-0.8452146052454204,0.08686,0.14557,0.08862,2.8,0.3,-20.8
64.7603,5588.0462,0.5133981601503451,-1.208828437949672,-0.8510920291340653,0.0441,0.21765,0.09534,2.7,0.6,-20.7
64.7818,5588.0662,0.5496866213308499,-1.0704868280082211,-0.8688826109015579,0.01784,0.18467,0.16803,2.6,0.9,-20.5
64.8068,5588.0862,0.6000012341983268,-0.9334601125645412,-0.8877253935516531,0.02517,0.04967,0.21629,2.4,1.1,-20.3
64.8208,5588.1062,0.6799765530732687,-0.8171151646837632,-0.8996001578797888,0.05082,0.04234,0.234,2.3,1.4,-20.1
64.8392,5588.1262,0.7633805995221481,-0.7411946926136069,-0.8978988983771128,0.11374,0.06433,0.17169,2.2,1.7,-19.9
64.8592,5588.1462,0.8482401598482203,-0.7105731666333521,-0.8796183343776143,0.17055,0.10281,0.07579,2.1,1.9,-19.6
64.8809,5588.1662,0.9273650290089239,-0.7267597857546826,-0.8419320487946091,0.05082,0.27385,0.06663,2.1,2.1,-19.5
64.9081,5588.1862,0.9994492886839671,-0.7915328370675255,-0.7820830951820472,-0.0292,0.3832,0.06174,2.0,2.3,-19.3
64.9226,5588.2062,1.0531157085620306,-0.9091496083086263,-0.6979867962640895,0.05143,0.2818,0.09411,1.9,2.5,-19.1
64.9428,5588.2262,1.1230656107882635,-1.0655287662531872,-0.5970895841165849,0.12352,0.17673,0.15764,1.8,2.7,-18.9
64.962,5588.2462,1.2246623430655517,-1.236185469255503,-0.4923263035544796,0.01539,0.25797,0.25294,1.7,2.9,-18.7
64.9866,5588.2661,1.3554406293089956,-1.3943077350954198,-0.4005831381590479,0.29761,0.30318,0.24744,1.7,3.1,-18.5
65.0037,5588.2861,1.513852719226369,-1.4585597150665004,-0.3287445272994223,0.45094,-0.24233,0.01898,1.6,3.3,-18.2
65.0213,5588.3061,1.6815346476090844,-1.4122377549830725,-0.27836438636536265,0.37703,-0.28325,0.04952,1.6,3.4,-18.0
65.0433,5588.3261,1.8605951862821513,-1.2681080291245224,-0.24127623995795489,0.3642,0.11747,0.03975,1.5,3.5,-17.8
65.0604,5588.3461,2.051116938405701,-1.0423200639694605,-0.1948430501700802,0.36298,0.2427,-0.05005,1.5,3.5,-17.5
65.0782,5588.3661,2.2389537366950387,-0.847377488131205,-0.12026367846455521,0.30555,0.33555,-0.08426,1.5,3.6,-17.1
65.0991,5588.3861,2.3941355958300847,-0.7848376113001425,0.00028588877776236643,0.10397,0.35021,-0.04944,1.6,3.6,-16.9
