AppTimestamp(s),SensorTimestamp(s),acc_x,acc_y,acc_z,gyro_x,gyro_y,gyro_z,mag_x,mag_y,mag_z,yaw_deg_ori,yaw_deg_ori_cal,yaw_deg,yaw_error,Quat_w,Quat_x,Quat_y,Quat_z,q_w,q_x,q_y,q_z,quat_angle_error_deg
0.0729,5523.278,-0.12408177072765691,0.41910782773671684,-0.11488385357331232,0.2798131518487494,-0.0473879587856911,-0.3796177353772314,2.165975977746261,11.999297148295273,-16.413499420567113,3.711998,2.381462242370254,0.0,3.711997999999994,0.8915985220999639,0.43100801,0.114911,0.077972,1.0,0.0,0.0,0.0,53.850382305372555
0.0767,5523.298,-0.27583444242420907,0.21886549358155705,0.04702836354145923,0.10870320812713428,-0.05938990814789234,-0.16207436289955446,2.2462160528579265,11.942045806483776,-16.467349461607554,3.649772,2.324446564699487,0.0,3.649772000000013,0.890734413940665,0.43338901,0.113272,0.077043,1.0,0.0,0.0,0.0,54.068642892119044
0.0834,5523.318,-0.39864564098577,0.054055200233291245,0.2290546308057646,0.0075204603720001595,-0.059617597864954075,0.020349330360857263,2.3276276276035777,11.795686268736036,-16.590941102396336,3.921925,2.5021309876693816,0.0,3.9219249999999874,0.8913079772850571,0.43249899,0.111646,0.077781,1.0,0.0,0.0,0.0,53.923860695495954
0.0888,5523.338,-0.462197231333853,-0.03235216322034962,0.41079978453172217,0.0153900617589579,-0.04911371836479637,0.1333119321445086,2.3362293388814046,11.555499694784807,-16.798987982014552,4.584679,2.963970928663593,0.0,4.584678999999994,0.8933173817301776,0.42763701,0.111756,0.081371,1.0,0.0,0.0,0.0,53.413771865719504
0.0921,5523.358,-0.44405788520778955,-0.06889459684875021,0.5312309755131359,0.11391391452684063,-0.04885912914165073,0.15765896276905772,2.1881406106818284,11.404152252507144,-16.979493907686745,5.193504,3.3948509034574603,0.0,5.19350399999999,0.8941001440046075,0.42399701,0.115429,0.086531,1.0,0.0,0.0,0.0,53.21384189608639
0.0979,5523.378,-0.4173043679052739,-0.0982080685641522,0.5410574417198148,0.23319976831292263,-0.08098904312043967,0.10606267947972997,2.002073851476981,11.493574554926155,-17.018998418858722,5.506958,3.580897655511261,0.0,5.506957999999997,0.8919937667971677,0.426433,0.119525,0.090641,1.0,0.0,0.0,0.0,53.75027625686196
0.1326,5523.398,-0.4643996042918856,-0.10377348175933587,0.4598828845223526,0.30369205946160105,-0.14337078801104422,0.022531431872388083,1.9200885888981227,11.745638676887543,-16.946020853205393,5.700368,3.637830950674674,0.0,5.700367999999997,0.88834126075788,0.43320501,0.120605,0.092939,1.0,0.0,0.0,0.0,54.66891021608613
0.1651,5523.418,-0.5872665358803616,-0.05432019390085063,0.36161910543432185,0.30771475802008036,-0.2098189633486231,-0.04249016955965414,1.9680774759871684,11.950884847019328,-16.885732893020066,5.976401,3.748138091449693,0.0,5.97640100000001,0.885764987371831,0.43884099,0.118381,0.093941,1.0,0.0,0.0,0.0,55.30838320582578
0.1663,5523.438,-0.7488324052315176,0.023246864613351903,0.3095047208819839,0.2796664146358513,-0.25340856777972964,-0.06390809357296345,2.122415483069223,12.009182590553877,-16.898303077151475,6.395194,3.9787953400914775,0.0,6.395194000000004,0.8853638400390316,0.44086701,0.113601,0.094138,1.0,0.0,0.0,0.0,55.407342243098974
0.176,5523.458,-0.8880896582432761,0.10109376611509724,0.32018688808229534,0.2654250097299441,-0.2672427666034597,-0.05824322993443587,2.217186440394642,11.950371997872518,-16.975869490160367,6.966803,4.3412509158156585,0.0,6.966802999999999,0.8862068478126424,0.43979901,0.109918,0.095563,1.0,0.0,0.0,0.0,55.19919154419519
0.2045,5523.478,-0.9729755657986703,0.1458932061805447,0.37123298259661297,0.2805898775894121,-0.27237941438837554,-0.06888695554972077,2.141717323732178,11.916183322566424,-17.03396462719989,7.557814,4.713382563250594,0.0,7.557814000000008,0.886090466773004,0.439381,0.109618,0.098853,1.0,0.0,0.0,0.0,55.22797068581862
0.2137,5523.498,-1.0249796148064707,0.1521793615182201,0.4329943492048969,0.3056488013147489,-0.29901915102409654,-0.13035851693617412,1.9634728270795647,11.988486027297558,-17.010485500742952,8.009521,4.95391459605538,0.0,8.009521000000007,0.8840699659053914,0.44224799,0.11115,0.102385,1.0,0.0,0.0,0.0,55.72542521823793
0.2311,5523.518,-1.0762897058825995,0.15643582943838208,0.49668103850708256,0.3155656823084196,-0.35718492917764355,-0.24165837143169422,1.7956578096081506,12.092905885084477,-16.948674086982834,8.293083,5.061633130382899,0.0,8.293082999999996,0.8814359563714995,0.44667301,0.112187,0.104728,1.0,0.0,0.0,0.0,56.36785986045322
0.2516,5523.538,-1.1709287203054575,0.1675872012334736,0.5666814296915721,0.3060516519768566,-0.4276114024656965,-0.36498818457444415,1.775727702862186,12.138422455575565,-16.907856239253174,8.625795,5.203472593735292,0.0,8.62579500000001,0.8799105458942972,0.450122,0.109668,0.105454,1.0,0.0,0.0,0.0,56.73685097489298
0.2734,5523.5579,-1.30940344881625,0.15624818637419402,0.6406402150741659,0.29129025826222243,-0.4777974890363267,-0.4490455467808555,1.9134050373007934,12.10837115609112,-16.906687309019716,9.018733,5.396990205859733,0.0,9.018732999999997,0.8798264318440313,0.45201999,0.103313,0.10445,1.0,0.0,0.0,0.0,56.757133824759684
0.29,5523.5779,-1.4666415764074427,0.10324265052239756,0.6954601967286287,0.28233774492641084,-0.49113464721918226,-0.458167226792645,2.097473687643274,12.03330141929738,-16.933467369723154,9.319228,5.545543847046651,0.0,9.31922800000001,0.8804050109551853,0.453116,0.095573,0.10217,1.0,0.0,0.0,0.0,56.6174833956978
0.3171,5523.5979,-1.618007321931119,0.020127334752078063,0.6961112274368038,0.2701822598532269,-0.484919385900238,-0.3941610832303883,2.199137587545809,11.959856052813027,-16.96342141266205,9.378348,5.5449000054450215,0.0,9.378347999999988,0.8805839140703285,0.45467901,0.089339,0.099285,1.0,0.0,0.0,0.0,56.57423793621043
0.3395,5523.6179,-1.7447555745825865,-0.04831275682155667,0.6214627348879578,0.22684735370509157,-0.4994645562416261,-0.2970881852765075,2.109838530886762,11.897128672147524,-16.996225457614017,9.269359,5.44126508285033,0.0,9.269359000000009,0.8799345818312063,0.45677701,0.087023,0.097452,1.0,0.0,0.0,0.0,56.731053845413264
0.3521,5523.6379,-1.862662233649989,-0.1035423371787898,0.4757728045364793,0.12111614409284968,-0.5660291250362373,-0.21950427963386182,1.8326216125208075,11.863718534496744,-17.00966337413545,9.554801,5.561424533243298,0.0,9.554800999999998,0.8782022179855047,0.45943299,0.088125,0.09958,1.0,0.0,0.0,0.0,57.14749459785098
0.3705,5523.6579,-1.950443296563184,-0.19105198373416155,0.288126064702686,-0.06271756120033234,-0.6819220718413828,-0.18471090538978419,1.51212312833856,11.833817183166602,-16.99985166686771,10.121654,5.833110236785586,0.0,10.121654000000007,0.8760391236617232,0.462466,0.089443,0.103347,1.0,0.0,0.0,0.0,57.66360975553903
0.3957,5523.6779,-1.9633505878836472,-0.39716769895585813,0.0863100391400824,-0.29297547309945493,-0.798360006711113,-0.1621902647335572,1.3012342275083997,11.746848635005497,-16.99701228867712,10.818497,6.190370380035719,0.0,10.818497000000008,0.8748285121047666,0.46442801,0.087744,0.10622,1.0,0.0,0.0,0.0,57.95062682512169
0.4102,5523.6979,-1.8793426352037428,-0.7529638120359694,-0.11342931957303293,-0.4844846617297439,-0.8415602030184443,-0.08004218130827351,1.3091599494269468,11.458842553841993,-17.094937014355608,11.524549,6.6547824098790835,0.0,11.524549000000007,0.8770744241243157,0.461279,0.081041,0.106745,1.0,0.0,0.0,0.0,57.41711625789783
0.4307,5523.7179,-1.6217244152469665,-1.2916308202166835,-0.28528041342435806,-0.5239178038994763,-0.7577886327735337,0.13238414919043942,1.2513017205468095,10.985225134237508,-17.298021304029515,12.165839,7.217120200956106,0.0,12.165839000000005,0.8818405982779427,0.45260999,0.075991,0.10829,1.0,0.0,0.0,0.0,56.269605930437095
0.4528,5523.7379,-1.2917119850650098,-1.9403382599190868,-0.45955332163592644,-0.35821391512127093,-0.5327056736325958,0.4932764499335187,1.24530202726072,10.470290432648913,-17.501914513438745,12.71246,7.7766549331969825,0.0,12.712459999999993,0.8875250586867957,0.442211,0.069661,0.109069,1.0,0.0,0.0,0.0,54.872248495156434
0.4723,5523.7579,-0.8384595764813206,-2.5573548033587783,-0.6967985302107476,-0.002377061579386802,-0.2278961279550054,0.9625795983317844,0.9882020154852809,10.086366769643025,-17.63570435922857,13.269352,8.308486153617567,0.0,13.269351999999998,0.8911028735421292,0.43414801,0.068957,0.112677,1.0,0.0,0.0,0.0,53.97567543138122
0.4967,5523.7779,-0.17656798492909198,-2.964436132027843,-1.0856039362772254,0.4569059426177447,0.05942113663679327,1.439552599414876,0.24585513704173834,9.940721466495557,-17.649397162397236,13.894186,8.777255495440555,0.0,13.89418599999999,0.8902695407277056,0.43162599,0.079547,0.12162,1.0,0.0,0.0,0.0,54.185726387597775
0.5128,5523.7979,0.5571432646556226,-3.005766013788399,-1.6661809232504012,0.8810557346501037,0.24621089205104674,1.81918011767715,-0.6748226923908867,10.000519722712463,-17.518594442661286,14.918726,9.3722217445251,0.0,14.918725999999992,0.8855151924655047,0.43461099,0.094322,0.13446,1.0,0.0,0.0,0.0,55.370024246836095
0.5378,5523.8179,1.2568812772440163,-2.6425078241573057,-2.3635780473653583,1.1510494167809455,0.30202211116088884,2.050278594484102,-1.579736352521215,10.176160565044347,-17.273628526502005,16.865025,10.428420553108108,0.0,16.865025000000003,0.8777603569885688,0.44106501,0.108813,0.152178,1.0,0.0,0.0,0.0,57.25326876581514
0.5543,5523.8379,1.8388816596826847,-1.9442273112177162,-3.0328852752667324,1.2165868331509528,0.24642248708725578,2.1391567736063877,-2.2646469039749926,10.320479226635586,-17.019188647262848,19.365429,11.774603695011018,0.0,19.365429000000006,0.869901667969087,0.44723201,0.118952,0.17060199,1.0,0.0,0.0,0.0,59.10557060886206
0.5723,5523.8579,2.3328716011479336,-1.0783375886612965,-3.5730025948943673,1.105052390837404,0.1273877055233884,2.1255193141219872,-2.7516290220045545,10.371861595372357,-16.811922172417212,21.949778,13.189319045945942,0.0,21.94977800000001,0.8632460771297487,0.45135501,0.125908,0.187702,1.0,0.0,0.0,0.0,60.633940776276965
0.603,5523.8779,2.7721137681859838,-0.19483167520102018,-3.9332814025077862,0.8711239039715348,0.001168454887720216,2.0657169456728393,-3.060465882115121,10.317136802208243,-16.675046109596998,24.652,14.765960975137757,0.0,24.651999999999987,0.8581598837689046,0.45258701,0.130362,0.204285,1.0,0.0,0.0,0.0,61.77880332986037
0.611,5523.8979,3.161060139903456,0.6210845544759536,-4.09090223966733,0.5615875153738985,-0.0883996211261967,2.0018227111584834,-3.1289786845473118,10.185537625156377,-16.61586505838327,27.540972,16.594156830560433,0.0,27.54097200000001,0.8550377771592901,0.45082501,0.130817,0.22035,1.0,0.0,0.0,0.0,62.47218301658498
0.6376,5523.9179,3.4821315622162334,1.3634495276250411,-4.04899404007501,0.20471752710215496,-0.12331844516173218,1.9363121839489914,-3.016726856564967,10.028136672810625,-16.600155559172542,30.767298,18.76891238625987,0.0,30.76729800000001,0.8528285056276671,0.44699401,0.128383,0.237482,1.0,0.0,0.0,0.0,62.958681854026985
0.658,5523.9379,3.6995028152467615,2.034451201039193,-3.832195213575101,-0.1794246792066591,-0.13797936298237723,1.838817336266568,-2.8903139804271136,9.9387853344201,-16.54421559220686,34.202888,21.079946204711394,0.0,34.202888,0.8492973587018505,0.44399399,0.126504,0.25604701,1.0,0.0,0.0,0.0,63.72934340824864
0.6713,5523.9579,3.7859020432714283,2.6447099302817665,-3.480620290556475,-0.564725871034425,-0.17949223076724496,1.6813276483251425,-2.868499712834967,9.853534111285786,-16.468288863327416,37.206699,23.19933220405988,0.0,37.206699000000015,0.8449087860935048,0.440851,0.12873,0.274241,1.0,0.0,0.0,0.0,64.67567124010898
0.6982,5523.9778,3.702621318129333,3.1424355563002986,-2.980109923215375,-0.9277758061047897,-0.27119538445137525,1.452478313810483,-2.705282121529241,9.71692103666957,-16.44827359828808,39.60392,25.205457720852976,0.0,39.603920000000016,0.8427306561864709,0.434654,0.129823,0.28987399,1.0,0.0,0.0,0.0,65.14079292857967
0.7138,5523.9978,3.485328586437292,3.467696729367157,-2.3196676298957613,-1.2142587196528811,-0.40235300664126883,1.1628214565835784,-2.3196542893650016,9.58280076982604,-16.46328891879834,41.569515,27.152884072373244,0.0,41.569514999999996,0.8429021652969458,0.42607,0.12736399,0.302917,1.0,0.0,0.0,0.0,65.1042759193247
0.7661,5524.0178,3.189107383869482,3.634015328861508,-1.5159637915408162,-1.368269325041548,-0.5304643945490304,0.8372898822065747,-1.7292429149717274,9.47315233476558,-16.492258284009093,43.19466,29.04428536253689,0.0,43.19466,0.8450159743744257,0.415609,0.121312,0.31384799,1.0,0.0,0.0,0.0,64.65270511975646
0.7702,5524.0378,2.8613585980794163,3.727154238470016,-0.6236975271153717,-1.355394336043486,-0.6148772671153508,0.49682926230741264,-0.9945904645582644,9.37207559028457,-16.52738325320548,44.323578,30.738926251488113,0.0,44.323578,0.848936027060037,0.40337601,0.112946,0.32224,1.0,0.0,0.0,0.0,63.80773255544262
0.7707,5524.0578,2.5284335937027937,3.8155857860653586,0.2928104315401754,-1.1738608571683808,-0.6533685568252405,0.14175091393048406,-0.25582487801123266,9.34071189344327,-16.514981492382525,45.194225,32.1943202125929,0.0,45.19422500000002,0.8527479269057181,0.391882,0.104497,0.329135,1.0,0.0,0.0,0.0,62.976362121435365
0.7941,5524.0778,2.2106571887718767,3.8911483908803057,1.1765440879114912,-0.8590020755620508,-0.664747370124854,-0.24334922180734392,0.34634861241775816,9.473468785497056,-16.3988900898541,46.142593,33.41438003404471,0.0,46.142593000000005,0.8543526114052089,0.38449499,0.097745,0.335695,1.0,0.0,0.0,0.0,62.62342497818114
0.8118,5524.0978,1.9094565585067773,3.8937807448164303,1.9934911561962316,-0.4728950679826659,-0.6555234233772121,-0.6645010259384067,0.8864923276566818,9.77234282058307,-16.175541580467833,46.928566,34.172632336650516,0.0,46.92856599999999,0.8549072288312457,0.38177899,0.090353,0.33943301,1.0,0.0,0.0,0.0,62.50102532647414
0.8302,5524.1178,1.6033854881208685,3.7628539009886484,2.7332171755802115,-0.07225644702450706,-0.6262582758089037,-1.095246024745948,1.533180365505816,10.171428445482016,-15.859416610913925,47.19289,34.2857530038205,0.0,47.192890000000006,0.8566000930381223,0.38233501,0.078555,0.33746901,1.0,0.0,0.0,0.0,62.126083430189766
0.8528,5524.1378,1.3131787033031328,3.4736633743310046,3.3823079695311726,0.300025599310357,-0.5704375917303034,-1.4906977010391995,2.2179075094216123,10.623706589072794,-15.466506526101998,47.130089,33.977481551341356,0.0,47.130089,0.8586777685781901,0.38547099,0.064043,0.331637,1.0,0.0,0.0,0.0,61.66310917408047
0.8727,5524.1578,1.0850444370256005,2.9726348886107603,3.9265335026624246,0.6034914321522913,-0.46077746320710966,-1.8205499492579906,2.8719765723809423,11.15354045903997,-14.982151340878612,47.010448,33.38070554880731,0.0,47.010448,0.85977050527824,0.39243001,0.048001,0.323248,1.0,0.0,0.0,0.0,61.41835000803721
0.8987,5524.1778,0.9208865216754258,2.2615505417347204,4.318703518699618,0.8169678167385619,-0.27803145544153907,-2.068805131749953,3.517672749624291,11.728398291527256,-14.42234867245336,46.824753,32.53359235224844,0.0,46.82475299999999,0.8599379984157577,0.40272099,0.030204,0.31210601,1.0,0.0,0.0,0.0,61.38075586015835
0.9116,5524.1978,0.8263336367526009,1.440488940858192,4.486989458089475,0.9470992226856497,-0.03291964386100399,-2.2361133645081814,4.091174663205574,12.25190281326761,-13.882968898817403,46.356934,31.442050678747492,0.0,46.356933999999995,0.8598298272257132,0.414002,0.013447,0.29852,1.0,0.0,0.0,0.0,61.40503746146921
0.9327,5524.2178,0.8081488618333506,0.6158312328617104,4.388707982779934,1.0281755215141735,0.23750721439889566,-2.3437321512103053,4.526720483515293,12.652268796464668,-13.468292189245801,45.288925,29.988123269092736,0.0,45.288925000000006,0.8603111127428611,0.42451099,0.000559,0.28223199,1.0,0.0,0.0,0.0,61.29693484941992
0.9515,5524.2378,0.8310680553078287,-0.15518506050901149,4.029911928943093,1.1109586412613044,0.4904377150765027,-2.424106971722254,4.807262683664931,12.917790345131177,-13.219098066710298,43.574818,28.17357273830484,0.0,43.57481799999999,0.8615369562362023,0.43381301,-0.007887,0.263625,1.0,0.0,0.0,0.0,61.02081457412257
0.9714,5524.2578,0.8444059812170441,-0.8736454912261822,3.4488863088230044,1.231761532813087,0.7006904913689238,-2.5076849445191964,4.941614028877192,13.084368469089547,-13.102773441406574,41.478836,26.12273454313684,0.0,41.478836,0.8626392165121292,0.44306701,-0.013081,0.243668,1.0,0.0,0.0,0.0,60.77156374584428
1.0022,5524.2778,0.7770535527390199,-1.5532768707851288,2.689500566234715,1.3988714039068058,0.8655298440865391,-2.6073032679819756,5.004158342178261,13.172183786942268,-13.061374520884918,39.328194,24.007844841441447,0.0,39.328193999999996,0.8627377548756168,0.45355901,-0.018134,0.222798,1.0,0.0,0.0,0.0,60.74923653946635
1.0132,5524.2978,0.6047021123963994,-2.1569341654800698,1.7864522300355432,1.580679835872068,0.9943753007683744,-2.7182406465534523,5.019619593407343,13.14720381933039,-13.111631522068377,37.186424,21.890583370325093,0.0,37.18642399999999,0.8616975135925018,0.46529499,-0.024187,0.20097999,1.0,0.0,0.0,0.0,60.98456552184881
1.0332,5524.3178,0.3261210542165296,-2.6565683292535884,0.7667380978569547,1.7248511959708837,1.1024133041530901,-2.8162526860222745,4.989808264828145,12.98655470721344,-13.281137545468717,34.896507,19.667896086960454,0.0,34.896506999999986,0.8594540858794726,0.47855401,-0.031347,0.177037,1.0,0.0,0.0,0.0,61.48931432942701
1.0713,5524.3378,-0.04483221022014172,-2.9978268465336555,-0.32525263400969884,1.7791420820206398,1.1957267578288464,-2.8704008779586303,4.864551633850376,12.677097721440456,-13.622454687106352,32.173088,17.25358463136535,0.0,32.17308800000001,0.85643339539503,0.49230701,-0.038039,0.150694,1.0,0.0,0.0,0.0,62.163094535773226
1.0758,5524.3578,-0.5248498887688156,-3.1351954405728186,-1.4227123109228579,1.7276992797371657,1.2653480382802202,-2.849431606293407,4.681225656580112,12.22333173216604,-14.141979616233161,28.775488,14.68172737626207,0.0,28.775487999999996,0.8535181900336629,0.50463301,-0.044726,0.121868,1.0,0.0,0.0,0.0,62.80717131296384
1.1028,5524.3777,-1.0702892645866133,-3.0636430317664467,-2.4584889782574724,1.5684637489227629,1.3101345108507134,-2.745066653863657,4.394302571907277,11.702276720851186,-14.796817834851812,24.794233,12.083508905633916,0.0,24.79423299999999,0.8509353906714775,0.51458901,-0.049787,0.092889,1.0,0.0,0.0,0.0,63.37289233407008
1.1208,5524.3977,-1.6358810344190386,-2.8116635580148257,-3.374216872512399,1.3187396827471085,1.319031174447324,-2.576462912206625,4.007825278680794,11.181997099455089,-15.518115065140254,20.221891,9.488015367458845,0.0,20.221891,0.8491006703247854,0.521613,-0.052229,0.064962,1.0,0.0,0.0,0.0,63.77202468776679
1.1523,5524.4177,-2.1839342558877792,-2.432717001958811,-4.120203693724566,1.0013083068927733,1.2779386591153377,-2.3807043023882972,3.53465892849678,10.704337454977622,-16.234848383815486,14.978361,6.84353601437133,0.0,14.978361000000007,0.8484311025837395,0.52542299,-0.051132,0.038482,1.0,0.0,0.0,0.0,63.917129414982114
1.1527,5524.4377,-2.7090516604297914,-1.9955050995675419,-4.66436859380627,0.6468273913476407,1.1806399947748067,-2.188691075172484,3.0378392909469487,10.276138519184926,-16.8738721012393,9.370013,4.232940779928514,0.0,9.370013,0.8490698936509284,0.52596003,-0.047443,0.013983,1.0,0.0,0.0,0.0,63.778700898578336
1.1735,5524.4577,-3.215149094428543,-1.5626751694080094,-4.993271045815468,0.28227247550610923,1.0345701075071976,-2.0156137704915356,2.583528776492405,9.860417222581926,-17.40057496085546,3.840682,1.7471931313738613,0.0,3.840681999999987,0.8511601480376416,0.52307701,-0.042941,-0.008539,1.0,0.0,0.0,0.0,63.32384286930481
1.1947,5524.4777,-3.70172711660147,-1.1877104391250484,-5.106514868244721,-0.08033544350839422,0.8639317373770756,-1.8529648202494404,2.1692543930024546,9.434497796463917,-17.819702270544298,-1.357794,-0.6320377517982569,0.0,1.3577940000000126,0.8544954773394527,0.51720703,-0.038219,-0.029558,1.0,0.0,0.0,0.0,62.59191616999706
1.2112,5524.4977,-4.183274962863371,-0.9015875961297752,-5.014790964622428,-0.43623345990986306,0.7006615825250248,-1.6688649027001587,1.7862878213817455,9.014057987095299,-18.159255242236064,-6.113107,-2.9393363164075814,0.0,6.113107000000014,0.8583855961731878,0.50945997,-0.033855,-0.049785,1.0,0.0,0.0,0.0,61.728403779227676
1.2318,5524.5177,-4.668001737543077,-0.7048467214310286,-4.720702100885422,-0.7858468670129908,0.5706479214112379,-1.422895321248442,1.3846666044487097,8.593891899606716,-18.48011305462048,-10.525213,-5.259484497517085,0.0,10.525213000000008,0.8625721053834278,0.50024003,-0.02935,-0.06977,1.0,0.0,0.0,0.0,60.786765800699136
1.2495,5524.5377,-5.152409234613694,-0.5758700671612069,-4.22813879693936,-1.1204855422745108,0.488017090769765,-1.0856481725652387,0.9324656061786816,8.127681303889602,-18.83653215112474,-14.473692,-7.565709620103146,0.0,14.473692,0.8673447053108239,0.48906401,-0.024466,-0.089056,1.0,0.0,0.0,0.0,59.69694390646413
1.2703,5524.5577,-5.613798753196083,-0.5006740074786942,-3.5481984263716324,-1.4222838332671233,0.45001399267175995,-0.6577247129479671,0.40703630212602193,7.579583526678517,-19.236458328435184,-17.597178,-9.679129358605838,0.0,17.597177999999985,0.8731245095483919,0.47555599,-0.01868,-0.105599,1.0,0.0,0.0,0.0,58.3524337618133
1.2934,5524.5777,-6.006176697640964,-0.48885557296665105,-2.6861753412223255,-1.6700837380557039,0.42985758736626545,-0.1698982892158608,-0.2233477131274335,6.985301172054526,-19.630737974984065,-19.776529,-11.466704124743467,0.0,19.77652900000001,0.8798328067917222,0.460392,-0.010523,-0.11757,1.0,0.0,0.0,0.0,56.755596833877846
1.318,5524.5977,-6.246210110441993,-0.5544629421106255,-1.625683241091906,-1.8347601126726898,0.3766247736185441,0.33966234506388665,-1.0101194514926901,6.407739802286653,-19.95289092156935,-21.210129,-12.960894595776207,0.0,21.210128999999995,0.8873129230091265,0.44404,0.002345,-0.124494,1.0,0.0,0.0,0.0,54.92498358149045
1.3332,5524.6177,-6.236504860868789,-0.628344793595562,-0.37100965761994864,-1.8690132499748593,0.2583842642296587,0.8430809210459691,-1.8851412439328517,5.8576368073036,-20.163670382229775,-22.152311,-14.303055862141429,0.0,22.152310999999997,0.8956495986224745,0.42536199,0.018934,-0.12853201,1.0,0.0,0.0,0.0,52.816018061937825
1.3543,5524.6377,-5.931334291084893,-0.5986265123829004,0.9869416610443871,-1.7343730351684794,0.09494495220013566,1.3220523856782547,-2.6046247158880655,5.3822496560414415,-20.256545240229613,-22.505865,-15.360528503901225,0.0,22.505865,0.9045358229089216,0.40432599,0.034063,-0.131054,1.0,0.0,0.0,0.0,50.47832281432103
1.3738,5524.6577,-5.328954037584529,-0.44215417160864146,2.3103582562008285,-1.4371295703681108,-0.06297257213935004,1.7661094173752907,-2.9618315880771244,5.148932462664481,-20.237397017944534,-22.162474,-15.844544887175156,0.0,22.162474000000003,0.9127723167482676,0.384377,0.043807,-0.13108,1.0,0.0,0.0,0.0,48.21735723914034
1.3953,5524.6777,-4.384967965212452,-0.2623123730961954,3.512805233864176,-1.0176407799638774,-0.17668079912576762,2.1619700012254732,-3.047187741925092,5.313578299981414,-20.09020980494055,-21.150179,-15.591450689656334,0.0,21.15017900000001,0.9191100756361014,0.36991599,0.051038,-0.12567399,1.0,0.0,0.0,0.0,46.407348243184515
1.4126,5524.6977,-3.1184156347768734,-0.11924928455227057,4.534110535666322,-0.5309669214841968,-0.22326287849493087,2.471971007861862,-3.069325924262893,5.818562294535893,-19.81633179348696,-19.225647,-14.40685736944611,0.0,19.22564700000001,0.9235552991618856,0.362075,0.060023,-0.111106,1.0,0.0,0.0,0.0,45.09699005665707
1.4304,5524.7177,-1.7110879712282947,0.16037817704441348,5.309932008574524,-0.0401194273546035,-0.1796284382016502,2.657687245239206,-3.093552202599396,6.377494538493073,-19.49684979897971,-16.738798,-12.686526087786525,0.0,16.738798000000003,0.9270992290679138,0.35676599,0.069655,-0.091396,1.0,0.0,0.0,0.0,44.02587957219797
1.4541,5524.7377,-0.3491078178758602,0.49228738992513055,5.792232830425325,0.4201525357682493,-0.10916794244378347,2.70620157900737,-3.247088738968018,6.960520751648027,-19.13606064460351,-14.181964,-10.805929620352323,0.0,14.181963999999994,0.9285771989191636,0.35532799,0.081969,-0.069047,1.0,0.0,0.0,0.0,43.57179700058599
1.4724,5524.7577,0.7578278522097603,0.7235719798169438,5.956439746351016,0.8283769470156017,-0.09682494805239061,2.6391455646490662,-3.4764161568955765,7.585947700766537,-18.744796009049203,-12.090322,-9.180893721084699,0.0,12.090322000000015,0.9271659013186369,0.359146,0.09508,-0.048346,1.0,0.0,0.0,0.0,44.00549154427237
1.4974,5524.7777,1.4955256597441193,0.7715827141557403,5.824339372648858,1.1852426789938637,-0.17818216257988628,2.502783680634602,-3.71597221291618,8.16941435051465,-18.36880677165854,-10.346687,-7.7796081239087,0.0,10.346687000000003,0.9238808885408336,0.366272,0.106778,-0.029789,1.0,0.0,0.0,0.0,44.999593945827336
1.5134,5524.7976,1.8563599202257006,0.6223006170132095,5.444161897609167,1.4999692081346048,-0.31897459552752294,2.348974574665875,-3.9147821803473137,8.639703075997208,-18.050662817554016,-8.341983,-6.185928793317086,0.0,8.341982999999999,0.9200213817020776,0.374419,0.115159,-0.010463,1.0,0.0,0.0,0.0,46.14158401411869
1.5318,5524.8176,1.9440452801072747,0.22807561453912584,4.860954329960183,1.771540205103534,-0.4624555811731512,2.220974498974183,-3.9890278733708904,9.119652022535584,-17.7589667250164,-5.94427,-4.308314366504125,0.0,5.944269999999989,0.9152221008225272,0.385106,0.118183,0.009729,1.0,0.0,0.0,0.0,47.52542396306443
1.5563,5524.8376,1.953972102865714,-0.3770287521901263,4.089697585789208,1.9860626238757804,-0.5458648522421301,2.1401129604245277,-3.980088802245343,9.736734361389228,-17.417605655040344,-3.227457,-2.2569677350813,0.0,3.227456999999987,0.908492296330024,0.399876,0.117478,0.030657,1.0,0.0,0.0,0.0,49.40435491576805
1.5853,5524.8576,2.0421420460807442,-1.0166947556536527,3.145937228177896,2.1176066135769376,-0.5243134422615346,2.114085428974965,-3.9693589234310713,10.450511557502027,-16.997314245965754,-0.371023,-0.2480610328969083,0.0,0.3710230000000081,0.9000442578162476,0.416924,0.115986,0.0514,1.0,0.0,0.0,0.0,51.672229321969816
1.5948,5524.8776,2.263853355353549,-1.5019211211996861,2.0803286691012133,2.1408665973375247,-0.388259754929543,2.1425840063589927,-4.0202916562476165,11.12297197264767,-16.524389750118907,2.516533,1.606649086005995,0.0,2.5165330000000097,0.890910405384795,0.43319499,0.116146,0.07163,1.0,0.0,0.0,0.0,54.024256270163484
1.6128,5524.8976,2.5714760419636473,-1.737986286699476,0.9680784624072931,2.033238834563327,-0.16178401283918442,2.219819263256772,-4.121206757750755,11.648681523925111,-16.05467803658198,5.561391,3.4047034757940953,0.0,5.561391000000015,0.8819520167989753,0.44691101,0.118126,0.092073,1.0,0.0,0.0,0.0,56.2425239483782
1.6304,5524.9176,2.8915111712181307,-1.7548234576471708,-0.13220136807269256,1.785158181809357,0.10185808050701095,2.330033280638964,-4.242284542896059,12.03324517275879,-15.601194967153148,8.865005,5.215280415895488,0.0,8.865004999999996,0.8727917181126319,0.459012,0.121339,0.113223,1.0,0.0,0.0,0.0,58.43061226655222
1.6535,5524.9376,3.18370591850059,-1.5694796022891477,-1.1835555167882443,1.4180135627660588,0.35550651148178625,2.4508531907584885,-4.43636705576636,12.20701441950973,-15.223194077125767,12.099255,6.897176940735353,0.0,12.099255,0.8639356767758812,0.46819001,0.127811,0.134453,1.0,0.0,0.0,0.0,60.477210465953945
1.67,5524.9576,3.3882137860034502,-1.248251859438855,-2.157684487202073,0.9726169764729855,0.5520214630312821,2.575217898092295,-4.674215423997696,12.13163716973275,-14.986028430376798,14.792705,8.295096372145665,0.0,14.792705000000012,0.8564008682172267,0.47310099,0.13793001,0.15403999,1.0,0.0,0.0,0.0,62.17031408224643
1.6938,5524.9776,3.4598199267796623,-0.892594061383813,-3.0171187753293376,0.4891958460146273,0.6600954722167292,2.713535504846361,-4.839312895156186,11.852941386001381,-14.915720814209322,17.077969,9.572881313620018,0.0,17.077968999999996,0.8507566474676762,0.473717,0.14917199,0.17191,1.0,0.0,0.0,0.0,63.41187572521147
1.7141,5524.9976,3.4218126448085795,-0.5729058859169154,-3.719010168962818,7.942907711394609e-05,0.6736846014453959,2.864715992935945,-4.832888726268866,11.462200323249556,-14.99521336080265,19.505058,11.068138474974416,0.0,19.50505799999999,0.8468687009390771,0.47083801,0.158678,0.189595,1.0,0.0,0.0,0.0,64.2545841009305
1.7295,5525.0176,3.3602973606386195,-0.29030407096421684,-4.2381088452608005,-0.45196428479769196,0.6015329378714912,2.9906343691310635,-4.696420815353567,11.015005181042309,-15.180612177159253,22.316721,12.96224491105793,0.0,22.316721,0.8439657840862033,0.46488899,0.167181,0.20892701,1.0,0.0,0.0,0.0,64.8774061302287
1.75,5525.0376,3.358147582857815,0.009366642291328775,-4.567617404649999,-0.7963107051443944,0.45923434925245843,3.0249475417497216,-4.565400561383299,10.478969858980708,-15.450024900161704,25.194923,15.227464254033222,0.0,25.19492299999999,0.8415444157344873,0.45466399,0.178537,0.23066901,1.0,0.0,0.0,0.0,65.39286551726796
1.7747,5525.0576,3.422123772542699,0.3667751556328167,-4.694825240722599,-0.9680566120635581,0.2698791355894268,2.9039072668895076,-4.414090576181286,9.850896524142627,-15.798254853455228,28.006527,17.937757505551414,0.0,28.006527000000006,0.8398640413499674,0.43924901,0.19251999,0.25421399,1.0,0.0,0.0,0.0,65.74846898408023
1.7916,5525.0776,3.48387927112004,0.7760029595439699,-4.599392321354369,-0.9562347378580071,0.06473491179630297,2.5954216824292344,-4.001256633802825,9.264171078642727,-16.190063905037288,31.12702,21.25957350222531,0.0,31.127020000000016,0.8396485926356454,0.42036,0.202289,0.27814901,1.0,0.0,0.0,0.0,65.79393908809868
1.8106,5525.0976,3.504262185516203,1.2059038694387498,-4.316839130489052,-0.7807294531736202,-0.13476228081431185,2.1323101782677387,-3.3009761212308812,8.927046869318652,-16.49391166444716,34.37981,24.67632982667635,0.0,34.37980999999999,0.8397037907413064,0.40363401,0.20501199,0.29991201,1.0,0.0,0.0,0.0,65.78229227519738
1.8387,5525.1176,3.4528481021817,1.63566391150774,-3.9070154222411446,-0.5136215013706772,-0.3185232451944682,1.5840371985003323,-2.4225691865639956,8.923629966056977,-16.62332723378391,37.495495,27.620726108588325,0.0,37.495495000000005,0.8391083352621043,0.39301699,0.201111,0.317788,1.0,0.0,0.0,0.0,65.9078370730428
1.8495,5525.1376,3.317095733056881,2.063303697636845,-3.420759546136785,-0.24895978050312534,-0.49796946103472556,1.0162910243495884,-1.5421485410560996,9.18250869275925,-16.575552926706074,40.395893,29.948335647304315,0.0,40.395893,0.8372496189348311,0.388823,0.193538,0.33222401,1.0,0.0,0.0,0.0,66.29836857603411
1.8696,5525.1576,3.1124168926074836,2.478352485258844,-2.866053505719754,-0.059737111947162774,-0.691351684172917,0.470532214931293,-0.7484698452923886,9.561988529196539,-16.42542168568362,42.962326,31.727853051807795,0.0,42.96232599999999,0.834878070172082,0.38853899,0.184407,0.34352601,1.0,0.0,0.0,0.0,66.79371167680918
1.8933,5525.1776,2.874671666077839,2.845153304950288,-2.202678014397285,0.029664328241301108,-0.9005669273991803,-0.02904260821899668,-0.0035123387958848618,9.94874708490012,-16.2509283371269,45.138664,33.134030357697426,0.0,45.138664000000006,0.8334470152008103,0.389047,0.17354301,0.351982,1.0,0.0,0.0,0.0,67.0910491712909
1.91,5525.1976,2.626938328146271,3.104263865453322,-1.3703242804707791,0.03614920099934976,-1.0909010752957338,-0.46482325370745836,0.8511398233112808,10.297110684316676,-16.067451326737704,46.930061,34.30817146851309,0.0,46.930060999999995,0.8345699372502582,0.38824499,0.158077,0.35745001,1.0,0.0,0.0,0.0,66.85783270999605
1.937,5525.2175,2.3653759085113726,3.191431745229502,-0.34532343342696237,-0.000522230935800394,-1.2007334999364256,-0.8305794659689318,1.8434474961513327,10.65014140627535,-15.807959484666087,48.586365,35.421573644701304,0.0,48.586365,0.8373071574862356,0.38669601,0.13737001,0.361265,1.0,0.0,0.0,0.0,66.2863098493556
1.952,5525.2375,2.090338695961453,3.0594118811821804,0.8137081643880215,-0.040844454274141295,-1.1837712410120618,-1.1314084008771084,2.865519765827983,11.043206307438826,-15.427829281952487,50.033916,36.34660447901325,0.0,50.033916000000005,0.8402099587538343,0.386103,0.11397,0.36329401,1.0,0.0,0.0,0.0,65.67540521819528
1.9725,5525.2575,1.837616648326219,2.7564417115015254,1.9636090649241105,-0.04241108703093255,-1.0497797737261318,-1.3716078045698927,3.722631643539044,11.40429445056093,-15.017209519222845,50.893845,36.895723323048074,0.0,50.893845,0.842961246128302,0.385856,0.093643,0.36299101,1.0,0.0,0.0,0.0,65.0916924514942
1.9989,5525.2775,1.6479399272395918,2.3644571451207392,2.965428939313526,0.04016837776684046,-0.8490818578347832,-1.5592279218826628,4.34446283399614,11.663310545452596,-14.687394082264333,50.914944,36.93776785776186,0.0,50.91494399999999,0.8463082217206683,0.38485801,0.079173,0.35969201,1.0,0.0,0.0,0.0,64.37525380374399
2.0145,5525.2975,1.473892746284319,1.8855190440201532,3.74379947307785,0.24518546871184266,-0.6230488466959518,-1.707117426301756,4.870999325955891,11.855148954220052,-14.401047745466883,50.364182,36.548437829786266,0.0,50.364182,0.850450977922831,0.38411799,0.066462,0.35322699,1.0,0.0,0.0,0.0,63.47849169721413
2.0426,5525.3175,1.2794105540884217,1.3285045891930807,4.242235858615253,0.5702406024362613,-0.392638011768656,-1.81758014478268,5.33425742205741,12.046363846505775,-14.0968659660189,49.741016,35.96472548988137,0.0,49.741016,0.8540427197576359,0.38545099,0.053424,0.345231,1.0,0.0,0.0,0.0,62.69172208455751
2.0535,5525.3375,1.1005749459624292,0.7214404315298011,4.415983297207852,0.9539847130335192,-0.16552741852986275,-1.890324664568662,5.707972137483947,12.277776567618936,-13.749890450630598,49.193188,35.139533414112044,0.0,49.19318799999999,0.8560451684026724,0.39110601,0.040227,0.33556601,1.0,0.0,0.0,0.0,62.24921400682359
2.1019,5525.3575,0.9728660715156394,0.12832304614066636,4.250469488957435,1.3081988072449418,0.052385794446474065,-1.93301109597166,5.960966407823143,12.550714269162956,-13.37496940116803,48.762661,34.04427747677621,0.0,48.76266100000001,0.8559559217902285,0.401853,0.027796,0.32416201,1.0,0.0,0.0,0.0,62.26899622100957
2.1242,5525.3775,0.8865303505185764,-0.3748584995589157,3.779368623384288,1.5570997489854994,0.2567774992977383,-1.9592918176578369,6.08669499839935,12.838122804047785,-13.004909631637116,48.528076,32.792734959113666,0.0,48.528076,0.8537710769156331,0.416619,0.016563,0.31181601,1.0,0.0,0.0,0.0,62.751534607725375
2.1262,5525.3975,0.8100856106718206,-0.733080263141487,3.080804396551276,1.6624666067464133,0.44079224587429355,-1.9828884369464344,6.114057400110394,13.079358140493264,-12.691788845742863,48.378441,31.440838946627082,0.0,48.37844100000001,0.8503600191151156,0.43322501,0.006385,0.29860201,1.0,0.0,0.0,0.0,63.498302684593135
2.1361,5525.4175,0.7222197566392898,-0.9388280600464864,2.2547366605128705,1.631148094215511,0.595317656164536,-2.0160854905846772,6.0597130248802085,13.213489743447493,-12.501547055452594,48.076561,29.978988311711557,0.0,48.076561,0.8468506029971166,0.44951701,-0.002568,0.28420401,1.0,0.0,0.0,0.0,64.25848370089503
2.1508,5525.4375,0.6302845295111377,-1.0206530453672067,1.3970445236291553,1.503854964485134,0.7105472719040371,-2.0706951116559207,5.893651844672454,13.193696529814648,-12.514008728618023,47.324169,28.35229815687212,0.0,47.32416899999998,0.8442639698993673,0.46374899,-0.009102,0.26846299,1.0,0.0,0.0,0.0,64.81367621633804
2.1738,5525.4575,0.5215348678001104,-1.0332663587755904,0.5827797837874176,1.3417250767980777,0.7791139712433331,-2.149200641746212,5.623306822182963,12.990229802728749,-12.768296715145267,45.940563,26.58953076361166,0.0,45.940563,0.8433703188926202,0.47464699,-0.01349,0.25150499,1.0,0.0,0.0,0.0,65.00450566497004
2.1931,5525.4775,0.3701936471768632,-1.0700362163849277,-0.14927156009480314,1.2017570343971788,0.8114114779871329,-2.240818700502148,5.307902621471439,12.65151260750766,-13.194629573898538,44.178593,24.81161806061214,0.0,44.178593000000006,0.8434637225334591,0.483381,-0.018003,0.23364,1.0,0.0,0.0,0.0,64.98458369114013
2.2124,5525.4976,0.1837865265151577,-1.1570391514739446,-0.7913290291863966,1.1106138564087786,0.819319009523521,-2.335554922374883,4.988104441139573,12.218085943976895,-13.745669638353064,42.089993,23.009281068414793,0.0,42.08999299999999,0.8441780330831642,0.49070799,-0.023339,0.214533,1.0,0.0,0.0,0.0,64.83204883057672
2.2319,5525.5176,-0.026223452341064046,-1.2874239265853609,-1.356785929722097,1.0664039097628506,0.8161682237870825,-2.4230645005428735,4.684398460013097,11.755970759349614,-14.359445781790374,39.739822,21.154834725954153,0.0,39.739822000000004,0.8449446997956966,0.49754199,-0.029365,0.194057,1.0,0.0,0.0,0.0,64.66797719393335
2.2527,5525.5376,-0.24491248522901676,-1.4267238882638829,-1.861813277896455,1.0465623571883809,0.8119718349732132,-2.4968225087055025,4.377571705332111,11.323641577499673,-14.991698855194475,37.144402,19.232527785985425,0.0,37.144402000000014,0.8454355939284902,0.50416303,-0.034788,0.172766,1.0,0.0,0.0,0.0,64.5627275254595
2.2704,5525.5577,-0.4969609082338782,-1.5433664250277799,-2.3199036828206996,1.035965201733644,0.8128608381002624,-2.5485857676977233,4.146111850445789,10.947044403973972,-15.58465215793984,34.339993,17.300276113017716,0.0,34.33999299999999,0.8456912966342979,0.510373,-0.040902,0.150508,1.0,0.0,0.0,0.0,64.50784318558127
2.2957,5525.5777,-0.7895203473505517,-1.6066412108148445,-2.742423331962282,1.0144860863130503,0.8236110025070534,-2.576522472553543,3.995738490761295,10.62065147203189,-16.111408382649067,31.313461,15.381499583757403,0.0,31.31346099999999,0.8458622898501384,0.51571298,-0.047265,0.127762,1.0,0.0,0.0,0.0,64.47111774041456
2.313,5525.5977,-1.1268039059572024,-1.5995255157205706,-3.1413614495575874,0.9595872823381166,0.84434332244745,-2.583691687798259,3.8829968913553388,10.326575347252758,-16.55972998002899,27.963657,13.425879317148361,0.0,27.963657000000012,0.8460893895650624,0.51997101,-0.052565,0.10488,1.0,0.0,0.0,0.0,64.42231302170946
2.3378,5525.6177,-1.526497291194623,-1.5153780777907917,-3.523368616047076,0.8476831947598102,0.8680808205020231,-2.571857741309501,3.7696042945737087,10.045577498626075,-16.932819109138233,24.086706,11.335508433486885,0.0,24.086705999999992,0.8465683994984692,0.52301502,-0.056113,0.081416,1.0,0.0,0.0,0.0,64.31926334532504
2.3542,5525.6378,-2.025871306068214,-1.371999567151895,-3.883732377643499,0.6593899081257469,0.8925737614312769,-2.530767706393704,3.660079943606264,9.798215102453607,-17.22859327413358,19.819466,9.158076644992247,0.0,19.819466000000006,0.8468617636367815,0.525424,-0.058817,0.057405,1.0,0.0,0.0,0.0,64.25607892038943
2.3965,5525.6578,-2.630974334488625,-1.2030855904562907,-4.185589652164488,0.3746389734007176,0.9186405681726099,-2.4421199058316265,3.4918315065281518,9.593010873041575,-17.48612818061066,15.200209,6.90294663189544,0.0,15.200209000000001,0.8468181342545278,0.52743298,-0.059941,0.033475,1.0,0.0,0.0,0.0,64.26547927661977
2.4162,5525.6778,-3.3232612580031695,-1.020099207474086,-4.365143191363636,0.0013194584637606643,0.9373380802953627,-2.2839588930247112,3.2360294693398295,9.329443741576426,-17.79386682881403,9.9183,4.475966025171385,0.0,9.918299999999988,0.8477475581979107,0.52697599,-0.059517,0.008838,1.0,0.0,0.0,0.0,64.06495989646918
2.4205,5525.6979,-4.048704766591621,-0.8229952370008315,-4.365484644447344,-0.42141785779322344,0.946486409985261,-2.0402808348544097,2.8682969188447975,8.896443286609752,-18.220386476059588,3.999473,1.835625026196814,0.0,3.9994729999999947,0.8510022040531386,0.52171499,-0.057709,-0.016685,1.0,0.0,0.0,0.0,63.358315005854045
2.4358,5525.7179,-4.740363153840779,-0.6413262489272635,-4.168496294511776,-0.8436811367880679,0.955005147075136,-1.7158437828820001,2.352902035506628,8.310312240133854,-18.739723333073663,-1.709739,-0.8153494581435714,0.0,1.7097390000000132,0.8563403320140889,0.511998,-0.053881,-0.040449,1.0,0.0,0.0,0.0,62.18374834365955
2.4511,5525.7379,-5.342860312145401,-0.5400082985136772,-3.773666378165288,-1.2330625259459411,0.954899398947614,-1.3369930453130587,1.627403604785664,7.685155313105356,-19.26730375053513,-6.524876,-3.260800020709752,0.0,6.524876000000006,0.8626666853783558,0.50022203,-0.045679,-0.05914,1.0,0.0,0.0,0.0,60.765340489018925
2.4758,5525.7579,-5.82744788497251,-0.513058114888767,-3.1681911032054986,-1.5624103337697717,0.9180883740726775,-0.9272978673703278,0.717240408530539,7.046546224991323,-19.746680244750387,-10.710036,-5.6393063894761335,0.0,10.710036000000002,0.8697645951330624,0.48669899,-0.032985,-0.074469,1.0,0.0,0.0,0.0,59.13740909334936
2.4998,5525.778,-6.16967497708034,-0.4774030553887654,-2.3372791448140884,-1.7977200687450978,0.8296243799981048,-0.48456156702093467,-0.25887199676775574,6.370469661333924,-20.14591680042335,-14.589334,-8.161704249613525,0.0,14.589334000000008,0.8777795841158986,0.47013399,-0.018466,-0.0902,1.0,0.0,0.0,0.0,57.24866983498307
2.5113,5525.798,-6.333750637507491,-0.3757583290036681,-1.3034747973406944,-1.9103214889054698,0.6973296956264223,0.004745865308578345,-1.1184339446936926,5.7267088804583075,-20.43181530408094,-17.74892,-10.583792574730767,0.0,17.74892,0.8861646042716894,0.451076,-0.005558,-0.105886,1.0,0.0,0.0,0.0,55.209639284076715
2.5312,5525.818,-6.233053073432687,-0.21836935030867588,-0.1021973628374262,-1.8916181426735268,0.5382381071317964,0.5393630193728947,-1.7617272379919269,5.275189643809807,-20.58105050339594,-19.859745,-12.53643530751363,0.0,19.859745000000004,0.8939469776502408,0.43223,0.005213,-0.118359,1.0,0.0,0.0,0.0,53.25301776888208
2.5526,5525.8381,-5.737814567974654,-0.01780019992268489,1.2352237531528232,-1.7438843698842683,0.36312438708210015,1.0828827728602368,-2.2413126511145767,5.0925926590238575,-20.596451578624816,-20.828756,-13.795486497321304,0.0,20.828756,0.901267813127907,0.41473201,0.016751,-0.12423,1.0,0.0,0.0,0.0,51.34956145422614
2.5709,5525.8581,-4.801849734985906,0.3136140131353331,2.618416794702105,-1.4735426705548873,0.19327483368860382,1.5610228728646,-2.5708025991558037,5.152686932475871,-20.508060132859434,-20.801514,-14.375445158243641,0.0,20.801513999999997,0.9086122038201996,0.397838,0.029304,-0.123653,1.0,0.0,0.0,0.0,49.3714651769772
2.5941,5525.8781,-3.5105871981050116,0.8102725260016559,3.9050078969880566,-1.108368294313771,0.03647622808040518,1.8988717480076784,-2.7862904901690153,5.4557103451677325,-20.341859190937853,-19.95513,-14.294131094727701,0.0,19.955129999999997,0.9155108115014262,0.38253,0.042682,-0.117,1.0,0.0,0.0,0.0,47.44325299040085
2.6135,5525.8981,-2.087877267905918,1.3766139366164047,4.95953212355578,-0.7037418889563145,-0.11331907716482115,2.0511337513929675,-2.912691695376206,6.030774407015325,-20.111026034818593,-18.533278,-13.597245077724818,0.0,18.533277999999996,0.9205657775650798,0.372026,0.05561,-0.10518,1.0,0.0,0.0,0.0,45.98212921550047
2.6508,5525.9182,-0.7584894966862543,1.833645880007488,5.730856213560717,-0.3144824943709811,-0.25392683777200753,2.023658523379628,-3.032057544481795,6.8174825791530465,-19.81088754572963,-16.786606,-12.437299460473394,0.0,16.786606000000006,0.9228848205903052,0.368348,0.067978,-0.089344,1.0,0.0,0.0,0.0,45.296930276302426
2.6592,5525.9382,0.25055081507889376,2.104148825506792,6.217600553751883,0.019706545743284037,-0.34496747001753336,1.872155339318903,-3.043214141352683,7.582628462230715,-19.49681460953957,-14.956661,-11.083888338895193,0.0,14.956660999999997,0.9234402685908708,0.36894101,0.075843,-0.073406,1.0,0.0,0.0,0.0,45.13135242433566
2.6976,5525.9582,0.7894438392281393,2.1607530875049425,6.437035499126505,0.29632697095284555,-0.3488917849838734,1.6876087001021403,-2.8199661516551364,8.103861238560096,-19.256545913525756,-12.958712,-9.575183951325451,0.0,12.958711999999991,0.9240914862149744,0.36982,0.076112,-0.059119,1.0,0.0,0.0,0.0,44.93648962931096
2.7003,5525.9783,1.0155429781529226,1.8939943812135347,6.394225405034831,0.5574763955442018,-0.27270342080365595,1.5441258050148363,-2.5597759190657854,8.433774773547652,-19.058692459299746,-11.213782,-8.244774317783508,0.0,11.213782000000009,0.9242726855046944,0.37145299,0.074153,-0.047371,1.0,0.0,0.0,0.0,44.882127032382904
2.7107,5525.9983,1.1213016817819197,1.2594659802977377,6.071183279895585,0.8324953107116437,-0.15346839149905178,1.4687342667472991,-2.485983163529749,8.72994179814691,-18.847084488008058,-9.903817,-7.212975050337702,0.0,9.903817000000004,0.922808803891586,0.37595901,0.075674,-0.036772,1.0,0.0,0.0,0.0,45.31954609767426
2.7324,5526.0183,1.1484128254006056,0.389540989560782,5.455310846801531,1.1195502996583304,-0.03432779242673789,1.453820082079062,-2.5768759604658844,9.070467164564132,-18.631345088458172,-8.810559,-6.325032815931206,0.0,8.810559000000012,0.9198228496047486,0.383185,0.080112,-0.026024,1.0,0.0,0.0,0.0,46.199605031392615
2.7507,5526.0383,1.148453998546178,-0.527346685552132,4.5605690686104285,1.4103314159192981,0.0543149668493782,1.4699779103589303,-2.8172387462281034,9.488787855920888,-18.40566488161585,-7.727554,-5.447937368019984,0.0,7.727553999999998,0.915605149868217,0.39225999,0.087212,-0.013906,1.0,0.0,0.0,0.0,47.41637393256223
2.7707,5526.0583,1.1306823602881106,-1.3242052644131146,3.4326777981189824,1.6808518757431443,0.0994484098153785,1.493941179934316,-3.088546329175009,9.991034297434279,-18.145492769221963,-6.710637,-4.627045779255126,0.0,6.710636999999991,0.9103627470003371,0.402807,0.09478,-0.001715,1.0,0.0,0.0,0.0,48.88894260144812
2.7963,5526.0783,1.1029659013075255,-1.9181405933897988,2.134718177902254,1.8868220773532522,0.10759182353965413,1.5221904221876628,-3.310674003582505,10.60137707565584,-17.78749142998256,-5.760741,-3.850454912631185,0.0,5.760740999999996,0.903498201960679,0.41625899,0.101553,0.010317,1.0,0.0,0.0,0.0,50.75646082993149
2.8117,5526.0983,1.0646611150444614,-2.221185621947958,0.7631919384506247,1.9667152116716047,0.10538705848273844,1.5692440567446244,-3.416391813879209,11.234811784254777,-17.340488773771163,-4.680132,-3.003813835039815,0.0,4.680132000000015,0.8953654450836261,0.43191001,0.106134,0.022584,1.0,0.0,0.0,0.0,52.889182581237435
2.8397,5526.1183,1.0708251758068783,-2.210742010744321,-0.5614732490176522,1.877044181254881,0.12659023537204617,1.6426346611508529,-3.46783505662382,11.767658596049385,-16.85311605452622,-3.344105,-2.0499875573653408,0.0,3.344105000000013,0.8865812390729458,0.44789401,0.109899,0.035873,1.0,0.0,0.0,0.0,55.10651673242597
2.8548,5526.1383,1.151402848342308,-1.9318045830794301,-1.7245438866032181,1.6148974178874056,0.19880999078560702,1.7429973607223341,-3.5504733639050703,12.05574617248402,-16.42687888637287,-1.649409,-0.9705318673581774,0.0,1.6494089999999915,0.8784602036514004,0.46101299,0.114814,0.050916,1.0,0.0,0.0,0.0,57.08565415617374
2.8734,5526.1583,1.2497277830197504,-1.4950832112833297,-2.6616853404615295,1.2158738394372461,0.31884410497347804,1.8723906471241536,-3.5841671705877984,12.02115141922145,-16.178409913319697,0.270123,0.15496248991585213,0.0,0.2701230000000123,0.8728651092214649,0.46854001,0.119462,0.065617,1.0,0.0,0.0,0.0,58.41337961754074
2.8918,5526.1783,1.3342210246592958,-1.044286300701252,-3.385292786657436,0.744641005414506,0.4612121055186521,2.0193319644429497,-3.6069460750056686,11.70154081783036,-16.10872902089072,2.171505,1.2367025623987373,0.0,2.1715049999999962,0.8697577744313068,0.47066501,0.125147,0.079587,1.0,0.0,0.0,0.0,59.13899295921624
2.9141,5526.1983,1.398123025371388,-0.6923572314099187,-3.9411808614613353,0.2709317885668924,0.5701765929110607,2.164536669216074,-3.719603604985533,11.211633978800549,-16.131881534164798,3.748246,2.145776347040861,0.0,3.7482459999999946,0.8674914961381812,0.46974701,0.134518,0.09328,1.0,0.0,0.0,0.0,59.663138305391755
2.9328,5526.2183,1.4393955375901393,-0.47095015672613094,-4.354134448338017,-0.14860158067409818,0.5938987255493994,2.284335986633531,-3.907839620354169,10.605116822061706,-16.226360243835213,5.046196,2.937566890771441,0.0,5.046196000000009,0.8657782284163884,0.46610901,0.147374,0.107011,1.0,0.0,0.0,0.0,60.05662419226301
2.9519,5526.2383,1.4718935357088379,-0.3575236622074929,-4.622457250085921,-0.472226496889507,0.5176302824887709,2.3491647253602808,-4.0578367778725175,9.89209176732778,-16.42087476777393,6.543869,3.9275854157032897,0.0,6.543869000000001,0.8654875166545962,0.458561,0.16080301,0.121637,1.0,0.0,0.0,0.0,60.12316003819462
2.9732,5526.2583,1.5265274961764126,-0.31196588492001087,-4.740787365010917,-0.6682435619304673,0.36041253610251434,2.3365720360670066,-4.061246983411142,9.132972047110455,-16.705223185910924,8.558372,5.347004587713421,0.0,8.558371999999991,0.8668184887597747,0.44748601,0.171745,0.13742501,1.0,0.0,0.0,0.0,59.81798786807499
3.0043,5526.2783,1.6335742840537308,-0.2768621276141565,-4.720074533410761,-0.7209129263693641,0.15842918485572866,2.2430354370989543,-3.898749371261688,8.40909503360534,-17.02843049226195,10.916063,7.11673739929825,0.0,10.916063000000008,0.8691583238138837,0.43454799,0.179364,0.153494,1.0,0.0,0.0,0.0,59.27804373072301
3.0255,5526.2983,1.8070952530137436,-0.19949061756946174,-4.587753897548719,-0.6450647991211422,-0.06133435443636026,2.0824212091168937,-3.6321588913732503,7.815143808816749,-17.313595732800916,13.401875,9.070344376403423,0.0,13.40187499999999,0.8710263047286918,0.422337,0.18478601,0.16970199,1.0,0.0,0.0,0.0,58.84375475318494
3.036,5526.3183,2.0362959263021136,-0.048477649276231105,-4.366482588952547,-0.48914111521969306,-0.27641007966957654,1.8761662075780159,-3.27454303039148,7.4231806237731774,-17.51406382849146,15.935273,11.08189231088641,0.0,15.935272999999995,0.8716813701369324,0.412799,0.18788999,0.18565001,1.0,0.0,0.0,0.0,58.6907653826054
3.0517,5526.3383,2.289704094768273,0.18849551684581334,-4.057264162865838,-0.31702038859146786,-0.4595949714208174,1.650877487101586,-2.763441683382636,7.236066245414081,-17.629997663765653,18.551849,13.11752601558564,0.0,18.551849000000004,0.8718489962213409,0.40590799,0.186819,0.200541,1.0,0.0,0.0,0.0,58.65155820405223
3.0717,5526.3583,2.5390490904122074,0.518857782707661,-3.6525548440498294,-0.17660661722129717,-0.5862838166426403,1.4327116359169887,-2.0871731148728303,7.19679764409481,-17.673005027697567,21.285482,15.204718473388196,0.0,21.285482000000002,0.8723519874398635,0.40026,0.18121301,0.21437301,1.0,0.0,0.0,0.0,58.53376663239393
3.0986,5526.3783,2.7679690345355796,0.9413216577167309,-3.157823569989306,-0.08851818391414637,-0.6493000186744746,1.2290619217844614,-1.343773483030338,7.272666540904241,-17.63621289189085,24.150621,17.379035939813022,0.0,24.150621,0.8727183905598987,0.39523,0.17327701,0.228322,1.0,0.0,0.0,0.0,58.44782536545272
3.1207,5526.3983,2.9531391758082286,1.4230454072050602,-2.5855724482402564,-0.05823164789472071,-0.6658113713473932,1.0207022828645398,-0.6167805711852146,7.486306746136151,-17.508287850737883,27.102625,19.581218521524676,0.0,27.10262499999999,0.8721981927680772,0.39155501,0.164474,0.2427,1.0,0.0,0.0,0.0,58.569805513949
3.1688,5526.4183,3.0915226472764177,1.924783793470839,-1.956264071873827,-0.07039920646741808,-0.6683000385245137,0.779085112739001,-0.019372829904749977,7.8230759954594005,-17.303420587636865,29.928499,21.658353923930683,0.0,29.928498999999988,0.8703538244267787,0.38944301,0.15727501,0.25706601,1.0,0.0,0.0,0.0,59.00043551711034
3.1773,5526.4382,3.1658041764935074,2.398734630425841,-1.2722171149953923,-0.09656094177268912,-0.6846651705568224,0.4890198827123138,0.4766178561460621,8.218971220724612,-17.063544560324313,32.385098,23.470263280751524,0.0,32.385098,0.868347789395689,0.38781199,0.151103,0.26970699,1.0,0.0,0.0,0.0,59.465588099405224
3.1789,5526.4582,3.129904727478686,2.7804561170527244,-0.5130776804945079,-0.09638382012472747,-0.7227154507005134,0.1574869071566417,1.0202254086492233,8.636467279557028,-16.806017077810786,34.458511,25.007615109961552,0.0,34.45851099999999,0.867659603523513,0.38588601,0.142333,0.27928501,1.0,0.0,0.0,0.0,59.62440217237536
3.1921,5526.4782,2.964104956049103,3.039821432838335,0.3132055150573372,-0.025185269256133125,-0.7718241030919211,-0.1912415175533998,1.6321559465683722,9.05560332219748,-16.534632777077903,36.198505,26.312762109443685,0.0,36.19850500000001,0.8683457467909887,0.383555,0.130474,0.286073,1.0,0.0,0.0,0.0,59.46606004555784
3.2148,5526.4982,2.6901673998380717,3.170653441708469,1.1628460795907856,0.13683832839081583,-0.8192092350817086,-0.5307211792054113,2.2244560748629874,9.488338459287931,-16.24890293556113,37.648335,27.373744428592094,0.0,37.648335,0.8693334742697993,0.381933,0.117507,0.290824,1.0,0.0,0.0,0.0,59.2374458796763
3.2346,5526.5182,2.3369031608179545,3.1425732341635007,1.9910905459866015,0.369116437858654,-0.8549235490099009,-0.842798052509805,2.7632350169527076,9.98511449023465,-15.92162774471058,38.941315,28.15056958197936,0.0,38.941315,0.8695280568515659,0.383277,0.103722,0.29370299,1.0,0.0,0.0,0.0,59.192314200041224
3.2509,5526.5382,1.9393972016825565,2.9389561726220648,2.751273897464518,0.6228895078541221,-0.8701480501187291,-1.1121051220613987,3.2738916602868273,10.545344503028243,-15.533445732165564,40.090008,28.573959848510864,0.0,40.09000800000001,0.8687424608635863,0.38866499,0.088431,0.29394901,1.0,0.0,0.0,0.0,59.37433485107352
3.2723,5526.5582,1.5213099516186865,2.588720821373045,3.3971856722322027,0.8502577746978703,-0.8543530819244379,-1.322644653351051,3.7894463228392175,11.109820906651072,-15.092810473111818,41.120552,28.71955426078272,0.0,41.120552,0.8672888928514996,0.39712101,0.071267,0.291592,1.0,0.0,0.0,0.0,59.70979283216722
3.2949,5526.5782,1.1027284561513646,2.149983897313499,3.888686527147309,1.0251716255366405,-0.7950126031163347,-1.4645966488789839,4.317625666504727,11.603274089541767,-14.633581442122136,42.041813,28.720833379066164,0.0,42.04181299999999,0.8655955694115351,0.406782,0.05257,0.28724399,1.0,0.0,0.0,0.0,60.09843756214033
3.3154,5526.5982,0.7290221996630413,1.679243493426061,4.195458604540395,1.1465302332234188,-0.6823773990858839,-1.546019401247404,4.793794356246799,11.985874004124883,-14.205813346781856,42.837872,28.648337577851667,0.0,42.837872000000004,0.8636834434326618,0.41650501,0.034189,0.28178999,1.0,0.0,0.0,0.0,60.53457996928169
3.3325,5526.6182,0.4604998300220897,1.216664768411201,4.3003994261217,1.2295721369267165,-0.5190472044636077,-1.593007951498063,5.131469611377796,12.255578899523282,-13.865451612875606,43.425194,28.445713724728517,0.0,43.425194000000005,0.8615045250856433,0.426081,0.018391,0.27554801,1.0,0.0,0.0,0.0,61.02813419655522
3.3507,5526.6382,0.3213812428487941,0.7800732442832956,4.199499404772411,1.2966967568985972,-0.32049279710863665,-1.6358531047854319,5.296993632480383,12.431267871483444,-13.64824235484443,43.753136,28.041928490873076,0.0,43.753135999999984,0.859100220117653,0.43576899,0.00597,0.26835901,1.0,0.0,0.0,0.0,61.56858944464814
3.3724,5526.6582,0.29086358324522266,0.38633732092791107,3.8957915350351584,1.364356525432819,-0.10682169781951034,-1.6942418402555444,5.312427938791005,12.517490285960408,-13.575169724831845,43.785065,27.410077715457657,0.0,43.785065,0.8567192687135734,0.445526,-0.00368,0.25985599,1.0,0.0,0.0,0.0,62.09961123707331
3.4018,5526.6782,0.3148190026224196,0.024418184826847877,3.3994628408477254,1.4325347635917858,0.10929261467739848,-1.7704876652438448,5.248461393648027,12.52650809696502,-13.624259569170219,43.572548,26.555833596546695,0.0,43.57254799999998,0.8542649428332172,0.455962,-0.012595,0.24934199,1.0,0.0,0.0,0.0,62.64275306394221
3.415,5526.6982,0.3510961233714438,-0.32645406999153437,2.7289146474514148,1.481540129417285,0.3251794302929977,-1.8546900171243617,5.138656349262998,12.490801951230752,-13.758700906104362,43.288971,25.51551227840781,0.0,43.288971000000004,0.8510243807753217,0.46825099,-0.021923,0.236681,1.0,0.0,0.0,0.0,63.35347582944771
3.4349,5526.7182,0.39253507123029063,-0.6520069111173648,1.919731927917116,1.483805285414204,0.5340116616278203,-1.9380891951815775,4.957349863814625,12.422670383968871,-13.981376393768878,42.954102,24.270056177841884,0.0,42.954102000000006,0.8466857265000988,0.482582,-0.030676,0.222029,1.0,0.0,0.0,0.0,64.29400024523683
3.4695,5526.7382,0.4349880327051423,-0.9048623442754908,1.035179587626235,1.431326859402009,0.7114469336667401,-2.021217371476534,4.689068783564032,12.28016572830302,-14.337646445244323,42.246635,22.751058654510512,0.0,42.246635,0.8422440197663976,0.49711299,-0.037454,0.205185,1.0,0.0,0.0,0.0,65.24430651794411
3.4799,5526.7582,0.4548432315105355,-1.0526327015488337,0.1576595448910112,1.350647178816277,0.8263419324209933,-2.1113771315383154,4.351542116912137,12.007811295657097,-14.856486511801496,40.865623,21.02782202576255,0.0,40.865623,0.8391146069018224,0.509148,-0.041988,0.186794,1.0,0.0,0.0,0.0,65.90651587730815
3.495,5526.7782,0.4467159147559778,-1.1059783955569595,-0.6424152853744545,1.2820966927171944,0.8593788978886456,-2.217273060896342,3.9828879573629026,11.591637894125983,-15.501684885175159,38.658653,19.165124366363326,0.0,38.658653000000015,0.8379646179256495,0.51754302,-0.045023,0.167145,1.0,0.0,0.0,0.0,66.1483833506075
3.5131,5526.7982,0.4282690961982418,-1.0895552062572893,-1.332453025488821,1.2430862599643198,0.8207851805046327,-2.3399283123315144,3.6294683575754467,11.092111536878214,-16.179595197573008,35.751633,17.201868153017877,0.0,35.751633,0.8381865767457142,0.52327597,-0.047884,0.14605699,1.0,0.0,0.0,0.0,66.10176174531391
3.5334,5526.8182,0.40574041557955076,-1.0068718565295418,-1.921350571984263,1.205582898879364,0.7594674588217808,-2.466250491747612,3.35495460081558,10.625589658698457,-16.790929913744332,32.753937,15.350224053261904,0.0,32.75393700000001,0.8383327409044449,0.52810597,-0.052383,0.124733,1.0,0.0,0.0,0.0,66.07104459491524
3.5719,5526.8381,0.3563490220379455,-0.8694534775211684,-2.4465610254556536,1.1053970851212482,0.7506545318340495,-2.5715704223723814,3.2777254910923617,10.322891309210572,-17.251665032348043,30.323618,13.805596801701101,0.0,30.32361800000001,0.8367945084314188,0.53414899,-0.061295,0.103454,1.0,0.0,0.0,0.0,66.39368066622487
3.5747,5526.8581,0.27163470400686585,-0.7084336004444456,-2.945524199206573,0.8593574341952177,0.8648844280598796,-2.63675069551706,3.35086586414715,10.251758056646258,-17.542488637940863,28.460817,12.45412189803019,0.0,28.46081699999999,0.8327813097635174,0.54263902,-0.072751,0.082009,1.0,0.0,0.0,0.0,67.22897018458092
3.5976,5526.8781,0.12531837735568607,-0.5384673904511281,-3.429134795669878,0.4243864223996726,1.103278275468949,-2.6524789382195397,3.395822091894593,10.231404162822614,-17.781849581006288,25.797609,10.842008332839479,0.0,25.797608999999994,0.8291213993282526,0.54992598,-0.081551,0.059064,1.0,0.0,0.0,0.0,67.98282004604647
3.6175,5526.8981,-0.18704183060451318,-0.39339863688881627,-3.8846557777304387,-0.1419674403918022,1.402920280846264,-2.6075555888004973,3.3410950778931157,9.9956815420116,-18.11064991645737,21.22773,8.7905295646394,0.0,21.227730000000008,0.8295878060188684,0.55062002,-0.086112,0.034444,1.0,0.0,0.0,0.0,67.88716205460369
3.6328,5526.9181,-0.7492553417110419,-0.3241411073252283,-4.278214142410801,-0.7263318905803793,1.6908821071195534,-2.4934307341466666,3.1235830084260883,9.447234798885987,-18.585062801072826,14.508687,6.148925670173899,0.0,14.508687000000009,0.8352345439551453,0.54304898,-0.086167,0.007504,1.0,0.0,0.0,0.0,66.71946316916208
3.6512,5526.9381,-1.6005818917319041,-0.3253946398503724,-4.555380602981569,-1.2183132656822637,1.9089620460686858,-2.312222634111368,2.7563930669923202,8.6483069489368,-19.16221685644444,6.824849,3.057565233902301,0.0,6.824849,0.844344638315611,0.52886599,-0.083313,-0.02102,1.0,0.0,0.0,0.0,64.7964257210544
3.6714,5526.9581,-2.691801324841201,-0.3425650841095256,-4.6666556438225975,-1.5892921610554915,2.0076567543978316,-2.0832118617231066,2.2166265979125708,7.757289302394739,-19.754309020682186,-0.305052,-0.14631567902999618,0.0,0.3050519999999892,0.854324846753739,0.51173002,-0.077319,-0.047783,1.0,0.0,0.0,0.0,62.62954676599821
3.7022,5526.9781,-3.8739345243630163,-0.32224349974697386,-4.565640550284212,-1.8912282485482939,1.9509793538158822,-1.8256892113492724,1.428961699956429,6.898186403959884,-20.29304086547461,-6.67767,-3.4258149582515247,0.0,6.677670000000006,0.8639428691944856,0.494028,-0.06618,-0.071828,1.0,0.0,0.0,0.0,60.475573855538315
3.7332,5526.9981,-4.983579425280993,-0.20721748243222526,-4.221723856822665,-2.1694506370463555,1.7569547174100872,-1.5568499552474195,0.518724764987804,6.121739953290476,-20.717462317753732,-12.600623,-6.910311084050542,0.0,12.600623000000013,0.8727503209274688,0.475566,-0.052991,-0.096622,1.0,0.0,0.0,0.0,58.440330516791995
3.7373,5527.0181,-5.8890197805736175,-0.004002099845643592,-3.6444456768788314,-2.4571355035140914,1.4767241411506697,-1.2985246020009322,-0.296472381891292,5.498168021529928,-20.977759542064597,-17.645094,-10.348250266805781,0.0,17.645094,0.8807653156944363,0.45568401,-0.041854,-0.121872,1.0,0.0,0.0,0.0,56.530357536430245
3.7551,5527.0381,-6.4617661555954005,0.16611836542198244,-2.8130995388555933,-2.770458831617075,1.1520921745617951,-1.063266432064444,-1.0098422269509033,5.113790172693059,-21.044593663596466,-21.47794,-13.476215249237539,0.0,21.47793999999999,0.8890482961747691,0.43353701,-0.03063,-0.143877,1.0,0.0,0.0,0.0,54.49220243799185
3.7716,5527.0581,-6.658357564117601,0.23528389470264033,-1.7284847673226444,-3.054752824242449,0.8247730769804781,-0.8724820334770663,-1.5357552775615892,5.019153967502751,-20.92128699716846,-23.950106,-16.097772312616126,0.0,23.950106000000005,0.8985327278940928,0.40780899,-0.019686,-0.16106901,1.0,0.0,0.0,0.0,52.06826774132632
3.7931,5527.0781,-6.5420410767811985,0.27905062984263473,-0.453305744036399,-3.216312489656546,0.5427263633383632,-0.7314060187647716,-1.7113027391269258,5.251159352583832,-20.671326354524947,-25.383829,-18.259475165211203,0.0,25.38382899999999,0.90881788473489,0.378216,-0.012841,-0.175607,1.0,0.0,0.0,0.0,49.315000540427455
3.8163,5527.0981,-6.176273500183547,0.442374666120656,0.9294103824624944,-3.1819536647131805,0.34061570122675444,-0.5828149461693846,-1.5674988058069352,5.77141635199745,-20.395234221091123,-26.73259,-20.506817128496333,0.0,26.732589999999988,0.91846773192582,0.345319,-0.010714,-0.19250201,1.0,0.0,0.0,0.0,46.593814239101434
3.8371,5527.1181,-5.56921756611535,0.745612331736464,2.2796027770371214,-2.937070150370743,0.1917902357506467,-0.35011805760139986,-1.3447441802263718,6.4235500765547995,-20.176446786644007,-28.224874,-22.937597574329683,0.0,28.224874,0.926812059638695,0.31054199,-0.00898,-0.21095601,1.0,0.0,0.0,0.0,44.11359214452609
3.8538,5527.1381,-4.787173830145953,0.8256294727137341,3.395921311549344,-2.527246668805517,0.03303435105486052,-0.01888903274111775,-1.3134467763222233,7.347585852237532,-19.93736846780395,-28.81908,-24.324861747431846,0.0,28.819079999999985,0.9334024660137876,0.28391901,-0.001954,-0.219422,1.0,0.0,0.0,0.0,42.056867799083285
3.8752,5527.1581,-4.127449886176869,0.7842525414175663,4.058931413647789,-2.03798613785964,-0.07381721082241188,0.34572091750475936,-1.124445228733352,8.292411152829025,-19.73361244076848,-28.495619,-24.618427092517127,0.0,28.495619000000005,0.9386097216434636,0.26526901,-0.000719,-0.220553,1.0,0.0,0.0,0.0,40.361254200499474
3.894,5527.1781,-3.484128968478356,0.6529409484934736,4.332940220652679,-1.5629499689671187,-0.09381319773526697,0.7542874385570926,-0.9522988384130624,9.156949821232708,-19.562582226825608,-28.130325,-24.6620420071304,0.0,28.130325,0.9422225308173542,0.25249299,-0.000414,-0.220145,1.0,0.0,0.0,0.0,39.143569681295126
3.9286,5527.1981,-2.7503047376118124,0.43222173205111947,4.3378744263807505,-1.1422314817837615,-0.05255164621667653,1.182518395383516,-1.0185150837710357,9.849631257836913,-19.414075972962426,-27.566446,-24.42205907153076,0.0,27.566445999999985,0.9455981889301608,0.242936,0.00499,-0.216336,1.0,0.0,0.0,0.0,37.97196821160821
3.9388,5527.2181,-2.0186587032219463,0.22220205519798952,4.15289429208107,-0.7880712616213426,0.03488628738700944,1.565466788189095,-1.2174197976363073,10.216061962772727,-19.294406110724914,-26.410099,-23.635447377746864,0.0,26.410099000000002,0.9499553080901754,0.23331501,0.012746,-0.207332,1.0,0.0,0.0,0.0,36.40614244439795
3.9507,5527.2381,-1.442322663587671,-0.027403866149245282,3.8476692891608835,-0.5203714436926976,0.14640646843900462,1.846255205370437,-1.3347303744777925,10.346060616398827,-19.113262139569038,-24.410477,-22.004118742561467,0.0,24.410477000000014,0.9549319017977146,0.22598,0.01834,-0.191577,1.0,0.0,0.0,0.0,34.53400577810748
3.974,5527.258,-0.9307918474470289,-0.418791004351851,3.5084430878004884,-0.3303921546257704,0.23356913896950215,2.011802266613212,-1.4284702911650615,10.477960786581113,-18.77868556584272,-22.246908,-20.093729591884657,0.0,22.24690799999999,0.9587185782845769,0.22408,0.024806,-0.173296,1.0,0.0,0.0,0.0,33.04078910012643
4.0017,5527.278,-0.32137005493715964,-0.830865314998352,3.199322980586903,-0.16551167085721308,0.25834012611539336,2.0722806159022196,-1.7146493281715924,10.551448348212386,-18.43367319379887,-20.508652,-18.569606927319825,0.0,20.508652000000012,0.9614274208049716,0.22276901,0.036557,-0.15714601,1.0,0.0,0.0,0.0,31.93103030816916
4.0108,5527.298,0.2648778605235278,-1.167737467757609,2.941457326546905,0.01422553903159457,0.20345435670771783,2.041405379448669,-2.0823582345696,10.509686472254513,-18.24422838542617,-18.824602,-17.122912099367774,0.0,18.824602,0.9639953495224964,0.219827,0.048273,-0.141629,1.0,0.0,0.0,0.0,30.84314566303675
4.0347,5527.318,0.723620735572397,-1.4302061289868941,2.7221390804233216,0.25934868189514393,0.09071666430506464,1.938560644876754,-2.4046509338491524,10.421968519909738,-18.233618626936696,-16.866241,-15.402848071720978,0.0,16.866241000000002,0.9666233425305848,0.216813,0.055305,-0.124791,1.0,0.0,0.0,0.0,29.689606973442576
4.0631,5527.338,1.0922515573376792,-1.656228298557993,2.483506005985884,0.6240533578532539,-0.020571935260592644,1.789954509479813,-2.725674735926594,10.411250692161985,-18.291935217223255,-14.718927,-13.45631302051466,0.0,14.718927000000008,0.9686949602898738,0.216244,0.059162,-0.106623,1.0,0.0,0.0,0.0,28.748439898423573
4.0734,5527.358,1.4226461876325607,-1.8599589485680652,2.160342646325116,1.121995672506838,-0.05942698818625536,1.6378489986232432,-3.09196589191732,10.567846635380956,-18.28708093179191,-12.779227,-11.651966215781494,0.0,12.779226999999992,0.969425638609646,0.21966401,0.062709,-0.089606,1.0,0.0,0.0,0.0,28.409206361262267
4.096,5527.378,1.5873194065407277,-2.0348495292558657,1.7456645518881917,1.6942809498976816,0.010124250517484334,1.5574709465467274,-3.2201595679405894,10.930035577637295,-18.178612123548334,-11.397678,-10.30405808827377,0.0,11.397678000000013,0.9686654235565548,0.227809,0.061447,-0.077554,1.0,0.0,0.0,0.0,28.762070592478118
4.1196,5527.398,1.6878633736981008,-2.193782500270018,1.233257045009232,2.273172026826928,0.17518884557771364,1.5905844739385038,-3.2283820467239077,11.502259742067048,-17.895384189145666,-10.573664,-9.420773761055008,0.0,10.573664000000008,0.9661138534929514,0.241283,0.059816,-0.069488,1.0,0.0,0.0,0.0,29.916638202952036
4.1315,5527.418,1.9080911746521607,-2.303150121220827,0.5940338360521586,2.771400495816961,0.4274281568283689,1.6974538259958178,-3.5037786050847184,12.16649052489629,-17.399927429066558,-9.587445,-8.379704160342257,0.0,9.587445000000002,0.9617408296018528,0.25953701,0.066219,-0.057534,1.0,0.0,0.0,0.0,31.800200751583425
4.1558,5527.438,2.124539396319857,-2.2993454865590457,-0.1786102258875122,3.0571912464858952,0.7253065982351483,1.8511943409142715,-3.8642843106908633,12.773244834262472,-16.807417928494942,-8.110964,-6.916606828654175,0.0,8.110963999999996,0.9557522364990836,0.281279,0.076245,-0.040081,1.0,0.0,0.0,0.0,34.215888283766
4.1727,5527.458,2.184842359768507,-2.1300868818435545,-1.075259387495688,3.016147461176772,0.9853487886938429,2.0466658486913456,-4.049842388573775,13.232524250812087,-16.268564296904938,-6.31267,-5.220733413584351,0.0,6.312669999999997,0.9484119781798096,0.30479699,0.084896,-0.020154,1.0,0.0,0.0,0.0,36.968089718840154
4.1936,5527.478,2.0755957443183872,-1.7716946803175664,-2.0716484500472667,2.600564494578089,1.1063263848638127,2.267050286396815,-4.130997683991243,13.51421148498584,-15.85388269546296,-4.532921,-3.6251917136437646,0.0,4.5329209999999875,0.9398466865127418,0.32810101,0.095068,9.2e-05,1.0,0.0,0.0,0.0,39.94834932617948
4.2146,5527.498,1.775901974912529,-1.2704021789733386,-3.0852805703224693,1.8372166314812914,0.9580597861243687,2.5300751861163095,-4.143880196874936,13.661409621518397,-15.58352528051893,-3.061022,-2.3690458493230913,0.0,3.0610220000000083,0.9305337995942112,0.34943801,0.107914,0.018828,1.0,0.0,0.0,0.0,42.96364397478535
4.2392,5527.518,1.3585903056077275,-0.6293329015931355,-3.999845263166957,0.8506774190714489,0.5006053154201837,2.8462424403565656,-4.181349295522674,13.456481310153736,-15.659978959883347,-2.13594,-1.637464767232459,0.0,2.135940000000005,0.9245519694135964,0.35842201,0.12496,0.033501,1.0,0.0,0.0,0.0,44.79821501323982
4.2518,5527.538,0.8086873983034956,-0.06418211461630818,-4.731939863293346,-0.28320021176201066,-0.26223311689599904,3.243052012869645,-3.824849907232939,13.069822865479885,-16.01582364392571,0.038598,0.029773040176124935,0.0,0.03859800000000746,0.92364154913148,0.356451,0.131281,0.050934,1.0,0.0,0.0,0.0,45.07120885053581
4.2779,5527.558,0.37792140582433564,0.291732971296248,-5.27834558325333,-1.3641591433651201,-1.2641690093960682,3.601437000508394,-3.4418086927738356,12.54572676721167,-16.438843977124186,4.390498,3.4662514247424756,0.0,4.390498000000008,0.926367771227378,0.34346101,0.132129,0.08012,1.0,0.0,0.0,0.0,44.24896936565298
4.2958,5527.578,0.2799807994566646,0.41246551270364895,-5.603485339870268,-2.0968786134398956,-2.3969124045795995,3.855649578354482,-3.369795280944492,11.852247672117679,-16.801571800100533,10.254783,8.460495265823496,0.0,10.254783000000003,0.9303715694084916,0.31843099,0.1355,0.121038,1.0,0.0,0.0,0.0,43.014379784905366
4.3115,5527.598,0.5403791741568773,0.3835061794511585,-5.63393691976774,-2.3942904501778624,-3.401439141156075,4.008340685936024,-3.206468242223499,11.029815892767054,-17.089423643281723,16.717585,14.545157740340025,0.0,16.717584999999985,0.9352830471165934,0.28233901,0.13357399,0.166398,1.0,0.0,0.0,0.0,41.45215723842573
4.3421,5527.6181,1.0259114328624406,0.2527981173812366,-5.265541344650641,-2.4712540044546536,-3.994764652834432,3.999046059486097,-2.3107064498265584,10.502173753583929,-17.132805350953948,23.142111,20.888838257479918,0.0,23.142111,0.9402357583181892,0.244709,0.11112,0.20910899,1.0,0.0,0.0,0.0,39.81762660354983
4.3591,5527.6381,1.503124990649067,0.03752600439783915,-4.4041676106472565,-2.5034458108813347,-4.042165099077699,3.7693354819647973,-0.6921926340064032,10.557837308887176,-16.756627198836295,29.666735,27.29292187331559,0.0,29.66673499999999,0.942148174183562,0.21195801,0.064753,0.25147101,1.0,0.0,0.0,0.0,39.1689974406336
4.372,5527.6581,1.969835018759179,-0.023800418422544545,-3.159721588124616,-2.3484699951971297,-3.503931854145848,3.5436232265212277,0.5425407510594462,10.721644455390338,-16.247595612516694,35.426437,33.365938052235755,0.0,35.42643699999999,0.9389147719781492,0.17683899,0.024719,0.294204,1.0,0.0,0.0,0.0,40.25980408103609
4.3952,5527.6781,2.578591276752327,0.23575409357934163,-1.8378399535645578,-1.967403457974251,-2.5623868918153274,3.3659449136342166,0.9416641738512843,10.810623074699029,-15.9408724806161,39.440868,37.95607397578873,0.0,39.440867999999995,0.9334228164669,0.142757,0.010911,0.328973,1.0,0.0,0.0,0.0,42.05036846978744
4.4166,5527.6982,3.1365574724666736,0.7757976103930642,-0.6871524321355604,-1.4216463645137276,-1.6043161995286717,3.0394817163790737,0.909725374019116,10.998074272313756,-15.775846100531743,43.362377,42.31869182509339,0.0,43.36237700000001,0.924422399657559,0.115234,0.00903,0.36343199,1.0,0.0,0.0,0.0,44.83716330950499
4.4361,5527.7182,3.41328017896223,1.3846295877695673,0.13698647001731779,-0.7970409648151751,-0.8739814770338039,2.5293336689276384,0.8866984743828068,11.32942359631257,-15.622758465836586,47.018211,46.23770386823168,0.0,47.01821100000001,0.9139075991012656,0.09648,0.005746,0.39424801,1.0,0.0,0.0,0.0,47.89787018827113
4.464,5527.7382,3.5078765941995176,1.8921016547283944,0.48886363378875153,-0.1033256527130829,-0.48924087149974016,1.9251859687975967,0.7380172118542268,11.700393010854443,-15.474361540581473,49.941837,49.25507893964372,0.0,49.94183699999999,0.9041034481888672,0.088467,0.00481,0.418028,1.0,0.0,0.0,0.0,50.594395987514
4.4744,5527.7583,3.4129657102300195,2.1000287198689245,0.41653042518907846,0.5639426981033385,-0.5051985647957151,1.2905960461384793,0.5194758128288366,12.217423985377195,-15.189141763510548,52.321877,51.520103814352986,0.0,52.321877,0.8951235191963732,0.093863,0.000448,0.43582499,1.0,0.0,0.0,0.0,52.95140028316562
4.5088,5527.7783,3.1613509248349723,2.121135090566717,0.021067554284115886,1.1099336248297669,-0.8495053632884597,0.6997871397480719,0.3142600702450471,12.687241220045834,-14.893609577249276,54.102554,53.0958071931881,0.0,54.102554,0.8879274782170444,0.104263,-0.007759,0.44794399,1.0,0.0,0.0,0.0,54.77208182016966
4.5179,5527.7983,2.678861066417318,1.9602217247609701,-0.48559557252633745,1.4582122661093428,-1.4223724517758458,0.25074761520183797,0.5186872898917558,13.156977122046175,-14.5451523807725,55.149368,54.025702840582824,0.0,55.14936800000001,0.8834795344981569,0.113126,-0.029402,0.45365399,1.0,0.0,0.0,0.0,55.87002168684677
4.5337,5527.8183,2.2041190240957627,1.6568784328392523,-0.9806586904276973,1.5804630625097191,-2.102676811030823,-0.013331483976460001,1.0346377013797863,13.681071839169,-14.07760538157943,55.371506,54.32511502349587,0.0,55.37150600000001,0.8814356088552242,0.121083,-0.059702,0.45259899,1.0,0.0,0.0,0.0,56.36794417572761
4.554,5527.8384,1.8955262017977943,1.2873978369937256,-1.3009650481316921,1.496218062897864,-2.7633816526163155,-0.12386109946231105,1.6537141113450065,14.296835318396393,-13.418625522617141,55.269444,54.520396320553814,0.0,55.26944399999999,0.8792526291944767,0.129509,-0.09396,0.44868001,1.0,0.0,0.0,0.0,56.895320912910705
4.5716,5527.8584,1.7301975299474794,1.044873062845192,-1.2789113769650076,1.325070347712788,-3.285145099169712,-0.10649907828746358,2.228801954694892,14.824501782482448,-12.75061569965194,55.490341,55.42171321164891,0.0,55.490341,0.8745341567883211,0.131603,-0.12882701,0.448636,1.0,0.0,0.0,0.0,58.02021780884184
4.5965,5527.8784,1.5147904328010862,0.9735237246691556,-0.8244599208220702,1.225763321499729,-3.5764181703078637,-0.0012898195950546698,2.798675931592694,15.22791472966021,-12.140042324243142,56.217239,57.45869661964182,0.0,56.217239000000006,0.8656207277488449,0.123963,-0.167906,0.45512801,1.0,0.0,0.0,0.0,60.09268000998594
4.6153,5527.8985,1.170082243182785,1.0584247554404147,-0.09348307254091814,1.28043371575986,-3.604949905709679,0.158959376895137,3.320381420929454,15.44846280055974,-11.707332192906566,56.853928,59.94961313123517,0.0,56.853927999999996,0.8546957642671922,0.108082,-0.207064,0.46361399,1.0,0.0,0.0,0.0,62.54771926078615
4.6429,5527.9185,0.7650176768274533,1.155241387693228,0.6020361822795941,1.4887845680807568,-3.423357194134905,0.3269866896468556,3.6303850382317666,15.558040381325306,-11.432701615675962,57.230942,62.317505386874984,0.0,57.230942,0.8434466392415348,0.092758,-0.241944,0.47059199,1.0,0.0,0.0,0.0,64.98822777656638
4.6563,5527.9385,0.37956807511340895,0.8843651887814016,1.0178589526946418,1.7837690682738272,-3.1717398206243725,0.4066051116934112,3.568163594004898,15.868938329472382,-10.934321854638396,57.724022,64.94427618785305,0.0,57.72402199999999,0.8293196187086135,0.09298,-0.278548,0.475389,1.0,0.0,0.0,0.0,67.94218059141933
4.6936,5527.9585,0.2530198463448672,0.3383563121158766,1.0225099869532173,2.045719707609878,-3.0169122265218347,0.4128223645637434,3.0312958733881032,16.17780742864103,-10.489676374925557,58.376705,67.46745979527755,0.0,58.376705000000015,0.8148968355520715,0.105935,-0.30998799,0.47815099,1.0,0.0,0.0,0.0,70.84567499985079
4.6977,5527.9786,0.365625953948413,-0.2794697062394673,0.6851598831448893,2.204168158795759,-3.075124060472853,0.38471374719907264,2.2440103766135264,16.297505132562215,-10.31040282446905,58.942932,69.69355198261492,0.0,58.942931999999985,0.8014925418632789,0.121712,-0.33682299,0.478901,1.0,0.0,0.0,0.0,73.45426619402348
4.7176,5527.9986,0.4582994130144502,-0.8528950829263153,0.20666208775440786,2.275564444204875,-3.357833549431155,0.40885946230356174,1.5859435861350955,16.208997102521028,-10.40192674759028,59.101238,72.26754201201558,0.0,59.101237999999995,0.7865822479020105,0.130346,-0.36777899,0.478578,1.0,0.0,0.0,0.0,76.26549085095542
4.7314,5528.0186,0.5172030405211077,-1.2895321607511407,-0.21024038289771063,2.3135621575621306,-3.788527642436487,0.5580603588621149,1.155438922266014,15.932347023664105,-10.785103003169615,58.660671,75.1569105591383,0.0,58.66067100000001,0.7710530055211897,0.129344,-0.40138701,0.477112,1.0,0.0,0.0,0.0,79.1029155616437
4.7528,5528.0387,0.5399276959848112,-1.6068647741059123,-0.4559435623070467,2.362137168927772,-4.248243255136165,0.8477613212002362,0.8587712809619763,15.614418530836844,-11.24327919478859,57.833378,78.67496240342918,0.0,57.83337800000001,0.7530540611332495,0.124182,-0.43820101,0.47483501,1.0,0.0,0.0,0.0,82.28874560300459
4.7737,5528.0587,0.5143951989906745,-1.7797292190406724,-0.5073404421940992,2.48017889635967,-4.603672779419603,1.2526722383796942,0.40425980228891767,15.341761941892656,-11.640623082701262,57.558189,83.89992813501891,0.0,57.558189,0.726965618785414,0.121724,-0.478576,0.47714701,1.0,0.0,0.0,0.0,86.73477860228351
4.7964,5528.0787,0.4432547580149939,-1.7298757146116817,-0.38561527404435125,2.633603072985751,-4.790267082140467,1.7432171978436135,-0.23737091944243183,15.0006081720995,-12.086038586612453,57.805462,90.47558454862614,0.0,57.805462000000006,0.6941931969643176,0.121591,-0.51890701,0.48378399,1.0,0.0,0.0,0.0,92.07407949083657
4.8137,5528.0987,0.29942384507207764,-1.4803523776934377,-0.164975932240516,2.7615384254852753,-4.793589786075803,2.269795993310245,-0.9785904220390407,14.50761010568225,-12.646248585587182,58.30806,97.7095539991419,0.0,58.30806000000001,0.6570511004622087,0.123199,-0.55721498,0.492562,1.0,0.0,0.0,0.0,97.84928232180856
4.8335,5528.1188,0.06470588214935624,-1.1135119113525027,0.05211420917268228,2.8168613673360996,-4.629403467686003,2.782265177030385,-1.7237938638589192,13.85250321115099,-13.346932776860779,59.045029,105.07145015876242,0.0,59.045029,0.6164924033934885,0.127214,-0.59247899,0.50271499,1.0,0.0,0.0,0.0,103.87911762106258
4.852,5528.1388,-0.22257420823068186,-0.8136211982718193,0.17461281762506609,2.7746123993260765,-4.363550863813154,3.189281403503265,-2.4220782785713446,13.216229632873588,-14.059331432073954,60.022125,111.91963855346533,0.0,60.02212500000002,0.5728303409891271,0.138262,-0.62516499,0.51177901,1.0,0.0,0.0,0.0,110.10433837952566
4.8719,5528.1588,-0.52814955662181,-0.6511417575117242,0.17339393919733226,2.600077926185117,-4.072366078345091,3.4719085395564093,-2.9405662483153847,12.68864905227878,-14.759153648457724,61.06601,117.7978606609212,0.0,61.066010000000006,0.5277621043732484,0.15447,-0.65473098,0.51858801,1.0,0.0,0.0,0.0,116.29125286405713
4.8957,5528.1788,-0.8245073718401601,-0.5363670580572273,0.0555245728523559,2.2966010895375106,-3.777991730732872,3.6937272694576375,-3.186105254253608,12.121738403464121,-15.549127369299544,62.353985,122.8360835826755,0.0,62.353984999999994,0.4825992835852119,0.169475,-0.67866099,0.52706301,1.0,0.0,0.0,0.0,122.289393242761
4.9138,5528.1988,-0.9869159587570171,-0.4765854631253499,-0.1582374932029076,1.9442048815951787,-3.5167959449730044,3.8695936201378283,-3.271177544417837,11.482414919191475,-16.3463294273866,64.075768,126.96417759745017,0.0,64.07576799999998,0.4385778634506295,0.183854,-0.696082,0.53788197,1.0,0.0,0.0,0.0,127.97364322384836
4.9336,5528.2188,-0.9114260279514772,-0.45964315649072174,-0.4240064614211949,1.5956504700989163,-3.330976901332628,4.02773363881876,-3.20592799650065,10.807047841098393,-17.07665154624757,65.982201,130.39133567760507,0.0,65.982201,0.3968346499263888,0.196373,-0.70832002,0.549766,1.0,0.0,0.0,0.0,133.23910859221155
4.9552,5528.2388,-0.5316986273312585,-0.49367852962424896,-0.6731591631361002,1.3191870883140755,-3.2529526175206867,4.173144005830677,-3.114148654474631,10.227652211844994,-17.634481154512258,68.197594,133.27583085347922,0.0,68.19759399999998,0.3546180400154219,0.210732,-0.71720099,0.56165898,1.0,0.0,0.0,0.0,138.4599264855956
4.98,5528.2588,0.14915866247125376,-0.44913551945198193,-0.8182206605862454,1.1476741437489737,-3.2648368931322476,4.3299061151779945,-3.1060971155303143,9.702213916113859,-18.061677677974515,70.918961,135.54590258127544,0.0,70.918961,0.3137186960831933,0.22658899,-0.72141802,0.57427698,1.0,0.0,0.0,0.0,143.43304006211568
5.0046,5528.2788,0.924511313254698,-0.26874922271545953,-0.7929998352585272,1.0593359319700157,-3.333319443271943,4.50514667201001,-3.1294539227133367,9.242415156156596,-18.41974284612833,74.165657,137.71189940489512,0.0,74.16565700000001,0.2700752190273293,0.243275,-0.72246701,0.588148,1.0,0.0,0.0,0.0,148.66251426149876
5.0158,5528.2988,1.4956726763874761,-0.015272895502709494,-0.5507681593324403,0.9615504913708757,-3.443356006398101,4.6777219001925125,-2.924139296962869,9.015859962303121,-18.7343435410729,77.118896,140.54056676541674,0.0,77.118896,0.218499145230957,0.25735399,-0.72451597,0.60091901,1.0,0.0,0.0,0.0,154.7582082815264
5.0315,5528.3188,1.808668023739791,0.32657379311292356,-0.12178510778927709,0.8287828518367966,-3.5190068728510635,4.8495337525988855,-2.581665734611984,8.901387091889543,-19.062223343666624,80.010658,143.53425835609758,0.0,80.01065800000003,0.165966287040226,0.26818901,-0.72428697,0.61313802,1.0,0.0,0.0,0.0,160.8932547230428
5.0557,5528.3388,1.84770800566339,0.6664627164970683,0.4135566121169809,0.6543935239918164,-3.552505564857048,4.967200775249368,-2.2141921825291533,8.91476218856477,-19.326252728569035,82.965195,146.4105641103434,0.0,82.965195,0.1128633419367806,0.27919799,-0.72166902,0.62330103,1.0,0.0,0.0,0.0,167.03919765300753
5.077,5528.3588,1.5891384651807234,0.9651681966293839,0.9846011400046883,0.4327544987666123,-3.5358843108346005,4.960284540527184,-1.8379098506942189,8.97980450689865,-19.50283454590934,86.454346,149.25602334768968,0.0,86.45434599999999,0.0564148487807905,0.29218799,-0.71552801,0.63203102,1.0,0.0,0.0,0.0,173.53190049359205
5.0946,5528.3788,1.048135390345378,1.2385934391016744,1.5210778722009621,0.16743188768927864,-3.43711366238596,4.77058895309059,-1.412108764784139,8.9423472588464,-19.653237088312473,91.412048,152.25340574087352,0.0,91.41204800000003,0.0026890184156645,-0.306252,0.70336699,-0.64146501,1.0,0.0,0.0,0.0,179.69186081614833
5.1138,5528.3988,0.3203534750798629,1.409305791564534,1.9626887597454967,-0.12275132462815819,-3.265530943127442,4.357628864377425,-0.9129359929250365,8.821338409885628,-19.79740601611668,98.05735,155.4954387511634,0.0,98.05734999999999,0.0607046562591349,-0.31945801,0.68620199,-0.65068299,1.0,0.0,0.0,0.0,173.0394793432246
5.1367,5528.4188,-0.4447808581830168,1.3844395713606765,2.2816628525544793,-0.43319731182310117,-3.0519860969844412,3.7517950024782287,-0.2968200158310701,8.677628496899107,-19.948371385019996,105.969757,159.04520391949038,0.0,105.96975700000002,0.112026807317352,-0.328275,0.66771102,-0.65867102,1.0,0.0,0.0,0.0,167.13566929091442
5.1548,5528.4388,-1.0484053177987027,1.1718585984428134,2.489937341828856,-0.7367643537804794,-2.82246922384571,3.0597048843495274,0.31770155388318155,8.480534799672395,-20.142633842141457,114.898521,162.38683470356483,0.0,114.89852100000002,0.1514648424157175,-0.33347699,0.65049797,-0.66535997,1.0,0.0,0.0,0.0,162.57634827281302
5.1792,5528.4588,-1.4494573674241669,0.8523612808971126,2.6200689377791235,-1.0301232324396492,-2.599231742823231,2.397051957209349,0.8780238194418746,8.177279316714012,-20.408048703276727,124.868156,165.3148719447775,0.0,124.868156,0.1797176956279461,-0.33654499,0.63480598,-0.67190802,1.0,0.0,0.0,0.0,159.29336637787884
5.1946,5528.4788,-1.7737818781115817,0.5233826956409262,2.6854380804975744,-1.314696322293821,-2.3862447491199874,1.8220972551680057,1.4349045644229004,7.753156998295683,-20.729728090883214,136.772369,168.25519051761168,0.0,136.77236900000003,0.2021452512082294,-0.33797199,0.61874503,-0.67975497,1.0,0.0,0.0,0.0,156.67512881657495
5.2124,5528.4988,-2.151755403438557,0.2794289038074207,2.6836755062386413,-1.5850538668928429,-2.1554697848383673,1.3232846852222633,2.0579859534954483,7.210893118467222,-21.066058092864726,151.207703,171.6744018427953,0.0,151.20770300000004,0.2217148595783305,-0.33685699,0.60083801,-0.69019097,1.0,0.0,0.0,0.0,154.38045012725206
5.2327,5528.5189,-2.580266797088608,0.16081653834395837,2.6246702457846425,-1.8054105858200424,-1.8917588075051752,0.8536966489735816,2.613278260531604,6.573141297846227,-21.38138111386718,166.086075,175.4190852545822,0.0,166.086075,0.2400682628899539,-0.336436,0.579561,-0.702344,1.0,0.0,0.0,0.0,152.21886134576434
5.2549,5528.5389,-2.8948802877931072,0.14706195354744223,2.553668765654713,-1.9669090542960905,-1.6032131727483256,0.3824755605576052,2.8472650379249567,5.906104644159308,-21.656349964045486,176.178345,178.50353197225724,0.0,176.17834500000004,0.2533609174112683,-0.33972001,0.55720198,-0.71408999,1.0,0.0,0.0,0.0,150.647033010906
5.2735,5528.5589,-2.9956926114799516,0.185940170803784,2.5103037050068657,-2.09864226999283,-1.3092390627112505,-0.0861032082937544,2.6674907605969036,5.328521020684565,-21.847426449602207,-179.287689,-179.67139670608537,0.0,179.287689,0.2587972005113655,-0.34573001,0.53715599,-0.72454,1.0,0.0,0.0,0.0,150.00259150144302
5.3055,5528.579,-2.950472264671841,0.2218666289040594,2.4875561408230844,-2.235061462590306,-1.0115575583931415,-0.5172979514667869,2.244969447741549,5.010505345352027,-21.867532622196492,-177.303619,-178.59600921568227,0.0,177.303619,0.2581462059852897,-0.34941,0.52099401,-0.73473698,1.0,0.0,0.0,0.0,150.07981409494775
5.3251,5528.599,-2.8059869165647253,0.28943595169038083,2.476632346056684,-2.3880436902915765,-0.6830958951976798,-0.8415202897027468,1.6947898920888629,4.996008048500308,-21.68919355838987,-176.467178,-177.99357596249462,0.0,176.467178,0.2517041821847618,-0.34839499,0.50772601,-0.74664599,1.0,0.0,0.0,0.0,150.84324030367839
5.3324,5528.619,-2.5155960356554536,0.47292626566278706,2.4895406849925195,-2.5459682433431996,-0.31257825532865524,-1.0007206178537638,0.9594335438360604,5.199255023891214,-21.364749018125494,-176.967712,-178.13287963666525,0.0,176.967712,0.2388559867018186,-0.34636599,0.49421501,-0.76074302,1.0,0.0,0.0,0.0,152.36194076956275
5.3601,5528.639,-2.032626730237696,0.7408895901456498,2.534219302201395,-2.688340120920235,0.09427755288363887,-1.0051914821055496,0.01882336763366632,5.667224810043798,-20.930942602924517,-179.02417,-179.35052465280845,0.0,179.02417,0.2201837753264753,-0.34678799,0.48095599,-0.77455699,1.0,0.0,0.0,0.0,154.56034554227048
5.3757,5528.6591,-1.3696577182709677,1.0346169926260123,2.5924393122026377,-2.7973671285122177,0.49015687188644813,-0.9176315266207538,-1.1176627023089165,6.383954200027348,-20.40664557304511,177.848572,178.44806705977697,0.0,177.848572,0.1995437075568645,-0.35423499,0.4677,-0.78482902,1.0,0.0,0.0,0.0,156.97944486380445
5.3999,5528.6791,-0.710536342357403,1.3747631786295624,2.6091719862426785,-2.8557618849576514,0.8622015564547356,-0.8430290842419399,-2.1544060444910427,7.186190462246705,-19.820394159801396,174.545624,175.71851029030395,0.0,174.54562399999998,0.1777362317207143,-0.36572,0.45384601,-0.79289502,1.0,0.0,0.0,0.0,159.52414123106
5.4145,5528.6991,-0.3146197314433319,1.7420542516911137,2.556215951377782,-2.8459972785714616,1.2308963200436835,-0.8815599502371659,-2.7155781282801525,7.966645809573609,-19.22012256214642,172.077286,173.32342719132495,0.0,172.07728599999996,0.1564719678826819,-0.37437201,0.43974599,-0.80124003,1.0,0.0,0.0,0.0,161.99564890873845
5.4354,5528.7192,-0.12458307716676953,2.1418880323437017,2.4428384798342826,-2.7706532481685313,1.61620758400033,-1.0444885238723711,-2.9161092097947305,8.582908915614619,-18.637279300924504,169.605469,170.68976560970418,0.0,169.60546899999997,0.1328239859383825,-0.38181999,0.42605999,-0.80934799,1.0,0.0,0.0,0.0,164.73437939594615
5.4545,5528.7392,0.022400949655656754,2.5357927339825013,2.28818559808413,-2.6501438469393253,2.013238481287989,-1.3103307881289903,-2.9938508779816995,8.985410033538312,-18.04849674705263,166.471451,167.18635672650754,0.0,166.471451,0.104886045553829,-0.391166,0.413959,-0.81524599,1.0,0.0,0.0,0.0,167.95879760213953
5.4749,5528.7592,0.23279399592582406,2.8104006953679015,2.129179081131536,-2.5338257065712013,2.3986784535706267,-1.6454518642270937,-3.121504591759754,9.299805488177746,-17.372479600284727,162.782532,162.85423935466474,0.0,162.782532,0.0752418507180607,-0.40368301,0.405476,-0.81668103,1.0,0.0,0.0,0.0,171.36976280991163
5.5024,5528.7792,0.5725881658079723,2.9675804465118527,1.9765944270553497,-2.458703647917615,2.77439451018381,-2.020482543391568,-3.2734261058773693,9.593887208795774,-16.616209471229183,158.550201,157.70511973636255,0.0,158.55020100000002,0.0422293976054524,-0.417622,0.40029001,-0.81460202,1.0,0.0,0.0,0.0,175.15942804761445
5.5151,5528.7993,1.0439359528332468,3.0381163769567054,1.8311847247651585,-2.438828906862682,3.1588367588373667,-2.3944321468512735,-3.349818929766737,9.908579869107024,-15.819739232861155,154.053391,152.10941484518924,0.0,154.05339100000003,0.0053434363886641,-0.430511,0.396864,-0.81063598,1.0,0.0,0.0,0.0,179.38768437980445
5.5433,5528.8193,1.6464415316399248,3.042662348405975,1.694524436731438,-2.4389816486714366,3.5956989278010645,-2.7143084652561638,-3.2245226723861538,10.261413726583912,-15.023141199605336,149.249741,146.28076310777843,0.0,149.24974099999997,0.0372898530651401,0.43964499,-0.395154,0.80571401,1.0,0.0,0.0,0.0,175.72590666613212
5.5623,5528.8393,2.4255624756005263,2.988559426433985,1.54330827441105,-2.449224346371572,4.097475986514906,-2.9227954807483347,-2.995812445866889,10.645470390744478,-14.24988689628574,144.079697,140.0911318544042,0.0,144.079697,0.0848659183236699,0.447938,-0.394333,0.79790401,1.0,0.0,0.0,0.0,170.26337060794515
5.5743,5528.8594,3.384254288194046,2.883153938821952,1.3079836718668005,-2.4796583140303228,4.635262781191603,-3.0032820160365867,-2.780115413979492,11.076209322904806,-13.549393262871707,138.805847,133.42595875144582,0.0,138.80584699999997,0.1346953002609959,0.45916,-0.39333001,0.785061,1.0,0.0,0.0,0.0,164.51799809167863
5.5959,5528.8794,4.468145356032059,2.7854651100346635,0.8736446749243463,-2.565176884442201,5.132323524585956,-2.9985592915094132,-2.6842729850294123,11.517362850924425,-12.985127047106833,133.968826,126.2661894998845,0.0,133.96882600000004,0.183949380139917,0.47617999,-0.38907301,0.76683599,1.0,0.0,0.0,0.0,158.80022971959283
5.6139,5528.8994,5.535750159431446,2.7455724866077915,0.16871745884451883,-2.695957380474675,5.517680250953297,-2.9970838076031137,-2.6469411038988837,11.902512598221728,-12.591727986757327,129.871033,118.91643153415174,0.0,129.871033,0.2324612933820595,0.496214,-0.37941301,0.74550599,1.0,0.0,0.0,0.0,153.1159563770187
5.6322,5528.9194,6.435420972722797,2.6766359999916776,-0.7537537968298764,-2.79974896014893,5.77787022684384,-3.05239493932761,-2.4712371187292868,12.250423943353374,-12.331790476080227,126.143204,111.8836893045934,0.0,126.14320399999997,0.2814670103457948,0.51322502,-0.366898,0.723023,1.0,0.0,0.0,0.0,147.3044400125382
5.6543,5528.9395,7.106230027972958,2.497575682672897,-1.8002903124338356,-2.832116799759482,5.898322234082814,-3.1839630040310705,-2.0670195239312155,12.531811217244147,-12.229147704479105,122.396347,105.40205737449428,0.0,122.39634699999999,0.3328518545748835,0.52358198,-0.35236901,0.70064801,1.0,0.0,0.0,0.0,141.1160736810541
5.6747,5528.9595,7.566762837644386,2.0942690573635923,-2.903384936115418,-2.841212996499816,5.879361420740341,-3.2833492629876813,-1.546491180696881,12.816239789986987,-12.184144050384582,118.428261,99.06153362373911,0.0,118.42826100000002,0.3851372578357484,0.53067899,-0.33749899,0.67538399,1.0,0.0,0.0,0.0,134.69547667984926
5.6981,5528.9795,7.7661604434059335,1.406711050161627,-3.99180846686908,-2.882234058075239,5.754840643948818,-3.214771400013293,-0.9475270458087728,13.203486596068881,-12.06755423707251,114.106049,92.54674206387578,0.0,114.10604899999998,0.4359341414179207,0.53822601,-0.32558501,0.643637,1.0,0.0,0.0,0.0,128.3105006954463
5.7239,5528.9996,7.558366567391684,0.6642631428990855,-4.942414039288731,-3.0188749467721268,5.5182114760424295,-2.9992224235774825,-0.32204187051857325,13.59357909068054,-11.962527952605878,109.97686,86.32798374020898,0.0,109.97685999999999,0.4823002491676523,0.54518998,-0.313582,0.60977101,1.0,0.0,0.0,0.0,122.32851402780192
5.7397,5529.0196,6.903483284347297,0.1419976044614839,-5.583465714725511,-3.2245062461342835,5.194541897237045,-2.78570093563816,0.3266681312526405,13.813475783182772,-12.056683160975275,106.140366,80.99843748827286,0.0,106.14036599999997,0.5253997709566682,0.545928,-0.29768601,0.58077598,1.0,0.0,0.0,0.0,116.60968092629007
5.7534,5529.0396,5.926622991525163,0.00968567939473497,-5.807032435654791,-3.421780317065234,4.851332149232126,-2.744066279242136,0.9887541303401362,13.768682907928369,-12.423282436963973,102.448158,77.0385851344787,0.0,102.44815800000003,0.5659759122441518,0.535761,-0.27693701,0.56208301,1.0,0.0,0.0,0.0,111.05982425255236
5.7731,5529.0596,4.8604668716542445,0.2268647428667674,-5.740683119090546,-3.535675630217545,4.56769105472585,-2.9437202950637618,1.652521383574963,13.53093008332325,-12.913077399084159,98.554436,74.16083245225936,0.0,98.55443600000001,0.6045149203738145,0.51604098,-0.254392,0.55095202,1.0,0.0,0.0,0.0,105.612112025548
5.8005,5529.0796,3.9362492173717176,0.6122373397906242,-5.666774915926891,-3.5937061238409305,4.358695891334252,-3.3168426415979444,2.2032738936885083,13.27021111824541,-13.325758131559176,94.239731,71.28314562357089,0.0,94.239731,0.642040490100865,0.49371099,-0.23164199,0.53886497,1.0,0.0,0.0,0.0,100.11171493933358
5.8146,5529.0996,3.2791770770827915,0.8275881280644799,-5.763260004703059,-3.6436685593874882,4.287002511127154,-3.671064949915619,2.780858760725855,13.267234711493476,-13.376433006550105,88.773651,67.1976311744805,0.0,88.77365099999997,0.6803257267677006,0.476688,-0.216415,0.512923,1.0,0.0,0.0,0.0,94.26179654371181
5.8364,5529.1196,2.825117799627466,0.7353270408252385,-6.0369129312426,-3.7869001436707155,4.284157070680166,-3.9292819090873587,3.417832962854849,13.494111475820661,-13.103924827809713,82.272644,62.09344355569125,0.0,82.27264400000001,0.7186704310406403,0.46381399,-0.207009,0.47490701,1.0,0.0,0.0,0.0,88.11036482936849
5.8557,5529.1396,2.398051161222106,0.34581679417484296,-6.375949606063051,-4.073916338231256,4.150410780743785,-4.17045608033799,3.9308858673259666,13.69685314418885,-12.866143160653177,75.234543,56.97880094704354,0.0,75.234543,0.7566719908138134,0.44568101,-0.193443,0.43748799,1.0,0.0,0.0,0.0,81.65664025325786
5.8723,5529.1596,1.924887550823389,-0.38295914550243454,-6.573926738666383,-4.511777920359451,3.729644906583878,-4.365499218427889,3.857283606567511,13.822138797562074,-12.98836397599171,67.862099,51.61851795361818,0.0,67.862099,0.7952699661443526,0.42064801,-0.162673,0.40514001,1.0,0.0,0.0,0.0,74.63847586866021
5.8957,5529.1796,1.3034531251400163,-1.5363696105432623,-6.27540977334945,-4.8182412081923145,3.137753122779915,-4.444784621756913,3.5610780477885644,13.982622051161323,-13.304870649195557,59.455696,45.89125022909257,0.0,59.45569599999999,0.8339062172239872,0.38926399,-0.125645,0.37052301,1.0,0.0,0.0,0.0,66.99576549837863
5.9156,5529.1996,0.39767362697635444,-2.9137855708539138,-5.200656523744467,-4.730247351975345,2.477957068308964,-4.419672521099094,3.55588368238234,14.131408105129012,-13.70028978787698,50.095001,40.07938845383321,0.0,50.095000999999996,0.8714801830173765,0.34974,-0.095868,0.330172,1.0,0.0,0.0,0.0,58.73779089379476
5.9345,5529.2196,-0.7488572090796105,-4.105863617956027,-3.31573576285286,-4.245851353558526,1.7523651446106956,-4.197455781541717,3.738073404904464,14.214579300725157,-14.189537177213063,40.866535,34.18397283192133,0.0,40.866535,0.905097272345133,0.30658701,-0.071833,0.28573301,1.0,0.0,0.0,0.0,50.32722560901086
5.9546,5529.2396,-1.9782082377162005,-4.787391719718173,-0.8744087587641491,-3.4034630775489516,0.9701287506160925,-3.771769495493748,3.999609096686668,14.21515835535779,-14.698062776976487,33.37011,29.172288847709066,0.0,33.37011000000001,0.9310190993702652,0.26388901,-0.055847,0.24586,1.0,0.0,0.0,0.0,42.81152953613241
5.9825,5529.2596,-3.1687782281850536,-4.838140815512398,1.6512116956597236,-2.3134187059458915,0.21139124407754786,-3.173160512530794,4.297823437012216,14.039586549146406,-15.217098136092883,28.157925,25.607637021046568,0.0,28.157925000000006,0.9493338954056154,0.222828,-0.050065,0.215885,1.0,0.0,0.0,0.0,36.633408215821866
6.0084,5529.2796,-4.230906032295299,-4.640498611787431,3.68365856525115,-1.1928986234413226,-0.31966177977903876,-2.4324171692555576,4.647936692792377,13.988017698658254,-15.455017335638685,24.487589,22.785876720745534,0.0,24.487589000000014,0.9602350826208028,0.196812,-0.054107,0.19048899,1.0,0.0,0.0,0.0,32.42406166208149
6.0137,5529.2995,-4.97017523055772,-4.5793441244685695,4.978154762819116,-0.24067471406028806,-0.6168377079241056,-1.6638207648318537,4.830914482767656,14.177245831340331,-15.441919493590227,22.248863,20.866555994868925,0.0,22.248863,0.9648683697017952,0.188602,-0.061316,0.172333,1.0,0.0,0.0,0.0,30.464671770474247
6.046,5529.3195,-5.2743609566625995,-4.710649360661502,5.59471333125294,0.4777432470693338,-0.7460537812056869,-0.9776082834672706,4.687344717930568,14.43707290770875,-15.411364566291232,21.549292,20.20310354205251,0.0,21.54929200000001,0.965408818872606,0.190409,-0.065881,0.165499,1.0,0.0,0.0,0.0,30.22805710049844
6.0527,5529.3395,-5.380802353893897,-4.844692260550697,5.656973116505977,1.0035618940937314,-0.7936197777645022,-0.4264943275865488,4.5802762568130655,14.490571863869134,-15.483432203141204,21.445276,20.08734160835661,0.0,21.445276000000007,0.9648559376730808,0.193279,-0.070964,0.16328,1.0,0.0,0.0,0.0,30.470093539611266
6.0962,5529.3595,-5.3004020506658165,-5.05553428153452,5.302619835347613,1.427272174333778,-0.8532855350955797,-0.03513135186006028,4.501552381041562,14.413549977877931,-15.562214374328347,21.600386,20.16561165419252,0.0,21.600386000000015,0.9635178472514144,0.198746,-0.074826,0.162894,1.0,0.0,0.0,0.0,31.048248700825724
6.1034,5529.3795,-5.059814889271461,-5.413431489257659,4.605034885909667,1.8393263582419412,-0.9736713696894138,0.19843646140449478,4.3586284853237975,14.369854790789468,-15.531016249761146,22.433584,20.786180964298897,0.0,22.433583999999996,0.9603876322933048,0.20885301,-0.077924,0.167224,1.0,0.0,0.0,0.0,32.3613903979365
6.1237,5529.3995,-4.850273850890381,-5.8551212741437775,3.5520144053136455,2.2615386691215176,-1.1440621897959633,0.32191032153080523,4.313631513851115,14.489098953514187,-15.29171970532273,24.08736,22.072695420053922,0.0,24.08735999999999,0.9546303659584688,0.224353,-0.086159,0.17585,1.0,0.0,0.0,0.0,34.65022641659561
6.1324,5529.4195,-4.840113201918004,-6.205251009544576,2.1558119979914974,2.648006865849857,-1.349950882305708,0.4116002775303125,4.594675430307419,14.80512651523181,-14.818046562816207,25.972237,23.486817516509458,0.0,25.972237000000007,0.9464661300728092,0.245143,-0.104276,0.1823,1.0,0.0,0.0,0.0,37.66506330964554
6.1536,5529.4395,-4.846079388195528,-6.306574766388479,0.5888649862383186,2.959850058772775,-1.5749143990622543,0.49366234174239776,4.905239337861591,15.247983522751706,-14.234445399525248,27.912855,24.806408963544783,0.0,27.912855000000008,0.9362303548972336,0.270511,-0.125802,0.185662,1.0,0.0,0.0,0.0,41.144329807028534
6.1722,5529.4595,-4.687712884877161,-6.05212056865397,-0.8978916496333955,3.1992217740341906,-1.816031770625861,0.5449079092316222,4.904600556564638,15.6165715065668,-13.745605773585368,30.129044,26.196734383022093,0.0,30.129043999999993,0.924597529028712,0.297268,-0.144491,0.189403,1.0,0.0,0.0,0.0,44.78451228936518
6.2021,5529.4795,-4.238424958727669,-5.364103591486064,-1.9914549428004253,3.4182686561595546,-2.064477576612223,0.5031584922605024,4.304329857045801,15.547526025385379,-13.747579258322888,32.439301,27.59882955731159,0.0,32.439301,0.9146297048150142,0.318113,-0.153274,0.196885,1.0,0.0,0.0,0.0,47.69361030682415
6.2175,5529.4995,-3.7007628449956047,-4.442577517740332,-2.7473960342558303,3.6635886786223937,-2.325177191897798,0.3427116533600454,3.4022255750846084,15.069199280067364,-14.038083853747906,35.258347,29.42330255315771,0.0,35.258347000000015,0.903956427491945,0.336546,-0.161982,0.208234,1.0,0.0,0.0,0.0,50.63380779580871
6.2328,5529.5195,-3.237028356098395,-3.431942358848718,-3.2113181267487256,3.9576483798141737,-2.6052412004806165,0.06449698961064776,2.575961744326532,14.247972222723682,-14.480257229011762,38.207062,31.407418996082242,0.0,38.20706200000001,0.8916172849468543,0.355068,-0.177864,0.217508,1.0,0.0,0.0,0.0,53.845634018001874
6.2549,5529.5395,-2.848423684737418,-2.4667050677236504,-3.4064836103783938,4.3221777631668585,-2.870379901260246,-0.30451220876450913,1.839590566906225,13.17759846539005,-15.065861896078124,40.876892,33.163975491852796,0.0,40.876892,0.8781170659950641,0.37464601,-0.198901,0.22133499,1.0,0.0,0.0,0.0,57.167892504657445
6.2736,5529.5595,-2.5077395701431175,-1.667962127449516,-3.4313388262016122,4.762913730737227,-3.0755525380799176,-0.7005625589389965,1.0962554425990898,11.974592263555373,-15.71541939236712,43.319511,34.60128964367546,0.0,43.319511000000006,0.8631948585049379,0.39667201,-0.222095,0.21958999,1.0,0.0,0.0,0.0,60.64556697825275
6.2993,5529.5795,-2.245211394567396,-1.0703194512563612,-3.4282906122998966,5.24419586775427,-3.2249233285885217,-1.0001628215568905,0.5106426931914032,10.712882692489346,-16.32227677279484,45.658497,35.989147049120845,0.0,45.65849700000001,0.8456729995442326,0.42058799,-0.25119501,0.21176399,1.0,0.0,0.0,0.0,64.51177187876732
6.3172,5529.5995,-1.9976274917275034,-0.6640295311131346,-3.470282293594967,5.720183383985704,-3.321364744870335,-1.1486494613836018,0.06558103133921778,9.4997889519584,-16.832059466748856,48.18885,37.50159685720683,0.0,48.18885,0.8236906077189298,0.44797099,-0.285954,0.19770201,1.0,0.0,0.0,0.0,69.08807460497097
6.3336,5529.6195,-1.669757782709616,-0.3632822052496465,-3.549589054281123,6.166354653525179,-3.3323602567062887,-1.1510990367710168,-0.41641090713396167,8.309721565326367,-17.332288920505317,51.420635,39.33200418648015,0.0,51.420635000000004,0.7968057433991297,0.47865799,-0.320997,0.18151601,1.0,0.0,0.0,0.0,74.34770623321346
6.3514,5529.6395,-1.2596696529590075,-0.07485826466868106,-3.638531602282325,6.5570356619465375,-3.2457389243667505,-1.040574426248417,-0.9299139918268056,7.138271972085391,-17.890636019607776,55.750698,41.669431506597626,0.0,55.750698,0.7645382574663347,0.51208502,-0.35440299,0.166279,1.0,0.0,0.0,0.0,80.26813833579477
6.375,5529.6595,-0.829490165841428,0.250614374854337,-3.713170786479779,6.864747957754274,-3.0600633949191973,-0.8848621612623737,-1.4474333013313538,6.075854638440767,-18.500804740308908,61.406754,44.41521962165725,0.0,61.40675400000001,0.7261889172457948,0.54887301,-0.38489601,0.152457,1.0,0.0,0.0,0.0,86.86431641997241
6.3958,5529.6795,-0.436579475953482,0.6362322221676218,-3.768382959039352,7.041507822922539,-2.8534665518130984,-0.7572602882307367,-1.9944034520941347,5.210038130808469,-19.119206753263377,67.721634,47.02035298125006,0.0,67.721634,0.6833786244490677,0.587098,-0.41234499,0.135208,1.0,0.0,0.0,0.0,93.78354363021599
6.412,5529.6994,-0.11672711251722534,1.0560353418145185,-3.8115734414299647,7.081117026514605,-2.7042710078014824,-0.6546118698028502,-2.548678567922332,4.5728547776171915,-19.726799772343064,74.090569,49.52932526553294,0.0,74.09056900000002,0.6369774544483655,0.62363702,-0.438977,0.112409,1.0,0.0,0.0,0.0,100.86639330272082
6.4398,5529.7194,0.1448387925279926,1.447570537572794,-3.8347057497944075,7.036142749346538,-2.6290162620614748,-0.5277960661676335,-3.023909126349409,4.158232479381958,-20.363748574120265,80.266273,52.39011321893781,0.0,80.26627300000001,0.5862842506191854,0.65672201,-0.46637699,0.086484,1.0,0.0,0.0,0.0,108.21246333441192
6.459,5529.7394,0.38256945749522275,1.7692733374303953,-3.827301333736507,7.0091276808793905,-2.560357216934009,-0.3358118123983749,-3.3183468024475857,3.885180660575844,-21.083850609886458,86.254608,55.65407702323538,0.0,86.25460800000002,0.5313155581645241,0.686759,-0.49196601,0.063524,1.0,0.0,0.0,0.0,115.81123008824805
6.4777,5529.7594,0.651718671008489,2.0220919568173676,-3.793254749291709,7.090578986849112,-2.4386481908347406,-0.10805339674084324,-3.46297508344216,3.6921061338226,-21.83747586449215,91.996902,58.54409803392221,0.0,91.99690199999998,0.4745134892716531,0.71518302,-0.51122302,0.044735,1.0,0.0,0.0,0.0,123.3446438179479
6.4948,5529.7794,0.9728564697938449,2.238657227681727,-3.725317500392598,7.2990598731991865,-2.2984593003696046,0.14570786989538576,-3.46368923063155,3.629977191322176,-22.520854257096538,97.193893,60.87630850305705,0.0,97.193893,0.4162985799042065,0.74153501,-0.52548403,0.026227,1.0,0.0,0.0,0.0,130.79775820279977
6.5176,5529.7994,1.305960696520983,2.428511981863134,-3.557730065327952,7.57643020484074,-2.237883135122243,0.454069090597641,-3.2732246915261296,3.9314602569813886,-23.068088478250743,101.664413,63.21932483506126,0.0,101.66441299999997,0.3513874927307168,0.76514202,-0.53951299,0.003202,1.0,0.0,0.0,0.0,138.8555922590885
6.5346,5529.8194,1.545853836198111,2.6955179881244833,-3.217004347197678,7.863837297849398,-2.2010260458761746,0.8360108029991355,-3.0159567375427194,4.431689309185309,-23.5152534022806,105.94931,64.88749083731874,0.0,105.94930999999997,0.2798731565765444,0.78820097,-0.54769701,-0.020934,1.0,0.0,0.0,0.0,147.494731110068
6.5554,5529.8394,1.5976497475587408,3.069714984821533,-2.6184152935179323,8.08737809838626,-2.128481279657972,1.2350417548491888,-2.855069176775002,5.015461309523086,-23.904912647890473,110.52417,65.04145103033505,0.0,110.52417000000003,0.2036093625690122,0.81250602,-0.544397,-0.044823,1.0,0.0,0.0,0.0,156.50379088019938
6.5885,5529.8594,1.4786350750073838,3.4395493410185978,-1.7126468993836212,8.163402821151477,-2.084876292971802,1.5397540264612641,-2.9020709325829515,5.617477933865187,-24.261902332300156,114.695198,64.11785598080164,0.0,114.695198,0.126546659854141,0.83376902,-0.532758,-0.070598,1.0,0.0,0.0,0.0,165.45983557280428
6.6188,5529.8794,1.1812479156567357,3.6084573564388887,-0.5043192213561873,8.048814101437863,-2.018389318353008,1.726909585940046,-3.0505829595598657,6.182210475939196,-24.618761363305612,118.2817,62.40499700504778,0.0,118.2817,0.0502357401741,0.85069901,-0.51440901,-0.095765,1.0,0.0,0.0,0.0,174.24098420993053
6.6254,5529.8994,0.7067849710632086,3.311064578387426,0.9170362699947141,7.691376015864671,-1.9028463912199065,1.8472260876770226,-3.0014831699683646,6.868261537168292,-24.993709704219015,120.881218,60.43132778506833,0.0,120.88121799999999,0.027875909132079,-0.861462,0.49314699,0.11795,1.0,0.0,0.0,0.0,176.80524226571674
6.6387,5529.9194,0.095202811912237,2.453981116132738,2.3083245921818403,7.0835407376766355,-1.652759199104759,1.9365506279838594,-2.7004009890763294,7.73155832864661,-25.40783015348155,122.600967,58.14525661671233,0.0,122.60096699999997,0.1051939833310793,-0.86618698,0.46897101,0.136823,1.0,0.0,0.0,0.0,167.92331423790813
6.6872,5529.9394,-0.5341348238399626,1.2097811647548207,3.3804746174661293,6.271944126895243,-1.2068681857703503,2.012291421426943,-2.3350546544881565,8.689192796672074,-25.839369140614384,123.933205,55.434634157210915,0.0,123.93320499999999,0.174606928984903,-0.86679697,0.440788,0.15453599,1.0,0.0,0.0,0.0,159.8884307554683
6.69,5529.9594,-0.9503925810229408,-0.020356116251551315,3.9877598173778708,5.341044889226392,-0.6287318851917121,2.075388686693344,-2.1839163600900937,9.484422272049304,-26.230625492776454,125.052643,52.91122137772643,0.0,125.05264299999999,0.2275953526575173,-0.86475199,0.41251299,0.173889,1.0,0.0,0.0,0.0,153.68891734781283
6.7054,5529.9794,-1.0752155158632566,-0.9145881761968042,4.184656701834665,4.385561804332733,-0.04954984901817738,2.1528997762306497,-2.246668536081115,9.970879146824354,-26.479811942856692,125.871628,51.17460520972963,0.0,125.87162799999999,0.2632656150830922,-0.86110997,0.38909999,0.19437601,1.0,0.0,0.0,0.0,149.47215839977665
6.7123,5529.9994,-1.006803279941415,-1.4454727170082347,4.083790361255929,3.486640890442648,0.44759508796789005,2.259450439347927,-2.395901609517767,10.288253526672893,-26.444138709925777,126.655334,49.953871910645724,0.0,126.65533399999998,0.2878374165855771,-0.85723197,0.368588,0.21551301,1.0,0.0,0.0,0.0,146.54294096745446
6.7316,5530.0194,-0.7842375872943448,-1.6643527268468528,3.7912752456726952,2.7061461394454174,0.8386133227388173,2.3469136928265604,-2.7351692322823054,10.503448894794147,-26.100795734883178,127.789444,48.99169326620756,0.0,127.789444,0.304094161546616,-0.85385698,0.34756401,0.24011301,1.0,0.0,0.0,0.0,144.5926503934156
6.7535,5530.0394,-0.6689166803471664,-1.508498049546064,3.4079099227224248,2.047537606569789,1.1465752505846905,2.3850238181772205,-2.9041456669348906,10.36757145780196,-25.716943253312067,129.553207,47.81290766038728,0.0,129.553207,0.3115363790755419,-0.85362899,0.325757,0.26104599,1.0,0.0,0.0,0.0,143.6963115159481
6.7716,5530.0594,-0.5488124518107602,-1.1662276596422871,3.0168089769252884,1.5440226421015182,1.3961417385084216,2.320646264275831,-3.1736394732338593,10.051468148323183,-25.382129229315208,131.641098,46.8754350794249,0.0,131.641098,0.3111103262558136,-0.85433197,0.30511099,0.28325701,1.0,0.0,0.0,0.0,143.7476867130232
6.8015,5530.0794,-0.44835415058796935,-0.823169517455649,2.661130322423677,1.1735289539771643,1.6018839557159021,2.201968629856053,-3.3184549752766954,9.77893016421174,-25.16822502021288,133.378601,46.33831581151773,0.0,133.378601,0.308125541303378,-0.85426599,0.28904101,0.302892,1.0,0.0,0.0,0.0,144.107393682197
6.8137,5530.0994,-0.19491461582673875,-0.7088601467887843,2.329324257600039,0.9057390168865093,1.7681320395266353,2.116922847627997,-3.5396815996921043,9.86173312741278,-24.94201385465809,134.662659,46.26740531208301,0.0,134.66265899999996,0.3075456988060456,-0.85130203,0.27491099,0.324229,1.0,0.0,0.0,0.0,144.17723002293624
6.8317,5530.1193,0.24935559021639175,-0.6966685602772058,1.965327140054221,0.7299975711716814,1.9105276910519977,2.1296679572602404,-3.8152844382814934,9.997358381044288,-24.750048242326475,135.514755,46.75201776613249,0.0,135.51475500000004,0.3062388387169722,-0.846573,0.26490399,0.34548199,1.0,0.0,0.0,0.0,144.33457812247613
6.8632,5530.1393,0.8663500248453353,-0.6146975405120187,1.5155661322612008,0.6703230311825461,2.037954042356047,2.255881028878831,-4.2559590330280175,9.870999696211221,-24.635039307900776,136.302704,47.77130811588517,0.0,136.302704,0.2995378973561091,-0.84141803,0.25887999,0.367796,1.0,0.0,0.0,0.0,145.14029941950423
6.8752,5530.1593,1.4359423996474034,-0.4122456775184782,1.0021305741971567,0.7258368172225322,2.1513878935894897,2.476380029635101,-4.680843952199021,9.53142190942428,-24.57450019074808,137.395157,48.688787542434135,0.0,137.39515700000004,0.2896483723356641,-0.83721298,0.252455,0.38915899,1.0,0.0,0.0,0.0,146.3261884759833
6.902,5530.1793,1.7966009853169078,-0.10393708854269956,0.5232363504060515,0.8492888334669239,2.261634133315242,2.7269113164790815,-5.010227300820287,9.188702800088564,-24.47781782969377,139.09169,48.99499526048895,0.0,139.09168999999997,0.2801207341068835,-0.83403802,0.24022999,0.41012499,1.0,0.0,0.0,0.0,147.46517874657758
6.9128,5530.1993,1.9536183028213574,0.30388540957862986,0.17260835499726568,0.9664936700238456,2.396876821598159,2.9109883361793263,-5.384397607557858,8.902666198815417,-24.274075462710282,141.469833,48.899276551001826,0.0,141.469833,0.2705364190326682,-0.83028698,0.22099701,0.43427399,1.0,0.0,0.0,0.0,148.60762121280632
6.9339,5530.2193,1.8869539736386955,0.7052903050643402,0.020326736542836343,0.9755176913555397,2.559463043269873,2.985203570865692,-5.575064389429439,8.778295506717647,-23.970935531931165,144.102707,48.53258134847433,0.0,144.102707,0.2635874157590598,-0.82527798,0.19697499,0.45895401,1.0,0.0,0.0,0.0,149.43393260282906
6.9522,5530.2393,1.7373240363460107,1.007939203970405,0.05291992547020641,0.841001691564899,2.7325233877103363,2.959151684226331,-5.522612743284839,8.851139163215477,-23.578900094223805,146.316986,48.66184875982431,0.0,146.31698600000004,0.2601645647853672,-0.81734902,0.173888,0.48375401,1.0,0.0,0.0,0.0,149.84034588438166
6.9815,5530.2593,1.6488774548791247,1.296823512902578,0.1799829425724404,0.5861506342195324,2.923260013836859,2.850699636093738,-5.282346825451295,8.85568338630047,-23.196242909366884,147.980179,49.81697766186053,0.0,147.98017900000002,0.2550208096838753,-0.80724502,0.15716501,0.50854599,1.0,0.0,0.0,0.0,150.45036354900475
7.0029,5530.2793,1.685660525458363,1.6569294519890727,0.296664439767115,0.25105332599936236,3.123595904153524,2.6890334669856992,-5.073127670361244,8.637338526717512,-22.8669986890626,149.676361,51.99259092254806,0.0,149.67636100000004,0.2428994943598674,-0.79558098,0.145173,0.53570098,1.0,0.0,0.0,0.0,151.88453143094264
7.0145,5530.2993,1.7005337847338762,2.0082166716673022,0.3856251254063068,-0.1323618408774856,3.2886530588535723,2.52707716317539,-4.6436477203720905,8.449153871516137,-22.611821597420274,151.409714,54.317785812141295,0.0,151.409714,0.228930181193829,-0.78463298,0.134836,0.56014401,1.0,0.0,0.0,0.0,153.53180953597305
7.036,5530.3193,1.744052923773146,2.306992760309628,0.44134651739923925,-0.5146336547220891,3.3991406101893786,2.38615603907182,-4.238671651891478,8.401014970379354,-22.387428337254594,153.232864,57.16855679667212,0.0,153.232864,0.2139484029769312,-0.77266699,0.124547,0.58455098,1.0,0.0,0.0,0.0,155.29232052117874
7.061,5530.3393,1.8612427264528553,2.5683697582460194,0.456255332054031,-0.8513649468462239,3.4538679006302084,2.269744220349263,-3.8996874126955987,8.41456361090722,-22.20623199973159,154.906158,60.969109707481245,0.0,154.906158,0.1981048524853423,-0.75957698,0.11697,0.60837102,1.0,0.0,0.0,0.0,157.14768440255915
7.0747,5530.3593,2.140086201037569,2.826929501419487,0.38475219043050934,-1.105097067911362,3.4577430391079464,2.1876669000614903,-3.7781675555902323,8.309350264148724,-22.054326180094904,156.488663,66.71372097836337,0.0,156.48866299999997,0.1789144914946791,-0.74377102,0.113686,0.63393199,1.0,0.0,0.0,0.0,159.38692320934078
7.1213,5530.3793,2.459895022616613,3.012550228916888,0.24578049483443642,-1.2855206749066888,3.4154568031920274,2.170591360381098,-3.596711663701427,8.141787590231662,-21.915907128255856,158.155975,73.40668591259896,0.0,158.155975,0.1585960760656402,-0.72807097,0.111384,0.65753597,1.0,0.0,0.0,0.0,161.74916629979202
7.1399,5530.3993,2.762351332059742,3.1056238597782952,0.07303714876816692,-1.3927469087831459,3.3655946583995355,2.235927090072871,-3.1995796603771485,7.951282566374275,-21.795550583332258,159.734879,80.58201361728764,0.0,159.73487899999998,0.1391038878644268,-0.713682,0.110301,0.67760003,1.0,0.0,0.0,0.0,164.00800914200684
7.147,5530.4194,3.0102934592676887,3.0927008907692546,-0.08243640064360491,-1.4476483270231406,3.32276759721257,2.4022786825820863,-2.6117163186332735,7.882149948473461,-21.658414866341218,161.139099,88.16768787769719,0.0,161.139099,0.1228132364006387,-0.70006198,0.108926,0.69495702,1.0,0.0,0.0,0.0,165.8910191716561
7.1648,5530.4394,3.175466089855415,3.1020860217867767,-0.22994133861695687,-1.5134465622859614,3.2543004077811943,2.6445446891077755,-2.2421369958078428,7.890572969736382,-21.499644294941636,163.34346,98.18167102112533,0.0,163.34346,0.1026985682330514,-0.68472397,0.102184,0.71425802,1.0,0.0,0.0,0.0,168.2108252941432
7.1762,5530.4594,3.175603435403079,3.2854660516400416,-0.37933825508761565,-1.6176948764999284,3.1621054832232542,2.864210056245642,-2.077026687930738,7.763881123007291,-21.407644850170787,166.384766,112.03210885185523,0.0,166.384766,0.0746142193137411,-0.66845602,0.094031,0.73400098,1.0,0.0,0.0,0.0,171.44188681687305
7.1959,5530.4795,2.9184641466779526,3.525846472364816,-0.4436191749866172,-1.79294642671769,3.0208834690146396,3.021018990504597,-1.763278405036191,7.719852265705111,-21.324870644184156,169.645126,127.93623805623189,0.0,169.645126,0.0455161452704319,-0.65423602,0.084885,0.75013202,1.0,0.0,0.0,0.0,174.78243133754208
7.2378,5530.4995,2.4583731576504126,3.6802363214478238,-0.39207078210003843,-2.06841541677918,2.78342745370827,3.1307317640883494,-1.345895387576505,7.99193387301182,-21.163105537373564,173.040604,145.58730164144416,0.0,173.04060400000003,0.0188006767840948,-0.64147699,0.071762,0.763547,1.0,0.0,0.0,0.0,177.8454741987788
7.2408,5530.5195,1.9772280439276897,3.8166490822260983,-0.34093619385195595,-2.4128497591516362,2.4710446897775453,3.1986634386619186,-1.1996396154272668,8.275879094113643,-21.011382008378895,176.761459,165.3954230404171,0.0,176.761459,0.011913512593658,0.62631702,-0.059542,-0.77719998,1.0,0.0,0.0,0.0,178.63477972242487
7.2552,5530.5395,1.4735150983567131,3.9842838577664503,-0.34693386952335636,-2.818330452413377,2.120070774251537,3.2343909726655182,-1.1395754193982588,8.32417573358273,-20.95079737637015,-179.147964,-176.52426904510335,0.0,179.147964,0.0501435982404437,0.61335599,-0.052287,-0.78647703,1.0,0.0,0.0,0.0,174.2515562216237
7.2727,5530.5596,1.0005853756112217,4.122410327466474,-0.39823302045141773,-3.2453680973630945,1.766747612748866,3.3046300016911325,-0.8170222252009567,8.263340212883021,-20.89837951268449,-175.335876,-162.2969673114953,0.0,175.335876,0.0898007455133845,0.605672,-0.051051,-0.78898102,1.0,0.0,0.0,0.0,169.6957115322521
7.2943,5530.5796,0.7864903229073785,4.145100429880489,-0.4518148845065397,-3.603983036946233,1.4101866783568422,3.560707533551648,-0.44100973571155033,8.449351817331653,-20.68457103020191,-172.059006,-152.60991960864493,0.0,172.059006,0.1230910907124434,0.59581703,-0.050703,-0.79201001,1.0,0.0,0.0,0.0,165.85893598475207
7.3127,5530.5996,0.6442533544987836,4.260224274710994,-0.5639473072454635,-3.9117768963606188,1.0277604621173233,3.993329518538949,-0.08729327002587972,8.610142571803461,-20.463565885440868,-168.140228,-143.30457938875884,0.0,168.140228,0.1613895155517795,0.58403897,-0.049873,-0.79395503,1.0,0.0,0.0,0.0,161.424884256547
7.3364,5530.6197,0.2973617540728734,4.50342214652355,-0.7515011420972186,-4.172592769413876,0.5880957253337799,4.5081664736342955,0.35663440686910475,8.713934952683982,-20.313096558623172,-163.154968,-132.60296830709015,0.0,163.154968,0.2084898931458308,0.574485,-0.047305,-0.79010201,1.0,0.0,0.0,0.0,155.93225841067147
7.3553,5530.6397,-0.3492144458277296,4.843653191499294,-1.037248365499316,-4.333025257491197,0.12873427400643472,5.011853490001437,0.8592422288449892,8.703023481938768,-20.28276071357662,-157.086777,-121.12910343147607,0.0,157.086777,0.2648215886333657,0.56626099,-0.04505,-0.77922302,1.0,0.0,0.0,0.0,149.2872963237223
7.3742,5530.6597,-1.2562052085374382,5.0813216013566125,-1.3498464594008386,-4.339749018564591,-0.3633164290963464,5.446011494602988,1.3160082469462147,8.80195743889323,-20.270842412253177,-149.985138,-109.84781587659047,0.0,149.985138,0.3262098392547334,0.55842298,-0.039393,-0.76170802,1.0,0.0,0.0,0.0,141.9222222996036
7.4001,5530.6797,-2.343750037507844,5.122052230616867,-1.6396080221346914,-4.204927602708208,-0.8645707630224767,5.77356426764661,1.691453957931051,9.007770922555626,-20.243848611102738,-142.019485,-99.13647652927455,0.0,142.019485,0.3904362376201775,0.55139601,-0.030795,-0.73659599,1.0,0.0,0.0,0.0,134.03670779965282
