AppTimestamp(s),SensorTimestamp(s),acc_x,acc_y,acc_z,gyro_x,gyro_y,gyro_z,mag_x,mag_y,mag_z
45.006,6748.3987,-0.08773272136748156,0.03531582160022632,-0.1670869449978163,-0.04569,0.057,0.00248,13.5,-21.2,6.7
45.0306,6748.4187,-0.09283230445071894,0.04444847585139263,-0.13808296661706443,-0.03958,0.03684,-0.00057,13.5,-21.1,6.8
45.047,6748.4387,-0.10361077623558322,0.04412869835713587,-0.10927782876605541,-0.04997,0.01973,-0.02134,13.5,-21.2,6.8
45.0641,6748.4587,-0.1190989432451304,0.033721506930302805,-0.08108524975102327,-0.04142,-0.01936,-0.00973,13.5,-21.2,6.8
45.0913,6748.4787,-0.1364550960471632,0.014166295258664195,-0.05436179250274975,-0.02798,0.00507,0.01531,13.5,-21.2,6.8
45.1093,6748.4987,-0.15238363940283461,-0.013794869103566238,-0.030183643552062378,-0.00477,0.04478,0.01409,13.5,-21.2,6.9
45.1278,6748.5187,-0.16463128361710028,-0.042193688022379765,-0.009541896004725103,-0.00049,0.08632,-0.00057,13.5,-21.2,6.9
45.1436,6748.5387,-0.17478043975447585,-0.06912907428589693,0.006809586482823704,-0.02737,0.03867,0.0202,13.6,-21.2,7.0
45.1656,6748.5587,-0.18338914626293387,-0.0963895051920973,0.01844263577067551,-0.01271,0.0008,0.0428,13.6,-21.2,7.0
45.1832,6748.5787,-0.18564995947059365,-0.12475855118707364,0.025380506347891796,0.05693,-0.0047,0.04463,13.6,-21.2,7.0
45.2086,6748.5986,-0.18095948579298732,-0.1562692221497751,0.02782437143486227,0.1113,-0.01386,0.05441,13.6,-21.1,7.1
45.2258,6748.6186,-0.15908691217656462,-0.17118278530036513,0.02646520215562198,0.04655,0.04722,0.06235,13.6,-21.2,7.2
45.2504,6748.6386,-0.12545567944724925,-0.1721914268448952,0.02079613759609522,-0.01698,0.08632,0.04708,13.7,-21.2,7.2
45.2676,6748.6586,-0.08864772748085066,-0.16459717228874682,0.009315733414481997,-0.03164,0.06311,0.01531,13.7,-21.3,7.4
45.2866,6748.6786,-0.05383039402909435,-0.1545086716606844,-0.009895319952766712,0.02456,0.01668,0.01104,13.8,-21.3,7.5
45.3038,6748.6986,-0.022565791277747854,-0.14081999113908308,-0.038003595799244394,0.08076,0.00141,0.04647,13.7,-21.3,7.5
45.3237,6748.7186,0.0056388584044582656,-0.11972925944974402,-0.07436612790523078,0.12229,0.01302,0.06601,13.7,-21.3,7.5
45.3459,6748.7386,0.03135089345719738,-0.08513494914737531,-0.11602608977049478,0.07709,0.06799,0.03242,13.7,-21.3,7.6
45.3631,6748.7586,0.051078944562451066,-0.03805798919992452,-0.15827814915089888,0.00195,0.02645,0.01287,13.7,-21.3,7.7
45.3838,6748.7786,0.059945348121772386,0.004770410493432283,-0.19572022433237102,0.01295,0.00019,-0.0079,13.7,-21.3,7.7
45.4095,6748.7986,0.056791592215288754,0.03225746071827732,-0.22337642829927873,0.0441,-0.01081,-0.0305,13.7,-21.3,7.8
45.4239,6748.8186,0.03988850924786376,0.044211013465379825,-0.23794225771757915,0.01906,-0.00959,-0.03356,13.6,-21.3,7.8
45.4441,6748.8386,0.016881064434656815,0.04090013278350646,-0.23848350688052022,-0.01698,0.03745,-0.02256,13.6,-21.3,7.7
45.4664,6748.8586,-0.009664302694160375,0.02692400239088196,-0.2264040113185608,-0.02798,0.00507,-0.00301,13.6,-21.4,7.9
45.4849,6748.8786,-0.0356581104889966,0.0037690252507217407,-0.20497302981275922,-0.00721,-0.01325,0.00371,13.6,-21.4,7.9
45.5108,6748.8986,-0.05757502301510898,-0.024357116577037742,-0.17845786846492118,0.00928,-0.05235,0.0092,13.6,-21.4,8.0
45.5311,6748.9186,-0.0663809163728207,-0.052004233156647116,-0.15106660130339655,0.01661,-0.00898,0.01592,13.6,-21.3,8.0
45.5452,6748.9386,-0.060108806637377575,-0.07177125012016296,-0.12628891610142823,0.00318,-0.09205,0.00493,13.5,-21.3,8.1
45.578,6748.9586,-0.044840210968623666,-0.08246177534219742,-0.10674941293969731,0.027,0.03684,-0.01095,13.5,-21.3,8.1
45.5875,6748.9786,-0.021667185636441294,-0.08196605301602158,-0.09421683983056006,-0.00782,-0.02058,0.00798,13.5,-21.3,8.2
45.6138,6748.9986,-0.0007214738914558332,-0.07081064351550849,-0.08990037300985065,-0.03836,-0.03585,0.01776,13.5,-21.3,8.2
45.6274,6749.0186,0.020002873669289874,-0.05847058060492143,-0.09445617629066128,-0.01454,-0.03158,0.01287,13.5,-21.4,8.3
45.6521,6749.0385,0.0331698284574674,-0.04624494492839253,-0.10761841017384022,0.02944,0.00874,0.00493,13.5,-21.4,8.3
45.6661,6749.0585,0.0410751503399621,-0.03168396546279002,-0.1279190162769961,0.027,-0.04868,-0.01828,13.5,-21.4,8.4
45.6847,6749.0785,0.040482282249080785,-0.016432078005149654,-0.15256395351999252,-0.02187,0.00141,-0.03172,13.5,-21.4,8.5
45.7079,6749.0985,0.030356853969023222,-0.0013606663683866519,-0.17770770859089957,-0.02126,-0.01814,-0.0531,13.4,-21.4,8.4
45.7233,6749.1185,0.003514052483277624,0.006113776965313918,-0.19909898472511323,-0.00965,0.05211,-0.05188,13.5,-21.4,8.4
45.7503,6749.1385,-0.032940300475914105,0.006174216933379051,-0.21289908296484406,-0.03775,-0.05418,-0.03111,13.5,-21.4,8.6
45.7701,6749.1585,-0.0744078727468425,-0.005873762710774372,-0.21615943008902327,-0.02004,-0.06823,-0.02561,13.5,-21.4,8.5
45.7872,6749.1785,-0.10880658860065784,-0.025432694696399687,-0.20700505681872805,-0.00782,-0.00042,-0.03661,13.5,-21.4,8.3
45.8034,6749.1985,-0.12802826569840892,-0.04760977351736023,-0.18473719727447246,-0.03042,-0.01447,-0.03905,13.5,-21.4,8.3
45.8306,6749.2185,-0.12554145619765925,-0.06384873629387022,-0.15001020392184117,-0.06463,0.01668,-0.03111,13.6,-21.5,8.2
45.8437,6749.2385,-0.11368945229800917,-0.08475835209302249,-0.10548494785310503,-0.03287,0.02279,-0.00851,13.6,-21.5,8.2
45.8633,6749.2585,-0.09314733901886361,-0.10255555689382288,-0.05523240702101617,-0.02126,0.00935,0.00615,13.6,-21.5,8.2
45.8846,6749.2785,-0.06907736864022429,-0.1200832614635389,-0.004825449806588722,-0.01271,-0.05418,0.03242,13.7,-21.5,8.1
45.9135,6749.2985,-0.043459460267951874,-0.13621860986662218,0.03953459702992923,0.03005,-0.04929,0.00676,13.7,-21.5,8.1
45.9323,6749.3185,-0.017248485161155347,-0.14517353424454812,0.07196657915142701,0.02517,0.01302,-0.0305,13.7,-21.5,8.0
45.9472,6749.3385,-0.003455099686773898,-0.14912749747320095,0.08769819471454632,-0.00965,0.0344,-0.04577,13.7,-21.5,8.0
45.9696,6749.3585,-0.005447539961401889,-0.1525596383228849,0.08396309409130787,0.00134,0.03195,-0.03661,13.7,-21.5,7.9
45.9868,6749.3785,-0.028454397896716582,-0.15476820469894975,0.060512086357828565,0.04777,-0.01264,-0.02195,13.7,-21.5,7.9
46.0075,6749.3985,-0.06031552380837674,-0.15518439762731864,0.019760066699594958,0.0832,-0.03402,-0.025,13.7,-21.5,7.9
46.0274,6749.4185,-0.08908713890934863,-0.14595578571429615,-0.033141846101559125,0.06304,0.00141,-0.03111,13.7,-21.5,8.0
46.0455,6749.4386,-0.10920994446655145,-0.12685328464447934,-0.09116405550969553,0.02517,0.05333,-0.02989,13.7,-21.5,7.9
46.067,6749.4586,-0.11992398410308741,-0.10708357940940509,-0.14640258725704314,0.02761,0.05761,0.00187,13.7,-21.5,7.9
46.0878,6749.4786,-0.12326277975342848,-0.09253790897847924,-0.1910889705221379,0.08076,-0.02608,0.02753,13.7,-21.5,8.0
46.1205,6749.4987,-0.11924103804279435,-0.09256832688052344,-0.21905027400837085,0.07587,-0.0554,0.02081,13.8,-21.4,8.0
46.1284,6749.5187,-0.09924255643496355,-0.09012312667816783,-0.22687330151635088,0.01478,0.01179,-0.00118,13.7,-21.4,7.9
46.1443,6749.5387,-0.07347795208095628,-0.09809886414870447,-0.21590680898369818,-0.0292,0.05211,-0.025,13.7,-21.4,7.8
46.1643,6749.5587,-0.05089409557186154,-0.11399881926083469,-0.191664071075353,-0.03348,0.04539,-0.01645,13.7,-21.4,7.7
46.1861,6749.5788,-0.04082550540000878,-0.13633182415759182,-0.162710818483923,0.00318,-0.00775,-0.00301,13.7,-21.3,7.8
46.2085,6749.5988,-0.04149803976199765,-0.15680589415661952,-0.13791144327267624,0.03005,-0.04441,0.00065,13.7,-21.3,7.7
46.227,6749.6188,-0.04315954743290481,-0.1620585938032307,-0.12327905174368148,0.03616,-0.01875,-0.00485,13.7,-21.3,7.7
46.2468,6749.6389,-0.0404947736175629,-0.1483436367202689,-0.11996094179695937,0.02028,0.03806,-0.01951,13.7,-21.4,7.8
46.2637,6749.6589,-0.03678449971835506,-0.1211121990330594,-0.12396985462578414,0.00195,0.08754,-0.00546,13.8,-21.3,7.8
46.2931,6749.6789,-0.03458567445988292,-0.0964190000095815,-0.12794272804385898,0.01784,0.02462,0.01531,13.8,-21.3,7.8
46.3096,6749.6989,-0.03622421201116131,-0.082406306152379,-0.12419084268245406,0.02089,-0.0554,0.00798,13.8,-21.3,7.9
46.3269,6749.719,-0.037860617478988154,-0.08691594500312239,-0.10828812612928296,0.01845,-0.04502,-0.00362,13.8,-21.4,7.9
46.3459,6749.739,-0.03717468927410069,-0.10843280178111395,-0.08127796531803888,-0.02309,0.00813,-0.00973,13.9,-21.3,8.0
46.3677,6749.759,-0.035909789776965545,-0.1422472613580702,-0.0498760015217119,-0.05119,0.03989,-0.02012,13.9,-21.3,7.9
46.3842,6749.7791,-0.04056140156812507,-0.18575997893806612,-0.02443145308303052,-0.02737,0.01973,-0.00423,13.8,-21.3,7.9
46.4074,6749.7991,-0.0501371455573604,-0.22949425142442234,-0.014974664482242162,0.05143,-0.03402,-0.00607,13.8,-21.3,7.9
46.4258,6749.8191,-0.05889314159750638,-0.2546998746710722,-0.026953320260757252,0.11619,-0.04196,-0.00362,13.9,-21.3,7.7
46.4446,6749.8391,-0.06060435747708496,-0.25178371052528287,-0.05917796597925218,0.07587,0.02035,0.01104,14.0,-21.4,7.5
46.4697,6749.8592,-0.05292014468316039,-0.22233651665880386,-0.1043881112143481,0.04044,0.06555,0.02753,14.0,-21.3,7.4
46.4882,6749.8792,-0.03854316916471877,-0.17234259777439465,-0.151877678858515,0.01234,0.03806,0.02509,14.0,-21.3,7.3
46.5143,6749.8992,-0.020718653625395003,-0.12369528913108327,-0.1912672743819943,0.01539,-0.02119,0.00432,14.1,-21.3,7.1
46.5244,6749.9193,-0.0023649852431449794,-0.08911906799248154,-0.21494159071274588,0.02211,-0.03097,-0.00851,14.1,-21.3,6.9
46.5459,6749.9393,0.012914831053167736,-0.07884670630449805,-0.2198295721073702,0.01539,0.03134,-0.02073,14.1,-21.3,6.4
46.5646,6749.9593,0.02080663497910656,-0.0890317405193926,-0.20734659817249224,-0.00232,0.00813,-0.01401,14.2,-21.3,6.3
46.5842,6749.9793,0.02045781138408841,-0.1132407970013176,-0.18240481154192878,0.01356,0.00019,-0.02012,14.2,-21.3,6.1
46.608,6749.9993,0.014852301396315137,-0.14160837521960673,-0.15181975386794555,-0.02737,-0.02058,-0.0305,14.2,-21.3,5.8
46.6268,6750.0193,0.002407347153919466,-0.16861470764402528,-0.1228573846331944,-0.03103,0.02768,-0.0531,14.3,-21.3,5.7
46.6569,6750.0393,-0.011974843722489286,-0.18643707348314423,-0.10182904753318311,-0.00843,0.04967,-0.02073,14.3,-21.3,5.5
46.6688,6750.0593,-0.033633721427935616,-0.18666363520588575,-0.09297944712506734,0.03128,-0.02119,-0.00301,14.3,-21.3,5.5
46.6864,6750.0793,-0.05350650853829072,-0.16602955234032474,-0.097841088783996,0.04655,-0.02791,0.00676,14.4,-21.3,5.4
46.7104,6750.0993,-0.06384548503594273,-0.1224352478291984,-0.11500500511010081,0.016,-0.02547,0.01043,14.4,-21.3,5.4
46.7274,6750.1193,-0.05873531471397471,-0.06157096661185987,-0.14076031658511035,-0.02309,0.02218,-0.00301,14.4,-21.2,5.4
46.751,6750.1393,-0.039233672126933995,0.0015030466017983376,-0.16993539512997202,-0.03225,0.02035,-0.02806,14.4,-21.2,5.4
46.7678,6750.1593,-0.01068501410449194,0.045296097233169685,-0.19662544832080364,-0.02248,-0.02119,-0.01034,14.4,-21.2,5.3
46.7882,6750.1793,0.024890230104455305,0.059732795743414134,-0.21523261950046013,-0.00599,-0.11832,0.01715,14.4,-21.3,5.3
46.8178,6750.1993,0.06518090142288206,0.043619995216662766,-0.22176918844727567,-0.05119,-0.11099,-0.00668,14.4,-21.2,5.3
46.832,6750.2193,0.11391898789489595,-0.00998983098266254,-0.214880402347724,-0.0463,-0.01386,-0.03172,14.4,-21.2,5.4
46.8471,6750.2393,0.15257955214448007,-0.0897350747142754,-0.19633807281300086,-0.10617,-0.04318,-0.05982,14.4,-21.2,5.6
46.8627,6750.2592,0.16800835699693897,-0.1875338798057657,-0.1709412345295238,-0.10311,-0.08228,-0.06654,14.4,-21.2,5.6
46.8833,6750.2792,0.154351486687487,-0.2892084977573527,-0.14556383994931643,-0.03592,-0.10061,-0.06838,14.4,-21.2,5.5
46.9067,6750.2992,0.11474262502397478,-0.37987730719368407,-0.1271594197042969,0.01112,-0.07495,-0.09281,14.4,-21.2,5.5
46.924,6750.3192,0.05638798564401672,-0.4394582049999596,-0.12017550289262147,-0.00538,-0.03524,-0.08792,14.5,-21.1,5.3
46.9584,6750.3392,-0.0029559919468289965,-0.4514212761053587,-0.12551883265662056,-0.04386,-0.02486,-0.06838,14.5,-21.1,5.2
46.9685,6750.3592,-0.06020768101259719,-0.4326282232510321,-0.1420616070216827,-0.06463,-0.06823,-0.02134,14.6,-21.0,5.1
46.9866,6750.3792,-0.09894080565598659,-0.38070155682081064,-0.16494185498044622,-0.03409,-0.04807,0.00126,14.6,-21.0,5.1
47.0069,6750.3992,-0.11363574853758654,-0.3121012236482379,-0.18813270496147005,0.01661,-0.04013,0.00982,14.7,-21.0,5.1
47.0276,6750.4192,-0.10295556170254615,-0.23654931004396257,-0.20456687756844794,0.016,-0.06579,0.04036,14.7,-20.9,5.1
47.0439,6750.4392,-0.06795690949524297,-0.16013337256337407,-0.20809029441229043,0.0099,-0.06884,0.07884,14.7,-20.9,5.1
47.0648,6750.4592,-0.024815940492910686,-0.09134243649530585,-0.19549621613866286,-0.02615,-0.04807,0.05197,14.7,-20.9,5.0
47.0863,6750.4792,0.01712368009665555,-0.040331832878431985,-0.16723939938779253,-0.08418,-0.00714,0.01653,14.8,-20.9,5.0
47.1082,6750.4992,0.04633081442492971,-0.01721050949216403,-0.12734188744592423,-0.08723,-0.0609,0.00187,14.8,-20.8,5.0
47.1251,6750.5192,0.057709677999752775,-0.02926189477051434,-0.08217367050679947,-0.06463,-0.08595,-0.01645,14.8,-20.8,4.9
47.1459,6750.5392,0.051576307260113995,-0.06485549346778152,-0.03862595547229475,-0.04142,-0.02852,-0.04638,14.9,-20.8,4.8
47.1719,6750.5592,0.035813554782874714,-0.1134484822396685,-0.002236090217028419,-0.03164,0.01729,-0.04333,14.8,-20.8,4.8
47.2006,6750.5792,0.015331262916177795,-0.1648278139612979,0.023958881398840504,-0.02981,0.02096,-0.02867,14.9,-20.8,4.7
47.2132,6750.5992,-0.014374060057842884,-0.21709615537508103,0.039158325849610875,-0.02798,-0.00714,-0.04822,15.0,-20.7,4.8
47.2251,6750.6192,-0.04063788030925026,-0.2631376855382158,0.04413402998285498,-0.00538,-0.0218,-0.05555,14.9,-20.8,4.8
47.245,6750.6392,-0.057192582064111354,-0.3027148482950515,0.04011403936868341,0.01478,-0.03524,-0.01828,15.0,-20.7,4.8
47.2664,6750.6591,-0.05865265179178768,-0.33445968551279653,0.028246176822911195,0.03494,-0.00103,-0.0189,15.0,-20.7,4.7
47.286,6750.6791,-0.04637317559544289,-0.3538200604009218,0.009520269056842778,0.04533,0.09487,-0.04089,14.9,-20.7,4.7
47.3076,6750.6991,-0.025781462194855956,-0.3602235003173708,-0.015181421293137376,0.02517,0.03745,-0.04516,14.9,-20.8,4.7
47.3275,6750.7191,-0.007814761087304811,-0.3536404052685812,-0.044555755428117294,0.03616,0.05333,-0.02073,14.9,-20.8,4.6
47.3461,6750.7391,0.006163595684439073,-0.3370131557375563,-0.07664128109654733,0.04899,-0.03036,0.01653,14.9,-20.8,4.6
47.377,6750.7591,0.017881690354676457,-0.32111222712825604,-0.10893488868646806,0.07526,0.00568,0.02203,15.0,-20.8,4.6
47.3866,6750.7791,0.03568592429568403,-0.2833629622382344,-0.13722526740609098,0.06487,0.02218,0.01104,14.9,-20.7,4.5
47.4131,6750.7991,0.05856220683744959,-0.24866888248804137,-0.15869813066818672,0.05449,0.03806,-0.01767,14.9,-20.7,4.6
47.4248,6750.8191,0.07165001786910706,-0.2086308626543519,-0.16997768549386016,0.02089,0.06494,-0.025,14.9,-20.7,4.6
47.4455,6750.8391,0.07761005488796457,-0.17782473161553544,-0.16979859946657783,-0.03042,0.01057,4e-05,14.9,-20.7,4.6
47.4667,6750.8591,0.07305552043327307,-0.16457282126104694,-0.15869549208889566,0.00318,-0.01325,4e-05,14.9,-20.7,4.6
47.4879,6750.8791,0.062079016931256344,-0.1713382654196598,-0.1393537855770397,0.05571,-0.02486,-0.00607,14.9,-20.8,4.6
47.5108,6750.8991,0.04819693002981863,-0.19346732205826683,-0.11610499167666077,0.02578,0.04111,-0.00973,14.9,-20.7,4.5
47.5253,6750.9191,0.03191711755060604,-0.22164572449010145,-0.09404048975067525,-0.01515,0.01302,-0.00423,14.8,-20.8,4.5
47.5502,6750.9391,0.018135428983273007,-0.25139984529350706,-0.07815125806961198,0.00318,0.00507,-0.0134,14.8,-20.8,4.5
47.5691,6750.9591,0.008419951266596086,-0.27572711029776326,-0.07205890008739857,0.02517,-0.02242,-0.03539,14.9,-20.8,4.7
47.586,6750.9791,0.005994782973404065,-0.2893448936134123,-0.07718977870983323,0.03066,0.04783,-0.03539,14.9,-20.7,4.7
47.6104,6750.9991,0.01243012988808119,-0.29273404073574644,-0.09240773676107672,0.02028,0.05211,-0.00912,15.0,-20.7,4.7
47.627,6751.0191,0.02034272584831744,-0.28073548660920955,-0.11389147240824826,0.05205,0.02645,0.02264,15.0,-20.6,4.6
47.6527,6751.0391,0.02762777853030508,-0.26466108496141894,-0.13679465454407946,0.07037,-0.04074,0.03242,14.9,-20.6,4.6
47.6763,6751.0591,0.04211321994195167,-0.2406168879031962,-0.1558586680145826,0.0441,-0.02425,0.01348,14.9,-20.6,4.7
47.691,6751.079,0.06236975921717361,-0.21419524853911856,-0.16750358208173033,-0.01026,0.02096,-0.0134,14.9,-20.6,4.7
47.7177,6751.099,0.08879677678858384,-0.19164516378960364,-0.17032088467068185,-0.03714,0.09609,-0.04822,14.9,-20.6,4.6
47.7399,6751.119,0.09747833380969514,-0.18420458243446305,-0.16481066976117198,-0.0292,0.0741,-0.04516,14.9,-20.6,4.7
47.7472,6751.139,0.08358878778412364,-0.19312998242215598,-0.15290541476556108,0.01417,-0.02975,-0.0134,15.0,-20.5,4.7
47.7663,6751.159,0.05587837412740382,-0.21469727017948056,-0.13744434540342176,0.03005,-0.06334,0.02753,14.9,-20.6,4.6
47.7861,6751.179,0.028726601944982073,-0.23901882437314168,-0.12122047747323528,0.03616,-0.04318,0.02814,14.9,-20.6,4.7
47.8104,6751.199,0.013074316454874406,-0.2583965961117286,-0.1066215751931967,0.01967,0.00752,-0.00546,14.9,-20.6,4.8
47.8248,6751.219,0.004747652247426538,-0.2717825205200493,-0.09582151528799265,-0.01148,0.0625,-0.02989,15.0,-20.6,4.6
47.8486,6751.239,-0.000419135028653696,-0.2829761642292789,-0.09089361082812886,-0.02492,-0.00226,-0.00973,14.9,-20.5,4.7
47.8691,6751.259,-0.007551137778293095,-0.2954278680899716,-0.0934578180580683,0.03677,-0.04013,0.02264,14.9,-20.5,4.7
47.8891,6751.279,-0.010140241257816556,-0.304400961533178,-0.10398502484476424,0.06915,-0.03952,0.03669,14.9,-20.5,4.6
47.9126,6751.299,-0.0028841815548140463,-0.30372215346359854,-0.12154834678444892,0.06426,0.01118,0.01104,14.9,-20.5,4.6
47.9247,6751.319,0.010691797978284926,-0.28963854251932447,-0.14382566982672174,-0.02187,0.08204,-0.00362,15.0,-20.4,4.6
47.9448,6751.339,0.0242658418198693,-0.27181838279134296,-0.1675538467048341,-0.02859,0.02523,0.01959,15.0,-20.4,4.7
47.9712,6751.359,0.031215926488206668,-0.26010712941702124,-0.18841288572959236,0.0606,-0.01997,0.0257,15.0,-20.4,4.6
47.9895,6751.3791,0.03682755282762658,-0.24923496108530024,-0.20133074167737952,0.08259,-0.00959,4e-05,15.0,-20.4,4.6
48.0096,6751.3991,0.046111513420773964,-0.23850000477085623,-0.20207735855274755,-0.00171,0.0344,-0.00179,15.0,-20.4,4.7
48.0248,6751.4191,0.058293279419438654,-0.22925748085885908,-0.18848449873391715,-0.05974,0.08143,-0.00729,15.0,-20.4,4.7
48.0491,6751.4392,0.07511862702479156,-0.22245543545264482,-0.16156169803008424,-0.06891,0.04661,-0.0079,14.9,-20.4,4.6
48.0651,6751.4592,0.08876673383390085,-0.2326441765265502,-0.12600188732276507,-0.02309,-0.01753,-0.00301,14.9,-20.4,4.7
48.087,6751.4792,0.102040432869965,-0.2529481369794938,-0.08855114437233524,0.03189,-0.06701,0.01531,14.9,-20.3,4.7
48.1164,6751.4992,0.12088036705858514,-0.27721367167199107,-0.05646940076812612,0.03983,-0.04318,0.02753,14.9,-20.3,4.7
48.1271,6751.5193,0.15360635534115885,-0.2882667023864186,-0.03493099201758021,0.01661,0.04417,0.0092,14.9,-20.3,4.9
48.145,6751.5393,0.19068033712447255,-0.29400073934362364,-0.026269070342621603,0.01417,0.03195,-0.02684,15.0,-20.3,4.9
48.1664,6751.5593,0.22091953710156673,-0.298515557684195,-0.029151156290996738,0.03616,0.02462,-0.05677,15.0,-20.3,4.9
48.1849,6751.5794,0.23342340255662405,-0.3042504903900849,-0.03995602174220281,0.04594,-0.03219,-0.04089,15.0,-20.3,5.0
48.2083,6751.5994,0.2300964408159987,-0.3137857539158038,-0.05527374637056681,0.03066,-0.09205,-0.01095,14.9,-20.3,5.1
48.25,6751.6194,0.2203528649059362,-0.3264318419148618,-0.0733829028371158,0.0325,-0.04135,-0.04028,14.9,-20.4,5.1
48.251,6751.6394,0.1996675088010652,-0.32545940070314383,-0.09364086114172743,0.01845,0.01607,-0.07021,14.9,-20.4,5.1
48.2714,6751.6595,0.18178193535169818,-0.3236868152447965,-0.11771423138910286,0.01112,-0.02364,-0.07937,14.9,-20.4,5.1
48.2875,6751.6795,0.15519979308393708,-0.31426023389425833,-0.14533450473356702,0.05205,-0.04563,-0.05371,14.9,-20.4,5.1
48.3323,6751.6995,0.1212567381790779,-0.31430003610321,-0.17522673501908592,0.07953,-0.05357,-0.02867,14.9,-20.4,5.1
48.3374,6751.7196,0.08910252009207176,-0.2864379677426127,-0.20226002774187712,0.04105,-0.05907,-0.02256,15.0,-20.4,5.0
48.348,6751.7396,0.055792845085387684,-0.26115285136003386,-0.22236175126928792,-0.00721,-0.03158,-0.01828,14.9,-20.4,5.1
48.367,6751.7596,0.022983913819158146,-0.24170131038034376,-0.23142716340488434,-0.02309,-0.04502,-0.03172,14.9,-20.4,5.0
48.3849,6751.7796,-0.010035044096519313,-0.23361793083382462,-0.22766713183032117,-0.01332,-0.02852,-0.06043,14.9,-20.4,5.1
48.4074,6751.7997,-0.0436012789938132,-0.23768586990076968,-0.21191256051138652,-0.03714,0.00691,-0.08059,14.8,-20.4,5.1
48.4264,6751.8197,-0.08471284383909283,-0.2563332260387646,-0.18728554416805387,-0.04386,0.00752,-0.06471,14.9,-20.4,5.1
48.446,6751.8397,-0.1296582472281615,-0.28588776248729,-0.15776925847220724,0.00257,0.0179,-0.02439,14.8,-20.3,5.1
48.4759,6751.8598,-0.17107140962443185,-0.32343163997118995,-0.1270584581273777,0.03005,0.01363,0.01653,14.8,-20.4,5.1
48.4873,6751.8798,-0.2027796032597985,-0.35795416664435664,-0.09753583152696699,0.02517,0.02645,0.01287,14.7,-20.4,5.0
48.5142,6751.8998,-0.21540321020493272,-0.38973897932320706,-0.07084174464768189,-0.0182,0.04417,-0.00973,14.8,-20.4,5.0
48.5344,6751.9198,-0.21109535846712613,-0.41792608338885506,-0.04839859519676004,-0.01576,0.04356,0.00798,14.8,-20.4,4.9
48.5477,6751.9398,-0.19099571316531977,-0.4431242677192377,-0.03174526298718483,0.01356,0.05089,0.05319,14.8,-20.4,5.0
48.5685,6751.9598,-0.1585528562909078,-0.4652630869077596,-0.022505985905123538,0.0441,0.06921,0.08984,14.8,-20.4,5.0
48.5885,6751.9798,-0.118250639389796,-0.4786694605409023,-0.021612269757916636,0.0606,0.06005,0.08556,14.8,-20.4,5.0
48.6136,6751.9998,-0.07878898485783246,-0.4828700761065781,-0.029170048063194898,0.07281,0.02829,0.08434,14.8,-20.4,4.9
48.6362,6752.0198,-0.038563421316565885,-0.47191315974240666,-0.04340013827615685,0.07281,0.06005,0.10206,14.8,-20.4,4.9
48.6524,6752.0398,0.004330440915770741,-0.4473308460788796,-0.06154307727972963,0.04655,0.05822,0.08862,14.8,-20.4,4.8
48.6673,6752.0598,0.047538416933313794,-0.4180597086774746,-0.08033954878379745,0.04838,0.10831,0.05197,14.8,-20.4,4.8
48.6869,6752.0798,0.09234779665967457,-0.39109389075625306,-0.09648222063974288,0.04471,0.17001,0.02753,14.8,-20.5,4.7
48.7149,6752.0998,0.13116113604507662,-0.37041597109321955,-0.10767212528616632,0.01723,0.1303,0.05441,14.8,-20.5,4.7
48.7359,6752.1198,0.15752549020563472,-0.35547842835431864,-0.11351983095125462,0.03189,0.00568,0.10206,14.8,-20.6,4.7
48.7465,6752.1398,0.19303113578352663,-0.34143043258135986,-0.11629280785009577,0.04594,-0.09328,0.14604,14.8,-20.6,4.6
48.7767,6752.1598,0.20681723841600258,-0.3390036783913826,-0.11931479726201566,0.08809,-0.02425,0.16131,14.8,-20.7,4.6
48.7979,6752.1798,0.2378261410801753,-0.32469411536782294,-0.12582371374185186,0.06732,0.07288,0.07884,14.8,-20.7,4.7
48.8162,6752.1998,0.26167314434433214,-0.30254268201103995,-0.1366582560093832,-0.0121,0.05578,0.0147,14.8,-20.7,4.7
48.8268,6752.2198,0.25881071854432086,-0.2810517256256646,-0.1495499753575409,-0.00721,0.02096,4e-05,14.8,-20.8,4.7
48.848,6752.2398,0.2278256126623324,-0.26900556624132216,-0.15995561390618995,0.01539,0.02523,0.00065,14.6,-20.9,4.7
48.8682,6752.2598,0.1727209182381993,-0.2741968442703893,-0.16263195703649203,-0.0011,-0.0047,0.01776,14.6,-20.9,4.7
48.8944,6752.2798,0.10772679750460835,-0.29816648205950197,-0.15394629527831327,-0.00904,-0.00714,0.03486,14.5,-21.0,4.8
48.9147,6752.2998,0.049476594021036914,-0.33657945263605116,-0.13348066890193522,0.027,0.03806,0.01776,14.4,-21.0,4.9
48.9287,6752.3197,0.004608919499616743,-0.3849432424815733,-0.10491265085263635,-0.02309,0.01118,0.01531,14.3,-21.1,5.0
48.9517,6752.3397,-0.023896890833718133,-0.43618695334697477,-0.07557985043112936,-0.0011,0.01607,-0.00301,14.3,-21.1,5.1
48.9651,6752.3597,-0.03746884122513036,-0.4819167257019447,-0.05463462412568276,0.02028,0.00385,-0.01767,14.2,-21.1,5.2
48.993,6752.3797,-0.0341835237284371,-0.5211673186262384,-0.050635850619620726,0.06671,0.01729,0.0147,14.2,-21.1,5.3
49.0093,6752.3997,-0.02416198651264753,-0.5282910807319482,-0.06692146707232105,0.1284,0.04661,0.00982,14.2,-21.2,5.3
49.0272,6752.4197,-0.010989624803901725,-0.5082005072073099,-0.10233902374402248,0.10824,-0.00959,0.03486,14.1,-21.1,5.3
49.0446,6752.4397,0.005316802426616064,-0.46198820743177116,-0.14917797063604787,0.12535,-0.18491,0.06235,14.0,-21.1,5.4
49.0682,6752.4597,0.018361078356043697,-0.40975154422578075,-0.19587946225980346,0.20232,-0.25271,0.08006,13.9,-21.1,5.4
49.0906,6752.4797,0.04809611785902786,-0.34839063520450847,-0.2285028043335693,0.1901,-0.20018,0.11183,13.9,-21.1,5.5
49.1125,6752.4997,0.09577419551889693,-0.28650492452593523,-0.2368334422075975,0.12413,-0.13726,0.12954,13.8,-21.1,5.4
49.1327,6752.5197,0.15869304088543593,-0.23212819810182705,-0.2174117394114372,0.07343,-0.13298,0.11,13.8,-21.1,5.6
49.1538,6752.5397,0.2250090935557659,-0.19703791214509722,-0.17499781444057483,0.00318,-0.1397,0.05807,13.8,-21.1,5.7
49.1673,6752.5597,0.2912778363819896,-0.18913626321807797,-0.12140922389829534,-0.01943,-0.11588,0.00065,13.8,-21.1,5.8
49.1891,6752.5797,0.33902143095840465,-0.20624250983396503,-0.0714483036520086,-0.0121,-0.04135,-0.03172,13.8,-21.1,5.9
49.2158,6752.5997,0.3590141683122795,-0.2434833226682857,-0.03919135966394194,0.02883,0.00019,-0.02806,13.7,-21.1,5.8
49.2263,6752.6197,0.3490185262181601,-0.27655197717167485,-0.03371129405316786,0.07526,-0.07373,-0.00668,13.7,-21.1,5.8
49.2528,6752.6397,0.30455949815520117,-0.3095421249088098,-0.0576954342541498,0.0496,-0.13604,-0.00912,13.8,-21.1,5.8
49.2713,6752.6597,0.2485137294596484,-0.3209870484669731,-0.10667491419186348,0.01417,-0.10794,-0.04516,13.7,-21.1,5.8
49.2905,6752.6797,0.1851943870835949,-0.31771242150408546,-0.17040766361446202,0.03066,-0.03524,-0.10686,13.7,-21.1,5.9
49.3102,6752.6997,0.1127704363024803,-0.3076191583790557,-0.23541705291528103,-0.00415,0.04417,-0.11969,13.9,-21.1,6.0
49.3251,6752.7196,0.023022767831088288,-0.3001549741091608,-0.2884256898919002,-0.03531,-0.02058,-0.07693,13.9,-21.1,6.0
49.3532,6752.7396,-0.07530852097139214,-0.29858058449462654,-0.31939944136108167,-0.01515,-0.08228,-0.01951,13.9,-21.1,5.9
49.3675,6752.7596,-0.16830498104903657,-0.3070083886328396,-0.3233857662920503,-0.00843,-0.06518,0.00432,13.9,-21.1,5.8
49.3912,6752.7796,-0.24288348189803574,-0.31417795523437436,-0.3006368915983977,-0.08296,-0.01692,-0.00668,13.9,-21.1,5.9
49.4162,6752.7996,-0.2849251650402179,-0.32096168524595037,-0.2566919506815939,-0.09701,0.03073,0.01653,13.9,-21.1,5.9
49.4321,6752.8196,-0.2914549310872436,-0.3335533742652545,-0.20054173061624958,-0.05547,0.0344,0.05685,13.9,-21.2,5.8
49.449,6752.8396,-0.26360492652868517,-0.34208946077388014,-0.1409829085076435,0.00928,0.02829,0.0874,13.9,-21.2,5.8
49.4664,6752.8596,-0.20496254103870803,-0.34492320990470826,-0.08481736328293366,0.02456,0.00446,0.1216,13.9,-21.2,5.7
49.4964,6752.8797,-0.13721622164632172,-0.3476165419984249,-0.03597310270408727,0.03738,-0.00348,0.13993,13.8,-21.1,5.7
49.5147,6752.8997,-0.03832246886437706,-0.3465806810391097,0.005302371145290863,0.02944,0.00935,0.14665,13.9,-21.1,5.7
49.5447,6752.9197,0.05761371389632036,-0.35519070426046057,0.038081065932244584,0.03555,-0.00959,0.10755,13.9,-21.2,5.7
49.5521,6752.9398,0.1506385468821929,-0.37382500075159736,0.06144579388146987,0.0215,0.0515,0.02081,13.8,-21.2,5.6
49.5698,6752.9598,0.2189212991610587,-0.40552066285461896,0.07315143695186244,-0.02737,0.09487,-0.03417,13.9,-21.2,5.7
49.5853,6752.9798,0.2511464467485537,-0.44724118794047135,0.07038116015532125,-0.02615,0.05822,-0.03905,13.8,-21.3,5.6
49.6069,6752.9998,0.2548264932800856,-0.4904116118666747,0.050402827224752755,0.02883,0.03989,-0.01767,13.6,-21.3,5.4
49.627,6753.0199,0.2384241907771797,-0.5207701739542508,0.012746496053885892,0.08625,0.03684,-0.00973,13.6,-21.4,5.4
49.6457,6753.0399,0.21790215384477613,-0.5253132249543147,-0.039572899164321385,0.07831,0.07349,-0.01156,13.5,-21.4,5.4
49.6721,6753.0599,0.2053931373216716,-0.5078785246425503,-0.10012386903389192,0.05205,0.07166,0.00493,13.5,-21.4,5.5
49.6914,6753.08,0.19657193427624467,-0.4647369272650783,-0.1587438932517795,0.08748,0.07593,0.02875,13.5,-21.5,5.4
49.7122,6753.1,0.1893972457169805,-0.41588589866956716,-0.20613377794710175,0.10153,0.04173,0.00554,13.4,-21.5,5.4
49.7328,6753.12,0.1782989502032861,-0.3733606142818673,-0.2349434157214283,0.04655,-0.00775,-0.02928,13.4,-21.5,5.4
49.7514,6753.14,0.15922213416893738,-0.34760782056362005,-0.24237980890988808,-0.02187,-0.01753,-0.05982,13.4,-21.5,5.4
49.7684,6753.1601,0.13073396727057926,-0.345320232754574,-0.2307612997992603,-0.02492,0.03256,-0.06043,13.4,-21.5,5.3
49.7872,6753.1801,0.09741955520804997,-0.36404335248752584,-0.20648443539150207,-0.0182,0.06372,-0.04883,13.3,-21.6,5.3
49.8155,6753.2001,0.07013825185028001,-0.39362709055602724,-0.17800169341221483,-0.03531,0.07838,-0.04211,13.3,-21.6,5.3
49.8279,6753.2202,0.039730367427397,-0.4292164489488146,-0.1536032831426155,-0.01332,0.02035,-0.02561,13.3,-21.6,5.3
49.8474,6753.2402,0.026410760594868934,-0.45850949299777044,-0.13894625459361798,0.04349,0.04173,4e-05,13.4,-21.6,5.3
49.8789,6753.2602,0.03184337370349895,-0.481409670414864,-0.136347109208117,0.06976,-0.00348,0.05074,13.4,-21.6,5.3
49.9019,6753.2802,0.06347823074201443,-0.48026019691051214,-0.1440980089819508,0.06243,0.00507,0.04891,13.5,-21.6,5.4
49.9186,6753.3003,0.11196402145576329,-0.46009778582239197,-0.1603159189738559,0.01173,0.0686,0.02814,13.5,-21.6,5.5
49.928,6753.3203,0.159294723981239,-0.4353572215044907,-0.1840242631167488,-0.05058,0.06983,0.01776,13.5,-21.6,5.6
49.9541,6753.3403,0.19255758884441856,-0.40302639295747456,-0.21436877865213333,-0.07318,0.02523,0.00676,13.6,-21.5,5.6
49.9751,6753.3604,0.2015839104388059,-0.38327573099086276,-0.25116557451289623,-0.0628,-0.0047,-0.01279,13.6,-21.5,5.5
49.9926,6753.3804,0.18668644891809763,-0.3745595505876747,-0.29091339149693063,-0.05486,0.04967,-0.03295,13.6,-21.5,5.5
50.0058,6753.4004,0.15067928162398314,-0.37193818133540507,-0.3260371526718835,-0.02309,0.07716,-0.06899,13.7,-21.5,5.5
50.0271,6753.4204,0.1102853998809103,-0.36805937643992304,-0.34574671626580056,-0.04814,0.11442,-0.03966,13.7,-21.5,5.6
50.0496,6753.4405,0.06716818052556216,-0.36783001296611995,-0.3393222117713499,-0.07929,0.05333,0.01837,13.7,-21.4,5.6
50.0709,6753.4605,0.03236876232846002,-0.3799384476169598,-0.30066958650103714,-0.07257,-0.00165,0.01287,13.7,-21.4,5.7
50.088,6753.4805,0.019445814509643302,-0.41242268784169905,-0.23172786789454847,-0.07929,-0.01142,-0.00423,13.7,-21.4,5.8
50.1094,6753.5005,0.03310601201311639,-0.45746561918081186,-0.14319683231142477,-0.08173,-0.00959,0.00493,13.7,-21.4,5.9
50.1294,6753.5204,0.06977660447232806,-0.5106493400133876,-0.05356780653124993,-0.05119,0.02523,0.00493,13.7,-21.4,5.9
50.1469,6753.5404,0.11647199126171733,-0.5597834798350328,0.01605225263628718,-0.04081,0.09487,0.00554,13.6,-21.4,5.8
50.1656,6753.5604,0.16105444930818347,-0.5912198171375029,0.0477569380481615,-0.02065,0.06005,0.01348,13.5,-21.4,5.6
50.1852,6753.5804,0.19563297629114282,-0.596326946534463,0.03189084821876165,0.03433,0.01363,0.00982,13.4,-21.4,5.6
50.207,6753.6004,0.2201082735663734,-0.5698713584555868,-0.029895183176764206,0.04655,0.03562,-0.00912,13.4,-21.4,5.6
50.2277,6753.6204,0.23622727651539616,-0.5103672707050027,-0.12501982642070786,0.02578,0.09426,-0.00851,13.4,-21.5,5.5
50.2468,6753.6404,0.2438995589359662,-0.4292807011855418,-0.23421466736483332,-0.02065,0.11381,0.00371,13.4,-21.5,5.6
50.2671,6753.6604,0.2436396618082798,-0.34684173426750586,-0.33685886430934,-0.07685,0.10037,-0.01584,13.3,-21.4,5.6
50.2878,6753.6804,0.23426584665354858,-0.28611662454928405,-0.4159361468018563,-0.08723,0.03378,-0.03417,13.3,-21.5,5.6
50.3074,6753.7004,0.21686916607809265,-0.26240579647194645,-0.4613466856111472,-0.0402,0.03012,-0.02745,13.2,-21.5,5.6
50.3299,6753.7204,0.19716678137282903,-0.27445846388915796,-0.4707960574577008,-0.04264,0.07532,-0.05066,13.2,-21.5,5.5
50.3475,6753.7404,0.17127515807389856,-0.319153504202125,-0.44847274945104765,-0.12083,0.08388,-0.09037,13.2,-21.5,5.4
50.3669,6753.7604,0.14733136505714683,-0.3797496249420926,-0.4024466428736613,-0.14282,0.07899,-0.13801,13.2,-21.6,5.3
50.431,6753.7804,0.18476748728667491,-0.38082610071363077,-0.3404167477627773,-0.14038,0.05455,-0.12885,13.3,-21.6,5.3
50.4361,6753.8004,0.15990346438615807,-0.4605073497621105,-0.2755035723084269,-0.13305,0.03806,-0.06654,13.3,-21.6,5.2
50.4432,6753.8204,0.16333219134833016,-0.5162023335134179,-0.21292222558776963,-0.1306,-0.01508,0.00676,13.4,-21.5,5.1
50.4555,6753.8404,0.1981585697760769,-0.5359406440582842,-0.15626846897989743,-0.07624,-0.08167,0.06907,13.4,-21.6,5.1
50.4654,6753.8604,0.27211867004072443,-0.5215878831019424,-0.10700838991103367,-0.06096,-0.1061,0.10328,13.5,-21.5,5.3
50.485,6753.8804,0.3611556569811807,-0.4659374504458498,-0.06360663220991825,-0.10739,-0.07617,0.10572,13.6,-21.5,5.3
50.5086,6753.9004,0.45311325046379697,-0.3891293001276096,-0.026185366176147085,-0.16848,-0.06945,0.11,13.7,-21.6,5.2
50.5295,6753.9204,0.5309633552789994,-0.3243319667632441,0.003634548364647827,-0.1471,-0.11038,0.06601,13.7,-21.6,5.2
50.5449,6753.9403,0.5797736937406563,-0.2904910061907397,0.02348987260347002,-0.09578,-0.18491,0.0257,13.7,-21.6,5.1
50.5682,6753.9603,0.5796775992010904,-0.2759032892673516,0.03171579685257875,-0.09456,-0.22278,-0.02928,13.7,-21.5,5.0
50.5939,6753.9803,0.5464961794085742,-0.2812948017955353,0.025175228695550445,-0.17398,-0.12382,-0.07509,13.8,-21.5,5.0
50.6146,6754.0003,0.48449540916250916,-0.31664381712652506,0.0036335862028842314,-0.17764,-0.05662,-0.12274,13.8,-21.5,4.8
50.6295,6754.0203,0.3952424831659293,-0.3772704327161095,-0.029913369195762485,-0.07624,-0.06212,-0.14962,13.8,-21.5,4.7
50.6476,6754.0403,0.29404752120240774,-0.4440356668863509,-0.0701006683373322,0.00195,-0.16841,-0.11297,13.9,-21.5,4.7
50.6687,6754.0603,0.1963852290178806,-0.5000911114369393,-0.109318069812959,0.02517,-0.17391,-0.09953,13.9,-21.4,4.5
50.6872,6754.0803,0.11648721726532271,-0.5313783555258285,-0.1389687626569991,-0.06768,-0.05846,-0.09525,13.9,-21.4,4.4
50.7101,6754.1003,0.05870905222676984,-0.535901836293011,-0.15179905327338084,-0.15993,0.04173,-0.11175,13.9,-21.5,4.3
50.7293,6754.1203,0.0046124960740200885,-0.5398712783467126,-0.1444764855945273,-0.1471,0.04111,-0.12946,13.9,-21.4,4.4
50.7528,6754.1403,-0.047629181306111566,-0.5512938934331675,-0.11549974726947099,-0.07074,-0.04929,-0.12457,13.9,-21.4,4.3
50.781,6754.1603,-0.09432872577923929,-0.5785240552240727,-0.06559623611367194,-0.02859,-0.03524,-0.0922,13.9,-21.4,4.1
50.7966,6754.1803,-0.13046557992854937,-0.6217342313149827,0.002650277244910626,-0.04814,0.01668,-0.04883,13.8,-21.4,4.0
50.8116,6754.2003,-0.1329678139922938,-0.672184321210456,0.08435011740166587,-0.05058,0.08876,-0.01034,13.8,-21.3,4.0
50.826,6754.2203,-0.09231045989113087,-0.727638534926878,0.1698751732035717,-0.04447,0.06494,0.06174,13.9,-21.3,3.8
50.8465,6754.2403,-0.010823929191733257,-0.7832894439463264,0.2451500743084729,-0.01882,-0.07006,0.13688,13.9,-21.3,3.7
50.8847,6754.2603,0.09018809360349012,-0.8436045791263457,0.29272463208132926,0.09603,-0.1397,0.11977,13.9,-21.3,3.6
50.9116,6754.2804,0.25309802486211486,-0.8737988239303963,0.29845612560271917,0.12718,-0.06029,0.06968,13.9,-21.3,3.5
50.9173,6754.3004,0.44690244417617797,-0.8327740344935278,0.253942576072804,0.11924,0.02218,0.05013,13.9,-21.3,3.6
50.9324,6754.3204,0.6103777748608871,-0.7546451223118783,0.15663821975596903,0.13451,0.03501,0.01653,13.9,-21.3,3.5
50.9545,6754.3405,0.7125324952011837,-0.6470800034403541,0.019514663146448896,0.14062,-0.04074,-0.02195,13.8,-21.3,3.4
50.9899,6754.3605,0.7424147909267546,-0.538781949972101,-0.1351385845255173,0.11435,-0.05418,-0.0696,13.8,-21.3,3.4
50.9916,6754.3806,0.6790908762863377,-0.3951103528401519,-0.27425915301243897,0.11435,-0.01631,-0.14107,13.8,-21.3,3.4
51.007,6754.4007,0.5699932666045915,-0.2952708628833224,-0.37629832108055616,0.03128,0.05516,-0.21743,13.8,-21.3,3.3
51.027,6754.4207,0.4293702668107453,-0.24480945637075677,-0.4200186922794078,-0.06402,0.04295,-0.23942,13.8,-21.3,3.3
51.0483,6754.4408,0.2682325076657319,-0.25577477011376054,-0.39801882863086746,-0.07807,0.04478,-0.21926,13.8,-21.3,3.3
51.067,6754.4609,0.1063134472974377,-0.33055518874184797,-0.31907195403177546,-0.03714,-0.09389,-0.10319,13.9,-21.4,3.4
51.0883,6754.4809,-0.02362889738037198,-0.4510210256163268,-0.2043742200061338,0.01906,-0.12748,-0.03172,13.9,-21.3,3.3
51.1129,6754.501,-0.09977408058603894,-0.5898990449079433,-0.08044372385758258,0.04471,-0.04502,-0.01462,13.9,-21.4,3.3
51.1322,6754.521,-0.1164106837125668,-0.7128242893230547,0.027702645920088642,0.03738,0.03134,-0.02256,13.9,-21.4,3.3
51.1562,6754.5411,-0.09032826209908021,-0.8034198852792198,0.100269353970182,0.04899,-0.00592,-0.02256,13.9,-21.4,3.4
51.1708,6754.5612,-0.04452146707286083,-0.8470155651756193,0.12710528528900866,0.07098,-0.0328,-0.01401,13.9,-21.4,3.4
51.1882,6754.5812,0.007228928583314145,-0.8534504010428826,0.10659289432898333,0.09175,-0.01508,0.01348,13.9,-21.4,3.4
51.2183,6754.6013,0.058717600239187005,-0.8442009147892023,0.04467716017864021,0.13512,0.01057,-0.00362,14.0,-21.4,3.4
51.238,6754.6213,0.10496490614187905,-0.7976027442812887,-0.04361572941507674,0.13879,0.03256,-0.03539,14.0,-21.3,3.5
51.2474,6754.6414,0.13606648561023016,-0.7246963044974098,-0.14423758583165025,0.10947,0.03378,-0.04211,14.0,-21.3,3.5
51.2738,6754.6615,0.1570804265884624,-0.6636286272878287,-0.2460043412378461,0.07404,-0.01203,-0.036,14.1,-21.3,3.6
51.2935,6754.6815,0.16317697179501828,-0.602052129760406,-0.33589254468545526,0.05876,-0.02242,-0.03233,14.1,-21.3,3.5
51.3126,6754.7016,0.16300883325936358,-0.5497259760983166,-0.40531380454311794,0.06854,0.00385,-0.02256,14.1,-21.3,3.6
51.3312,6754.7217,0.16300160897635763,-0.5061216972863523,-0.44720517145948513,0.0551,0.06433,-0.04394,14.1,-21.2,3.6
51.3666,6754.7417,0.1767830745110809,-0.47184713345873736,-0.45684801819039755,0.00257,0.03806,-0.05188,14.1,-21.2,3.6
51.3692,6754.7618,0.17802323201016862,-0.4470124660062665,-0.43137297101323036,-0.02065,0.02951,-0.03417,14.1,-21.1,3.6
51.3874,6754.7818,0.19145872973432418,-0.4349359930356859,-0.3725924135035168,-0.02004,-0.0499,-0.00057,14.0,-21.1,3.6
51.4129,6754.8019,0.21136159832556742,-0.4398280242147928,-0.28636284395694567,0.01784,-0.08289,0.0373,14.0,-21.1,3.7
51.4277,6754.822,0.2561275299411034,-0.45726115117057337,-0.18369702334082838,0.04227,-0.08228,0.06357,14.0,-21.1,3.8
51.4488,6754.842,0.3096419549296766,-0.4827107675335032,-0.07919402153006772,-0.01698,-0.07067,0.04036,14.0,-21.0,3.9
51.4711,6754.862,0.36721504182031883,-0.5109107685997024,0.010113139028739226,-0.02126,-0.08167,-0.00546,14.0,-21.0,3.9
51.4949,6754.8821,0.41296868402322146,-0.5399356393226092,0.06858772715695771,0.01051,-0.07617,-0.05921,14.1,-21.0,3.9
51.5128,6754.9021,0.42869403982678306,-0.5655624492846828,0.08612952172711807,0.02211,-0.07312,-0.10991,14.0,-21.0,3.9
51.5423,6754.9221,0.4128961776947633,-0.5875765324192597,0.06020065788394824,0.02333,-0.05296,-0.12274,14.1,-21.0,4.0
51.5539,6754.9421,0.34735447709356443,-0.5884854141567414,-0.0005331118848754812,0.03189,-0.01508,-0.10625,14.0,-21.1,3.9
51.5669,6754.9621,0.25418684077786724,-0.5770230613146115,-0.08288354888583171,0.02761,-0.0102,-0.1148,14.0,-21.1,3.9
51.5886,6754.9821,0.15253752947475566,-0.5587636042603331,-0.16912962461069903,-0.00232,-0.01081,-0.12274,14.0,-21.1,4.0
51.6156,6755.0021,0.049962149109001236,-0.5424678353237766,-0.2420267460869816,-0.0066,-0.06456,-0.07571,14.0,-21.1,3.9
51.6485,6755.0221,-0.042991773695482086,-0.5386629931841753,-0.2890977040304321,0.03555,-0.07861,-0.00301,14.2,-21.1,4.0
51.6536,6755.0421,-0.09121332601496807,-0.5370577270117838,-0.3030185784855579,0.05388,-0.0719,0.04219,14.2,-21.1,3.9
51.6701,6755.0621,-0.1080515693587964,-0.5480771898521553,-0.2848883318855844,0.03616,-0.02547,0.04463,14.2,-21.1,3.9
51.6904,6755.0821,-0.09041128090512864,-0.562689270428984,-0.2410757489865123,-0.01515,-0.01325,0.0428,14.3,-21.1,3.9
51.7125,6755.1021,-0.046249125166281525,-0.5774761443523647,-0.1828737763902044,-0.04875,-0.0157,0.03669,14.3,-21.1,3.8
51.7274,6755.1221,0.012977944078944583,-0.5935962574212224,-0.12364284531813752,-0.00232,0.03134,0.02753,14.3,-21.1,3.7
51.7502,6755.1421,0.07599766367887827,-0.6058857651016425,-0.07490559487304083,0.01906,0.03867,0.01715,14.4,-21.1,3.6
51.7726,6755.1621,0.13566895177197508,-0.6106973306888946,-0.04406182854357965,0.01784,0.04111,0.01715,14.4,-21.1,3.6
51.7948,6755.182,0.1879369987989267,-0.6043886064497976,-0.03292824468192457,0.04533,0.02645,0.00432,14.4,-21.1,3.6
51.8118,6755.202,0.2322802452382947,-0.5861027252793407,-0.03832693434312873,0.02822,0.04722,0.02509,14.4,-21.1,3.5
51.8281,6755.222,0.2707155588872548,-0.5625767609291634,-0.05424443991411465,0.01845,0.03623,0.01592,14.5,-21.1,3.4
51.8499,6755.242,0.3064982821937791,-0.5403709580539136,-0.07383126366494075,0.01723,0.03684,0.00798,14.5,-21.1,3.7
51.8834,6755.262,0.34669430032585397,-0.5216494389347782,-0.09150924182207554,-0.02553,0.1248,-0.03233,14.5,-21.0,3.7
51.8896,6755.282,0.3509483668457935,-0.5202351219335788,-0.10320964693509715,-0.04936,0.14863,-0.02317,14.5,-21.0,3.6
51.92,6755.302,0.36474454422648406,-0.5231627650892763,-0.10913924581650214,-0.02431,0.12297,-0.04394,14.5,-21.0,3.8
51.9338,6755.322,0.3425979247330151,-0.543744460839315,-0.10955452938259569,-0.02798,0.10037,-0.04761,14.3,-21.0,3.6
51.9492,6755.342,0.30903060262420173,-0.5727726289243678,-0.10685712595052976,-0.0066,0.04417,-0.03356,14.4,-21.0,3.6
51.9706,6755.362,0.27156107713831684,-0.6079194020939279,-0.10284093682851392,0.04105,0.04783,-0.0189,14.3,-21.0,3.6
51.9874,6755.382,0.23626188734754494,-0.640727471218089,-0.09804352289720164,0.0551,0.00874,0.02692,14.3,-21.0,3.6
52.0085,6755.402,0.21159841261095755,-0.6699108378583785,-0.09293440018177535,0.05205,-0.03463,0.05319,14.3,-21.1,3.6
52.0269,6755.422,0.20963563304558544,-0.6881846938900055,-0.08791187288642277,0.02822,-0.02119,0.06479,14.3,-21.1,3.6
52.0469,6755.442,0.22960888512085603,-0.6962191392213724,-0.08484166196693543,0.02944,0.03134,0.03486,14.3,-21.1,3.5
52.068,6755.462,0.26190233176265426,-0.6967602788757176,-0.08698336736145329,0.01173,0.05761,4e-05,14.2,-21.1,3.5
52.0865,6755.482,0.28785435472753007,-0.6941872834568484,-0.09788922604433026,0.01356,0.03501,4e-05,14.2,-21.0,3.6
52.1091,6755.502,0.29345344821734987,-0.6936573000682751,-0.11992316692715832,0.07953,-0.01325,0.00615,14.2,-21.0,3.7
52.1289,6755.522,0.2761257611957082,-0.6853216950818595,-0.15176980450710964,0.13085,-0.02486,0.00676,14.2,-21.0,3.6
52.1473,6755.542,0.2409593114892441,-0.6637960013038156,-0.18896562655322313,0.07648,-0.00348,-0.01462,14.3,-21.0,3.6
52.1698,6755.562,0.19651963426513702,-0.63179744084634,-0.22456837389914952,0.01051,0.08326,-0.03111,14.3,-21.1,3.5
52.1947,6755.582,0.14721560729251543,-0.5971316525743995,-0.2505193815196254,-0.03714,0.09548,-0.02867,14.3,-21.2,3.6
52.2157,6755.6019,0.09535915088981188,-0.5730917662154887,-0.2599989967440308,0.01845,0.02951,0.00615,14.4,-21.2,3.6
52.2291,6755.6219,0.059547543082815825,-0.5610670031337788,-0.24839715077208346,0.07159,-0.02852,0.04463,14.4,-21.2,3.7
52.2535,6755.6419,0.04679089320953066,-0.5641004287153757,-0.2149200020687161,0.04288,-0.01508,0.10083,14.4,-21.2,3.7
52.269,6755.6619,0.08150622320400777,-0.5696907068919269,-0.16241801544316736,0.00867,0.02584,0.1326,14.5,-21.2,3.7
52.287,6755.6819,0.14998427600986605,-0.5805662122317159,-0.09904401776269012,0.00318,0.01912,0.12893,14.5,-21.2,3.8
52.3316,6755.7019,0.21886070486177478,-0.600052516107247,-0.036161345841923875,0.00195,-0.01264,0.10083,14.4,-21.2,3.9
52.3331,6755.7219,0.32133235497782275,-0.6193888507561593,0.012597080123482485,0.03861,-0.01997,0.07518,14.4,-21.2,3.8
52.3499,6755.7419,0.39767213160897563,-0.6446571667437938,0.036261588931237654,0.09236,0.01363,0.03058,14.4,-21.2,3.9
52.3784,6755.7619,0.4416444602179525,-0.6660480317067262,0.028488086803964308,0.07465,0.02035,-0.0079,14.3,-21.2,3.9
52.3872,6755.7819,0.44364732750078645,-0.6571987579719308,-0.009043700402614263,0.02333,0.01485,-0.01645,14.3,-21.3,3.8
52.4377,6755.8019,0.42619925483831417,-0.6437730262000143,-0.07230690343544133,0.02333,0.01424,-0.03905,14.3,-21.3,3.8
52.4415,6755.8219,0.35620851516174395,-0.6040470277936607,-0.14558238397600576,0.05021,0.03745,-0.04883,14.3,-21.3,3.9
52.4477,6755.8419,0.27126026300860245,-0.5625768807686891,-0.21587823371552162,0.06243,0.07349,-0.04638,14.2,-21.3,3.9
52.4724,6755.8619,0.19108574028985675,-0.540259927527202,-0.2686839920547719,0.05327,0.06433,-0.01828,14.1,-21.3,3.9
52.4882,6755.8819,0.11463113947212465,-0.529701359334787,-0.291127639087291,0.03005,0.02218,0.01104,14.0,-21.3,3.9
52.5089,6755.9019,0.0563055737631664,-0.5413308724392644,-0.27864286861841236,-0.0011,-0.01325,0.01898,13.9,-21.3,3.8
52.5296,6755.9219,0.023344263299263614,-0.5752877154510466,-0.2340329688495757,-0.03714,0.04295,0.03425,13.9,-21.3,3.8
52.5483,6755.9419,0.01695087489318507,-0.6294862808163972,-0.1673615919630027,-0.04386,0.02218,0.05135,13.9,-21.3,3.9
52.5674,6755.9619,0.03258225421045432,-0.6937387290307131,-0.09297781077114209,-0.01393,0.02218,0.07762,13.8,-21.4,3.9
52.6004,6755.9818,0.05047672564230513,-0.7599412268713197,-0.026221821418213054,0.06243,-0.00775,0.15642,13.8,-21.4,3.9
52.6166,6756.0018,0.10358690631475082,-0.796348225418802,0.022009566721500562,0.10153,-0.02669,0.18697,13.8,-21.4,4.0
52.6294,6756.0218,0.17445386271933214,-0.7964047919000752,0.04416113229684804,0.09236,-0.01631,0.19246,13.8,-21.5,4.0
52.6479,6756.0418,0.23834488482672034,-0.7668142337716866,0.037415186077186746,0.08564,-0.03585,0.1943,13.8,-21.5,4.1
52.6737,6756.0618,0.2808484163871433,-0.7159516371302468,0.0036797742609007145,0.07587,-0.07067,0.20407,13.7,-21.5,4.1
52.6971,6756.0818,0.31677833276353723,-0.6517895515738704,-0.0523870912567439,0.06487,-0.09022,0.19491,13.7,-21.5,4.2
52.7178,6756.1018,0.3452064651027627,-0.5863254617563592,-0.12343164760040715,0.06426,-0.09083,0.15031,13.6,-21.5,4.3
52.7285,6756.1218,0.3699570252858663,-0.5235173060706808,-0.19975068595852008,0.0551,0.00691,0.11244,13.6,-21.6,4.2
52.747,6756.1418,0.3676227083347051,-0.47429894791094346,-0.2701690554667646,0.01173,0.00752,0.09656,13.6,-21.6,4.2
52.7791,6756.1618,0.3332760803670449,-0.435459306892287,-0.32461121436132245,-0.02676,-0.0438,0.09228,13.6,-21.7,4.2
52.7948,6756.1818,0.2982346158404458,-0.4240671935984789,-0.3585471341560922,-0.06158,-0.08595,0.08373,13.6,-21.7,4.4
52.8081,6756.2019,0.2583101322387608,-0.43868433185614386,-0.36950836416037625,-0.02859,-0.07678,0.06052,13.7,-21.8,4.5
52.8282,6756.2219,0.21431985489162525,-0.4768346206287661,-0.35923278988213525,0.03311,-0.05051,0.0202,13.6,-21.9,4.4
52.8525,6756.242,0.17531340202847862,-0.5318480589100002,-0.3319285681964548,0.00134,-0.00042,-0.00912,13.6,-21.9,4.4
52.8897,6756.262,0.14542745866468368,-0.5901288729988678,-0.29195598183855154,-0.03958,0.00019,-0.01767,13.5,-22.0,4.4
52.8942,6756.2821,0.1134079736593451,-0.6642328893951197,-0.24482073506273672,-0.07257,-0.02486,-0.03783,13.5,-22.0,4.5
52.9148,6756.3021,0.0947270582714926,-0.7278300522038137,-0.19346921033067233,-0.06524,0.00019,-0.01218,13.4,-22.0,4.4
52.9283,6756.3222,0.09348094267207918,-0.7875896184166671,-0.14241398640529113,-0.02492,0.01485,0.04341,13.4,-22.0,4.4
52.9571,6756.3423,0.10494353152725244,-0.8261293788918984,-0.09396663499104463,-0.03287,-0.01875,0.09839,13.3,-22.1,4.5
52.9743,6756.3623,0.15095936499008725,-0.8430223196405925,-0.05164237224099466,-0.00965,0.0063,0.14848,13.3,-22.1,4.6
52.9887,6756.3824,0.2256845058415493,-0.8311751160228342,-0.017826672481175976,0.04288,-0.0273,0.16192,13.3,-22.1,4.5
53.0092,6756.4024,0.30952305771915156,-0.7944778505069225,0.004835229090232929,0.0441,-0.0554,0.16375,13.3,-22.1,4.6
53.0297,6756.4225,0.4008765708109593,-0.7402104966490156,0.013333857396329307,0.0215,-0.00837,0.14909,13.3,-22.1,4.6
53.0478,6756.4426,0.4882418045294432,-0.6800013588730978,0.005027655810470932,0.04655,0.00202,0.11733,13.3,-22.1,4.6
53.0716,6756.4626,0.5513352837401684,-0.6295850121126241,-0.021184434251765083,0.06304,-0.00287,0.06601,13.2,-22.1,4.6
53.0911,6756.4827,0.584949120420169,-0.593099102001702,-0.06411156723694766,0.04533,-0.01753,0.00371,13.1,-22.1,4.6
53.1141,6756.5028,0.5823924054798081,-0.5773518100685461,-0.11999338134361714,0.04594,0.01729,-0.0305,13.0,-22.1,4.5
53.1331,6756.5228,0.5432629769797893,-0.5781821588555957,-0.1821666548267622,0.00806,-0.01264,-0.07082,13.0,-22.2,4.5
53.1515,6756.5429,0.4766149951871053,-0.5923416835288362,-0.24285092599652103,0.02333,-0.01875,-0.09648,13.0,-22.2,4.5
53.1693,6756.5629,0.3956284656297479,-0.6129295400262239,-0.2938896670251605,0.01661,-0.01142,-0.10381,13.0,-22.1,4.5
53.1895,6756.583,0.31755327811809697,-0.63287227516963,-0.32850822393446855,-0.03958,0.04906,-0.08731,13.0,-22.1,4.5
53.2206,6756.6031,0.2615973940550269,-0.6442695476660222,-0.34256505625376477,-0.02615,0.04845,-0.05982,13.0,-22.2,4.5
53.2295,6756.6231,0.21229328232971875,-0.6556783157122331,-0.3357772408987234,-0.01515,0.046,-0.03172,13.0,-22.1,4.6
53.2511,6756.6432,0.19518198567200917,-0.6572741558928927,-0.31134757227183485,-0.04997,0.04845,-0.01523,13.1,-22.1,4.6
53.2966,6756.6633,0.20174286142159825,-0.6541403769062284,-0.27511801704219074,-0.03164,-0.00837,-0.00301,13.1,-22.1,4.6
53.3059,6756.6833,0.23222373529840848,-0.6553481742489137,-0.2343035568481131,0.01234,-0.0102,0.0202,13.0,-22.1,4.6
53.3243,6756.7034,0.2771845346677715,-0.6568257347130566,-0.19423983849798,0.03128,-0.00348,0.02203,13.0,-22.0,4.7
53.3385,6756.7234,0.32959840859262624,-0.6565474041082158,-0.15863549811898636,-0.00293,0.01424,0.00676,13.1,-22.0,4.7
53.3487,6756.7435,0.3768450336406459,-0.6578765373873571,-0.1294168551923569,-0.03287,0.04539,-0.01034,13.1,-22.0,4.8
53.3685,6756.7636,0.4119300401985563,-0.6615894624924396,-0.10718340093698053,-0.0347,0.02829,-0.01462,13.1,-22.1,4.8
53.4033,6756.7836,0.4305280258875923,-0.6715324789236843,-0.09247100761663951,-0.00049,-0.02303,-0.03783,13.2,-22.1,4.8
53.4184,6756.8036,0.42132941335019425,-0.684748026092588,-0.085251461846509,0.01051,-0.00103,-0.05371,13.2,-22.1,4.8
53.4288,6756.8236,0.390471434651752,-0.6933164532684274,-0.08612214833027387,-0.02309,0.00446,-0.05188,13.2,-22.1,4.8
53.4511,6756.8436,0.35064265559687635,-0.6883269056061008,-0.09538552325138916,-0.04142,0.03562,-0.06104,13.2,-22.1,4.9
53.469,6756.8636,0.29754752182432653,-0.6759228381817676,-0.11234490359172966,-0.05119,0.01729,-0.05494,13.2,-22.1,4.9
53.4943,6756.8836,0.24308386469757756,-0.6597224795601992,-0.13449933626847432,-0.02126,0.00202,-0.04089,13.2,-22.1,5.0
53.5146,6756.9036,0.18812403428432858,-0.6480872528083041,-0.15692657902608254,0.01723,0.0515,-0.05982,13.2,-22.1,5.0
53.5338,6756.9236,0.14385017720626503,-0.6416163533384998,-0.17302024724892462,0.00928,0.04783,-0.03172,13.2,-22.1,5.0
53.5503,6756.9436,0.11689569038200355,-0.6416747173956057,-0.1767774843883938,-0.03531,0.09609,-0.00423,13.2,-22.1,5.0
53.5781,6756.9636,0.12487279711944042,-0.6396280585323436,-0.16485098157738776,-0.10006,0.18711,-0.01706,13.2,-22.2,4.9
53.5962,6756.9836,0.14234246072600548,-0.6612942839430371,-0.1406042324597827,-0.13732,0.17306,-0.01584,13.2,-22.2,4.8
53.6145,6757.0036,0.1727410525719292,-0.6994396176568489,-0.1103551384513608,-0.1025,0.09915,0.0031,13.2,-22.2,4.7
53.6309,6757.0236,0.21023927772715012,-0.7494780384835837,-0.08293873350210035,0.00195,0.00568,0.02081,13.3,-22.3,4.8
53.6566,6757.0436,0.25001147617587266,-0.8021878596186403,-0.06568079342040356,0.08442,-0.03952,0.0373,13.3,-22.3,4.7
53.6697,6757.0636,0.30644792460111425,-0.8275724880679273,-0.06027984002089504,0.08992,-0.01325,0.06601,13.3,-22.2,4.7
53.6912,6757.0836,0.3694833439412293,-0.8348579894280932,-0.06573701805806387,0.05082,0.01912,0.04097,13.2,-22.1,4.7
53.7156,6757.1036,0.43889048493001237,-0.8226668790970296,-0.0768142328710173,0.04105,0.0515,-0.02867,13.2,-22.1,4.6
53.7292,6757.1236,0.49763585431558094,-0.8048399159130041,-0.08822034274222368,0.00134,0.02096,-0.0586,13.2,-22.2,4.7
53.7517,6757.1436,0.5457742847584363,-0.7968676376656807,-0.09781915092739091,-0.00904,-0.02486,-0.036,13.2,-22.2,4.7
53.769,6757.1636,0.5744678343352049,-0.800441093872939,-0.10587175268461557,0.05021,-0.05113,-0.02745,13.2,-22.2,4.7
53.7887,6757.1836,0.5856402686247606,-0.8106137953362688,-0.11634350403566529,0.08686,-0.089,-0.01462,13.2,-22.2,4.6
53.8226,6757.2036,0.5717101868029351,-0.8231555354473206,-0.13422149646390658,0.04716,-0.14214,0.01653,13.2,-22.2,4.5
53.8371,6757.2235,0.5741398374499952,-0.8046644696116657,-0.1633941584373204,0.03128,-0.13848,0.02631,13.2,-22.2,4.4
53.8565,6757.2435,0.5786771602272621,-0.7672801944127351,-0.20414816063505725,0.05938,-0.11527,-0.0079,13.2,-22.2,4.4
53.8796,6757.2635,0.5931668675767383,-0.7129481852461036,-0.2520652879955385,0.04349,-0.05479,-0.03844,13.2,-22.2,4.6
53.9002,6757.2835,0.6126555231387788,-0.6502026636798146,-0.2983667251063373,-0.01393,-0.05479,-0.06104,13.2,-22.2,4.7
53.917,6757.3035,0.626713940075809,-0.5944265813716316,-0.33298789468698864,-0.01943,-0.0664,-0.06288,13.2,-22.1,4.7
53.9359,6757.3235,0.6281485275965201,-0.5592679681278753,-0.34787691373591656,-0.00965,-0.18918,-0.0531,13.1,-22.1,4.6
53.9519,6757.3435,0.6182080634180607,-0.5526496342896206,-0.3398503299604627,-0.04203,-0.26065,-0.08059,13.1,-22.2,4.6
53.9786,6757.3635,0.595186186694489,-0.5695284883570825,-0.31022566028094367,-0.09456,-0.16719,-0.13374,13.0,-22.2,4.5
53.9933,6757.3835,0.5519971649270407,-0.6177622183278757,-0.26492839789178646,-0.11839,-0.06518,-0.1765,13.0,-22.2,4.4
54.0115,6757.4035,0.4859373387687082,-0.6805509046008962,-0.21046889972915928,-0.10861,-0.01875,-0.21926,13.0,-22.2,4.4
54.0311,6757.4235,0.3875819043094488,-0.7512393726918148,-0.15332889525664584,-0.12388,-0.05907,-0.24125,13.1,-22.1,4.3
54.0513,6757.4435,0.25984482429947764,-0.8217466199581654,-0.0994635138550084,-0.18314,-0.12015,-0.20704,13.1,-22.1,4.3
54.0677,6757.4635,0.12393204602494336,-0.8851660518175289,-0.054062346907620906,-0.12388,-0.16169,-0.1429,13.2,-22.0,4.2
54.0877,6757.4835,0.01566264417694417,-0.9212859985667348,-0.01898430895478853,-0.04875,-0.13909,-0.10564,13.2,-22.0,4.2
54.1114,6757.5035,-0.03832611263655764,-0.9214135942186955,0.0057732500115914576,-0.15015,-0.05785,-0.10686,13.2,-21.9,4.1
54.1313,6757.5235,-0.032120610180790855,-0.8996619907525139,0.019971989837671345,-0.19536,0.02035,-0.06288,13.3,-21.9,4.1
54.149,6757.5435,0.029055527214555243,-0.867685075710925,0.02480343805060059,-0.11106,0.00813,-0.04516,13.2,-21.9,4.0
54.1707,6757.5635,0.1365756609384326,-0.834001777436854,0.021842362035286556,-0.02248,-0.01325,-0.03905,13.3,-21.9,3.9
54.1991,6757.5835,0.28157274285541045,-0.8066544020539476,0.010852399047257322,-0.07868,0.02279,-0.09892,13.4,-21.8,3.7
54.228,6757.6035,0.4435894038386444,-0.7909957732137245,-0.011099153226737712,-0.16359,0.11808,-0.16734,13.4,-21.8,3.7
54.231,6757.6234,0.5278166864192857,-0.814821468666582,-0.0470084729696687,-0.119,0.11014,-0.25041,13.5,-21.7,3.5
54.2482,6757.6434,0.6125207757894057,-0.8269531554142056,-0.10239142725202122,-0.11228,0.12847,-0.35487,13.6,-21.7,3.5
54.2694,6757.6634,0.6686596490582633,-0.8263419543035123,-0.1803449990218109,-0.12877,0.08021,-0.38908,13.7,-21.6,3.4
54.2923,6757.6834,0.6938468593354818,-0.8033702166411653,-0.27914461359701015,-0.0573,0.18772,-0.40496,13.8,-21.6,3.3
54.3142,6757.7034,0.6810494139392465,-0.7462786743271608,-0.3890400343737639,0.038,0.32761,-0.39152,13.8,-21.5,3.3
54.3355,6757.7234,0.6359794899812405,-0.6468862620246196,-0.4945042828931516,0.14184,0.2256,-0.32494,13.9,-21.5,3.2
54.3537,6757.7434,0.5636206267850468,-0.5076987597321645,-0.5772923530822407,0.05999,0.08815,-0.2608,13.9,-21.4,3.1
54.3675,6757.7634,0.4848331528878816,-0.3563934075244798,-0.6229479754218623,-0.06035,0.00568,-0.20338,14.0,-21.4,3.1
54.3938,6757.7834,0.44565403273701115,-0.21991504187120006,-0.6228969772073825,-0.13183,-0.00898,-0.22598,14.1,-21.3,3.1
54.4381,6757.8034,0.47136652121660105,-0.10641290436962224,-0.5745158246307529,-0.17886,0.12053,-0.23697,14.2,-21.2,3.1
54.4402,6757.8234,0.4110132729690962,-0.14478264389100926,-0.47626281373526425,-0.21735,0.09793,-0.22903,14.3,-21.1,3.1
54.4493,6757.8434,0.36763092925214824,-0.25037786574769555,-0.3443123128146546,-0.27538,0.0796,-0.19177,14.4,-21.0,3.2
54.4696,6757.8634,0.33665500591220493,-0.3960138382970869,-0.19525458121317385,-0.28882,0.04783,-0.15695,14.5,-20.9,3.2
54.488,6757.8834,0.2909547915984968,-0.5867914294115438,-0.04902176953549642,-0.20635,-0.04013,-0.13129,14.6,-20.9,3.3
54.5079,6757.9034,0.23951185599001298,-0.784941598757489,0.07451202366602239,-0.16298,-0.04441,-0.11969,14.8,-20.8,3.3
54.5321,6757.9234,0.1880992973635018,-0.9594367226485858,0.1596305056622409,-0.16054,-0.13848,-0.13801,15.0,-20.7,3.4
54.5497,6757.9434,0.13950082739739925,-1.104793141089926,0.19560792265964722,-0.09395,-0.14337,-0.13924,15.1,-20.6,3.5
54.5696,6757.9634,0.10278408161445078,-1.1995914418724745,0.18270915848030178,-0.00293,-0.10733,-0.05555,15.2,-20.6,3.5
54.59,6757.9834,0.08434014016365435,-1.2382431409828905,0.12996399931246216,0.05327,-0.07312,0.03547,15.3,-20.5,3.5
54.6087,6758.0034,0.08737978914101899,-1.2207001007456209,0.05379600275339236,0.04166,-0.04257,0.06052,15.3,-20.5,3.4
54.6316,6758.0234,0.10055387292841628,-1.1614697232903213,-0.02713906061179472,-0.03653,-0.13115,0.0654,15.4,-20.4,3.4
54.6499,6758.0433,0.13184924868657213,-1.0895077649765847,-0.09652337170145131,-0.01454,-0.20506,0.08617,15.4,-20.3,3.4
54.668,6758.0633,0.1756500960992685,-1.0281520701692588,-0.14122643679144709,0.08748,-0.20323,0.10267,15.5,-20.3,3.4
54.6935,6758.0833,0.22294976461139057,-0.9923205701273519,-0.15394663450064527,0.12779,-0.18918,0.12283,15.4,-20.3,3.3
54.7168,6758.1033,0.2946892690139988,-0.9679610756777853,-0.13402252995634711,0.05632,-0.01325,0.10633,15.4,-20.3,3.1
54.7309,6758.1233,0.3830132522390459,-0.9523174893198973,-0.0910251849966599,-0.04508,-0.01508,0.04586,15.4,-20.3,3.0
54.7521,6758.1433,0.4593969313092509,-0.9427840819354795,-0.04127802896917743,-0.07501,-0.1788,4e-05,15.3,-20.3,2.9
54.7723,6758.1633,0.5221386208645042,-0.9470415184717865,-0.006495957810797037,0.00134,-0.25577,0.01776,15.4,-20.3,2.8
54.7891,6758.1833,0.5776739042332123,-0.954059277939743,-0.004536709607439349,0.13146,-0.20934,-0.00668,15.3,-20.3,2.6
54.8093,6758.2033,0.6204843615365443,-0.9513597203390259,-0.04330486626529151,0.19621,-0.16719,-0.07326,15.2,-20.2,2.4
54.8305,6758.2233,0.6520878242098755,-0.9186442663081984,-0.11722567179006127,0.11985,-0.1226,-0.1539,15.1,-20.2,2.3
54.8775,6758.2433,0.6862810655354518,-0.8698342719710691,-0.21285455909045226,0.03066,-0.04502,-0.18016,15.1,-20.3,2.1
54.8917,6758.2633,0.6504839185090053,-0.7938871961958197,-0.3016117028733145,-0.02126,0.01118,-0.19605,15.1,-20.3,2.0
54.9109,6758.2833,0.5865284317681423,-0.7330931523464533,-0.3681841668901278,-0.06891,-0.00898,-0.21987,15.0,-20.3,1.8
54.9255,6758.3033,0.4888837795281649,-0.7022524896191625,-0.39800508048008965,-0.01332,-0.00287,-0.25163,15.0,-20.3,1.9
54.9349,6758.3233,0.37096253838305543,-0.7019556217779501,-0.3868701845686253,-0.01637,0.03684,-0.22903,15.0,-20.3,2.0
54.9543,6758.3433,0.27386721445758094,-0.7227956534161806,-0.34073783996281826,-0.08235,0.08998,-0.15206,15.1,-20.3,2.0
54.9732,6758.3633,0.1872479178052386,-0.7598090298683191,-0.27098640893972714,-0.07074,0.03012,-0.08792,15.1,-20.3,1.9
54.9955,6758.3833,0.12070714522702004,-0.8065078632749852,-0.1929020136242272,0.00867,-0.07617,-0.02684,15.2,-20.3,1.9
55.0145,6758.4033,0.0786779761258132,-0.8561043685328074,-0.12051687025398472,0.05021,-0.00226,-0.00729,15.2,-20.3,1.8
55.0279,6758.4233,0.05734594733950385,-0.900756117136305,-0.06402594759603808,-0.00049,0.03256,-0.01218,15.2,-20.2,1.7
55.0503,6758.4433,0.044772086457527206,-0.9411602853163715,-0.029887794748555407,-0.0121,0.02829,-0.02134,15.3,-20.2,1.7
55.0715,6758.4632,0.021499118699713465,-0.9769804556947467,-0.02019900575636946,0.06426,0.00141,0.0031,15.3,-20.2,1.7
55.0904,6758.4832,-0.019945382779230615,-1.0052130432692115,-0.03312987978810966,0.15223,-0.05235,0.01531,15.5,-20.2,1.7
55.1194,6758.5032,-0.08453585532093844,-1.0356309308522418,-0.06515476143020571,0.13757,-0.0554,0.05563,15.6,-20.2,1.8
55.1408,6758.5232,-0.13707515148710367,-1.039605567976234,-0.10595195870364549,0.15895,-0.0664,0.09411,15.6,-20.3,1.8
55.1532,6758.5432,-0.1541459192356494,-1.0122496002417996,-0.14589410913155199,0.18155,-0.04502,0.12405,15.7,-20.2,1.9
55.1723,6758.5632,-0.14404504767428417,-0.9802726926664245,-0.1793213923889816,0.16933,-0.01508,0.12466,15.7,-20.2,1.9
55.1938,6758.5832,-0.09819617609831773,-0.9405163799785927,-0.19881827766761262,0.15162,0.00507,0.13626,15.7,-20.1,2.0
55.2211,6758.6032,-0.02796463436433015,-0.8995122605489473,-0.20131612590318504,0.11069,0.00446,0.17414,15.8,-20.1,2.0
55.2446,6758.6232,0.06988826983651861,-0.8548629054232718,-0.1869271186099244,0.05815,0.00507,0.19552,15.8,-20.1,1.8
55.2542,6758.6432,0.19425390309169288,-0.815707565352094,-0.16146853627661706,0.05205,-0.00592,0.13626,15.7,-20.1,1.8
55.2761,6758.6632,0.3020490843635833,-0.7953960806224587,-0.13312940781532667,0.01539,0.01179,0.07212,15.7,-20.1,1.8
55.295,6758.6833,0.3900030817522615,-0.7919391022331224,-0.10970723728676646,0.00257,0.05578,0.02509,15.7,-20.1,1.7
55.3156,6758.7033,0.44220242883799993,-0.8025880759835567,-0.09704385920927727,0.027,0.16451,0.06724,15.7,-20.1,1.9
55.3294,6758.7233,0.44589236893999973,-0.8233604949742848,-0.09771220192869912,-0.01332,0.18589,0.08617,15.7,-20.1,1.9
55.3498,6758.7433,0.40885897545410843,-0.8503677089377665,-0.11167973618039007,-0.04386,0.08021,0.01837,15.6,-20.2,2.0
55.3741,6758.7634,0.33921210174806526,-0.8816404570030107,-0.13590190423521697,0.00195,0.04295,-0.02256,15.6,-20.2,1.9
55.3918,6758.7834,0.24900629123023235,-0.9147540099495721,-0.16508190597675387,0.02333,0.11564,0.04708,15.5,-20.2,2.0
55.4235,6758.8034,0.16110523049720085,-0.9496485007802029,-0.19311475336719397,0.00379,0.17612,0.11855,15.4,-20.2,2.0
55.4356,6758.8235,0.08507818932535881,-0.9774560351086973,-0.21266896420872783,0.02272,0.17612,0.14359,15.4,-20.2,2.0
55.4499,6758.8435,0.03805274002987968,-1.003289752559632,-0.219497599466834,0.03555,0.12847,0.1155,15.4,-20.2,1.9
55.4753,6758.8635,0.023484235945949974,-1.0309498277344058,-0.2122961108680208,0.05815,0.0741,0.13688,15.4,-20.2,1.9
55.4918,6758.8835,0.05583381708943683,-1.0538992173081212,-0.1931812614333399,0.03738,0.08632,0.1833,15.4,-20.3,2.0
55.5099,6758.9036,0.12534671393130142,-1.0740677334716773,-0.17005163272318136,0.0325,0.14191,0.22789,15.3,-20.3,2.0
55.5323,6758.9236,0.21732522188304734,-1.0876913896680869,-0.15381409858700223,0.07526,0.19017,0.24194,15.3,-20.3,2.1
55.5515,6758.9436,0.32290058523106124,-1.0787258471907566,-0.1546815674313997,0.11802,0.13336,0.24072,15.3,-20.3,2.1
55.5798,6758.9637,0.4178189532314512,-1.0451031823668118,-0.18017080916768968,0.11558,0.10464,0.1943,15.2,-20.3,2.2
55.5924,6758.9837,0.5043032796357272,-0.9612695636171757,-0.2282819592287222,0.06854,0.20849,0.18269,15.2,-20.4,2.2
55.6145,6759.0037,0.5636056144003434,-0.8548692046963581,-0.2917920434246355,0.06793,0.27508,0.13932,15.2,-20.5,2.2
55.6293,6759.0237,0.5814340137033435,-0.7317871935484053,-0.35234734512713395,0.08442,0.26225,0.10511,15.2,-20.5,2.3
55.6598,6759.0438,0.5668584601184014,-0.621646334546583,-0.39159627910612294,0.01723,0.21643,0.10389,15.2,-20.5,2.3
55.6762,6759.0638,0.5164022351441662,-0.5420045650427914,-0.39300649371308616,-0.05058,0.10464,0.10633,15.1,-20.5,2.5
55.6931,6759.0838,0.45426795358836763,-0.5132720558338056,-0.3512930235820644,-0.11289,0.0405,0.08984,15.1,-20.6,2.6
55.7151,6759.1039,0.39747726917424053,-0.5407200528885642,-0.27149089186007735,-0.19291,-0.00898,0.10511,15.1,-20.7,2.6
55.7319,6759.1239,0.366757069493958,-0.6402428336681837,-0.17002702411648762,-0.12572,0.02462,0.10633,15.0,-20.7,2.7
55.7605,6759.1439,0.35692006854931363,-0.7787940293086124,-0.06643484471724115,-0.02981,0.08449,0.10633,14.9,-20.8,2.7
55.781,6759.1639,0.3727237197524438,-0.9392105664941689,0.016715491930790805,-0.01576,0.0686,0.12771,14.8,-20.9,2.8
55.7949,6759.184,0.40806584594201684,-1.0819641424971613,0.06253907035764428,-0.02248,0.0179,0.1381,14.7,-21.0,2.7
55.8183,6759.204,0.4465269116840907,-1.1787033352021716,0.06087029694137591,-0.01148,0.0124,0.10939,14.6,-21.0,2.8
55.8322,6759.224,0.49457901469503834,-1.2165775044156668,0.0077592198370837195,0.02272,0.08571,0.08495,14.5,-21.1,2.9
55.8558,6759.2441,0.5413003465669194,-1.1941927175161802,-0.0913522189778444,0.05327,0.14008,0.05868,14.5,-21.1,2.9
55.8754,6759.264,0.5738001195968103,-1.1133881248301536,-0.22047828170167705,0.05938,0.17917,0.0428,14.4,-21.2,3.0
55.8927,6759.284,0.5834645071522035,-0.9892250295349616,-0.35588455617163994,0.07892,0.19505,0.03425,14.4,-21.2,3.0
55.9194,6759.304,0.5801115758249025,-0.8514508050325409,-0.4708871552924343,0.04777,0.17551,0.02325,14.3,-21.2,3.1
55.9414,6759.3241,0.5566494422927543,-0.7250694082054234,-0.5377315378888614,-0.04081,0.12297,-0.0024,14.2,-21.3,3.1
55.9542,6759.3441,0.5192069721245856,-0.6515440491661904,-0.5381952277050814,-0.08357,0.15474,-0.00607,14.2,-21.3,3.2
55.9734,6759.3641,0.48775912928582055,-0.6424917588916942,-0.4654931889755254,-0.13121,0.08937,0.00432,14.2,-21.3,3.2
55.9907,6759.3842,0.4639226393721746,-0.7132910749717181,-0.32830491594476996,-0.15993,0.00202,-0.00485,14.1,-21.3,3.2
56.0125,6759.4042,0.4524805687836327,-0.8424192145409629,-0.14870008802700063,-0.13244,-0.03036,-0.00912,14.0,-21.3,3.1
56.0318,6759.4242,0.453596226789937,-1.0087155546611977,0.040001808160811336,-0.07196,0.00874,0.0202,14.0,-21.3,3.1
56.0519,6759.4442,0.46327132305020946,-1.1717772722687998,0.20247016648948168,-0.04142,0.00507,0.06479,14.0,-21.3,3.1
56.0693,6759.4643,0.4770240530683539,-1.2996747340770385,0.3078415086204327,-0.03897,-0.01814,0.0654,14.0,-21.3,3.1
56.0922,6759.4843,0.485296489767168,-1.3721641673236007,0.3373697550806476,0.07953,0.00874,0.03608,14.0,-21.3,3.1
56.11,6759.5043,0.4869370211459798,-1.3720749403371624,0.2898497734463259,0.14367,0.03317,0.03669,14.0,-21.3,3.0
56.1338,6759.5244,0.4782643809083612,-1.3135032147283134,0.17845182318018793,0.11435,0.03317,0.03181,13.9,-21.4,2.9
56.1581,6759.5444,0.46067619587137104,-1.2056300870796293,0.03065809620846771,0.1003,0.07899,0.02081,13.9,-21.4,2.9
56.173,6759.5645,0.4312855543984863,-1.0685161708047057,-0.12123238590176477,0.06243,0.07166,-0.00729,13.8,-21.4,2.9
56.1973,6759.5845,0.4045688817796436,-0.9445318857486286,-0.2502407181756663,0.04655,0.12541,-0.02317,13.8,-21.5,2.8
56.2137,6759.6046,0.3731465263855733,-0.8519064895087257,-0.33427765368814377,-0.02798,0.17062,-0.02317,13.8,-21.5,2.8
56.2348,6759.6247,0.3581701229477021,-0.8000990672440252,-0.3645746872568978,-0.12449,0.25125,-0.03905,13.8,-21.5,2.7
56.2518,6759.6447,0.34571286205198976,-0.7978533487929922,-0.3445588313889516,-0.15259,0.35388,-0.06838,13.8,-21.6,2.6
56.2745,6759.6648,0.35567006926043165,-0.8232830081216043,-0.2878130140446,-0.17886,0.4058,-0.09464,13.7,-21.7,2.6
56.3065,6759.6848,0.379983922619056,-0.8628609355134321,-0.2144371453182803,-0.17214,0.36243,-0.07265,13.7,-21.7,2.6
56.3285,6759.7049,0.3577599439038673,-0.9379276185295696,-0.14669425967008998,-0.10922,0.16023,-0.03233,13.6,-21.8,2.7
56.3497,6759.725,0.3188357787708988,-1.0155947219795978,-0.10081277037010317,0.05266,-0.05907,0.01165,13.6,-21.8,2.7
56.36,6759.745,0.2967127409110178,-1.060643127987533,-0.08275439571135657,0.16567,-0.11832,0.05746,13.6,-21.8,2.7
56.3774,6759.7651,0.2940246964866964,-1.0759675480197528,-0.09079020441722285,0.08564,0.00507,0.13199,13.6,-21.8,2.8
56.3931,6759.7852,0.32441834556261234,-1.053874154321625,-0.11508683954589571,0.00867,0.07593,0.1326,13.6,-21.8,2.9
56.4266,6759.8052,0.3697633807987299,-1.012796503005755,-0.14523458240087628,0.0044,0.05944,0.0874,13.6,-21.8,3.0
56.4313,6759.8253,0.4323639382254411,-0.9718604335607955,-0.17330874270787255,0.01845,-0.00531,0.06724,13.6,-21.8,3.0
56.4528,6759.8453,0.4814937604786258,-0.948275224728074,-0.19367187671531383,0.03922,0.00446,0.08495,13.6,-21.8,3.0
56.4712,6759.8654,0.520636749228706,-0.9426557004188026,-0.2045076923579785,0.03922,0.01546,0.08312,13.6,-21.8,3.1
56.4898,6759.8855,0.5461187719914777,-0.9528845063700561,-0.2063884260434481,0.038,0.04539,0.05258,13.5,-21.8,3.2
56.5155,6759.9055,0.5565485624206533,-0.9763080973457002,-0.20132340340244603,0.03066,0.01912,0.02997,13.5,-21.9,3.2
56.5334,6759.9256,0.5556575814764233,-1.0057564504009795,-0.19158564474478013,0.03066,-0.00103,0.03303,13.4,-21.9,3.2
56.5557,6759.9456,0.5466555652958773,-1.0417642694226135,-0.1803794007288495,0.02028,0.00324,0.03364,13.4,-21.9,3.3
56.5749,6759.9656,0.537293905478596,-1.0784455348435573,-0.17069099336240612,0.04105,0.03012,0.02325,13.4,-21.9,3.3
56.5935,6759.9856,0.5317656124248311,-1.1098619141498591,-0.16528835910629525,0.07831,0.00019,0.02753,13.4,-21.9,3.4
56.6142,6760.0057,0.5306385669820445,-1.1306774438273517,-0.1663090079991747,0.08564,0.01485,0.01104,13.4,-21.9,3.5
56.6358,6760.0257,0.5308076112248334,-1.1365022732325063,-0.1745629514867435,0.0441,0.04783,0.01348,13.4,-21.9,3.5
56.6552,6760.0457,0.5276246328361691,-1.1285054619304087,-0.18945397911736706,0.04471,0.02584,0.01226,13.3,-21.9,3.7
56.6741,6760.0658,0.5191615511265315,-1.113583634648984,-0.20879697798820196,0.07343,0.02279,0.01776,13.4,-22.0,3.7
56.6953,6760.0858,0.5069142798934192,-1.098261117744254,-0.22835656524604886,0.09175,0.04111,0.00982,13.4,-22.0,3.8
56.723,6760.1058,0.4952509785828936,-1.0866930109352644,-0.24275419861595715,0.07098,0.03195,0.00187,13.4,-22.0,3.8
56.7354,6760.1258,0.48061368211567157,-1.0673235163322232,-0.24537724174173725,0.04288,0.06738,0.00615,13.3,-22.0,3.8
56.753,6760.1458,0.47119611202428935,-1.054046430777378,-0.23608783903324948,0.02578,0.05272,0.02875,13.3,-22.0,3.9
56.7717,6760.1658,0.4685846590756447,-1.0468714499022442,-0.21698733088828526,0.04471,0.04295,0.06174,13.3,-22.0,3.9
56.7991,6760.1858,0.4733778583142875,-1.0492985426665704,-0.1944030620653301,0.0606,0.02462,0.07457,13.3,-22.0,4.1
56.8199,6760.2058,0.4912188831727272,-1.0466477397326588,-0.1750715580117852,0.07831,0.04783,0.06235,13.4,-22.0,4.3
56.8393,6760.2258,0.5179918793305996,-1.0339432396716128,-0.1659294059587193,0.08809,0.02157,0.02875,13.4,-22.0,4.5
56.8659,6760.2458,0.5485565939622272,-1.011328307588522,-0.17165885234090617,0.05082,0.03501,0.01837,13.5,-22.0,4.4
56.8834,6760.2658,0.5733121146361386,-0.9718363740141234,-0.19175911198916573,0.01723,0.03684,-0.00607,13.4,-22.1,4.5
56.9034,6760.2858,0.5886222314257056,-0.9268020557720859,-0.22357498684687194,0.01906,0.0686,-0.02623,13.4,-22.1,4.4
56.9167,6760.3058,0.5854336547093025,-0.8849662387546836,-0.2602593152354622,0.016,0.0515,-0.03417,13.4,-22.1,4.4
56.9351,6760.3258,0.5682658496349259,-0.8561768103567201,-0.2939976971434657,-0.00599,0.03501,-0.01828,13.3,-22.1,4.3
56.9545,6760.3458,0.5355705449018222,-0.8472925447378988,-0.3164953485330013,0.01295,0.00019,-0.02989,13.3,-22.1,4.2
56.9806,6760.3659,0.4909531280596597,-0.8605746862262684,-0.3215746196693736,0.01234,0.00019,-0.02623,13.3,-22.1,4.2
56.9944,6760.3859,0.44221057510460254,-0.8947372947638701,-0.30673658154370287,-0.03042,-0.02242,-0.00057,13.2,-22.1,4.3
57.0146,6760.4059,0.39811479978897774,-0.9414644855699955,-0.27331983949541794,-0.05363,-0.03341,0.00554,13.2,-22.2,4.3
57.0325,6760.426,0.3685045268116588,-0.9978076958098961,-0.22726726074966486,-0.06035,-0.01753,-0.00668,13.2,-22.2,4.3
57.0533,6760.446,0.3568209869058819,-1.0550850328448,-0.1762292519496036,-0.03653,0.00813,-0.02378,13.3,-22.2,4.3
57.072,6760.466,0.3614119742665884,-1.1077487463595563,-0.1281526243480009,0.01417,-0.01936,0.00554,13.2,-22.2,4.3
57.0985,6760.486,0.37573584978876845,-1.150632740031996,-0.0887189262887631,0.05266,-0.0328,0.06235,13.2,-22.3,4.2
57.1194,6760.5061,0.4080651149921919,-1.1696300555040917,-0.05987167313754327,0.05266,-0.01447,0.10572,13.2,-22.3,4.3
57.1324,6760.5261,0.4573573609261245,-1.164276412341017,-0.042204241779590035,0.01784,0.03195,0.06052,13.1,-22.3,4.1
57.1523,6760.5461,0.5110026510574717,-1.1447141214238132,-0.03581959941097779,-0.02004,0.03928,-0.00668,13.0,-22.2,4.1
57.1747,6760.5662,0.5578716475428733,-1.1232413553247826,-0.04065191777141841,-0.00415,0.01729,-0.03478,13.0,-22.2,4.1
57.1957,6760.5862,0.5842537195876574,-1.1123760389586654,-0.05609280080481227,0.03066,-0.00409,-0.01767,13.0,-22.2,4.0
57.2176,6760.6062,0.588458373497581,-1.1145464675509773,-0.08039781321661899,0.09603,-0.01753,0.02325,13.1,-22.2,4.0
57.2424,6760.6262,0.5778959957696084,-1.123450268073869,-0.11063048019041766,0.14245,-0.03341,0.05135,13.1,-22.2,4.2
57.2632,6760.6463,0.5657454295959646,-1.1204305033995627,-0.14237154546261443,0.09419,0.00752,0.03181,13.0,-22.3,4.3
57.277,6760.6663,0.5545481328881988,-1.1055978298357934,-0.17335636470423488,0.00928,0.02096,-0.0134,13.1,-22.2,4.3
57.2973,6760.6863,0.5437677770268949,-1.0894941477624918,-0.2039307299713098,-0.00477,0.00752,-0.02989,13.1,-22.2,4.2
57.3175,6760.7064,0.5301567496844486,-1.0758692927607987,-0.235035913761239,0.04777,-0.01264,-0.02623,13.1,-22.2,4.2
57.3323,6760.7264,0.5115616312252356,-1.0615692737781295,-0.2672999393941815,0.07587,-0.0102,-0.02439,13.1,-22.2,4.2
57.3541,6760.7464,0.49141240533061464,-1.0484250765315517,-0.3009416910015119,0.04166,0.03317,-0.01279,13.0,-22.2,4.2
57.3727,6760.7664,0.4687479548756869,-1.028826086667038,-0.33238807507605195,0.03555,0.04906,0.00493,13.0,-22.2,4.2
57.394,6760.7865,0.447218111964275,-1.0080518208077458,-0.35714603486561103,0.04471,-0.00348,0.01287,13.1,-22.1,4.4
57.4181,6760.8065,0.43167849890103005,-0.9905428627141721,-0.36930175323417913,0.01051,-0.04196,-0.0024,13.2,-22.1,4.4
57.4351,6760.8265,0.4245395889790643,-0.9834287894100923,-0.3638537101502841,-0.0182,0.01668,-0.02439,13.2,-22.1,4.6
57.4583,6760.8466,0.42566500151694076,-0.990809149711599,-0.3383580248435667,-0.03287,0.02829,-0.00912,13.2,-22.0,4.5
57.4796,6760.8666,0.43162224657011106,-1.0164443863569752,-0.2947012195379628,-0.03714,-0.00959,0.02875,13.3,-22.0,4.6
57.4922,6760.8866,0.44595523941490217,-1.0567900622108102,-0.23904071630282253,0.00012,-0.06395,0.04402,13.3,-22.0,4.6
57.5155,6760.9066,0.4611026547400036,-1.0990993460107181,-0.17945773100824525,-0.01393,-0.04929,0.01837,13.4,-22.0,4.6
57.5401,6760.9266,0.4805983481006228,-1.1352732786427788,-0.1261248916112354,-0.03592,0.00813,-0.0024,13.3,-22.0,4.5
57.553,6760.9466,0.4995056625583499,-1.1622711448533947,-0.08777563025683222,-0.01515,0.00935,0.01287,13.3,-22.1,4.4
57.5752,6760.9666,0.5107279922152015,-1.1763447546097692,-0.06893811891958279,0.01845,-0.00409,0.01287,13.3,-22.1,4.4
57.5945,6760.9866,0.5122151882844471,-1.1765801603803914,-0.06951034595920014,0.04777,-0.00714,0.00554,13.4,-22.0,4.4
57.619,6761.0066,0.5060599816645562,-1.165910216495812,-0.08532124946086483,0.05632,0.00996,0.00554,13.4,-22.0,4.4
57.6391,6761.0266,0.49879103218477844,-1.1420106356647257,-0.10899859376467091,0.04533,0.0124,0.02142,13.4,-22.0,4.3
57.667,6761.0466,0.4950211969607916,-1.1161045906860172,-0.1344179688148568,0.00928,-0.03463,0.02875,13.4,-22.0,4.3
57.6767,6761.0666,0.5035606360399246,-1.0897498880240224,-0.15625906686464752,0.03128,-0.00714,0.01226,13.4,-22.1,4.3
57.6927,6761.0866,0.5203137331411701,-1.0751274384004397,-0.17229682636679655,0.0496,0.02401,0.02692,13.4,-22.1,4.2
57.7143,6761.1066,0.5412207102191695,-1.0743595978706926,-0.18142947590456515,0.04655,0.03317,0.04158,13.3,-22.1,4.2
57.7333,6761.1266,0.5636083618898513,-1.0817500704365905,-0.18339304346248753,0.04227,-0.02975,0.03181,13.2,-22.1,4.1
57.7599,6761.1466,0.5835560514617786,-1.097440563908054,-0.17964968504239742,0.02211,-0.05113,-0.01095,13.2,-22.1,4.1
57.7809,6761.1666,0.6020577439570239,-1.113788457696777,-0.172115213525462,0.00867,-0.03891,-0.03172,13.2,-22.1,4.2
57.7929,6761.1866,0.61299383702249,-1.1285899793339804,-0.16395757435059188,0.01906,0.02951,-0.03417,13.2,-22.1,4.2
57.8166,6761.2066,0.6172730667630786,-1.1389245982049554,-0.1594977577092589,0.00134,0.00996,-0.01156,13.2,-22.1,4.3
57.834,6761.2266,0.611786613805176,-1.1405367251108682,-0.16245117583438606,0.00501,-0.01936,-0.02134,13.2,-22.1,4.4
57.8658,6761.2466,0.6044854289633311,-1.1366223276539102,-0.17623887482870515,0.05021,-0.04685,-0.04516,13.2,-22.0,4.5
57.8796,6761.2666,0.5939751847953291,-1.1119995549235657,-0.19798820396051475,0.06243,0.00324,-0.0415,13.2,-22.1,4.4
57.906,6761.2866,0.589509948141724,-1.0825860598392325,-0.22506120427594567,0.0441,0.05944,-0.02684,13.2,-22.1,4.4
57.9171,6761.3066,0.5766286386664683,-1.0494490712413629,-0.24872842106661253,-0.00721,0.02768,-0.02928,13.2,-22.1,4.4
57.9488,6761.3266,0.5625943168197289,-1.0316846229276497,-0.26336222156716005,0.00623,-0.05723,-0.036,13.1,-22.2,4.4
57.9596,6761.3466,0.5421323320145283,-1.032856105159964,-0.2635617376043502,0.03494,-0.04196,-0.02928,13.1,-22.2,4.4
57.9749,6761.3666,0.5179470663711367,-1.0559733324208915,-0.2490791313149021,0.00257,-0.0383,-0.03966,13.1,-22.1,4.4
57.9968,6761.3867,0.4937520276963605,-1.094727418533994,-0.22357255130501485,-0.02615,-0.02608,-0.05433,13.2,-22.1,4.4
58.016,6761.4067,0.46986671161025134,-1.1401281580054663,-0.19342649645927246,0.00012,-0.01447,-0.07326,13.3,-22.2,4.4
58.0324,6761.4267,0.44556304977616595,-1.1810224140193533,-0.16526601849329658,0.04166,0.03012,-0.05799,13.3,-22.1,4.5
58.0529,6761.4467,0.4246249801773539,-1.2094416726946269,-0.1442770919570613,0.04166,0.03501,-0.03295,13.3,-22.2,4.6
58.0758,6761.4668,0.404947339298771,-1.2209848915308075,-0.13233528342740364,0.0325,0.03684,0.01531,13.3,-22.2,4.5
58.1039,6761.4868,0.3880859553797195,-1.218981774539877,-0.12900412992408938,0.05143,-0.02547,0.04097,13.3,-22.1,4.5
58.1158,6761.5068,0.39053890570621763,-1.1960754399023499,-0.1308295157044146,0.07404,-0.03952,0.03975,13.3,-22.1,4.4
58.1343,6761.5269,0.4063371948286483,-1.1718954224244926,-0.13628373806060878,0.05082,0.01485,0.02203,13.3,-22.1,4.5
58.1525,6761.5469,0.43317214184171904,-1.148605377587315,-0.14279763730114503,0.03555,0.06127,0.00371,13.3,-22.1,4.4
58.1781,6761.5669,0.46239282755175937,-1.1332853474545108,-0.15008696276050948,0.01967,0.08326,0.0147,13.3,-22.1,4.5
58.1947,6761.5869,0.48130008877686786,-1.1233040754985433,-0.15861804478277364,0.03677,0.0124,0.02203,13.3,-22.1,4.5
58.2253,6761.607,0.48689820158423947,-1.1250427193348864,-0.17177368254885117,0.05693,-0.03891,0.0312,13.3,-22.1,4.6
58.2377,6761.627,0.4974791592511154,-1.1143796973739615,-0.19027746359085107,0.0777,-0.05418,0.03058,13.4,-22.1,4.6
58.2718,6761.647,0.5075070137674293,-1.113615045042626,-0.2167552970659763,0.07648,0.04478,0.03547,13.3,-22.2,4.7
58.281,6761.6671,0.5233966999108611,-1.0859058941354058,-0.2438053025387017,0.08259,0.06188,0.04097,13.3,-22.2,4.6
58.2999,6761.6871,0.5390827616613691,-1.064724977019321,-0.2678869249084972,0.07709,0.04417,0.0373,13.2,-22.2,4.6
58.317,6761.7071,0.5511316207117001,-1.0485061491979117,-0.2801223903564125,0.06304,-0.01447,0.04158,13.1,-22.2,4.6
58.3327,6761.7271,0.5593480123061351,-1.0464489895166453,-0.27516531822813306,0.03189,-0.04563,0.03242,13.1,-22.3,4.6
58.3618,6761.7472,0.5578530290101967,-1.0650386476081761,-0.2524001238565958,-0.0237,-0.00837,0.03608,13.2,-22.2,4.5
58.3853,6761.7672,0.554056922994122,-1.1056978887629567,-0.2181603580954654,-0.01454,0.00996,0.01715,13.1,-22.3,4.5
58.3927,6761.7872,0.5452679146665985,-1.1561944825825654,-0.18193664935156306,0.03677,0.01424,4e-05,13.1,-22.3,4.6
58.4363,6761.8073,0.5413751703245546,-1.2117739809547499,-0.1563373685827134,0.05754,-0.02425,-0.01584,13.1,-22.3,4.7
58.4378,6761.8273,0.519256496815255,-1.2370696192775896,-0.14531356148690122,0.01539,0.05516,-0.02867,13.1,-22.2,4.7
58.4521,6761.8473,0.5053689440463379,-1.2385228856217285,-0.15449552130863786,-0.01882,0.11869,-0.0079,13.1,-22.2,4.9
58.4753,6761.8673,0.4959082501856439,-1.2219954276620335,-0.18070171541714153,0.03861,0.03989,0.03364,13.1,-22.2,4.9
58.4952,6761.8874,0.49319347419647275,-1.1934167688960766,-0.21551571453240115,0.08686,-0.04013,0.05746,13.1,-22.2,5.0
58.5149,6761.9074,0.504746138112811,-1.1600841338532553,-0.2487336768221038,0.07526,-0.02364,0.07273,13.1,-22.2,5.0
58.5436,6761.9274,0.5297476165236801,-1.1312518558689326,-0.27156661821847905,0.02883,0.01485,0.05441,13.0,-22.2,5.2
58.5587,6761.9474,0.5681276198049211,-1.1085221377757024,-0.2787685516687102,-0.0066,0.04967,0.02325,13.0,-22.2,5.2
58.5765,6761.9674,0.603140479930007,-1.1038769227660012,-0.27052212450220736,-0.0011,0.02401,0.00371,13.0,-22.2,5.2
58.5959,6761.9874,0.6253280764347454,-1.1187112203488925,-0.25021335013196655,0.02456,-0.01447,-0.01645,13.1,-22.2,5.2
58.617,6762.0074,0.6322069246425676,-1.1465688126452371,-0.22288699756774655,0.03066,-0.01875,-0.0189,13.1,-22.2,5.2
58.635,6762.0274,0.6256373253723463,-1.1760456759301152,-0.19345603976502268,0.02211,0.02279,-0.02561,13.1,-22.1,5.3
58.6607,6762.0474,0.6122145862909603,-1.2021178102135535,-0.16683847845113497,0.01234,0.04356,-0.01584,13.0,-22.2,5.3
58.6884,6762.0674,0.5935500429132591,-1.2226862001060745,-0.14655175168720191,0.00867,-0.00042,0.00126,13.0,-22.2,5.4
58.6971,6762.0874,0.5773478262340997,-1.2299549508402448,-0.13440580824371473,0.04716,-0.03097,0.00798,13.1,-22.2,5.4
58.7195,6762.1074,0.5669677371514312,-1.2334080295285292,-0.13294589014389935,0.06793,-0.01447,0.01104,13.1,-22.2,5.3
58.7353,6762.1274,0.5680217257810112,-1.2216697868484827,-0.14113841151237771,0.04899,-0.00959,0.00982,13.0,-22.2,5.4
58.7537,6762.1473,0.5762738107649665,-1.2008984861922627,-0.1585191476016341,0.03128,0.04234,0.01348,13.0,-22.2,5.5
58.7734,6762.1673,0.5848179570545741,-1.1755788248756167,-0.1829687645258602,0.04166,0.01302,0.01776,13.0,-22.2,5.4
58.7952,6762.1873,0.5866414585208987,-1.1515080849028942,-0.21112858181222904,0.07648,0.00446,0.02325,13.0,-22.2,5.4
58.8136,6762.2073,0.579792587727066,-1.1291302060663204,-0.23827788374263825,0.06121,-0.02486,0.01959,13.0,-22.2,5.5
58.8327,6762.2273,0.5651257801611478,-1.1140289250831796,-0.26038976957613613,0.0215,-0.00348,0.00982,13.1,-22.2,5.5
58.854,6762.2473,0.546499099533293,-1.1101015704831867,-0.2745162638988141,-0.01515,-0.00226,0.00615,13.1,-22.2,5.6
58.8753,6762.2673,0.5283304499505215,-1.1184634319817133,-0.27954483582841405,0.02089,-0.0047,0.00187,13.1,-22.2,5.6
58.9003,6762.2873,0.5141977224654638,-1.1357425005307469,-0.27637099593585823,0.03311,0.04906,-0.01645,13.0,-22.2,5.7
58.919,6762.3073,0.5044906328021761,-1.1550536811014784,-0.26761288192891364,-0.02187,0.02523,-0.00423,13.0,-22.2,5.7
58.9386,6762.3273,0.5033178897046546,-1.1687929129021224,-0.2573712998365245,-0.02798,-0.02669,-0.01034,13.0,-22.2,5.7
58.9546,6762.3473,0.5121122260025756,-1.169752869447406,-0.24956531284150607,0.01173,-0.01875,-0.01462,13.0,-22.1,5.8
58.9753,6762.3673,0.5292613679265805,-1.1524080560945684,-0.24639958865113876,0.03066,0.00996,-0.01156,13.0,-22.1,5.9
58.9922,6762.3873,0.5478550856590192,-1.1167226923743547,-0.24731316080381838,-0.01148,0.05578,0.00798,13.0,-22.1,5.8
59.0132,6762.4073,0.5604769935484966,-1.0704786287992896,-0.24894256072227705,-0.04997,0.02768,0.02692,12.9,-22.2,6.0
59.0337,6762.4273,0.5596809751853713,-1.0283807210145985,-0.2456028244220807,-0.04508,0.0063,-0.00851,12.9,-22.2,5.8
59.062,6762.4473,0.5429528611506409,-0.9982869147313095,-0.22983692661559374,-0.01515,0.01485,-0.03172,12.9,-22.2,5.9
59.0759,6762.4673,0.50922185078161,-0.9979065812782384,-0.19658965262898676,-0.03042,-0.00348,-0.02073,12.9,-22.2,5.9
59.1046,6762.4873,0.46802917700824376,-1.0103132443708194,-0.1416756894368838,-0.14404,-0.05601,-0.0024,12.9,-22.2,6.0
59.1249,6762.5073,0.4379693157884721,-1.0589490628999572,-0.07116073680501778,-0.1306,-0.04563,-0.00118,12.8,-22.3,5.8
59.1336,6762.5273,0.4394201932764551,-1.1287588045798722,0.006894200156461139,-0.03592,-0.01692,0.02509,12.8,-22.3,5.8
59.1535,6762.5472,0.4692888267764927,-1.1850346503255926,0.08324245863326496,0.03128,-0.00348,0.10878,12.9,-22.3,5.8
59.1721,6762.5672,0.5255459781992131,-1.207769255019571,0.14493051580111427,-0.03409,-0.05296,0.19979,12.9,-22.3,5.8
59.1948,6762.5872,0.5710253132105935,-1.194664729132337,0.17924338530895056,-0.10434,-0.12809,0.30731,12.9,-22.3,5.8
59.2158,6762.6072,0.5992586357972621,-1.1723883663026646,0.1720372119363951,0.00867,-0.33457,0.31952,12.9,-22.4,5.7
59.236,6762.6273,0.6075132075548583,-1.1516242581613243,0.11761841550300822,0.37153,-0.88923,0.18574,12.9,-22.5,5.6
59.2612,6762.6473,0.5853292748450981,-1.1370719656419717,0.02079024294237186,0.42956,-0.8593,0.02814,12.8,-22.5,5.7
59.2833,6762.6673,0.6010884378511985,-1.0686175461886807,-0.1012822034164742,0.16444,-0.46285,-0.07082,12.8,-22.6,5.6
59.3009,6762.6873,0.6373623818742258,-0.9664097767419407,-0.22905131568504977,-0.15809,-0.10183,-0.14046,12.8,-22.6,5.5
59.3279,6762.7074,0.686954657009527,-0.8580066893589704,-0.34233874193643565,-0.26805,0.13336,-0.25713,12.8,-22.6,5.4
59.3454,6762.7274,0.6744849180768623,-0.8337003859237293,-0.424002037631384,-0.21612,0.04478,-0.30234,12.7,-22.6,5.5
59.3562,6762.7474,0.6095925475498121,-0.8957380522338863,-0.46327790494408383,-0.17275,-0.22156,-0.26324,12.8,-22.7,5.3
59.3821,6762.7675,0.5153979673610489,-1.0032554930933981,-0.45882390287842334,-0.10067,-0.33823,-0.14351,12.8,-22.6,5.2
59.3964,6762.7875,0.43049219857039767,-1.1442234451911202,-0.42223709119569364,-0.08601,-0.28203,-0.09281,12.8,-22.6,5.1
59.4179,6762.8075,0.37756469869625586,-1.2729338056174304,-0.365396619900368,-0.13854,0.00996,-0.11602,12.9,-22.6,5.1
59.4418,6762.8275,0.3646334669760408,-1.3704356707729641,-0.303832513252539,-0.1697,0.1639,-0.13496,12.9,-22.6,4.9
59.4554,6762.8476,0.35137884837671823,-1.4542750522537407,-0.25489160034770286,-0.15565,0.11564,-0.09403,12.8,-22.6,4.7
59.4756,6762.8676,0.34641953568893696,-1.5015800361394496,-0.22647374559675804,-0.10006,-0.10366,-0.06532,12.8,-22.6,4.5
59.4935,6762.8876,0.3467768112512163,-1.5225947689973889,-0.22253298337644445,0.04838,-0.21667,-0.0696,12.8,-22.6,4.4
59.5239,6762.9077,0.3574719584559977,-1.5278416851276837,-0.238731941212583,0.17972,-0.08106,-0.025,12.8,-22.5,4.3
59.536,6762.9277,0.40026321103089196,-1.4780231654103828,-0.2574327574160957,0.14062,0.09365,0.06601,12.9,-22.4,4.3
59.5593,6762.9477,0.4562638993385385,-1.4137228912756292,-0.2712152922732045,-0.04875,0.06677,0.0709,12.9,-22.4,4.3
59.5809,6762.9677,0.512520992367135,-1.3523715401098169,-0.27249605102345775,-0.05608,-0.00409,-0.03111,13.0,-22.4,4.3
59.6058,6762.9878,0.560321262305453,-1.3180400114890103,-0.2608148120778484,0.02028,0.01607,-0.0531,13.0,-22.4,4.3
59.6383,6763.0078,0.5984784092741625,-1.3190495044910537,-0.24013468971450003,0.04594,0.03012,-0.00607,13.0,-22.4,4.3
59.6444,6763.0278,0.613971985921445,-1.3338541357474734,-0.21414653532823102,0.02517,0.11869,0.05624,13.1,-22.3,4.3
59.654,6763.0479,0.6194453321892808,-1.3552590819504893,-0.191840319636297,0.01723,0.18711,0.06724,13.1,-22.3,4.3
59.6773,6763.0679,0.6185823919193189,-1.3759910234261874,-0.180600204813393,0.05815,0.1303,0.05135,13.1,-22.3,4.4
59.6962,6763.0879,0.6110408946342797,-1.3826716096397829,-0.18343359054572694,0.07343,0.0063,0.04158,13.1,-22.3,4.5
59.7187,6763.1079,0.6055456930013896,-1.3748984027620674,-0.2012859279455217,0.07281,0.00691,0.02692,13.3,-22.4,4.6
59.7369,6763.128,0.6076756443241836,-1.3469454479115603,-0.22956312784529764,0.0606,0.08449,0.02936,13.3,-22.4,4.6
59.7573,6763.148,0.6180435606519045,-1.3075099215373405,-0.261931603517052,0.06976,0.14802,0.0819,13.3,-22.4,4.6
59.7731,6763.168,0.6365198315907243,-1.2600737278343033,-0.289802158819672,0.08503,0.10098,0.13138,13.3,-22.4,4.7
59.797,6763.1881,0.6604030442665746,-1.219837288457874,-0.3069739850836317,0.0661,0.03134,0.11672,13.4,-22.4,4.7
59.8226,6763.2081,0.693585560594892,-1.1880424248376864,-0.30912918118752586,0.04288,-0.00042,0.04219,13.4,-22.4,4.9
59.8336,6763.2281,0.7362459305862448,-1.1633445231879593,-0.2961956948577811,0.02395,0.04234,0.0202,13.3,-22.4,4.8
59.8531,6763.2481,0.7744893106896131,-1.1533392642646267,-0.2728706979626754,0.027,0.04356,0.04769,13.3,-22.5,4.8
59.8734,6763.2681,0.8032379874696063,-1.1535314120078155,-0.2463357743287915,0.027,0.03134,0.06968,13.3,-22.5,4.8
59.8949,6763.2881,0.8201554557556988,-1.1590312346456866,-0.2249412595869007,0.027,0.00507,0.03486,13.3,-22.5,4.7
59.9134,6763.3081,0.8229157937090957,-1.162786740613398,-0.2149207969046234,0.03738,0.04295,-0.01951,13.3,-22.5,4.8
59.9387,6763.3281,0.8098528787545687,-1.1636397376670589,-0.21901390858985614,0.03616,0.08143,-0.01584,13.3,-22.5,4.8
59.9544,6763.348,0.7742225254723487,-1.1565277014667774,-0.23369129453980442,0.02211,0.04478,0.01165,13.3,-22.5,4.8
59.9732,6763.368,0.725646284702116,-1.148364295361079,-0.25343287265638104,0.01539,-0.00287,0.00248,13.3,-22.5,4.6
59.9948,6763.388,0.6754825535240718,-1.1448977445169073,-0.2698444992279132,0.01478,0.02584,-0.02439,13.3,-22.5,4.6
60.0225,6763.408,0.6346389654634137,-1.152318375872471,-0.274713391299672,-0.0182,0.04173,-0.04028,13.1,-22.4,4.5
60.0328,6763.428,0.5995914569688199,-1.1747200483898408,-0.262057595014344,-0.02309,0.0063,-0.00729,13.1,-22.5,4.6
60.0547,6763.448,0.5762928839795458,-1.2072815034679345,-0.23128121629171794,0.02761,0.00996,0.02814,13.1,-22.5,4.6
60.0727,6763.468,0.5711941436551431,-1.2445868538616727,-0.18812010477192942,-0.05486,-0.11221,0.06907,13.1,-22.6,4.6
60.0966,6763.488,0.5836682788805716,-1.2744080957142747,-0.1420598447536605,-0.08235,-0.03646,0.05135,13.1,-22.6,4.6
60.1299,6763.508,0.6175026594461795,-1.287337016769939,-0.10509332960558204,-0.0402,0.00263,0.01837,13.1,-22.6,4.5
60.1359,6763.528,0.6575619703566614,-1.296203450544441,-0.08869300762422405,0.00684,0.07471,4e-05,13.1,-22.6,4.6
60.1576,6763.548,0.6943738614330693,-1.284321306604972,-0.09461680592438526,-0.05669,0.09487,-0.00362,13.1,-22.6,4.6
60.1776,6763.568,0.7106226018349759,-1.2670783679631001,-0.12063579492392762,-0.05791,0.07166,-0.02073,13.1,-22.6,4.5
60.1934,6763.588,0.7027422900101252,-1.2566123846338408,-0.15881635482597467,-0.00538,0.06983,-0.04761,13.2,-22.6,4.5
60.2197,6763.608,0.691465604920814,-1.2552921228220426,-0.1992908948295824,-0.02492,0.11503,-0.08609,13.2,-22.7,4.4
60.2383,6763.628,0.6535748817684447,-1.2812148971016555,-0.23309972044178195,-0.11961,0.12419,-0.12641,13.1,-22.7,4.2
60.2531,6763.648,0.5976552973245982,-1.3331120994267565,-0.25684566709743706,-0.10434,0.0515,-0.14718,13.2,-22.7,4.3
60.2752,6763.668,0.54349015081624,-1.394335144855563,-0.27237370964892094,-0.02187,-0.07923,-0.07754,13.3,-22.7,4.3
60.2973,6763.688,0.5057920647017697,-1.4464036579363324,-0.2850673820492169,0.08381,-0.10122,-0.00057,13.3,-22.8,4.2
60.3169,6763.708,0.5041869362290974,-1.4585526525307364,-0.2984566315727122,0.09481,0.03989,0.04525,13.3,-22.8,4.2
60.3362,6763.728,0.5376630818375255,-1.4144370334821013,-0.31309234305485667,0.02639,0.192,0.04463,13.3,-22.7,4.2
60.3557,6763.7479,0.5887572539278306,-1.3158090656588042,-0.3261182310507049,0.00928,0.06127,0.05991,13.3,-22.7,4.2
60.3742,6763.7679,0.6405376195220841,-1.179351089006696,-0.33277976990914837,0.06976,-0.15009,0.0312,13.3,-22.7,4.2
60.4073,6763.7879,0.6826564969066117,-1.027206364660654,-0.3283886610143316,-0.00599,-0.10549,-0.06104,13.3,-22.7,4.2
60.4193,6763.8079,0.7154630995089367,-0.9046715772126461,-0.3131490016646996,-0.1471,-0.00287,-0.12763,13.3,-22.7,4.2
60.436,6763.828,0.7365195880491331,-0.8281390873062661,-0.286922085106216,-0.15626,0.01729,-0.12457,13.3,-22.7,4.2
60.4545,6763.848,0.7393046243205371,-0.8121395240787944,-0.25266315538012485,-0.13305,0.04783,-0.11602,13.3,-22.7,4.2
60.4757,6763.868,0.719998687618994,-0.8475003853037818,-0.21389128644999822,-0.24545,0.05883,-0.09709,13.3,-22.7,4.3
60.4977,6763.8881,0.6823480986823193,-0.9273797116783956,-0.17560773455218737,-0.49224,-0.01203,0.01348,13.3,-22.7,4.3
60.5195,6763.9081,0.6440925950358259,-1.0554067409324706,-0.14426038267455077,-0.53255,-0.39565,-0.12763,13.3,-22.6,4.3
60.5671,6763.9281,0.6166137141566096,-1.1520869464763197,-0.1148043300827144,-0.33219,-0.43964,-0.34815,13.3,-22.6,4.4
60.5692,6763.9481,0.5964764814658363,-1.3753433508736428,-0.10716954911834087,-0.0683,-0.32968,-0.39458,13.2,-22.5,4.3
60.5733,6763.9682,0.5812711134428968,-1.5618967270465032,-0.09948136856673884,0.04533,-0.19407,-0.28035,13.2,-22.5,4.3
60.5955,6763.9882,0.5785858778573593,-1.715308101440625,-0.08605097690987229,0.07098,-0.07556,-0.11602,13.2,-22.5,4.3
60.6162,6764.0082,0.5799555138492767,-1.8075528112253256,-0.05677754105840016,0.03922,0.02218,-0.07143,13.2,-22.5,4.2
60.6359,6764.0283,0.5860071109913575,-1.8473594341682862,-0.01573835824245151,0.04899,0.0967,-0.09892,13.2,-22.4,4.2
60.6565,6764.0483,0.5882571180925411,-1.8517040832490832,0.021749601121911155,0.10519,0.10403,-0.17406,13.2,-22.3,4.2
60.6744,6764.0683,0.5691601647482116,-1.823352195625104,0.037186871484633954,0.21331,0.0289,-0.18016,13.3,-22.3,4.1
60.6979,6764.0883,0.5371601021538689,-1.7813814144710316,0.009689836672478691,0.37519,-0.20018,-0.13557,13.3,-22.3,4.0
60.7229,6764.1084,0.5144473536502908,-1.7021472828889452,-0.06294227863909185,0.55723,-0.20629,-0.05494,13.3,-22.3,4.0
60.7487,6764.1284,0.5258480363913973,-1.5665671930272398,-0.16807306870311933,0.57983,0.07716,0.00371,13.4,-22.2,3.8
60.7574,6764.1484,0.5662054398878454,-1.3066011178429162,-0.2731160769821859,0.33182,0.14618,-0.03111,13.4,-22.2,3.8
60.7761,6764.1685,0.6207726773566598,-1.0742076442964925,-0.37470565917053733,0.24447,-0.18857,-0.10319,13.5,-22.2,3.8
60.7971,6764.1885,0.6752052683545522,-0.8778277741576305,-0.44952726916036845,0.18338,-0.47629,-0.1258,13.6,-22.1,3.8
60.8233,6764.2085,0.7274121011404803,-0.7510317477243909,-0.4888780298404498,-0.02676,-0.28387,-0.04761,13.7,-22.0,3.8
60.8367,6764.2285,0.7865718611993816,-0.7119590113708422,-0.4944643025968727,-0.10128,0.00568,0.02814,13.7,-22.0,3.9
60.8552,6764.2486,0.8324626192326552,-0.7498898341277086,-0.4719915790485487,-0.00415,0.04417,-0.21437,13.8,-22.0,3.9
60.8801,6764.2686,0.851357345280117,-0.8369553398000611,-0.43035344762904515,-0.02615,-0.16291,-0.16428,13.9,-22.0,4.0
60.9162,6764.2886,0.8301765676404335,-0.9370415618241429,-0.377420895014005,-0.15504,-0.05357,-0.04577,14.0,-22.0,4.1
60.938,6764.3087,0.7742450724474906,-1.0475134726315387,-0.32328131966125007,-0.10617,-0.0102,-0.00851,14.1,-22.0,4.1
60.9388,6764.3287,0.7059910277384573,-1.1665896869788668,-0.2765287733484314,-0.04264,-0.00653,-0.03722,14.1,-22.0,4.0
60.9558,6764.3487,0.6523746815827087,-1.2549210712609873,-0.23762803853035486,-0.13977,0.07532,-0.07265,14.1,-21.9,4.1
60.9768,6764.3687,0.6146437875955517,-1.323900894377124,-0.20852661212554935,-0.06585,0.14741,-0.03905,14.2,-21.9,4.2
60.9991,6764.3888,0.5844240278148493,-1.3794459480135874,-0.18950596300461697,-0.02492,0.03989,-0.00607,14.2,-21.8,4.2
61.0192,6764.4088,0.5559664833068656,-1.4248125206843263,-0.18095133418653475,-0.05241,0.03562,0.00554,14.3,-21.8,4.3
61.0333,6764.4288,0.5318450676483902,-1.4508326530759628,-0.18214226037885162,0.11985,-0.00348,-0.00912,14.3,-21.8,4.3
61.0547,6764.4488,0.5109338889076617,-1.4606202960366035,-0.19352164397795057,0.18094,0.01363,0.00737,14.3,-21.7,4.3
61.0751,6764.4688,0.49409669831358755,-1.442321653621033,-0.21199551593226218,0.06793,0.02157,0.01837,14.4,-21.7,4.3
61.0931,6764.4888,0.47829846567100215,-1.3989819427351693,-0.2343541924300716,0.08931,0.04173,-0.00118,14.4,-21.7,4.3
61.1154,6764.5088,0.4622385319377375,-1.3489500671709613,-0.2574148036465278,0.15223,0.02096,-0.00607,14.4,-21.7,4.3
61.1352,6764.5288,0.44657178112853546,-1.2943862390178702,-0.27427930698665826,0.14795,-0.03646,0.00187,14.3,-21.7,4.3
61.1595,6764.5488,0.4334302826386751,-1.2501994069234397,-0.28033993861069284,0.05938,-0.15253,0.05991,14.3,-21.7,4.2
61.1744,6764.5688,0.45499858665605414,-1.2165442654590155,-0.2729008080524462,0.00134,-0.17452,0.12527,14.3,-21.6,4.2
61.1963,6764.5888,0.4933075021913084,-1.203704254412572,-0.25258722154533153,0.038,-0.11588,0.13504,14.2,-21.6,4.3
61.2234,6764.6089,0.5523832349381748,-1.2028312492050823,-0.22351905706277364,0.07526,0.03562,0.13321,14.2,-21.6,4.4
61.2487,6764.6289,0.6293610532669542,-1.2055930620182749,-0.19366187772043375,-0.03714,-0.05968,0.08801,14.1,-21.7,4.3
61.2622,6764.649,0.7000084030512267,-1.2158614929412872,-0.1724971875875223,-0.09578,0.04906,0.03608,14.2,-21.7,4.3
61.2766,6764.6691,0.7375241662170811,-1.2309157460675204,-0.1657457112741305,0.03128,0.03501,-0.03661,14.2,-21.7,4.3
61.2993,6764.6891,0.7348800277293973,-1.2564525108242077,-0.1761789480754974,0.15528,0.03806,-0.07387,14.1,-21.8,4.2
61.3175,6764.7092,0.6857605062053029,-1.273896807382437,-0.19771644728383642,0.03677,0.01057,-0.04394,14.1,-21.8,4.1
61.3356,6764.7292,0.6085439508011662,-1.2764660037743165,-0.22415349359465075,-0.03042,0.02523,0.00554,14.1,-21.8,4.1
61.3619,6764.7493,0.528879846072156,-1.258761756189615,-0.2500493338691552,0.01112,0.07349,0.04647,14.1,-21.8,4.0
61.3782,6764.7694,0.46734762469036917,-1.2432895612647272,-0.276184303903829,-0.0121,0.12053,0.10878,14.1,-21.9,4.0
61.3961,6764.7894,0.43716007302928883,-1.2337150302937063,-0.30353351894164327,-0.09517,0.1584,0.07945,14.1,-21.9,4.0
61.422,6764.8095,0.43878006578711776,-1.2418228996528429,-0.3342745852667228,0.32021,0.08204,0.01287,14.2,-21.9,4.1
61.4385,6764.8296,0.47402139230893553,-1.2110868060666942,-0.35940810629084297,0.32021,-0.14764,0.00432,14.2,-21.9,4.2
61.4554,6764.8496,0.5312361301970013,-1.1509430950125266,-0.37465227098924636,0.05938,0.08021,0.08556,14.2,-21.9,4.3
61.4752,6764.8697,0.5917673821552418,-1.0755109651655976,-0.374400336546012,-0.1306,0.17917,0.0538,14.1,-22.0,4.3
61.5005,6764.8897,0.6310093136523965,-1.0128927474013814,-0.3558461783840432,-0.20818,0.0796,0.03975,14.1,-22.0,4.4
61.5203,6764.9098,0.6323947267979659,-0.9975663868825487,-0.32186801667092446,-0.0066,-0.22095,-0.12335,14.1,-22.0,4.4
61.5376,6764.9299,0.5978384682535652,-1.0173019576764661,-0.2782971416480393,-0.13305,-0.21301,-0.07937,14.0,-22.0,4.5
61.5627,6764.9499,0.5450585400160534,-1.027887706597265,-0.23411963452422668,-0.34807,0.03867,-0.05677,14.0,-22.0,4.6
61.576,6764.97,0.4628810311652928,-1.0729255278948318,-0.2075292144848362,-0.35235,0.25492,-0.047,13.9,-22.0,4.7
61.595,6764.9901,0.37304903882576235,-1.1102009322146544,-0.2054432965758508,-0.12083,0.21155,-0.01523,13.9,-22.0,4.8
61.6201,6765.0101,0.2719941220154691,-1.151130463237788,-0.2302019796999346,0.10091,0.04783,0.00798,13.9,-22.0,4.9
61.6356,6765.0302,0.1728433032436936,-1.1672018820435446,-0.26927763227624446,0.12535,-0.03158,0.06785,14.0,-22.0,5.1
61.6545,6765.0502,0.09699178466694479,-1.1558664318054008,-0.30571410413783084,-0.02065,-0.00165,0.09411,13.9,-22.0,5.1
61.6765,6765.0703,0.05837255058627008,-1.122873772791837,-0.32362613305880217,-0.17886,0.01851,0.08617,13.8,-22.0,5.2
61.7021,6765.0904,0.057280302003284385,-1.0929487648441238,-0.31723610700445803,-0.18131,-0.00103,0.06724,13.8,-22.0,5.2
61.7185,6765.1104,0.09405362535107441,-1.1082683836109641,-0.29428832191233134,-0.108,-0.0719,0.06418,13.7,-22.0,5.2
61.7367,6765.1305,0.15945278560135462,-1.1449834012581883,-0.26509692485408287,-0.01271,-0.078,0.07884,13.6,-22.0,5.3
61.7553,6765.1505,0.2569518438849601,-1.1818471801703927,-0.2449138737165768,0.03738,-0.09938,0.03303,13.6,-22.0,5.3
61.7781,6765.1705,0.3850575148801984,-1.1994038810160568,-0.24645458583959012,0.0606,-0.07984,0.03303,13.7,-22.0,5.3
61.7969,6765.1906,0.5400043158626566,-1.1886929703848237,-0.2757821362438371,0.00745,-0.07495,-0.00668,13.6,-22.0,5.2
61.8193,6765.2106,0.699733938793963,-1.1631053157228963,-0.3313931588741852,0.05266,-0.10183,-0.06532,13.7,-22.0,5.3
61.8364,6765.2306,0.8496549927461637,-1.131242803167326,-0.4042291632524897,0.05693,-0.22644,-0.11663,13.7,-22.0,5.2
61.8676,6765.2506,0.9721604611008873,-1.1005155256045096,-0.48236092560618005,-0.06341,-0.359,-0.17711,13.7,-22.1,5.2
61.8782,6765.2706,1.069008663866256,-1.0729281234782428,-0.5570898643242597,-0.09701,-0.31807,-0.24369,13.7,-22.1,5.1
61.8944,6765.2906,1.1319963932985646,-1.0314270716442384,-0.620228088899033,-0.14649,-0.14825,-0.2779,13.7,-22.1,5.2
61.9197,6765.3106,1.1626094653252235,-0.9656074038091076,-0.6672135860845625,-0.12449,-0.22095,-0.31272,13.7,-22.0,5.3
61.9361,6765.3306,1.1393063580272018,-0.8797734046838691,-0.6897109726182507,0.00073,-0.27226,-0.2944,13.7,-22.0,5.3
61.9603,6765.3506,1.08929002026071,-0.7760419234837742,-0.67955418232048,0.05876,-0.3193,-0.27729,13.8,-22.0,5.2
61.9785,6765.3706,1.033426300419619,-0.6440571214139844,-0.6223384503373701,0.08992,-0.26004,-0.24247,13.8,-22.0,5.2
61.9954,6765.3906,0.9978033820819452,-0.5049056770418197,-0.5091387050967366,-0.07135,-0.19834,-0.25408,13.8,-21.9,5.1
62.0184,6765.4105,1.003726786040253,-0.36668358378463495,-0.34035033066898635,-0.33647,-0.05601,-0.19482,14.0,-21.9,5.1
62.0372,6765.4305,1.0309040075028104,-0.27850020202017234,-0.1301722569471817,-0.50445,-0.07067,-0.12641,14.0,-21.8,4.9
62.0624,6765.4505,1.0714657407907469,-0.21303396182440495,0.09196414865198577,-0.56004,-0.24416,-0.09098,14.1,-21.8,4.6
62.0778,6765.4705,1.1147615837250529,-0.25006897145799883,0.28259617187990393,-0.41954,-0.38771,-0.04455,14.2,-21.7,4.4
62.0994,6765.4905,1.1450104839060458,-0.2961638572499559,0.4022763009428587,-0.16848,-0.41703,-0.01401,14.2,-21.7,4.1
62.1209,6765.5105,1.1728441623771622,-0.3305503156023517,0.42157931301025364,0.02211,-0.32418,-0.01523,14.3,-21.6,3.8
62.1401,6765.5305,1.194551991647273,-0.30829544201704273,0.3400747806938611,0.11069,-0.17513,-0.0415,14.3,-21.6,3.5
62.158,6765.5505,1.188858949585255,-0.22062182699277272,0.186583866675182,0.06671,-0.11649,-0.08181,14.5,-21.5,3.4
62.1761,6765.5705,1.1390808351454986,-0.09953089522193062,0.007032061606127016,-0.04081,-0.19834,-0.10197,14.5,-21.4,3.2
62.1953,6765.5905,1.0453082240583242,0.0055934897695116385,-0.1509138770038181,-0.06646,-0.25821,-0.11724,14.5,-21.4,2.8
62.2203,6765.6105,0.9259997012976708,0.054966564754529185,-0.2513457848835987,-0.0292,-0.19407,-0.12091,14.6,-21.3,2.5
62.2398,6765.6305,0.8035278297220185,0.023885841439086265,-0.27737954405720444,-0.09456,-0.10794,-0.14046,14.6,-21.3,2.3
62.2555,6765.6505,0.693887491400423,-0.07520237888986095,-0.23310019271869997,-0.08662,0.03317,-0.12457,14.7,-21.3,2.1
62.2771,6765.6705,0.6181078344333086,-0.20790095574417006,-0.14033384201015942,0.00623,0.08571,-0.06654,14.7,-21.2,1.8
62.2981,6765.6905,0.5744377639494818,-0.3368028749607861,-0.027841349189543507,0.05143,0.03501,0.0031,14.7,-21.2,1.6
62.3271,6765.7105,0.5659531560059696,-0.4389262323646172,0.07647354315107613,0.06487,0.02462,0.06846,14.6,-21.2,1.2
62.341,6765.7305,0.6082089871413431,-0.4714871933940619,0.15561361557773878,0.18155,0.06005,0.08251,14.6,-21.2,1.0
62.3569,6765.7505,0.6834638539944956,-0.45295727345400744,0.2067000760987181,0.32449,0.20238,0.07823,14.6,-21.2,1.0
62.3834,6765.7705,0.7722922442990411,-0.42769909289550534,0.23970962963676534,0.36786,0.29279,0.08556,14.6,-21.2,0.9
62.3997,6765.7905,0.8433295576360882,-0.3575501715792613,0.2775194017049465,0.29089,0.24087,0.0819,14.6,-21.2,0.8
62.4199,6765.8104,0.8817458667046947,-0.3314474520630503,0.3371661287030481,0.20965,0.13763,0.05868,14.6,-21.2,0.7
62.4351,6765.8304,0.8879182552532542,-0.37401397062163594,0.4310715513813381,0.2011,0.03928,0.02814,14.6,-21.2,0.6
62.4625,6765.8504,0.8748738295115231,-0.5429387102482208,0.558320498001283,0.18338,0.13336,0.03547,14.5,-21.3,0.3
62.4755,6765.8704,0.853667100574718,-0.7906659393503934,0.709521153980667,0.12107,0.26286,0.06174,14.5,-21.3,0.1
62.5012,6765.8904,0.8514752899364143,-1.1170300891554525,0.859515120114553,0.03616,0.28913,0.08129,14.6,-21.3,0.0
62.5221,6765.9104,0.8550471962418512,-1.4774412104207537,0.9786305211022892,-0.03958,0.22621,0.09473,14.7,-21.3,-0.2
62.537,6765.9304,0.8638303581995506,-1.8324084167409918,1.0304287660195453,0.07098,0.17489,0.10145,14.7,-21.5,-0.4
62.5577,6765.9504,0.8774849638884831,-2.1482977952405093,0.980505200864151,0.25852,0.17489,0.16314,14.7,-21.5,-0.5
62.5786,6765.9704,0.8928571310287878,-2.3727183666950227,0.813288085818554,0.3642,0.20666,0.25844,14.7,-21.5,-0.7
62.5958,6765.9904,0.908027732105704,-2.456803922519666,0.5388840112755737,0.3813,0.23415,0.29692,14.7,-21.6,-0.8
62.6231,6766.0104,0.8959208226818103,-2.451563064430718,0.17446047807380793,0.39169,0.24575,0.3012,14.7,-21.6,-0.8
62.6408,6766.0304,0.8627064292286138,-2.3100988052541136,-0.21871268353035944,0.47293,0.26591,0.27493,14.7,-21.7,-1.0
62.6574,6766.0504,0.7939276451706286,-2.1131265174101648,-0.5957296741534002,0.51936,0.2818,0.25355,14.7,-21.8,-1.0
62.6876,6766.0704,0.6902649566842054,-1.9666117697939332,-0.9193004816023205,0.4485,0.28363,0.2676,14.6,-21.8,-1.1
62.7067,6766.0904,0.5769846555478447,-1.808795740664847,-1.1321498741182463,0.37214,0.30073,0.22973,14.6,-21.9,-1.1
62.7307,6766.1104,0.4658516861698942,-1.7171058288341188,-1.2328471806483883,0.23469,0.32822,0.2566,14.6,-22.0,-1.2
62.7361,6766.1304,0.3796318268107638,-1.6799747041647453,-1.2281121028701332,0.05693,0.30867,0.2902,14.5,-22.1,-1.1
62.7583,6766.1504,0.30817434732164334,-1.7053404465706272,-1.1486885858439422,-0.05547,0.13641,0.24072,14.4,-22.1,-1.0
62.7756,6766.1704,0.27271236070521465,-1.7721791528646083,-1.03310380768494,-0.06341,-0.05235,0.12099,14.4,-22.3,-0.8
62.7947,6766.1904,0.26946384411397556,-1.842744763773357,-0.9163842110170677,0.02822,-0.04257,-0.00912,14.2,-22.4,-0.8
62.8169,6766.2104,0.2969281491595609,-1.8774064557633383,-0.8235634268612841,0.07159,0.13397,-0.07265,14.1,-22.6,-0.7
62.8351,6766.2303,0.33051524338636834,-1.8375118913075625,-0.7627086032326762,0.03494,0.20788,-0.0977,14.0,-22.6,-0.7
62.8611,6766.2503,0.3708559631787325,-1.713613254695526,-0.7318564337036708,-0.01393,0.23842,-0.07265,13.8,-22.7,-0.7
62.8759,6766.2703,0.3759446482100706,-1.521362499572789,-0.7197180536605536,-0.0182,0.19689,-0.03783,13.7,-22.9,-0.6
62.8943,6766.2903,0.37716654223988333,-1.293358894462454,-0.7144151726287262,0.01234,0.10464,4e-05,13.6,-23.0,-0.6
62.9187,6766.3103,0.38733359559148867,-1.0696694083065785,-0.7033607523088108,0.06487,0.04845,-0.01034,13.6,-23.1,-0.5
62.9434,6766.3304,0.414951006988763,-0.8751603706597643,-0.6753150060500115,0.09481,0.07044,-0.01645,13.5,-23.1,-0.4
62.9582,6766.3504,0.4559090994032773,-0.7153325754241942,-0.6237808563592697,0.06915,0.06616,-0.01584,13.5,-23.1,-0.4
62.98,6766.3704,0.5055091104820316,-0.6051174147249666,-0.5509697386666499,-0.03775,0.04539,0.00859,13.4,-23.2,-0.3
63.0002,6766.3905,0.5491477745899024,-0.5458632092375972,-0.46362404523031486,-0.13977,-0.03952,0.0092,13.4,-23.2,-0.3
63.0177,6766.4106,0.576540193786418,-0.5432850143079452,-0.3725332962371475,-0.16237,-0.08961,-0.01156,13.4,-23.2,-0.4
63.0447,6766.4306,0.5773598350373103,-0.5799477444752199,-0.2872032350342604,-0.108,-0.09816,-0.05005,13.3,-23.2,-0.6
63.0591,6766.4507,0.5496392358799078,-0.6637841676188068,-0.21545599142821814,-0.01026,-0.10305,-0.06715,13.3,-23.3,-0.7
63.0779,6766.4708,0.4971379362378804,-0.7677784844286109,-0.1567353924881143,0.11985,-0.13909,-0.07632,13.3,-23.3,-0.9
63.0976,6766.4908,0.4368858716661762,-0.8697361906577976,-0.10424358188137361,0.15467,-0.18674,-0.0696,13.4,-23.3,-0.8
63.1231,6766.5109,0.38957836786715094,-0.9536616672764534,-0.04788837555141967,0.11863,-0.08533,-0.02378,13.4,-23.3,-0.8
63.1374,6766.5309,0.3788125572395955,-0.9928351762109564,0.021604388025876275,0.02578,-0.01142,0.04952,13.4,-23.2,-0.9
63.1578,6766.551,0.3978423037954575,-0.9924148849551616,0.10456857473369041,-0.04447,-0.03036,0.1497,13.4,-23.2,-1.0
63.1815,6766.5711,0.43747119425010483,-0.9523180025334608,0.19385249706887997,-0.09334,-0.14459,0.19613,13.4,-23.2,-1.0
63.2036,6766.5911,0.5006939429709164,-0.8784838497150639,0.2771234376784477,-0.00904,-0.20629,0.1497,13.4,-23.1,-1.0
63.2272,6766.6112,0.576793404451508,-0.7681429320187462,0.34600195375052856,0.04288,-0.17452,0.03058,13.3,-23.1,-1.1
63.2485,6766.6312,0.6596327190738323,-0.6260317754623707,0.39963052233014373,-0.06463,-0.00898,-0.03356,13.3,-23.2,-1.3
63.2601,6766.6513,0.7058653588519133,-0.5000361599069161,0.44756390822611003,-0.19902,0.22132,-0.10869,13.3,-23.2,-1.4
63.2777,6766.6714,0.7274139407995199,-0.4252375725724332,0.5044978246877214,-0.33952,0.34288,-0.1429,13.3,-23.2,-1.6
63.3042,6766.6914,0.7317585737729697,-0.4370919994674696,0.5852633970896335,-0.48063,0.23232,-0.14107,13.3,-23.1,-1.7
63.3198,6766.7115,0.684913917919585,-0.6781655638274329,0.6938278816469925,-0.56371,0.07532,-0.13679,13.3,-23.1,-1.7
63.3453,6766.7316,0.6593978156190402,-1.031828609046049,0.8211169800714675,-0.59425,-0.10977,-0.14229,13.3,-23.1,-1.6
63.3693,6766.7516,0.6653833265298287,-1.519106894091028,0.9328664171902226,-0.56615,-0.02425,-0.21437,13.3,-23.0,-1.7
63.3817,6766.7717,0.6812092328535698,-2.1195330120555744,0.9701511920527146,-0.52644,0.11442,-0.2382,13.3,-23.0,-1.9
63.4021,6766.7917,0.738363422889927,-2.63954244874927,0.8920098883964673,-0.30775,0.08815,-0.2779,13.3,-22.9,-2.2
63.4219,6766.8118,0.7903441121139083,-3.035884558191303,0.6558167723285955,0.01967,-0.01631,-0.24492,13.3,-22.8,-2.5
63.4406,6766.8319,0.8288057730459288,-3.2275368528845054,0.2664784787531893,0.37764,0.06311,-0.20949,13.3,-22.8,-2.7
63.4578,6766.8519,0.8586235094965545,-3.165988401385946,-0.22009637823109962,0.55295,0.20299,-0.18627,13.4,-22.7,-2.8
63.4817,6766.872,0.8989131546956879,-2.9098678690121256,-0.7317120763758744,0.4992,0.15596,-0.14596,13.5,-22.6,-3.0
63.5008,6766.8921,0.9289888645706097,-2.4776346481948774,-1.1562557937885298,0.43139,0.11931,-0.03478,13.5,-22.5,-3.1
63.5246,6766.9121,0.9572995622401317,-2.018858153220062,-1.4384309811878015,0.33732,0.04783,0.05991,13.6,-22.4,-3.2
63.5408,6766.9321,0.9999206251417605,-1.610362567231011,-1.5417398842244445,0.17788,-0.10427,0.13749,13.7,-22.3,-3.3
63.559,6766.9522,1.0530160200101555,-1.339829364451239,-1.4801458585851286,0.0044,-0.29975,0.16559,13.8,-22.3,-3.5
63.5782,6766.9722,1.1162370026526198,-1.2221910884207683,-1.2972532554893288,-0.07929,-0.26432,0.10939,13.9,-22.2,-3.6
63.5996,6766.9922,1.1770780199156738,-1.2305353064482714,-1.0587589038910075,-0.12572,-0.18185,-0.00973,13.9,-22.2,-3.7
63.6253,6767.0122,1.2159828687695176,-1.3129663375892002,-0.8358204218332244,-0.08479,-0.21606,-0.10442,14.0,-22.2,-3.9
63.6404,6767.0322,1.215817122575339,-1.4027916441261348,-0.6869857236030334,0.07404,-0.24294,-0.11541,14.1,-22.2,-4.1
63.6603,6767.0521,1.1624940171200908,-1.4418694465525426,-0.6438737201984743,0.20232,-0.19285,-0.07204,14.2,-22.1,-4.1
63.6772,6767.0721,1.0698999599438357,-1.3767010270220243,-0.7040083039422083,0.27073,-0.22156,-0.02378,14.3,-22.1,-3.9
63.6972,6767.0921,0.9507835139532101,-1.217527485665966,-0.8379890692126377,0.2854,-0.26859,-0.03783,14.4,-22.0,-3.9
63.7285,6767.1121,0.819220350538905,-1.0139487101038742,-0.9969585703210893,0.23286,-0.22461,-0.06715,14.4,-22.0,-3.9
63.7412,6767.1321,0.7222834762876591,-0.7612976877314038,-1.1214033082684391,0.18399,-0.29792,-0.09586,14.5,-22.0,-3.8
63.7739,6767.1521,0.6404835265348084,-0.5886399864970279,-1.1688087406147485,0.15223,-0.32296,-0.10258,14.5,-22.0,-3.9
63.779,6767.1721,0.6185322308965733,-0.4739604042973719,-1.108525856858595,0.13451,-0.27165,-0.04761,14.5,-22.0,-3.9
63.812,6767.1921,0.5999336035167285,-0.49009628317449033,-0.9358588326433352,0.1003,-0.24782,0.04952,14.5,-21.9,-3.9
63.82,6767.2121,0.667999025272466,-0.5908590120101193,-0.6749394722952413,0.04899,-0.23316,0.12649,14.4,-21.9,-3.8
63.8387,6767.2321,0.7545834758266247,-0.7681374457221377,-0.36286302498397305,0.09419,-0.11832,0.16314,14.4,-21.9,-4.0
63.8605,6767.2521,0.8734039002815986,-0.9785485155552007,-0.05222875117182646,0.17788,0.02706,0.13504,14.4,-21.9,-3.9
63.8812,6767.2721,1.0120258585099675,-1.1654680952851337,0.20913947508348407,0.24141,0.25919,0.03425,14.4,-21.8,-3.9
63.9079,6767.2921,1.1454051513591492,-1.2957765909079648,0.3881894993737891,0.2292,0.41496,-0.05371,14.5,-21.8,-3.8
63.9284,6767.3121,1.2100597098728814,-1.3092257739520479,0.48684647120008506,0.2353,0.37465,-0.06532,14.5,-21.7,-3.7
63.9512,6767.3321,1.2045012342041261,-1.2225762604137909,0.520143073447322,0.25119,0.24759,-0.07571,14.5,-21.7,-3.6
63.9625,6767.3521,1.1098350605597846,-1.0238781138237618,0.5308987606771733,0.24997,0.27447,-0.07998,14.4,-21.7,-3.6
63.98,6767.3721,0.9872995112634826,-0.8067630243686496,0.5515070062755179,0.23164,0.39175,-0.0696,14.4,-21.6,-3.7
63.9992,6767.3921,0.8525631792723837,-0.6273603664389047,0.619948500246311,0.17666,0.4113,-0.01645,14.4,-21.6,-3.5
64.0227,6767.4122,0.7290688980926688,-0.5569758195199482,0.7514839337726631,0.08686,0.36304,0.07151,14.4,-21.6,-3.4
64.0374,6767.4322,0.6279385903932131,-0.6309494161835104,0.9346358211304242,-0.01026,0.22865,0.1497,14.5,-21.5,-3.3
64.0619,6767.4522,0.560076650289202,-0.8489096147209005,1.1308668017198578,-0.09395,0.08754,0.16681,14.4,-21.5,-3.2
64.0797,6767.4723,0.5426213755107171,-1.2019436325245225,1.2808224904420236,-0.29248,0.03928,0.20896,14.5,-21.5,-3.1
64.0972,6767.4923,0.5597423413767724,-1.62209002199595,1.3212658708022005,-0.41343,0.00507,0.29265,14.5,-21.5,-3.1
64.1313,6767.5123,0.568178923647006,-2.0013295926075183,1.2032602844406952,-0.20391,0.1077,0.30364,14.5,-21.5,-3.0
64.1436,6767.5323,0.6039993350903292,-2.3201842701806408,0.8862058963339319,0.14734,0.30073,0.26882,14.6,-21.5,-2.7
64.158,6767.5524,0.6020444597037641,-2.462806065094971,0.40150018440343693,0.35992,0.49682,0.26821,14.6,-21.4,-2.6
64.1786,6767.5724,0.5499206393762391,-2.41816114655738,-0.1828527164356739,0.34831,0.53653,0.29204,14.6,-21.5,-2.5
64.2,6767.5924,0.4457700579672873,-2.202104116574533,-0.7613164163457373,0.27807,0.56279,0.31158,14.6,-21.5,-2.5
64.2283,6767.6124,0.3208175889752386,-1.9225246204342805,-1.2407002256401967,0.23592,0.53469,0.25905,14.6,-21.5,-2.3
64.2401,6767.6325,0.1840858893543128,-1.6628827582362036,-1.5436626686638473,0.15956,0.48705,0.17964,14.7,-21.6,-2.2
64.2627,6767.6525,0.09302932639280126,-1.5515044017588282,-1.6488077530931378,0.04227,0.32456,0.14604,14.6,-21.7,-2.0
64.2879,6767.6725,0.04596307931793193,-1.61885583831514,-1.564678262951702,-0.01087,0.06616,0.16131,14.5,-21.7,-1.9
64.3014,6767.6926,0.0713091269741747,-1.8558934587551175,-1.3397882660333416,-0.06341,-0.2692,0.17169,14.5,-21.8,-1.8
64.3281,6767.7126,0.1147354165768274,-2.184009353271317,-1.0401242822117212,-0.14282,-0.41703,0.08068,14.5,-21.8,-1.6
64.3484,6767.7326,0.22718351045419857,-2.536838976540034,-0.7502045290152655,-0.20146,-0.27898,-0.04394,14.5,-21.9,-1.5
64.3591,6767.7526,0.37376415051122064,-2.827327821409188,-0.543753239506529,-0.14954,0.01485,-0.18505,14.5,-22.0,-1.4
64.3802,6767.7727,0.5589153090377339,-2.9547089014197416,-0.4614689850267979,-0.02981,0.34349,-0.27302,14.5,-22.1,-1.4
64.4045,6767.7927,0.7385397435738571,-2.890609430542288,-0.5175786495253156,0.07098,0.53775,-0.23025,14.5,-22.1,-1.4
64.4266,6767.8127,0.8444504912573209,-2.633734624079045,-0.6815140101326271,0.13146,0.5182,-0.12702,14.5,-22.1,-1.4
64.4404,6767.8328,0.8546561188027435,-2.2074870816309207,-0.8954195100767812,0.2408,0.37465,-0.08792,14.5,-22.2,-1.3
64.4863,6767.8528,0.8712559281912489,-1.7624577564011674,-1.1281592828477276,0.29028,0.21521,-0.06288,14.4,-22.3,-1.2
64.4906,6767.8728,0.8099742509901569,-1.2079909055692555,-1.2831675287280362,0.26157,0.14557,-0.01401,14.4,-22.3,-1.0
64.5038,6767.8928,0.7497388383166791,-0.7340230940360474,-1.360407779490446,0.17727,0.15351,0.01043,14.4,-22.3,-0.8
64.5186,6767.9129,0.6848268033650085,-0.38336603901534755,-1.3421238915551648,0.10275,0.25858,0.03364,14.4,-22.3,-0.6
64.5397,6767.9329,0.616647851048742,-0.19152831231014178,-1.2326254427881143,0.0215,0.26225,0.0202,14.3,-22.3,-0.4
64.559,6767.9529,0.5434869320415674,-0.1648325329706408,-1.0486394957798915,-0.0683,0.12358,0.01898,14.3,-22.3,-0.2
64.5773,6767.9729,0.4750325977468517,-0.28391188760312597,-0.8148077793913373,-0.07807,0.00752,0.00798,14.3,-22.3,-0.1
64.5984,6767.9929,0.420401767098501,-0.49995093297429055,-0.5577776699321362,-0.08479,-0.02486,0.02081,14.3,-22.3,0.0
64.6231,6768.0129,0.38036281288869034,-0.7507348102213723,-0.3018931546427801,-0.10495,-0.10122,0.10022,14.3,-22.2,0.1
64.6478,6768.0329,0.3586507565243115,-0.9746628515426812,-0.06627518817058053,-0.10067,-0.20384,0.17964,14.3,-22.2,0.3
64.6633,6768.0529,0.39072917496272846,-1.118882107933478,0.13813406485424196,-0.01637,-0.22095,0.24561,14.3,-22.1,0.5
64.6816,6768.0729,0.44524776573019337,-1.1452370254173634,0.315572195019838,-0.03653,-0.28387,0.23156,14.3,-22.1,0.7
64.6984,6768.0929,0.532380992713787,-1.0597416132627746,0.4784737480153822,-0.04386,-0.20873,0.14543,14.2,-22.1,0.9
64.7247,6768.1129,0.6238112212565278,-0.904569100867374,0.6475163058909317,-0.03225,-0.11343,0.03242,14.1,-22.1,1.0
64.7442,6768.1329,0.7223166465080189,-0.7605627909497034,0.8396880941679683,-0.09762,-0.03585,0.02264,14.0,-22.2,1.1
64.7577,6768.1529,0.8126226567108631,-0.7174824498235555,1.0625826856620382,-0.20452,-0.06151,0.07273,14.0,-22.2,1.1
64.7835,6768.1729,0.8773094272706603,-0.7832635927658801,1.3100112717900743,-0.34135,-0.06334,0.12344,14.0,-22.2,1.0
64.8,6768.1929,0.9507492077711979,-1.0594848270718256,1.5420590268267063,-0.56737,0.04906,0.07151,14.0,-22.2,1.1
64.834,6768.2129,1.0235148551122488,-1.3456625113204719,1.7285874080323609,-0.70482,0.06616,0.00859,13.9,-22.3,1.0
64.8438,6768.2329,1.0856559326497985,-1.9170765343511489,1.7720800276727182,-0.67183,0.03073,-0.13313,13.9,-22.3,0.9
64.8618,6768.2529,1.14433313599527,-2.436049787736832,1.6413153372107256,-0.42993,0.04356,-0.26874,13.9,-22.3,0.8
64.8924,6768.2728,1.2243453146612462,-2.8552482380626962,1.296872203428192,-0.06096,0.11075,-0.31578,13.9,-22.3,0.6
64.9167,6768.2928,1.2440142040137145,-3.1209157446397664,0.7568757222239721,0.28967,0.23232,-0.2608,13.8,-22.3,0.6
64.9265,6768.3128,1.1898437448262977,-3.087144695850195,0.1269023838253407,0.53585,0.15779,-0.12641,13.8,-22.3,0.5
64.9556,6768.3328,1.1355606997808925,-2.928275471711359,-0.5427427150622943,0.56151,-0.09389,-0.02439,13.8,-22.2,0.4
64.9571,6768.3528,1.1213883625676138,-2.4821048570431903,-1.0825719936495855,0.45033,-0.29303,0.03425,13.7,-22.3,0.3
64.9833,6768.3728,1.0861728742382735,-2.086847533773698,-1.491013612084508,0.30128,-0.35839,0.02814,13.7,-22.3,0.2
64.9986,6768.3929,1.1020601914984276,-1.7111710412877665,-1.7230714238356981,0.1449,-0.3981,-0.047,13.8,-22.3,0.1
65.019,6768.4129,1.1177152936629962,-1.4421575752365272,-1.8038988028632659,-0.00415,-0.37672,-0.21132,13.8,-22.3,0.1
65.0399,6768.4329,1.1134738052548478,-1.2812987969980938,-1.7753110013091273,-0.12327,-0.26859,-0.32677,13.9,-22.2,0.2
65.0583,6768.4529,1.0665388009629106,-1.20325005813058,-1.684706881124713,-0.13793,-0.24477,-0.3286,14.0,-22.2,0.1
65.0832,6768.473,0.9850843751805939,-1.1564219633075081,-1.572425611071731,-0.08051,-0.2576,-0.23881,14.0,-22.2,-0.1
65.1055,6768.493,0.8845549760628331,-1.1036950862184356,-1.4640077196549974,-0.05852,-0.29181,-0.10625,13.9,-22.2,-0.3
65.1268,6768.513,0.8023638117010922,-1.0184230938788117,-1.3673602997174008,-0.04692,-0.2185,-0.01095,14.0,-22.2,-0.4
65.1404,6768.5331,0.7765514545401689,-0.9024645228136762,-1.2756666416799707,-0.02492,-0.22828,0.03792,14.1,-22.1,-0.5
65.1672,6768.5531,0.7922114690099633,-0.7742903574072686,-1.170169992431946,-0.03592,-0.23011,0.00126,14.2,-22.2,-0.6
65.1791,6768.5731,0.8647554899942101,-0.6749086157951715,-1.038519142419668,-0.06402,-0.20323,-0.03111,14.2,-22.1,-0.7
65.2049,6768.5931,0.951746375121376,-0.6183040201052756,-0.8695898959968922,-0.09151,-0.18002,-0.06593,14.3,-22.1,-0.7
65.2246,6768.6132,1.0372296412957376,-0.6289544485015484,-0.6674227096639846,-0.1135,-0.14948,-0.0586,14.3,-22.1,-0.8
65.238,6768.6332,1.1025688999816157,-0.7036025423007832,-0.4443943167697242,-0.09517,-0.11404,-0.05249,14.3,-22.1,-0.8
65.2609,6768.6532,1.1431302700784909,-0.8105558372877967,-0.21867178478426474,-0.05241,-0.03646,-0.06043,14.3,-22.1,-0.8
65.2854,6768.6733,1.1622494409277913,-0.9315104577667069,-0.010140234918814883,0.0441,-0.01753,-0.05738,14.3,-22.1,-0.9
65.3005,6768.6933,1.1615710322109378,-1.0115185167567826,0.17226427732838268,0.19865,0.00446,-0.06166,14.4,-22.0,-1.1
