AppTimestamp(s),SensorTimestamp(s),gyro_x,gyro_y,gyro_z
0.0543,69573.8658,-0.23946,-0.34697,0.1912
0.056,69573.8758,-0.67378,-0.32987,0.25107
0.0583,69573.8858,-0.90225,-0.37629,0.18937
0.0594,69573.8958,-1.00121,-0.40989,0.01222
0.0614,69573.9058,-0.98288,-0.42944,-0.13683
0.0627,69573.9158,-0.88087,-0.39706,-0.25779
0.0646,69573.9259,-0.76297,-0.40684,-0.29444
0.0716,69573.9358,-0.6524,-0.25901,-0.28161
0.091,69573.9458,-0.47647,0.00794,-0.24984
0.0924,69573.9558,-0.26695,0.16188,-0.13256
0.1226,69573.9658,-0.19853,0.06048,-0.02077
0.1246,69573.9758,-0.12645,0.0507,0.07941
0.126,69573.9859,-0.07575,0.09774,0.16921
0.1287,69573.9958,-0.06903,0.01833,0.28955
0.1485,69574.0058,-0.10751,-0.1857,0.38973
0.1499,69574.0158,-0.14966,-0.41844,0.40561
0.1568,69574.0258,-0.15027,-0.51985,0.33964
0.1688,69574.0358,-0.12156,-0.55161,0.19914
0.1769,69574.0458,-0.07391,-0.57299,0.08919
0.1898,69574.0558,-0.00672,-0.64568,-0.01833
0.1978,69574.0668,0.02627,-0.85032,-0.05803
0.2098,69574.0769,-0.08002,-0.76419,-0.00794
0.2252,69574.0868,-0.02566,-0.54367,0.09835
0.2331,69574.0979,0.04948,-0.51191,0.34331
0.2435,69574.1078,0.12828,-0.5339,0.49419
0.2848,69574.1188,0.20831,-0.33292,0.47586
0.2934,69574.1287,0.20708,0.18143,0.39095
0.2993,69574.1388,0.39095,0.37446,0.37263
0.3024,69574.1488,0.63163,0.41294,0.40012
0.3038,69574.1588,0.93218,0.43494,0.36102
0.3064,69574.1688,1.1863,0.42028,0.30665
0.3152,69574.1788,1.37567,0.3543,0.27122
0.3255,69574.1889,1.44103,0.24312,0.30116
0.3319,69574.1986,1.45447,0.12095,0.42089
0.3503,69574.2088,1.43981,0.0171,0.60537
0.3543,69574.2188,1.41904,-0.10934,0.82528
0.3607,69574.2298,1.41476,0.10385,1.05619
0.3728,69574.2398,1.43065,0.73854,1.26205
0.3823,69574.2498,1.37567,0.96578,1.37872
0.3931,69574.2598,1.2254,1.23639,1.46852
0.4013,69574.2698,1.05863,1.5406,1.54243
0.4136,69574.2798,0.87781,1.80511,1.59436
0.4219,69574.2898,0.69272,1.99203,1.65483
0.4361,69574.2998,0.50519,2.11909,1.71409
0.4429,69574.3098,0.36408,2.18018,1.75685
0.4555,69574.3198,0.23091,2.20034,1.76723
0.4686,69574.3298,0.10934,2.19484,1.74891
0.4833,69574.3399,-0.0281,2.17468,1.69882
0.4875,69574.3498,-0.16616,2.11726,1.66766
0.4963,69574.3598,-0.33781,1.99875,1.68232
0.5038,69574.3698,-0.48686,1.85031,1.73669
0.5162,69574.3798,-0.68417,1.61452,1.84665
0.5255,69574.3898,-0.88637,1.40866,1.96943
0.5383,69574.3997,-1.07757,1.27976,2.05923
0.5482,69574.4098,-1.21807,1.27488,2.1142
0.5593,69574.4198,-1.41721,1.28282,2.17163
0.5613,69574.4298,-1.55343,1.30603,2.14292
0.573,69574.4398,-1.72325,1.31947,2.03662
0.5838,69574.4497,-1.87597,1.27243,1.91079
0.5932,69574.4599,-2.00669,1.08734,1.64017
0.602,69574.4698,-1.94255,1.01098,1.42454
0.6141,69574.4798,-1.76174,1.36651,1.15515
0.6224,69574.4898,-1.54549,1.64506,1.00304
0.6342,69574.5008,-1.33779,1.83443,0.9389
0.6451,69574.5108,-1.22356,1.81855,0.93646
0.6621,69574.5208,-1.21501,1.57542,0.92974
0.6664,69574.5308,-1.29442,1.2144,0.87232
0.6831,69574.5408,-1.39155,0.7984,0.73182
0.6865,69574.5509,-1.44347,0.43249,0.5565
0.7088,69574.5608,-1.39766,0.19609,0.23885
0.7107,69574.5708,-1.27121,0.10018,-0.07391
0.7191,69574.5808,-1.05313,-0.00733,-0.40439
0.7251,69574.5908,-0.87904,-0.09529,-0.62858
0.7347,69574.6008,-0.65729,-0.23335,-0.80634
0.7449,69574.6107,-0.50213,-0.39218,-0.80146
0.759,69574.6208,-0.3934,-0.65546,-0.70372
0.7699,69574.6308,-0.36469,-0.92974,-0.63713
0.7793,69574.6408,-0.42455,-1.32375,-0.66096
0.7833,69574.6508,-0.52473,-1.55954,-0.79535
0.8026,69574.6618,-0.60964,-1.76784,-1.05374
0.8128,69574.6718,-0.59498,-1.89246,-1.26449
0.826,69574.6818,-0.47342,-2.06289,-1.53938
0.8286,69574.6918,-0.2755,-2.24432,-1.75502
0.8381,69574.7028,0.01833,-2.44835,-1.94377
0.844,69574.7128,0.21441,-2.53448,-2.03357
0.858,69574.7229,0.3934,-2.57663,-2.11726
0.8659,69574.7328,0.47037,-2.5412,-2.1643
0.8757,69574.7428,0.52229,-2.44713,-2.18018
0.8839,69574.7528,0.54672,-2.36771,-2.15269
0.8956,69574.7628,0.58154,-2.29563,-2.11115
0.9076,69574.7728,0.60598,-2.25287,-2.11176
0.9192,69574.7828,0.64324,-2.16002,-2.19178
0.9244,69574.7927,0.67562,-2.08488,-2.31762
0.9367,69574.8028,0.74464,-2.06228,-2.49844
0.9495,69574.8128,0.832,-2.08305,-2.64688
0.9564,69574.8228,0.99266,-2.11298,-2.76905
0.9673,69574.8328,1.14415,-2.15391,-2.83686
0.9765,69574.8428,1.27915,-2.2657,-2.88267
0.991,69574.8528,1.39155,-2.43552,-2.90039
0.9968,69574.8628,1.51067,-2.5864,-2.91138
1.0062,69574.8728,1.60535,-2.65054,-2.91933
1.0176,69574.8828,1.66155,-2.66582,-2.94376
1.0253,69574.8928,1.63406,-2.60656,-2.96697
1.0394,69574.9028,1.5009,-2.51066,-3.02928
1.0457,69574.9129,1.28893,-2.37382,-3.09831
1.0581,69574.9238,0.98899,-2.11665,-3.22476
1.0652,69574.9339,0.697,-1.83932,-3.32433
1.0809,69574.9438,0.36346,-1.50273,-3.45139
1.0883,69574.9538,0.05253,-1.20707,-3.52469
1.0972,69574.9638,-0.28833,-0.93096,-3.51919
1.1049,69574.9738,-0.52473,-0.77336,-3.45078
1.1196,69574.9838,-0.77274,-0.63041,-3.3396
1.1258,69574.9938,-0.9163,-0.5284,-3.27607
1.137,69575.0038,-0.98899,-0.44899,-3.31028
1.1449,69575.0138,-0.9896,-0.44532,-3.40924
1.1566,69575.0238,-0.93279,-0.54367,-3.53447
1.1649,69575.0338,-0.84666,-0.71227,-3.59861
1.1766,69575.0438,-0.77397,-1.01098,-3.57051
1.186,69575.0538,-0.72204,-1.25288,-3.49048
1.2035,69575.0639,-0.6182,-1.39888,-3.38358
1.2072,69575.0738,-0.43616,-1.21562,-3.41779
1.2221,69575.0838,-0.13134,-0.78496,-3.66947
1.2278,69575.0938,0.12339,-0.37018,-4.06653
1.2421,69575.1038,0.30849,-0.07697,-4.48681
1.2452,69575.1138,0.39095,0.04826,-4.79774
1.2629,69575.1239,0.39095,-0.15882,-4.92541
1.2676,69575.1338,0.31337,-0.55528,-4.73359
1.2778,69575.1438,0.17287,-0.86437,-4.19054
1.2848,69575.1538,0.06414,-1.05802,-3.59555
1.3007,69575.1638,-0.16799,-1.37872,-2.69819
1.3061,69575.1738,-0.51068,-1.55771,-1.88757
1.3207,69575.1838,-1.12582,-1.40743,-1.28221
1.3281,69575.1938,-1.64995,-1.22662,-1.0739
1.3391,69575.2038,-2.1197,-1.07696,-0.67256
1.3479,69575.2138,-2.24859,-0.94501,-0.08308
1.3562,69575.2238,-2.16918,-0.7477,0.56933
1.3678,69575.2338,-2.00119,-0.55711,0.97311
1.3763,69575.2438,-1.74036,-0.36224,1.37506
1.385,69575.2538,-1.48685,-0.31826,1.58642
1.3962,69575.2638,-1.2199,-0.39828,1.64384
1.4046,69575.2738,-1.13621,-0.37385,1.52105
1.4162,69575.2838,-1.17347,-0.11179,1.38178
1.4247,69575.2938,-1.3158,-0.011,1.39827
1.4374,69575.3038,-1.56198,-0.10812,1.73852
1.4466,69575.3138,-1.68965,0.04826,2.13253
1.4571,69575.3238,-1.7599,0.30116,2.63955
1.4667,69575.3338,-1.70859,0.17654,3.04211
1.4772,69575.3438,-1.55221,0.05864,3.42329
1.4881,69575.3538,-1.39277,0.15882,3.60288
1.498,69575.3638,-1.15698,0.51252,3.74155
1.5057,69575.3738,-0.95112,0.78618,3.82218
1.5177,69575.3838,-0.73915,0.82039,3.73178
1.5258,69575.3938,-0.64813,1.00732,3.3677
1.5387,69575.4038,-0.5229,1.26755,3.07815
1.5468,69575.4138,-0.69516,1.28587,3.02684
1.5689,69575.4238,-1.14415,1.10322,2.98286
1.5711,69575.4338,-1.58092,1.26877,3.04394
1.5975,69575.4437,-1.84481,1.37078,3.3622
1.6068,69575.4537,-1.86008,1.20524,3.68596
1.6077,69575.4638,-1.78556,0.96395,3.84723
1.609,69575.4748,-1.66766,0.62858,3.9413
1.6275,69575.4848,-1.47402,0.30543,3.97185
1.6296,69575.4948,-1.25655,0.21258,3.90893
1.6438,69575.5048,-0.76541,0.73304,3.69818
1.6507,69575.5158,-0.11057,2.17712,3.53324
1.6586,69575.5258,0.37446,2.7043,3.30478
1.667,69575.5358,0.72693,3.03844,3.1032
1.6785,69575.5458,1.27243,3.06715,2.85946
1.6896,69575.5566,1.8888,3.0586,2.70797
1.7033,69575.5668,2.47339,3.25102,2.83686
1.714,69575.5768,2.92055,3.52164,3.18688
1.7223,69575.5868,3.54485,3.64381,3.78492
1.7284,69575.5968,3.47643,1.97859,3.84234
1.7397,69575.6068,2.76905,-0.97005,3.03539
1.7523,69575.6168,2.49355,-1.49418,2.50577
1.7598,69575.6268,2.38787,-1.28709,2.12031
1.773,69575.6368,0.08125,2.13375,2.34389
1.7808,69575.6468,-1.06291,2.10687,3.33838
1.7881,69575.6568,-1.47768,2.04212,3.75132
1.8018,69575.6668,-1.59741,1.92361,3.50453
1.8081,69575.6768,-1.62551,2.16307,3.12519
1.8224,69575.6868,-1.76296,2.45323,3.00179
1.8281,69575.6968,-1.88024,2.63894,3.18444
1.8398,69575.7068,-1.98776,3.14718,3.50453
1.8533,69575.7168,-2.03907,3.2553,3.65969
1.8637,69575.7268,-1.60352,2.70002,3.44161
1.8715,69575.7368,-0.99815,2.27303,2.95476
1.8868,69575.7468,-0.33903,1.1411,2.16246
1.8904,69575.7568,0.18021,-0.01955,1.41537
1.902,69575.7668,0.86682,-1.26999,0.69883
1.9095,69575.7768,1.30175,-1.91201,0.50457
1.9208,69575.7868,1.45752,-2.4007,0.58277
1.9281,69575.7968,1.37994,-2.61145,0.73609
1.9408,69575.8068,1.11788,-2.53998,0.99693
1.9483,69575.8168,0.81734,-2.23149,1.21257
1.9631,69575.8268,0.47892,-1.8552,1.40866
1.9696,69575.8368,0.25351,-1.78128,1.45264
1.9878,69575.8468,0.07147,-2.03479,1.35184
1.9899,69575.8568,-0.03176,-2.38237,1.13682
2.0051,69575.8668,-0.16677,-2.66948,0.72937
2.0148,69575.8768,-0.32498,-2.71896,0.33537
2.0203,69575.8868,-0.54428,-2.53387,0.05742
2.0287,69575.8968,-0.79657,-2.21255,-0.06048
2.0413,69575.9068,-0.97983,-1.96393,-0.13622
2.0484,69575.9168,-0.9896,-1.9792,-0.16738
2.0883,69575.9268,-0.832,-2.13803,-0.18265
2.0951,69575.9368,-0.67012,-2.30968,-0.20953
2.096,69575.9468,-0.45815,-2.4343,-0.32681
2.0988,69575.9568,-0.34453,-2.43002,-0.50824
2.106,69575.9668,-0.36346,-2.2938,-0.80817
2.1139,69575.9768,-0.47525,-2.10749,-1.07024
2.1349,69575.9868,-0.69639,-1.82771,-1.39277
2.1445,69575.9968,-0.90591,-1.61818,-1.65606
2.1462,69576.0068,-1.11788,-1.46485,-1.90162
2.1493,69576.0168,-1.18874,-1.44225,-2.05801
2.1691,69576.0268,-1.02809,-1.54793,-2.25348
2.1723,69576.0368,-0.67317,-1.74158,-2.45812
2.1816,69576.0468,-0.19059,-1.95843,-2.71163
2.1952,69576.0568,0.15394,-2.0745,-2.90528
2.2275,69576.0678,0.36469,-2.14108,-3.06105
2.2306,69576.0778,0.4105,-2.09893,-3.14412
2.2327,69576.0878,0.34453,-1.99448,-3.2272
2.234,69576.0978,0.26084,-1.88574,-3.31089
2.2471,69576.1078,0.12767,-1.63651,-3.38908
2.2502,69576.1178,0.01283,-1.41354,-3.45017
2.2686,69576.1278,-0.10201,-1.2315,-3.52408
2.2699,69576.1378,-0.135,-1.13438,-3.58334
2.2831,69576.1478,-0.13928,-1.05069,-3.64198
2.2926,69576.1578,-0.13622,-1.00854,-3.6823
2.3012,69576.1678,-0.09102,-1.0122,-3.73788
2.3096,69576.1778,-0.01405,-0.98777,-3.7782
2.3226,69576.1878,0.05681,-0.8998,-3.75804
2.3286,69576.1978,0.08002,-0.80634,-3.65481
2.3401,69576.2078,0.07636,-0.68234,-3.49659
2.3521,69576.2178,0.07697,-0.58032,-3.39947
2.3638,69576.2278,0.12462,-0.40867,-3.31333
2.3688,69576.2378,0.14294,-0.29138,-3.25774
2.3806,69576.2478,0.06353,-0.14172,-3.18139
2.3887,69576.2578,-0.08858,0.01038,-3.0922
2.4053,69576.2678,-0.26328,0.19242,-3.00668
2.418,69576.2778,-0.40745,0.28894,-2.97003
2.4286,69576.2878,-0.5736,0.31826,-2.90344
2.4329,69576.2978,-0.74403,0.33414,-2.79165
2.4429,69576.3078,-0.91935,0.36652,-2.5467
2.453,69576.3178,-1.00487,0.37996,-2.34633
2.4635,69576.3278,-0.97005,0.38057,-2.17651
2.4717,69576.3378,-0.83444,0.34392,-2.07755
2.4827,69576.3478,-0.68661,0.22174,-2.01402
2.489,69576.3578,-0.6353,0.06231,-1.89857
2.505,69576.3678,-0.71105,-0.13989,-1.71653
2.5138,69576.3778,-0.7984,-0.27978,-1.53449
2.5297,69576.3878,-0.7813,-0.45204,-1.34513
2.5309,69576.3978,-0.66768,-0.57238,-1.20646
2.5411,69576.4078,-0.53329,-0.49786,-1.01098
2.5488,69576.4178,-0.55161,-0.2248,-0.78069
2.5607,69576.4278,-0.68356,0.23824,-0.39156
2.5687,69576.4378,-0.86621,0.62858,-0.03482
2.5927,69576.4478,-1.09467,0.90591,0.30238
2.604,69576.4578,-1.18752,0.96089,0.45632
2.6052,69576.4678,-1.11972,0.71838,0.51313
2.6128,69576.4778,-0.92852,0.37507,0.52657
2.624,69576.4878,-0.62553,0.09835,0.60598
2.6291,69576.4978,-0.35369,0.0055,0.7196
2.6425,69576.5078,-0.08796,-0.04765,0.82833
2.6493,69576.5178,0.01772,-0.10324,0.91019
2.6641,69576.5278,-0.03848,0.05253,0.95173
2.6708,69576.5378,-0.24496,0.3317,0.96822
2.6887,69576.5488,-0.57116,0.79718,1.0849
2.6917,69576.5588,-0.91813,1.30664,1.26816
2.7039,69576.5688,-1.2315,1.73547,1.48929
2.711,69576.5798,-1.37445,1.84787,1.62734
2.7276,69576.5898,-1.30542,1.67194,1.66888
2.7328,69576.5998,-1.05069,1.38422,1.58031
2.7445,69576.6098,-0.5229,1.12155,1.3494
2.7522,69576.6198,-0.08186,1.05191,1.1753
2.7662,69576.6308,0.37996,1.14476,1.11116
2.7727,69576.6408,0.50885,1.27854,1.24067
2.7848,69576.6508,0.51557,1.4001,1.51556
2.795,69576.6608,0.49175,1.47829,1.75318
2.8053,69576.6708,0.49541,1.49723,1.98043
2.814,69576.6808,0.57788,1.38605,2.03968
2.8339,69576.6908,0.79474,1.22723,1.92423
2.8355,69576.7008,1.02076,1.18325,1.7147
2.8449,69576.7108,1.24983,1.14354,1.51617
2.8631,69576.7208,1.32802,1.06474,1.383
2.8666,69576.7308,1.33413,0.95478,1.29809
2.8729,69576.7408,1.33902,0.82528,1.27304
2.8897,69576.7508,1.32436,0.69333,1.28893
2.8925,69576.7608,1.24067,0.5339,1.3494
2.9079,69576.7708,1.09039,0.43188,1.41232
2.9187,69576.7808,0.98349,0.49236,1.49173
2.9295,69576.7908,0.94012,0.61087,1.62796
2.9355,69576.8008,0.95539,0.69455,1.72386
2.9451,69576.8108,0.95478,0.80207,1.85825
2.9524,69576.8208,0.88942,0.91996,2.02746
2.9654,69576.8308,0.75503,1.01709,2.23943
2.9725,69576.8408,0.67623,0.98533,2.40131
2.9925,69576.8508,0.61025,0.78069,2.60534
2.9944,69576.8608,0.59315,0.44532,2.75989
3.0049,69576.8707,0.68661,0.00977,2.7715
3.0124,69576.8808,0.81795,-0.25168,2.66459
3.0381,69576.8908,0.93462,-0.35858,2.54914
3.042,69576.9008,0.86743,-0.2529,2.57419
3.0465,69576.9108,0.59804,-0.0336,2.72324
3.0584,69576.9208,0.26389,0.16005,2.91627
3.0778,69576.9308,-0.15272,0.30177,3.15939
3.0811,69576.9408,-0.44654,0.33292,3.34999
3.0887,69576.9508,-0.71532,0.3146,3.5815
3.0936,69576.9608,-0.81428,0.2419,3.68474
3.1051,69576.9708,-0.71349,0.10018,3.52103
3.1124,69576.9808,-0.39401,-0.05192,3.24247
3.1245,69576.9908,0.03299,-0.07391,2.8729
3.1324,69577.0008,0.17959,0.07697,2.61573
3.1465,69577.0108,0.0391,0.37141,2.37627
3.1539,69577.0208,-0.20097,0.67745,2.2266
3.1661,69577.0308,-0.50213,1.13132,2.08916
3.1796,69577.0418,-0.78802,1.50273,2.08672
3.1961,69577.0518,-1.02076,1.59558,2.17712
3.2109,69577.0618,-1.09223,1.4673,2.16246
3.2124,69577.0718,-0.9389,1.13621,1.90651
3.2147,69577.0818,-0.58277,0.76358,1.55282
3.2298,69577.0918,-0.14172,0.3317,1.21196
3.2427,69577.1018,0.11301,0.00489,1.05741
3.2541,69577.1118,0.27367,-0.34331,0.96517
3.2652,69577.1218,0.26817,-0.50641,0.92302
3.2869,69577.1318,0.11606,-0.53817,0.86804
3.2891,69577.1428,-0.09896,-0.45448,0.7813
3.2925,69577.1528,-0.3488,-0.2755,0.6408
3.295,69577.1628,-0.48258,-0.1069,0.47159
3.3119,69577.1728,-0.52901,-0.02382,0.23335
3.3175,69577.1828,-0.50519,-0.04581,0.03726
3.3269,69577.1928,-0.42516,-0.14661,-0.16921
3.3362,69577.2028,-0.35186,-0.29138,-0.29749
3.3453,69577.2128,-0.31643,-0.551,-0.41905
3.3539,69577.2228,-0.3372,-0.83566,-0.52534
3.3653,69577.2328,-0.37324,-1.10628,-0.61636
3.3736,69577.2428,-0.41539,-1.30114,-0.72021
3.385,69577.2528,-0.42394,-1.4563,-0.87781
3.3937,69577.2628,-0.3653,-1.49845,-1.01831
3.4058,69577.2728,-0.29322,-1.40682,-1.15576
3.4136,69577.2828,-0.24251,-1.20218,-1.24372
3.4255,69577.2928,-0.19242,-0.92974,-1.33963
3.4347,69577.3028,-0.15821,-0.78252,-1.4056
3.4479,69577.3128,-0.13561,-0.78679,-1.48196
3.4543,69577.3228,-0.10018,-0.87415,-1.54488
3.4658,69577.3328,-0.03238,-1.03664,-1.65483
3.4757,69577.3436,0.04826,-1.2034,-1.77456
3.489,69577.3538,0.11973,-1.40132,-1.86497
3.4956,69577.3638,0.1967,-1.55832,-1.92911
3.5073,69577.3738,0.34025,-1.79167,-2.01524
3.5168,69577.3838,0.46914,-1.97798,-2.06961
3.5272,69577.3938,0.58215,-2.1362,-2.0861
3.5353,69577.4038,0.62919,-2.21561,-2.08305
3.547,69577.4138,0.64141,-2.23577,-2.10321
3.5552,69577.4238,0.63591,-2.18873,-2.14169
3.568,69577.4338,0.64141,-2.09649,-2.22538
3.5755,69577.4437,0.65179,-1.9902,-2.31457
3.5878,69577.4538,0.64446,-1.82771,-2.41903
3.5956,69577.4638,0.60659,-1.67499,-2.49233
3.608,69577.4738,0.49908,-1.47341,-2.51127
3.6158,69577.4838,0.37018,-1.31214,-2.49905
3.6324,69577.4938,0.26206,-1.15148,-2.50394
3.6391,69577.5038,0.18815,-1.04763,-2.53815
3.6486,69577.5138,0.14294,-0.94012,-2.59312
3.6572,69577.5238,0.1014,-0.84544,-2.61389
3.6711,69577.5338,0.05131,-0.80207,-2.60534
3.6823,69577.5438,0.02871,-0.83139,-2.60106
3.69,69577.5538,0.01344,-0.9163,-2.56686
3.6962,69577.5648,-0.00061,-1.08062,-2.52654
3.7109,69577.5748,-0.0055,-1.24922,-2.4679
3.7163,69577.5848,-0.01344,-1.33963,-2.40192
3.7297,69577.5948,-0.09591,-1.31336,-2.26326
3.7374,69577.6048,-0.22419,-1.23822,-2.1533
3.7484,69577.6148,-0.42394,-1.08795,-2.03785
3.7562,69577.6248,-0.56261,-0.9218,-1.9621
3.7756,69577.6348,-0.70433,-0.7758,-1.89429
3.7774,69577.6448,-0.82161,-0.68295,-1.86253
3.7883,69577.6548,-0.92118,-0.63408,-1.86558
3.7969,69577.6648,-0.97189,-0.61881,-1.8552
3.813,69577.6748,-1.04763,-0.58215,-1.81671
3.8215,69577.6848,-1.13621,-0.49419,-1.76968
3.8284,69577.6948,-1.30786,-0.3207,-1.69576
3.8363,69577.7048,-1.46119,-0.18509,-1.63956
3.8476,69577.7148,-1.65422,-0.00305,-1.57786
3.8562,69577.7248,-1.81732,0.18143,-1.53694
3.8685,69577.7348,-2.00852,0.3708,-1.51678
3.8775,69577.7448,-2.15697,0.50641,-1.50762
3.8934,69577.7548,-2.26142,0.56566,-1.43065
3.8977,69577.7648,-2.28341,0.50457,-1.28098
3.9113,69577.7748,-2.19301,0.32315,-1.00976
3.9353,69577.7848,-2.01158,0.13317,-0.71105
3.9375,69577.7948,-1.79106,-0.03482,-0.4386
3.9398,69577.8048,-1.57542,-0.10751,-0.24435
3.9529,69577.8158,-1.41415,-0.0281,-0.0843
3.9684,69577.8258,-1.37811,0.09407,0.00305
3.9733,69577.8358,-1.3775,0.20159,0.12523
3.9819,69577.8458,-1.372,0.26023,0.29444
3.9894,69577.8558,-1.2816,0.29444,0.48136
3.9971,69577.8658,-1.13987,0.35125,0.62064
4.009,69577.8758,-0.97922,0.44043,0.75625
4.0207,69577.8858,-0.82161,0.51557,0.85704
4.029,69577.8958,-0.66706,0.59437,0.96028
4.0372,69577.9058,-0.54611,0.686,1.01037
4.0532,69577.9158,-0.41905,0.7703,1.0794
4.0574,69577.9258,-0.32742,0.82161,1.1692
4.0717,69577.9358,-0.18509,0.83078,1.26877
4.0819,69577.9458,0.01894,0.82467,1.30725
4.0979,69577.9568,0.26695,0.83383,1.36773
4.0992,69577.9668,0.3879,0.85521,1.44225
4.1097,69577.9768,0.43188,0.85338,1.57115
4.1185,69577.9868,0.44715,0.85765,1.66461
4.1295,69577.9968,0.4331,0.89309,1.73913
4.1426,69578.0068,0.41539,0.92607,1.75074
4.1497,69578.0168,0.47281,0.95051,1.67072
4.1583,69578.0268,0.57421,0.9725,1.5406
4.1704,69578.0368,0.67684,0.99449,1.39399
4.178,69578.0468,0.69944,1.06474,1.31336
4.1903,69578.0568,0.67501,1.21379,1.2706
4.1995,69578.0668,0.6353,1.31641,1.28954
4.2133,69578.0768,0.5901,1.30481,1.34146
4.2431,69578.0878,0.60903,1.23395,1.38483
4.2487,69578.0978,0.69761,1.20279,1.40132
4.2594,69578.1078,0.79718,1.19363,1.42148
4.262,69578.1178,0.8937,1.18569,1.48257
4.265,69578.1288,0.95723,1.18813,1.58458
4.2818,69578.1398,0.9896,1.15759,1.7037
4.2894,69578.1498,0.98288,1.113,1.82038
4.2998,69578.1608,0.9389,1.02442,1.98287
4.3047,69578.1708,0.84605,0.86743,2.15147
4.3194,69578.1808,0.67684,0.57116,2.39276
4.3279,69578.1908,0.56872,0.34514,2.5638
4.3339,69578.2008,0.44776,0.11118,2.76294
4.3459,69578.2108,0.37263,-0.0391,2.90283
4.3546,69578.2207,0.34086,-0.0898,3.01401
4.3617,69578.2308,0.37385,-0.06475,3.09525
4.3731,69578.2408,0.40684,-0.03543,3.14535
4.3816,69578.2507,0.42089,-0.02932,3.15084
4.3931,69578.2607,0.40378,-0.02016,3.1258
4.4034,69578.2708,0.2584,-0.02321,3.14168
4.4131,69578.2807,-0.07941,-0.04093,3.21987
4.4221,69578.2908,-0.43433,-0.01588,3.306
4.4333,69578.3008,-0.88331,0.09835,3.41657
4.4419,69578.3107,-1.20279,0.23274,3.52103
4.4552,69578.3207,-1.44042,0.32315,3.66947
4.4691,69578.3308,-1.54732,0.31765,3.78187
4.4816,69578.3408,-1.60963,0.26939,3.79531
4.4831,69578.3507,-1.65361,0.22663,3.67374
4.4938,69578.3608,-1.74707,0.15944,3.48499
4.5036,69578.3707,-1.80877,0.06109,3.34388
4.5197,69578.3807,-1.79289,-0.0672,3.25347
4.524,69578.3908,-1.73913,-0.17715,3.20154
4.5341,69578.4008,-1.58336,-0.32254,3.08792
4.5453,69578.4108,-1.34329,-0.41844,2.89184
4.5625,69578.4218,-0.98227,-0.35858,2.59312
4.5648,69578.4318,-0.77152,-0.26084,2.35061
4.5757,69578.4417,-0.60476,-0.16616,2.07328
4.5843,69578.4517,-0.55772,-0.09713,1.92361
4.5969,69578.4617,-0.60353,-0.04093,1.84237
4.606,69578.4717,-0.71105,-0.03421,1.76662
4.6173,69578.4818,-0.7758,-0.07208,1.61574
4.6272,69578.4918,-0.76603,-0.02749,1.44897
4.6396,69578.5018,-0.70311,0.04154,1.2315
4.6493,69578.5118,-0.59804,0.01344,1.02381
4.6556,69578.5217,-0.38546,-0.13622,0.74464
4.6681,69578.5317,-0.17226,-0.30971,0.5565
4.6753,69578.5418,0.05315,-0.49847,0.42028
4.683,69578.5518,0.22846,-0.62614,0.33048
4.6949,69578.5618,0.4386,-0.7196,0.14661
4.7031,69578.5718,0.54428,-0.71288,-0.08491
4.7153,69578.5817,0.5681,-0.61331,-0.3598
4.726,69578.5917,0.53878,-0.48258,-0.57116
4.7373,69578.6018,0.50702,-0.35186,-0.74587
4.7437,69578.6118,0.55711,-0.40806,-0.89675
4.7646,69578.6218,0.70372,-0.66035,-1.05924
4.7667,69578.6318,0.88209,-0.90286,-1.17775
4.7812,69578.6417,1.04275,-1.10017,-1.28954
4.7911,69578.6517,1.13987,-1.24311,-1.39522
4.8022,69578.6618,1.13804,-1.36773,-1.47646
4.8084,69578.6718,1.102,-1.48501,-1.54915
4.8198,69578.6818,1.09101,-1.64384,-1.63651
4.8278,69578.6918,1.08306,-1.74219,-1.69393
4.8389,69578.7028,1.07024,-1.85398,-1.75135
4.8443,69578.7128,1.03114,-1.97371,-1.80389
4.8568,69578.7228,0.96944,-2.09099,-1.89551
4.8656,69578.7338,0.8827,-2.11604,-1.98287
4.8776,69578.7438,0.74159,-2.04334,-2.04334
4.8853,69578.7537,0.62003,-1.97737,-2.09221
4.8991,69578.7637,0.57788,-1.98287,-2.16613
4.9076,69578.7748,0.62675,-2.0861,-2.27914
4.9181,69578.7847,0.7251,-2.22538,-2.44957
4.927,69578.7947,0.76603,-2.30907,-2.59679
4.938,69578.8047,0.72815,-2.34756,-2.71652
4.9465,69578.8148,0.63835,-2.33045,-2.82586
4.9598,69578.8248,0.5339,-2.2712,-2.97064
4.9757,69578.8348,0.46426,-2.16979,-3.13252
4.9837,69578.8447,0.39828,-2.02502,-3.31517
4.9926,69578.8547,0.33109,-1.80877,-3.49293
4.9998,69578.8648,0.23091,-1.49357,-3.65847
5.0063,69578.8748,0.11545,-1.1692,-3.74583
5.019,69578.8848,-0.05009,-0.73059,-3.80264
5.0269,69578.8948,-0.18754,-0.4105,-3.84051
5.0468,69578.9058,-0.36835,-0.06964,-3.91442
5.0574,69578.9158,-0.45265,0.03299,-3.97124
5.0599,69578.9257,-0.51252,0.06964,-4.06714
5.077,69578.9357,-0.57055,0.07208,-4.1887
5.0836,69578.9457,-0.70311,0.05559,-4.27911
5.0922,69578.9557,-0.87109,0.02749,-4.26812
5.102,69578.9658,-1.05924,-0.01527,-4.20886
5.1097,69578.9758,-1.16797,-0.09224,-4.17404
5.1247,69578.9858,-1.27488,-0.24557,-4.10868
5.1269,69578.9957,-1.36467,-0.33048,-4.01583
5.1386,69579.0057,-1.50884,-0.3653,-3.90404
5.1469,69579.0158,-1.67499,-0.3824,-3.84418
5.1585,69579.0258,-1.92056,-0.41966,-3.82646
5.1671,69579.0358,-2.11359,-0.42699,-3.86678
5.1803,69579.0458,-2.30907,-0.35491,-3.96513
5.1871,69579.0557,-2.49111,-0.2022,-4.01888
5.1994,69579.0657,-2.70797,0.11912,-3.96085
5.2068,69579.0758,-2.88084,0.30849,-3.80752
5.2207,69579.0858,-3.06105,0.40073,-3.48682
5.2269,69579.0958,-3.15878,0.2926,-3.19849
5.2388,69579.1058,-3.17222,0.04581,-2.96209
5.2473,69579.1157,-3.10381,-0.27611,-2.87473
5.2744,69579.1257,-2.93337,-0.64935,-2.76233
5.2809,69579.1357,-2.75989,-0.92913,-2.53081
5.2833,69579.1458,-2.50577,-1.1472,-2.10565
5.2886,69579.1558,-2.20583,-1.27304,-1.68049
5.3041,69579.1658,-1.73608,-1.37994,-1.10017
5.3087,69579.1758,-1.30664,-1.40132,-0.62919
5.3186,69579.1857,-0.90775,-1.26022,-0.18448
5.3268,69579.1957,-0.71716,-1.03236,0.08674
5.3384,69579.2058,-0.68173,-0.64691,0.34086
5.3507,69579.2158,-0.73854,-0.30238,0.52412
5.3583,69579.2258,-0.7984,-0.01833,0.74953
5.3728,69579.2358,-0.8094,0.06536,0.97494
5.3794,69579.2457,-0.73182,0.0391,1.16248
5.3874,69579.2557,-0.58277,0.00794,1.26999
5.4004,69579.2658,-0.35369,0.04459,1.30603
5.4105,69579.2758,-0.22541,0.14966,1.31825
5.4241,69579.2858,-0.16127,0.31643,1.36467
5.4333,69579.2958,-0.17104,0.48808,1.42332
5.4454,69579.3057,-0.21075,0.6353,1.50212
5.4488,69579.3157,-0.22602,0.67928,1.56076
5.4662,69579.3258,-0.16677,0.71166,1.6133
5.4686,69579.3358,-0.04887,0.77763,1.6866
5.4881,69579.3458,0.08369,0.8656,1.81183
5.4896,69579.3558,0.18937,0.89003,1.923
5.499,69579.3658,0.36224,0.84483,2.01647
5.5091,69579.3757,0.54306,0.83017,2.03479
5.519,69579.3857,0.7758,0.8656,2.08366
5.5308,69579.3958,0.91752,0.90775,2.19545
5.5388,69579.4058,1.02809,0.90286,2.34817
5.5471,69579.4158,1.1301,0.86437,2.42025
5.5611,69579.4258,1.28831,0.80573,2.46912
5.5695,69579.4357,1.41415,0.73609,2.49722
5.5925,69579.4457,1.48746,0.60598,2.50638
5.5954,69579.4558,1.52472,0.54489,2.39948
5.612,69579.4667,1.63284,0.49969,2.05129
5.615,69579.4768,1.7318,0.64752,1.69637
5.625,69579.4877,1.69943,0.95356,1.42332
5.6323,69579.4977,1.55526,1.1808,1.36895
5.6413,69579.5078,1.34635,1.43981,1.36589
5.6492,69579.5178,1.18447,1.58031,1.36223
5.6612,69579.5278,1.01526,1.60108,1.36712
5.6712,69579.5378,0.90164,1.53083,1.33718
5.6824,69579.5477,0.8601,1.37323,1.23028
5.6891,69579.5577,0.8882,1.22356,1.08367
5.7026,69579.5678,0.92729,1.17958,0.90713
5.7104,69579.5778,0.9108,1.2651,0.87781
5.7264,69579.5878,0.82955,1.46547,0.91874
5.7297,69579.5978,0.67317,1.61452,1.04275
5.7438,69579.6088,0.405,1.5742,1.29503
5.7511,69579.6188,0.21991,1.40377,1.56687
5.7688,69579.6298,0.03115,0.95112,1.92484
5.7718,69579.6398,-0.04704,0.40073,2.17468
5.7835,69579.6498,0.02688,-0.16188,2.16002
5.7965,69579.6597,0.20464,-0.39218,1.97309
5.8148,69579.6697,0.50091,-0.38362,1.64445
5.8222,69579.6807,0.66096,-0.19914,1.45936
5.8292,69579.6907,0.71105,0.04032,1.39949
5.8353,69579.7008,0.67317,0.12645,1.46974
5.8443,69579.7108,0.52718,0.10751,1.653
5.8549,69579.7208,0.3262,0.06475,1.91506
5.8643,69579.7308,0.0733,0.01161,2.23516
5.8723,69579.7407,-0.09591,-0.01955,2.44652
5.8866,69579.7507,-0.22052,-0.011,2.63955
5.8946,69579.7607,-0.24618,0.09407,2.72568
5.9133,69579.7717,-0.13195,0.30055,2.72935
5.9181,69579.7817,0.00244,0.46181,2.71896
5.931,69579.7918,0.14355,0.68173,2.76661
5.9378,69579.8018,0.21075,0.88148,2.85763
5.9471,69579.8118,0.21564,1.03908,2.95598
5.9534,69579.8217,0.15333,1.05435,3.04577
5.9653,69579.8317,-0.03482,0.76725,3.18811
5.9787,69579.8417,-0.16921,0.29138,3.29501
5.9981,69579.8518,-0.17532,-0.21136,3.38175
5.9995,69579.8617,-0.09285,-0.53878,3.39641
6.0113,69579.8718,0.01894,-0.72876,3.35243
6.0134,69579.8818,0.1179,-0.7648,3.25836
6.0271,69579.8917,0.20586,-0.66096,3.10625
6.0352,69579.9016,0.23396,-0.53512,2.96514
6.0446,69579.9118,0.24618,-0.33231,2.80754
6.0538,69579.9218,0.22663,-0.05253,2.68353
6.0663,69579.9318,0.146,0.32315,2.52104
6.0782,69579.9418,0.04643,0.61942,2.34572
6.0847,69579.9518,-0.0562,0.86254,2.12154
6.0937,69579.9626,-0.12645,1.01587,1.92789
6.1084,69579.9727,-0.18204,1.11788,1.73241
6.1139,69579.9827,-0.2193,1.12399,1.5516
6.1256,69579.9927,-0.27184,1.06901,1.35123
6.134,69580.0028,-0.31398,1.01037,1.20646
6.1874,69580.0128,-0.37996,0.97066,1.0458
6.1896,69580.0228,-0.44838,0.93768,0.93646
6.1903,69580.0328,-0.49236,0.84971,0.79596
6.1912,69580.0427,-0.49663,0.74526,0.64935
6.1919,69580.0527,-0.50457,0.59315,0.41722
6.2034,69580.0628,-0.55528,0.4667,0.22541
6.2055,69580.0728,-0.66279,0.33598,0.0788
6.2159,69580.0828,-0.74342,0.2474,0
6.2269,69580.0928,-0.77885,0.08858,-0.10018
6.2412,69580.1038,-0.78252,-0.10079,-0.2248
6.255,69580.1138,-0.79412,-0.2474,-0.38607
6.2564,69580.1238,-0.81917,-0.30238,-0.51313
6.2689,69580.1337,-0.82955,-0.3427,-0.67562
6.275,69580.1437,-0.81856,-0.33598,-0.79535
6.2862,69580.1537,-0.78557,-0.32681,-0.8827
6.2964,69580.1638,-0.77763,-0.38301,-0.9389
6.308,69580.1738,-0.7758,-0.52351,-0.99938
6.3147,69580.1838,-0.74526,-0.68234,-1.10506
6.327,69580.1937,-0.67806,-0.85521,-1.2761
6.3346,69580.2037,-0.60353,-1.00732,-1.4728
6.3465,69580.2137,-0.51985,-1.15209,-1.68904
6.3572,69580.2238,-0.47525,-1.21562,-1.8216
6.3673,69580.2338,-0.41417,-1.23456,-1.94072
6.3761,69580.2438,-0.34819,-1.23761,-2.02074
6.3926,69580.2548,-0.20159,-1.23639,-2.12459
6.4027,69580.2648,-0.03299,-1.237,-2.20645
6.4083,69580.2748,0.15944,-1.22356,-2.32129
6.4162,69580.2847,0.29993,-1.19058,-2.44835
6.4283,69580.2947,0.37202,-1.13193,-2.61695
6.4361,69580.3048,0.37141,-1.07512,-2.72629
6.4484,69580.3148,0.32376,-1.05496,-2.84969
6.4569,69580.3248,0.31948,-1.06291,-2.9517
6.4741,69580.3348,0.45571,-1.13926,-3.12091
6.4772,69580.3447,0.64263,-1.21562,-3.25958
6.488,69580.3547,0.85765,-1.32252,-3.36526
6.4959,69580.3648,0.9725,-1.40071,-3.36159
6.5078,69580.3748,0.98838,-1.42454,-3.27607
6.5187,69580.3848,0.9499,-1.39216,-3.18078
6.5284,69580.3948,0.85949,-1.29442,-3.04028
6.5365,69580.4047,0.80329,-1.21318,-2.97614
6.5587,69580.4147,0.75869,-1.09772,-2.95109
6.5609,69580.4247,0.75259,-1.01892,-2.9853
6.572,69580.4348,0.75136,-0.92485,-3.047
6.5777,69580.4447,0.7532,-0.83078,-3.09464
6.5932,69580.4548,0.67501,-0.61331,-3.08365
6.6092,69580.4647,0.551,-0.44349,-3.00301
6.6107,69580.4747,0.35919,-0.28588,-2.86801
6.6183,69580.4847,0.15638,-0.19853,-2.71163
6.6299,69580.4948,-0.03848,-0.14966,-2.51982
6.6384,69580.5048,-0.16738,-0.13744,-2.34206
6.6484,69580.5148,-0.28527,-0.13439,-2.16307
6.6583,69580.5248,-0.37813,-0.14844,-2.05006
6.6684,69580.5347,-0.45204,-0.21014,-1.96943
6.6764,69580.5447,-0.45509,-0.24862,-1.92972
6.6884,69580.5548,-0.45265,-0.2584,-1.8888
6.6968,69580.5648,-0.45754,-0.25229,-1.86436
6.7114,69580.5748,-0.52046,-0.21747,-1.80999
6.7243,69580.5848,-0.60537,-0.1912,-1.73974
6.7319,69580.5947,-0.75503,-0.18326,-1.62979
6.7439,69580.6047,-0.89614,-0.1741,-1.53144
6.7482,69580.6148,-1.10261,-0.1405,-1.47096
6.7682,69580.6248,-1.29198,-0.01833,-1.45997
6.7695,69580.6348,-1.49173,0.1912,-1.45447
6.7775,69580.6448,-1.66827,0.39218,-1.44042
6.7891,69580.6547,-1.83748,0.58215,-1.40377
6.7961,69580.6647,-1.94622,0.68722,-1.35246
6.8116,69580.6748,-2.07267,0.64446,-1.24006
6.8162,69580.6848,-2.16613,0.44104,-1.10261
6.8303,69580.6948,-2.22783,0.19242,-0.93646
6.836,69580.7047,-2.26448,0.07636,-0.81551
6.8507,69580.7147,-2.29502,0.01588,-0.67378
6.8571,69580.7247,-2.2828,0.04398,-0.58032
6.8711,69580.7347,-2.21927,0.08125,-0.50763
6.8779,69580.7448,-2.1588,0.04276,-0.41111
6.8938,69580.7557,-2.02685,-0.06964,-0.21686
6.8997,69580.7667,-1.799,-0.17715,-0.0336
6.9105,69580.7767,-1.55404,-0.29627,0.11118
6.9177,69580.7868,-1.32252,-0.30238,0.25901
6.9294,69580.7967,-1.10811,-0.17226,0.42761
6.9377,69580.8068,-0.93585,0.03054,0.55589
6.9495,69580.8168,-0.71288,0.2926,0.6524
6.9592,69580.8268,-0.50946,0.45265,0.70372
6.9723,69580.8367,-0.22113,0.56505,0.76603
6.9843,69580.8467,0.06658,0.57238,0.81795
6.9956,69580.8568,0.37935,0.51129,0.85399
7.0054,69580.8668,0.58154,0.46976,0.86376
7.0175,69580.8768,0.76297,0.45326,0.83322
7.0251,69580.8868,0.85765,0.51862,0.77702
7.0339,69580.8967,0.89553,0.61209,0.72265
7.044,69580.9067,0.91691,0.68783,0.69883
7.0517,69580.9177,0.94134,0.74648,0.68417
7.0593,69580.9277,0.96456,0.76969,0.697
7.0748,69580.9378,0.99815,0.78679,0.73304
7.0792,69580.9478,1.03175,0.80817,0.78374
7.094,69580.9578,1.06168,0.83078,0.8601
7.1061,69580.9678,1.07757,0.85704,0.91324
7.115,69580.9777,1.07146,0.89064,0.97433
7.1242,69580.9877,1.0403,0.87965,1.03419
7.1351,69580.9977,0.96822,0.84055,1.11849
7.1403,69581.0078,0.88514,0.7984,1.2315
7.1513,69581.0178,0.77885,0.69944,1.4166
7.1592,69581.0278,0.67806,0.54184,1.60719
7.1717,69581.0378,0.60231,0.35858,1.76723
7.1796,69581.0477,0.58032,0.20403,1.86619
7.1931,69581.0577,0.62308,0.13744,1.89674
7.2154,69581.0678,0.69455,0.20953,1.85703
7.2175,69581.0778,0.76847,0.416,1.76601
7.2262,69581.0878,0.80879,0.64935,1.71409
7.2342,69581.0978,0.78802,0.98594,1.71164
7.241,69581.1077,0.6744,1.23517,1.78984
7.26,69581.1177,0.45998,1.39888,1.97493
7.263,69581.1278,0.32315,1.39583,2.10749
7.3066,69581.1387,0.146,1.25594,2.34939
7.3094,69581.1487,0.06658,1.09039,2.54731
7.3116,69581.1588,0.03176,0.88026,2.77272
7.3155,69581.1688,0.0733,0.7367,2.94742
7.3175,69581.1788,0.1741,0.70372,3.22842
7.3272,69581.1888,0.21686,0.82955,3.53874
7.3385,69581.1987,0.17654,1.03725,3.87105
7.3416,69581.2087,0.07636,1.21379,4.08241
7.3516,69581.2188,-0.09591,1.35123,4.21741
7.361,69581.2288,-0.19548,1.40132,4.16916
7.3735,69581.2388,-0.24496,1.3323,3.94191
7.3799,69581.2488,-0.25473,1.15759,3.65725
7.3922,69581.2587,-0.20342,0.83689,3.36098
7.3998,69581.2687,-0.13683,0.56933,3.1203
7.4125,69581.2788,-0.11668,0.3879,2.93765
7.4199,69581.2888,-0.17104,0.36713,2.90894
7.4363,69581.2988,-0.32742,0.41783,2.97186
7.4478,69581.3088,-0.49114,0.48136,3.05372
7.455,69581.3187,-0.72571,0.55467,3.15817
7.4602,69581.3286,-0.9444,0.55772,3.23697
7.4727,69581.3388,-1.09589,0.39767,3.24797
7.4803,69581.3488,-1.13987,0.12156,3.18139
7.4927,69581.3588,-1.0739,-0.22907,3.02073
7.5011,69581.3688,-0.97677,-0.53084,2.82098
7.5141,69581.3787,-0.92118,-0.7251,2.53204
7.5209,69581.3887,-0.99876,-0.74342,2.30907
7.5334,69581.3987,-1.26083,-0.61881,2.12154
7.5406,69581.4088,-1.59436,-0.41294,2.05251
7.5567,69581.4188,-1.93705,-0.15638,2.03113
7.5654,69581.4288,-2.10871,-0.0507,1.99081
7.5744,69581.4387,-2.16185,-0.17898,1.81732
7.5831,69581.4498,-2.0464,-0.37507,1.50578
7.5956,69581.4598,-1.86742,-0.46731,1.12766
7.6033,69581.4697,-1.74402,-0.52412,0.81428
7.616,69581.4797,-1.59191,-0.5962,0.35186
7.6227,69581.4898,-1.48929,-0.6182,0.04826
7.6414,69581.5007,-1.37994,-0.60598,-0.29871
7.6559,69581.5118,-1.28893,-0.59376,-0.51618
7.6592,69581.5217,-1.18386,-0.51679,-0.7196
7.6657,69581.5317,-1.14232,-0.37385,-0.87232
7.6763,69581.5427,-1.14293,-0.2364,-1.02748
7.6843,69581.5527,-1.11422,-0.18448,-1.14537
7.6965,69581.5628,-1.0232,-0.24068,-1.25044
7.7085,69581.5728,-0.86499,-0.43371,-1.36101
7.7169,69581.5828,-0.64935,-0.77274,-1.50639
7.7247,69581.5928,-0.42089,-1.20524,-1.64078
7.7367,69581.6027,-0.1967,-1.68171,-1.77029
7.7464,69581.6127,-0.01649,-2.06839,-1.89613
7.7592,69581.6227,0.21625,-2.3836,-2.03113
7.7652,69581.6328,0.405,-2.50394,-2.13742
7.7817,69581.6428,0.58521,-2.49905,-2.24615
7.7905,69581.6528,0.66523,-2.38909,-2.31579
7.7972,69581.6628,0.62247,-2.17285,-2.34084
7.8045,69581.6727,0.53512,-2.00425,-2.32007
7.8169,69581.6827,0.41111,-1.82404,-2.26692
7.8264,69581.6928,0.35736,-1.72264,-2.23516
7.8389,69581.7037,0.35064,-1.64934,-2.24798
7.8453,69581.7138,0.33659,-1.61757,-2.28769
7.8578,69581.7238,0.27428,-1.57786,-2.34756
7.8658,69581.7338,0.19303,-1.50334,-2.39459
7.8778,69581.7438,0.09224,-1.35979,-2.41842
7.8885,69581.7537,0.00611,-1.23945,-2.40803
7.9004,69581.7637,-0.1179,-1.1411,-2.38054
7.9089,69581.7738,-0.22724,-1.15698,-2.35
7.9266,69581.7838,-0.29322,-1.20279,-2.32129
7.9287,69581.7937,-0.31521,-1.22601,-2.30724
7.9382,69581.8038,-0.3653,-1.22478,-2.30479
7.947,69581.8138,-0.41783,-1.14659,-2.29441
7.9572,69581.8237,-0.44776,-1.0177,-2.30846
7.9654,69581.8337,-0.4215,-0.88942,-2.36466
7.9781,69581.8438,-0.40073,-0.76786,-2.48928
7.9868,69581.8547,-0.41783,-0.67195,-2.64871
7.9983,69581.8648,-0.4331,-0.52657,-2.84297
8.0084,69581.8748,-0.46976,-0.35064,-2.97552
8.0223,69581.8848,-0.51007,-0.17593,-3.06654
8.0299,69581.8948,-0.57177,-0.03971,-3.10381
8.0455,69581.9047,-0.63591,-0.0055,-3.12641
8.0477,69581.9147,-0.67256,-0.08308,-3.15329
8.0585,69581.9248,-0.70188,-0.18021,-3.17467
8.0663,69581.9348,-0.73548,-0.23152,-3.16978
8.0784,69581.9448,-0.81367,-0.23824,-3.04577
8.0864,69581.9548,-0.88453,-0.21991,-2.82586
8.0983,69581.9648,-0.8998,-0.15272,-2.48317
8.1062,69581.9747,-0.89186,-0.09285,-2.18262
8.1192,69581.9847,-0.8436,-0.0281,-1.77884
8.1263,69581.9948,-0.80207,-0.0452,-1.5852
8.14,69582.0048,-0.77824,-0.07147,-1.46669
8.1481,69582.0148,-0.82406,-0.00916,-1.47829
8.1672,69582.0248,-0.95173,0.21747,-1.52838
8.1789,69582.0347,-1.06535,0.40989,-1.54549
8.1815,69582.0447,-1.17836,0.67012,-1.55038
8.1886,69582.0547,-1.26632,0.87048,-1.57481
8.1999,69582.0648,-1.38361,1.12033,-1.61818
8.2087,69582.0748,-1.53022,1.30481,-1.60474
8.2198,69582.0848,-1.75685,1.38544,-1.55404
8.2262,69582.0947,-1.95171,1.33718,-1.48624
8.242,69582.1047,-2.0409,1.30908,-1.372
8.2586,69582.1148,-2.00608,1.35246,-1.15392
8.2681,69582.1248,-1.84665,1.42942,-0.80756
8.2957,69582.1346,-1.56259,1.49662,-0.37324
8.2965,69582.1447,-0.9279,1.40071,0.59498
8.2971,69582.1546,-0.89431,1.37933,0.59498
8.2977,69582.1647,-0.83444,1.35246,0.63408
8.3131,69582.1748,-0.58887,1.25655,0.69639
8.3172,69582.1848,-0.41661,1.23028,0.64874
8.3257,69582.1948,-0.39767,1.23089,0.60842
8.3373,69582.2048,-0.44288,1.25716,0.5962
8.3457,69582.2148,-0.49663,1.34696,0.59193
8.3573,69582.2247,-0.50091,1.46913,0.6634
8.3657,69582.2347,-0.48014,1.58764,0.80512
8.3773,69582.2448,-0.45998,1.64445,1.0006
8.3878,69582.2548,-0.39462,1.60352,1.2315
8.4004,69582.2648,-0.28711,1.47646,1.48746
8.4072,69582.2748,-0.18143,1.33352,1.68477
8.4244,69582.2847,-0.05559,1.24555,1.85398
8.4366,69582.2947,0.11668,1.18691,1.96149
8.4412,69582.3048,0.42028,1.08367,2.02257
8.4506,69582.3148,0.67867,1.17469,2.11298
8.4609,69582.3248,0.82589,1.45508,2.29746
8.4761,69582.3348,0.84422,1.6756,2.5357
8.4794,69582.3447,0.71105,2.03907,2.99507
8.4875,69582.3558,0.40867,2.26875,3.58883
8.5034,69582.3658,0.08002,2.01891,4.11662
8.5083,69582.3757,-0.08858,1.46547,4.29194
8.5194,69582.3857,-0.06781,0.90836,4.27422
8.5272,69582.3958,0.1014,0.51129,4.18321
8.5428,69582.4058,0.28711,0.28588,3.98528
8.5477,69582.4158,0.40439,0.35491,3.80141
8.5613,69582.4258,0.48686,0.64752,3.6658
8.5764,69582.4357,0.48503,0.8265,3.66519
8.5876,69582.4457,0.40012,0.84177,3.77942
8.5903,69582.4558,0.27306,0.7477,3.95963
8.6016,69582.4658,-0.00183,0.49358,4.31576
8.6088,69582.4758,-0.3427,0.14539,4.65479
8.6222,69582.4858,-0.77824,-0.36835,4.94312
8.6288,69582.4957,-0.94257,-0.60292,5.04208
8.6411,69582.5057,-1.02686,-0.74892,5.12027
8.6503,69582.5158,-0.97189,-0.65668,5.14593
8.6627,69582.5258,-0.86437,-0.36163,5.12149
8.6721,69582.5358,-0.76664,0.00183,5.01398
8.6832,69582.5458,-0.68295,0.33109,4.79041
8.6906,69582.5557,-0.66157,0.53084,4.56805
8.7003,69582.5657,-0.68478,0.52534,4.29438
8.7076,69582.5758,-0.70494,0.23763,4.12395
8.7197,69582.5858,-0.65179,-0.22602,4.02438
8.7274,69582.5958,-0.62369,-0.48136,3.95657
8.7393,69582.6058,-0.69089,-0.60415,3.83135
8.7643,69582.6157,-0.81123,-0.60292,3.722
8.7689,69582.6257,-0.90469,-0.62492,3.6261
8.7704,69582.6358,-0.9218,-0.69639,3.54974
8.7815,69582.6458,-0.88392,-0.78802,3.44161
8.7881,69582.6558,-0.79168,-0.78802,3.3005
8.7993,69582.6658,-0.64996,-0.77702,3.08059
8.8087,69582.6758,-0.53451,-0.69578,2.83075
8.8193,69582.6857,-0.39828,-0.45143,2.59007
8.833,69582.6957,-0.33414,-0.24618,2.3445
8.8411,69582.7058,-0.36957,-0.14661,2.02929
8.8544,69582.7158,-0.45754,-0.18876,1.84359
8.8629,69582.7258,-0.59987,-0.29749,1.65056
8.8676,69582.7358,-0.75931,-0.41783,1.4392
8.8793,69582.7457,-0.90713,-0.53206,1.20279
8.8874,69582.7557,-1.0006,-0.52046,1.03053
8.8992,69582.7658,-1.03969,-0.42516,0.86071
8.9082,69582.7758,-1.03542,-0.37202,0.71838
8.9218,69582.7858,-0.98655,-0.40561,0.48747
8.9285,69582.7956,-0.91447,-0.5229,0.26206
8.9494,69582.8057,-0.821,-0.69578,0.01222
8.9641,69582.8157,-0.74464,-0.78313,-0.1741
8.969,69582.8268,-0.71716,-0.81001,-0.40684
8.971,69582.8367,-0.73365,-0.78741,-0.5681
8.9859,69582.8467,-0.77824,-0.70494,-0.77397
8.9894,69582.8568,-0.84238,-0.57666,-0.96211
9.0048,69582.8668,-0.92424,-0.44776,-1.22662
9.0142,69582.8768,-0.96028,-0.39584,-1.46241
9.022,69582.8868,-0.9163,-0.4722,-1.72508
9.0318,69582.8967,-0.81856,-0.59193,-1.95782
9.0414,69582.9067,-0.63958,-0.77885,-2.34511
9.0482,69582.9168,-0.50519,-0.98777,-2.73668
9.0635,69582.9268,-0.39828,-1.24555,-3.18322
9.0706,69582.9368,-0.35369,-1.45142,-3.5308
9.0798,69582.9468,-0.34086,-1.71836,-3.82524
9.088,69582.9567,-0.3427,-1.91506,-4.08669
9.0998,69582.9667,-0.38485,-1.87291,-4.35058
9.1084,69582.9768,-0.40867,-1.53388,-4.52346
9.1203,69582.9868,-0.36713,-0.97005,-4.66029
9.1287,69582.9968,-0.3146,-0.5284,-4.73543
9.1404,69583.0068,-0.22846,-0.03665,-4.76658
9.1495,69583.0167,-0.15088,0.32803,-4.74703
9.1635,69583.0267,-0.08002,0.5229,-4.71954
9.1693,69583.0368,0.04093,0.40623,-4.6945
9.1967,69583.0468,0.29566,-0.00122,-4.69939
9.2023,69583.0568,0.61025,-0.49663,-4.75742
9.204,69583.0668,0.98838,-1.03419,-4.86737
9.2154,69583.0778,1.21745,-1.43492,-4.95595
9.2254,69583.0888,1.30603,-1.82099,-5.01459
9.2373,69583.0988,1.3042,-1.96943,-5.02253
9.2463,69583.1088,1.28954,-1.92667,-5.04819
9.2515,69583.1188,1.23578,-1.73913,-5.12882
9.2633,69583.1287,1.1246,-1.55282,-5.22901
9.2779,69583.1387,1.0232,-1.40132,-5.31819
9.2865,69583.1487,0.92241,-1.15515,-5.40127
9.2913,69583.1588,0.79474,-0.82039,-5.48252
9.3106,69583.1688,0.59193,-0.4331,-5.48435
9.3118,69583.1788,0.3769,-0.12706,-5.39883
9.3248,69583.1888,0.14478,0.16616,-5.25588
9.3387,69583.1987,-0.02138,0.40684,-5.0879
9.3415,69583.2087,-0.22419,0.7086,-4.76414
9.3497,69583.2188,-0.41478,0.84849,-4.36219
9.3616,69583.2288,-0.60476,0.85155,-3.81608
9.3699,69583.2388,-0.71593,0.78741,-3.3622
9.3816,69583.2488,-0.80634,0.72632,-2.77883
9.3931,69583.2587,-0.85094,0.72265,-2.22966
9.4023,69583.2686,-0.92729,0.76114,-1.62857
9.4097,69583.2787,-1.00732,0.90652,-1.20035
9.4248,69583.2888,-1.14659,1.14843,-0.71899
9.4317,69583.2988,-1.2425,1.2877,-0.39218
9.4531,69583.3098,-1.25594,1.30786,-0.21258
9.4549,69583.3198,-1.15087,1.23456,-0.27855
9.4654,69583.3298,-0.92913,1.05435,-0.52229
9.4745,69583.3398,-0.7141,0.84544,-0.82833
9.4935,69583.3497,-0.55894,0.62614,-1.20463
9.4963,69583.3597,-0.49786,0.47403,-1.54732
9.5062,69583.3698,-0.47892,0.4105,-1.88941
9.513,69583.3798,-0.51557,0.37935,-2.21255
9.5264,69583.3898,-0.63835,0.33414,-2.56747
9.5314,69583.3998,-0.79046,0.31093,-2.92727
9.5458,69583.4097,-0.99693,0.26145,-3.27424
9.5518,69583.4197,-1.33413,0.1069,-3.49293
9.5644,69583.4307,-1.87658,-0.29199,-3.54546
9.5726,69583.4407,-2.22966,-0.67623,-3.37198
9.5879,69583.4508,-2.43185,-1.0403,-2.82586
9.6008,69583.4608,-2.61939,-1.02992,-2.08183
9.6085,69583.4707,-2.97247,-0.93218,-1.37872
9.6168,69583.4818,-3.1484,-0.81734,-1.0458
9.6278,69583.4918,-3.09464,-0.68234,-0.81734
9.6333,69583.5018,-2.81303,-0.61697,-0.54978
9.6454,69583.5118,-2.31029,-0.62736,-0.21014
9.6537,69583.5217,-1.78739,-0.52046,0.05559
9.6711,69583.5328,-1.16736,-0.41478,0.35675
9.6789,69583.5427,-0.81123,-0.45326,0.58154
9.6864,69583.5527,-0.49175,-0.562,0.89186
9.694,69583.5628,-0.281,-0.56933,1.18874
9.7135,69583.5728,0.00672,-0.38668,1.3439
9.7153,69583.5828,0.43249,-0.4893,1.32252
9.7293,69583.5928,0.99143,-0.58093,1.07146
9.737,69583.6027,1.21196,-0.41356,0.83872
9.7471,69583.6127,1.27793,-0.551,0.78007
9.7541,69583.6227,1.22967,-0.07208,0.98471
9.7655,69583.6328,0.98777,0.49052,1.36773
9.7789,69583.6428,0.75198,0.87232,1.70126
9.7882,69583.6528,0.51862,1.34207,1.92545
9.7937,69583.6628,0.35247,1.59253,1.99997
9.8054,69583.6727,0.08858,1.8723,2.06961
9.8149,69583.6827,-0.15821,2.08183,2.21378
9.8328,69583.6928,-0.39951,2.21683,2.52593
9.8345,69583.7028,-0.54795,2.19728,2.82953
9.8469,69583.7128,-0.6463,2.10199,3.27851
9.8553,69583.7238,-0.60964,1.98714,3.5589
9.8736,69583.7338,-0.51068,1.70554,3.73239
9.8769,69583.7438,-0.36102,1.43859,3.7385
9.8933,69583.7537,-0.11484,1.08978,3.587
9.8967,69583.7637,0.08063,0.80268,3.31455
9.912,69583.7738,0.24618,0.71899,2.95598
9.9158,69583.7838,0.33292,0.71349,2.77333
9.9292,69583.7938,0.41539,0.73182,2.82098
9.9362,69583.8048,0.46304,0.88392,3.13374
9.9484,69583.8148,0.46548,1.03908,3.55829
9.9561,69583.8248,0.43982,1.06779,3.91137
9.9775,69583.8348,0.3879,0.90042,4.42083
9.9809,69583.8447,0.3091,0.57482,4.86371
9.9931,69583.8547,0.16127,0.06231,5.26932
9.9991,69583.8657,0.04032,-0.37507,5.49351
10.0156,69583.8757,-0.07697,-0.6353,5.58636
10.018,69583.8856,-0.19609,-0.62492,5.58758
10.0364,69583.8958,-0.38485,-0.60537,5.55276
10.0386,69583.9058,-0.55344,-0.70066,5.53016
10.0511,69583.9158,-0.73976,-0.87293,5.49962
10.0599,69583.9258,-0.81612,-0.88698,5.521
10.0697,69583.9357,-0.77824,-0.68478,5.72931
10.0774,69583.9457,-0.78435,-0.78007,5.88385
10.0893,69583.9558,-0.80451,-0.8998,6.00297
10.0983,69583.9658,-0.84971,-1.01526,6.00969
10.1107,69583.9758,-0.90347,-1.23395,5.97609
10.1173,69583.9858,-0.9896,-1.38117,5.92234
10.1292,69583.9957,-1.17592,-1.43004,5.77817
10.1457,69584.0057,-1.34146,-1.20157,5.51
10.1541,69584.0158,-1.39461,-0.71593,4.93823
10.1571,69584.0258,-1.30236,-0.32132,4.21069
10.2163,69584.0358,-1.08367,0.01955,3.31639
10.2181,69584.0458,-0.92729,0.17654,2.71163
10.2188,69584.0557,-0.76541,0.28711,2.14902
10.2196,69584.0657,-0.66157,0.40317,2.0128
10.2215,69584.0758,-0.60048,0.64263,2.04396
10.2238,69584.0858,-0.63225,0.75992,2.16491
10.2303,69584.0958,-0.70127,0.7367,2.33228
10.2383,69584.1058,-0.7477,0.57238,2.47523
10.2519,69584.1168,-0.7703,0.29932,2.5186
10.2629,69584.1268,-0.72143,0.16188,2.43124
10.2732,69584.1368,-0.55467,0.06658,2.16552
10.2777,69584.1467,-0.33414,-0.02199,1.85031
10.2905,69584.1567,-0.06781,-0.18998,1.48135
10.2994,69584.1667,0.09774,-0.42089,1.21501
10.3095,69584.1767,0.25229,-0.78313,0.95356
10.3184,69584.1868,0.27917,-0.97738,0.79046
10.3291,69584.1968,0.18815,-0.99205,0.64752
10.3377,69584.2067,0.05559,-0.83627,0.55039
10.3494,69584.2167,-0.11973,-0.56077,0.4496
10.3577,69584.2267,-0.24007,-0.41661,0.29566
10.3694,69584.2367,-0.29383,-0.44104,0.04215
10.3778,69584.2467,-0.28405,-0.55344,-0.21136
10.3899,69584.2568,-0.20831,-0.67562,-0.48319
10.3996,69584.2667,-0.12462,-0.74831,-0.66035
10.4222,69584.2767,-0.02016,-0.77641,-0.84788
10.4291,69584.2867,0.06658,-0.73793,-0.99449
10.432,69584.2966,0.11729,-0.67989,-1.10628
10.4395,69584.3067,0.1631,-0.68661,-1.18935
10.4505,69584.3168,0.21686,-0.75931,-1.26327
10.4629,69584.3268,0.24923,-0.89919,-1.33108
10.4703,69584.3367,0.25779,-1.09528,-1.46119
10.4859,69584.3467,0.27,-1.23822,-1.61513
10.4946,69584.3567,0.32315,-1.42332,-1.94133
10.4983,69584.3667,0.43371,-1.58581,-2.33839
10.5099,69584.3768,0.5901,-1.77151,-2.85213
10.518,69584.3868,0.71288,-1.87841,-3.306
10.5313,69584.3967,0.8094,-1.83504,-3.7049
10.5379,69584.4067,0.83627,-1.65178,-3.86556
10.5495,69584.4167,0.80084,-1.34207,-3.93703
10.5638,69584.4267,0.74098,-1.02259,-3.89488
10.5731,69584.4367,0.67928,-0.66768,-3.83196
10.5867,69584.4468,0.67012,-0.46304,-3.84723
10.5965,69584.4567,0.72449,-0.40317,-3.97551
10.6016,69584.4667,0.78741,-0.53573,-4.12701
10.6113,69584.4767,0.86621,-0.8436,-4.29133
10.6182,69584.4867,0.96456,-1.16003,-4.42328
10.6351,69584.4968,1.1918,-1.5687,-4.66029
10.6444,69584.5067,1.44592,-1.8607,-4.90891
10.6559,69584.5167,1.59863,-2.03235,-5.12333
10.6609,69584.5267,1.58886,-2.08244,-5.17769
10.6765,69584.5367,1.45752,-1.96088,-5.10195
10.6788,69584.5466,1.29137,-1.67072,-4.95717
10.691,69584.5567,1.07634,-1.24739,-4.85394
10.7029,69584.5668,0.86621,-0.86682,-4.8466
10.7111,69584.5767,0.58887,-0.36041,-4.84538
10.7183,69584.5867,0.38668,0.011,-4.82095
10.7339,69584.5967,0.18509,0.35613,-4.70305
10.7399,69584.6067,0.03482,0.52046,-4.60104
10.7542,69584.6167,-0.15211,0.71105,-4.51185
10.7656,69584.6268,-0.25107,0.79474,-4.50574
10.7704,69584.6368,-0.25656,0.82284,-4.59798
10.7811,69584.6467,-0.12706,0.74464,-4.70916
10.7903,69584.6567,0.06353,0.59132,-4.74703
10.7983,69584.6667,0.25901,0.32498,-4.67129
10.8108,69584.6767,0.42577,-0.08186,-4.50147
10.8205,69584.6868,0.53878,-0.44838,-4.27239
10.832,69584.6968,0.54062,-0.89309,-4.00239
10.841,69584.7067,0.42761,-1.19363,-3.80569
10.854,69584.7167,0.12706,-1.33535,-3.68535
10.8594,69584.7267,-0.18021,-1.27854,-3.62487
10.8726,69584.7367,-0.55222,-1.10506,-3.54791
10.8789,69584.7468,-0.85521,-0.98105,-3.44895
10.8913,69584.7577,-1.18691,-0.99693,-3.24308
10.9066,69584.7677,-1.33474,-1.11239,-3.02256
10.9168,69584.7778,-1.50212,-1.28831,-2.6591
10.9191,69584.7878,-1.65117,-1.39094,-2.43308
10.9317,69584.7977,-1.97309,-1.48562,-2.12703
10.9393,69584.8077,-2.20339,-1.50639,-1.99692
10.9511,69584.8177,-2.39032,-1.43676,-1.83076
10.9592,69584.8277,-2.48133,-1.3158,-1.63651
10.9731,69584.8378,-2.60656,-1.2254,-1.31886
10.9806,69584.8478,-2.62977,-1.2987,-0.98594
10.9935,69584.8577,-2.53081,-1.37689,-0.51862
11.0007,69584.8677,-2.38237,-1.43981,-0.08796
11.0182,69584.8777,-2.18812,-1.55221,0.33292
11.0252,69584.8877,-1.96332,-1.6585,0.69578
11.0451,69584.8978,-1.69026,-1.51372,0.98105
11.0645,69584.9087,-1.34879,-1.05985,1.19913
11.0748,69584.9187,-0.97738,-0.34575,1.53938
11.0781,69584.9288,-0.6408,0.2529,2.07022
11.0795,69584.9388,-0.40806,0.63041,2.70369
11.0852,69584.9487,-0.2303,0.68173,3.18566
11.1019,69584.9587,-0.05437,0.48075,3.49843
11.1035,69584.9687,0.14539,-0.00244,3.67374
11.114,69584.9787,0.40989,-0.7141,3.82341
11.1202,69584.9888,0.6243,-1.3439,4.00239
11.134,69584.9988,0.76358,-1.95966,4.27728
11.1407,69585.0087,0.68783,-2.16246,4.41533
11.1529,69585.0187,0.38485,-1.8888,4.34142
11.1606,69585.0287,0.00122,-1.11972,4.15816
11.1731,69585.0387,-0.44593,-0.16249,3.85089
11.181,69585.0488,-0.73976,0.38973,3.52836
11.1934,69585.0588,-0.9053,0.73243,3.05433
11.2023,69585.0697,-0.8436,0.71532,2.6536
11.2177,69585.0807,-0.57055,0.35613,2.30968
11.2248,69585.0907,-0.31154,0.01772,2.11909
11.2372,69585.1008,-0.01894,-0.3824,1.92667
11.247,69585.1108,0.08369,-0.67989,1.84298
11.2545,69585.1207,0.00367,-0.956,1.85459
11.27,69585.1307,-0.20525,-1.18874,1.93644
11.2771,69585.1407,-0.43127,-1.23945,2.01952
11.2851,69585.1507,-0.60964,-1.04641,2.04945
11.2983,69585.1608,-0.8094,-0.7422,2.00242
11.3049,69585.1717,-0.92668,-0.53206,1.87658
11.3182,69585.1817,-0.90958,-0.31337,1.69698
11.3252,69585.1927,-0.79168,-0.08247,1.57237
11.339,69585.2027,-0.71471,0.06353,1.51067
11.3437,69585.2128,-0.67501,0.09957,1.51311
11.3554,69585.2228,-0.58582,0.12034,1.61146
11.3641,69585.2327,-0.52046,0.13317,1.75563
11.3754,69585.2427,-0.52534,0.13378,1.90285
11.3853,69585.2527,-0.56016,0.15699,1.96393
11.3992,69585.2627,-0.63041,0.1741,1.91201
11.4054,69585.2728,-0.62492,0.16127,1.81855
11.4187,69585.2828,-0.55344,0.10934,1.67927
11.4265,69585.2937,-0.42699,0.0843,1.59619
11.4393,69585.3038,-0.26817,0.09041,1.59253
11.4466,69585.3138,-0.135,0.0733,1.64384
11.4605,69585.3248,0.02505,0.08308,1.72753
11.4684,69585.3357,0.13989,0.11423,1.81427
11.4916,69585.3467,0.17837,0.06658,1.88208
11.495,69585.3567,0.18815,-0.03726,1.92728
11.5029,69585.3667,0.26328,-0.16677,1.97432
11.5082,69585.3767,0.33903,-0.14478,2.00425
11.5206,69585.3868,0.34392,0.05864,1.96638
11.5286,69585.3967,0.29627,0.26634,1.87108
11.5423,69585.4067,0.20953,0.50702,1.68904
11.5543,69585.4167,0.14783,0.64568,1.52044
11.5688,69585.4267,0.08613,0.74648,1.36589
11.5795,69585.4368,0.03543,0.75136,1.23639
11.5806,69585.4467,0.02443,0.68173,1.08612
11.588,69585.4567,0.03176,0.68661,0.89614
11.6004,69585.4667,-0.04826,0.82039,0.66035
11.6079,69585.4767,-0.16493,0.96272,0.44593
11.6218,69585.4867,-0.24801,1.10567,0.21808
11.6371,69585.4968,-0.28466,1.32985,-0.01161
11.6423,69585.5068,-0.31398,1.76907,-0.2529
11.6505,69585.5167,-0.28466,2.24615,-0.4893
11.667,69585.5267,-0.12462,2.72812,-0.75808
11.6717,69585.5367,0.09041,3.02012,-0.90225
11.6875,69585.5477,0.4386,3.28157,-1.12216
11.6932,69585.5577,0.78985,3.56623,-1.32741
11.705,69585.5677,1.21379,3.93825,-1.49234
11.7103,69585.5777,1.64995,4.24551,-1.58825
11.7232,69585.5878,2.01952,4.44649,-1.63529
11.7341,69585.5978,2.33106,4.63586,-1.61268
11.7441,69585.6077,2.56258,4.94679,-1.44775
11.75,69585.6177,2.58396,5.30598,-1.21562
11.7634,69585.6277,2.44224,5.8979,-0.86193
11.769,69585.6377,2.18568,6.44157,-0.58277
11.781,69585.6478,1.84359,6.893,-0.41172
11.7891,69585.6578,1.58947,7.16117,-0.34819
11.8047,69585.6677,1.2535,7.44889,-0.28894
11.8129,69585.6777,0.98166,7.58084,-0.24068
11.8213,69585.6877,0.74159,7.55762,-0.05925
11.8337,69585.6977,0.5901,7.4269,0.20525
11.8512,69585.7077,0.42516,7.05,0.63347
11.853,69585.7178,0.37813,6.6847,0.84727
11.8732,69585.7287,0.48686,5.93456,1.02381
11.8744,69585.7388,0.67501,5.36217,1.04397
11.8824,69585.7488,0.97005,4.70122,0.95417
11.8897,69585.7587,1.21073,4.24002,0.80512
11.902,69585.7687,1.43859,3.84662,0.57482
11.9098,69585.7787,1.57664,3.61266,0.30971
11.9227,69585.7887,1.67377,3.30906,0.05864
11.93,69585.7988,1.67438,3.02928,-0.13439
11.9428,69585.8088,1.57237,2.7379,-0.27245
11.9499,69585.8187,1.34757,2.46851,-0.34819
11.9717,69585.8287,1.03664,2.10993,-0.38485
11.9771,69585.8387,0.72449,1.64934,-0.37324
11.99,69585.8487,0.31704,1.13682,-0.34086
11.997,69585.8588,-0.08308,0.6524,-0.28833
12.0078,69585.8688,-0.52351,0.1014,-0.22602
12.0125,69585.8786,-0.81367,-0.35247,-0.1741
12.0278,69585.8887,-1.11177,-0.96761,-0.07636
12.03,69585.8987,-1.33291,-1.39155,-0.0055
12.0449,69585.9087,-1.53266,-1.78922,-0.0226
12.0507,69585.9187,-1.6475,-2.38665,-0.15516
12.0672,69585.9288,-1.70187,-3.17772,-0.32865
12.0736,69585.9388,-1.72631,-3.98162,-0.43616
12.0821,69585.9487,-1.80389,-4.86799,-0.54184
12.09,69585.9587,-1.91262,-5.41899,-0.63958
12.1023,69585.9687,-2.13558,-5.90462,-0.67867
12.1121,69585.9787,-2.36466,-6.32917,-0.6072
12.1278,69585.9888,-2.60656,-6.86857,-0.45693
12.1305,69585.9988,-2.755,-7.43056,-0.3934
12.1431,69586.0087,-2.83319,-7.7812,-0.39645
12.153,69586.0187,-2.9291,-7.77876,-0.44593
12.1685,69586.0287,-3.11297,-7.48676,-0.59865
12.1718,69586.0387,-3.3622,-7.24792,-0.78252
12.1841,69586.0488,-3.62365,-7.13063,-1.08795
12.1904,69586.0588,-3.54974,-6.82275,-1.44653
12.2029,69586.0687,-2.78249,-5.95533,-2.02991
12.2182,69586.0787,-2.14047,-5.15509,-2.47889
12.2236,69586.0887,-1.38911,-4.5992,-2.72873
12.2324,69586.0987,-0.87659,-4.20397,-2.73484
12.2668,69586.1087,-0.4441,-3.90099,-2.51554
12.2722,69586.1188,-0.14355,-3.41657,-2.13375
12.2729,69586.1287,0.05742,-3.12152,-1.67011
12.2763,69586.1387,0.06658,-3.30234,-1.44347
12.2835,69586.1487,0.06414,-3.5925,-1.28098
12.2954,69586.1587,0.07941,-4.05309,-1.12766
12.3074,69586.1687,0.13561,-4.43305,-0.90775
12.3144,69586.1788,0.20586,-4.565,-0.7477
12.3255,69586.1888,0.26389,-4.36891,-0.67501
12.3307,69586.1987,0.26084,-4.06775,-0.64446
12.342,69586.2087,0.1014,-3.94252,-0.53878
12.3494,69586.2187,-0.146,-3.96146,-0.31704
12.3655,69586.2287,-0.41417,-3.98712,-0.02749
12.3713,69586.2387,-0.59437,-4.07753,0.17287
12.3815,69586.2487,-0.66279,-4.06775,0.3372
12.3895,69586.2587,-0.60598,-4.06958,0.52595
12.4039,69586.2686,-0.45448,-4.04393,0.88331
12.4103,69586.2786,-0.30788,-4.11601,1.23089
12.4225,69586.2887,-0.14233,-4.30416,1.55038
12.4303,69586.2987,-0.01588,-4.47092,1.74463
12.4452,69586.3087,0.15455,-4.84844,1.93217
12.4528,69586.3187,0.35125,-5.15082,2.08305
12.4645,69586.3287,0.70738,-5.41043,2.40681
12.473,69586.3387,1.05374,-5.50145,2.80998
12.4855,69586.3487,1.4392,-5.44281,3.19727
12.4962,69586.3587,1.77273,-5.14593,3.31944
12.5052,69586.3697,2.10443,-4.49108,3.16428
12.5162,69586.3797,2.21072,-3.8008,2.80998
12.5245,69586.3897,2.04701,-3.23148,2.47034
12.5366,69586.3997,1.89124,-2.98408,2.50455
12.5433,69586.4097,1.81305,-2.9181,2.8674
12.5512,69586.4197,1.86253,-3.19544,3.33838
12.5638,69586.4297,2.06717,-3.76293,3.89304
12.5722,69586.4406,2.32556,-4.38418,4.28766
12.5872,69586.4507,2.68292,-4.87654,4.39456
12.5934,69586.4607,2.89856,-4.96084,4.20764
12.6048,69586.4707,3.03905,-4.87165,3.81363
12.613,69586.4807,3.08182,-4.72565,3.49659
12.6253,69586.4907,3.1093,-4.39395,3.29989
12.632,69586.5007,3.1093,-3.95291,3.33471
12.644,69586.5107,3.01401,-3.28951,3.75988
12.6526,69586.5207,2.88023,-2.74401,4.34447
12.6675,69586.5307,2.81181,-2.62672,4.86432
12.6736,69586.5407,2.8784,-2.91077,5.01826
12.6842,69586.5507,3.14473,-3.35609,4.88692
12.6937,69586.5607,3.52164,-3.7104,4.59737
12.7056,69586.5707,4.12639,-3.81058,4.21925
12.7226,69586.5807,4.60165,-3.55279,3.99323
12.7274,69586.5907,4.91563,-3.00118,3.99811
12.734,69586.6007,4.83683,-2.31946,4.24063
12.7516,69586.6107,4.50513,-1.55954,4.52224
12.7539,69586.6217,4.20947,-0.91569,4.63708
12.7679,69586.6317,3.91015,-0.2981,4.52224
12.7774,69586.6417,3.70307,0.04826,4.22047
12.7862,69586.6517,3.54791,0.25168,3.6658
12.7969,69586.6617,3.43978,0.33414,3.12519
12.8074,69586.6717,3.32189,0.49297,2.41842
12.8176,69586.6817,3.22598,0.57299,1.77273
12.8304,69586.6927,3.12274,0.85277,0.96272
12.8361,69586.7027,3.05799,1.32924,0.49358
12.8488,69586.7127,2.87595,2.07755,-0.0898
12.8577,69586.7227,2.57785,2.61817,-0.66401
12.8673,69586.7327,2.11604,3.0189,-1.41965
12.8759,69586.7427,1.72081,3.20338,-2.03113
12.8874,69586.7527,1.23883,3.39885,-2.74645
12.8941,69586.7627,0.86254,3.40191,-3.22598
12.9058,69586.7727,0.64141,3.2046,-3.55279
12.914,69586.7827,0.64813,2.9236,-3.61082
12.9268,69586.7927,0.73487,2.80204,-3.64625
12.934,69586.8027,0.82833,2.90283,-3.63954
12.9494,69586.8127,0.94012,3.24614,-3.63892
12.9585,69586.8227,1.00121,3.56196,-3.6768
12.9677,69586.8327,0.9896,3.91809,-3.68107
12.9834,69586.8427,0.94806,4.11784,-3.67008
12.9883,69586.8537,1.00793,4.1435,-3.82218
12.9956,69586.8637,1.15698,4.04759,-4.00117
13.0123,69586.8737,1.44347,3.83623,-4.23207
13.0175,69586.8836,1.63406,3.59739,-4.34325
13.0269,69586.8937,1.86497,3.23087,-4.48803
13.035,69586.9037,2.08,2.96453,-4.65601
13.0467,69586.9137,2.21927,2.74095,-4.79774
13.055,69586.9237,2.32801,2.66215,-4.92296
13.069,69586.9337,2.38176,2.74706,-5.05002
13.0768,69586.9437,2.33351,2.70674,-5.11233
13.0865,69586.9537,2.23454,2.5638,-5.11477
13.0948,69586.9637,2.15269,2.35183,-5.03903
13.109,69586.9737,2.03174,2.03052,-4.93152
13.115,69586.9837,1.92728,1.72142,-4.8857
13.1283,69586.9937,1.86436,1.4392,-4.92418
13.1387,69587.0037,1.84665,1.24983,-5.0207
13.1525,69587.0137,1.80144,1.0794,-5.21984
13.1605,69587.0237,1.7147,1.06718,-5.40921
13.1709,69587.0337,1.56992,1.13926,-5.56437
13.175,69587.0437,1.41354,1.20402,-5.64806
13.1905,69587.0537,1.16309,1.39155,-5.75007
13.1965,69587.0637,1.00365,1.6475,-5.82155
13.2069,69587.0737,0.83322,1.8106,-5.84598
13.2178,69587.0837,0.75564,1.69943,-5.8136
13.227,69587.0937,0.78618,1.37506,-5.78245
13.235,69587.1037,0.88514,1.07024,-5.81605
13.2471,69587.1137,1.01587,1.08123,-5.92112
13.2549,69587.1237,1.1246,1.11422,-6.05123
13.2692,69587.1337,1.14782,1.248,-6.16363
13.2822,69587.1447,0.93401,1.29442,-6.21006
13.2899,69587.1547,0.53756,1.02503,-5.99076
13.298,69587.1657,0.15272,0.75564,-5.61752
13.3083,69587.1757,-0.34636,0.55222,-5.21801
13.3185,69587.1857,-0.84299,0.3824,-4.93579
13.3295,69587.1957,-1.34146,0.2303,-4.6383
13.3367,69587.2057,-1.64201,0.11423,-4.35913
13.3489,69587.2157,-1.85581,0.18082,-3.99445
13.3567,69587.2257,-2.27792,0.78557,-3.4801
13.3708,69587.2357,-2.66765,1.25044,-2.93582
13.3766,69587.2457,-2.8338,1.42209,-2.56624
13.3883,69587.2557,-2.92116,1.17103,-2.24676
13.4016,69587.2657,-2.87718,0.80329,-1.88024
13.4095,69587.2757,-2.72079,0.13683,-1.51495
13.4168,69587.2857,-2.53143,-0.37385,-1.34268
13.4294,69587.2957,-2.29258,-0.8546,-1.08429
13.4368,69587.3057,-2.16918,-1.13926,-0.91324
13.4484,69587.3157,-2.14841,-1.46913,-0.77397
13.4598,69587.3257,-2.1478,-1.57603,-0.7648
13.4787,69587.3357,-1.92056,-1.38544,-0.78313
13.482,69587.3457,-1.65361,-1.17775,-0.79107
13.4957,69587.3557,-1.20951,-0.87904,-0.76847
13.4974,69587.3657,-0.82833,-0.33903,-0.80634
13.5095,69587.3757,-0.43005,0.19548,-0.88942
13.5178,69587.3857,-0.09346,0.3708,-0.94257
13.532,69587.3967,0.45265,0.25717,-1.05802
13.5391,69587.4067,0.96089,0.02566,-1.09039
13.5525,69587.4167,1.44714,-0.38362,-1.00426
13.5582,69587.4267,1.71592,-0.78863,-0.81978
13.5702,69587.4367,1.91812,-1.17958,-0.50702
13.5799,69587.4467,2.04029,-1.39888,-0.22785
13.5902,69587.4567,2.23638,-1.56443,0.03971
13.5984,69587.4667,2.49477,-1.60535,0.24435
13.6104,69587.4767,2.93093,-1.6475,0.46792
13.6204,69587.4867,3.32311,-1.61574,0.74526
13.6478,69587.4967,3.64015,-1.65056,1.14171
13.6615,69587.5067,3.82341,-1.82404,1.45203
13.6629,69587.5167,4.05004,-2.08733,1.64445
13.6659,69587.5277,4.31027,-2.20645,1.66766
13.6727,69587.5377,4.59554,-2.31762,1.64323
13.6812,69587.5477,4.77819,-2.22721,1.67927
13.6962,69587.5577,4.77513,-2.26081,1.88146
13.7017,69587.5677,4.6664,-2.53692,2.22233
13.7157,69587.5777,4.59859,-2.81059,2.61389
13.7206,69587.5877,4.64319,-3.0024,2.94315
13.7331,69587.5977,4.71099,-3.16245,3.28157
13.7388,69587.6077,4.70611,-3.18505,3.46422
13.7509,69587.6177,4.53018,-3.40313,3.46116
13.7587,69587.6277,4.28644,-3.60777,3.34693
13.7707,69587.6377,4.014,-3.85884,3.306
13.7817,69587.6477,3.857,-4.08363,3.35426
13.8008,69587.6577,3.77026,-4.23696,3.45566
13.8023,69587.6677,3.72322,-4.16793,3.4746
13.8158,69587.6777,3.63098,-4.07997,3.35182
13.8204,69587.6877,3.50942,-4.01583,3.24614
13.8343,69587.6977,3.24003,-3.76354,3.18444
13.8433,69587.7077,3.02439,-3.43428,3.23026
13.8519,69587.7177,2.76233,-2.90161,3.34876
13.8589,69587.7277,2.59068,-2.61389,3.42512
13.8704,69587.7375,2.39093,-2.25593,3.52103
13.8787,69587.7476,2.18079,-1.99081,3.60227
13.8926,69587.7577,1.89674,-1.80633,3.72689
13.9034,69587.7677,1.61513,-1.76235,3.84784
13.9183,69587.7777,1.32375,-1.8442,3.87777
13.9354,69587.7877,1.02137,-2.06289,3.76904
13.9362,69587.7987,0.66829,-2.34389,3.4801
13.9424,69587.8097,0.41844,-2.55647,3.28645
13.9533,69587.8197,0.16188,-2.91138,3.22476
13.9617,69587.8297,-0.00489,-3.21743,3.29745
13.9764,69587.8407,-0.16921,-3.2889,3.51186
13.9832,69587.8507,-0.26573,-3.10869,3.68352
14.0044,69587.8607,-0.33659,-2.58213,3.95169
14.008,69587.8707,-0.37568,-2.06289,4.11173
14.0255,69587.8807,-0.46426,-1.65483,4.07569
14.0282,69587.8907,-0.57116,-1.57909,3.96207
14.0357,69587.9007,-0.77336,-1.80266,3.70062
14.0423,69587.9107,-0.96028,-2.37871,3.41596
14.0547,69587.9207,-1.03053,-3.32555,3.16123
14.067,69587.9307,-0.93279,-3.96574,2.98591
14.0752,69587.9407,-0.66829,-4.54728,2.84297
14.0826,69587.9507,-0.44776,-4.85821,2.65482
14.0953,69587.9607,-0.32559,-5.15692,2.42147
14.1032,69587.9707,-0.31337,-5.54421,2.23577
14.1167,69587.9817,-0.26206,-6.00358,2.04762
14.1237,69587.9917,-0.09407,-6.37071,1.88635
14.1362,69588.0017,0.18021,-6.59551,1.7373
14.145,69588.0117,0.43555,-6.64682,1.6756
14.1652,69588.0217,0.65057,-6.7525,1.69821
14.1698,69588.0317,0.80756,-6.93271,1.75257
14.1758,69588.0417,0.92668,-7.23814,1.81916
14.1871,69588.0517,0.98655,-7.59,1.7825
14.2312,69588.0617,0.98777,-7.81602,1.59619
14.233,69588.0717,0.93279,-7.87161,1.44653
14.2341,69588.0827,0.80512,-7.75005,1.38789
14.2354,69588.0927,0.62064,-7.64987,1.45325
14.2432,69588.1027,0.36163,-7.49715,1.53938
14.2546,69588.1127,0.10324,-7.16301,1.52411
14.2558,69588.1227,-0.08125,-6.69569,1.35184
14.2657,69588.1327,-0.15577,-6.25465,1.11361
14.2793,69588.1427,-0.11729,-5.71037,0.79535
14.2875,69588.1526,-0.04398,-5.35546,0.55039
14.3058,69588.1627,0.01405,-4.98771,0.32009
14.3069,69588.1727,0.03115,-4.78979,0.14478
14.3179,69588.1827,0.05315,-4.71221,-0.06658
14.3245,69588.1927,0.07758,-4.78857,-0.15211
14.335,69588.2027,0.0281,-4.79529,-0.10446
14.3437,69588.2127,-0.11668,-4.71893,0.00305
14.3551,69588.2227,-0.32132,-4.64502,0.09224
14.3635,69588.2327,-0.47342,-4.56011,0.12828
14.3756,69588.2426,-0.57177,-4.49352,0.13989
14.3835,69588.2527,-0.60781,-4.51063,0.09835
14.3951,69588.2627,-0.76725,-4.44832,-0.01527
14.4036,69588.2727,-1.06413,-4.41411,-0.09407
14.4162,69588.2827,-1.42271,-4.34814,-0.10507
14.424,69588.2927,-1.74097,-4.24368,-0.15394
14.435,69588.3027,-1.99509,-4.0702,-0.35736
14.4435,69588.3127,-2.19301,-3.83318,-0.54489
14.455,69588.3226,-2.33045,-3.53996,-0.65973
14.4637,69588.3327,-2.38237,-3.2779,-0.71777
14.475,69588.3426,-2.34145,-2.83808,-0.8265
14.4835,69588.3527,-2.31457,-2.44835,-0.97189
14.4962,69588.3627,-2.45751,-2.39642,-1.14598
14.5043,69588.3727,-2.65116,-2.66948,-1.27854
14.5163,69588.3827,-2.80631,-3.05372,-1.45997
14.5245,69588.3927,-2.85763,-3.11297,-1.54549
14.5362,69588.4027,-2.89306,-2.5467,-1.47402
14.5443,69588.4127,-2.97247,-1.87719,-1.48746
14.5593,69588.4227,-3.31639,-1.34757,-1.72386
14.5655,69588.4327,-3.70856,-1.16553,-1.9621
14.5803,69588.4426,-4.40067,-0.95417,-2.1478
14.6,69588.4527,-5.14165,-0.96883,-2.10932
14.605,69588.4627,-5.76779,-0.82467,-1.98104
14.608,69588.4727,-6.16913,-0.38118,-1.88024
14.6179,69588.4827,-6.40614,0.17776,-1.77517
14.6257,69588.4927,-6.4092,0.60781,-1.52533
14.6367,69588.5027,-6.13248,0.8375,-1.10506
14.6442,69588.5127,-5.60958,1.01831,-0.74464
14.656,69588.5227,-4.66029,0.94867,-0.31032
14.6639,69588.5327,-3.84112,0.65485,-0.10324
14.679,69588.5427,-3.07815,0.40378,0.04154
14.6853,69588.5527,-2.63161,0.21319,0.15149
14.6967,69588.5627,-2.19178,-0.08613,0.2645
14.7094,69588.5727,-1.99875,-0.25351,0.36285
14.7246,69588.5827,-2.03968,-0.47464,0.50457
14.7267,69588.5927,-2.23821,-0.60415,0.64446
14.7402,69588.6027,-2.74278,-0.60476,0.92546
14.7474,69588.6137,-3.19177,-0.32498,1.20768
14.7578,69588.6237,-3.62365,0.19364,1.62857
14.7674,69588.6337,-3.87594,0.42394,1.86436
14.7783,69588.6437,-4.01949,0.32926,1.97432
14.7851,69588.6537,-4.07447,0.16371,2.02563
14.7971,69588.6637,-4.06042,-0.43066,2.06778
14.8052,69588.6737,-4.01827,-0.94012,1.97859
14.8207,69588.6837,-3.93092,-1.35307,1.73302
14.8297,69588.6937,-3.90954,-1.37811,1.6359
14.8375,69588.7037,-3.9297,-1.3549,1.664
14.846,69588.7137,-3.93336,-1.31703,1.76479
14.861,69588.7237,-3.87105,-1.24678,1.92361
14.866,69588.7347,-3.80997,-1.35795,2.05495
14.8787,69588.7447,-3.80203,-1.60841,2.04762
14.8861,69588.7547,-3.83318,-1.72386,1.97798
14.8978,69588.7647,-3.98223,-1.78739,1.83932
14.9065,69588.7747,-4.20886,-1.78312,1.71103
14.9222,69588.7847,-4.40923,-1.61146,1.58214
14.9278,69588.7947,-4.48436,-1.23028,1.49173
14.9463,69588.8047,-4.52162,-0.83139,1.45997
14.9582,69588.8147,-4.57843,-0.48564,1.51311
14.9614,69588.8257,-4.64441,-0.21869,1.66766
14.978,69588.8357,-4.62608,-0.12767,1.82221
14.9803,69588.8457,-4.56683,-0.14416,1.99386
14.9872,69588.8557,-4.54423,-0.12339,2.18262
14.9993,69588.8657,-4.62425,0.11362,2.40742
15.0073,69588.8757,-4.86554,0.5174,2.62122
15.0192,69588.8857,-5.27421,1.01037,2.83991
15.0271,69588.8957,-5.80872,1.48135,3.01095
15.0406,69588.9057,-6.29619,1.82343,3.11847
15.049,69588.9157,-6.46845,1.94438,3.1203
15.0614,69588.9257,-6.37316,2.00364,3.09403
15.0694,69588.9357,-6.15141,2.0183,3.12702
15.0859,69588.9457,-5.72747,2.00181,3.20888
15.0914,69588.9557,-5.26566,1.90346,3.26507
15.1075,69588.9657,-4.76536,1.60108,3.24064
15.1097,69588.9767,-4.37318,1.29015,3.22231
15.1216,69588.9867,-4.01522,1.25655,3.30234
15.1283,69588.9967,-3.99567,1.37078,3.41901
15.14,69589.0067,-4.19664,1.45936,3.58028
15.1481,69589.0167,-4.39701,1.51678,3.71834
15.1608,69589.0267,-4.58271,1.70492,3.88632
15.1729,69589.0367,-4.69328,2.00547,4.04637
15.1806,69589.0467,-4.79224,2.32923,4.22597
15.1894,69589.0567,-4.90158,2.5186,4.34325
15.2099,69589.0667,-5.09462,2.69025,4.47459
15.2267,69589.0767,-5.24978,2.77394,4.56011
15.2281,69589.0867,-5.39638,2.72263,4.56438
15.2302,69589.0967,-5.50023,2.53509,4.52285
15.2516,69589.1067,-5.63645,2.23516,4.43855
15.2542,69589.1166,-5.90279,2.10565,4.29499
15.2607,69589.1267,-6.15813,2.16307,4.20886
15.2704,69589.1367,-6.4428,2.52776,4.21497
15.2832,69589.1467,-6.75067,3.08915,4.30232
15.288,69589.1566,-6.98952,3.55218,4.35242
15.3041,69589.1667,-7.29679,3.8454,4.32676
15.3119,69589.1767,-7.5619,3.70307,4.16916
15.321,69589.1877,-7.58817,3.05249,3.87166
15.3285,69589.1976,-7.3035,2.39642,3.63648
15.34,69589.2076,-6.63277,1.44592,3.30906
15.3485,69589.2176,-5.85881,0.85338,2.98896
15.36,69589.2277,-4.97977,0.43738,2.61389
15.3685,69589.2377,-4.10196,0.02749,2.21378
15.3831,69589.2476,-3.27607,-0.3543,1.76235
15.3912,69589.2577,-2.71469,-0.48442,1.46058
15.4032,69589.2677,-2.30724,-0.46792,1.30481
15.4106,69589.2777,-2.09649,-0.40989,1.31397
15.4245,69589.2877,-1.78617,-0.33353,1.47646
15.4329,69589.2976,-1.48257,-0.38729,1.60291
15.4413,69589.3077,-0.95234,-0.61331,1.69882
15.4493,69589.3177,-0.49358,-0.88087,1.70248
15.4652,69589.3277,0.06109,-1.46119,1.64323
15.4709,69589.3387,0.34086,-2.04701,1.58153
15.4875,69589.3487,0.53084,-2.60717,1.5516
15.4946,69589.3587,0.56016,-2.97797,1.54549
15.5058,69589.3687,0.4948,-3.34143,1.43553
15.5121,69589.3787,0.46365,-3.69207,1.12644
15.5241,69589.3887,0.65668,-3.46116,0.7813
15.5325,69589.3987,0.72449,-3.53141,0.54672
15.5457,69589.4097,1.04458,-3.35976,0.42333
15.553,69589.4197,1.45142,-3.20277,0.64752
15.566,69589.4297,1.83198,-2.90589,1.1301
15.5727,69589.4396,1.88024,-2.54364,1.54305
15.5861,69589.4497,1.72569,-1.97554,1.90101
15.5927,69589.4597,1.66583,-1.60413,1.94805
15.6056,69589.4696,1.72936,-1.30847,1.73791
15.6129,69589.4797,1.9511,-1.30236,1.49357
15.6257,69589.4896,2.30541,-1.65911,1.29992
15.6329,69589.4997,2.61878,-2.16796,1.29381
15.6459,69589.5096,2.93704,-2.8112,1.44225
15.6529,69589.5197,3.16673,-3.3286,1.67011
15.6672,69589.5297,3.43428,-3.8454,1.98714
15.6735,69589.5407,3.66763,-4.37013,2.2712
15.6994,69589.5517,3.85395,-4.77086,2.50699
15.7029,69589.5627,3.82035,-4.85516,2.59312
15.7085,69589.5727,3.61021,-4.70977,2.6762
15.7167,69589.5837,3.33838,-4.36097,2.79288
15.7288,69589.5937,3.0977,-4.06225,2.87595
15.7393,69589.6037,2.88145,-3.81669,2.96575
15.7487,69589.6137,2.69636,-3.62426,3.05494
15.7549,69589.6237,2.56197,-3.43978,3.11663
15.7671,69589.6337,2.42575,-3.1148,3.19177
15.7749,69589.6437,2.25348,-2.64077,3.28401
15.7869,69589.6537,2.0128,-1.99264,3.42146
15.7962,69589.6637,1.72142,-1.32863,3.48315
15.8091,69589.6737,1.29442,-0.6243,3.33838
15.8229,69589.6836,0.88331,-0.12889,3.03844
15.8308,69589.6937,0.21747,0.39645,2.43185
15.8363,69589.7037,-0.2419,0.50641,1.99386
15.8496,69589.7137,-0.67073,0.41722,1.53327
15.8565,69589.7237,-0.84788,0.27184,1.30236
15.8707,69589.7337,-0.89309,-0.0281,1.2089
15.8775,69589.7437,-0.79535,-0.44043,1.28037
15.8897,69589.7537,-0.57116,-1.03664,1.45752
15.8965,69589.7637,-0.32681,-1.48074,1.65667
15.9094,69589.7737,0.05437,-1.94927,1.87291
15.9175,69589.7847,0.50152,-2.28464,2.14536
15.9317,69589.7957,0.99815,-2.6817,2.40192
15.9393,69589.8067,1.30359,-3.02195,2.49722
15.9558,69589.8167,1.55893,-3.31089,2.46118
15.9617,69589.8277,1.73852,-3.44895,2.33167
15.9861,69589.8376,1.92361,-3.56562,2.15208
16.0058,69589.8487,2.12581,-3.71284,1.83137
16.0068,69589.8587,2.339,-3.79286,1.36406
16.0081,69589.8687,2.44896,-3.77209,1.08062
16.0162,69589.8787,2.5919,-3.63465,0.72632
16.0272,69589.8897,2.65604,-3.43306,0.61148
16.036,69589.9007,2.60778,-3.1093,0.62675
16.0438,69589.9107,2.37443,-2.82159,0.64202
16.0541,69589.9207,1.94561,-2.51249,0.562
16.0619,69589.9307,1.50029,-2.21194,0.44532
16.0736,69589.9407,1.02686,-1.78067,0.28955
16.0842,69589.9507,0.70372,-1.44775,0.16616
16.0953,69589.9607,0.28833,-1.0287,0.0226
16.1075,69589.9707,-0.00855,-0.78802,0.0171
16.1147,69589.9807,-0.40989,-0.7025,0.11973
16.1266,69589.9907,-0.69761,-0.87232,0.21747
16.1357,69590.0007,-0.95356,-1.29992,0.37874
16.1421,69590.0107,-1.09162,-1.79411,0.56872
16.1545,69590.0207,-1.29259,-2.23149,0.72937
16.1645,69590.0307,-1.53449,-2.32862,0.77946
16.1767,69590.0407,-1.82465,-2.28647,0.83689
16.1846,69590.0507,-1.97676,-2.1588,0.87537
16.1947,69590.0607,-2.04945,-2.01586,0.83627
16.2048,69590.0707,-2.04212,-2.01341,0.75992
16.2153,69590.0807,-1.99142,-2.20034,0.69394
16.2222,69590.0907,-1.9169,-2.58152,0.65607
16.252,69590.1007,-1.83015,-3.12702,0.59987
16.2694,69590.1117,-1.75441,-3.71345,0.53329
16.27,69590.1217,-1.68049,-4.26384,0.4386
16.2715,69590.1317,-1.61696,-4.62058,0.31398
16.2851,69590.1417,-1.48746,-4.59737,0.20159
16.2867,69590.1517,-1.37017,-4.3121,0.17532
16.2958,69590.1617,-1.25594,-3.80569,0.13378
16.3046,69590.1717,-1.22967,-3.30845,0.04948
16.3171,69590.1817,-1.40316,-2.94498,-0.08063
16.3228,69590.1917,-1.66155,-2.81731,-0.19303
16.3364,69590.2017,-1.92911,-2.94865,-0.27489
16.3425,69590.2117,-2.05434,-3.30722,-0.3036
16.354,69590.2216,-2.02746,-3.85456,-0.26084
16.363,69590.2317,-1.85764,-4.22474,-0.17959
16.3759,69590.2417,-1.63834,-4.46298,-0.146
16.3907,69590.2516,-1.57725,-4.53629,-0.17226
16.4011,69590.2617,-1.59253,-4.6157,-0.28894
16.4034,69590.2717,-1.65544,-4.74826,-0.47586
16.4159,69590.2817,-1.76601,-5.0036,-0.72143
16.4277,69590.2917,-1.85337,-5.32186,-0.89919
16.4374,69590.3017,-1.93705,-5.85637,-1.11788
16.4471,69590.3117,-1.94133,-6.43608,-1.32252
16.457,69590.3227,-1.78373,-7.12086,-1.43737
16.4645,69590.3327,-1.55099,-7.59122,-1.47035
16.4767,69590.3427,-1.14232,-8.10435,-1.5125
16.4845,69590.3527,-0.73915,-8.3151,-1.55587
16.4966,69590.3627,-0.36224,-8.29494,-1.61879
16.5121,69590.3727,-0.21319,-8.08602,-1.73791
16.5219,69590.3827,-0.31704,-7.83679,-1.91751
16.5358,69590.3927,-0.58215,-7.74883,-2.07877
16.5378,69590.4027,-0.90225,-7.58511,-2.21011
16.5442,69590.4127,-1.11788,-7.40308,-2.28952
16.5566,69590.4227,-1.32497,-7.32611,-2.32984
16.5643,69590.4327,-1.46547,-7.35909,-2.21744
16.5761,69590.4426,-1.60291,-7.40308,-1.98348
16.5844,69590.4527,-1.71592,-7.14529,-1.82832
16.5965,69590.4627,-1.8216,-6.63094,-1.88574
16.6043,69590.4727,-1.95966,-6.10682,-2.02502
16.6194,69590.4827,-2.22966,-4.90342,-2.21866
16.6242,69590.4927,-2.46667,-3.78798,-2.32434
16.6398,69590.5027,-2.85152,-2.27486,-2.42636
16.6449,69590.5127,-3.21315,-1.4392,-2.45507
16.6574,69590.5227,-3.61205,-1.0458,-2.34817
16.6651,69590.5327,-3.8961,-0.95234,-2.14353
16.6884,69590.5427,-4.11112,-0.64752,-1.92972
16.6907,69590.5527,-4.2504,-0.2303,-1.76723
16.6988,69590.5627,-4.30599,0.45204,-1.57115
16.708,69590.5727,-4.31027,0.96517,-1.34207
16.7213,69590.5827,-4.25773,1.43737,-1.0965
16.7261,69590.5927,-4.16732,1.86864,-0.89553
16.737,69590.6027,-4.04454,2.24921,-0.7251
16.7446,69590.6127,-3.97246,2.34328,-0.62614
16.7587,69590.6227,-3.84418,2.39154,-0.41172
16.7643,69590.6327,-3.69757,2.59434,-0.11118
16.7788,69590.6427,-3.62426,2.94742,0.32926
16.7913,69590.6527,-3.68474,3.18261,0.75931
16.8053,69590.6627,-3.95108,3.43367,1.45569
16.807,69590.6727,-4.17099,3.67313,1.97493
16.8156,69590.6827,-4.4245,4.06286,2.58457
16.8257,69590.6927,-4.60776,4.25162,2.90772
16.8394,69590.7027,-4.79835,4.2559,3.05921
16.8443,69590.7127,-4.85882,3.9578,3.02073
16.8564,69590.7227,-4.78307,3.32127,2.90161
16.8638,69590.7327,-4.69572,2.99507,2.84724
16.8762,69590.7427,-4.60898,2.79165,2.8277
16.8841,69590.7527,-4.64868,2.94254,2.85091
16.8962,69590.7627,-4.84783,3.39091,2.85396
16.9043,69590.7727,-5.10561,3.69696,2.75134
16.917,69590.7827,-5.33408,3.95841,2.49966
16.9243,69590.7927,-5.42143,4.04515,2.2547
16.9362,69590.8027,-5.40494,4.01583,1.98837
16.9453,69590.8127,-5.27727,3.87838,1.82954
16.9577,69590.8227,-5.06102,3.61205,1.72814
16.9651,69590.8327,-4.8686,3.31211,1.70065
16.9789,69590.8427,-4.59004,3.00301,1.72264
16.9869,69590.8537,-4.31027,2.94071,1.82832
17.0027,69590.8637,-4.08119,3.05127,1.99875
17.0066,69590.8737,-3.93703,3.45811,2.10321
17.0248,69590.8837,-3.96513,3.89427,2.15208
17.0394,69590.8936,-4.08486,4.12884,2.17896
17.0462,69590.9037,-4.21131,4.24246,2.23699
17.0482,69590.9137,-4.23146,4.14655,2.27792
17.0656,69590.9237,-4.15755,4.05126,2.30602
17.0675,69590.9337,-4.07325,4.11479,2.29319
17.0772,69590.9437,-4.01522,4.21925,2.32251
17.0867,69590.9537,-4.00483,4.27911,2.38726
17.1,69590.9637,-3.98651,4.32065,2.46118
17.1164,69590.9737,-3.90465,4.33165,2.46667
17.1194,69590.9837,-3.7049,4.45809,2.42147
17.1307,69590.9935,-3.53263,4.71344,2.40681
17.1391,69591.0037,-3.4349,4.94495,2.44774
17.1469,69591.0137,-3.49171,4.97855,2.51371
17.158,69591.0237,-3.67008,5.05674,2.62977
17.1709,69591.0337,-3.8961,5.21557,2.66948
17.1837,69591.0437,-4.15572,5.41715,2.65787
17.1878,69591.0536,-4.43733,5.61263,2.66215
17.2003,69591.0637,-4.77086,6.00725,2.71407
17.212,69591.0737,-4.96389,6.44218,2.82098
17.228,69591.0837,-5.21129,7.03534,3.03172
17.2316,69591.0936,-5.44037,7.41224,3.14901
17.2461,69591.1037,-5.70365,7.40063,3.12152
17.2503,69591.1137,-5.8191,7.24669,2.92482
17.262,69591.1237,-5.77879,6.87223,2.58885
17.2694,69591.1337,-5.59858,6.3927,2.32068
17.281,69591.1437,-5.14287,5.55826,2.04029
17.3061,69591.1547,-4.60837,4.93335,1.96699
17.3102,69591.1647,-3.89366,4.3347,1.9621
17.3126,69591.1747,-3.32311,3.8289,1.93217
17.325,69591.1847,-2.58335,2.95598,1.78739
17.3276,69591.1947,-1.93095,2.00181,1.52411
17.3412,69591.2047,-1.20829,0.8717,1.04702
17.3474,69591.2147,-0.85399,0.38301,0.73243
17.3572,69591.2247,-0.4893,0.00611,0.33903
17.3656,69591.2347,-0.31032,0,0.14966
17.3771,69591.2447,-0.24374,0.24618,0.10629
17.3854,69591.2546,-0.30849,0.49847,0.20159
17.397,69591.2646,-0.51801,0.85949,0.37629
17.4056,69591.2747,-0.73487,1.0739,0.61636
17.4169,69591.2846,-0.99449,1.20402,0.92729
17.4255,69591.2946,-1.2034,1.21807,1.21012
17.437,69591.3046,-1.34818,1.08429,1.50639
17.4455,69591.3146,-1.31947,0.7703,1.8723
17.4578,69591.3247,-1.0794,0.11729,2.33839
17.4769,69591.3347,-0.75869,-0.65973,2.73912
17.4808,69591.3445,-0.3879,-1.34329,3.10686
17.494,69591.3546,-0.13744,-1.63834,3.26141
17.501,69591.3657,0.1631,-1.97798,3.38053
17.5105,69591.3756,0.29138,-2.19606,3.38603
17.5249,69591.3856,0.36469,-2.49172,3.36831
17.5312,69591.3956,0.38607,-2.6426,3.33288
17.5412,69591.4056,0.39584,-2.50271,3.26996
17.5504,69591.4157,0.33903,-2.28097,3.19971
17.5664,69591.4266,0.24618,-2.00975,3.11847
17.5713,69591.4367,0.19975,-1.81732,3.07937
17.5857,69591.4467,0.27,-1.69454,3.13313
17.5926,69591.4566,0.50519,-1.85214,3.27912
17.6007,69591.4666,0.89736,-2.08488,3.45444
17.6087,69591.4766,1.32802,-2.27731,3.49904
17.6209,69591.4866,1.74402,-2.45446,3.37992
17.635,69591.4967,1.96027,-2.46973,3.19177
17.6442,69591.5067,1.91995,-2.36771,3.03417
17.6489,69591.5165,1.71409,-2.26692,3.00668
17.6722,69591.5266,1.23639,-1.9957,3.04516
17.6742,69591.5366,0.69822,-1.73913,3.06471
17.6844,69591.5465,0.15882,-1.71897,3.02317
17.6903,69591.5566,-0.18448,-1.89246,2.87656
17.7015,69591.5667,-0.51374,-2.35916,2.56991
17.7095,69591.5766,-0.71899,-2.88756,2.25898
17.7263,69591.5866,-0.89736,-3.4068,1.8723
17.7293,69591.5966,-0.93401,-3.61205,1.6249
17.7408,69591.6066,-0.93157,-3.77942,1.44653
17.7486,69591.6166,-0.93096,-3.69818,1.37506
17.7607,69591.6267,-1.03481,-3.45872,1.38361
17.7698,69591.6367,-1.19668,-3.31822,1.46852
17.781,69591.6466,-1.33535,-3.35732,1.62612
17.7884,69591.6566,-1.40927,-3.45689,1.81732
17.8019,69591.6666,-1.39949,-3.4294,1.96088
17.8173,69591.6766,-1.30664,-3.2498,2.04396
17.8265,69591.6867,-1.17347,-3.15695,2.14475
17.834,69591.6967,-1.04214,-3.14779,2.20034
17.8484,69591.7066,-0.87598,-3.33899,2.19301
17.8525,69591.7166,-0.79046,-3.81669,2.12581
17.864,69591.7266,-0.70188,-4.419,2.04029
17.8698,69591.7365,-0.65851,-4.80446,2.03113
17.8797,69591.7466,-0.64691,-4.96817,2.05617
17.8879,69591.7567,-0.71532,-4.60837,2.05251
17.9023,69591.7666,-0.93707,-3.83379,1.97737
17.908,69591.7766,-1.11361,-3.39213,1.82588
17.9202,69591.7866,-1.30236,-2.90161,1.59191
17.9277,69591.7966,-1.32924,-2.80937,1.3213
17.9397,69591.8066,-1.19546,-3.0641,1.07879
17.9477,69591.8167,-1.01892,-3.55646,0.9841
17.9595,69591.8267,-0.87904,-4.08425,0.94195
17.9688,69591.8366,-0.84177,-4.56683,0.93035
17.9824,69591.8466,-0.92424,-4.83683,0.95295
17.9927,69591.8566,-1.01404,-4.75253,1.03053
18.0028,69591.8666,-1.11788,-4.41411,1.18447
18.0111,69591.8776,-1.1973,-4.14044,1.26327
18.0231,69591.8876,-1.2816,-4.02682,1.21807
18.0329,69591.8977,-1.3604,-4.14472,1.10261
18.0471,69591.9077,-1.44836,-4.40373,0.96517
18.0511,69591.9176,-1.51189,-4.66457,0.87842
18.0605,69591.9276,-1.56015,-4.80934,0.81306
18.0704,69591.9376,-1.65239,-4.82767,0.79046
18.0825,69591.9476,-1.78617,-4.70122,0.79229
18.0908,69591.9576,-1.85947,-4.45382,0.76908
18.1018,69591.9677,-1.88269,-4.06348,0.686
18.1087,69591.9776,-1.8106,-3.70856,0.62858
18.1225,69591.9876,-1.59986,-3.42695,0.53451
18.1326,69591.9976,-1.4056,-3.19544,0.43677
18.1518,69592.0076,-1.13254,-3.02867,0.32376
18.1545,69592.0176,-0.90469,-2.96514,0.22663
18.1621,69592.0277,-0.70311,-2.9572,0.12217
18.1695,69592.0377,-0.60353,-3.07571,0.10629
18.2122,69592.0476,-0.59376,-3.36465,0.24251
18.2131,69592.0587,-0.65973,-3.65603,0.5229
18.2137,69592.0686,-0.78802,-3.99628,0.88453
18.2145,69592.0786,-0.93157,-4.29622,1.12033
18.2227,69592.0886,-1.08917,-4.7171,1.35184
18.2318,69592.0986,-1.0849,-5.0262,1.45569
18.2434,69592.1087,-0.92546,-5.23573,1.43431
18.254,69592.1187,-0.71899,-5.35851,1.372
18.264,69592.1286,-0.54917,-5.3188,1.39705
18.2754,69592.1386,-0.49114,-5.17159,1.44836
18.2819,69592.1486,-0.49602,-5.03231,1.45203
18.2899,69592.1586,-0.51435,-4.95656,1.39583
18.3065,69592.1686,-0.53145,-4.82034,1.33291
18.3119,69592.1787,-0.53084,-4.81301,1.32436
18.3212,69592.1887,-0.47281,-5.01276,1.37384
18.3304,69592.1986,-0.36652,-5.24428,1.38361
18.3418,69592.2086,-0.20342,-5.45442,1.34635
18.3494,69592.2186,-0.00733,-5.55276,1.29259
18.3615,69592.2286,0.15699,-5.54849,1.2315
18.3693,69592.2387,0.13561,-5.6786,1.23822
18.381,69592.2487,-0.00672,-5.926,1.24983
18.3893,69592.2586,-0.04643,-6.14897,1.22784
18.4062,69592.2686,0.18021,-6.25465,1.13743
18.4139,69592.2786,0.58521,-6.01947,1.02748
18.4234,69592.2886,1.15331,-5.70304,0.99815
18.4304,69592.2987,1.5687,-5.3634,0.9615
18.4432,69592.3087,2.00425,-4.64074,0.88514
18.4533,69592.3196,2.34878,-4.0085,0.80451
18.4639,69592.3297,2.56014,-3.54546,0.7813
18.48,69592.3397,2.76539,-3.22964,0.7532
18.4941,69592.3496,3.19727,-2.82281,0.69761
18.4961,69592.3607,3.82646,-2.41109,0.58277
18.513,69592.3706,4.48131,-2.15025,0.29993
18.5147,69592.3806,4.93029,-2.06717,-0.04826
18.5304,69592.3906,5.2962,-1.66583,-0.59315
18.5322,69592.4006,5.26322,-1.01037,-0.94684
18.5466,69592.4107,4.78369,-0.3543,-0.94257
18.5529,69592.4207,4.11418,0.05498,-0.62308
18.5647,69592.4306,3.46177,0.59376,-0.26573
18.575,69592.4406,3.08792,1.00121,0.00305
18.5844,69592.4506,3.02684,1.26755,0.07636
18.5943,69592.4606,3.23392,1.28037,-0.10079
18.6075,69592.4707,3.5534,1.05191,-0.41356
18.6143,69592.4807,3.91626,0.75747,-0.7086
18.6275,69592.4906,4.25468,0.65179,-0.96883
18.6353,69592.5006,4.45748,0.83444,-1.21623
18.6464,69592.5106,4.58882,1.17714,-1.50517
18.6537,69592.5206,4.6102,1.62796,-1.7764
18.6646,69592.5306,4.64746,2.33961,-2.1643
18.6723,69592.5407,4.64807,3.07815,-2.52165
18.6844,69592.5507,4.64685,3.87044,-2.8955
18.6922,69592.5606,4.67129,4.41289,-3.16856
18.7043,69592.5706,4.78491,4.95595,-3.3622
18.7122,69592.5806,4.93213,5.34996,-3.44895
18.7291,69592.5906,5.14776,5.5827,-3.56745
18.7344,69592.6007,5.33102,5.58942,-3.67435
18.7565,69592.6107,5.67616,5.49412,-3.85456
18.7592,69592.6206,5.96632,5.30353,-3.98406
18.7761,69592.6306,6.14347,5.00604,-4.13739
18.7781,69592.6406,6.15997,4.68228,-4.37318
18.7858,69592.6506,6.09705,4.15877,-4.68534
18.7987,69592.6607,5.96449,3.74644,-5.0879
18.8138,69592.6707,5.59369,3.30478,-5.55887
18.8178,69592.6806,5.1893,2.97919,-5.77512
18.831,69592.6906,4.6328,2.65543,-5.88019
18.8329,69592.7006,4.00789,2.40131,-5.8191
18.8444,69592.7106,3.34265,2.1197,-5.60652
18.8585,69592.7207,2.91016,1.96576,-5.36156
18.8669,69592.7307,2.5522,1.83993,-5.10195
18.8762,69592.7406,2.31579,1.64017,-5.05491
18.8864,69592.7506,1.98898,1.35551,-5.21801
18.8928,69592.7606,1.71714,1.1411,-5.31025
18.9046,69592.7706,1.41049,0.86132,-5.37012
18.9123,69592.7806,0.978,0.27184,-5.61263
18.9244,69592.7907,0.99754,-0.39889,-5.70243
18.9354,69592.8007,1.39522,-0.67745,-5.66639
18.9485,69592.8106,1.71287,-0.76053,-5.52955
18.9578,69592.8206,1.86008,-0.80084,-5.3353
18.9658,69592.8306,1.98287,-0.62125,-5.15265
18.972,69592.8406,2.02746,-0.3262,-5.08545
18.985,69592.8507,2.02196,-0.15333,-5.00848
18.9922,69592.8607,2.02257,-0.1741,-4.97672
19.0044,69592.8706,2.04823,-0.27,-4.95351
19.0151,69592.8806,2.0464,-0.50274,-4.90158
19.0264,69592.8906,1.96515,-0.99266,-4.84599
19.034,69592.9006,1.87597,-1.51067,-4.85699
19.046,69592.9107,1.7654,-1.96393,-4.95228
19.0551,69592.9207,1.69759,-2.14292,-5.05491
19.0654,69592.9306,1.59069,-2.27364,-5.13127
19.0736,69592.9417,1.50395,-2.29563,-5.15998
19.0913,69592.9517,1.38544,-2.25715,-5.17953
19.0947,69592.9616,1.20157,-2.26509,-5.1783
19.1068,69592.9716,0.84727,-2.33167,-5.14043
19.1139,69592.9816,0.46487,-2.44041,-5.06529
19.1324,69592.9916,0.06109,-2.58518,-4.93701
19.142,69593.0017,-0.21625,-2.68597,-4.8295
19.1522,69593.0126,-0.53145,-2.78616,-4.66762
19.1674,69593.0227,-0.63958,-2.76905,-4.57355
19.172,69593.0336,-0.68478,-2.62855,-4.52162
19.1759,69593.0436,-0.65851,-2.32129,-4.5369
19.1902,69593.0537,-0.65668,-1.86986,-4.55583
19.1967,69593.0637,-0.77274,-1.50639,-4.52162
19.2157,69593.0736,-0.97983,-1.21929,-4.43488
19.2181,69593.0836,-1.22234,-1.02076,-4.29377
19.2399,69593.0936,-1.44653,-0.87842,-4.0873
19.2436,69593.1036,-1.57237,-0.81795,-3.87777
19.2482,69593.1137,-1.68232,-0.90897,-3.6768
19.2563,69593.1237,-1.75624,-1.11972,-3.57051
19.268,69593.1336,-1.83809,-1.43737,-3.46727
19.2774,69593.1436,-1.85642,-1.62429,-3.39091
19.2945,69593.1536,-1.83076,-1.59314,-3.27241
19.2963,69593.1636,-1.79717,-1.44409,-3.17344
19.3112,69593.1737,-1.75441,-1.21318,-3.05249
19.3179,69593.1837,-1.72386,-1.09101,-2.97003
19.3284,69593.1946,-1.75502,-0.92424,-2.88695
19.3372,69593.2047,-1.84054,-0.78313,-2.77638
19.3474,69593.2147,-2.0464,-0.56994,-2.58274
19.3556,69593.2246,-2.29746,-0.35003,-2.38909
19.3675,69593.2346,-2.61756,-0.09835,-2.16368
19.3757,69593.2446,-2.87595,0.10873,-2.02196
19.3897,69593.2546,-3.22659,0.35064,-1.91384
19.3957,69593.2647,-3.49781,0.53695,-1.89551
19.4117,69593.2747,-3.74155,0.84483,-1.92239
19.4173,69593.2846,-3.86922,1.08306,-1.93583
19.4286,69593.2946,-3.99628,1.51189,-1.95416
19.4363,69593.3046,-4.15266,1.934,-1.98653
19.4492,69593.3146,-4.42755,2.27181,-2.06289
19.4568,69593.3247,-4.79835,2.37077,-2.1252
19.4695,69593.3347,-5.13921,2.3671,-2.17224
19.4771,69593.3446,-5.29376,2.3616,-2.26631
19.4911,69593.3546,-5.32736,2.33228,-2.46606
19.4973,69593.3646,-5.20702,2.30418,-2.60534
19.5098,69593.3746,-4.89547,2.31518,-2.72202
19.518,69593.3847,-4.57966,2.20522,-2.75256
19.5308,69593.3947,-4.15694,1.8607,-2.72202
19.5382,69593.4046,-3.78981,1.65667,-2.68109
19.5498,69593.4146,-3.38236,1.51922,-2.64627
19.5572,69593.4246,-3.11969,1.45814,-2.62916
19.571,69593.4346,-2.92055,1.41354,-2.66521
19.579,69593.4456,-2.87168,1.0458,-2.8167
19.5951,69593.4556,-2.88512,0.46304,-3.04333
19.5997,69593.4656,-2.87168,0.01894,-3.18505
19.6125,69593.4766,-2.78799,-0.42211,-3.27485
19.6182,69593.4866,-2.70064,-0.50519,-3.20582
19.6307,69593.4967,-2.67192,-0.34453,-2.98408
19.638,69593.5067,-2.71285,-0.2474,-2.78127
19.6525,69593.5166,-2.73607,-0.1967,-2.61939
19.6606,69593.5266,-2.72507,-0.1576,-2.47278
19.6726,69593.5366,-2.66032,-0.26389,-2.18751
19.678,69593.5466,-2.49355,-0.34331,-1.99142
19.6905,69593.5566,-2.11909,-0.50396,-1.73302
19.6982,69593.5667,-1.69332,-0.77702,-1.55832
19.7104,69593.5766,-1.2254,-1.14965,-1.45508
19.7181,69593.5866,-0.94318,-1.47585,-1.42087
19.7322,69593.5966,-0.74403,-2.05862,-1.38727
19.7402,69593.6066,-0.62797,-2.4288,-1.32497
19.753,69593.6166,-0.29444,-2.22477,-1.11972
19.7762,69593.6276,0.18082,-1.73547,-0.74648
19.7783,69593.6376,0.77458,-1.25411,-0.15516
19.7836,69593.6477,1.25472,-0.94623,0.39034
19.7935,69593.6577,1.66888,-0.83261,0.83139
19.8008,69593.6676,1.89735,-0.96211,0.99143
19.8143,69593.6776,2.18629,-1.31886,0.98349
19.8207,69593.6876,2.41597,-1.62368,0.99754
19.8331,69593.6976,2.80265,-1.71103,0.97128
19.8431,69593.7077,3.15939,-1.61391,0.87109
19.8533,69593.7177,3.44528,-1.48624,0.69761
19.8651,69593.7286,3.63587,-1.26693,0.60292
19.8744,69593.7387,3.69451,-1.14598,0.64874
19.8811,69593.7486,3.67252,-1.14904,0.78863
19.8935,69593.7586,3.57539,-1.13621,0.9108
19.9022,69593.7686,3.48438,-1.09528,0.96028
19.9233,69593.7786,3.42023,-1.00915,0.98288
19.9276,69593.7886,3.42695,-0.9444,1.00304
19.9325,69593.7987,3.5137,-0.98533,1.0568
19.94,69593.8087,3.61266,-1.10444,1.10811
19.9522,69593.8186,3.74521,-0.98227,1.23273
19.9604,69593.8286,3.89793,-0.9163,1.36712
19.9723,69593.8386,4.02499,-1.31458,1.47646
19.9802,69593.8486,4.02072,-1.5406,1.46791
19.9927,69593.8587,3.86678,-1.91934,1.38178
20.003,69593.8696,3.69879,-2.68964,1.34085
20.0156,69593.8796,3.55768,-3.51125,1.35001
20.0235,69593.8897,3.54241,-4.01033,1.40866
20.0341,69593.8997,3.68902,-4.53079,1.49662
20.0463,69593.9096,3.84601,-4.73421,1.52411
20.0533,69593.9196,4.07447,-4.79041,1.48685
20.0623,69593.9296,4.22535,-4.72199,1.43126
20.0744,69593.9406,4.29805,-4.37013,1.32008
20.0934,69593.9506,4.18321,-4.10624,1.26327
20.0975,69593.9606,3.97429,-3.91992,1.26755
20.1025,69593.9706,3.75926,-3.9413,1.32252
20.1196,69593.9807,3.44711,-4.17832,1.39766
20.124,69593.9906,3.20338,-4.26445,1.46608
20.1358,69594.0006,2.98591,-4.01277,1.56565
20.1425,69594.0106,2.81853,-3.53019,1.65483
20.1549,69594.0206,2.54548,-2.74706,1.7037
20.1683,69594.0306,2.16674,-2.05556,1.69759
20.1784,69594.0407,1.61024,-1.41599,1.67866
20.185,69594.0506,1.11727,-1.02992,1.69882
20.1945,69594.0606,0.53817,-0.64507,1.82771
20.2165,69594.0706,0.20036,-0.48808,2.00058
20.2178,69594.0806,-0.00977,-0.62614,2.17163
20.2271,69594.0906,-0.10568,-1.00426,2.26936
20.2404,69594.1007,-0.07575,-1.50273,2.339
20.2533,69594.1116,0.05437,-2.08855,2.34145
20.2567,69594.1217,0.20097,-2.48317,2.24371
20.2638,69594.1317,0.33537,-2.66337,2.15269
20.2909,69594.1416,0.53267,-2.73912,2.0861
20.2948,69594.1516,0.78985,-2.72202,2.02868
20.2985,69594.1616,1.16797,-2.65543,1.96699
20.3104,69594.1716,1.44347,-2.5864,1.8668
20.318,69594.1816,1.70615,-2.47767,1.65422
20.3244,69594.1917,1.84848,-2.41475,1.47035
20.3352,69594.2017,1.81183,-2.3219,1.26205
20.3463,69594.2116,1.6585,-2.16796,1.1582
20.3553,69594.2216,1.51433,-2.03235,1.05802
20.3635,69594.2316,1.44286,-1.97676,0.95539
20.3752,69594.2416,1.37689,-2.06778,0.76175
20.3854,69594.2517,1.36284,-2.40864,0.62736
20.3952,69594.2626,1.50945,-2.99324,0.56261
20.4052,69594.2727,1.76174,-3.49965,0.53634
20.4152,69594.2827,2.15635,-4.22047,0.5003
20.4253,69594.2926,2.42086,-4.81301,0.46487
20.4398,69594.3026,2.53876,-5.32858,0.38057
20.4453,69594.3126,2.51799,-5.66211,0.31154
20.4572,69594.3226,2.45812,-5.9822,0.24007
20.4642,69594.3326,2.41903,-6.17157,0.17959
20.4763,69594.3427,2.4007,-6.27847,0.11362
20.485,69594.3527,2.38421,-6.28764,0.07269
20.4966,69594.3626,2.32129,-6.17768,0.01405
20.5082,69594.3726,2.19789,-6.06162,-0.01955
20.5182,69594.3826,1.99448,-6.04024,-0.02688
20.526,69594.3926,1.80999,-6.03901,-0.01405
20.5407,69594.4027,1.7373,-6.11171,-0.00855
20.5528,69594.4126,1.81244,-6.24976,-0.05986
20.5585,69594.4226,2.04579,-6.47395,-0.1631
20.5682,69594.4326,2.31823,-6.52038,-0.20708
20.5774,69594.4426,2.53204,-6.34689,-0.12584
20.5846,69594.4526,2.63466,-5.99809,0.02138
20.5961,69594.4627,2.60168,-5.40127,0.19426
20.6079,69594.4727,2.47767,-4.72626,0.31765
20.6185,69594.4826,2.25226,-4.10624,0.42089
20.6271,69594.4926,2.05556,-3.92053,0.43005
20.6388,69594.5026,1.83748,-3.99506,0.36102
20.6441,69594.5126,1.69943,-4.21436,0.25107
20.6567,69594.5227,1.58581,-4.45687,0.15394
20.6638,69594.5327,1.54427,-4.54667,0.09896
20.6791,69594.5426,1.49906,-4.48375,0.06475
20.6844,69594.5526,1.44714,-4.13311,0.08552
20.6966,69594.5626,1.37078,-3.49048,0.13744
20.7105,69594.5725,1.29687,-2.95903,0.16799
20.7194,69594.5827,1.113,-2.43247,0.16982
20.7257,69594.5936,0.91447,-2.30479,0.146
20.7402,69594.6046,0.7141,-2.47339,0.12828
20.7462,69594.6146,0.56505,-2.75867,0.13317
20.7582,69594.6246,0.416,-3.1203,0.12645
20.7797,69594.6347,0.27733,-3.42756,0.14294
20.7814,69594.6447,0.12645,-3.52836,0.24129
20.7935,69594.6546,0.02443,-3.37931,0.32254
20.7997,69594.6646,-0.10079,-3.11663,0.38301
20.8092,69594.6746,-0.21869,-2.92482,0.3824
20.8234,69594.6846,-0.3769,-2.71652,0.33353
20.8262,69594.6946,-0.53451,-2.55342,0.26695
20.8381,69594.7047,-0.79474,-2.46728,0.14539
20.8464,69594.7146,-1.04824,-2.65177,-0.01222
20.8581,69594.7246,-1.32069,-3.05494,-0.20892
20.867,69594.7346,-1.4899,-3.3225,-0.29566
20.8819,69594.7446,-1.61024,-3.40313,-0.27184
20.8916,69594.7546,-1.70065,-3.21865,-0.20159
20.8991,69594.7647,-1.79167,-2.71407,-0.14355
20.9076,69594.7746,-1.86131,-2.20278,-0.15149
20.9231,69594.7857,-2.01952,-1.74952,-0.19181
20.9277,69594.7957,-2.29013,-1.45997,-0.2474
20.9395,69594.8056,-2.62244,-1.13254,-0.3262
20.9512,69594.8156,-2.87168,-0.91324,-0.40745
20.9673,69594.8256,-3.09831,-0.75808,-0.43555
20.973,69594.8356,-3.30112,-0.72876,-0.43921
20.9812,69594.8457,-3.50514,-0.84788,-0.45937
20.9879,69594.8557,-3.62671,-0.95417,-0.51252
21.0076,69594.8656,-3.62915,-0.93523,-0.57482
21.0095,69594.8756,-3.5534,-0.80573,-0.55283
21.0186,69594.8856,-3.44223,-0.43433,-0.41966
21.0272,69594.8956,-3.41596,-0.12095,-0.27428
21.0424,69594.9056,-3.48254,0.20586,-0.10751
21.0488,69594.9157,-3.60838,0.35919,-0.01283
21.0623,69594.9257,-3.83929,0.61697,0.1014
21.0674,69594.9356,-4.04515,0.91447,0.20525
21.079,69594.9456,-4.25468,1.12705,0.32681
21.0866,69594.9556,-4.3628,1.18325,0.41661
21.0986,69594.9656,-4.42389,1.1863,0.53267
21.1085,69594.9757,-4.40678,1.15576,0.5791
21.122,69594.9866,-4.36402,1.03664,0.57299
21.1362,69594.9967,-4.31515,0.94195,0.56322
21.148,69595.0067,-4.23269,1.03175,0.60353
21.1588,69595.0165,-4.12029,1.34207,0.71654
21.1607,69595.0266,-4.07936,1.59986,0.87354
21.1689,69595.0366,-3.95902,1.62979,0.97616
21.1794,69595.0466,-3.77759,1.52044,1.01709
21.1897,69595.0566,-3.64564,1.37017,1.11055
21.2006,69595.0676,-3.52164,1.19485,1.25166
21.2175,69595.0776,-3.47582,1.09162,1.31153
21.2267,69595.0877,-3.48682,0.956,1.33596
21.2311,69595.0977,-3.50942,0.90103,1.33902
21.2424,69595.1076,-3.57295,1.03053,1.42209
21.2484,69595.1176,-3.68779,1.15576,1.43004
21.2639,69595.1276,-3.71406,1.04153,1.32497
21.2684,69595.1376,-3.71895,0.94073,1.28221
21.2806,69595.1476,-3.72383,0.90408,1.32863
21.2947,69595.1576,-3.75438,0.99082,1.40377
21.2999,69595.1676,-3.86311,1.18019,1.49601
21.3084,69595.1776,-4.01583,1.4563,1.54427
21.323,69595.1876,-4.23207,1.74585,1.57237
21.3284,69595.1976,-4.35669,1.70309,1.54732
21.3409,69595.2076,-4.44038,1.51678,1.46485
21.3489,69595.2176,-4.45076,1.518,1.4447
21.3599,69595.2276,-4.47948,1.71103,1.52777
21.3683,69595.2376,-4.54484,2.00303,1.6304
21.3798,69595.2475,-4.5711,2.45995,1.71959
21.3889,69595.2576,-4.54056,2.93704,1.79106
21.3998,69595.2676,-4.49414,3.55646,1.93033
21.4097,69595.2776,-4.38479,4.01522,2.14597
21.4239,69595.2876,-4.21008,4.19664,2.35672
21.4298,69595.2976,-4.04026,4.11784,2.40864
21.445,69595.3076,-3.77393,3.80386,2.41109
21.4543,69595.3176,-3.57906,3.441,2.50027
21.4647,69595.3286,-3.38297,3.05982,2.63772
21.4821,69595.3396,-3.35243,3.07571,2.69819
21.4889,69595.3506,-3.46849,3.53691,2.85335
21.4931,69595.3606,-3.67252,4.22169,3.05555
21.5194,69595.3706,-3.97368,4.87409,3.26691
21.5233,69595.3805,-4.24612,5.32858,3.54058
21.5289,69595.3906,-4.39151,5.78856,3.90954
21.5329,69595.4006,-4.34814,5.97793,4.02438
21.546,69595.4116,-4.09463,5.99625,4.04332
21.5532,69595.4216,-3.70856,5.95471,4.02377
21.5652,69595.4316,-3.24675,5.84781,4.05615
21.573,69595.4416,-2.87534,5.7403,4.05004
21.5864,69595.4516,-2.50149,5.60163,3.92603
21.5951,69595.4616,-2.25593,5.47824,3.72567
21.6071,69595.4716,-1.96454,5.24733,3.4294
21.6277,69595.4816,-1.75746,5.05002,3.24003
21.6371,69595.4926,-1.67133,5.05613,3.11297
21.6406,69595.5026,-1.76051,5.19174,3.09098
21.6511,69595.5126,-2.04579,5.50206,3.05677
21.6623,69595.5236,-2.40498,5.76901,2.95292
21.6732,69595.5336,-2.65299,6.06101,2.75989
21.6795,69595.5436,-2.78127,6.2913,2.52165
21.6941,69595.5546,-2.7379,6.7128,2.31823
21.6965,69595.5646,-2.68964,6.86124,2.30479
21.7113,69595.5746,-2.68414,6.77022,2.32312
21.717,69595.5846,-2.64444,6.40004,2.32495
21.7287,69595.5945,-2.4514,5.84293,2.23699
21.7449,69595.6046,-2.14902,5.2846,2.04151
21.7603,69595.6146,-1.72875,4.65357,1.67133
21.7626,69595.6246,-1.41904,4.2675,1.34635
21.7687,69595.6346,-1.13193,3.85334,0.98777
21.7807,69595.6446,-1.01709,3.59677,0.78679
21.7926,69595.6546,-0.99449,3.45322,0.70677
21.7991,69595.6646,-1.05008,3.55462,0.72571
21.8181,69595.6746,-1.20646,3.84418,0.76175
21.8196,69595.6856,-1.44653,4.01461,0.75869
21.8393,69595.6956,-1.66583,3.89243,0.70555
21.8414,69595.7056,-1.85825,3.53324,0.5736
21.8492,69595.7156,-1.97187,3.11236,0.32559
21.8571,69595.7256,-1.98409,2.79837,0.07025
21.8709,69595.7356,-1.99264,2.46362,-0.16921
21.8771,69595.7456,-2.06045,2.24188,-0.27917
21.8898,69595.7554,-2.25959,2.16002,-0.35675
21.8971,69595.7656,-2.55158,2.29685,-0.3879
21.9105,69595.7756,-3.00057,2.28036,-0.39584
21.9173,69595.7856,-3.28829,2.20522,-0.47709
21.9321,69595.7956,-3.43978,2.12764,-0.62858
21.9372,69595.8056,-3.38725,1.95171,-0.76725
21.9564,69595.8156,-3.19971,1.58886,-0.88514
21.9591,69595.8256,-3.01829,1.22723,-1.00121
21.9692,69595.8356,-2.77516,0.76358,-1.11361
21.9771,69595.8456,-2.64444,0.32803,-1.17592
21.9897,69595.8556,-2.67376,-0.11423,-1.19058
22.0066,69595.8656,-2.83136,-0.48503,-1.26755
22.0114,69595.8756,-2.94498,-0.79412,-1.50762
22.0168,69595.8856,-2.88389,-0.95295,-1.81488
22.0285,69595.8956,-2.64688,-0.95845,-2.08122
22.0367,69595.9056,-2.31274,-0.78985,-2.17651
22.0496,69595.9156,-1.77823,-0.54123,-2.18812
22.0582,69595.9256,-1.31703,-0.47037,-2.12581
22.0686,69595.9356,-0.78741,-0.69944,-1.95782
22.0791,69595.9456,-0.40378,-1.21196,-1.78739
22.0895,69595.9556,-0.01222,-1.84787,-1.5968
22.0989,69595.9656,0.23518,-2.32007,-1.45264
22.1096,69595.9756,0.42822,-2.79776,-1.24433
22.1172,69595.9856,0.50763,-3.11786,-1.01526
22.1293,69595.9956,0.54,-3.43306,-0.79901
22.1516,69596.0056,0.54856,-3.73055,-0.67195
22.1548,69596.0156,0.69822,-4.05676,-0.64935
22.1653,69596.0256,1.05374,-4.21375,-0.79535
22.17,69596.0356,1.51311,-4.30721,-1.10017
22.2061,69596.0456,1.68232,-4.32248,-1.41843
22.2069,69596.0556,1.67072,-4.45382,-1.62551
22.2079,69596.0656,1.58458,-4.63036,-1.73425
22.2084,69596.0756,1.48257,-4.65785,-1.82221
22.2228,69596.0856,1.36101,-4.56255,-1.8497
22.2288,69596.0956,1.12766,-4.47581,-1.85275
22.2367,69596.1056,0.92057,-4.37929,-1.82893
22.2567,69596.1156,0.65301,-4.36036,-1.79533
22.2629,69596.1256,0.49847,-4.52773,-1.8045
22.2689,69596.1356,0.51801,-4.84355,-1.81122
22.2798,69596.1456,0.67256,-5.16425,-1.80633
22.2879,69596.1556,1.00548,-5.65783,-1.7825
22.2967,69596.1656,1.36162,-6.07017,-1.78373
22.31,69596.1756,1.71653,-6.36705,-1.8271
22.317,69596.1856,1.91262,-6.54725,-1.87597
22.3284,69596.1956,2.0635,-6.74517,-1.92667
22.3366,69596.2056,2.12948,-6.92294,-1.95721
22.349,69596.2156,2.16185,-7.16789,-1.96515
22.3577,69596.2256,2.19789,-7.41285,-1.95599
22.3696,69596.2356,2.27669,-7.76837,-1.96332
22.3771,69596.2456,2.40681,-7.96996,-2.02135
22.391,69596.2556,2.55708,-8.08602,-2.10749
22.3983,69596.2666,2.63955,-8.08053,-2.16246
22.4143,69596.2766,2.65238,-7.88077,-2.16368
22.4181,69596.2866,2.64932,-7.68652,-2.14719
22.4323,69596.2966,2.64871,-7.58023,-2.17896
22.4411,69596.3066,2.69575,-7.53808,-2.25165
22.4502,69596.3166,2.78371,-7.51242,-2.33534
22.4583,69596.3266,2.89794,-7.47027,-2.45079
22.4712,69596.3366,3.03661,-7.4324,-2.55464
22.4785,69596.3466,3.11969,-7.40308,-2.53815
22.4937,69596.3566,3.24186,-7.25341,-2.41658
22.4989,69596.3666,3.36098,-7.06343,-2.29319
22.5125,69596.3766,3.53874,-6.94187,-2.13986
22.5205,69596.3866,3.70429,-6.97608,-2.00425
22.5371,69596.3966,3.87777,-7.18866,-1.85581
22.5393,69596.4076,4.00239,-7.46355,-1.71836
22.551,69596.4176,4.09952,-7.74699,-1.5461
22.5588,69596.4276,4.20092,-7.97057,-1.42637
22.5711,69596.4376,4.32126,-8.00356,-1.37689
22.579,69596.4476,4.28705,-7.75921,-1.34207
22.5914,69596.4576,4.09219,-7.23936,-1.27121
22.599,69596.4676,3.86494,-6.7635,-1.1918
22.6133,69596.4776,3.6041,-6.21006,-1.13377
22.6328,69596.4876,3.38603,-5.83621,-1.11116
22.6354,69596.4974,3.13924,-5.35607,-1.09284
22.6469,69596.5076,2.98835,-4.78491,-1.08795
22.6611,69596.5186,2.82342,-4.14044,-1.06963
22.6652,69596.5286,2.73423,-3.71711,-1.0061
22.6731,69596.5386,2.71896,-3.30845,-0.89003
22.68,69596.5486,2.82953,-2.93093,-0.78924
22.6926,69596.5586,3.05738,-2.49538,-0.72754
22.7002,69596.5686,3.29562,-2.22416,-0.73059
22.7191,69596.5786,3.68596,-1.89002,-0.78924
22.7234,69596.5886,3.91626,-1.58153,-0.84422
22.7378,69596.5986,4.07447,-1.10261,-0.88881
22.7473,69596.6086,4.0873,-0.83566,-0.91447
22.7537,69596.6186,4.16182,-0.55344,-0.967
22.7598,69596.6286,4.35669,-0.30116,-1.04397
22.7723,69596.6386,4.73298,0.18692,-1.15515
22.7826,69596.6486,5.10989,0.80084,-1.13438
22.7976,69596.6586,5.48252,1.47646,-0.98655
22.8023,69596.6686,5.85392,1.97615,-0.73487
22.8166,69596.6786,6.09216,2.28586,-0.34453
22.8206,69596.6886,6.02619,2.48256,-0.01649
22.8329,69596.6986,5.76412,2.69575,0.32926
22.8403,69596.7086,5.38844,2.79288,0.54734
22.8529,69596.7186,4.99932,2.78738,0.68478
22.8606,69596.7286,4.80629,2.79288,0.68539
22.8728,69596.7386,4.74276,2.83319,0.57727
22.8808,69596.7486,4.74887,2.82953,0.43677
22.8941,69596.7586,4.76597,2.86313,0.24984
22.9007,69596.7686,4.74276,3.06349,0.18937
22.9142,69596.7786,4.6157,3.55279,0.0452
22.9208,69596.7886,4.4697,4.02072,-0.26634
22.9343,69596.7986,4.36769,4.68595,-0.73426
22.9457,69596.8086,4.45565,5.20274,-1.07879
22.9553,69596.8186,4.74826,5.76229,-1.32802
22.9632,69596.8286,5.01032,5.94555,-1.44531
22.9743,69596.8386,5.28765,6.05734,-1.54549
22.9811,69596.8486,5.48252,6.10682,-1.58153
22.996,69596.8586,5.5882,6.03535,-1.57359
23.001,69596.8686,5.59247,5.88202,-1.52044
23.0156,69596.8786,5.53627,5.59064,-1.56015
23.0211,69596.8886,5.53627,5.37684,-1.57848
23.0339,69596.8986,5.51795,5.28337,-1.58031
23.0465,69596.9096,5.53444,5.17708,-1.59314
23.0597,69596.9206,5.58697,5.19113,-1.56626
23.0712,69596.9306,5.60347,5.3579,-1.40316
23.0872,69596.9406,5.44953,5.51306,-1.08367
23.0887,69596.9506,5.22045,5.44709,-0.94806
23.1005,69596.9606,4.8967,5.05369,-0.91813
23.1028,69596.9706,4.62181,4.40617,-1.01159
23.116,69596.9806,4.31943,3.42023,-1.35184
23.1232,69596.9906,4.08241,2.65726,-1.71042
23.1353,69597.0016,3.67619,1.79289,-2.23577
23.1437,69597.0116,3.1765,1.2596,-2.65849
23.1564,69597.0216,2.51554,0.9615,-2.97186
23.1655,69597.0316,1.93522,0.87048,-3.17528
23.1809,69597.0416,1.43981,0.95906,-3.40008
23.1919,69597.0526,0.93707,1.14598,-3.62915
23.2009,69597.0626,0.63958,1.13987,-3.67985
23.2102,69597.0726,0.6072,0.98838,-3.6713
23.2204,69597.0826,0.72815,0.53695,-3.69512
23.226,69597.0926,0.92668,-0.00916,-3.78981
23.2376,69597.1026,1.21745,-0.51679,-3.93825
23.2443,69597.1126,1.48013,-0.79351,-4.01216
23.2579,69597.1226,1.65178,-0.92424,-4.10013
23.2727,69597.1326,1.66766,-0.90591,-4.13617
23.2814,69597.1426,1.50151,-0.75625,-4.12151
23.2844,69597.1526,1.23883,-0.65179,-4.12945
23.298,69597.1626,0.96333,-0.50274,-4.20153
23.3047,69597.1726,0.88759,-0.32926,-4.27606
23.3239,69597.1826,0.83444,-0.27733,-4.29927
23.326,69597.1936,0.7703,-0.47709,-4.26017
23.3363,69597.2036,0.76419,-0.6915,-4.21192
23.3464,69597.2136,0.81062,-0.84483,-4.149
23.3595,69597.2246,0.8998,-1.01098,-4.04943
23.3656,69597.2346,0.98349,-1.12705,-3.98162
23.3796,69597.2446,1.06718,-1.24494,-3.92909
23.3861,69597.2546,1.13804,-1.39705,-3.8961
23.3974,69597.2646,1.17225,-1.52655,-3.96268
23.4056,69597.2746,1.09711,-1.57725,-4.06653
23.4172,69597.2846,0.90408,-1.58153,-4.1661
23.4267,69597.2946,0.63774,-1.55099,-4.23207
23.441,69597.3056,0.27855,-1.30786,-4.29194
23.4478,69597.3156,-0.00061,-1.03236,-4.26262
23.4627,69597.3266,-0.3146,-0.89675,-4.16488
23.4722,69597.3366,-0.52901,-1.02564,-4.06409
23.4819,69597.3466,-0.57788,-1.33963,-3.91931
23.4887,69597.3566,-0.47464,-1.47524,-3.83074
23.5007,69597.3666,-0.27855,-1.4844,-3.80813
23.5088,69597.3766,-0.07086,-1.28893,-3.87044
23.5209,69597.3866,0.0281,-1.0061,-3.91748
23.5284,69597.3966,-0.0171,-0.84177,-3.91442
23.5406,69597.4066,-0.14172,-0.81673,-3.8735
23.5485,69597.4166,-0.26634,-0.90103,-3.83501
23.5622,69597.4266,-0.35369,-1.00732,-3.80264
23.5714,69597.4366,-0.38607,-1.02137,-3.78553
23.5923,69597.4466,-0.44654,-1.06535,-3.8008
23.5968,69597.4566,-0.53878,-1.09101,-3.83379
23.6019,69597.4666,-0.67684,-1.02564,-3.91687
23.6102,69597.4766,-0.78191,-0.85521,-4.014
23.6211,69597.4866,-0.87598,-0.66645,-4.10135
23.6295,69597.4976,-0.96089,-0.54062,-4.13739
23.6443,69597.5076,-1.06474,-0.48747,-4.12517
23.6493,69597.5176,-1.16553,-0.4893,-4.10563
23.663,69597.5276,-1.32619,-0.34697,-4.12639
23.6711,69597.5386,-1.46424,-0.05376,-4.16671
23.6833,69597.5486,-1.67927,0.33231,-4.22352
23.691,69597.5586,-1.91812,0.62125,-4.23818
23.7061,69597.5686,-2.17835,0.89309,-4.23207
23.7149,69597.5796,-2.34817,1.20035,-4.23574
23.7246,69597.5896,-2.46973,1.60596,-4.30293
23.7352,69597.5996,-2.55403,1.95904,-4.43488
23.7456,69597.6096,-2.65971,2.25898,-4.63525
23.7531,69597.6196,-2.75989,2.46606,-4.77269
23.7659,69597.6296,-2.92116,2.70064,-4.85394
23.774,69597.6396,-3.09403,2.82403,-4.83378
23.7838,69597.6496,-3.3115,2.93643,-4.71283
23.7922,69597.6606,-3.50759,3.06166,-4.55034
23.8056,69597.6706,-3.79897,3.11541,-4.38296
23.8157,69597.6816,-4.0702,3.09831,-4.20336
23.8291,69597.6916,-4.11723,2.89245,-3.91442
23.8384,69597.7016,-4.04332,2.68536,-3.65481
23.8496,69597.7116,-3.92359,2.39826,-3.30906
23.8536,69597.7216,-3.86128,2.20034,-3.00607
23.8655,69597.7316,-3.89915,2.06839,-2.75622
23.8731,69597.7416,-4.05309,1.76051,-2.61817
23.8853,69597.7516,-4.21314,0.99449,-2.55158
23.8931,69597.7616,-4.23879,0.13317,-2.47584
23.9076,69597.7716,-4.11662,-0.70188,-2.37993
23.9142,69597.7815,-3.97368,-1.44409,-2.29807
23.9272,69597.7916,-3.75865,-2.11726,-2.25898
23.9361,69597.8026,-3.53874,-2.6145,-2.28158
23.9496,69597.8126,-3.29623,-2.80876,-2.32007
23.9554,69597.8226,-3.07937,-2.76905,-2.33656
23.9684,69597.8326,-2.75134,-2.52226,-2.31579
23.9795,69597.8436,-2.36405,-2.16307,-2.23271
23.9897,69597.8536,-1.98653,-1.89613,-2.07511
24.0012,69597.8636,-1.70554,-1.89979,-1.84726
24.0094,69597.8736,-1.26755,-2.05556,-1.46302
24.015,69597.8836,-0.79535,-2.12276,-1.16553
24.0308,69597.8936,-0.26084,-2.13803,-0.92729
24.0352,69597.9036,0.30543,-1.92178,-0.81367
24.0472,69597.9136,0.89309,-1.34146,-0.62125
24.0551,69597.9236,1.3323,-0.90897,-0.32987
24.0672,69597.9336,1.64567,-0.53084,0.03971
24.0868,69597.9436,1.77579,-0.31521,0.2645
24.0912,69597.9536,1.86619,-0.22235,0.44532
24.1058,69597.9636,1.94866,-0.31398,0.54123
24.1239,69597.9736,2.04396,-0.44593,0.56505
24.1297,69597.9836,2.12703,-0.57971,0.5455
24.1343,69597.9936,2.2266,-0.87659,0.56444
24.1361,69598.0036,2.28708,-1.25166,0.61636
24.1487,69598.0136,2.31457,-1.8216,0.60598
24.1551,69598.0236,2.39948,-2.24859,0.47281
24.1677,69598.0336,2.52776,-2.40498,0.24251
24.176,69598.0446,2.62,-2.51676,0.07697
24.1923,69598.0546,2.66398,-2.65421,-0.02138
24.2029,69598.0646,2.66643,-2.6591,-0.01894
24.2147,69598.0746,2.63466,-2.47706,0.00428
24.2176,69598.0846,2.53265,-2.29013,0.02199
24.2387,69598.0946,2.32617,-2.17712,0.0281
24.2496,69598.1046,2.10871,-2.14963,-0.03482
24.2512,69598.1146,1.96088,-2.19789,-0.18082
24.2598,69598.1246,1.97737,-2.1423,-0.39156
24.2792,69598.1346,2.16674,-1.96699,-0.57177
24.2855,69598.1446,2.45812,-1.87169,-0.61392
24.2977,69598.1546,2.79104,-1.85703,-0.56566
24.2992,69598.1646,3.12824,-1.83748,-0.49786
24.3118,69598.1746,3.45689,-1.77579,-0.34941
24.3165,69598.1846,3.6658,-1.74463,-0.14661
24.3315,69598.1946,3.75132,-1.68354,0.07514
24.3365,69598.2046,3.7385,-1.66583,0.21136
24.3484,69598.2146,3.67802,-1.68843,0.35247
24.3558,69598.2246,3.63098,-1.71959,0.41172
24.3718,69598.2346,3.57051,-1.79106,0.45571
24.3771,69598.2446,3.54668,-1.86436,0.45571
24.3886,69598.2554,3.5699,-1.93217,0.39034
24.3965,69598.2656,3.62426,-1.83382,0.34147
24.4096,69598.2756,3.68046,-1.66155,0.35552
24.4172,69598.2856,3.67985,-1.55587,0.41844
24.4317,69598.2956,3.62793,-1.46424,0.51924
24.4366,69598.3056,3.52653,-1.35001,0.6353
24.4482,69598.3156,3.37014,-1.06657,0.83627
24.4574,69598.3256,3.23148,-0.74892,1.00854
24.4691,69598.3356,3.03661,-0.32742,1.15026
24.4805,69598.3456,2.83747,0.0336,1.26571
24.491,69598.3556,2.62916,0.25962,1.33352
24.5007,69598.3656,2.41842,0.24801,1.29259
24.5119,69598.3756,2.22966,0.10446,1.1918
24.5169,69598.3856,2.08427,-0.20403,1.07696
24.5299,69598.3956,1.98043,-0.64324,0.95478
24.5369,69598.4056,1.923,-0.97005,0.91263
24.5489,69598.4156,1.86619,-1.14598,0.98777
24.5569,69598.4256,1.77029,-1.27854,1.0849
24.5709,69598.4356,1.59436,-1.56809,1.15515
24.5929,69598.4455,1.47402,-1.86375,1.11544
24.5967,69598.4556,1.44775,-2.05129,0.94012
24.6012,69598.4666,1.5009,-2.0635,0.74831
24.6193,69598.4776,1.66278,-2.04396,0.62247
24.6257,69598.4876,1.82221,-2.04396,0.63774
24.6352,69598.4976,1.96393,-2.07328,0.70372
24.6413,69598.5076,2.08183,-2.10199,0.74587
24.6553,69598.5176,2.1588,-2.12764,0.75931
24.6619,69598.5276,2.2321,-2.20828,0.7141
24.6774,69598.5376,2.37688,-2.30663,0.63652
24.6812,69598.5486,2.51066,-2.34511,0.551
24.6926,69598.5586,2.58579,-2.44896,0.43982
24.7063,69598.5686,2.55708,-2.65482,0.38118
24.7182,69598.5786,2.47034,-3.00424,0.40195
24.7254,69598.5886,2.38237,-3.25713,0.47037
24.7358,69598.5986,2.28891,-3.64931,0.63041
24.7422,69598.6086,2.22111,-3.91809,0.74709
24.7523,69598.6186,2.07877,-4.04271,0.84055
24.7598,69598.6286,1.92056,-4.11112,0.93096
24.7742,69598.6386,1.69882,-4.32859,1.02198
24.7796,69598.6486,1.56198,-4.66823,1.03786
24.7914,69598.6586,1.49967,-5.12088,0.96517
24.7998,69598.6686,1.52961,-5.55032,0.87904
24.8156,69598.6786,1.67072,-6.19845,0.74953
24.8197,69598.6886,1.923,-6.7299,0.62492
24.839,69598.6986,2.339,-7.12452,0.41722
24.8417,69598.7086,2.71896,-7.22837,0.20708
24.8566,69598.7186,3.18139,-7.13124,-0.02688
24.8609,69598.7286,3.52775,-6.94493,-0.18937
24.8752,69598.7396,3.87472,-6.64133,-0.41844
24.8851,69598.7506,4.01461,-6.36827,-0.54917
24.9061,69598.7606,4.11662,-6.06101,-0.71899
24.9126,69598.7706,4.14228,-5.81177,-0.88026
24.9156,69598.7806,4.12517,-5.56376,-1.0006
24.9269,69598.7906,4.09891,-5.38844,-1.03847
24.9348,69598.8006,4.04332,-5.24306,-1.05985
24.9426,69598.8106,3.99262,-5.21129,-1.08856
24.9556,69598.8206,3.95108,-5.2064,-1.08551
24.9621,69598.8306,3.95413,-5.23389,-1.04947
24.9745,69598.8406,3.94558,-5.18747,-1.03114
24.983,69598.8506,3.87899,-5.14043,-1.05252
24.9957,69598.8606,3.68596,-5.1276,-1.22417
25.0023,69598.8706,3.47521,-5.07324,-1.4001
25.0147,69598.8806,3.15451,-4.81912,-1.59558
25.0266,69598.8906,2.79104,-4.37196,-1.69637
25.035,69598.9006,2.31823,-3.41168,-1.68171
25.043,69598.9106,1.76845,-2.34389,-1.61391
25.0541,69598.9206,1.09528,-1.40927,-1.49967
25.0627,69598.9306,0.6408,-0.71593,-1.39277
25.0747,69598.9406,0.28222,-0.24984,-1.26205
25.0843,69598.9516,0.14478,0.01344,-1.14232
25.0983,69598.9616,0.13989,0.14355,-1.04336
25.1046,69598.9716,0.17104,0.18265,-0.92118
25.1165,69598.9816,0.21564,0.1857,-0.80512
25.1242,69598.9916,0.2248,0.18021,-0.72998
25.14,69599.0016,0.1912,0.22907,-0.64874
25.1517,69599.0116,0.09652,0.31398,-0.54611
25.1665,69599.0216,-0.15027,0.44043,-0.34819
25.1681,69599.0316,-0.45815,0.58032,-0.17226
25.1761,69599.0414,-0.81489,0.75992,-0.01222
25.1837,69599.0516,-1.18264,0.96089,0.12278
25.2017,69599.0626,-1.63895,1.28037,0.30177
25.2047,69599.0726,-1.96638,1.45814,0.44776
25.2174,69599.0826,-2.29991,1.51128,0.61697
25.2252,69599.0926,-2.55647,1.50639,0.76236
25.2392,69599.1036,-2.9291,1.56137,1.02014
25.2456,69599.1136,-3.20704,1.83932,1.27182
25.259,69599.1236,-3.48743,2.33839,1.60413
25.2664,69599.1336,-3.73055,2.77394,1.80755
25.2809,69599.1436,-4.10196,3.16734,1.99875
25.2882,69599.1536,-4.49108,3.35854,2.10626
25.3069,69599.1636,-4.98405,3.61815,2.16552
25.3087,69599.1736,-5.36951,3.82524,2.17835
25.3235,69599.1836,-5.79833,4.00544,2.1869
25.3278,69599.1936,-6.05978,4.12029,2.15941
25.3368,69599.2036,-6.1453,4.3237,2.08183
25.3447,69599.2136,-6.08972,4.52162,2.01036
25.3564,69599.2236,-5.90218,4.65174,1.93766
25.3647,69599.2336,-5.64562,4.55644,1.85581
25.3765,69599.2436,-5.21923,4.00483,1.69943
25.3875,69599.2536,-4.84111,3.35121,1.48929
25.3994,69599.2636,-4.30721,2.57419,1.16492
25.406,69599.2736,-3.90465,2.31151,0.91385
25.4193,69599.2836,-3.69635,2.44835,0.7196
25.4251,69599.2936,-3.75193,2.73301,0.63652
25.4393,69599.3036,-3.92298,3.14901,0.59193
25.4455,69599.3136,-4.02377,3.4746,0.57482
25.4573,69599.3236,-3.98956,3.73605,0.58093
25.4651,69599.3336,-3.82707,3.81791,0.62186
25.4794,69599.3436,-3.57906,3.84112,0.64324
25.489,69599.3536,-3.42756,3.77637,0.57544
25.4974,69599.3636,-3.40008,3.72445,0.40012
25.5052,69599.3736,-3.58272,3.73788,0.25901
25.5205,69599.3836,-3.89976,3.99628,0.21014
25.5293,69599.3936,-4.22597,4.55522,0.28405
25.5387,69599.4036,-4.86004,5.64134,0.3934
25.5485,69599.4146,-5.4593,6.48189,0.41905
25.5584,69599.4246,-6.04573,7.1514,0.35308
25.5699,69599.4346,-6.3023,7.44523,0.27428
25.581,69599.4446,-6.42936,7.82518,0.13134
25.5886,69599.4546,-6.40981,8.1355,0.0562
25.6,69599.4646,-6.32307,8.42933,-0.06658
25.6069,69599.4746,-6.26809,8.50508,-0.25534
25.6263,69599.4846,-6.1392,8.49897,-0.6243
25.6293,69599.4946,-6.0384,8.46109,-0.84849
25.6422,69599.5046,-5.91256,8.28761,-0.95906
25.654,69599.5156,-5.7513,8.04204,-0.91385
25.6616,69599.5256,-5.38417,7.53686,-0.66951
25.6761,69599.5356,-4.94618,7.02251,-0.45082
25.6899,69599.5456,-4.19115,6.28764,-0.20281
25.6919,69599.5556,-3.57051,5.79284,-0.08247
25.699,69599.5656,-2.8784,5.26688,-0.03971
25.7075,69599.5756,-2.42575,4.73482,-0.05376
25.7192,69599.5856,-2.08855,4.03721,-0.11362
25.7296,69599.5956,-1.86008,3.43978,-0.15211
25.7397,69599.6056,-1.67011,2.93521,-0.12034
25.7505,69599.6156,-1.58642,2.50455,-0.04154
25.7587,69599.6256,-1.6475,2.10382,0.03971
25.7669,69599.6356,-1.82954,1.79533,0.04887
25.7794,69599.6456,-2.11115,1.50334,-0.03665
25.7879,69599.6556,-2.30602,1.26205,-0.17104
25.8004,69599.6656,-2.39887,1.11727,-0.33964
25.8145,69599.6766,-2.25104,1.29503,-0.405
25.8212,69599.6866,-2.12092,1.59619,-0.46914
25.8282,69599.6966,-2.15574,1.62001,-0.58277
25.8431,69599.7066,-2.27792,1.41476,-0.68845
25.8591,69599.7166,-2.35489,1.07696,-0.73915
25.8626,69599.7266,-2.3952,0.64935,-0.76114
25.87,69599.7366,-2.40375,0.20953,-0.82467
25.8843,69599.7466,-2.29136,-0.22541,-0.99327
25.8916,69599.7566,-1.98837,-0.59987,-1.14476
25.9035,69599.7676,-1.52533,-0.89919,-1.30664
25.9099,69599.7776,-1.16248,-1.20218,-1.35001
25.9343,69599.7875,-0.91752,-1.60535,-1.29992
25.9443,69599.7976,-0.80146,-1.8778,-1.20768
25.9485,69599.8076,-0.76786,-2.05495,-1.15026
25.9519,69599.8176,-0.78985,-2.04579,-1.16064
25.9688,69599.8276,-0.85094,-1.86008,-1.13743
25.9737,69599.8376,-0.85032,-1.60596,-1.02686
25.9928,69599.8476,-0.76969,-1.15942,-0.8375
25.9957,69599.8576,-0.68478,-0.82589,-0.67806
26.0062,69599.8676,-0.62186,-0.53084,-0.49541
26.0086,69599.8776,-0.58948,-0.41783,-0.35613
26.0224,69599.8876,-0.53756,-0.44899,-0.26206
26.0296,69599.8976,-0.44471,-0.45143,-0.23457
26.0406,69599.9076,-0.22235,-0.41539,-0.21747
26.0521,69599.9176,0.07758,-0.28344,-0.19426
26.0609,69599.9276,0.37141,-0.23824,-0.14111
26.0687,69599.9376,0.54978,-0.38912,-0.0391
26.0813,69599.9476,0.65851,-0.58643,0.07575
26.0887,69599.9576,0.72632,-0.77641,0.13928
26.1005,69599.9676,0.73121,-1.0177,0.10629
26.1085,69599.9776,0.71471,-1.0965,-0.00183
26.1202,69599.9875,0.70738,-0.95356,-0.11606
26.1316,69599.9976,0.69211,-0.74831,-0.17593
26.1412,69600.0076,0.63958,-0.54917,-0.1741
26.1545,69600.0176,0.58704,-0.42638,-0.10996
26.1628,69600.0276,0.57299,-0.39584,0.01466
26.1697,69600.0376,0.61087,-0.43066,0.10812
26.2082,69600.0476,0.72143,-0.55833,0.1857
26.2125,69600.0576,0.87659,-0.78985,0.2303
26.2137,69600.0676,1.09345,-1.05496,0.2584
26.2145,69600.0776,1.28282,-1.19119,0.24862
26.2244,69600.0876,1.50762,-1.37689,0.2303
26.2321,69600.0976,1.68782,-1.55832,0.20464
26.2405,69600.1076,1.84787,-1.79472,0.16127
26.2506,69600.1184,1.97371,-1.98043,0.08552
26.264,69600.1296,2.06045,-2.19789,-0.05315
26.272,69600.1396,2.09405,-2.4624,-0.146
26.2833,69600.1496,2.11787,-2.71163,-0.21991
26.2928,69600.1596,2.16246,-2.82892,-0.25534
26.302,69600.1695,2.28525,-2.9236,-0.27794
26.3116,69600.1796,2.41719,-2.93765,-0.28466
26.3237,69600.1896,2.5467,-2.96636,-0.2865
26.3314,69600.1996,2.62611,-3.00362,-0.28711
26.3452,69600.2096,2.70369,-3.04944,-0.24557
26.3522,69600.2196,2.75439,-3.0641,-0.19609
26.3721,69600.2296,2.79104,-3.06349,-0.13134
26.3749,69600.2396,2.79104,-3.05982,-0.10446
26.3856,69600.2496,2.75683,-3.04577,-0.10507
26.3945,69600.2596,2.67376,-2.99019,-0.11362
26.4046,69600.2696,2.52715,-3.0079,-0.12645
26.4136,69600.2796,2.38665,-3.15878,-0.13867
26.4299,69600.2896,2.29074,-3.3677,-0.14905
26.433,69600.2996,2.28586,-3.51431,-0.16677
26.4442,69600.3095,2.34084,-3.63587,-0.23274
26.4514,69600.3196,2.40681,-3.79225,-0.33659
26.4689,69600.3296,2.48805,-3.88755,-0.48197
26.4759,69600.3396,2.54425,-3.89854,-0.60781
26.4877,69600.3496,2.56869,-4.0201,-0.8094
26.4984,69600.3606,2.62428,-4.41839,-1.01709
26.5041,69600.3706,2.76478,-4.8069,-1.16797
26.5139,69600.3806,3.0134,-5.18502,-1.28343
26.5314,69600.3905,3.34815,-5.55154,-1.37323
26.5331,69600.4006,3.61021,-5.7513,-1.38422
26.5469,69600.4106,3.80569,-5.68227,-1.35551
26.5564,69600.4206,3.84479,-5.47213,-1.34024
26.5646,69600.4306,3.73483,-5.10072,-1.32802
26.5719,69600.4405,3.52286,-4.79957,-1.31214
26.584,69600.4506,3.25102,-4.67984,-1.33474
26.5921,69600.4606,3.12396,-4.75375,-1.38789
26.6042,69600.4706,3.13985,-4.90219,-1.47707
26.6121,69600.4806,3.32066,-4.94129,-1.57359
26.6242,69600.4906,3.55401,-4.78735,-1.68049
26.6335,69600.5006,3.7165,-4.53079,-1.70065
26.6448,69600.5106,3.82646,-4.09096,-1.62857
26.6524,69600.5206,3.85822,-3.62487,-1.48685
26.6647,69600.5306,3.76721,-3.11358,-1.29931
26.6745,69600.5406,3.60594,-2.72263,-1.18874
26.6881,69600.5506,3.39885,-2.25226,-1.19974
26.6944,69600.5616,3.28218,-1.98959,-1.29503
26.7153,69600.5716,3.35976,-2.00181,-1.47524
26.7169,69600.5816,3.65481,-2.34756,-1.67194
26.7283,69600.5916,4.11418,-2.99141,-1.90468
26.7372,69600.6016,4.66335,-3.74521,-2.21194
26.7484,69600.6116,5.29559,-4.53506,-2.59618
26.756,69600.6216,5.8472,-5.01215,-2.93643
26.7669,69600.6316,6.46601,-5.13005,-3.27485
26.7731,69600.6416,6.98524,-4.99382,-3.46666
26.7852,69600.6516,7.60588,-4.77086,-3.50453
26.7944,69600.6616,7.97729,-4.6157,-3.36526
26.8075,69600.6716,8.09946,-4.49597,-3.11786
26.8173,69600.6816,7.93086,-4.30843,-2.92604
26.8267,69600.6916,7.4159,-3.8906,-2.70308
26.8374,69600.7016,6.75983,-3.21315,-2.47156
26.8505,69600.7116,5.91928,-2.28525,-2.13681
26.8535,69600.7216,5.25833,-1.63468,-1.86803
26.8687,69600.7316,4.52834,-0.85338,-1.53327
26.8734,69600.7416,4.0256,-0.15516,-1.33718
26.8867,69600.7516,3.58089,0.697,-1.19302
26.8965,69600.7616,3.37808,1.27549,-1.14782
26.9049,69600.7716,3.18078,1.94866,-1.16614
26.9133,69600.7816,2.98774,2.56441,-1.21257
26.9248,69600.7916,2.80387,2.9969,-1.22784
26.9351,69600.8016,2.75439,3.17955,-1.15331
26.9444,69600.8116,2.90772,3.25713,-0.93096
26.953,69600.8216,3.12824,3.26202,-0.70738
26.9645,69600.8316,3.41718,3.08915,-0.49969
26.9726,69600.8416,3.58456,2.88328,-0.49358
26.99,69600.8516,3.61082,2.80387,-0.63591
27.0056,69600.8616,3.463,2.86068,-0.72021
27.0148,69600.8716,2.98591,3.26202,-0.71349
27.0168,69600.8816,2.5467,3.76171,-0.64141
27.0274,69600.8916,1.98287,4.60043,-0.57605
27.0365,69600.9016,1.56992,5.25894,-0.58032
27.0462,69600.9116,1.1973,5.66639,-0.72388
27.0534,69600.9216,1.1918,5.5882,-0.94928
27.0656,69600.9316,1.53083,5.43181,-1.26083
27.0735,69600.9416,1.88391,5.35057,-1.41354
27.0906,69600.9516,2.22355,5.30536,-1.42759
27.0938,69600.9616,2.36038,5.33774,-1.31092
27.1072,69600.9716,2.32923,5.5546,-1.11483
27.113,69600.9816,2.17529,5.73541,-1.04824
27.1294,69600.9916,1.93889,5.92661,-1.04519
27.1331,69601.0016,1.71592,6.10987,-1.11361
27.1453,69601.0116,1.50639,6.20395,-1.30786
27.1563,69601.0216,1.3097,6.19112,-1.41537
27.1653,69601.0316,1.0177,6.23449,-1.45203
27.1731,69601.0416,0.75564,6.32184,-1.50395
27.1871,69601.0516,0.45509,6.49594,-1.57237
27.1932,69601.0616,0.33475,6.64072,-1.5461
27.2056,69601.0716,0.32009,6.61628,-1.49601
27.2131,69601.0816,0.45998,6.33712,-1.54182
27.2251,69601.0916,0.75381,5.79894,-1.72508
27.2331,69601.1016,0.95661,5.18197,-1.96393
27.2502,69601.1116,0.97433,4.48742,-2.27914
27.2558,69601.1216,0.81795,4.17221,-2.52776
27.2759,69601.1316,0.43982,4.22291,-2.66276
27.2782,69601.1414,0.00183,4.64258,-2.69697
27.29,69601.1516,-0.31215,4.97305,-2.71285
27.3003,69601.1616,-0.46609,5.00115,-2.77211
27.3056,69601.1716,-0.47586,4.82645,-2.91322
27.3157,69601.1816,-0.41478,4.72138,-3.11236
27.3246,69601.1916,-0.41111,4.48803,-3.37075
27.3326,69601.2016,-0.5174,4.12762,-3.62487
27.3453,69601.2116,-0.59743,3.68413,-3.90465
27.3532,69601.2216,-0.49052,3.43612,-4.02927
27.365,69601.2316,-0.19853,3.1484,-4.06348
27.3731,69601.2416,0.13195,2.91505,-4.0647
27.3852,69601.2516,0.51374,2.59434,-4.09158
27.3932,69601.2616,0.76725,2.32373,-4.16793
27.4052,69601.2716,0.87842,2.10443,-4.31821
27.4131,69601.2816,0.69639,1.96943,-4.40556
27.4286,69601.2916,0.27184,1.82954,-4.41839
27.4361,69601.3016,0.03238,1.73364,-4.39212
27.4472,69601.3116,-0.22541,1.60169,-4.36097
27.4553,69601.3226,-0.33903,1.45019,-4.39334
27.4689,69601.3326,-0.36652,1.22173,-4.47031
27.4756,69601.3426,-0.33231,0.94562,-4.5369
27.4884,69601.3526,-0.23091,0.52718,-4.6328
27.4957,69601.3626,-0.16066,0.22052,-4.71221
27.5159,69601.3726,-0.20097,-0.04093,-4.72138
27.5284,69601.3826,-0.31398,-0.22297,-4.6493
27.5311,69601.3926,-0.53695,-0.32254,-4.56927
27.5347,69601.4026,-0.75869,-0.27794,-4.47825
27.5474,69601.4126,-1.03114,-0.16432,-4.4361
27.5544,69601.4226,-1.2596,-0.03482,-4.4642
