AppTimestamp(s),SensorTimestamp(s),gyro_x,gyro_y,gyro_z
0.038,69775.2539,-0.83444,-0.37141,-0.26267
0.0391,69775.2649,-0.9841,-0.27855,-0.22663
0.0403,69775.2749,-1.06596,-0.23274,-0.16188
0.041,69775.2849,-1.09895,-0.31643,-0.0336
0.0427,69775.2949,-1.03481,-0.5058,0.10751
0.0648,69775.3049,-0.98044,-0.77702,0.2364
0.0677,69775.3149,-0.9163,-0.8998,0.14844
0.0769,69775.3249,-0.58521,-0.76847,0.10263
0.0999,69775.3349,-0.29688,-0.84788,0.21869
0.1037,69775.3449,-0.01466,-0.88331,0.28527
0.1048,69775.3549,0.1857,-0.6408,0.29138
0.1143,69775.3649,0.27855,-0.48503,0.31643
0.1244,69775.3749,0.22297,-0.64446,0.3769
0.1359,69775.3849,0.10385,-0.77274,0.4386
0.1434,69775.3949,0.03726,-0.73426,0.47709
0.154,69775.4048,0.00794,-0.61881,0.49175
0.1628,69775.4148,0.03421,-0.51191,0.45509
0.1742,69775.4249,0.13439,-0.36469,0.37751
0.1824,69775.4349,0.28894,-0.14966,0.2981
0.194,69775.4448,0.44104,0.00367,0.22846
0.2024,69775.4548,0.51496,0.01588,0.19792
0.215,69775.4648,0.52534,0,0.21686
0.2224,69775.4749,0.54062,0.04948,0.29749
0.235,69775.4849,0.58093,0.0507,0.405
0.2458,69775.4949,0.5736,0.17898,0.47525
0.2552,69775.5049,0.53329,0.60415,0.51435
0.2631,69775.5149,0.47892,1.11116,0.50946
0.2742,69775.5249,0.43799,1.6133,0.54245
0.2824,69775.5349,0.43616,1.87413,0.6072
0.2944,69775.5449,0.4893,1.99936,0.74159
0.3025,69775.5549,0.54856,1.90223,0.85216
0.3143,69775.5649,0.6127,1.67866,0.97983
0.3225,69775.5749,0.68295,1.67316,1.12033
0.334,69775.5848,0.70005,1.46058,1.30481
0.3438,69775.5949,0.78374,1.07696,1.39155
0.3541,69775.6048,0.9841,0.86926,1.39644
0.3638,69775.6149,1.12521,0.76786,1.35734
0.377,69775.6249,1.17225,0.70616,1.36284
0.3825,69775.6349,1.13377,0.71166,1.41232
0.3979,69775.6449,1.02564,0.72998,1.47219
0.4028,69775.6549,0.87842,0.6805,1.48135
0.4147,69775.6649,0.67012,0.91691,1.5125
0.4225,69775.6749,0.42761,1.1808,1.5461
0.4342,69775.6849,0.11362,1.38789,1.62857
0.4442,69775.6949,-0.05925,1.50212,1.72692
0.4565,69775.7049,-0.11423,1.51556,1.7935
0.4689,69775.7149,-0.1124,1.46058,1.80389
0.4782,69775.7249,-0.09346,1.38789,1.79778
0.4826,69775.7349,-0.1179,1.28831,1.77273
0.496,69775.7449,-0.18509,1.16797,1.72692
0.5035,69775.7549,-0.24862,1.12094,1.67988
0.5193,69775.7649,-0.3427,1.05191,1.57725
0.5254,69775.7749,-0.44715,0.92302,1.4337
0.5382,69775.7849,-0.59682,0.75381,1.21135
0.5472,69775.7949,-0.70921,0.6634,0.97616
0.5543,69775.8049,-0.83689,0.6579,0.72388
0.5628,69775.8149,-0.95539,0.70677,0.47342
0.5743,69775.8249,-1.0794,0.74831,0.21747
0.5823,69775.8347,-1.17103,0.75198,0.05315
0.5955,69775.8459,-1.24739,0.64141,-0.17349
0.6048,69775.8559,-1.27182,0.48014,-0.29444
0.6186,69775.8659,-1.31397,0.24129,-0.44288
0.6271,69775.8759,-1.35184,0.12706,-0.56077
0.6433,69775.8859,-1.32497,0.08613,-0.64507
0.6477,69775.8959,-1.26877,-0.01527,-0.74159
0.6577,69775.9059,-1.20951,-0.19548,-0.86682
0.6732,69775.9159,-1.10017,-0.3708,-0.93646
0.6785,69775.9259,-0.93646,-0.57666,-0.94745
0.6908,69775.9359,-0.72265,-0.82161,-0.93768
0.6983,69775.9459,-0.42516,-1.113,-0.93157
0.7056,69775.9559,-0.16188,-1.36284,-0.96456
0.7156,69775.9659,0.06475,-1.61391,-1.01953
0.7273,69775.9759,0.17471,-1.7825,-1.04824
0.7354,69775.9859,0.23457,-1.94927,-1.07146
0.745,69775.9959,0.25534,-2.04151,-1.12277
0.7554,69776.0059,0.28894,-2.06961,-1.23456
0.7645,69776.0159,0.33781,-2.05434,-1.37689
0.7783,69776.0259,0.44227,-1.95049,-1.60719
0.7845,69776.0359,0.50763,-1.82771,-1.74891
0.7954,69776.0459,0.57116,-1.67927,-1.8723
0.8038,69776.0559,0.62919,-1.59558,-1.93033
0.8285,69776.0659,0.71105,-1.50578,-1.95782
0.8305,69776.0759,0.81123,-1.46302,-1.9902
0.8375,69776.0859,0.96822,-1.42515,-2.02991
0.8443,69776.0959,1.14049,-1.39827,-2.08244
0.8648,69776.1059,1.26877,-1.39094,-2.13436
0.8679,69776.1159,1.29503,-1.38911,-2.15208
0.8755,69776.1259,1.28831,-1.30847,-2.11543
0.8834,69776.1359,1.25777,-1.23089,-2.05312
0.8959,69776.1459,1.24128,-1.17836,-2.00058
0.9073,69776.1559,1.25288,-1.13804,-1.97615
0.9364,69776.1659,1.27182,-1.09162,-1.96454
0.9376,69776.1759,1.28465,-1.06474,-1.94866
0.9382,69776.1858,1.237,-1.05802,-1.90468
0.9456,69776.1959,1.17225,-1.05252,-1.83137
0.9587,69776.2059,1.07268,-1.05741,-1.71164
0.9652,69776.2159,1.00121,-1.06901,-1.66033
0.9751,69776.2259,0.90286,-1.08856,-1.67011
0.9836,69776.2359,0.81428,-1.06535,-1.74646
0.9967,69776.2459,0.72265,-0.98533,-1.84665
1.0058,69776.2559,0.64385,-0.88514,-1.97126
1.0182,69776.2659,0.54672,-0.70066,-2.14108
1.0236,69776.2759,0.45204,-0.4777,-2.31579
1.0363,69776.2857,0.37385,-0.405,-2.474
1.0471,69776.2958,0.27306,-0.57849,-2.65787
1.0553,69776.3058,0.0733,-0.80451,-2.87901
1.0677,69776.3159,-0.13989,-0.91752,-3.01951
1.0761,69776.3259,-0.50457,-0.85338,-3.11908
1.0839,69776.3359,-0.84971,-0.84727,-3.23209
1.0959,69776.3459,-1.31886,-1.0794,-3.20338
1.1056,69776.3559,-1.66644,-1.03236,-3.27363
1.116,69776.3659,-1.92423,-0.76847,-3.44345
1.124,69776.3759,-2.08916,-0.63163,-3.45628
1.1366,69776.3859,-2.17102,-0.64019,-3.38297
1.1441,69776.3959,-2.01952,-0.84422,-3.33899
1.1563,69776.4059,-1.78678,-1.68782,-3.09037
1.164,69776.4159,-1.66033,-2.45446,-2.60168
1.1792,69776.4259,-1.37261,-2.75012,-2.10871
1.192,69776.4359,-1.16614,-3.15939,-1.60902
1.2135,69776.4459,-1.34085,-4.73054,-0.92485
1.2157,69776.4558,-2.17773,-5.40982,-0.16371
1.2198,69776.4659,-2.81365,-1.18935,0.41783
1.2241,69776.4759,-3.25958,0.47342,0.96822
1.237,69776.4859,-3.62182,1.25594,1.39338
1.2471,69776.4959,-3.77087,1.47341,1.56015
1.2563,69776.5059,-3.76049,1.39766,1.65117
1.2645,69776.5159,-3.59311,1.33718,1.73669
1.2767,69776.5259,-3.21804,1.21318,1.83137
1.2881,69776.5359,-2.75317,1.05619,1.86253
1.303,69776.5459,-2.09893,1.13377,1.80633
1.312,69776.5559,-1.56259,1.27243,1.7428
1.3203,69776.5659,-0.95173,1.20585,1.65483
1.3337,69776.5759,-0.56872,0.84177,1.54427
1.3413,69776.5859,-0.34575,0.16005,1.40866
1.3464,69776.5969,-0.39706,-0.80512,1.25411
1.3627,69776.6069,-0.65363,-2.13436,1.17103
1.3662,69776.6169,-0.89064,-1.70126,1.37506
1.3791,69776.6269,-1.11422,-0.8656,1.76845
1.3858,69776.6369,-1.31764,-0.62858,2.05801
1.3986,69776.6469,-1.57115,-0.6182,2.32984
1.4061,69776.6569,-1.7147,-0.62003,2.54609
1.4207,69776.6669,-1.7428,-0.46304,2.73729
1.4266,69776.6769,-1.62551,-0.26145,2.81609
1.4363,69776.6869,-1.41965,0.13989,2.80143
1.445,69776.6969,-1.26449,0.57482,2.77272
1.4564,69776.7069,-1.113,0.95723,2.79288
1.4657,69776.7169,-0.9725,1.23456,2.82342
1.4778,69776.7269,-0.77702,1.45386,2.8393
1.4847,69776.7369,-0.48319,1.45691,2.86618
1.4995,69776.7469,0.0281,1.1863,2.92543
1.5094,69776.7569,0.61209,0.89919,2.9627
1.5189,69776.7669,1.26449,0.69272,2.90589
1.5293,69776.7769,1.87841,0.77397,2.64077
1.5445,69776.7869,2.40559,0.97983,2.14353
1.5544,69776.7969,2.82098,2.0916,1.80755
1.5604,69776.8069,3.06777,1.51372,1.49845
1.5698,69776.8169,3.09098,0.99449,1.3268
1.5805,69776.8269,3.15756,0.27672,1.26327
1.5876,69776.8379,3.43306,-0.62003,1.87536
1.5995,69776.8479,3.73116,-0.74709,2.46912
1.6064,69776.8579,3.9468,-0.37568,2.73057
1.6189,69776.8679,3.90771,-0.07514,2.72018
1.6267,69776.8779,3.65603,-0.19914,2.474
1.6386,69776.8879,2.50516,1.21684,2.07755
1.652,69776.8979,1.5968,1.62734,2.08305
1.6626,69776.9079,0.83017,1.9285,2.58029
1.6684,69776.9189,0.40561,1.87597,2.75561
1.6814,69776.9289,0.16982,1.87902,2.47217
1.6913,69776.9389,0.03848,1.91812,2.19301
1.6994,69776.9489,-0.12462,1.96393,2.05984
1.7072,69776.9589,-0.27306,1.96149,2.14841
1.7275,69776.9689,-0.45509,1.93828,2.32984
1.7319,69776.9789,-0.686,2.32556,2.4233
1.7395,69776.9889,-0.82345,1.62246,2.24371
1.747,69776.9989,-0.81673,1.34146,2.10932
1.7608,69777.0089,-0.72265,1.32252,2.01586
1.7673,69777.0189,-0.76236,1.4618,1.89307
1.7815,69777.0289,-1.02686,1.64567,1.82832
1.7889,69777.0389,-1.35673,1.61879,1.98959
1.8001,69777.0489,-1.67988,1.35795,2.38909
1.8101,69777.0599,-1.85581,0.95356,2.77027
1.8324,69777.0699,-1.92606,0.45571,2.96086
1.841,69777.0809,-1.86986,-0.39095,2.71346
1.8423,69777.0909,-1.58703,-1.50762,2.13009
1.8514,69777.1009,-1.25533,-2.30418,1.59863
1.8668,69777.1109,-0.8827,-3.47827,1.08429
1.8704,69777.1209,-0.60476,-4.51735,0.86804
1.8839,69777.1309,-0.21319,-5.52528,0.76969
1.8892,69777.1409,0.00611,-5.55643,0.80634
1.9003,69777.1509,0.20403,-4.11357,0.93035
1.9086,69777.1609,0.48075,-2.09282,0.98655
1.92,69777.1709,0.26512,-1.62124,0.9279
1.9311,69777.1809,-0.13806,-1.39155,0.85094
1.9403,69777.1908,-0.79718,-1.25838,0.6408
1.9495,69777.2009,-1.6475,-1.18264,0.08858
1.9617,69777.2109,-2.31823,-1.06168,-0.79718
1.971,69777.2209,-2.27669,-1.2932,-1.50762
1.985,69777.2309,-1.75135,-1.56015,-2.07083
1.9913,69777.2419,-0.93218,-1.72814,-2.3274
2.0096,69777.2519,-0.26206,-1.88574,-2.36222
2.0143,69777.2619,0.08491,-2.13803,-2.23149
2.0237,69777.2719,0.40317,-2.56747,-2.08061
2.0318,69777.2819,0.75381,-2.86801,-2.06717
2.0803,69777.2919,0.96822,-2.89611,-2.34756
2.0893,69777.3029,0.94501,-2.74278,-2.79837
2.0902,69777.3129,0.91874,-2.60168,-3.27485
2.0926,69777.3229,0.97005,-2.55769,-3.60716
2.0934,69777.3329,1.02809,-2.41903,-3.92725
2.0962,69777.3429,0.9499,-2.38176,-3.89854
2.1078,69777.3529,0.65118,-2.16491,-3.65297
2.1108,69777.3629,0.21197,-1.54854,-3.61571
2.1233,69777.3729,0.36224,-1.23395,-3.79225
2.1309,69777.3828,0.43799,-1.01159,-3.94619
2.1435,69777.3929,0.52779,-1.01098,-4.04393
2.1508,69777.4029,0.59498,-1.08856,-4.10868
2.1683,69777.4129,0.67378,-1.2199,-4.27361
2.1722,69777.4229,0.71288,-1.2535,-4.46665
2.185,69777.4329,0.7367,-1.19302,-4.56377
2.1956,69777.4438,0.67989,-0.80268,-4.51063
2.207,69777.4539,0.54245,-0.62308,-4.41717
2.2189,69777.4639,0.4893,-0.71044,-4.4361
2.2267,69777.4739,0.47709,-0.59743,-4.32187
2.2352,69777.4839,0.3427,-0.49908,-4.0873
2.2475,69777.4939,0.10324,-0.31704,-3.66886
2.254,69777.5039,-0.03115,-0.09041,-3.23697
2.266,69777.5139,-0.14294,0.17532,-2.73301
2.2736,69777.5239,-0.24251,0.35919,-2.37688
2.2856,69777.5339,-0.30665,0.51313,-1.95904
2.2932,69777.5439,-0.29566,0.64446,-1.67438
2.31,69777.5539,-0.38851,1.05863,-1.42026
2.3188,69777.5639,-0.60109,1.36284,-1.18141
2.3339,69777.5749,-0.80268,1.68843,-0.82955
2.3557,69777.5849,-0.9108,1.83443,-0.52229
2.3598,69777.5949,-0.9444,1.78495,-0.26573
2.3613,69777.6049,-0.90897,1.62246,-0.09041
2.3711,69777.6148,-0.78496,1.35123,0.17104
2.382,69777.6249,-0.66829,1.06107,0.43616
2.3853,69777.6349,-0.64568,0.77946,0.78496
2.3931,69777.6449,-0.79351,0.69639,1.12216
2.4056,69777.6549,-1.09467,0.66951,1.48013
2.415,69777.6659,-1.35918,0.64324,1.73974
2.4286,69777.6759,-1.51372,0.65301,1.93278
2.435,69777.6859,-1.4789,0.63897,1.97859
2.4506,69777.6959,-1.28404,0.58704,1.98898
2.4551,69777.7059,-1.0513,0.5846,1.96638
2.4699,69777.7159,-0.80634,0.66829,1.95477
2.4819,69777.7258,-0.60659,0.71227,1.98592
2.4869,69777.7359,-0.41417,0.81673,2.04029
2.4984,69777.7459,-0.25351,0.99938,2.12764
2.5121,69777.7559,-0.18631,1.2535,2.30052
2.515,69777.7659,-0.21686,1.45936,2.46606
2.5262,69777.7759,-0.24618,1.69332,2.59068
2.5341,69777.7859,-0.27122,1.79167,2.60045
2.5501,69777.7959,-0.30543,1.7764,2.5076
2.5544,69777.8059,-0.33109,1.67805,2.35122
2.5661,69777.8159,-0.30299,1.66278,2.23516
2.5742,69777.8259,-0.25534,1.65544,2.26203
2.5883,69777.8359,-0.11606,1.59253,2.39032
2.6003,69777.8459,0.05742,1.54977,2.50577
2.6056,69777.8559,0.31154,1.52105,2.65543
2.6139,69777.8659,0.43677,1.529,2.755
2.631,69777.8759,0.51435,1.53877,2.82403
2.634,69777.8859,0.5736,1.48135,2.83564
2.6487,69777.8959,0.67623,1.27793,2.85518
2.6543,69777.9059,0.82833,1.03786,2.98591
2.6658,69777.9159,1.01587,0.74098,3.15023
2.6742,69777.9259,1.24494,0.42394,3.26019
2.6858,69777.9359,1.4563,0.07636,3.39702
2.694,69777.9459,1.54854,-0.13073,3.53141
2.7115,69777.9559,1.56443,-0.23824,3.65725
2.7167,69777.9659,1.58764,-0.41844,3.78064
2.7357,69777.9759,1.63162,-0.80146,3.96452
2.7383,69777.9859,1.83687,-1.16309,4.01705
2.7512,69777.9959,2.28219,-1.28893,3.96757
2.7688,69778.0058,2.59618,-1.00426,3.93703
2.7722,69778.0159,2.81059,-0.36285,3.76782
2.7763,69778.0259,2.78799,0.10201,3.52286
2.7877,69778.0359,2.63955,0.32132,3.32066
2.7992,69778.0459,2.43674,0.21136,3.35915
2.8064,69778.0559,2.1081,-0.37996,3.47094
2.8144,69778.0659,1.9004,-0.96211,3.52286
2.8263,69778.0759,1.82954,-0.82222,3.65542
2.8342,69778.0859,1.69637,-0.25534,3.82829
2.8465,69778.0959,1.28954,0.33231,4.03293
2.8561,69778.1059,0.88453,0.72265,4.14289
2.8662,69778.1159,0.44104,1.18325,4.26506
2.8787,69778.1259,0.135,1.45264,4.4471
2.8864,69778.1359,-0.06475,1.41476,4.65724
2.8994,69778.1459,-0.10873,1.19913,4.77025
2.907,69778.1559,0.00489,0.93462,4.82767
2.9142,69778.1659,0.15088,0.35125,4.81606
2.9252,69778.1758,0.32376,-0.22113,4.74826
2.9371,69778.1859,0.47525,-0.50335,4.6835
2.9486,69778.1959,0.60048,-0.68906,4.6328
2.9544,69778.2069,0.59498,-0.76786,4.65601
2.9684,69778.2168,0.37935,-0.65057,4.7
2.9745,69778.2269,-0.02566,-0.72754,4.61631
2.9859,69778.2369,-0.50824,-1.0232,4.29316
2.9956,69778.2469,-0.72204,-1.36712,3.89793
3.0058,69778.2568,-0.62736,-1.66766,3.51797
3.0142,69778.2667,-0.38301,-1.90285,3.50942
3.027,69778.2778,-0.14905,-2.35427,3.83074
3.0391,69778.2878,-0.06842,-2.38237,3.94497
3.0544,69778.2979,-0.05437,-2.4624,4.17282
3.0598,69778.3078,-0.0391,-2.45323,4.36646
3.0715,69778.3179,0.07819,-2.27853,4.31393
3.0853,69778.3279,0.27855,-2.11115,4.03232
3.092,69778.3379,0.59193,-2.0861,3.62243
3.0994,69778.3478,0.84483,-2.18934,3.36037
3.1098,69778.3579,1.12705,-2.39032,3.21926
3.1191,69778.3678,1.30298,-2.46973,3.34693
3.1321,69778.3779,1.37261,-2.42514,3.70551
3.1415,69778.3879,1.31825,-2.39337,3.9358
3.1559,69778.3979,1.1582,-2.62611,4.0702
3.1581,69778.4078,0.98655,-3.04577,4.06164
3.1712,69778.4178,0.90042,-3.4239,4.03782
3.181,69778.4279,0.93829,-3.65786,4.10135
3.1897,69778.4378,1.05008,-3.97795,4.24429
3.1977,69778.4479,1.16309,-4.32432,4.37318
3.2103,69778.4579,1.32863,-4.66335,4.57905
3.2163,69778.4678,1.52594,-4.61081,4.73909
3.2288,69778.4778,1.79289,-4.38418,4.86737
3.2365,69778.4879,2.10138,-4.20275,4.94007
3.2492,69778.4979,2.47278,-4.19787,5.00299
3.257,69778.5079,2.79776,-4.21558,4.95961
3.2837,69778.5189,3.15634,-3.98834,4.85821
3.2912,69778.5287,3.43001,-3.68352,4.86004
3.2954,69778.5389,3.67619,-3.3341,4.93152
3.2997,69778.5489,3.85822,-3.02134,4.96939
3.3219,69778.5588,4.04087,-2.61267,4.81301
3.3241,69778.5699,4.1325,-2.32801,4.56316
3.3352,69778.5798,4.25162,-2.10932,4.1606
3.3435,69778.5898,4.20825,-1.99997,3.89366
3.3509,69778.5999,4.08119,-1.90895,3.63892
3.3631,69778.6099,3.95657,-1.80511,3.29623
3.3788,69778.6199,3.88632,-1.68354,2.63772
3.3858,69778.6299,3.78859,-1.52044,2.22355
3.3932,69778.6398,3.52408,-1.13438,1.81855
3.3988,69778.6498,3.24675,-0.83078,1.51433
3.4149,69778.6599,2.88084,-0.54,1.09956
3.418,69778.6699,2.62794,-0.38973,0.79107
3.4323,69778.6799,2.45751,-0.30727,0.48258
3.4432,69778.6899,2.43002,-0.32559,0.23335
3.4498,69778.6999,2.44652,-0.36102,-0.04093
3.458,69778.7098,2.46667,-0.34758,-0.24984
3.4698,69778.7199,2.45079,-0.33109,-0.49236
3.478,69778.7299,2.42391,-0.35186,-0.69211
3.4901,69778.7399,2.37932,-0.42577,-0.89309
3.4979,69778.7499,2.34756,-0.41111,-1.01892
3.5099,69778.7599,2.32373,-0.35858,-1.12766
3.5187,69778.7698,2.27547,-0.36102,-1.25288
3.53,69778.7798,2.16491,-0.26878,-1.43431
3.5382,69778.7899,1.97248,-0.08613,-1.63162
3.5497,69778.7999,1.6585,0.17165,-1.85947
3.5606,69778.8099,1.36162,0.29627,-2.12825
3.5722,69778.8199,1.06107,0.41417,-2.4624
3.5805,69778.8309,0.8039,0.50396,-2.80693
3.5998,69778.8409,0.51924,0.61575,-3.25225
3.6089,69778.8508,0.23702,0.87598,-3.65053
3.6167,69778.8607,-0.10812,1.237,-4.05615
3.6213,69778.8709,-0.32254,1.40377,-4.3909
3.6373,69778.8818,-0.44043,1.33352,-4.92418
3.6442,69778.8918,-0.38851,1.02809,-5.34629
3.6529,69778.9019,-0.21319,0.68478,-5.74824
3.6612,69778.9128,-0.04948,0.42883,-6.12881
3.6767,69778.9229,-0.06414,0.39401,-6.38782
3.6871,69778.9329,-0.17776,0.47831,-6.46112
3.6962,69778.9429,-0.39767,0.58215,-6.49716
3.7028,69778.9529,-0.53145,0.48075,-6.56008
3.7153,69778.9629,-0.62919,0.39828,-6.65965
3.722,69778.9728,-0.74526,0.36652,-6.73845
3.7354,69778.9829,-0.94073,0.34392,-6.76839
3.7421,69778.9929,-1.1692,0.20342,-6.74823
3.7592,69779.0027,-1.248,-0.15699,-6.69447
3.7653,69779.0129,-1.09528,-0.57421,-6.68653
3.7759,69779.0228,-0.80329,-0.86499,-6.65538
3.7829,69779.0339,-0.60842,-1.15637,-6.55764
3.798,69779.0439,-0.5339,-1.21257,-6.33101
3.8033,69779.0538,-0.562,-0.9896,-6.13064
3.8192,69779.0638,-0.65546,-0.73365,-5.96815
3.8388,69779.0749,-0.84055,-0.62003,-5.79894
3.8408,69779.0848,-1.06657,-0.63347,-5.67372
3.8451,69779.0949,-1.26938,-0.81978,-5.6224
3.8654,69779.1049,-1.45691,-1.23395,-5.64989
3.8692,69779.1149,-1.53694,-1.58458,-5.73664
3.8763,69779.1249,-1.52105,-2.02685,-5.96815
3.884,69779.1349,-1.383,-2.16307,-6.12331
3.8953,69779.1448,-1.16431,-1.87475,-6.29252
3.9101,69779.1547,-0.99388,-1.08734,-6.3585
3.9449,69779.1649,-0.99999,0.16677,-6.32673
3.9523,69779.1749,-1.1863,1.21257,-6.26442
3.9551,69779.1849,-1.53083,2.09405,-6.24854
3.9583,69779.1949,-1.78495,2.64505,-6.34384
3.9598,69779.2048,-2.02807,3.01462,-6.63949
3.9692,69779.2148,-2.10565,2.9065,-7.02006
3.9807,69779.2249,-2.03357,2.45751,-7.3878
3.9898,69779.2349,-1.90712,2.04457,-7.5283
3.9959,69779.2449,-1.72203,1.78312,-7.53502
4.0052,69779.2549,-1.58642,1.92178,-7.40491
4.0173,69779.2648,-1.59069,2.57358,-7.18561
4.0223,69779.2748,-1.70615,2.98224,-7.06343
4.0382,69779.2848,-1.93583,3.25591,-6.99502
4.0425,69779.2949,-2.07267,3.26141,-7.06832
4.054,69779.3049,-1.99203,3.49354,-7.4159
4.0641,69779.3149,-1.7147,3.77942,-7.88627
4.0747,69779.3248,-1.33474,4.0928,-8.23752
4.0824,69779.3348,-0.96822,4.54423,-8.40123
4.0939,69779.3448,-0.80451,5.43792,-8.31204
4.1024,69779.3548,-1.1411,5.34996,-7.90765
4.1139,69779.3649,-1.89735,4.40251,-7.12941
4.1224,69779.3749,-2.37627,3.9358,-6.55092
4.1344,69779.3847,-2.6872,3.3732,-6.1111
4.1424,69779.3948,-2.81181,2.30785,-5.71892
4.1548,69779.4048,-2.9627,1.05741,-4.72871
4.1624,69779.4148,-3.07998,0.45204,-3.21437
4.174,69779.4248,-2.78738,-0.50457,-1.32802
4.1825,69779.4349,-2.16613,-0.20464,-0.16249
4.1952,69779.4448,-1.14537,1.00121,0.60048
4.2025,69779.4548,-0.57055,0.72876,0.76786
4.2153,69779.4648,-0.37874,0.51496,0.40623
4.2227,69779.4748,-0.60537,0.18509,-0.00672
4.2358,69779.4849,-1.03419,-0.34025,-0.39767
4.2425,69779.4949,-1.21807,-0.57421,-0.50396
4.254,69779.5049,-1.18569,-0.91324,-0.40439
4.2624,69779.5148,-1.05802,-1.48135,-0.29566
4.274,69779.5248,-0.78435,-2.00119,-0.21991
4.2825,69779.5348,-0.48991,-2.52471,-0.18692
4.2953,69779.5448,-0.05925,-3.16917,-0.35675
4.3026,69779.5549,0.5229,-3.32433,-0.64202
4.3148,69779.5649,1.47463,-3.27485,-0.91141
4.3225,69779.5748,2.21316,-3.22048,-0.89492
4.3369,69779.5848,2.57663,-3.30661,-0.62369
4.3435,69779.5959,2.60656,-3.60594,-0.2865
4.3551,69779.6058,2.44774,-3.67435,0.07269
4.3635,69779.6158,2.08305,-3.44956,0.40684
4.3749,69779.6258,1.518,-2.99019,0.91447
4.3835,69779.6358,1.12888,-2.58885,1.34085
4.3963,69779.6459,0.85582,-2.63283,1.81427
4.4044,69779.6559,0.75075,-2.84175,1.98531
4.4152,69779.6658,0.73731,-2.79654,2.07083
4.4235,69779.6758,0.8436,-2.65116,2.09832
4.4374,69779.6858,1.05619,-2.48378,2.1362
4.4435,69779.6958,1.2535,-2.48133,2.10565
4.456,69779.7059,1.51189,-2.66459,2.12276
4.4645,69779.7159,1.79045,-2.80876,2.22172
4.475,69779.7258,2.18018,-2.94132,2.36771
4.4834,69779.7358,2.57602,-3.05921,2.57846
4.4949,69779.7458,2.92421,-3.26202,2.80693
4.5035,69779.7558,3.19727,-2.9627,3.04333
4.515,69779.7659,3.54058,-3.21621,3.38969
4.5252,69779.7759,3.90587,-3.83562,3.59739
4.5408,69779.7859,4.02499,-4.34936,3.62182
4.5541,69779.7969,3.9578,-4.86127,3.65542
4.5633,69779.8069,3.8735,-5.06896,3.733
4.5666,69779.8168,3.77515,-5.05247,3.88938
4.5787,69779.8268,3.78003,-4.90647,3.90893
4.5861,69779.8379,3.87044,-4.79224,3.94741
4.5987,69779.8478,4.06775,-4.53323,4.08791
4.6066,69779.8577,4.19054,-4.21375,4.21008
4.6267,69779.8678,4.17893,-4.01827,4.32737
4.6322,69779.8779,4.08791,-3.87655,4.5149
4.639,69779.8879,3.94191,-3.75988,4.70122
4.6509,69779.8979,3.74644,-3.78798,4.77819
4.6583,69779.9078,3.50148,-3.77576,4.81301
4.667,69779.9178,3.21071,-3.72506,4.7733
4.6791,69779.9278,2.80021,-3.57295,4.70794
4.6863,69779.9379,2.57907,-3.34265,4.76169
4.701,69779.9479,2.3109,-3.26507,4.79957
4.706,69779.9579,2.12459,-3.40008,4.70305
4.7224,69779.9678,2.00547,-3.66763,4.54667
4.7262,69779.9778,1.95233,-3.86189,4.47948
4.7384,69779.9878,1.94866,-4.19787,4.44771
4.7479,69779.9979,2.04457,-4.42633,4.40556
4.7586,69780.0078,2.24615,-4.56255,4.32981
4.766,69780.0179,2.42391,-4.6438,4.26812
4.7783,69780.0278,2.65054,-4.82584,4.27911
4.7862,69780.0378,2.88328,-5.02314,4.25223
4.8,69780.0478,3.10869,-5.12821,3.97246
4.8081,69780.0588,3.12396,-4.95228,3.60533
4.8218,69780.0688,2.79226,-4.87776,3.2944
4.8285,69780.0788,2.40864,-5.1838,3.08792
4.8417,69780.0889,2.31396,-5.63706,2.87473
4.86,69780.0989,2.52532,-5.99014,2.75317
4.8634,69780.1089,3.08792,-6.54848,2.631
4.8817,69780.1188,3.6713,-6.96386,2.55891
4.8878,69780.1288,4.3011,-7.19966,2.53204
4.8911,69780.1388,4.63097,-7.03045,2.52532
4.9027,69780.1489,4.81912,-6.53565,2.57174
4.9704,69780.1589,4.76169,-5.93822,2.60901
4.9711,69780.1687,4.26995,-5.57964,2.56747
4.9716,69780.1786,4.26995,-5.57964,2.56747
4.975,69780.1888,4.20703,-5.86675,2.46973
4.9844,69780.1987,4.16977,-6.41836,2.3164
4.985,69780.2088,4.12823,-6.88262,2.18323
4.9861,69780.2189,4.04148,-7.37192,2.00242
4.9887,69780.2289,3.86678,-7.66147,1.79106
4.9899,69780.2389,3.72139,-7.78609,1.6304
5.0031,69780.2488,3.53935,-7.5448,1.50639
5.0085,69780.2588,3.36831,-6.89056,1.4789
5.0199,69780.2688,3.09403,-6.06711,1.36651
5.0279,69780.2789,2.75989,-5.58086,1.25227
5.0387,69780.2889,2.15025,-5.15631,1.05435
5.0465,69780.2989,1.57176,-4.84355,0.78313
5.058,69780.3088,1.03053,-4.76047,0.44288
5.0663,69780.3188,0.68661,-4.95534,0.06842
5.0779,69780.3288,0.37385,-5.19419,-0.28161
5.0862,69780.3388,-0.06781,-4.99321,-0.47525
5.0998,69780.3488,-0.67806,-4.28705,-0.47098
5.1074,69780.3589,-1.16981,-3.29684,-0.32437
5.1236,69780.3688,-1.58581,-2.30296,-0.12767
5.1366,69780.3788,-1.81122,-1.94316,0.00733
5.141,69780.3888,-2.02013,-2.04334,0.07391
5.1487,69780.3989,-2.09649,-2.51554,0.05437
5.1634,69780.4089,-2.07633,-3.18627,-0.07147
5.1685,69780.4189,-2.05129,-3.67863,-0.22419
5.1796,69780.4288,-2.02624,-3.94863,-0.38118
5.1872,69780.4388,-2.06106,-3.60533,-0.31521
5.2028,69780.4488,-2.27853,-2.51249,0.08674
5.2071,69780.4589,-2.60473,-1.47096,0.45693
5.2281,69780.4689,-3.23087,-0.74892,0.84666
5.2427,69780.4789,-3.81852,-0.54306,1.09467
5.2439,69780.4888,-4.22291,-0.81245,1.27915
5.2522,69780.4988,-4.27545,-1.21257,1.28465
5.2618,69780.5088,-4.15572,-1.85825,1.25227
5.2669,69780.5188,-4.00422,-2.16368,1.28831
5.2796,69780.5289,-3.92114,-1.85703,1.31275
5.2873,69780.5389,-3.95352,-1.47585,1.19913
5.3005,69780.5489,-4.17465,-1.09772,1.02014
5.3071,69780.5588,-4.32554,-0.93585,0.93096
5.3201,69780.5688,-4.53445,-1.05802,0.8882
5.3281,69780.5798,-4.71771,-1.49357,0.82772
5.345,69780.5898,-4.78185,-1.76662,0.72571
5.3553,69780.5998,-4.75681,-1.90285,0.57299
5.3701,69780.6099,-4.7788,-2.37199,0.34758
5.3718,69780.6199,-4.82217,-2.68109,0.35369
5.3807,69780.6299,-4.78918,-2.96636,0.60537
5.3926,69780.6398,-4.72199,-3.03967,0.8882
5.4041,69780.6498,-4.6102,-3.04577,1.29565
5.4131,69780.6598,-4.47398,-3.02745,1.54182
5.4212,69780.6698,-4.30477,-2.94132,1.5687
5.4287,69780.6799,-4.15938,-2.92727,1.45814
5.4405,69780.6899,-3.9132,-3.01034,1.28343
5.4494,69780.7009,-3.52653,-3.13801,1.20707
5.4612,69780.7109,-3.08365,-3.12213,1.24678
5.4707,69780.7209,-2.8057,-2.9969,1.26083
5.4855,69780.7319,-2.59068,-2.76478,1.3549
5.4936,69780.7418,-2.61756,-2.48867,1.46547
5.5071,69780.7518,-2.80631,-2.35122,1.653
5.5128,69780.7618,-3.08915,-2.26509,1.88818
5.5249,69780.7718,-3.4746,-2.01708,2.12215
5.5326,69780.7818,-3.82463,-1.79472,2.22172
5.5426,69780.7919,-4.02743,-1.79961,2.24615
5.5499,69780.8019,-4.00972,-1.92423,2.24432
5.5623,69780.8119,-3.7501,-1.80877,2.29258
5.5697,69780.8218,-3.47643,-1.41049,2.33289
5.5814,69780.8318,-3.18261,-1.41721,1.98898
5.591,69780.8426,-2.97614,-1.50762,1.7202
5.6024,69780.8528,-3.09342,-1.3439,1.78128
5.6108,69780.8628,-3.47582,-1.17897,1.78067
5.6244,69780.8729,-3.90343,-1.11055,1.7764
5.6319,69780.8829,-4.12212,-1.03664,1.73852
5.6488,69780.8929,-4.03049,-1.06596,1.73974
5.6548,69780.9026,-4.03904,-0.84971,1.94561
5.6648,69780.9128,-4.28644,-0.28405,2.21194
5.6782,69780.9228,-4.67006,0.08552,2.35183
5.6872,69780.9328,-5.13432,0.1179,2.34694
5.6939,69780.9429,-5.50451,0.1576,2.22783
5.7052,69780.9538,-6.04512,0.24862,1.87413
5.7128,69780.9639,-6.23388,0.66706,1.59497
5.7246,69780.9739,-6.2235,1.24922,1.38117
5.7346,69780.9839,-5.9425,1.67683,1.40804
5.7488,69780.9949,-5.43853,1.94744,1.59436
5.7616,69781.0049,-5.08912,1.77823,1.69454
5.7723,69781.0148,-4.54117,1.33657,1.79533
5.7752,69781.0248,-4.17893,1.12338,1.88696
5.785,69781.0348,-3.90221,1.00915,2.03235
5.7933,69781.0448,-3.84906,0.99876,2.15452
5.8051,69781.0549,-3.91198,1.17286,2.29563
5.8129,69781.0646,-3.99445,1.4563,2.41292
5.8254,69781.0748,-4.03232,1.71714,2.59557
5.8338,69781.0848,-3.99628,1.86131,2.76905
5.8552,69781.0948,-3.91931,1.88574,2.97919
5.8613,69781.1048,-3.85945,1.7654,3.05249
5.8747,69781.1149,-3.72139,1.55893,3.0586
5.8763,69781.1248,-3.5815,1.48257,3.03295
5.8911,69781.1349,-3.41779,1.50456,3.05066
5.8931,69781.1448,-3.29012,1.54915,3.09281
5.9195,69781.1548,-3.24858,1.68538,3.18749
5.9222,69781.1648,-3.27424,1.67499,3.26263
5.9246,69781.1749,-3.34632,1.31886,3.26263
5.9342,69781.1849,-3.38725,1.07573,3.20399
5.9446,69781.1949,-3.53386,0.99205,3.07021
5.9552,69781.2048,-3.82341,1.04397,2.93765
5.9646,69781.2148,-4.26384,1.34574,2.86435
5.9749,69781.2248,-4.61142,1.59558,2.85946
5.9867,69781.2348,-4.92663,1.5968,2.82464
5.9946,69781.2449,-5.01765,1.35429,2.79593
6.009,69781.2549,-4.92968,1.04947,2.78555
6.016,69781.2648,-4.80446,0.84971,2.80509
6.0251,69781.2748,-4.64807,0.7251,2.8277
6.0324,69781.2848,-4.58821,0.66096,2.79043
6.0439,69781.2948,-4.55461,0.41417,2.61634
6.0529,69781.3049,-4.50085,0.02749,2.37382
6.0646,69781.3149,-4.32187,-0.22602,2.18201
6.0728,69781.3249,-4.07203,-0.31765,2.10626
6.0848,69781.3348,-3.8625,-0.24862,2.1026
6.0927,69781.3448,-3.82585,-0.05498,2.1197
6.1053,69781.3548,-3.88205,0.08369,2.16796
6.1127,69781.3648,-3.94375,0.0672,2.16735
6.1244,69781.3749,-4.05187,0.02749,2.06228
6.1327,69781.3849,-4.21008,-0.07453,1.87658
6.1444,69781.3948,-4.36952,-0.21014,1.68538
6.1528,69781.4048,-4.3964,-0.22907,1.57725
6.1707,69781.4148,-4.31576,-0.09957,1.5235
6.175,69781.4248,-4.15938,-0.04154,1.53144
6.1891,69781.4349,-3.99689,-0.05803,1.50151
6.1928,69781.4449,-3.91687,-0.13867,1.4001
6.2049,69781.4548,-3.84234,-0.35736,1.1863
6.2129,69781.4648,-3.75682,-0.48503,1.02442
6.2253,69781.4748,-3.52591,-0.60964,0.82467
6.2327,69781.4848,-3.35793,-0.70677,0.7025
6.2445,69781.4949,-3.24492,-0.92607,0.57482
6.2549,69781.5049,-3.14901,-1.22662,0.45509
6.2728,69781.5148,-2.95659,-1.27976,0.32926
6.2827,69781.5259,-2.77088,-0.98533,0.19487
6.2896,69781.5359,-2.55403,-0.71532,0.06414
6.2989,69781.5458,-2.30235,-0.58032,-0.08613
6.3061,69781.5558,-2.02196,-0.60598,-0.30116
6.3143,69781.5658,-1.77823,-0.79107,-0.47953
6.3267,69781.5758,-1.54366,-1.06046,-0.62797
6.3341,69781.5859,-1.37567,-1.25594,-0.75869
6.3563,69781.5959,-1.36284,-1.22601,-0.85765
6.3587,69781.6058,-1.48685,-1.16492,-0.8491
6.3765,69781.6158,-1.60291,-1.09589,-0.75259
6.3798,69781.6258,-1.69943,-1.00304,-0.59437
6.3917,69781.6358,-1.94133,-0.93218,-0.40134
6.3952,69781.6459,-2.2266,-0.78374,-0.26634
6.4083,69781.6559,-2.4679,-0.43555,-0.19914
6.4153,69781.6658,-2.53081,-0.22052,-0.20097
6.4261,69781.6758,-2.34939,-0.05376,-0.21014
6.4357,69781.6858,-1.81183,-0.10812,-0.19792
6.4469,69781.6958,-0.73182,-0.42455,-0.1405
6.46,69781.7059,0.10079,-0.78496,-0.08308
6.4728,69781.7159,1.42393,-1.27304,0.07758
6.4754,69781.7258,2.57785,-1.70737,0.34697
6.4922,69781.7358,3.66397,-2.12092,0.66829
6.4964,69781.7458,4.21802,-2.1985,0.8882
6.507,69781.7558,4.3518,-2.05495,1.15515
6.5152,69781.7659,4.19909,-1.79778,1.51983
6.5299,69781.7759,3.92847,-1.42393,1.93644
6.5343,69781.7859,3.72017,-1.12277,2.24004
6.5454,69781.7958,3.56623,-0.83261,2.41047
6.5538,69781.8058,3.36709,-0.55405,2.41964
6.5659,69781.8158,2.96209,-0.52168,2.26387
6.5744,69781.8258,2.60229,-0.65729,2.1081
6.5881,69781.8359,2.46606,-0.70983,2.25348
6.5953,69781.8459,2.63955,-0.87659,2.64993
6.6066,69781.8558,3.24614,-1.31519,3.24369
6.6156,69781.8658,3.86372,-1.61146,3.69085
6.631,69781.8758,4.16549,-1.79472,4.08852
6.638,69781.8858,4.10868,-1.81549,4.36097
6.6504,69781.8959,3.82218,-1.57542,4.68595
6.6592,69781.9058,3.54485,-1.33779,4.91258
6.6719,69781.9158,3.33166,-1.2651,5.06163
6.6777,69781.9258,3.26202,-1.39094,5.11233
6.6857,69781.9358,3.23392,-1.76296,5.12027
6.6947,69781.9458,3.17772,-2.09832,5.07018
6.7063,69781.9559,2.94926,-2.31151,5.06102
6.7144,69781.9659,2.59068,-2.32434,5.16975
6.7344,69781.9758,2.12092,-2.21561,5.42937
6.7368,69781.9858,1.78006,-2.17957,5.69204
6.7475,69781.9958,1.4056,-2.25104,6.02863
6.7559,69782.0058,1.07512,-2.485,6.20883
6.7748,69782.0159,0.6408,-2.64993,6.24671
6.7776,69782.0259,0.27184,-2.53753,6.29313
6.7981,69782.0368,-0.22541,-2.16368,6.44402
6.8035,69782.0469,-0.49969,-1.92911,6.58024
6.8119,69782.0569,-0.65363,-1.85703,6.56986
6.8172,69782.0668,-0.68356,-1.89246,6.40859
6.8374,69782.0768,-0.54,-2.00181,6.25404
6.8391,69782.0868,-0.35369,-1.9285,6.20456
6.8553,69782.0968,-0.17959,-1.56809,6.19662
6.8565,69782.1069,-0.08125,-1.06963,6.19845
6.8693,69782.1169,-0.04398,-0.135,6.21861
6.8748,69782.1268,-0.10201,0.44899,6.15691
6.8867,69782.1368,-0.19914,0.9389,6.00542
6.896,69782.1468,-0.19426,1.15698,5.84965
6.9113,69782.1568,-0.21075,1.0684,5.59247
6.9151,69782.1669,-0.30482,0.66401,5.32858
6.9271,69782.1769,-0.45265,0.17471,5.03353
6.9383,69782.1869,-0.51801,0.0226,4.74337
6.9524,69782.1968,-0.562,0.06536,4.45076
6.9588,69782.2068,-0.6689,0.22663,4.13678
6.9698,69782.2168,-0.84544,0.51129,3.66153
6.9769,69782.2268,-0.90103,0.74098,3.31455
6.9859,69782.2369,-0.91935,0.85277,2.79104
6.9944,69782.2468,-0.79046,0.81184,2.28403
7.0058,69782.2568,-0.40684,0.63102,1.47096
7.0155,69782.2668,-0.02382,0.33964,0.64691
7.0268,69782.2768,0.31643,-0.11301,-0.25656
7.0408,69782.2868,0.54428,-0.49663,-0.95173
7.0513,69782.2969,0.80146,-0.92302,-1.8271
7.0578,69782.3069,0.96761,-1.19241,-2.56014
7.0708,69782.3168,1.07024,-1.21562,-3.27057
7.0748,69782.3268,1.08367,-0.97189,-3.74338
7.0864,69782.3368,1.00548,-0.51007,-4.2785
7.0947,69782.3468,0.88453,-0.20953,-4.78124
7.1107,69782.3569,0.66584,-0.24374,-5.37684
7.1147,69782.3669,0.45082,-0.57727,-5.92295
7.1278,69782.3768,0.18631,-1.31214,-6.477
7.1349,69782.3868,0.04704,-2.05434,-6.9883
7.1466,69782.3968,0.00489,-2.69697,-7.37314
7.1568,69782.4068,0.03238,-2.87046,-7.4098
7.1742,69782.4169,0.03421,-2.70613,-7.2021
7.1764,69782.4278,-0.03115,-2.26203,-6.80382
7.1892,69782.4378,-0.15211,-1.61024,-6.42386
7.1961,69782.4479,-0.29932,-1.10872,-6.27725
7.2087,69782.4579,-0.47159,-0.78007,-6.40492
7.216,69782.4678,-0.60048,-0.78435,-6.68042
7.2298,69782.4778,-0.6243,-0.93707,-7.09703
7.2402,69782.4878,-0.56872,-1.01709,-7.37375
7.2499,69782.4978,-0.48869,-0.98594,-7.67491
7.2567,69782.5079,-0.45326,-0.82833,-7.81236
7.2688,69782.5179,-0.47586,-0.54062,-7.83313
7.2764,69782.5278,-0.52657,-0.25229,-7.67308
7.3029,69782.5378,-0.57605,-0.0562,-7.35115
7.3119,69782.5478,-0.61514,-0.135,-7.06343
7.313,69782.5578,-0.63774,-0.3543,-6.71341
7.3201,69782.5679,-0.61209,-0.4777,-6.45318
7.3323,69782.5779,-0.5901,-0.49724,-6.24671
7.3374,69782.5878,-0.60048,-0.45082,-6.16974
7.3506,69782.5978,-0.67073,-0.47098,-6.15813
7.3561,69782.6078,-0.76725,-0.63225,-6.23693
7.3675,69782.6178,-0.80634,-0.96272,-6.36705
7.3761,69782.6279,-0.75014,-1.14782,-6.4147
7.3876,69782.6379,-0.69333,-1.2651,-6.30291
7.3958,69782.6479,-0.7025,-1.25472,-5.99809
7.4074,69782.6578,-0.74648,-1.20096,-5.6279
7.4157,69782.6678,-0.78252,-1.00487,-5.26932
7.4295,69782.6778,-0.82222,-0.53939,-5.0262
7.4386,69782.6878,-0.82161,0.05803,-4.82156
7.4579,69782.6979,-0.72449,0.53023,-4.55156
7.4636,69782.7079,-0.57116,0.7703,-4.22597
7.4729,69782.7178,-0.36652,0.72754,-3.83135
7.4806,69782.7278,-0.20097,0.58093,-3.55035
7.4901,69782.7378,-0.0391,0.51313,-3.29989
7.4972,69782.7478,0.04887,0.74098,-3.24431
7.5126,69782.7579,0.12462,1.20707,-3.32311
7.522,69782.7679,0.18815,1.54854,-3.38297
7.5285,69782.7778,0.28527,1.74341,-3.38175
7.5361,69782.7878,0.37813,1.58397,-3.31639
7.5495,69782.7978,0.51068,1.00854,-3.30112
7.5561,69782.8078,0.6524,0.56505,-3.37381
7.5709,69782.8179,0.89186,0.37568,-3.4068
7.5771,69782.8279,1.13621,0.66096,-3.31944
7.591,69782.8379,1.42576,1.46363,-3.1203
7.5989,69782.8478,1.56565,1.89918,-2.82342
7.6122,69782.8578,1.0403,0.8601,-2.73607
7.6162,69782.8678,0.13683,-0.85827,-2.98224
7.6294,69782.8779,-0.25656,-1.67621,-3.16611
7.636,69782.8879,-0.05986,-1.45691,-3.19788
7.6489,69782.8979,0.24801,-1.08795,-3.21193
7.665,69782.9089,0.38118,-1.12888,-3.09098
7.6771,69782.9189,0.34636,-1.17469,-2.90894
7.682,69782.9288,0.35308,-1.07268,-2.64688
7.6936,69782.9388,0.41966,-0.85155,-2.31701
7.6999,69782.9488,0.44838,-0.58582,-2.04457
7.7101,69782.9588,0.36957,-0.14844,-1.88635
7.7208,69782.9689,0.17776,0.42883,-1.75746
7.7299,69782.9789,-0.13989,0.85827,-1.48074
7.7369,69782.9886,-0.32437,0.89797,-1.26144
7.7493,69782.9988,-0.36835,0.82589,-1.06352
7.7573,69783.0088,-0.28772,0.65668,-0.97861
7.7724,69783.0188,-0.16982,0.41478,-0.96517
7.7774,69783.0289,-0.0733,0.2248,-0.94318
7.7896,69783.0389,0.03848,-0.05376,-0.86132
7.8001,69783.0489,0.10751,-0.16188,-0.76969
7.8149,69783.0588,0.13317,-0.10751,-0.64446
7.8191,69783.0688,0.07697,0.1631,-0.47342
7.8388,69783.0788,-0.14416,0.59865,-0.14966
7.8456,69783.0898,-0.3146,0.7758,0.09041
7.8525,69783.0998,-0.35736,0.85643,0.29199
7.8609,69783.1098,-0.31215,0.81734,0.41417
7.8718,69783.1199,-0.26084,0.64691,0.51801
7.8786,69783.1299,-0.21686,0.54123,0.62308
7.8913,69783.1398,-0.1686,0.47281,0.8717
7.8974,69783.1498,-0.20769,0.39584,1.14537
7.9099,69783.1598,-0.40317,0.34208,1.61574
7.9205,69783.1698,-0.64935,0.35919,2.16002
7.9313,69783.1799,-0.94806,0.32437,2.7831
7.9429,69783.1899,-1.16797,0.31521,3.29256
7.9503,69783.1999,-1.33169,0.26878,3.76782
7.9586,69783.2098,-1.39583,0.04887,4.17404
7.9761,69783.2198,-1.28709,-0.41356,4.48864
7.9815,69783.2298,-0.99815,-0.99999,4.66029
7.9944,69783.2408,-0.51435,-1.61574,4.72382
7.9995,69783.2508,-0.05925,-1.8387,4.74948
8.0152,69783.2608,0.31887,-1.78434,4.81362
8.0202,69783.2709,0.47342,-1.63895,4.95045
8.0314,69783.2809,0.42638,-1.49295,5.17708
8.0394,69783.2908,0.23213,-1.4166,5.37561
8.0517,69783.3008,-0.13867,-1.36956,5.62179
8.063,69783.3108,-0.48381,-1.36406,5.80994
8.0729,69783.3208,-0.73854,-1.63529,5.84109
8.0802,69783.3318,-0.76664,-2.02013,5.61385
8.0964,69783.3418,-0.62064,-2.14475,5.20335
8.1065,69783.3518,-0.4722,-1.86619,4.84355
8.1181,69783.3619,-0.42761,-1.2932,4.5314
8.1225,69783.3718,-0.49969,-0.86132,4.40067
8.133,69783.3818,-0.66645,-0.38668,4.37013
8.1414,69783.3918,-0.86132,0.0171,4.35364
8.1543,69783.4018,-1.10383,0.42272,4.1942
8.1599,69783.4118,-1.29565,0.5901,3.95535
8.1722,69783.4219,-1.51678,0.59315,3.56562
8.1801,69783.4319,-1.66583,0.52107,3.2217
8.1935,69783.4418,-1.72569,0.44288,2.94498
8.2,69783.4518,-1.69393,0.40867,2.80754
8.2136,69783.4618,-1.5913,0.46304,2.70369
8.2198,69783.4718,-1.52228,0.56016,2.6933
8.233,69783.4819,-1.44286,0.62858,2.71713
8.2428,69783.4919,-1.36712,0.61575,2.74217
8.2583,69783.5029,-1.26938,0.61148,2.77272
8.2676,69783.5129,-1.17225,0.63408,2.80876
8.2851,69783.5229,-1.01098,0.53878,2.87962
8.288,69783.5339,-0.80817,0.3427,2.99813
8.2946,69783.5439,-0.53451,0.09102,3.18749
8.3048,69783.5538,-0.32376,-0.11362,3.30661
8.3172,69783.5638,-0.17837,-0.34331,3.35487
8.3276,69783.5738,-0.07636,-0.54367,3.38358
8.3346,69783.5838,0.05803,-0.76664,3.53019
8.3429,69783.5939,0.19792,-0.92302,3.75499
8.3593,69783.6039,0.33292,-1.00793,3.95719
8.3656,69783.6138,0.40256,-1.0458,4.05126
8.3762,69783.6238,0.47892,-1.09711,4.10868
8.3823,69783.6338,0.53023,-1.12705,4.12273
8.3942,69783.6438,0.59743,-1.08612,4.15022
8.4043,69783.6539,0.66035,-1.03419,4.21069
8.4164,69783.6639,0.71777,-0.9389,4.3176
8.4258,69783.6748,0.79718,-0.79107,4.50147
8.4355,69783.6849,0.88698,-0.67562,4.6719
8.4546,69783.6949,0.93951,-0.67256,4.72321
8.4556,69783.7048,0.96944,-0.68539,4.66945
8.4631,69783.7148,0.96517,-0.73487,4.61936
8.4807,69783.7248,0.93829,-0.76786,4.61081
8.4833,69783.7348,0.91324,-0.69578,4.66701
8.5036,69783.7449,0.86315,-0.63102,4.66518
8.5051,69783.7549,0.78313,-0.59376,4.58271
8.5162,69783.7648,0.70005,-0.50274,4.44832
8.5282,69783.7748,0.56505,-0.3036,4.26567
8.5373,69783.7848,0.40928,0.05253,3.9694
8.5462,69783.7948,0.28466,0.29199,3.67313
8.5557,69783.8049,0.15944,0.52351,3.20154
8.5659,69783.8158,0.13378,0.70066,2.70369
8.5813,69783.8258,0.16921,0.81245,2.20583
8.5844,69783.8359,0.18265,0.80756,1.79472
8.5973,69783.8459,0.18326,0.61575,1.23395
8.6039,69783.8558,0.19609,0.30727,0.75931
8.6183,69783.8658,0.25412,-0.12706,0.28833
8.6249,69783.8758,0.26695,-0.41783,-0.01772
8.6448,69783.8858,0.25779,-0.76419,-0.34941
8.6476,69783.8959,0.27122,-1.01831,-0.70066
8.6571,69783.9059,0.33964,-1.10322,-1.09956
8.6652,69783.9158,0.44166,-1.11788,-1.45997
8.6763,69783.9258,0.72937,-1.07329,-2.01036
8.6853,69783.9358,1.10994,-0.97128,-2.54548
8.6974,69783.9458,1.59558,-0.82528,-3.09953
8.7103,69783.9559,2.0354,-0.68722,-3.5418
8.7167,69783.9659,2.4514,-0.40745,-3.8906
8.7262,69783.9758,2.79837,-0.15211,-4.20459
8.7417,69783.9858,3.08182,0.09896,-4.51124
8.748,69783.9958,3.26752,0.44349,-4.70733
8.7588,69784.0058,3.37198,0.95906,-4.77819
8.766,69784.0159,3.34571,1.55282,-4.76108
8.7796,69784.0259,3.21804,2.25776,-4.70305
8.7837,69784.0359,3.06471,2.68659,-4.69816
8.7954,69784.0458,2.91749,2.79837,-4.72077
8.8037,69784.0558,2.86984,2.58579,-4.73359
8.8187,69784.0658,2.97858,1.93278,-4.77819
8.8248,69784.0768,3.15451,1.41232,-4.81667
8.8727,69784.0868,3.24308,0.94501,-4.82767
8.8759,69784.0968,3.01034,0.76419,-4.82034
8.8764,69784.1069,2.59618,1.26877,-4.75864
8.8774,69784.1169,2.24004,2.06411,-4.47764
8.8779,69784.1268,1.89124,2.7098,-4.02438
8.8887,69784.1368,1.77762,2.94132,-3.67435
8.8981,69784.1468,1.88269,2.92604,-3.30478
8.9077,69784.1567,2.08244,2.82953,-3.09098
8.9166,69784.1669,2.27914,2.74706,-2.98408
8.9246,69784.1769,2.35366,2.7776,-2.92971
8.9366,69784.1869,2.41719,2.94987,-2.91871
8.9448,69784.1968,2.5412,3.22903,-3.02195
8.9624,69784.2068,2.78493,3.60472,-3.26691
8.9658,69784.2168,3.08365,3.9804,-3.54607
8.976,69784.2268,3.41168,4.54606,-3.78003
8.9843,69784.2368,3.6939,5.07446,-3.85822
8.9959,69784.2468,3.88755,5.42082,-3.68902
9.0044,69784.2568,3.91076,5.39394,-3.33716
9.0159,69784.2667,3.80325,5.1441,-2.86374
9.0244,69784.2768,3.5137,4.62242,-2.37321
9.0368,69784.2868,3.00362,3.76293,-1.90712
9.0444,69784.2968,2.64199,3.13801,-1.61146
9.0584,69784.3068,2.22477,2.3836,-1.22051
9.0651,69784.3168,1.94744,1.9169,-0.95173
9.0812,69784.3268,1.56443,1.39644,-0.7086
9.0906,69784.3368,1.21012,0.9108,-0.5455
9.0982,69784.3468,0.90164,0.47159,-0.35491
9.105,69784.3568,0.74587,0.22969,-0.18265
9.1176,69784.3668,0.61025,0.04643,-0.00305
9.125,69784.3768,0.46426,0.0452,0.23396
9.1391,69784.3868,0.14661,-0.05009,0.51252
9.1451,69784.3968,-0.20036,-0.2584,0.63774
9.1698,69784.4068,-0.65424,-0.56261,0.76725
9.1723,69784.4168,-0.93829,-0.96211,0.77458
9.1792,69784.4268,-1.05741,-1.5852,0.67562
9.1869,69784.4368,-1.03053,-2.03113,0.37141
9.1973,69784.4468,-1.00121,-2.34694,0.18021
9.2051,69784.4568,-1.03114,-2.68109,0.09407
9.2186,69784.4668,-1.03847,-3.15939,-0.13744
9.225,69784.4768,-1.01709,-3.61327,-0.41539
9.2388,69784.4868,-0.94134,-4.01705,-0.63652
9.2452,69784.4968,-0.86499,-4.14167,-0.68295
9.2614,69784.5068,-0.73854,-4.14594,-0.59865
9.2659,69784.5168,-0.59559,-4.11173,-0.46609
9.2782,69784.5268,-0.34208,-3.88816,-0.31398
9.2853,69784.5368,-0.25107,-3.87411,-0.24068
9.2989,69784.5468,-0.29932,-4.05431,-0.27489
9.3058,69784.5568,-0.32987,-4.27789,-0.47831
9.3195,69784.5678,-0.34025,-4.42877,-0.89309
9.3265,69784.5778,-0.36774,-4.3738,-1.09528
9.3392,69784.5878,-0.50702,-4.31698,-1.28587
9.3535,69784.5978,-0.74037,-4.16182,-1.42698
9.3607,69784.6078,-1.08001,-3.88266,-1.31336
9.3674,69784.6178,-1.36589,-3.63159,-1.0513
9.4041,69784.6278,-1.64873,-3.32922,-0.67378
9.4175,69784.6378,-1.74952,-3.30906,-0.43371
9.4192,69784.6478,-1.7599,-4.00117,-0.53329
9.4205,69784.6578,-1.69882,-5.08912,-0.87109
9.4213,69784.6678,-1.49051,-6.82764,-1.3775
9.4295,69784.6778,-1.39338,-8.3432,-1.67194
9.4407,69784.6878,-1.26022,-9.35051,-1.88818
9.4462,69784.6978,-1.2199,-9.64556,-2.10626
9.4638,69784.7078,-1.17958,-9.20391,-2.44102
9.4658,69784.7178,-1.09467,-8.47881,-2.56014
9.4777,69784.7278,-0.81123,-7.34138,-2.26142
9.4873,69784.7378,-0.34758,-6.09888,-1.86558
9.4986,69784.7478,0.34331,-5.30536,-1.43614
9.5058,69784.7578,0.90225,-5.16548,-1.19424
9.5184,69784.7678,1.52838,-5.29865,-1.01159
9.5255,69784.7778,1.98837,-5.64378,-0.93523
9.5388,69784.7878,2.38482,-6.17402,-0.96089
9.5458,69784.7978,2.65177,-6.52648,-1.03358
9.5631,69784.8078,2.83686,-6.85513,-1.12338
9.5657,69784.8178,2.82708,-7.05672,-1.11849
9.5796,69784.8278,2.7098,-7.36703,-0.98044
9.5882,69784.8378,2.61267,-7.61993,-0.82161
9.5978,69784.8478,2.59129,-7.89238,-0.73243
9.6058,69784.8578,2.65299,-8.16116,-0.76236
9.6179,69784.8678,2.74523,-8.64069,-0.91569
9.628,69784.8778,2.81487,-9.08112,-1.12338
9.6383,69784.8878,2.90711,-9.43237,-1.38972
9.646,69784.8978,3.05921,-9.58448,-1.59069
9.6596,69784.9078,3.39824,-9.67549,-1.8216
9.6658,69784.9178,3.81485,-9.67244,-1.95782
9.6782,69784.9278,4.43366,-9.72436,-2.05373
9.6904,69784.9378,5.00482,-9.7488,-2.14963
9.7023,69784.9488,5.93211,-9.82332,-2.49355
9.7088,69784.9588,6.74578,-9.93145,-2.83136
9.719,69784.9688,7.59611,-10.0017,-3.04028
9.7279,69784.9788,8.36702,-9.92228,-2.93154
9.7399,69784.9888,9.10067,-9.66694,-2.32495
9.7467,69784.9988,9.38778,-9.17459,-1.72264
9.759,69785.0088,9.47818,-8.0793,-0.96211
9.77,69785.0188,9.35296,-6.26687,-0.68539
9.7813,69785.0288,8.7873,-3.88938,-0.92057
9.7953,69785.0388,7.87527,-2.02135,-1.32863
9.8046,69785.0488,6.80748,-0.84422,-1.65972
9.8114,69785.0588,6.1789,-0.45387,-1.83015
9.8198,69785.0688,5.88508,-0.01588,-1.81305
9.8271,69785.0788,6.09033,0.25779,-1.58825
9.8394,69785.0888,6.63583,0.48564,-1.16309
9.847,69785.0988,7.13552,0.64996,-0.71838
9.8603,69785.1088,7.66208,0.9841,-0.24862
9.8724,69785.1188,7.9327,1.29442,0.18387
9.8858,69785.1288,7.86794,1.83137,0.63774
9.8886,69785.1388,7.62787,2.2547,0.86865
9.8999,69785.1488,7.42873,2.5864,0.91447
9.9067,69785.1588,7.28762,2.70186,0.76236
9.9223,69785.1688,7.06527,2.67192,0.51007
9.9271,69785.1788,6.82703,2.62306,0.36774
9.9393,69785.1888,6.50205,2.73118,0.31276
9.9521,69785.1986,6.01397,3.26263,0.37324
9.966,69785.2087,5.37134,4.25162,0.46792
9.9835,69785.2198,4.88937,5.23145,0.46487
9.9845,69785.2297,4.70855,5.92234,0.43127
9.9912,69785.2398,4.75253,6.38293,0.41233
10.0001,69785.2498,5.09706,6.60651,0.37935
10.0091,69785.2598,5.61324,6.5778,0.32009
10.0203,69785.2698,6.28214,6.41653,0.27122
10.0277,69785.2798,6.7354,6.23999,0.27611
10.039,69785.2898,7.09337,6.20639,0.37385
10.0478,69785.2998,7.18194,6.35666,0.49541
10.0599,69785.3098,7.1007,6.70913,0.62064
10.0677,69785.3198,6.9211,6.87223,0.62736
10.0794,69785.3298,6.72807,6.69142,0.48503
10.0877,69785.3398,6.7128,6.22594,0.19609
10.1022,69785.3498,6.78793,5.42387,-0.33964
10.1091,69785.3598,6.87895,4.72199,-1.07024
10.1229,69785.3698,6.7244,3.75682,-2.10015
10.1295,69785.3798,6.31696,3.05799,-2.95414
10.1431,69785.3908,5.37134,2.29746,-3.96513
10.1502,69785.4008,4.55583,2.1869,-4.43549
10.1636,69785.4108,3.50576,2.41353,-4.71832
10.1702,69785.4208,2.8393,2.80754,-4.80995
10.1907,69785.4308,2.474,3.0922,-4.82645
10.2083,69785.4407,2.50455,3.01829,-4.81667
10.2112,69785.4508,2.98835,2.43735,-4.93152
10.2145,69785.4618,3.59677,1.85459,-5.16792
10.2266,69785.4728,4.06286,1.15148,-5.59247
10.2332,69785.4828,4.1606,0.58643,-5.90218
10.2435,69785.4928,4.0311,0.15638,-6.24732
10.256,69785.5028,3.84173,0.22419,-6.46601
10.2643,69785.5138,3.6096,0.61331,-6.55336
10.2775,69785.5238,3.49904,0.85216,-6.6059
10.2861,69785.5338,3.46422,0.87232,-6.77022
10.2944,69785.5438,3.46849,0.75075,-6.92477
10.3062,69785.5538,3.35976,0.35491,-7.03656
10.3135,69785.5638,3.15756,-0.1912,-7.028
10.3319,69785.5738,2.7886,-1.25288,-6.92904
10.3345,69785.5838,2.54242,-1.96882,-6.83192
10.356,69785.5938,2.27242,-2.52104,-6.64744
10.3607,69785.6038,2.03907,-2.69147,-6.53015
10.3707,69785.6138,1.66888,-2.65849,-6.32917
10.3736,69785.6237,1.38666,-2.42819,-6.10682
10.39,69785.6338,1.09101,-1.98348,-5.80383
10.3933,69785.6438,0.93401,-1.56931,-5.64317
10.4072,69785.6538,0.87109,-1.11483,-5.64012
10.4122,69785.6638,0.86682,-0.83322,-5.81971
10.4295,69785.6738,0.82467,-0.63225,-6.17157
10.4398,69785.6838,0.68417,-0.59682,-6.53565
10.4479,69785.6938,0.44288,-0.68539,-6.91988
10.4529,69785.7038,0.1179,-1.01098,-7.24731
10.4633,69785.7138,-0.22052,-1.47402,-7.44889
10.4719,69785.7238,-0.44288,-1.59191,-7.35298
10.4835,69785.7338,-0.68845,-1.40927,-6.98952
10.4917,69785.7438,-0.84605,-1.17042,-6.62789
10.5056,69785.7538,-1.04519,-0.7813,-6.18868
10.5124,69785.7638,-1.21562,-0.50824,-5.98953
10.524,69785.7738,-1.56015,-0.25901,-5.85453
10.5317,69785.7838,-1.89613,-0.21258,-5.77573
10.5471,69785.7938,-2.3274,-0.35064,-5.59064
10.5553,69785.8038,-2.54364,-0.42333,-5.43365
10.566,69785.8138,-2.70125,-0.29871,-5.23023
10.5797,69785.8238,-2.73607,-0.16371,-5.09339
10.5905,69785.8338,-2.68536,-0.00672,-4.84294
10.5925,69785.8438,-2.56624,0.20892,-4.59982
10.6039,69785.8538,-2.35489,0.71471,-4.13861
10.6143,69785.8638,-2.19117,1.31031,-3.4746
10.6278,69785.8738,-2.10015,1.70554,-2.65482
10.6334,69785.8837,-2.01402,1.53449,-1.8723
10.6438,69785.8938,-1.65972,0.9951,-1.10567
10.6524,69785.9038,-1.00487,0.19792,-0.39706
10.6663,69785.9138,-0.04276,-0.87354,0.34025
10.6731,69785.9248,0.83017,-1.82404,0.85399
10.6862,69785.9348,1.64139,-2.52654,1.21623
10.6932,69785.9448,2.16124,-2.9181,1.39827
10.7137,69785.9548,2.48683,-3.18505,1.53877
10.7255,69785.9648,2.70125,-3.32005,1.76723
10.7275,69785.9748,2.87962,-3.27668,2.12398
10.7401,69785.9848,3.01095,-3.01157,2.45385
10.7555,69785.9948,3.1429,-2.76355,2.78677
10.7596,69786.0048,3.22354,-2.82036,3.04333
10.7683,69786.0148,3.28951,-3.07754,3.34754
10.7743,69786.0248,3.32738,-3.21437,3.59189
10.7914,69786.0348,3.37992,-3.25041,3.84784
10.7986,69786.0448,3.40863,-3.1936,4.02499
10.8137,69786.0548,3.39275,-3.10136,4.25651
10.8152,69786.0648,3.30539,-3.01157,4.40251
10.8328,69786.0748,3.19727,-2.9065,4.50391
10.8361,69786.0848,3.15634,-2.85335,4.62486
10.8504,69786.0948,3.15329,-2.82586,4.83194
10.8555,69786.1048,3.18933,-2.71469,4.91624
10.8681,69786.1148,3.16917,-2.40681,4.88814
10.8728,69786.1248,3.09709,-2.12642,4.86127
10.8849,69786.1348,2.96147,-1.74341,4.91258
10.8936,69786.1448,2.76905,-1.36162,4.98894
10.9059,69786.1548,2.48133,-0.87293,5.05247
10.9126,69786.1648,2.28769,-0.59193,5.03842
10.9244,69786.1748,2.06045,-0.33414,4.95412
10.9327,69786.1848,1.90773,-0.26267,4.91441
10.9459,69786.1948,1.78556,-0.34331,4.96511
10.9525,69786.2048,1.76296,-0.49602,5.14837
10.9681,69786.2148,1.8497,-0.64446,5.58575
10.9732,69786.2248,1.96454,-0.82955,6.01458
10.9858,69786.2348,2.1423,-1.3158,6.42997
10.994,69786.2448,2.30541,-1.88941,6.58574
11.004,69786.2548,2.46301,-2.22966,6.55092
11.0124,69786.2648,2.49661,-2.30296,6.43547
11.0239,69786.2747,2.41292,-2.24859,6.36827
11.0328,69786.2848,2.24798,-2.05067,6.49594
11.0439,69786.2948,2.02807,-1.68477,6.89728
11.0524,69786.3048,1.82771,-1.47524,7.28029
11.0649,69786.3148,1.67133,-1.55465,7.64009
11.0724,69786.3248,1.58275,-1.69637,7.74944
11.0844,69786.3348,1.45875,-1.96332,7.60466
11.0924,69786.3448,1.28954,-2.16307,7.41102
11.1052,69786.3547,1.06291,-2.24798,7.34565
11.1124,69786.3648,0.75686,-2.19301,7.39208
11.1254,69786.3748,0.37629,-2.05556,7.41835
11.1326,69786.3848,0.09957,-1.9676,7.34565
11.1447,69786.3948,-0.06842,-1.92056,7.11719
11.1524,69786.4048,-0.12034,-1.67316,6.91866
11.164,69786.4148,-0.24435,-1.29626,6.65171
11.1725,69786.4248,-0.405,-1.23517,6.3756
11.1844,69786.4348,-0.56505,-1.45691,5.94799
11.1927,69786.4448,-0.60292,-1.68477,5.51672
11.2046,69786.4548,-0.56749,-1.99875,4.91563
11.2127,69786.4648,-0.4612,-2.21255,4.44099
11.226,69786.4746,-0.32132,-2.20339,4.0256
11.2374,69786.4848,-0.29199,-2.08488,3.77209
11.2472,69786.4948,-0.46304,-1.92117,3.47216
11.2575,69786.5048,-0.71593,-1.86803,3.23636
11.2657,69786.5148,-1.08551,-1.78861,2.91933
11.2748,69786.5258,-1.35001,-1.64873,2.69453
11.2862,69786.5358,-1.60596,-1.64445,2.64688
11.2972,69786.5458,-1.94194,-1.80022,2.64993
11.3101,69786.5558,-2.41231,-2.31823,2.57602
11.316,69786.5658,-2.80143,-2.90528,2.55953
11.3296,69786.5758,-3.05616,-3.6261,2.56808
11.3367,69786.5858,-3.13435,-4.08302,2.5357
11.3457,69786.5958,-3.04394,-4.17343,2.43185
11.3549,69786.6058,-2.89489,-3.93458,2.32923
11.3658,69786.6158,-2.81059,-3.50087,2.27792
11.3739,69786.6258,-2.89917,-2.98591,2.25959
11.3861,69786.6358,-3.10686,-2.48256,2.21988
11.3946,69786.6458,-3.27118,-2.27608,2.10749
11.4092,69786.6558,-3.38908,-2.35611,1.92178
11.4241,69786.6658,-3.4349,-2.70858,1.78678
11.4265,69786.6758,-3.44345,-3.47705,1.57359
11.4346,69786.6858,-3.37625,-4.30843,1.28587
11.4546,69786.6958,-3.28645,-4.94923,0.96028
11.4619,69786.7058,-3.29562,-4.92602,0.88453
11.4775,69786.7158,-3.50942,-4.43977,0.99143
11.4813,69786.7258,-3.7446,-4.07753,1.01343
11.4874,69786.7368,-4.0085,-3.64259,0.82284
11.4994,69786.7468,-4.07142,-3.52469,0.57482
11.5131,69786.7568,-4.0421,-3.73605,0.20586
11.5152,69786.7668,-3.99506,-4.24674,-0.15394
11.5295,69786.7768,-3.96207,-5.04025,-0.56077
11.5349,69786.7868,-3.95841,-5.61629,-0.80634
11.5466,69786.7968,-4.003,-6.02985,-0.9444
11.5564,69786.8068,-4.14533,-5.97793,-0.86987
11.5687,69786.8178,-4.32309,-5.42143,-0.62675
11.5781,69786.8278,-4.419,-4.83866,-0.58704
11.5933,69786.8378,-4.48681,-3.91687,-0.74953
11.5972,69786.8478,-4.55644,-2.94009,-1.00304
11.6172,69786.8578,-4.66518,-1.96027,-1.26755
11.6201,69786.8678,-4.74887,-1.37506,-1.47219
11.6333,69786.8778,-4.78857,-0.94745,-1.75379
11.6388,69786.8878,-4.68778,-0.84727,-1.94072
11.6503,69786.8977,-4.40678,-0.83139,-2.1759
11.6573,69786.9078,-4.04515,-0.93707,-2.35122
11.6683,69786.9178,-3.60227,-1.02564,-2.41047
11.6822,69786.9278,-3.13924,-0.94073,-2.34572
11.6889,69786.9378,-2.65971,-0.58826,-2.29563
11.6962,69786.9478,-2.24615,-0.13683,-2.30418
11.7083,69786.9578,-1.84542,0.56077,-2.40498
11.7161,69786.9678,-1.5351,1.01465,-2.59557
11.7383,69786.9778,-1.11727,0.9389,-3.01829
11.75,69786.9878,-0.94684,0.31093,-3.26935
11.7524,69786.9978,-0.92852,-0.71166,-3.34754
11.7583,69787.0078,-0.97433,-1.38056,-3.26324
11.7734,69787.0178,-1.02137,-1.74402,-3.06471
11.7765,69787.0278,-1.03053,-1.62307,-2.82159
11.7924,69787.0378,-0.9725,-1.20218,-2.50333
11.798,69787.0488,-0.96517,-0.75503,-2.23454
11.8103,69787.0588,-1.07329,-0.35491,-2.02563
11.8172,69787.0688,-1.20829,-0.18815,-1.95538
11.8312,69787.0788,-1.28404,-0.24679,-1.94805
11.8376,69787.0888,-1.23212,-0.33109,-2.00486
11.8512,69787.0988,-1.03114,-0.3769,-2.09527
11.8674,69787.1098,-0.74037,-0.56933,-2.11054
11.8808,69787.1198,-0.47342,-0.67745,-2.07328
11.8832,69787.1298,-0.34636,-0.54123,-2.00914
11.9042,69787.1408,-0.31582,-0.28588,-1.85398
11.9086,69787.1508,-0.31582,-0.17165,-1.57359
11.9133,69787.1608,-0.30482,-0.02382,-1.18141
11.9209,69787.1708,-0.30177,0.16066,-0.8937
11.94,69787.1808,-0.41233,0.6915,-0.59743
11.9501,69787.1908,-0.75564,1.48929,-0.28711
11.9583,69787.2008,-1.35918,2.53509,0.25656
11.9616,69787.2108,-1.86986,3.45139,0.78496
11.9747,69787.2206,-2.5583,4.85577,1.52167
11.9828,69787.2308,-3.1539,5.93517,2.13864
11.9949,69787.2408,-3.74949,6.53015,2.68048
11.9994,69787.2508,-4.13434,6.60834,2.93765
12.0155,69787.2608,-4.54484,6.54298,3.02317
12.0205,69787.2708,-4.94007,6.6682,2.91627
12.0313,69787.2808,-5.57353,7.14224,2.55525
12.0398,69787.2908,-6.11904,7.46111,2.21744
12.052,69787.3007,-6.81359,8.0115,1.81793
12.0591,69787.3108,-7.53502,8.48492,1.41904
12.0722,69787.3208,-8.37557,8.76836,1.08856
12.0834,69787.3308,-8.81234,8.703,1.07573
12.0957,69787.3408,-9.05791,8.58632,1.24555
12.103,69787.3508,-9.05241,8.65352,1.37994
12.1141,69787.3608,-8.89786,8.86366,1.4056
12.1194,69787.3708,-8.64069,8.70055,1.27793
12.1334,69787.3808,-8.21919,7.97912,0.90775
12.1408,69787.3908,-7.76715,7.33038,0.4948
12.1526,69787.4008,-6.90828,6.64255,-0.02993
12.1601,69787.4108,-6.24915,6.2858,-0.25168
12.1787,69787.4208,-5.48374,5.93517,-0.42272
12.1812,69787.4308,-4.98894,5.72747,-0.51068
12.1987,69787.4407,-4.39518,5.60225,-0.59132
12.2003,69787.4508,-4.04637,5.62851,-0.65118
12.2142,69787.4608,-3.65969,5.81483,-0.85827
12.2196,69787.4708,-3.38725,6.04268,-1.18019
12.233,69787.4808,-3.1484,6.14897,-1.54305
12.2413,69787.4908,-2.91322,5.93639,-1.80144
12.2559,69787.5008,-2.6933,5.41104,-1.97798
12.2624,69787.5108,-2.63894,4.97428,-2.10077
12.2803,69787.5208,-2.65482,4.52957,-2.26936
12.2855,69787.5308,-2.71896,4.31637,-2.35489
12.2968,69787.5408,-2.85702,4.35975,-2.36527
12.304,69787.5518,-3.01462,4.29072,-2.28219
12.3209,69787.5618,-3.0415,4.22535,-2.23882
12.3229,69787.5718,-2.92116,4.24735,-2.2431
12.3352,69787.5818,-2.64138,4.24796,-2.2712
12.3407,69787.5917,-2.31274,4.29927,-2.26448
12.3527,69787.6018,-1.97248,4.42144,-2.19484
12.3616,69787.6118,-1.78312,4.50391,-2.12642
12.3738,69787.6228,-1.6475,4.56927,-1.98348
12.3813,69787.6328,-1.64811,4.69939,-1.89124
12.3943,69787.6428,-1.70065,5.02009,-1.8216
12.4118,69787.6528,-1.77029,5.38356,-1.80999
12.414,69787.6628,-1.84115,5.81544,-1.87108
12.4273,69787.6728,-1.86436,6.01397,-1.98714
12.4364,69787.6828,-1.85031,6.0384,-2.07816
12.4425,69787.6928,-1.82649,6.08483,-2.08733
12.4536,69787.7028,-1.82527,6.21616,-2.07877
12.4611,69787.7128,-1.83687,6.27725,-2.13497
12.4733,69787.7228,-1.81732,6.2516,-2.2883
12.4812,69787.7328,-1.7483,6.25221,-2.39948
12.4949,69787.7428,-1.58458,6.21861,-2.4569
12.5035,69787.7538,-1.43065,6.03107,-2.46484
12.5241,69787.7638,-1.31031,5.67921,-2.4007
12.5321,69787.7738,-1.26205,5.21496,-2.30785
12.5429,69787.7838,-1.21073,4.42694,-2.12031
12.5445,69787.7938,-1.17897,3.97918,-1.99509
12.5561,69787.8038,-1.14965,3.66336,-1.8552
12.5633,69787.8138,-1.09711,3.37564,-1.73119
12.5823,69787.8238,-0.96944,2.84785,-1.55587
12.5862,69787.8338,-0.87354,2.50271,-1.37445
12.599,69787.8438,-0.85216,2.07694,-1.16248
12.6038,69787.8538,-0.91935,1.60535,-0.95906
12.6197,69787.8638,-1.01831,0.92546,-0.79046
12.6227,69787.8738,-1.08123,0.48503,-0.69761
12.6349,69787.8838,-1.08367,0.30238,-0.64446
12.6423,69787.8938,-1.08673,0.35858,-0.64019
12.6547,69787.9038,-1.17042,0.40561,-0.70433
12.6621,69787.9138,-1.30481,0.33048,-0.78557
12.6741,69787.9238,-1.372,0.24129,-0.82955
12.682,69787.9338,-1.36712,0.1741,-0.7648
12.6949,69787.9438,-1.3885,0.02688,-0.66951
12.7021,69787.9538,-1.39338,-0.2364,-0.6127
12.7149,69787.9638,-1.3213,-0.6182,-0.52107
12.7245,69787.9748,-1.14598,-1.09406,-0.30482
12.7385,69787.9848,-0.96822,-1.66522,0.00733
12.7454,69787.9948,-0.87293,-2.33106,0.21258
12.7584,69788.0048,-0.69822,-3.01157,0.5736
12.7634,69788.0148,-0.52534,-3.53813,1.102
12.7788,69788.0248,-0.41478,-3.98773,1.79411
12.7867,69788.0348,-0.44288,-4.44466,2.29258
12.8026,69788.0448,-0.67806,-5.29009,2.91566
12.8042,69788.0548,-0.92057,-6.10987,3.33288
12.8355,69788.0648,-1.19058,-7.43912,3.79469
12.8398,69788.0747,-1.27182,-8.64802,4.02988
12.8407,69788.0848,-1.02503,-10.22039,4.17893
12.8477,69788.0948,-0.45326,-11.28818,4.20581
12.8975,69788.1047,0.50641,-11.85201,4.06897
12.9017,69788.1148,1.32985,-11.65836,3.82341
12.9026,69788.1248,2.22294,-10.36699,3.59983
12.9035,69788.1348,2.66887,-8.50996,3.49537
12.9039,69788.1448,2.61389,-5.91806,3.55035
12.9046,69788.1548,2.25837,-4.30965,3.71406
12.9189,69788.1648,1.75441,-2.92299,3.9523
12.9251,69788.1748,1.29137,-2.07877,4.1209
12.9346,69788.1848,0.79107,-1.51067,4.15205
12.9428,69788.1948,0.37507,-1.33902,4.17526
12.9539,69788.2048,0.03299,-1.36223,4.2559
12.9625,69788.2148,-0.24251,-1.52167,4.35242
12.9747,69788.2247,-0.45571,-1.923,4.4978
12.9823,69788.2348,-0.49052,-2.30235,4.5931
12.9939,69788.2448,-0.37507,-2.94315,4.73787
13.0023,69788.2548,-0.18143,-3.55035,4.8802
13.0141,69788.2647,0.15577,-4.37502,5.00054
13.0234,69788.2747,0.51435,-5.05613,5.03964
13.0348,69788.2847,0.94806,-5.55215,4.981
13.0432,69788.2948,1.20279,-5.61996,4.89364
13.0549,69788.3058,1.37323,-5.38356,4.84966
13.0657,69788.3158,1.37628,-5.13616,4.86921
13.0786,69788.3258,1.29137,-4.99566,4.90708
13.084,69788.3358,1.21318,-4.9926,4.91013
13.0965,69788.3458,1.12094,-5.07018,4.83317
13.104,69788.3557,1.04763,-5.06468,4.67312
13.1172,69788.3658,0.99938,-4.79407,4.4245
13.1246,69788.3758,0.95784,-4.35975,4.20825
13.1375,69788.3856,0.82406,-3.62243,3.96696
13.1439,69788.3958,0.66951,-3.25225,3.86922
13.1557,69788.4058,0.45876,-3.07326,3.85273
13.164,69788.4157,0.31582,-3.17772,3.90587
13.1767,69788.4258,0.28222,-3.54729,3.9132
13.1874,69788.4358,0.36041,-3.94924,3.8735
13.2007,69788.4467,0.62247,-4.62058,3.77026
13.2051,69788.4568,0.93218,-5.05002,3.65847
13.2173,69788.4668,1.29809,-5.40188,3.54913
13.2274,69788.4768,1.59863,-5.55704,3.46727
13.2412,69788.4868,1.79594,-5.6951,3.45505
13.2471,69788.4967,1.89857,-5.78062,3.51064
13.2611,69788.5067,2.03235,-5.8356,3.61205
13.266,69788.5168,2.17651,-5.77879,3.64809
13.2766,69788.5268,2.33656,-5.46541,3.62671
13.2849,69788.5368,2.36955,-5.12944,3.56134
13.3024,69788.5468,2.30357,-4.88875,3.47338
13.3145,69788.5568,2.24432,-4.78552,3.38053
13.3226,69788.5667,2.21927,-4.6945,3.10808
13.327,69788.5768,2.24004,-4.65724,2.83136
13.3379,69788.5868,2.34633,-4.70794,2.53143
13.3451,69788.5968,2.46728,-4.71221,2.42391
13.3581,69788.6068,2.54853,-4.43122,2.45507
13.365,69788.6168,2.42941,-4.0763,2.51432
13.3777,69788.6267,2.0073,-3.61082,2.44774
13.388,69788.6368,1.49479,-3.32127,2.29074
13.4036,69788.6468,0.6579,-2.9908,2.11848
13.4064,69788.6568,-0.06597,-2.43185,2.08
13.4189,69788.6668,-0.80573,-1.47524,2.13803
13.4252,69788.6768,-1.45019,-0.60537,2.15025
13.4377,69788.6868,-2.10138,-0.02138,2.02563
13.4457,69788.6967,-2.47095,0.03421,1.86436
13.4595,69788.7068,-2.65849,-0.40806,1.70492
13.473,69788.7168,-2.54486,-1.12521,1.70004
13.4779,69788.7268,-2.10321,-2.18873,1.74585
13.4848,69788.7368,-1.58764,-3.09037,1.72936
13.4979,69788.7468,-0.85582,-4.07691,1.63223
13.5067,69788.7567,-0.36957,-4.54606,1.61452
13.5167,69788.7668,-0.27733,-4.71344,1.73425
13.5264,69788.7768,-0.45265,-4.76964,1.9511
13.5382,69788.7868,-0.70433,-4.77513,2.29685
13.5454,69788.7968,-0.8491,-4.75986,2.49661
13.5631,69788.8068,-0.9279,-4.77941,2.5357
13.5735,69788.8178,-0.94867,-4.93213,2.48317
13.5862,69788.8278,-0.96639,-5.25955,2.32495
13.5905,69788.8378,-1.02259,-5.47885,2.13436
13.6006,69788.8477,-1.2706,-5.17953,2.08366
13.6085,69788.8578,-1.71409,-4.58149,2.01097
13.6187,69788.8678,-2.47523,-3.78981,1.94927
13.6271,69788.8788,-3.00607,-3.24308,1.85214
13.6397,69788.8888,-3.43673,-2.69025,1.653
13.6472,69788.8988,-3.67252,-2.34328,1.43004
13.6591,69788.9088,-3.84112,-2.0183,1.02014
13.6682,69788.9188,-3.96024,-1.79167,0.54367
13.6793,69788.9287,-4.15388,-1.39827,-0.03787
13.6867,69788.9387,-4.38479,-0.94806,-0.44288
13.6984,69788.9486,-4.74581,-0.18754,-0.64568
13.7065,69788.9587,-5.06407,0.68295,-0.63591
13.7223,69788.9688,-5.2174,1.11177,-0.66706
13.7287,69788.9798,-5.105,0.84055,-0.8546
13.7414,69788.9898,-4.69694,0.11606,-1.24861
13.7493,69788.9998,-4.13495,-0.59132,-1.69454
13.7629,69789.0098,-3.39824,-1.23761,-2.2547
13.7697,69789.0197,-2.81059,-1.48013,-2.71102
13.7821,69789.0298,-2.14169,-1.71103,-3.26752
13.7905,69789.0407,-1.57603,-1.84848,-3.6823
13.8051,69789.0518,-1.03297,-1.73608,-3.96452
13.8112,69789.0618,-0.67562,-1.42271,-3.94497
13.839,69789.0728,-0.18265,-0.77885,-3.60166
13.8537,69789.0838,0.02627,-0.37629,-3.32372
13.8564,69789.0938,-0.01833,-0.146,-3.07082
13.8604,69789.1048,-0.33903,-0.16616,-2.78066
13.8691,69789.1148,-0.85216,-0.35186,-2.45079
13.8733,69789.1248,-1.31336,-0.28039,-2.22355
13.8878,69789.1348,-1.88818,-0.27,-1.98776
13.8994,69789.1447,-2.33167,-0.40684,-1.69088
13.9061,69789.1548,-2.78982,-0.47831,-1.22967
13.9164,69789.1648,-3.09403,-0.34819,-0.84971
13.9272,69789.1748,-3.41352,0.13195,-0.44838
13.9381,69789.1858,-3.67252,0.56139,-0.23152
13.9493,69789.1958,-3.8906,0.36346,-0.2303
13.958,69789.2058,-4.03843,-0.27,-0.18754
13.9718,69789.2158,-4.14716,-1.05069,0.13744
13.978,69789.2258,-4.24918,-1.07024,0.52534
13.9853,69789.2357,-4.61387,-0.23091,1.0684
13.9933,69789.2458,-5.1502,0.76297,1.51495
14.0049,69789.2558,-5.93944,1.58947,2.17529
14.0134,69789.2658,-6.45013,1.66339,2.6872
14.0248,69789.2758,-6.69508,1.44225,3.15023
14.035,69789.2858,-6.75373,1.4166,3.44956
14.0487,69789.2957,-6.82031,1.58336,3.64198
14.0551,69789.3058,-6.95348,1.69882,3.67558
14.0686,69789.3158,-7.12452,1.41171,3.54485
14.0759,69789.3268,-7.27846,1.04397,3.51858
14.0959,69789.3368,-7.41529,0.9951,3.65786
14.1052,69789.3468,-7.4605,1.44714,3.86983
14.1166,69789.3568,-7.62054,2.25287,4.09035
14.1245,69789.3668,-7.75127,2.49783,4.00789
14.132,69789.3767,-7.81969,2.44407,3.63465
14.1389,69789.3867,-7.79586,2.27975,3.06715
14.1474,69789.3968,-7.77998,2.20828,2.37688
14.1553,69789.4068,-7.70423,2.3726,1.85337
14.1681,69789.4168,-7.51181,2.68414,1.38727
14.1775,69789.4278,-7.32122,3.0024,0.92852
14.1899,69789.4377,-7.05977,3.24736,0.56139
14.1961,69789.4478,-6.82703,3.30234,0.53878
14.2129,69789.4578,-6.342,3.11908,0.58032
14.2165,69789.4677,-5.82216,2.97919,0.68295
14.229,69789.4778,-5.02864,3.0189,1.02809
14.2367,69789.4878,-4.554,3.35365,1.36162
14.2479,69789.4976,-4.10379,4.10257,1.70737
14.256,69789.5078,-3.80447,5.0152,1.94255
14.2697,69789.5178,-3.73116,6.1056,1.85153
14.2773,69789.5277,-3.86006,7.0726,1.40316
14.293,69789.5378,-4.04759,7.91742,0.77763
14.2985,69789.5478,-4.15266,8.32609,0.34208
14.3123,69789.5578,-4.19726,8.53806,-0.07514
14.3174,69789.5678,-4.09524,8.48431,-0.27184
14.3313,69789.5788,-3.79347,8.2589,-0.27611
14.3385,69789.5888,-3.50942,7.99012,-0.09163
14.358,69789.5998,-3.09159,7.47455,0.34514
14.3697,69789.6098,-2.79349,7.10986,0.64935
14.3787,69789.6198,-2.49355,6.99196,0.70433
14.3816,69789.6298,-2.30296,6.83558,0.50519
14.3957,69789.6397,-2.11543,6.37621,0.1576
14.3986,69789.6498,-1.97798,5.88874,-0.02871
14.413,69789.6598,-1.86192,5.69387,-0.02932
14.4192,69789.6698,-1.83015,5.78856,0.05681
14.4312,69789.6798,-1.8949,6.1563,0.21441
14.4397,69789.6898,-2.01708,6.54176,0.32437
14.4519,69789.6998,-2.26998,7.26563,0.46365
14.4589,69789.7096,-2.50271,8.01883,0.55283
14.4736,69789.7198,-2.73179,8.73293,0.65363
14.4853,69789.7307,-2.75928,8.838,0.75564
14.4945,69789.7408,-2.5021,8.61625,0.85338
14.5023,69789.7508,-2.12642,8.31693,0.88637
14.5139,69789.7608,-1.41782,7.67308,0.78802
14.52,69789.7708,-0.87048,6.85452,0.67256
14.5342,69789.7808,-0.2303,5.48557,0.60048
14.5391,69789.7907,0.12645,4.40923,0.58704
14.5524,69789.8008,0.25534,3.21498,0.52901
14.5606,69789.8108,0.23457,2.71957,0.4893
14.5725,69789.8208,0.09468,2.61878,0.57544
14.587,69789.8307,-0.07758,2.61389,0.73731
14.5921,69789.8408,-0.26756,2.68903,0.90713
14.599,69789.8507,-0.43494,2.81792,1.0122
14.616,69789.8607,-0.69516,3.01523,1.08001
14.6237,69789.8708,-0.8094,3.1539,1.12155
14.6328,69789.8808,-0.70005,3.11236,1.23883
14.6387,69789.8908,-0.45387,3.00973,1.31092
14.6507,69789.9008,-0.07086,2.88939,1.2535
14.6595,69789.9108,0.19364,2.74645,1.12582
14.6704,69789.9207,0.27122,2.40559,1.04641
14.6786,69789.9308,0.21991,1.87658,1.00854
14.6991,69789.9408,0.09957,1.07879,0.90897
14.7061,69789.9508,-0.02505,0.4496,0.75014
14.7162,69789.9608,-0.17898,-0.16799,0.59987
14.7235,69789.9707,-0.33292,-0.58032,0.57299
14.7367,69789.9807,-0.55161,-1.14354,0.67501
14.7398,69789.9908,-0.68356,-1.77395,0.86865
14.7529,69790.0008,-0.66706,-2.69025,1.04458
14.7618,69790.0108,-0.49052,-3.6542,1.0122
14.7733,69790.0208,-0.07697,-4.60226,0.71105
14.7794,69790.0308,0.2584,-5.73847,0.27733
14.7949,69790.0407,0.2645,-6.85391,-0.24068
14.8004,69790.0508,0.18815,-7.49165,-0.68722
14.8138,69790.0608,0.12584,-7.59061,-1.09467
14.8289,69790.0708,0.0507,-7.40491,-1.31336
14.8405,69790.0808,-0.12034,-7.03472,-1.41476
14.8429,69790.0908,-0.31154,-6.60406,-1.26083
14.8613,69790.1008,-0.54123,-6.11659,-0.8375
14.8663,69790.1107,-0.67562,-5.87286,-0.45815
14.8804,69790.1206,-0.71044,-5.80322,-0.08002
14.8907,69790.1308,-0.62797,-6.00053,0.10568
14.9028,69790.1418,-0.51862,-6.47823,0.12278
14.9053,69790.1518,-0.5003,-6.75861,0.09591
14.9147,69790.1618,-0.49419,-7.18927,0.05742
14.9228,69790.1718,-0.45632,-7.871,-0.01405
14.9382,69790.1818,-0.21808,-8.48064,0.06048
14.9435,69790.1917,0.18509,-8.62481,0.37202
14.9721,69790.2018,0.92363,-8.69811,1.23395
14.9735,69790.2118,1.39277,-8.32304,1.65361
14.9744,69790.2216,1.69759,-7.64192,1.74952
14.9825,69790.2318,1.55771,-6.93637,1.71714
14.9934,69790.2418,1.09345,-5.91012,1.74707
15.0023,69790.2517,0.47709,-5.31331,1.84787
15.0131,69790.2617,-0.19059,-4.97061,1.94316
15.0241,69790.2728,-0.53817,-4.82767,1.97676
15.0369,69790.2827,-0.58765,-4.62669,1.98714
15.0446,69790.2938,-0.33048,-4.63219,1.99264
15.0537,69790.3037,0.14294,-4.80751,1.96271
15.0638,69790.3138,0.55283,-4.93885,1.90956
15.0737,69790.3238,1.02381,-4.80201,1.74036
15.0826,69790.3338,1.26938,-4.5259,1.51922
15.0963,69790.3438,1.43431,-4.23818,1.14476
15.1024,69790.3538,1.48196,-4.01705,0.97738
15.1148,69790.3638,1.52411,-3.97368,0.93951
15.1275,69790.3737,1.62368,-4.27728,1.02198
15.1381,69790.3838,1.90101,-4.84966,1.17775
15.1483,69790.3938,2.27364,-5.34263,1.35979
15.1574,69790.4038,2.57419,-5.667,1.69515
15.1672,69790.4138,2.72079,-5.73114,2.04029
15.1764,69790.4238,2.78188,-5.57537,2.12459
15.1851,69790.4337,2.81181,-5.27788,2.01463
15.1944,69790.4437,2.84846,-4.95351,1.85459
15.2021,69790.4538,2.89245,-4.91685,1.664
15.2142,69790.4638,3.0415,-5.35912,1.45264
15.222,69790.4738,3.29195,-6.00175,1.33169
15.2351,69790.4838,3.69879,-6.69997,1.26205
15.2473,69790.4937,4.05737,-7.0726,1.25166
15.2555,69790.5038,4.54545,-7.19477,1.32252
15.2654,69790.5147,4.88509,-7.0561,1.46485
15.2816,69790.5248,5.19235,-7.03778,1.59191
15.2842,69790.5348,5.40433,-7.19844,1.61635
15.3004,69790.5448,5.76779,-7.51731,1.5516
15.3119,69790.5548,6.09888,-7.84534,1.41537
15.3174,69790.5648,6.4599,-8.39451,1.09039
15.3234,69790.5747,6.75067,-8.8044,0.76236
15.3363,69790.5847,7.13552,-9.08112,0.34392
15.3444,69790.5958,7.4495,-9.05119,0.05742
15.3572,69790.6056,7.70973,-8.67123,-0.01649
15.364,69790.6157,7.95957,-8.14467,-0.03971
15.3788,69790.6258,8.32915,-6.98586,-0.09774
15.3924,69790.6358,8.43299,-6.02252,-0.12034
15.4003,69790.6458,8.23752,-4.87776,-0.13867
15.4074,69790.6558,7.84412,-4.149,-0.20097
15.421,69790.6657,7.11658,-3.25102,-0.3488
15.4297,69790.6758,6.27603,-2.81853,-0.44288
15.4379,69790.6858,5.30781,-2.766,-0.52473
15.4461,69790.6958,4.68473,-2.71957,-0.64996
15.4571,69790.7058,4.34875,-2.35672,-0.8546
15.4686,69790.7168,4.15938,-1.45203,-1.12582
15.4785,69790.7268,4.04943,-0.25107,-1.22356
15.4855,69790.7368,3.97246,0.72326,-1.29565
15.4985,69790.7468,3.83379,1.61818,-1.47829
15.5048,69790.7567,3.78187,1.94866,-1.65117
15.5167,69790.7668,3.8906,1.75807,-1.89796
15.5246,69790.7768,4.09524,1.25899,-2.04884
15.5365,69790.7868,4.34814,0.41966,-1.94377
15.5446,69790.7968,4.67129,-0.28283,-1.65544
15.5565,69790.8068,5.04453,-0.79351,-1.37261
15.5646,69790.8167,5.27116,-0.94562,-1.25105
15.5821,69790.8268,5.3298,-0.78374,-1.21562
15.5847,69790.8368,5.16792,-0.13011,-1.30175
15.5966,69790.8468,4.79407,0.8546,-1.50639
15.6122,69790.8568,4.36585,1.76357,-1.66949
15.6201,69790.8678,3.79408,2.80876,-1.82282
15.63,69790.8788,3.40313,3.32189,-1.79289
15.6412,69790.8888,3.06349,3.52653,-1.69821
15.6504,69790.8988,2.94193,3.45444,-1.65789
15.6695,69790.9088,2.79349,3.11175,-1.64628
15.6816,69790.9187,2.72507,2.63894,-1.79289
15.6825,69790.9287,2.81548,2.08366,-2.14292
15.691,69790.9398,3.02012,2.02868,-2.63833
15.7053,69790.9498,3.44589,2.83503,-3.35487
15.7136,69790.9597,3.56379,3.69696,-3.57173
15.7227,69790.9698,3.32922,4.58271,-3.73605
15.7308,69790.9798,2.89978,5.06529,-3.91015
15.7415,69790.9898,2.54486,5.39394,-4.13434
15.754,69790.9998,2.38115,5.5943,-4.40617
15.7635,69791.0098,2.3726,5.51978,-4.70916
15.7687,69791.0197,2.42269,5.19235,-4.89853
15.7797,69791.0298,2.48805,4.67251,-4.98038
15.7882,69791.0398,2.63161,4.15449,-4.98283
15.804,69791.0498,2.80265,3.4349,-4.99993
15.809,69791.0598,2.93765,2.60229,-5.02498
15.8319,69791.0708,3.06227,1.41721,-5.10134
15.8357,69791.0808,3.11358,0.71593,-5.24855
15.8419,69791.0908,3.03844,0.20342,-5.49657
15.8578,69791.1008,2.70308,0.03604,-5.61141
15.8718,69791.1118,2.1252,-0.06109,-5.65234
15.8733,69791.1218,1.61391,-0.12217,-5.68105
15.8895,69791.1328,1.16125,-0.23702,-5.72075
15.8928,69791.1428,0.98044,-0.19792,-5.73175
15.9047,69791.1527,0.82833,-0.16493,-5.64928
15.9109,69791.1628,0.81673,-0.26573,-5.59553
15.9283,69791.1728,0.90469,-0.50152,-5.65417
15.934,69791.1828,0.93401,-0.73487,-5.75435
15.9446,69791.1928,0.92241,-1.4166,-5.77817
15.9533,69791.2028,0.91447,-1.97004,-5.78123
15.9635,69791.2128,0.82711,-2.57419,-5.70915
15.9795,69791.2227,0.66096,-2.93032,-5.62179
15.9926,69791.2327,0.3598,-3.00668,-5.50145
15.9945,69791.2428,0.09407,-3.04944,-5.39516
16.0025,69791.2528,-0.13928,-3.19116,-5.31392
16.0106,69791.2628,-0.14294,-3.35854,-5.3915
16.022,69791.2728,0.00794,-3.50637,-5.58758
16.0304,69791.2827,0.07514,-3.54729,-5.72442
16.0419,69791.2928,0.04948,-3.52714,-5.82643
16.054,69791.3028,0.01222,-3.40985,-5.9199
16.0647,69791.3128,0.02932,-3.25102,-6.02313
16.0731,69791.3228,0.08186,-3.21559,-6.07383
16.0873,69791.3328,0.11057,-3.18566,-6.11659
16.0922,69791.3427,0.0226,-3.15145,-6.12576
16.105,69791.3538,-0.15333,-3.30478,-6.03413
16.114,69791.3638,-0.26817,-3.47399,-5.92845
16.124,69791.3737,-0.42272,-3.90526,-5.77817
16.132,69791.3838,-0.54367,-4.40373,-5.70059
16.1476,69791.3938,-0.73182,-4.65907,-5.58575
16.1531,69791.4048,-0.90836,-4.56072,-5.43548
16.1674,69791.4148,-1.10811,-4.1997,-5.15204
16.1742,69791.4248,-1.27915,-3.65175,-4.87898
16.1939,69791.4348,-1.43187,-2.81242,-4.58638
16.2005,69791.4448,-1.56443,-2.1533,-4.44466
16.209,69791.4547,-1.76418,-1.2535,-4.37685
16.2216,69791.4648,-1.96576,-0.63897,-4.38174
16.2257,69791.4748,-2.204,-0.27245,-4.45687
16.2351,69791.4848,-2.35611,-0.33781,-4.55156
16.246,69791.4948,-2.41292,-0.8656,-4.66029
16.2534,69791.5048,-2.31457,-1.43614,-4.7788
16.2684,69791.5147,-2.06534,-1.84726,-4.91563
16.2734,69791.5248,-1.80694,-2.00181,-4.98527
16.2894,69791.5348,-1.56443,-1.90773,-4.95045
16.2936,69791.5448,-1.44103,-1.61879,-4.8631
16.3094,69791.5548,-1.33291,-0.99876,-4.78246
16.3149,69791.5648,-1.25411,-0.30604,-4.75986
16.3255,69791.5747,-1.35307,0.37141,-4.83622
16.3331,69791.5847,-1.64506,1.0739,-5.01581
16.3455,69791.5948,-2.13803,1.76235,-5.29803
16.3541,69791.6057,-2.68109,2.33839,-5.56376
16.3672,69791.6158,-3.13313,2.86435,-5.73358
16.3808,69791.6258,-3.38725,3.19421,-5.71587
16.3875,69791.6358,-3.59311,3.46055,-5.42265
16.3962,69791.6458,-3.72811,3.54119,-4.9981
16.4124,69791.6558,-3.88816,3.29501,-4.42266
16.4143,69791.6657,-3.98467,2.71774,-3.98223
16.426,69791.6758,-4.0421,1.74097,-3.58028
16.4423,69791.6858,-3.96635,1.00426,-3.41046
16.4546,69791.6956,-3.79714,0.54062,-3.37137
16.4613,69791.7058,-3.64992,0.25595,-3.3622
16.4796,69791.7158,-3.45261,0.09285,-3.33899
16.482,69791.7257,-3.34265,0.09346,-3.34082
16.4914,69791.7357,-3.22048,0.28283,-3.34571
16.4961,69791.7458,-3.16917,0.48991,-3.35243
16.5056,69791.7558,-3.18139,1.23028,-3.25347
16.5141,69791.7658,-3.27668,1.24433,-3.08487
16.5273,69791.7758,-3.45994,0.69028,-2.79837
16.5387,69791.7858,-3.52164,0.14539,-2.58029
16.5533,69791.7957,-3.50881,-0.69089,-2.4905
16.5563,69791.8068,-3.24736,-1.60291,-2.52043
16.5712,69791.8167,-2.64138,-1.77823,-2.41475
16.5755,69791.8268,-1.91262,-1.6078,-2.08549
16.5879,69791.8368,-1.15759,-1.44714,-1.58642
16.5952,69791.8468,-0.49724,-1.45569,-1.05496
16.6077,69791.8568,0.14539,-1.57359,-0.67562
16.6162,69791.8668,0.73121,-1.51739,-0.44104
16.6322,69791.8767,1.33046,-1.10322,-0.14172
16.6367,69791.8868,1.53083,-0.61148,0.09102
16.6514,69791.8968,1.49723,-0.23457,0.38851
16.6555,69791.9068,1.37506,-0.19059,0.67195
16.6782,69791.9168,1.2761,-0.30238,0.99143
16.6833,69791.9267,1.27182,-0.54672,1.21073
16.693,69791.9368,1.33352,-0.89858,1.42576
16.6975,69791.9467,1.46363,-1.03969,1.47585
16.7199,69791.9578,1.67377,-1.47035,1.41599
16.7311,69791.9677,1.86558,-1.89613,1.33779
16.7327,69791.9778,2.17529,-2.23638,1.2706
16.7407,69791.9878,2.51066,-2.33839,1.24372
16.7495,69791.9978,2.80448,-2.3836,1.20157
16.7624,69792.0078,2.88206,-2.44041,1.22234
16.7698,69792.0178,2.83869,-2.67742,1.45142
16.7773,69792.0288,2.75195,-2.96758,1.72569
16.7921,69792.0388,2.68964,-3.33777,2.01952
16.8003,69792.0488,2.67681,-3.54363,2.215
16.8127,69792.0587,2.73362,-3.50759,2.41536
16.8234,69792.0688,2.77455,-3.16428,2.57968
16.8327,69792.0788,2.69575,-2.72446,2.76233
16.8417,69792.0888,2.53876,-2.80937,2.87901
16.8525,69792.0988,2.3445,-3.23331,3.02623
16.8571,69792.1088,2.32984,-3.41718,3.22292
16.9133,69792.1187,2.51554,-3.21559,3.47277
16.9142,69792.1288,2.70552,-2.78616,3.64809
16.9146,69792.1388,2.89978,-1.95171,3.93519
16.9155,69792.1488,2.89367,-1.45936,4.22597
16.916,69792.1588,2.73545,-1.01281,4.69572
16.9174,69792.1688,2.47339,-0.72632,5.17281
16.9313,69792.1787,2.15941,-0.6353,5.60896
16.9474,69792.1888,1.89124,-0.79229,5.98709
16.953,69792.1998,1.63468,-1.28831,6.32795
16.9612,69792.2108,1.53999,-1.87475,6.37743
16.9759,69792.2208,1.55648,-2.81242,6.23205
16.9796,69792.2307,1.60169,-3.49048,6.13003
16.9904,69792.2408,1.59802,-4.11723,6.06284
16.9986,69792.2508,1.55343,-4.41167,6.07933
17.0114,69792.2608,1.518,-4.74276,6.16546
17.0184,69792.2708,1.53755,-4.82645,6.2125
17.0301,69792.2808,1.62307,-4.78124,6.18379
17.0382,69792.2907,1.72875,-4.70305,5.98465
17.0519,69792.3007,1.77517,-4.53018,5.72869
17.0584,69792.3108,1.73608,-4.3457,5.56743
17.0703,69792.3207,1.62246,-4.19481,5.55887
17.0782,69792.3307,1.48135,-4.05004,5.56193
17.0909,69792.3407,1.35062,-3.81485,5.43365
17.0984,69792.3508,1.3097,-3.60349,5.23512
17.1183,69792.3607,1.3268,-3.37625,4.96695
17.1242,69792.3707,1.37506,-3.44223,4.86921
17.1365,69792.3807,1.46424,-3.71284,4.87409
17.1404,69792.3907,1.51433,-3.90954,4.97672
17.1532,69792.4007,1.57176,-4.43671,5.12638
17.1596,69792.4108,1.63345,-4.9083,5.14898
17.1777,69792.4207,1.78128,-5.48679,5.09401
17.1823,69792.4318,1.96699,-5.86858,5.05186
17.1934,69792.4416,2.16674,-6.07567,5.04453
17.2061,69792.4517,2.20889,-6.01947,5.03292
17.2153,69792.4617,2.14353,-5.79955,4.95717
17.2257,69792.4716,2.03174,-5.60896,4.83744
17.2346,69792.4817,1.88452,-5.47641,4.66335
17.2415,69792.4918,1.82588,-5.54177,4.53018
17.2526,69792.5017,1.8552,-5.70731,4.45932
17.261,69792.5127,1.87291,-5.68471,4.54362
17.2789,69792.5228,1.72142,-5.25955,4.78613
17.2817,69792.5327,1.53694,-4.89547,4.92235
17.2939,69792.5427,1.30175,-4.63708,4.94434
17.3012,69792.5527,1.21745,-4.57721,4.82645
17.3145,69792.5627,1.248,-4.5711,4.57355
17.3267,69792.5737,1.40255,-4.543,4.19603
17.3353,69792.5837,1.59619,-4.48375,3.79225
17.3419,69792.5937,1.70615,-4.43366,3.49048
17.3567,69792.6038,1.73547,-4.41228,3.00179
17.3621,69792.6137,1.64262,-4.41961,2.72385
17.375,69792.6237,1.38178,-4.45809,2.54242
17.3819,69792.6337,1.11911,-4.43733,2.56014
17.3937,69792.6437,0.70188,-4.26689,2.7153
17.4019,69792.6537,0.27184,-4.10807,2.76844
17.4137,69792.6637,-0.11057,-4.0763,2.71224
17.4218,69792.6738,-0.28527,-4.06103,2.58701
17.4374,69792.6837,-0.39462,-4.0085,2.34206
17.4421,69792.6937,-0.49602,-4.05126,2.17957
17.4556,69792.7037,-0.72021,-4.43427,1.94866
17.4629,69792.7137,-0.94134,-4.94068,1.66522
17.4757,69792.7237,-1.09467,-5.42082,1.26388
17.4828,69792.7338,-1.19241,-5.81971,0.94928
17.5024,69792.7437,-1.29076,-6.09521,0.73731
17.5115,69792.7537,-1.50762,-5.55093,1.03786
17.5239,69792.7637,-1.97004,-4.3799,1.58642
17.5265,69792.7737,-2.44468,-3.57662,1.82527
17.5341,69792.7837,-3.07143,-2.77027,1.80022
17.542,69792.7938,-3.51125,-2.21011,1.59436
17.5541,69792.8037,-3.87227,-1.85581,1.33963
17.562,69792.8137,-4.16793,-1.75074,1.1527
17.5758,69792.8237,-4.59004,-1.98898,0.91813
17.5833,69792.8337,-4.97733,-2.49477,0.64507
17.5986,69792.8437,-5.40982,-3.1093,0.52534
17.6065,69792.8538,-5.64073,-3.45566,0.74098
17.6162,69792.8636,-5.79284,-3.24308,0.96456
17.6234,69792.8736,-5.80017,-2.65116,1.01587
17.643,69792.8837,-5.97915,-1.85947,0.99632
17.648,69792.8937,-6.27908,-1.2596,1.00426
17.6663,69792.9037,-6.6566,-1.11788,1.01465
17.6702,69792.9136,-6.88873,-1.18752,0.93829
17.6755,69792.9238,-6.77999,-1.21318,0.8937
17.6827,69792.9337,-6.45501,-0.94623,0.84666
17.6957,69792.9448,-6.01824,-0.50885,0.77641
17.7033,69792.9547,-5.64134,-0.31093,0.70311
17.7181,69792.9647,-5.24061,-0.49419,0.70616
17.7231,69792.9747,-4.83439,-0.72021,0.8827
17.7361,69792.9847,-4.2614,-0.71349,1.19668
17.743,69792.9947,-3.80569,-0.62308,1.44347
17.7612,69793.0048,-3.34815,-0.47403,1.7373
17.7811,69793.0147,-3.04211,-0.58277,1.94866
17.7828,69793.0246,-2.84846,-0.80146,2.10077
17.7846,69793.0347,-2.78127,-0.91935,2.20645
17.7954,69793.0447,-2.81548,-1.26449,2.21866
17.8039,69793.0557,-2.8619,-1.55465,2.29197
17.8201,69793.0665,-2.92421,-1.35246,2.4062
17.8266,69793.0777,-3.14962,-0.90469,2.43796
17.8404,69793.0878,-3.57112,-0.50885,2.48133
17.8486,69793.0977,-3.7782,-0.34025,2.5583
17.8588,69793.1077,-3.89915,-0.04581,2.65116
17.8661,69793.1177,-3.86983,0.22663,2.68659
17.8789,69793.1277,-3.85151,0.46731,2.65604
17.8865,69793.1377,-3.88877,0.50519,2.53081
17.9101,69793.1478,-3.98345,0.4215,2.3781
17.9135,69793.1587,-4.07325,0.41966,2.25898
17.9225,69793.1688,-4.18259,0.48258,2.20278
17.9271,69793.1786,-4.20703,0.49663,2.2883
17.9464,69793.1887,-4.14228,0.32132,2.51127
17.9526,69793.1998,-4.06775,0.1857,2.76294
17.9617,69793.2097,-4.12639,0.24068,3.02134
17.973,69793.2197,-4.3292,0.3708,3.2217
17.9851,69793.2297,-4.77941,0.47953,3.35304
17.9977,69793.2407,-5.31575,0.76175,3.24247
18.002,69793.2507,-5.78062,1.19668,2.95598
18.0086,69793.2607,-5.98953,1.46424,2.70491
18.0216,69793.2707,-6.02374,1.67499,2.42941
18.0312,69793.2808,-5.87958,1.71409,2.28097
18.0402,69793.2907,-5.61813,1.64995,2.22844
18.0505,69793.3007,-5.37928,1.61513,2.25715
18.0603,69793.3107,-5.13921,1.56687,2.36588
18.0686,69793.3207,-4.99199,1.60413,2.5522
18.0864,69793.3307,-4.90647,1.99692,2.88817
18.0929,69793.3407,-4.91013,2.53143,3.12152
18.1105,69793.3507,-5.09339,3.4465,3.5418
18.1155,69793.3606,-5.41288,3.70307,3.83807
18.1218,69793.3707,-5.71403,3.53324,4.03232
18.1289,69793.3807,-5.75313,3.6041,4.1606
18.1495,69793.3907,-5.67311,3.84051,4.28827
18.151,69793.4007,-5.59919,4.07142,4.41595
18.1614,69793.4108,-5.5155,4.35547,4.60287
18.1747,69793.4207,-5.43365,4.24674,4.74337
18.1833,69793.4307,-5.16731,3.98467,4.90647
18.1904,69793.4407,-4.81545,3.85028,5.03536
18.202,69793.4507,-4.27484,3.9358,5.27177
18.209,69793.4607,-4.01888,4.17526,5.48496
18.2248,69793.4708,-3.93031,4.48314,5.73847
18.2302,69793.4807,-4.01338,4.5876,5.84903
18.2424,69793.4907,-4.21986,4.4923,5.93395
18.2532,69793.5017,-4.33409,4.26262,5.72992
18.2625,69793.5117,-4.29011,3.88388,5.28887
18.2714,69793.5217,-4.22047,3.31089,4.81545
18.287,69793.5317,-4.27422,2.53631,4.11234
18.3034,69793.5417,-4.46176,2.01586,3.57051
18.3049,69793.5518,-4.86737,1.7935,3.036
18.314,69793.5618,-5.21679,1.92545,2.63649
18.324,69793.5717,-5.60958,2.26326,2.1081
18.3305,69793.5817,-5.21496,2.45995,2.03174
18.3429,69793.5917,-4.50208,1.64934,1.87413
18.351,69793.6027,-3.33349,1.17347,1.81793
18.3686,69793.6127,-1.91873,0.41783,1.80755
18.373,69793.6227,-0.97005,-0.05681,1.91751
18.3845,69793.6327,-0.54428,-0.13439,2.2095
18.3962,69793.6427,-0.76664,-0.07575,2.39459
18.4066,69793.6525,-1.50884,-0.02688,2.33412
18.4115,69793.6627,-2.24982,-0.14722,1.90162
18.4243,69793.6727,-2.71591,-0.40012,1.08795
18.4328,69793.6827,-2.57541,-0.34392,0.61514
18.4436,69793.6927,-2.21744,-0.35797,0.29688
18.4509,69793.7028,-1.87352,-0.36224,0.21625
18.469,69793.7127,-1.64139,-0.18631,0.29871
18.4732,69793.7227,-1.5968,-0.01405,0.39523
18.4882,69793.7327,-1.65911,0.05131,0.4331
18.4922,69793.7427,-1.75441,-0.08247,0.32926
18.5039,69793.7537,-1.69576,-0.52229,0.0562
18.512,69793.7637,-1.30725,-0.92363,-0.18631
18.5244,69793.7737,-0.52229,-1.29442,-0.38668
18.5322,69793.7837,0.2193,-1.50212,-0.45448
18.55,69793.7938,1.15148,-1.6023,-0.41478
18.5557,69793.8037,1.50456,-1.5406,-0.30543
18.568,69793.8137,1.56748,-1.33657,-0.146
18.5729,69793.8248,1.25472,-0.98716,-0.011
18.5847,69793.8347,0.75381,-0.64996,0.11118
18.5928,69793.8447,0.34514,-0.47953,0.18754
18.6061,69793.8547,0.16921,-0.38057,0.21502
18.6137,69793.8647,0.26573,-0.3879,0.22541
18.6266,69793.8747,0.54795,-0.41233,0.28405
18.6346,69793.8848,0.75992,-0.43066,0.38912
18.6558,69793.8947,0.85765,-0.48564,0.48564
18.6592,69793.9047,0.8827,-0.41111,0.50519
18.6813,69793.9147,0.90713,-0.23763,0.49663
18.6848,69793.9247,0.90591,-0.15394,0.46731
18.6884,69793.9347,0.8717,-0.15699,0.4105
18.7044,69793.9448,0.76114,-0.23152,0.30299
18.7146,69793.9557,0.61942,-0.28222,0.08308
18.7165,69793.9658,0.58765,-0.14172,-0.01955
18.7347,69793.9757,0.5791,0.06842,0.02077
18.7401,69793.9857,0.53206,0.20525,0.12278
18.7464,69793.9957,0.47098,0.2529,0.25656
18.7541,69794.0057,0.44043,0.3207,0.33842
18.7659,69794.0157,0.43188,0.281,0.42211
18.7741,69794.0257,0.37935,0.21197,0.47037
18.7861,69794.0358,0.28344,0.05681,0.50702
18.794,69794.0457,0.20647,0.0055,0.48075
18.8122,69794.0557,0.14722,0.15211,0.43371
18.8258,69794.0657,0.07453,0.26389,0.39401
18.8306,69794.0757,-0.09774,0.39279,0.35369
18.838,69794.0857,-0.30299,0.61453,0.3091
18.8475,69794.0958,-0.62675,0.90164,0.27672
18.8541,69794.1057,-1.03786,1.2034,0.20525
18.8679,69794.1157,-1.60596,1.69943,0.07758
18.8756,69794.1257,-2.25348,2.05556,-0.00916
18.8989,69794.1357,-2.96697,2.14597,-0.1124
18.9033,69794.1457,-3.50698,2.02929,-0.22846
18.9113,69794.1558,-4.02621,1.63468,-0.41417
18.9212,69794.1667,-4.40495,1.23212,-0.66096
18.9272,69794.1767,-4.76169,0.92913,-0.9951
18.9359,69794.1868,-4.99566,0.90042,-1.24678
18.9508,69794.1977,-5.25833,1.03419,-1.45447
18.9588,69794.2078,-5.47641,1.07818,-1.56381
18.9742,69794.2177,-5.66333,0.96822,-1.60963
18.9762,69794.2277,-5.79894,0.53756,-1.62307
18.9921,69794.2377,-5.94311,-0.15394,-1.67805
19,69794.2487,-6.01275,-1.05374,-1.73669
19.012,69794.2587,-5.7739,-1.78312,-1.72997
19.0178,69794.2687,-5.52467,-2.0238,-1.64567
19.0279,69794.2787,-5.04636,-2.10077,-1.41965
19.0362,69794.2887,-4.40556,-1.82527,-1.01648
19.0506,69794.2987,-3.53019,-1.22417,-0.58215
19.0562,69794.3087,-2.87534,-0.80512,-0.31765
19.0707,69794.3187,-2.43796,-0.59437,-0.18509
19.0762,69794.3287,-2.28769,-0.42577,-0.14478
19.0878,69794.3387,-2.03235,-0.2645,-0.04581
19.0961,69794.3487,-1.82404,-0.36285,-0.01283
19.1079,69794.3587,-1.70065,-0.67745,0.02749
19.1178,69794.3687,-1.63468,-0.99693,0.08247
19.1292,69794.3786,-1.67683,-1.15331,0.18509
19.1375,69794.3887,-1.81793,-1.17836,0.32254
19.1515,69794.3987,-2.04579,-1.18935,0.49847
19.1639,69794.4087,-2.16063,-1.237,0.63897
19.172,69794.4187,-1.50212,-1.11788,0.95539
19.1799,69794.4287,-0.74159,-0.95661,1.1527
19.1994,69794.4397,0.21441,-0.97983,1.22967
19.2007,69794.4497,0.64813,-0.91385,1.12277
19.211,69794.4597,1.04275,-0.70616,0.86682
19.2193,69794.4707,1.29809,-0.36163,0.56933
19.2353,69794.4807,1.46058,-0.09835,0.32559
19.2388,69794.4907,1.64995,0.02382,0.14844
19.2566,69794.5007,1.99997,0.14539,0.04154
19.2602,69794.5107,2.41597,0.24496,0.04581
19.2745,69794.5207,2.84297,0.42516,0.15882
19.2802,69794.5307,3.07693,0.56505,0.31704
19.2903,69794.5407,3.30417,0.75014,0.54489
19.3,69794.5507,3.54485,0.90775,0.74098
19.3114,69794.5607,3.95719,0.89186,0.95234
19.3191,69794.5707,4.43549,0.77641,1.12827
19.3337,69794.5807,5.15631,0.53634,1.34818
19.3388,69794.5907,5.76474,0.13317,1.51678
19.3537,69794.6007,6.37927,-0.40806,1.6585
19.3605,69794.6107,6.7916,-0.77458,1.72447
19.3749,69794.6207,7.21615,-1.09895,1.74036
19.3812,69794.6307,7.43362,-1.24861,1.71653
19.3975,69794.6407,7.56312,-1.34696,1.67255
19.4007,69794.6507,7.65964,-1.31886,1.61452
19.4119,69794.6607,7.73722,-1.26755,1.52289
19.4194,69794.6707,7.7305,-1.30359,1.45264
19.4321,69794.6807,7.66269,-1.4001,1.43553
19.4403,69794.6917,7.55029,-1.41965,1.49173
19.454,69794.7017,7.43851,-1.34574,1.51495
19.4718,69794.7117,7.33283,-1.17897,1.49906
19.4758,69794.7217,7.2131,-0.91324,1.50517
19.486,69794.7317,7.1123,-0.6463,1.56076
19.5056,69794.7427,7.05488,-0.33353,1.73547
19.5076,69794.7527,6.97914,-0.00122,1.91934
19.5184,69794.7627,6.78427,0.50396,2.08122
19.5228,69794.7727,6.50816,0.90713,2.1869
19.5353,69794.7827,6.18379,1.1637,2.24065
19.5435,69794.7927,5.8527,1.25716,2.22538
19.5545,69794.8037,5.48557,1.24922,2.23271
19.5658,69794.8137,5.25222,1.18508,2.31029
19.5756,69794.8237,5.07079,0.96822,2.35977
19.583,69794.8337,4.97244,0.69211,2.38665
19.5985,69794.8437,5.00421,0.28588,2.43063
19.6041,69794.8537,5.12455,0.01161,2.50271
19.6153,69794.8637,5.386,-0.19426,2.69697
19.6228,69794.8747,5.68166,-0.4722,2.85396
19.6353,69794.8847,6.15141,-0.78924,2.97552
19.6428,69794.8947,6.45196,-0.99815,2.85946
19.6555,69794.9047,6.43791,-1.24494,2.53387
19.6631,69794.9147,6.06711,-1.49295,2.20217
19.6767,69794.9247,5.31514,-1.16492,2.10382
19.6835,69794.9347,4.62486,-0.17165,2.12764
19.6989,69794.9447,3.72261,1.00365,2.14902
19.7033,69794.9547,3.07082,1.70737,2.05067
19.7277,69794.9647,2.40742,2.58701,1.89185
19.73,69794.9747,2.07633,3.09587,1.68599
19.7392,69794.9847,1.82771,3.23087,1.41049
19.7476,69794.9947,1.60291,3.06471,1.15026
19.7582,69795.0047,1.27671,2.55464,0.70799
19.7635,69795.0147,1.01953,2.11604,0.31948
19.7813,69795.0247,0.79351,1.81183,-0.08247
19.7888,69795.0347,0.59559,1.57542,-0.39462
19.8006,69795.0447,0.22419,0.97372,-0.75136
19.8031,69795.0547,-0.01649,0.38546,-0.96639
19.8151,69795.0647,-0.29016,-0.29138,-1.24067
19.8299,69795.0747,-0.5681,-0.72876,-1.4508
19.8389,69795.0847,-0.86682,-0.76603,-1.65728
19.8461,69795.0947,-1.19058,-0.39828,-1.86253
19.8587,69795.1047,-1.55221,0.01833,-2.00119
19.8665,69795.1147,-1.8271,0.22419,-2.07572
19.8767,69795.1247,-1.99753,0.2193,-2.12825
19.8842,69795.1347,-2.1026,0.07941,-2.18323
19.896,69795.1447,-2.22355,-0.31093,-2.3274
19.9117,69795.1545,-2.42208,-0.89003,-2.43857
19.9215,69795.1647,-2.62244,-1.66644,-2.55342
19.9253,69795.1747,-2.6988,-2.14169,-2.66398
19.9412,69795.1847,-2.75012,-2.47095,-2.80021
19.9441,69795.1947,-2.82464,-2.40742,-2.83564
19.9549,69795.2047,-3.06349,-1.98348,-2.80876
19.965,69795.2147,-3.35426,-1.57176,-2.78066
19.9767,69795.2247,-3.80752,-0.86682,-2.71713
19.9825,69795.2347,-4.10624,-0.37629,-2.6481
19.9938,69795.2447,-4.43244,0.14172,-2.54486
20.0022,69795.2547,-4.70672,0.42028,-2.46179
20.0167,69795.2646,-4.97794,0.56261,-2.40253
20.0223,69795.2747,-5.1386,0.48503,-2.36222
20.0339,69795.2847,-5.2681,0.29016,-2.3671
20.0422,69795.2947,-5.3524,0.25779,-2.35794
20.054,69795.3047,-5.40799,0.33231,-2.30663
20.0624,69795.3147,-5.386,0.48319,-2.23088
20.0739,69795.3247,-5.34751,0.75381,-2.15513
20.0827,69795.3347,-5.31208,0.91691,-2.07694
20.0947,69795.3447,-5.2962,0.85582,-1.94744
20.1027,69795.3547,-5.29009,0.65851,-1.88635
20.1166,69795.3647,-5.20579,0.76541,-1.92728
20.1228,69795.3747,-4.97611,1.00671,-2.05801
20.1361,69795.3847,-4.68961,1.16431,-2.17102
20.1452,69795.3947,-4.54911,1.4166,-2.20767
20.1554,69795.4047,-4.43366,1.91262,-2.28097
20.1648,69795.4147,-4.47337,2.1478,-2.33717
20.1782,69795.4247,-4.65418,2.13009,-2.38604
20.1848,69795.4347,-4.85577,1.91934,-2.48378
20.1962,69795.4447,-4.93579,1.35368,-2.68536
20.2036,69795.4547,-4.6493,0.90591,-2.77455
20.215,69795.4647,-3.83623,0.45326,-2.70797
20.2258,69795.4747,-2.84724,0.3934,-2.5131
20.2361,69795.4847,-2.00975,0.53817,-2.29074
20.245,69795.4947,-1.60658,0.75259,-2.14597
20.2548,69795.5047,-1.61818,0.87781,-2.02929
20.266,69795.5147,-1.75502,1.0458,-1.79961
20.2744,69795.5247,-1.7764,1.35795,-1.22356
20.2843,69795.5347,-1.66522,1.83565,-0.61087
20.2944,69795.5447,-1.44775,2.28952,0.2645
20.3059,69795.5547,-1.2651,2.44835,1.00548
20.3194,69795.5647,-1.04702,2.44774,1.58947
20.3285,69795.5747,-0.85277,2.44896,1.76601
20.338,69795.5847,-0.42577,2.45201,1.8216
20.343,69795.5947,-0.03971,2.31212,1.85092
20.3553,69795.6047,0.49052,2.03235,1.90346
20.3634,69795.6147,0.90897,1.91506,1.94622
20.3794,69795.6247,1.39155,1.71348,2.03296
20.3866,69795.6347,1.65911,1.50212,2.06472
20.4027,69795.6447,1.8723,1.27121,2.06534
20.4043,69795.6547,2.02502,1.22112,2.02563
20.4177,69795.6647,2.10565,1.3439,1.923
20.423,69795.6747,2.07633,1.33352,1.76479
20.4354,69795.6847,1.95904,1.52044,1.60841
20.443,69795.6947,1.82465,1.87108,1.55465
20.465,69795.7047,1.67072,2.21072,1.57664
20.4673,69795.7147,1.55771,2.55891,1.71592
20.4777,69795.7257,1.46058,3.01706,1.9676
20.4866,69795.7357,1.36162,3.39336,2.07144
20.5082,69795.7457,1.18202,3.3396,2.069
20.5107,69795.7567,0.95723,3.19116,2.02563
20.521,69795.7667,0.86254,3.21193,2.03846
20.5265,69795.7777,0.86132,3.36098,2.07022
20.5458,69795.7877,0.86437,3.9413,2.29319
20.5486,69795.7977,0.80084,4.46359,2.68536
20.561,69795.8077,0.67684,4.48681,3.01462
20.5665,69795.8177,0.69639,4.15877,3.03234
20.5807,69795.8277,0.94928,3.43856,2.78005
20.5861,69795.8377,1.20218,3.02684,2.51738
20.5998,69795.8477,1.42332,2.93948,2.09649
20.6184,69795.8577,1.4111,3.04639,1.73058
20.6204,69795.8677,1.19302,3.31883,1.40377
20.6316,69795.8777,0.88392,3.49537,1.102
20.6417,69795.8877,0.65424,3.49354,0.84299
20.6511,69795.8977,0.62064,3.182,0.73059
20.6609,69795.9077,0.67501,2.8112,0.68722
20.6744,69795.9177,0.62858,2.21866,0.70921
20.6812,69795.9277,0.32742,1.48074,0.82894
20.6859,69795.9377,0,1.02014,0.9389
20.6978,69795.9477,-0.37202,0.32193,0.94806
20.7057,69795.9577,-0.4667,0.02932,0.89247
20.7173,69795.9677,-0.50274,0.18387,0.8882
20.7256,69795.9777,-0.58887,0.48381,0.96822
20.7399,69795.9877,-0.73854,0.65485,1.06718
20.7475,69795.9977,-0.8094,0.62736,1.09528
20.7604,69796.0077,-0.78741,0.43921,1.04153
20.7674,69796.0177,-0.72632,0.2193,0.95784
20.7804,69796.0277,-0.68111,-0.14905,0.85032
20.7935,69796.0387,-0.64752,-0.61575,0.75808
20.8175,69796.0487,-0.57788,-1.18202,0.64813
20.8362,69796.0585,-0.37202,-1.98043,0.42699
20.8373,69796.0686,-0.11545,-2.339,0.17471
20.8382,69796.0786,-0.08552,-2.36344,0.14905
20.8406,69796.0887,0.07758,-2.53204,-0.0391
20.8518,69796.0987,0.28955,-2.74645,-0.32254
20.861,69796.1087,0.48869,-2.96086,-0.71288
20.867,69796.1187,0.61514,-3.19605,-1.10322
20.9008,69796.1287,0.67134,-3.69879,-1.47096
20.9031,69796.1387,0.68967,-4.37807,-1.85825
20.9036,69796.1487,0.68295,-5.23939,-2.32434
20.9072,69796.1587,0.65179,-5.81177,-2.70308
20.927,69796.1687,0.58704,-6.18501,-3.02256
20.9287,69796.1787,0.51068,-6.31451,-3.16734
20.9386,69796.1887,0.39279,-6.4037,-3.16245
20.9531,69796.1987,0.32498,-6.40614,-2.95231
20.9646,69796.2087,0.30727,-6.42386,-2.53753
20.9667,69796.2187,0.3543,-6.50755,-2.16124
20.9828,69796.2287,0.41356,-6.75067,-1.7147
20.9862,69796.2387,0.42272,-7.11658,-1.41904
20.9979,69796.2486,0.4105,-7.52586,-1.17286
21.0062,69796.2586,0.42455,-7.84046,-1.07024
21.0179,69796.2686,0.49236,-8.10801,-1.09956
21.0262,69796.2787,0.64752,-8.14894,-1.21196
21.0378,69796.2887,0.85521,-7.99012,-1.25533
21.0462,69796.2987,1.06718,-7.67735,-1.18386
21.0577,69796.3086,1.23578,-7.19599,-1.02686
21.0697,69796.3186,1.29992,-6.72379,-0.82589
21.0826,69796.3287,1.21257,-6.30107,-0.5565
21.0896,69796.3387,0.9951,-6.20395,-0.30055
21.1003,69796.3487,0.62675,-6.45379,-0.07208
21.1084,69796.3587,0.27,-6.81787,0.02627
21.1196,69796.3687,-0.09774,-7.42812,0.02505
21.1267,69796.3786,-0.22113,-8.05059,-0.0336
21.1401,69796.3887,-0.05437,-8.74087,-0.13073
21.1477,69796.3997,0.37813,-9.27599,-0.2303
21.1647,69796.4097,1.13621,-9.69932,-0.33537
21.1738,69796.4197,1.9059,-9.94061,-0.45204
21.1829,69796.4297,2.63955,-10.03407,-0.62553
21.1955,69796.4397,3.02134,-10.10982,-0.72815
21.2045,69796.4507,3.31028,-10.11349,-0.87476
21.2101,69796.4607,3.38236,-9.99253,-1.10811
21.2209,69796.4707,3.42329,-9.80072,-1.41293
21.229,69796.4807,3.45566,-9.57837,-1.70309
21.2428,69796.4907,3.53202,-9.10983,-2.02868
21.2501,69796.5007,3.68168,-8.56738,-2.35855
21.2663,69796.5107,4.09524,-8.16177,-2.73484
21.2751,69796.5207,4.69144,-8.05059,-2.94498
21.2845,69796.5307,5.88935,-8.28639,-3.16001
21.2902,69796.5407,6.75617,-8.65046,-3.23148
21.3177,69796.5507,7.64742,-9.00965,-3.3115
21.3221,69796.5607,8.04204,-9.09334,-3.47643
21.323,69796.5707,8.11412,-8.83189,-3.83623
21.3293,69796.5807,7.78609,-8.28089,-4.04515
21.3424,69796.5907,7.04877,-7.24853,-4.14594
21.3491,69796.6007,6.35361,-6.27847,-4.17282
21.3619,69796.6107,5.41227,-4.88387,-4.15266
21.3717,69796.6217,4.52468,-3.59005,-3.98834
21.3823,69796.6317,3.90587,-2.69025,-3.72383
21.3905,69796.6417,3.67008,-2.25104,-3.5644
21.4036,69796.6517,3.65847,-1.94561,-3.33044
21.4099,69796.6615,3.80019,-1.78861,-3.09281
21.4286,69796.6717,4.06653,-1.79106,-2.91871
21.4352,69796.6817,4.48314,-1.788,-2.78066
21.4463,69796.6917,5.28093,-1.48807,-2.61878
21.4498,69796.7017,6.12331,-0.76908,-2.49722
21.4633,69796.7117,7.14651,0.62736,-2.51615
21.4706,69796.7227,7.6743,1.76784,-2.6707
21.4828,69796.7327,8.07564,2.98163,-3.00301
21.4911,69796.7427,8.19109,3.24919,-3.23148
21.504,69796.7527,8.30655,3.42146,-3.19055
21.5128,69796.7627,8.43971,3.98406,-2.62489
21.5247,69796.7727,8.37252,5.12455,-1.4392
21.5341,69796.7827,7.94919,6.13981,-0.48136
21.5429,69796.7927,6.94065,6.89911,0.30727
21.5536,69796.8027,5.83193,7.01151,0.44043
21.5632,69796.8127,4.91624,6.56802,0.32803
21.5708,69796.8227,4.4526,5.61629,0.25595
21.5837,69796.8327,4.47825,4.19726,0.22541
21.5909,69796.8427,4.66884,3.44711,0.17654
21.6032,69796.8527,4.71099,3.19055,0.09346
21.6108,69796.8627,4.47459,3.52347,-0.00855
21.6282,69796.8727,4.138,4.5485,-0.02016
21.6355,69796.8827,4.15083,5.74458,-0.17593
21.6465,69796.8927,4.56927,6.88323,-0.47709
21.6594,69796.9027,5.04391,7.30778,-0.70494
21.6692,69796.9127,5.70731,6.91316,-0.98655
21.674,69796.9227,6.15508,6.09521,-1.0061
21.6898,69796.9327,6.71402,5.06957,-0.82894
21.697,69796.9427,7.05183,4.64563,-0.69455
21.7173,69796.9537,7.04205,4.46054,-0.78679
21.7197,69796.9635,6.69508,4.29927,-1.01098
21.7281,69796.9747,6.12087,3.97124,-1.37872
21.7374,69796.9847,5.81422,3.78675,-1.59497
21.7449,69796.9947,5.57292,3.5815,-1.86497
21.7546,69797.0047,5.48435,3.3286,-2.10993
21.7677,69797.0147,5.41532,2.81365,-2.37565
21.7727,69797.0247,5.23878,2.18018,-2.60473
21.7885,69797.0347,4.71283,1.06963,-2.99874
21.7944,69797.0447,4.21375,0.23152,-3.29501
21.8057,69797.0547,3.48254,-0.60415,-3.72139
21.8135,69797.0647,2.87656,-0.93523,-4.13495
21.8301,69797.0747,2.07083,-0.7086,-4.66212
21.8356,69797.0847,1.39094,0.11729,-4.99077
21.8478,69797.0947,0.76786,1.38727,-5.18625
21.8595,69797.1047,0.38362,2.43491,-5.28887
21.8651,69797.1147,0.25045,2.95537,-5.41837
21.876,69797.1247,0.41905,2.7379,-5.66028
21.8927,69797.1347,0.90958,1.85642,-6.04146
21.8948,69797.1447,1.41354,0.76786,-6.39148
21.9109,69797.1557,1.86864,-0.71532,-6.83192
21.919,69797.1657,1.97981,-1.53877,-7.11108
21.9274,69797.1757,1.88391,-2.08183,-7.32489
21.936,69797.1857,1.67805,-2.18201,-7.37803
21.9512,69797.1957,1.53144,-1.89185,-7.42262
21.9612,69797.2057,1.38178,-1.49479,-7.41957
21.9722,69797.2157,1.09284,-1.24494,-7.25036
21.9755,69797.2257,0.76786,-1.40377,-6.96814
21.9903,69797.2357,0.50702,-1.7202,-6.64988
21.9938,69797.2457,0.32742,-1.92484,-6.4208
22.0074,69797.2557,0.15394,-2.08,-6.12209
22.0195,69797.2657,0.02566,-2.21866,-5.90646
22.028,69797.2757,-0.08125,-2.22966,-5.75496
22.0336,69797.2857,-0.11668,-2.07389,-5.75679
22.0448,69797.2957,-0.17165,-1.76601,-5.91379
22.0532,69797.3057,-0.30421,-1.44042,-6.09949
22.065,69797.3156,-0.6017,-1.20035,-6.18257
22.0733,69797.3257,-0.89186,-1.09895,-6.16852
22.0865,69797.3357,-1.2144,-1.06779,-6.11782
22.0943,69797.3457,-1.42759,-1.02137,-6.10438
22.1079,69797.3557,-1.59863,-1.08673,-6.13553
22.1156,69797.3667,-1.68477,-1.19852,-6.18807
22.1275,69797.3767,-1.72569,-1.2761,-6.29802
22.1383,69797.3867,-1.71348,-1.17347,-6.42936
22.1488,69797.3967,-1.61452,-0.53451,-6.54114
22.1586,69797.4067,-1.57053,0.06842,-6.49411
22.1729,69797.4167,-1.60474,0.95478,-6.26809
22.1772,69797.4267,-1.80327,1.35734,-5.90157
22.1946,69797.4367,-2.19545,1.2761,-5.49412
22.1986,69797.4467,-2.5919,1.06046,-5.29498
22.2114,69797.4567,-2.9346,0.9615,-5.30964
22.2192,69797.4667,-3.07876,1.06046,-5.38233
22.2404,69797.4767,-3.18566,1.2877,-5.29498
22.2421,69797.4866,-3.30661,1.55282,-5.12516
22.2476,69797.4967,-3.56134,2.05801,-4.92968
22.2556,69797.5067,-3.74766,2.5467,-4.78063
22.2714,69797.5167,-3.94436,3.27302,-4.56133
22.2762,69797.5267,-4.12456,3.7104,-4.37074
22.2917,69797.5367,-4.35608,3.71834,-4.20397
22.295,69797.5467,-4.50941,3.41901,-4.11662
22.3109,69797.5567,-4.60104,2.83503,-4.06531
22.3195,69797.5667,-4.49475,2.63222,-4.07814
22.3299,69797.5767,-4.17587,2.50821,-4.08669
22.3362,69797.5867,-4.03599,2.32373,-4.07081
22.3462,69797.5967,-4.03782,2.28891,-3.99384
22.3561,69797.6067,-4.29927,2.2266,-3.80019
22.3663,69797.6167,-4.93213,1.70492,-3.56379
22.3747,69797.6267,-5.55093,1.11239,-3.56379
22.3881,69797.6367,-5.88019,0.5962,-3.75132
22.3963,69797.6477,-5.73358,0.30971,-3.93764
22.4084,69797.6577,-5.31575,-0.12095,-4.04698
22.4163,69797.6677,-5.02131,-0.70005,-4.10807
22.4303,69797.6777,-4.7397,-1.75074,-4.27361
22.45,69797.6887,-4.44954,-2.66582,-4.4697
22.4528,69797.6987,-3.84112,-3.44956,-4.57049
22.4628,69797.7087,-3.07387,-3.56379,-4.36036
22.4759,69797.7187,-1.7764,-2.94071,-3.55462
22.4816,69797.7287,-1.04153,-2.23271,-2.82036
22.4926,69797.7387,-0.66462,-1.40316,-1.93156
22.5036,69797.7487,-0.73059,-1.01281,-1.30664
22.5103,69797.7587,-0.90652,-0.88087,-0.92607
22.5167,69797.7687,-0.78069,-0.75381,-0.71777
22.5288,69797.7787,-0.19426,-0.48258,-0.50641
22.5383,69797.7887,0.50946,-0.45815,-0.31887
22.5535,69797.7987,1.31153,-0.64752,-0.15577
22.5579,69797.8087,1.84848,-0.87293,-0.0843
22.5767,69797.8187,2.37443,-0.83444,-0.03482
22.5792,69797.8287,2.65482,-0.62736,0.04032
22.5912,69797.8387,2.80448,-0.53145,0.24557
22.5969,69797.8487,2.88328,-0.47342,0.48442
22.6107,69797.8587,3.0189,-0.41233,0.78924
22.6176,69797.8687,3.17222,-0.4441,0.99327
22.6315,69797.8787,3.41168,-0.57727,1.13193
22.6378,69797.8897,3.64137,-0.79229,1.1808
22.6511,69797.8997,3.93764,-1.07879,1.17836
22.6576,69797.9097,4.22719,-1.21379,1.13804
22.673,69797.9197,4.48375,-1.25594,1.03297
22.6811,69797.9297,4.64991,-1.38727,0.95845
22.6909,69797.9397,4.86004,-1.53205,0.91019
22.7023,69797.9497,5.09828,-1.39338,0.92852
22.7111,69797.9597,5.38172,-1.13377,0.98166
22.7177,69797.9697,5.51428,-0.93279,1.05496
22.7313,69797.9797,5.52161,-0.70616,1.27793
22.7444,69797.9897,5.42082,-0.50824,1.59008
22.7526,69797.9997,5.24245,-0.28833,1.93889
22.758,69798.0097,5.0433,-0.15027,2.20889
22.7741,69798.0197,4.84416,-0.10263,2.51066
22.7829,69798.0297,4.69206,-0.16921,2.8057
22.7913,69798.0397,4.59432,-0.19487,2.97552
22.802,69798.0497,4.52651,-0.20159,2.95353
22.8112,69798.0597,4.51124,-0.41539,2.80082
22.8215,69798.0697,4.55217,-0.90469,2.64993
22.8334,69798.0797,4.66335,-1.59802,2.45079
22.8384,69798.0897,4.74459,-2.27914,2.30907
22.8589,69798.0997,4.77819,-2.91138,2.27914
22.8613,69798.1097,4.7843,-3.23331,2.40559
22.8749,69798.1197,4.76108,-3.45566,2.66215
22.8952,69798.1307,4.6609,-3.43978,2.89123
22.8967,69798.1407,4.46176,-3.44039,3.00973
22.8991,69798.1507,4.25468,-3.42207,3.02867
22.9128,69798.1607,3.97734,-3.33532,2.92788
22.9227,69798.1707,3.79653,-3.23148,2.85091
22.9327,69798.1807,3.66458,-3.08487,2.90955
22.9395,69798.1917,3.60166,-2.89611,3.04211
22.9611,69798.2017,3.5253,-2.48989,3.12458
22.9631,69798.2117,3.38358,-2.08855,3.10686
22.9757,69798.2216,3.17711,-1.69088,3.09403
22.9867,69798.2316,2.95598,-1.27121,3.20765
22.9943,69798.2416,2.69819,-0.86132,3.40863
22.9993,69798.2516,2.56014,-0.74403,3.51064
23.0107,69798.2616,2.45751,-0.92363,3.60227
23.0189,69798.2715,2.43369,-1.25288,3.63098
23.0309,69798.2817,2.47828,-1.65544,3.66947
23.0392,69798.2917,2.53143,-1.97126,3.73544
23.0507,69798.3016,2.54364,-2.21133,3.77637
23.0593,69798.3117,2.48805,-2.33106,3.88205
23.0732,69798.3217,2.31151,-2.53815,4.05065
23.0792,69798.3317,2.13925,-2.81853,4.13861
23.0908,69798.3417,1.9285,-3.18261,4.18626
23.0992,69798.3516,1.80938,-3.29317,4.14961
23.1113,69798.3616,1.79533,-3.30295,3.99811
23.1192,69798.3717,1.83137,-3.15329,3.86189
23.1337,69798.3816,1.8497,-2.87656,3.74644
23.1402,69798.3917,1.82771,-2.72507,3.70184
23.1535,69798.4017,1.82771,-2.64627,3.69757
23.1603,69798.4117,1.87047,-2.68231,3.722
23.1737,69798.4217,1.99936,-2.84297,3.85639
23.1804,69798.4317,2.12887,-2.97125,4.01155
23.2028,69798.4416,2.29685,-3.13924,4.19603
23.2045,69798.4517,2.4343,-3.25469,4.32065
23.2193,69798.4617,2.53326,-3.40069,4.43549
23.2223,69798.4717,2.56563,-3.54485,4.49902
23.2361,69798.4817,2.56747,-3.70429,4.48681
23.2411,69798.4917,2.55281,-3.91442,4.43305
23.2584,69798.5016,2.5693,-4.16732,4.47703
23.2686,69798.5127,2.62,-4.3518,4.61081
23.2819,69798.5227,2.73301,-4.52834,4.69083
23.2833,69798.5327,2.83319,-4.7,4.69939
23.2977,69798.5427,2.91199,-4.97855,4.68167
23.3019,69798.5527,2.89306,-5.15815,4.65601
23.3207,69798.5627,2.7715,-5.23512,4.57294
23.322,69798.5727,2.61084,-5.06835,4.50452
23.3327,69798.5827,2.35427,-4.63402,4.44893
23.3406,69798.5927,2.22783,-4.26017,4.3176
23.3554,69798.6035,2.25715,-3.99872,4.06348
23.3626,69798.6136,2.34206,-4.03965,3.84723
23.3736,69798.6237,2.45568,-4.32004,3.60105
23.3823,69798.6337,2.56441,-4.52651,3.41535
23.403,69798.6437,2.60168,-4.67862,3.32005
23.4051,69798.6537,2.52532,-4.88875,3.23942
23.4154,69798.6637,2.3616,-5.02192,3.01951
23.423,69798.6737,2.07939,-4.56988,2.80448
23.4419,69798.6837,1.64934,-3.7837,2.63283
23.4444,69798.6937,1.20951,-2.96697,2.43674
23.4678,69798.7037,0.73976,-2.33961,2.30541
23.4735,69798.7135,0.26145,-2.1814,2.27425
23.4763,69798.7247,0.12278,-2.47523,2.18812
23.483,69798.7347,0.13011,-2.78005,2.06106
23.4953,69798.7447,0.23824,-3.25286,1.95355
23.503,69798.7547,0.36591,-3.60044,1.86986
23.5292,69798.7646,0.44593,-3.91137,1.73669
23.5358,69798.7747,0.44288,-4.06714,1.57481
23.5367,69798.7847,0.37813,-4.07875,1.43126
23.5439,69798.7947,0.24496,-3.96818,1.3323
23.562,69798.8047,0.06414,-3.71895,1.23456
23.5666,69798.8157,-0.12767,-3.47521,1.09345
23.5791,69798.8257,-0.3146,-3.28645,0.90713
23.5838,69798.8357,-0.48991,-3.19849,0.67867
23.5964,69798.8457,-0.70738,-3.16917,0.36224
23.6083,69798.8557,-0.97494,-3.2779,0.11362
23.6156,69798.8657,-1.3268,-3.59189,-0.04276
23.6237,69798.8757,-1.64201,-3.97673,-0.16066
23.6357,69798.8857,-1.93033,-4.35791,-0.22907
23.6444,69798.8957,-2.05129,-4.42022,-0.22846
23.6563,69798.9057,-2.1478,-4.17526,-0.05131
23.6639,69798.9156,-2.29563,-3.8399,0.16249
23.6761,69798.9257,-2.56197,-3.28035,0.39462
23.6871,69798.9357,-2.79165,-2.73912,0.50824
23.6993,69798.9457,-2.98224,-2.19973,0.52473
23.7053,69798.9557,-3.05738,-2.0409,0.47342
23.7207,69798.9657,-3.05738,-2.23027,0.33598
23.728,69798.9756,-2.96392,-2.50882,0.18754
23.7391,69798.9857,-2.78249,-2.631,-0.04276
23.7449,69798.9957,-2.6536,-2.66826,-0.26389
23.7579,69799.0057,-2.65665,-2.6255,-0.44532
23.7644,69799.0157,-2.83503,-2.58518,-0.55589
23.7797,69799.0257,-3.07265,-2.55708,-0.55955
23.7869,69799.0357,-3.20277,-2.46118,-0.43433
23.7965,69799.0457,-3.26141,-2.1197,-0.16554
23.8039,69799.0557,-3.28279,-1.70187,0.1631
23.8161,69799.0657,-3.37075,-1.72447,0.44715
23.8247,69799.0757,-3.57173,-2.25715,0.6017
23.8393,69799.0857,-3.85456,-2.75989,0.91813
23.8453,69799.0967,-4.03782,-3.00912,1.24983
23.863,69799.1067,-4.08302,-2.95781,1.63406
23.865,69799.1165,-4.00972,-3.01584,1.9285
23.8848,69799.1266,-3.93092,-3.182,2.14108
23.8906,69799.1367,-3.93764,-3.21682,2.30479
23.9005,69799.1467,-4.0647,-2.77211,2.40681
23.9075,69799.1567,-4.273,-2.17468,2.46606
23.9167,69799.1667,-4.53567,-1.48074,2.48805
23.9274,69799.1767,-4.6609,-1.20829,2.46179
23.9367,69799.1867,-4.62058,-1.25716,2.37443
23.9447,69799.1967,-4.32554,-1.51556,2.28586
23.9634,69799.2067,-3.68718,-1.92972,2.20583
23.9663,69799.2167,-3.05738,-2.27181,2.12825
23.9804,69799.2267,-2.21683,-2.54731,2.09527
23.9864,69799.2367,-1.58336,-2.39215,2.13803
23.9969,69799.2467,-1.14598,-1.76723,2.27486
24.0047,69799.2567,-1.10506,-1.44775,2.40009
24.0162,69799.2667,-1.31336,-1.07146,2.57235
24.0243,69799.2767,-1.56931,-0.75992,2.69269
24.0454,69799.2867,-1.94133,-0.34758,2.81975
24.0503,69799.2967,-2.24371,0.04398,2.96086
24.0599,69799.3067,-2.48195,0.5901,3.18322
24.0661,69799.3166,-2.66398,1.2144,3.40191
24.0782,69799.3267,-3.00973,2.05556,3.78431
24.0845,69799.3367,-3.48804,2.58213,4.13983
24.0961,69799.3467,-4.15572,2.72079,4.40495
24.1047,69799.3567,-4.67129,2.34817,4.38051
24.1163,69799.3667,-5.08301,1.46913,4.10074
24.1251,69799.3766,-5.1386,0.8998,3.98101
24.1363,69799.3867,-4.99566,0.61148,4.03599
24.155,69799.3967,-4.83989,0.55039,4.17221
24.1572,69799.4067,-4.66823,0.70494,4.34203
24.1652,69799.4167,-4.59737,0.9163,4.44404
24.1786,69799.4267,-4.59859,1.13804,4.55767
24.1856,69799.4366,-4.66151,1.36712,4.63036
24.2011,69799.4477,-4.94801,1.78861,4.66762
24.2075,69799.4577,-5.25772,2.12276,4.65296
24.2184,69799.4677,-5.7684,2.50455,4.55156
24.2271,69799.4777,-6.17646,2.75134,4.38601
24.2417,69799.4877,-6.55519,2.75867,3.992
24.2471,69799.4977,-6.55886,2.54181,3.66336
24.2617,69799.5087,-6.17646,2.20706,3.18505
24.2737,69799.5187,-5.71831,2.01219,2.95292
24.2797,69799.5287,-5.06468,1.79411,2.83075
24.2911,69799.5387,-4.56988,1.72997,2.84236
24.3014,69799.5487,-4.21375,1.83321,2.96514
24.309,69799.5587,-4.03904,2.00975,3.15145
24.3213,69799.5687,-3.8906,2.3781,3.49109
24.3308,69799.5787,-3.81791,2.67926,3.722
24.3443,69799.5887,-3.77637,2.96697,3.93825
24.3485,69799.5997,-3.77515,3.0189,4.06409
24.365,69799.6107,-3.79836,3.03905,4.15572
24.3724,69799.6207,-3.7727,3.04394,4.22352
24.3832,69799.6307,-3.49965,3.15206,4.41778
24.3899,69799.6407,-3.25958,3.22354,4.56927
24.4013,69799.6507,-2.93399,3.16978,4.74887
24.4105,69799.6607,-2.73912,3.10747,4.89242
24.4274,69799.6707,-2.71774,3.21743,5.12882
24.4296,69799.6807,-2.79715,3.2608,5.28215
24.4418,69799.6907,-2.88206,3.10625,5.35118
24.4508,69799.7007,-2.89184,2.96147,5.33041
24.4612,69799.7107,-2.77516,2.90222,5.2003
24.4686,69799.7207,-2.60962,2.85091,5.00665
24.4806,69799.7307,-2.4514,2.6933,4.8124
24.4902,69799.7407,-2.34206,2.47828,4.68045
24.5003,69799.7507,-2.23393,2.30174,4.55644
24.5142,69799.7607,-2.17285,2.13192,4.38968
24.5283,69799.7707,-2.19728,1.77395,4.03476
24.5322,69799.7807,-2.27914,1.30908,3.63465
24.5463,69799.7905,-2.33473,0.41783,3.07021
24.5501,69799.8007,-2.26264,-0.42944,2.67803
24.5622,69799.8107,-2.02257,-1.00365,2.4514
24.5686,69799.8207,-1.80022,-0.86865,2.40253
24.581,69799.8307,-1.59375,0.11301,2.37993
24.5885,69799.8407,-1.56443,1.30725,2.29685
24.6011,69799.8506,-1.77334,2.25409,2.12337
24.6085,69799.8606,-1.98776,2.46912,1.99448
24.63,69799.8706,-2.13986,2.13497,1.79594
24.6355,69799.8807,-2.02929,1.53755,1.64139
24.6444,69799.8907,-1.72081,0.8937,1.55221
24.6498,69799.9007,-1.4844,0.6353,1.59253
24.6634,69799.9107,-1.43737,0.81184,1.74341
24.6759,69799.9207,-1.57664,1.20646,1.86375
24.6879,69799.9307,-1.80022,1.72508,1.68293
24.6913,69799.9407,-1.91201,2.10749,1.2089
24.7011,69799.9507,-1.88941,2.34206,0.54611
24.7119,69799.9607,-1.75685,2.26387,0.12706
24.7255,69799.9707,-1.54915,1.90712,-0.18143
24.7334,69799.9807,-1.38666,1.50212,-0.24984
24.7443,69799.9907,-1.23578,1.09284,-0.18815
24.7499,69800.0016,-1.13499,0.89003,-0.07391
24.7627,69800.0117,-1.05435,0.70311,0.07636
24.7722,69800.0217,-0.96883,0.52779,0.21197
24.7815,69800.0317,-0.82406,0.41539,0.26817
24.79,69800.0417,-0.63835,0.29016,0.29199
24.8057,69800.0517,-0.37324,0.05376,0.36102
24.81,69800.0617,-0.08858,-0.13317,0.41233
24.8251,69800.0717,0.15333,-0.16921,0.39584
24.8342,69800.0817,0.22358,-0.29871,0.38973
24.8544,69800.0917,0.2865,-0.45143,0.41722
24.859,69800.1017,0.38362,-0.40378,0.46059
24.8642,69800.1117,0.53695,-0.21869,0.5565
24.8738,69800.1217,0.64691,-0.135,0.67745
24.9038,69800.1317,0.81123,-0.26267,0.88575
24.906,69800.1417,1.01526,-0.43371,1.05863
24.9066,69800.1517,1.25777,-0.39523,1.05252
24.9373,69800.1617,1.33841,-0.50396,0.90897
24.9383,69800.1717,1.32436,-0.76358,0.87598
24.9404,69800.1817,1.30359,-0.8827,0.95051
24.9415,69800.1916,1.27732,-0.94134,1.02992
24.9533,69800.2017,1.2425,-0.86193,1.00854
24.9622,69800.2116,1.17225,-0.67623,0.95356
24.9705,69800.2217,1.08673,-0.45693,0.94867
24.9815,69800.2317,0.95173,-0.22358,1.02992
24.9899,69800.2417,0.82222,-0.00428,1.17897
25.0015,69800.2516,0.67501,0.22419,1.40377
25.0101,69800.2617,0.5901,0.40684,1.57725
25.0208,69800.2717,0.51496,0.5229,1.76662
25.0295,69800.2817,0.46487,0.56994,1.86925
25.0409,69800.2917,0.3372,0.62675,1.94927
25.0501,69800.3017,0.16616,0.69211,2.069
25.0618,69800.3127,-0.09224,0.64446,2.37565
25.073,69800.3227,-0.26206,0.54672,2.75439
25.0838,69800.3337,-0.4105,0.49847,3.2553
25.0936,69800.3437,-0.52351,0.4893,3.72689
25.1067,69800.3537,-0.63286,0.44288,4.20459
25.1155,69800.3637,-0.71288,0.3488,4.58943
25.1266,69800.3737,-0.7813,0.22419,5.02742
25.1347,69800.3837,-0.81551,0.03604,5.45747
25.1442,69800.3937,-0.81245,-0.3091,5.89241
25.1527,69800.4037,-0.73121,-0.7196,6.29313
25.1666,69800.4137,-0.48991,-1.25044,6.68897
25.176,69800.4237,-0.19303,-1.65117,6.89545
25.1846,69800.4336,0.15211,-1.96699,7.06527
25.1921,69800.4436,0.29199,-2.10321,7.20821
25.2048,69800.4537,0.3036,-2.21255,7.38292
25.2156,69800.4637,0.23274,-2.24859,7.52586
25.231,69800.4747,0.10079,-2.29258,7.69568
25.2336,69800.4847,-0.0843,-2.31029,7.72378
25.2454,69800.4947,-0.3427,-2.30724,7.67735
25.2527,69800.5047,-0.50763,-2.24982,7.63765
25.2645,69800.5146,-0.5962,-2.0971,7.57595
25.2726,69800.5247,-0.55894,-1.88941,7.37437
25.2849,69800.5347,-0.43616,-1.54793,7.13613
25.2928,69800.5447,-0.34758,-1.10689,6.87284
25.3072,69800.5547,-0.15394,-0.31032,6.18868
25.3158,69800.5647,0.0507,0.29932,5.58331
25.3255,69800.5746,0.34941,0.96761,4.75009
25.3324,69800.5847,0.64507,1.50945,4.02682
25.3455,69800.5947,0.96028,2.08427,3.41474
25.3526,69800.6047,1.21257,2.52043,2.83686
25.3645,69800.6147,1.45386,2.755,2.18812
25.3743,69800.6247,1.73913,2.60901,1.65483
25.3851,69800.6347,2.09466,2.14536,1.19241
25.3925,69800.6446,2.27242,1.63223,0.9279
25.4042,69800.6547,2.28219,0.8998,0.64263
25.4158,69800.6647,2.06839,0.21075,0.42761
25.4249,69800.6747,1.71226,-0.50274,0.15272
25.4338,69800.6857,1.42576,-0.99754,-0.2022
25.4459,69800.6957,1.17714,-1.43859,-0.79107
25.4539,69800.7057,1.02259,-1.75746,-1.45814
25.4663,69800.7157,0.88026,-2.13925,-2.26814
25.474,69800.7256,0.80084,-2.42636,-2.86251
25.4988,69800.7357,0.73915,-2.69636,-3.53996
25.505,69800.7457,0.68173,-2.79104,-4.01583
25.5126,69800.7557,0.66645,-2.7776,-4.43244
25.5174,69800.7657,0.69822,-2.73423,-4.69511
25.5298,69800.7757,0.76175,-2.73179,-4.99505
25.534,69800.7857,0.80634,-2.84785,-5.27604
25.5478,69800.7956,0.8265,-3.11297,-5.60652
25.554,69800.8057,0.84299,-3.36037,-5.88263
25.5664,69800.8157,0.85216,-3.66153,-6.35178
25.575,69800.8257,0.78191,-3.81241,-6.85452
25.6013,69800.8357,0.55039,-3.88938,-7.47943
25.614,69800.8457,0.27122,-3.95719,-7.77631
25.6156,69800.8567,-0.22052,-4.0537,-7.91742
25.6198,69800.8667,-0.65485,-4.02438,-7.8038
25.6281,69800.8766,-1.04214,-3.80752,-7.41346
25.6378,69800.8867,-1.2144,-3.51492,-7.15018
25.6522,69800.8977,-1.24128,-2.90894,-6.78305
25.6565,69800.9075,-1.38605,-2.68659,-6.68653
25.6685,69800.9176,-2.13497,-3.15634,-6.65721
25.6755,69800.9277,-2.67254,-3.46849,-6.58268
25.6877,69800.9377,-3.23636,-3.60166,-6.63949
25.6964,69800.9477,-3.62793,-3.66641,-6.86613
25.7086,69800.9577,-3.91198,-3.57234,-7.21921
25.7163,69800.9676,-3.89488,-3.46422,-7.42507
25.7295,69800.9777,-3.57478,-3.27974,-7.39086
25.7363,69800.9877,-3.18444,-2.78005,-7.23692
25.7511,69800.9977,-2.60229,-1.89002,-6.95837
25.7575,69801.0077,-2.11543,-1.4673,-6.68287
25.7722,69801.0177,-1.76235,-1.38727,-6.40065
25.7773,69801.0276,-1.61818,-1.50273,-6.23205
25.7912,69801.0387,-1.48624,-1.58581,-6.04329
25.7985,69801.0487,-1.42454,-1.73119,-5.96938
25.8158,69801.0586,-1.42698,-1.81427,-5.97609
25.8233,69801.0687,-1.52228,-1.94194,-6.06101
25.8328,69801.0787,-1.66888,-2.47217,-6.17646
25.8405,69801.0887,-1.76662,-3.02745,-6.19906
25.8515,69801.0986,-1.64567,-3.35243,-6.05306
25.8583,69801.1087,-1.41415,-3.89366,-5.92784
25.8694,69801.1186,-1.15698,-4.54728,-5.85026
25.8782,69801.1287,-0.9053,-4.9364,-5.80017
25.8907,69801.1387,-0.54184,-5.23389,-5.78001
25.8965,69801.1487,-0.22724,-5.34874,-5.80627
25.9107,69801.1587,0.19242,-5.29926,-5.84415
25.9167,69801.1687,0.58032,-4.83683,-5.8863
25.9294,69801.1786,0.99205,-4.07142,-5.81727
25.9448,69801.1887,1.27243,-3.71284,-5.54421
25.9484,69801.1987,1.51189,-3.40252,-4.91136
25.9584,69801.2087,1.61146,-3.13374,-4.14655
25.9744,69801.2187,1.68293,-3.10564,-3.24919
25.9774,69801.2287,1.82954,-3.20154,-2.61573
25.9893,69801.2387,2.07511,-3.41413,-2.28647
25.9961,69801.2487,2.39765,-3.8454,-2.42025
26.0085,69801.2586,2.8167,-4.10074,-3.09159
26.0163,69801.2687,3.16856,-4.13922,-3.93703
26.0278,69801.2787,3.4972,-4.06103,-4.91319
26.0364,69801.2887,3.73116,-3.89121,-5.51917
26.0478,69801.2987,4.10135,-3.71895,-5.97609
26.0567,69801.3086,4.5314,-3.62365,-6.18012
26.0678,69801.3187,5.09339,-3.59433,-6.28153
26.0762,69801.3287,5.56254,-3.5363,-6.32612
26.0951,69801.3386,6.207,-3.32983,-6.35422
26.0993,69801.3487,6.59673,-3.07204,-6.32062
26.1196,69801.3587,7.0219,-2.54609,-6.18868
26.1328,69801.3686,7.29556,-1.98776,-6.06956
26.1352,69801.3786,7.61077,-1.2254,-5.95166
26.1411,69801.3887,7.81113,-0.78679,-5.84781
26.1518,69801.3987,7.85389,-0.38423,-5.65967
26.1616,69801.4087,7.74699,-0.1069,-5.50756
26.1748,69801.4187,7.49348,0.21441,-5.3353
26.1773,69801.4286,7.11475,0.3372,-5.16425
26.1911,69801.4386,6.55214,0.13806,-4.93701
26.1969,69801.4487,6.12759,-0.29871,-4.8014
26.2127,69801.4587,5.61813,-0.76847,-4.70549
26.217,69801.4687,5.1105,-0.96883,-4.65785
26.229,69801.4787,4.5876,-0.71899,-4.67006
26.2408,69801.4886,4.19664,-0.10201,-4.79774
26.2497,69801.4986,3.88449,0.6408,-4.94068
26.2586,69801.5086,3.73911,1.2987,-4.92907
26.2702,69801.5187,3.6377,1.62857,-4.73909
26.2835,69801.5287,3.57539,1.5516,-4.52834
26.295,69801.5387,3.52897,1.26388,-4.38479
26.3012,69801.5487,3.5589,0.97555,-4.47031
26.3104,69801.5586,3.73239,0.61758,-4.89242
26.3178,69801.5686,3.9975,0.38851,-5.36767
26.3308,69801.5787,4.33042,0.42028,-5.58514
26.3467,69801.5887,4.57233,0.83444,-5.34507
26.3588,69801.5987,4.75436,1.77701,-4.74031
26.3605,69801.6087,4.73237,2.62306,-3.99139
26.3774,69801.6186,4.5033,2.92177,-3.30784
26.3854,69801.6286,4.28583,2.45873,-3.16978
26.3894,69801.6387,4.09341,1.75563,-3.32066
26.4028,69801.6487,3.97124,1.38056,-3.58334
26.4104,69801.6587,3.90587,1.6249,-3.80386
26.4182,69801.6687,3.90771,2.4679,-3.84723
26.4286,69801.6786,3.87777,3.46544,-3.52591
26.4366,69801.6886,3.77393,4.29744,-3.07326
26.4532,69801.6987,3.51736,4.93946,-2.29074
26.4566,69801.7087,3.28829,4.89914,-1.75196
26.4686,69801.7187,3.06227,3.85578,-1.35123
26.4774,69801.7287,3.03295,2.63466,-1.54182
26.4892,69801.7386,3.29256,1.47707,-2.5412
26.4991,69801.7486,3.7385,1.22478,-3.71223
26.5105,69801.7597,4.23085,1.32558,-4.57294
26.5179,69801.7696,4.36524,1.60352,-4.42694
26.5321,69801.7796,4.24307,2.40681,-3.54363
26.5382,69801.7897,3.90221,3.3903,-2.54853
26.5587,69801.7997,3.31028,4.408,-1.68049
26.5627,69801.8097,2.61084,4.67556,-1.37994
26.5719,69801.8197,1.47952,4.31088,-1.43553
26.5781,69801.8296,1.01831,3.87411,-1.6249
26.59,69801.8396,1.01831,3.19544,-1.81793
26.5981,69801.8497,1.36345,2.78799,-1.92972
26.6112,69801.8597,2.07877,2.63222,-2.2376
26.6189,69801.8706,2.76722,2.97552,-2.6707
26.6334,69801.8807,3.06227,3.55462,-3.01584
26.6413,69801.8907,2.85518,4.06042,-3.16856
26.6575,69801.9007,2.07511,4.81728,-3.36037
26.6626,69801.9107,1.05802,4.82645,-3.46544
26.6727,69801.9206,0.10507,3.90526,-3.59677
26.679,69801.9306,-0.18937,3.32677,-3.72567
26.691,69801.9407,-0.02016,3.3115,-3.87472
26.6989,69801.9507,0.29383,3.90465,-4.01461
26.7111,69801.9607,0.30788,4.51735,-4.02988
26.7191,69801.9707,-0.16005,4.86676,-3.98712
26.7341,69801.9806,-0.89125,5.24978,-3.91687
26.74,69801.9906,-1.26571,5.61202,-3.87044
26.754,69802.0007,-1.36284,6.00175,-3.79653
26.7603,69802.0107,-1.2596,5.73236,-3.75499
26.7786,69802.0216,-0.95173,4.83072,-3.81974
26.7862,69802.0317,-0.51985,3.82035,-3.98406
26.7974,69802.0426,0.05376,2.8393,-4.33775
26.8044,69802.0527,0.18754,2.45507,-4.6212
26.816,69802.0636,-0.17776,2.26936,-4.7733
26.8303,69802.0747,-0.83444,2.44713,-4.68839
26.8376,69802.0846,-1.37445,2.81365,-4.41778
26.844,69802.0946,-1.77701,3.16734,-4.18382
26.8737,69802.1047,-2.05801,3.33532,-3.89304
26.8783,69802.1147,-2.15758,3.18322,-3.6377
26.8854,69802.1247,-2.07267,2.71713,-3.5027
26.9091,69802.1357,-1.83932,2.14047,-3.5027
26.9142,69802.1457,-1.383,1.2034,-3.42695
26.917,69802.1557,-1.01465,0.4777,-3.2834
26.9188,69802.1656,-0.5846,-0.15944,-3.10381
26.9289,69802.1767,-0.35552,-0.57727,-3.05433
26.9408,69802.1867,-0.38729,-1.05374,-3.15573
26.9504,69802.1966,-0.68478,-1.35184,-3.31272
26.9651,69802.2066,-1.07512,-1.3323,-3.46422
26.9673,69802.2167,-1.45997,-0.95173,-3.6658
26.9813,69802.2267,-1.91873,-0.31643,-3.93336
26.9843,69802.2367,-2.29013,-0.05376,-4.12456
27.0001,69802.2467,-2.55525,0.07758,-4.3066
27.0043,69802.2566,-2.58396,0.13806,-4.44649
27.0177,69802.2666,-2.41292,0.12217,-4.63036
27.0246,69802.2767,-2.24432,0.02443,-4.72688
27.036,69802.2867,-2.09405,-0.11606,-4.69755
27.0453,69802.2967,-2.01647,-0.38973,-4.60837
27.0582,69802.3067,-1.95538,-0.80207,-4.4752
27.0646,69802.3166,-1.92606,-0.99143,-4.45138
27.0761,69802.3266,-1.91445,-1.21807,-4.48558
27.0845,69802.3367,-1.99814,-1.31092,-4.53751
27.099,69802.3467,-2.22355,-1.25899,-4.51552
27.1103,69802.3576,-2.42025,-1.07146,-4.30171
27.1175,69802.3677,-2.62794,-0.80084,-3.81241
27.1268,69802.3777,-2.73912,-0.68906,-3.27363
27.1399,69802.3877,-2.83075,-0.6915,-2.51249
27.15,69802.3977,-2.88389,-0.89492,-2.1142
27.1601,69802.4076,-2.94804,-1.49051,-1.85947
27.1683,69802.4176,-2.9798,-2.07389,-1.85886
27.1895,69802.4277,-2.93032,-2.82464,-2.0128
27.1928,69802.4376,-2.75073,-3.30173,-2.30052
27.1987,69802.4477,-2.39276,-3.3451,-2.71041
27.2064,69802.4577,-1.97737,-2.89245,-3.04333
27.2203,69802.4676,-1.55343,-2.2883,-3.28951
27.2258,69802.4776,-1.35368,-2.00608,-3.34632
27.2383,69802.4877,-1.27304,-1.72631,-3.29073
27.2466,69802.4977,-1.33841,-1.37261,-3.19849
27.26,69802.5077,-1.53388,-0.78741,-3.11602
27.2658,69802.5177,-1.76479,-0.24374,-3.06777
27.2785,69802.5276,-2.15452,0.31887,-2.95598
27.2863,69802.5376,-2.57174,0.66523,-2.84052
27.2994,69802.5477,-3.02623,0.89064,-2.75989
27.3056,69802.5577,-3.32738,1.01343,-2.71835
27.3186,69802.5677,-3.6432,1.16309,-2.62306
27.3336,69802.5777,-3.76537,1.24983,-2.57785
27.339,69802.5887,-3.8289,1.27426,-2.54853
27.3487,69802.5987,-3.79653,1.25166,-2.52348
27.3588,69802.6087,-3.69329,1.28221,-2.45568
27.3691,69802.6186,-3.55401,1.35429,-2.36405
27.3829,69802.6286,-3.40924,1.22845,-2.28525
27.387,69802.6387,-3.31028,1.0177,-2.31212
27.4026,69802.6487,-3.15817,0.73426,-2.47767
27.4102,69802.6587,-3.02317,0.697,-2.60839
27.4205,69802.6687,-2.82708,0.71899,-2.70247
27.4273,69802.6786,-2.66826,0.7367,-2.66826
27.4423,69802.6886,-2.54242,0.74709,-2.5583
27.4467,69802.6987,-2.47462,0.79229,-2.43308
27.4596,69802.7087,-2.51371,0.88331,-2.32801
27.467,69802.7187,-2.67315,1.05435,-2.25165
27.484,69802.7287,-2.96575,1.3439,-2.17285
27.4878,69802.7386,-3.23697,1.64628,-2.0916
27.5007,69802.7486,-3.67191,2.02013,-1.96393
27.5102,69802.7586,-3.98956,2.23638,-1.89551
27.5197,69802.7687,-4.41045,2.44652,-1.8723
27.5272,69802.7787,-4.72688,2.55525,-1.85825
27.5427,69802.7887,-5.10256,2.62733,-1.79717
27.5483,69802.7987,-5.39394,2.76722,-1.65667
27.563,69802.8097,-5.73236,3.11786,-1.36956
27.5695,69802.8197,-5.95288,3.37442,-1.14782
