AppTimestamp(s),SensorTimestamp(s),gyro_x,gyro_y,gyro_z
0.0297,82183.7962,-0.80695,2.63466,1.8497
0.0315,82183.8062,-1.03053,2.74584,1.95966
0.0321,82183.8162,-1.18508,2.71163,2.02319
0.0331,82183.8263,-1.21929,2.50577,2.01341
0.0337,82183.8363,-1.16736,2.21927,1.9676
0.056,82183.8462,-1.08734,2.00852,1.90346
0.057,82183.856,-0.98349,1.75746,1.81305
0.0885,82183.8662,-0.91385,1.5797,1.73791
0.0911,82183.8762,-0.85094,1.44347,1.67683
0.0922,82183.8863,-0.80084,1.37567,1.66705
0.0928,82183.8963,-0.73182,1.31336,1.73058
0.0991,82183.9063,-0.6353,1.26205,1.83687
0.1154,82183.9162,-0.51129,1.27365,2.01036
0.1195,82183.9262,-0.43616,1.36284,2.1362
0.1315,82183.9362,-0.38912,1.43248,2.16368
0.1395,82183.9463,-0.33842,1.35673,2.08244
0.1516,82183.9563,-0.27855,1.14415,1.89002
0.1596,82183.9663,-0.31093,0.95112,1.53388
0.1728,82183.9762,-0.27367,1.17714,1.2706
0.1792,82183.9862,-0.24129,1.20951,1.21684
0.2015,82183.9962,-0.32254,0.88331,1.23639
0.2047,82184.0062,-0.37629,0.76908,1.33841
0.2177,82184.0163,-0.35491,0.89919,1.41721
0.2204,82184.0263,-0.31582,1.06229,1.39155
0.2334,82184.0362,-0.25107,1.30175,1.38361
0.2387,82184.0462,-0.19792,1.48013,1.43004
0.2519,82184.0562,-0.16493,1.49967,1.49234
0.262,82184.0662,-0.14111,1.27426,1.54182
0.2714,82184.0762,-0.10507,0.69211,1.52961
0.2805,82184.0863,-0.06475,0.07269,1.4618
0.2954,82184.0962,-0.17043,-0.24251,1.38178
0.3013,82184.1062,-0.28894,0.85338,1.28037
0.3144,82184.1162,-0.33414,1.80144,1.4392
0.3191,82184.1262,-0.3207,1.87413,1.44897
0.3309,82184.1362,-0.26267,1.7935,1.38239
0.3391,82184.1463,-0.18937,1.59619,1.26327
0.3508,82184.1563,-0.09774,1.24311,1.12277
0.3609,82184.1662,-0.02993,0.9896,1.10444
0.3741,82184.1762,0.09468,0.79229,1.21318
0.3797,82184.1862,0.21197,0.69883,1.40071
0.3933,82184.1962,0.32132,0.57177,1.62979
0.4035,82184.2062,0.40073,0.44471,1.77762
0.4126,82184.2172,0.51068,0.28466,1.89368
0.4203,82184.2272,0.60048,0.32559,1.95049
0.433,82184.2373,0.71654,1.02564,2.09649
0.4402,82184.2472,0.70983,0.99388,2.16246
0.4648,82184.2572,0.77885,0.90713,2.15941
0.4702,82184.2672,0.93829,0.94562,2.11909
0.4787,82184.2772,1.03053,0.88698,1.98653
0.481,82184.2872,1.03053,0.81734,1.86253
0.4976,82184.2973,0.95478,0.77763,1.71714
0.5063,82184.3072,0.79596,0.74709,1.64873
0.5153,82184.3172,0.5229,0.67684,1.64201
0.5214,82184.3272,0.22297,0.59987,1.71348
0.5368,82184.3372,-0.03726,0.52107,1.82771
0.5437,82184.3472,-0.24679,0.41417,1.93339
0.554,82184.3573,-0.42638,0.29138,1.99448
0.5613,82184.3673,-0.51679,0.23824,1.99997
0.5727,82184.3772,-0.53512,0.26939,1.95171
0.5805,82184.3872,-0.4893,0.36285,1.85947
0.5969,82184.3972,-0.38851,0.49663,1.70248
0.6006,82184.4072,-0.2926,0.57605,1.55038
0.6131,82184.4172,-0.18448,0.57238,1.41171
0.6233,82184.4273,-0.09591,0.50152,1.38361
0.6339,82184.4372,0.07697,0.35613,1.44653
0.6463,82184.4472,0.22907,0.24129,1.52716
0.6529,82184.4572,0.44349,0.07453,1.63406
0.6644,82184.4682,0.60903,-0.03787,1.71714
0.6739,82184.4782,0.71166,-0.03726,1.81183
0.6813,82184.4882,0.68722,0.05925,1.92911
0.6938,82184.4982,0.58582,0.25107,2.1588
0.7015,82184.5083,0.46487,0.57544,2.39398
0.7149,82184.5183,0.21136,1.04641,2.62855
0.7216,82184.5282,-0.03971,1.36712,2.70858
0.7344,82184.5382,-0.28344,1.68416,2.65604
0.7447,82184.5482,-0.41722,1.93522,2.52043
0.7547,82184.5582,-0.55711,2.15147,2.31274
0.7632,82184.5692,-0.67989,2.16491,2.09954
0.779,82184.5792,-0.83689,2.03418,1.95904
0.7918,82184.5892,-0.97922,1.80999,1.92667
0.8008,82184.5993,-1.16248,1.30298,2.00791
0.8078,82184.6092,-1.27732,0.69883,2.18201
0.8169,82184.6192,-1.22356,-0.05498,2.44713
0.8272,82184.6292,-0.99388,-0.58277,2.56563
0.8403,82184.6392,-0.4948,-0.99449,2.64199
0.8448,82184.6492,-0.10079,-1.01465,2.59496
0.8559,82184.6593,0.26328,-0.91324,2.40192
0.8651,82184.6693,0.39951,-0.83383,2.1533
0.8743,82184.6792,0.41356,-0.74526,1.87291
0.8823,82184.6892,0.41294,-0.63469,1.58947
0.894,82184.6992,0.41844,-0.5901,1.22112
0.9023,82184.7092,0.45815,-0.70066,0.81734
0.9169,82184.7192,0.57727,-0.9444,0.31887
0.9231,82184.7302,0.74892,-1.21135,-0.11851
0.9348,82184.7402,0.98655,-1.49112,-0.59132
0.9474,82184.7503,1.19058,-1.65911,-1.00548
0.9548,82184.7602,1.35184,-1.72386,-1.39277
0.9632,82184.7702,1.49601,-1.64262,-1.74219
0.9775,82184.7802,1.61452,-1.39155,-2.12764
0.9845,82184.7902,1.67988,-1.05435,-2.47278
0.9968,82184.8002,1.71836,-0.60415,-2.85091
1.0046,82184.8103,1.72692,-0.22052,-3.15756
1.0324,82184.8202,1.74097,0.36224,-3.63892
1.0451,82184.8302,1.788,0.64446,-4.02805
1.0468,82184.8402,1.90101,0.63408,-4.68289
1.049,82184.8512,1.96576,0.27978,-5.36889
1.0613,82184.8612,1.934,-0.20097,-6.0946
1.0683,82184.8712,1.84665,-0.78252,-6.59429
1.0799,82184.8812,1.57909,-1.62124,-6.83741
1.0876,82184.8912,1.19058,-1.93522,-6.80382
1.0969,82184.9013,0.71593,-2.20095,-6.92721
1.104,82184.9112,-0.0171,-2.80693,-6.9657
1.1159,82184.9212,-1.08734,-3.65908,-6.60162
1.1254,82184.9312,-2.18751,-4.62547,-5.9987
1.1368,82184.9412,-3.70184,-6.05245,-5.33102
1.144,82184.9512,-4.14228,-6.30535,-4.57049
1.1696,82184.9613,-5.32308,-4.65418,-2.90589
1.1728,82184.9712,-6.01947,-2.45079,-1.29137
1.1817,82184.9812,-6.90156,-0.32987,0.80695
1.1876,82184.9912,-7.10436,0.81367,1.56626
1.2034,82185.0012,-6.56253,0.05009,1.72447
1.2067,82185.0112,-6.03046,0.32865,1.76051
1.2188,82185.0213,-5.22717,0.3262,1.81183
1.2322,82185.0313,-4.18687,0.26573,1.75746
1.239,82185.0412,-2.69025,-0.01283,1.71164
1.2464,82185.0512,-1.58581,-0.07453,1.76418
1.2556,82185.0612,-0.20342,-0.16982,1.86925
1.268,82185.0712,0.7367,-0.35186,1.97798
1.2762,82185.0812,1.72631,-0.53206,2.1533
1.2838,82185.0913,2.40437,-0.45937,2.25898
1.298,82185.1012,2.89917,0.09957,2.30479
1.3037,82185.1112,3.00851,0.93707,2.35122
1.3152,82185.1212,2.78127,2.32556,2.64199
1.3236,82185.1312,2.37688,3.48254,3.15634
1.3381,82185.1412,2.03907,4.06836,3.74521
1.356,82185.1512,1.91079,4.22108,4.07142
1.3588,82185.1612,1.95538,4.17587,4.32248
1.3659,82185.1712,2.02074,3.83807,4.45809
1.3818,82185.1812,2.02563,3.11602,4.69022
1.3841,82185.191,1.90895,2.62489,5.15387
1.3987,82185.2012,1.57481,2.41414,5.83987
1.4059,82185.2122,1.1075,2.60839,6.17279
1.4178,82185.2222,0.53084,3.03417,6.00236
1.4315,82185.2322,0.03054,5.55032,5.36828
1.4393,82185.2422,-0.53939,5.43181,4.3066
1.4621,82185.2521,-1.02259,5.88752,3.33777
1.4646,82185.2622,-1.27976,5.47396,2.62244
1.4712,82185.2722,-1.42698,3.88816,2.21194
1.4814,82185.2832,-1.53572,1.77029,1.93522
1.491,82185.2932,-1.60719,0.19487,1.95171
1.5051,82185.3032,-1.64078,-1.38605,2.15269
1.5075,82185.3132,-1.63223,-2.06839,2.34389
1.5186,82185.3232,-1.54977,-2.50699,2.64138
1.5265,82185.3332,-1.44958,-2.53753,2.87962
1.5385,82185.3432,-2.23149,-1.4563,2.92666
1.5529,82185.3532,-2.96942,-1.1808,2.98163
1.5713,82185.3632,-3.57173,-0.71777,2.98591
1.5855,82185.3732,-3.73727,-0.24007,2.92482
1.5871,82185.3832,-3.86739,0.34575,2.92055
1.589,82185.3933,-4.02194,0.23579,2.83136
1.6018,82185.4032,-3.96635,-0.44593,2.51249
1.6109,82185.4132,-3.6487,-1.01404,2.14536
1.6202,82185.4232,-3.06043,-1.80144,1.66339
1.6278,82185.4332,-2.56808,-2.53509,1.3042
1.6379,82185.4432,-2.08733,-3.4801,0.95112
1.6477,82185.4533,-1.67621,-4.20459,0.55711
1.6639,82185.4632,-0.94745,-4.65296,-0.20281
1.6672,82185.4732,-0.41233,-4.50452,-0.60842
1.6777,82185.4832,0.15699,-4.12578,-0.78863
1.6861,82185.4932,0.43616,-3.9804,-0.6744
1.6978,82185.5032,0.73426,-4.01888,-0.43677
1.7061,82185.5132,1.14415,-4.10501,-0.24618
1.7185,82185.5232,1.75746,-4.44221,-0.18082
1.7273,82185.5332,2.28158,-4.99688,-0.13134
1.7452,82185.5432,2.75317,-5.60286,-0.01344
1.7531,82185.5532,2.9572,-5.86186,-0.01161
1.7585,82185.5632,3.01645,-5.85881,-0.30482
1.7698,82185.5732,2.95231,-5.53872,-0.74037
1.7804,82185.5832,2.86435,-4.84477,-1.21257
1.7893,82185.5932,2.73423,-4.17587,-1.38727
1.8027,82185.6032,2.38726,-3.21621,-1.28831
1.8075,82185.6132,1.83993,-2.41047,-1.13804
1.8178,82185.6232,1.02564,-1.97432,-1.11605
1.8282,82185.6332,0.35064,-1.91384,-1.2987
1.8397,82185.6433,-0.27794,-1.89368,-1.67866
1.8528,82185.6532,-0.55528,-1.88269,-2.04457
1.8608,82185.6632,-0.6072,-1.96882,-2.52348
1.8685,82185.6732,-0.48869,-2.09099,-2.86007
1.8838,82185.6832,-0.17349,-2.25226,-3.41168
1.8885,82185.6932,0.15821,-2.35733,-3.90465
1.9007,82185.7032,0.50091,-2.41842,-4.41717
1.9105,82185.7132,0.77458,-2.41964,-4.84599
1.9197,82185.7232,0.99021,-2.19362,-5.38844
1.9274,82185.7342,1.0287,-1.87841,-5.72992
1.939,82185.7442,0.85094,-1.70309,-6.0213
1.9567,82185.7542,0.52718,-1.65239,-6.04451
1.9636,82185.7652,-0.32926,-1.14171,-5.83376
1.9697,82185.7752,-1.1527,-0.71288,-5.54849
1.9907,82185.7852,-1.82038,-0.1686,-5.42509
1.9922,82185.7952,-2.0073,0.40134,-5.42265
2.0016,82185.8052,-1.99142,1.24372,-5.40188
2.0087,82185.8152,-2.0073,1.79533,-5.24794
2.0205,82185.8252,-2.26631,1.76907,-4.91808
2.0503,82185.8352,-2.5748,1.54182,-4.63769
2.0539,82185.8452,-2.71652,1.32741,-4.42999
2.0557,82185.8562,-2.60351,1.11483,-4.24551
2.0646,82185.8662,-2.51249,1.22478,-3.99506
2.073,82185.8772,-2.19484,1.21379,-3.86067
2.0821,82185.8872,-1.9114,2.10138,-3.70001
2.0902,82185.8972,-1.40499,1.71714,-3.68535
2.104,82185.9072,-0.88392,1.61818,-3.71223
2.1139,82185.9172,-0.67195,1.48624,-3.78736
2.1229,82185.9272,-0.63469,1.07451,-3.68291
2.1302,82185.9372,-0.84177,0.60231,-3.4972
2.1413,82185.9472,-1.11849,0.29688,-3.26996
2.1498,82185.9572,-1.26083,0.16188,-2.96881
2.162,82185.9672,-1.42393,0.00489,-2.63039
2.1748,82185.9772,-1.58336,0.0226,-2.27792
2.1871,82185.9872,-1.90285,0.23579,-1.97065
2.1973,82185.9971,-2.26203,0.49175,-1.79106
2.2032,82186.0072,-2.48928,0.71288,-1.6359
2.2102,82186.0172,-2.50943,0.79229,-1.38178
2.2341,82186.0272,-2.28647,0.62736,-0.92241
2.2349,82186.0372,-1.9059,0.31337,-0.40684
2.2448,82186.0472,-1.31458,-0.0843,0.18326
2.25,82186.0573,-0.82222,-0.37507,0.6127
2.2612,82186.0672,-0.3036,-0.7025,1.13621
2.2698,82186.0772,-0.05376,-1.04641,1.51617
2.2817,82186.0872,0.03848,-1.35184,1.75807
2.2897,82186.0972,-0.00916,-1.44958,1.86803
2.3052,82186.1072,-0.25595,-1.25777,2.01647
2.3178,82186.1172,-0.60048,-0.82528,2.22538
2.3225,82186.1272,-1.14232,-0.19975,2.59801
2.3405,82186.1372,-1.67255,0.14172,3.00301
2.3503,82186.1472,-2.31335,0.73976,3.77515
2.3537,82186.1572,-2.44346,1.54366,4.4245
2.3671,82186.1672,-2.44835,1.56076,5.26383
2.3722,82186.1772,-2.35916,1.25716,5.91134
2.3819,82186.1872,-2.12031,0.8265,6.39576
2.3936,82186.1972,-1.74463,0.135,6.73723
2.4018,82186.2072,-1.23273,-0.72021,6.92599
2.4145,82186.2172,-0.73182,-1.49723,7.06588
2.4231,82186.2272,-0.20464,-2.43185,7.28518
2.4312,82186.2372,0.14355,-3.03356,7.3817
2.4416,82186.2472,0.48503,-3.4691,7.33405
2.4497,82186.2572,0.74587,-3.54119,7.2357
2.4617,82186.2671,0.97983,-3.16795,7.22898
2.4698,82186.2772,1.0684,-2.59679,7.30534
2.4813,82186.2872,1.09589,-1.74524,7.4776
2.4898,82186.2972,1.03297,-1.04824,7.69996
2.5021,82186.3071,0.90958,-0.49358,7.96507
2.5201,82186.3171,0.84177,-0.20036,8.01577
2.5305,82186.3272,0.96456,0.03238,7.82213
2.5336,82186.3372,1.2987,-0.01222,7.43728
2.5526,82186.3472,1.86619,-0.30849,6.66271
2.5539,82186.3572,2.42575,-0.58277,5.74824
2.5634,82186.3672,2.81609,-0.77702,4.86127
2.5708,82186.3772,2.86435,-0.8937,4.1606
2.583,82186.3872,2.52776,-1.17714,3.62365
2.5905,82186.3972,1.99631,-1.54488,3.31944
2.6028,82186.4072,1.27976,-1.92484,3.09953
2.611,82186.4172,0.6915,-2.18568,2.93582
2.6235,82186.4272,0.04887,-2.30541,2.66215
2.6321,82186.4372,-0.34697,-2.30968,2.41903
2.6422,82186.4472,-0.562,-2.33228,2.22538
2.6502,82186.4572,-0.56383,-2.39276,2.10687
2.6617,82186.4672,-0.43738,-2.59068,1.97615
2.67,82186.4772,-0.30604,-2.94865,1.90285
2.6825,82186.4872,-0.2193,-3.36281,1.87352
2.6915,82186.4972,-0.16677,-3.54607,1.88269
2.7049,82186.5072,-0.12889,-3.58822,1.88452
2.7124,82186.5171,-0.15027,-3.51614,1.87841
2.7225,82186.5272,-0.25229,-3.31883,1.8833
2.7305,82186.5372,-0.32742,-3.10625,1.82832
2.7439,82186.5472,-0.38485,-2.75683,1.6921
2.7517,82186.5572,-0.39279,-2.4062,1.46608
2.77,82186.5672,-0.28527,-1.99509,1.10139
2.7737,82186.5772,-0.15882,-1.7599,0.80451
2.7886,82186.5872,0.00244,-1.56626,0.33231
2.791,82186.5972,0.18143,-1.40927,-0.12217
2.8028,82186.6072,0.35064,-1.2254,-0.81489
2.8148,82186.6172,0.48442,-1.05435,-1.48868
2.8229,82186.6272,0.61148,-0.88209,-2.23332
2.8305,82186.6372,0.70127,-0.83383,-2.75622
2.8465,82186.6472,0.79718,-0.89919,-3.32922
2.8515,82186.6572,0.87904,-1.04641,-3.77393
2.8672,82186.6672,0.96517,-1.26327,-4.23757
2.8765,82186.6772,1.0122,-1.39766,-4.60959
2.8845,82186.6872,1.04091,-1.47524,-5.08545
2.8908,82186.6972,1.0006,-1.50639,-5.46297
2.9036,82186.7072,0.88392,-1.52472,-5.7794
2.9119,82186.7172,0.75136,-1.51495,-5.91501
2.9224,82186.7272,0.51007,-1.35612,-5.9144
2.9304,82186.7372,0.16127,-1.17347,-5.73908
2.9419,82186.7472,-0.39095,-0.99693,-5.52039
2.9498,82186.7572,-0.91752,-0.78252,-5.48129
2.9623,82186.7672,-1.4508,-0.64935,-5.58758
2.9701,82186.7772,-1.97126,-0.69211,-5.73358
2.9828,82186.7872,-2.5748,-0.79535,-5.82277
2.9901,82186.7972,-2.91566,-0.83139,-5.80566
3.0028,82186.8072,-3.15084,-0.73365,-5.57964
3.0099,82186.8171,-3.20826,-0.57055,-5.30598
3.0227,82186.8272,-3.13496,-0.15699,-5.05858
3.03,82186.8372,-3.04944,0.07697,-5.03109
3.0457,82186.8472,-2.91566,0.10934,-5.10439
3.057,82186.8572,-2.67009,-0.06842,-5.16792
3.0727,82186.8672,-2.17529,-0.53084,-5.21801
3.0767,82186.8772,-1.65239,-1.07879,-5.28337
3.0826,82186.8871,-1.11911,-1.60047,-5.41654
3.0904,82186.8972,-0.88759,-1.82588,-5.60774
3.1024,82186.9072,-0.93035,-1.72692,-5.83926
3.1105,82186.9172,-1.27304,-1.33841,-5.97915
3.1224,82186.9272,-1.8271,-0.83017,-6.1172
3.1319,82186.9372,-2.30113,-0.39218,-6.25526
3.1531,82186.9472,-2.71652,0.13195,-6.3023
3.1724,82186.9572,-3.0977,0.43555,-6.32368
3.1787,82186.9672,-3.39947,0.61942,-6.25648
3.1824,82186.9772,-3.48315,0.57727,-6.06101
3.1839,82186.9872,-3.47277,0.38607,-5.63462
3.1961,82186.9972,-3.39152,0.16677,-5.14654
3.2169,82187.008,-3.18811,-0.36346,-4.18931
3.2196,82187.0182,-2.94865,-0.84055,-3.22659
3.2294,82187.0282,-2.68903,-1.07634,-2.15452
3.2318,82187.0382,-2.46057,-0.96272,-1.05863
3.2512,82187.0482,-2.23638,-0.66462,0.00305
3.2535,82187.0582,-1.99997,-0.46914,0.61575
3.264,82187.0692,-1.75013,-0.44593,0.98594
3.2728,82187.0792,-1.62857,-0.55894,1.1527
3.2841,82187.0892,-1.61757,-0.73976,1.27488
3.2916,82187.0991,-1.77579,-0.8937,1.41049
3.3032,82187.1092,-2.14047,-0.91263,1.62612
3.3117,82187.1191,-2.62306,-0.67623,1.89002
3.337,82187.1292,-3.19238,-0.15577,2.13192
3.3431,82187.1392,-3.61021,0.32315,2.32434
3.3524,82187.1492,-3.80813,0.58399,2.66093
3.3568,82187.1592,-3.69207,0.53084,2.9572
3.3685,82187.1702,-3.08731,0.17654,3.32433
3.3736,82187.1802,-2.31151,-0.10629,3.57295
3.3894,82187.1902,-1.45264,-0.45754,3.77637
3.3938,82187.2002,-0.71166,-0.95723,3.82096
3.41,82187.2102,-0.16677,-1.67499,3.92298
3.4199,82187.2202,0.06353,-2.44957,4.06775
3.4295,82187.2302,0.18631,-3.19299,4.13434
3.437,82187.2402,0.281,-3.33044,4.12029
3.4476,82187.2502,0.30238,-2.9798,4.0873
3.4535,82187.2602,0.17226,-2.36832,3.99933
3.4678,82187.2701,0.02505,-1.61574,3.80936
3.4734,82187.2802,-0.0171,-1.21745,3.68046
3.4889,82187.2902,0.07147,-0.96395,3.62793
3.5001,82187.3012,0.39584,-0.83078,3.49232
3.5075,82187.3112,0.97433,-0.27428,3.11663
3.515,82187.321,1.37139,-0.0562,2.79226
3.5285,82187.3311,1.75257,-0.12645,2.40559
3.5345,82187.3412,1.98226,-0.30849,2.1643
3.5468,82187.3512,2.02991,-0.79718,2.15574
3.556,82187.3611,1.95416,-1.40927,2.33045
3.5673,82187.3712,1.93889,-2.00425,2.52287
3.5743,82187.3812,2.08794,-1.83932,2.51188
3.5872,82187.3912,2.27547,-1.40316,2.32984
3.596,82187.4012,2.45507,-1.16614,2.12825
3.6084,82187.4112,2.57235,-0.92424,1.93156
3.6143,82187.4212,2.53631,-0.64874,1.8833
3.627,82187.4312,2.36222,-0.6408,2.08549
3.6344,82187.4412,2.21439,-0.8491,2.43613
3.6478,82187.4512,2.13131,-0.99632,2.79776
3.6546,82187.4612,2.19362,-0.92302,2.88817
3.6691,82187.4712,2.32129,-0.79901,2.83686
3.6748,82187.4812,2.48195,-0.86132,2.8167
3.6886,82187.4912,2.71102,-0.92485,2.92421
3.6965,82187.5012,2.8277,-0.82894,3.05799
3.7097,82187.5122,2.8167,-0.58826,3.37137
3.7178,82187.5222,2.77699,-0.50396,3.69451
3.7307,82187.5332,2.74278,-0.51374,4.16977
3.7374,82187.5432,2.74401,-0.62858,4.54606
3.7518,82187.5532,2.75378,-0.67317,4.98771
3.7577,82187.5632,2.6872,-0.44104,5.19969
3.7809,82187.5742,2.46973,-0.13867,5.30292
3.784,82187.5842,2.16918,-0.13256,5.14959
3.7913,82187.5942,1.86375,-0.20586,4.90097
3.801,82187.6052,1.68843,-0.32437,4.64074
3.8194,82187.6151,1.64934,-0.7422,4.29316
3.8251,82187.6252,1.87352,-1.21012,4.09035
3.838,82187.6351,2.37443,-1.45814,4.19542
3.8493,82187.6452,2.76783,-1.76418,4.43794
3.8574,82187.655,3.06654,-2.63344,4.66151
3.8609,82187.6651,3.10869,-3.45628,4.66823
3.8725,82187.6752,3.1032,-4.61264,4.48742
3.8793,82187.6852,3.16428,-5.53933,4.22474
3.8919,82187.6952,3.25652,-6.19478,4.01094
3.9053,82187.7052,3.31211,-6.4318,3.89671
3.9103,82187.7152,3.24125,-6.17707,3.91381
3.9181,82187.7252,3.03295,-5.54482,3.97368
3.9318,82187.7352,2.58091,-4.57477,4.07447
3.9381,82187.7452,2.11726,-3.89671,4.14472
3.95,82187.7552,1.50395,-3.21376,4.26628
3.958,82187.7652,1.06168,-2.84419,4.4135
3.9707,82187.7752,0.71593,-2.88023,4.58699
3.9801,82187.7852,0.53939,-3.11908,4.73848
3.9899,82187.7952,0.40928,-3.5815,4.96267
4,82187.8052,0.38057,-3.96635,5.27055
4.0098,82187.8152,0.37568,-4.44832,5.67127
4.018,82187.8252,0.41661,-4.78979,5.75374
4.0313,82187.8352,0.49724,-4.91258,5.4312
4.0381,82187.8452,0.51129,-4.83927,5.09217
4.0539,82187.8552,0.52351,-4.66396,4.91258
4.0581,82187.8652,0.51435,-4.44893,5.02986
4.071,82187.8752,0.50213,-4.16549,5.24978
4.0796,82187.8852,0.52168,-4.11906,5.32003
4.0906,82187.8952,0.6182,-4.31027,5.2064
4.0997,82187.9052,0.81673,-4.6383,4.9871
4.1126,82187.9152,1.21135,-5.02437,4.73359
4.1205,82187.9252,1.65056,-5.02253,4.59187
4.1336,82187.9352,1.94438,-4.72321,4.32615
4.14,82187.9452,2.01402,-4.49414,4.16732
4.1513,82187.9552,2.11482,-4.11601,4.10318
4.1586,82187.9651,2.29807,-3.73788,4.15633
4.1706,82187.9752,2.63222,-3.11969,4.10868
4.1848,82187.9852,2.82281,-2.60717,3.84112
4.1941,82187.9952,2.87718,-2.30968,3.41474
4.203,82188.0052,2.94254,-2.14353,3.04455
4.2136,82188.0152,3.25774,-1.87902,2.52226
4.2199,82188.0252,3.70917,-1.68721,2.01463
4.2295,82188.0352,4.13128,-1.4447,1.35612
4.238,82188.0452,4.19298,-1.12094,0.72021
4.2534,82188.0552,3.94069,-0.72571,-0.07819
4.258,82188.0652,3.59922,-0.26023,-0.69944
4.2701,82188.0752,3.24858,0.44838,-1.29076
4.2792,82188.0852,3.04761,1.20524,-1.78984
4.293,82188.0952,2.77699,2.14475,-2.42147
4.2998,82188.1062,2.42452,2.77638,-3.02195
4.3121,82188.1162,2.09649,3.25286,-3.59922
4.3231,82188.1262,1.99753,3.57539,-4.12639
4.3337,82188.1362,2.06167,3.90282,-4.71405
4.3408,82188.1462,2.20461,4.12701,-5.27727
4.353,82188.1562,2.34511,4.39579,-5.95777
4.3598,82188.1662,2.31274,4.56683,-6.42997
4.3872,82188.1762,2.15147,4.57905,-6.97852
4.389,82188.1862,1.95294,4.43366,-7.48004
4.3988,82188.1962,1.71897,4.17649,-7.93392
4.4009,82188.2062,1.47585,3.83684,-8.21797
4.413,82188.2162,1.17836,3.46605,-8.37496
4.4201,82188.2262,0.88881,3.18016,-8.39207
4.4333,82188.2372,0.52595,2.74217,-8.40062
4.4407,82188.2472,0.31765,2.33412,-8.37496
4.4665,82188.2572,0.10629,1.90773,-8.26073
4.4767,82188.2672,-0.07636,1.64873,-8.13062
4.4779,82188.2772,-0.22541,1.21868,-8.04937
4.4881,82188.2872,-0.28161,0.94134,-8.04387
4.4966,82188.2972,-0.45876,0.68173,-8.01577
4.5067,82188.3072,-0.71654,0.59926,-7.94858
4.5182,82188.3172,-1.18325,0.5846,-7.78548
4.528,82188.3282,-1.71287,0.53695,-7.57656
4.5339,82188.3382,-2.14719,0.4215,-7.39452
4.5444,82188.3482,-2.41719,0.23885,-7.2974
4.5528,82188.3582,-2.49172,-0.07086,-7.20821
4.561,82188.3682,-2.45751,-0.4331,-7.22348
4.5728,82188.3782,-2.39581,-0.93279,-7.31145
4.581,82188.3882,-2.39154,-1.25105,-7.39575
4.5959,82188.3982,-2.4679,-1.39766,-7.41529
4.6011,82188.4082,-2.60229,-1.0684,-7.24792
4.6186,82188.4182,-2.92421,-0.25534,-6.97058
4.6229,82188.4292,-3.32922,0.53329,-6.8533
4.6359,82188.4392,-3.79531,1.45569,-6.89545
4.6429,82188.4492,-4.11112,2.32923,-6.9999
4.6552,82188.4592,-4.3573,3.13679,-7.10558
4.6629,82188.4692,-4.48436,3.49659,-7.18255
4.6797,82188.4792,-4.58515,3.65175,-7.16117
4.6929,82188.4892,-4.6273,3.62243,-6.9547
4.6978,82188.4992,-4.5992,3.53691,-6.53565
4.7026,82188.5092,-4.53201,3.43306,-6.05245
4.7203,82188.5192,-4.45443,3.32433,-5.51367
4.7283,82188.5292,-4.43122,3.29134,-4.92418
4.7392,82188.5392,-4.59859,3.20399,-4.19787
4.7421,82188.5492,-4.86432,3.06777,-3.71467
4.7538,82188.5592,-5.28398,2.76111,-3.24247
4.7635,82188.5692,-5.73358,2.34267,-2.83014
4.7756,82188.5792,-6.17035,1.94194,-2.40803
4.7821,82188.5892,-6.29802,1.28282,-2.11482
4.7941,82188.5992,-6.00969,0.45876,-1.50578
4.8087,82188.6092,-5.66639,-0.09957,-0.88759
4.8154,82188.6192,-5.38172,-0.8375,-0.04581
4.8232,82188.6292,-5.26932,-1.68171,0.59498
4.8353,82188.639,-5.08851,-2.63649,1.09711
4.8425,82188.6492,-4.88814,-3.17161,1.248
4.8554,82188.6592,-4.68961,-3.68352,1.17164
4.8665,82188.6692,-4.53751,-3.91015,0.91324
4.8774,82188.6792,-4.33531,-4.12029,0.39279
4.8853,82188.6892,-4.08486,-4.23696,0.03971
4.9009,82188.6992,-3.46544,-4.45748,-0.5174
4.9031,82188.7092,-2.75989,-4.82767,-0.97005
4.9157,82188.7192,-1.93095,-5.47152,-1.38605
4.9244,82188.7292,-1.46547,-6.12148,-1.58336
4.9413,82188.7392,-1.03358,-7.02067,-1.75685
4.9526,82188.7502,-0.63835,-7.89299,-1.94438
4.9574,82188.7602,-0.36102,-8.37741,-2.10504
4.9651,82188.7702,-0.19181,-8.57288,-2.19056
4.9771,82188.7802,0.05925,-8.56555,-2.32068
4.988,82188.7902,0.31826,-8.38046,-2.51982
5.0006,82188.8001,0.60903,-8.09091,-2.87229
5.004,82188.8102,0.74281,-7.98523,-3.1484
5.016,82188.8202,0.80207,-7.91742,-3.38236
5.0231,82188.8302,0.77641,-7.79159,-3.40008
5.0352,82188.8402,0.7086,-7.52158,-3.18139
5.0432,82188.8502,0.63102,-7.20393,-2.88451
5.055,82188.8602,0.59682,-6.83436,-2.5522
5.0652,82188.8702,0.59559,-6.58757,-2.339
5.0758,82188.8802,0.66462,-6.26076,-2.21378
5.0841,82188.8902,0.8039,-6.0384,-2.27547
5.1011,82188.9002,1.01587,-5.95044,-2.46973
5.1068,82188.9102,1.16614,-6.09033,-2.67681
5.1216,82188.9202,1.27976,-6.57352,-2.94315
5.1311,82188.9312,1.36223,-7.02129,-3.19299
5.1392,82188.9422,1.49662,-7.44889,-3.48804
5.1531,82188.9522,1.63101,-7.7195,-3.70062
5.1593,82188.9622,1.80755,-7.93392,-3.74705
5.1746,82188.9722,1.94377,-8.0512,-3.64015
5.1886,82188.9822,2.10138,-7.97301,-3.49354
5.1922,82188.9922,2.19789,-7.78487,-3.51797
5.2051,82189.0022,2.3726,-7.51914,-3.66886
5.2075,82189.0122,2.53692,-7.39941,-3.84112
5.2252,82189.0222,2.72996,-7.44706,-4.03354
5.2268,82189.0322,2.91871,-7.60833,-4.18687
5.241,82189.0422,3.24308,-7.95285,-4.40312
5.2481,82189.0522,3.62549,-8.3377,-4.64196
5.2604,82189.0622,4.14106,-8.86427,-4.95351
5.2672,82189.0721,4.52468,-9.33646,-5.08545
5.2798,82189.0821,4.87837,-9.80255,-4.91624
5.285,82189.0922,5.01581,-9.99742,-4.63647
5.2977,82189.1022,5.07751,-9.83982,-4.37807
5.3098,82189.1122,5.07873,-9.56981,-4.35975
5.3177,82189.1222,5.10195,-8.86854,-4.53018
5.3251,82189.1322,5.07568,-8.25829,-4.7562
5.3398,82189.1422,4.86615,-7.49715,-5.01154
5.3452,82189.1522,4.60104,-6.92233,-5.14776
5.3615,82189.1622,4.37196,-6.24426,-5.1667
5.367,82189.1732,4.01338,-5.26688,-5.02681
5.3782,82189.1832,3.45322,-4.1435,-4.79712
5.3864,82189.1932,2.60473,-2.81731,-4.36341
5.3999,82189.204,1.08062,-1.05985,-3.55707
5.4076,82189.2142,0.38729,-0.41172,-3.31883
5.4208,82189.2242,-0.1967,-0.10568,-2.96881
5.4272,82189.2342,-0.55344,-0.03543,-2.59434
5.443,82189.2442,-0.94928,0.15455,-2.32984
5.45,82189.2542,-1.30114,0.75503,-2.33228
5.4613,82189.2652,-1.72081,1.68843,-2.43124
5.4692,82189.2751,-1.99875,2.1869,-2.50882
5.4822,82189.2852,-2.37871,2.68353,-2.6536
5.489,82189.2952,-2.6591,3.00912,-2.87779
5.5071,82189.3052,-2.85641,3.31028,-3.22903
5.52,82189.3152,-2.95353,3.62487,-3.58211
5.5216,82189.3252,-3.02562,4.17465,-3.82646
5.5289,82189.3352,-3.07815,4.67129,-3.88022
5.5409,82189.3452,-3.17161,5.10195,-3.58334
5.5487,82189.3552,-3.39702,5.30842,-3.24492
5.5626,82189.3652,-3.77087,5.3469,-3.13557
5.5695,82189.3752,-4.17099,5.30842,-3.2382
5.5826,82189.3852,-4.57843,5.251,-3.53813
5.5896,82189.3952,-4.79041,5.27849,-3.77759
5.6005,82189.4052,-4.99871,5.40188,-4.04515
5.6094,82189.4152,-5.12699,5.51062,-4.24307
5.6204,82189.4252,-5.23023,5.57476,-4.41717
5.6294,82189.4352,-5.32064,5.53138,-4.45015
5.644,82189.4452,-5.42143,5.41532,-4.408
5.6516,82189.4552,-5.46358,5.1893,-4.33775
5.6613,82189.4652,-5.44159,4.8521,-4.28217
5.6703,82189.4752,-5.40127,4.56866,-4.26689
5.6834,82189.4862,-5.38966,4.08119,-4.26384
5.7016,82189.4972,-5.40799,3.52408,-4.23452
5.7049,82189.5072,-5.40555,2.90039,-4.17099
5.7123,82189.5172,-5.39089,2.63222,-4.0818
5.7284,82189.5272,-5.44342,2.64444,-3.99445
5.7317,82189.5372,-5.53444,2.73973,-3.99017
5.7453,82189.5472,-5.74397,3.00485,-4.014
5.7514,82189.5572,-5.91623,3.23392,-3.99506
5.7661,82189.5672,-6.02008,3.26141,-3.93703
5.7718,82189.5772,-6.01641,3.182,-3.97612
5.7846,82189.5872,-5.88141,3.03661,-4.07691
5.7909,82189.5972,-5.66455,2.83503,-4.12762
5.8018,82189.6072,-5.38905,2.53509,-4.12945
5.8101,82189.6172,-5.24733,2.38848,-4.12945
5.8228,82189.6272,-5.1783,2.37138,-4.10501
5.8305,82189.6372,-5.22168,2.50455,-4.10868
5.8434,82189.6472,-5.38172,2.83319,-4.1044
5.8518,82189.6572,-5.62118,3.17283,-4.06164
5.8652,82189.6682,-5.99748,3.58395,-4.06042
5.8792,82189.6782,-6.27908,3.81119,-4.13373
5.8844,82189.6882,-6.57963,3.99078,-4.28644
5.8916,82189.6982,-6.70302,4.27056,-4.43427
5.9049,82189.7082,-6.7525,4.82522,-4.54789
5.9113,82189.7182,-6.7525,5.19907,-4.51246
5.9237,82189.7282,-6.71952,5.5772,-4.37929
5.933,82189.7382,-6.6285,5.66822,-4.15388
5.9437,82189.7482,-6.41653,5.53138,-3.78431
5.9515,82189.7582,-6.04573,5.22045,-3.34754
5.9666,82189.7682,-5.35546,4.70366,-2.7605
5.9714,82189.7782,-4.76108,4.26079,-2.26387
5.9839,82189.7882,-4.04881,3.70856,-1.63773
5.9983,82189.7982,-3.3903,3.09342,-1.00854
6.0062,82189.8082,-2.6872,2.25837,-0.17043
6.0121,82189.8182,-2.2657,1.67866,0.4667
6.0337,82189.8282,-1.79411,1.03786,1.22967
6.0395,82189.8382,-1.46608,0.42211,1.68782
6.0472,82189.8482,-1.12033,-0.75075,2.02319
6.0517,82189.8582,-0.8937,-1.81977,2.16979
6.0659,82189.8682,-0.71227,-2.88695,2.38176
6.0728,82189.8792,-0.53451,-3.73361,2.49477
6.0864,82189.8892,-0.26512,-4.30416,2.55158
6.0926,82189.8992,0.05742,-4.53079,2.63833
6.1103,82189.9092,0.45754,-4.98771,2.86557
6.1198,82189.9192,0.7025,-5.47885,3.13679
6.1286,82189.9292,0.91691,-6.25893,3.57295
6.1337,82189.9392,1.0458,-6.91133,3.84173
6.1451,82189.9492,1.3158,-7.87466,4.15266
6.1593,82189.9591,1.59925,-8.60098,4.38418
6.1827,82189.9692,1.9792,-9.34807,4.61387
6.1846,82189.979,2.36099,-10.08416,4.74764
6.1875,82189.9892,2.52654,-10.25398,4.75925
6.1941,82190.0002,2.54609,-10.14892,4.74215
6.2324,82190.0102,2.23943,-9.56432,4.70672
6.2337,82190.0202,1.72814,-8.67612,4.78552
6.2349,82190.0302,0.61025,-6.78977,4.8466
6.2365,82190.0402,-0.14966,-5.87713,4.84233
6.247,82190.0502,-1.12399,-5.06468,4.84905
6.2562,82190.0602,-1.65483,-4.85638,4.86127
6.2719,82190.0702,-1.86131,-4.95106,4.66212
6.2738,82190.0802,-1.75685,-5.23389,4.12334
6.2854,82190.0901,-1.5125,-5.50756,3.37381
6.2926,82190.1001,-1.20585,-5.60163,2.58518
6.3053,82190.1102,-0.81673,-5.53138,1.76601
6.3158,82190.1202,-0.44715,-5.43975,1.17958
6.3257,82190.1301,-0.03299,-5.48007,0.60964
6.3328,82190.1401,0.26023,-5.65722,0.21869
6.3443,82190.1501,0.58154,-5.9596,-0.16005
6.3527,82190.1601,0.78252,-6.0439,-0.33231
6.366,82190.1701,0.79229,-5.8301,-0.40806
6.3739,82190.1802,0.61758,-5.65967,-0.44166
6.3892,82190.1902,0.34147,-5.74335,-0.36774
6.3958,82190.2012,0.16799,-6.00358,-0.35186
6.4117,82190.2112,0.1576,-6.39026,-0.45387
6.4193,82190.2211,0.29993,-6.74212,-0.58582
6.4313,82190.2311,0.60781,-7.30045,-0.78313
6.435,82190.2411,0.94867,-7.84412,-0.93462
6.4478,82190.2512,1.30847,-8.34503,-1.13254
6.4601,82190.2612,1.49723,-8.58449,-1.32191
6.4693,82190.2711,1.66033,-9.02798,-1.58275
6.4784,82190.2822,1.89857,-9.68649,-1.86986
6.4903,82190.2922,2.26387,-10.32118,-2.19178
6.5003,82190.3022,2.63283,-10.68587,-2.48622
6.5088,82190.3121,3.15634,-11.04933,-2.96025
6.5189,82190.3221,3.62365,-11.20938,-3.43428
6.533,82190.3322,4.08241,-11.0194,-3.97551
6.5352,82190.3422,4.31332,-10.5808,-4.23269
6.5509,82190.3522,4.61875,-9.55088,-4.46665
6.5557,82190.3622,4.85821,-8.18193,-4.3964
6.5695,82190.3721,4.98283,-5.82765,-3.79958
6.5771,82190.3821,4.88692,-4.33531,-3.18811
6.5881,82190.3922,4.47092,-2.52532,-2.56197
6.5957,82190.4022,3.81608,-1.34574,-2.24126
6.6083,82190.4122,2.88512,-0.54978,-2.19362
6.6165,82190.4222,2.0409,-0.26695,-2.27181
6.6301,82190.4332,1.13682,-0.06048,-2.41903
6.637,82190.4432,0.67134,0.04704,-2.45934
6.653,82190.4532,0.19059,0.30055,-2.38726
6.6615,82190.4631,-0.23702,0.57482,-2.33228
6.6741,82190.4731,-0.86315,1.14476,-2.45873
6.6844,82190.4832,-1.42148,1.65728,-2.70552
6.6934,82190.4931,-2.18507,2.48072,-3.1539
6.7033,82190.5032,-2.81059,3.31394,-3.57662
6.7159,82190.5132,-3.37503,3.98528,-3.95963
6.7204,82190.5231,-3.70673,4.40067,-4.22719
6.7301,82190.5331,-4.02866,4.70122,-4.59248
6.7372,82190.5432,-4.25345,4.98038,-4.86554
6.7577,82190.5532,-4.48742,5.40433,-5.06346
6.7596,82190.5641,-4.71405,5.86492,-5.1386
6.7721,82190.5742,-4.99077,6.40614,-5.13493
6.781,82190.5842,-5.26871,6.57047,-5.14715
6.7913,82190.5942,-5.52894,6.32062,-5.18991
6.7994,82190.6042,-5.65661,5.98098,-5.18319
6.8133,82190.6141,-5.70487,5.40433,-5.05491
6.8184,82190.6241,-5.64134,4.87532,-4.82095
6.8313,82190.6342,-5.55032,4.60531,-4.48558
6.8374,82190.6442,-5.49412,4.64196,-4.35242
6.8518,82190.6542,-5.49168,4.85516,-4.31698
6.8578,82190.6642,-5.55399,4.99688,-4.35486
6.8718,82190.6741,-5.5827,4.88631,-4.33959
6.8785,82190.6852,-5.51184,4.60776,-4.27911
6.8905,82190.6951,-5.25955,4.1325,-4.15572
6.8991,82190.7051,-4.89242,3.55707,-4.09035
6.9109,82190.7151,-4.3854,2.88145,-4.13311
6.9191,82190.7252,-4.00056,2.54303,-4.22047
6.931,82190.7352,-3.65236,2.39581,-4.36402
6.9386,82190.7452,-3.57173,2.39276,-4.46115
6.9546,82190.7552,-3.71834,2.32923,-4.45993
6.9593,82190.7651,-3.93703,2.39276,-4.37929
6.9739,82190.7751,-4.26689,2.75378,-4.23513
6.9794,82190.7852,-4.51002,3.20949,-4.10257
6.9937,82190.7952,-4.72626,3.78492,-3.97307
6.9994,82190.8052,-4.90952,4.2675,-3.9358
7.0172,82190.8152,-5.116,4.73176,-3.97857
7.0213,82190.8251,-5.26566,4.98222,-4.06653
7.0397,82190.8351,-5.40982,5.08851,-4.14167
7.0452,82190.8452,-5.4257,4.98283,-4.13128
7.0591,82190.8552,-5.17708,4.75436,-4.07325
7.0611,82190.8652,-4.87409,4.4923,-3.97673
7.0774,82190.8752,-4.56316,4.22535,-3.75865
7.0818,82190.8851,-4.40861,4.12456,-3.62793
7.0906,82190.8951,-4.3964,4.09402,-3.5363
7.1009,82190.9051,-4.46176,4.01094,-3.45566
7.1104,82190.9152,-4.57905,3.96207,-3.30967
7.1184,82190.9252,-4.75559,4.26445,-3.15023
7.1349,82190.9352,-5.05491,4.89181,-2.88084
7.1397,82190.9451,-5.3072,5.22778,-2.70186
7.1511,82190.9551,-5.72931,5.47335,-2.36222
7.1606,82190.9651,-6.06162,5.36706,-1.99386
7.1724,82190.9752,-6.34872,4.77513,-1.49234
7.1798,82190.9852,-6.42508,4.00178,-1.16431
7.1934,82190.9952,-6.38476,3.01157,-0.94501
7.2029,82191.0052,-6.18562,2.21255,-0.8717
7.2128,82191.0151,-5.83254,1.54488,-0.8772
7.2205,82191.0251,-5.51856,1.06657,-0.97311
7.234,82191.0352,-5.25527,0.44899,-1.21073
7.2395,82191.0452,-5.00665,-0.39401,-1.41843
7.252,82191.0552,-4.69267,-1.33841,-1.64139
7.2581,82191.0651,-4.36585,-1.94011,-1.78373
7.271,82191.0751,-3.92481,-2.46545,-1.80816
7.2781,82191.0851,-3.51553,-2.88573,-1.66155
7.2945,82191.0952,-2.88634,-3.37075,-1.39949
7.3002,82191.1052,-2.2712,-3.48987,-1.28831
7.3097,82191.1152,-1.5913,-3.11419,-1.25288
7.3181,82191.1252,-1.11177,-2.62183,-1.20402
7.3317,82191.1351,-0.68539,-1.97004,-1.15026
7.338,82191.1451,-0.54734,-1.49418,-1.1918
7.3528,82191.1551,-0.51129,-1.31519,-1.30298
7.3663,82191.1651,-0.38851,-1.42026,-1.32863
7.3794,82191.1752,0.01833,-1.61391,-1.31336
7.381,82191.1852,0.51985,-1.78861,-1.34207
7.3921,82191.1952,1.27488,-2.04579,-1.36345
7.3985,82191.2051,1.87597,-2.27547,-1.34146
7.4105,82191.2151,2.56991,-2.54853,-1.32375
7.4185,82191.2252,3.30722,-2.78127,-1.25838
7.4306,82191.2352,4.18076,-3.00607,-1.02503
7.4395,82191.2452,4.87715,-3.22781,-0.69089
7.4553,82191.2552,5.44647,-3.1258,-0.40256
7.4607,82191.2662,5.65783,-2.95353,-0.31765
7.4745,82191.2761,5.70609,-2.74706,-0.21441
7.4806,82191.2861,5.70548,-2.4398,-0.03604
7.4936,82191.2961,5.62485,-1.92728,0.19364
7.5004,82191.3062,5.45564,-1.39827,0.42333
7.5165,82191.3162,5.27055,-0.80695,0.57605
7.5221,82191.3262,5.23817,-0.37751,0.62614
7.5346,82191.3362,5.31453,-0.16066,0.65363
7.5408,82191.3461,5.38661,-0.15272,0.66279
7.5558,82191.3561,5.50512,-0.16249,0.7086
7.5619,82191.3672,5.59491,-0.25473,0.81612
7.5751,82191.3771,5.656,-0.4331,1.01281
7.5818,82191.3871,5.76474,-0.71716,1.30603
7.602,82191.3981,5.926,-1.17592,1.82588
7.6178,82191.4081,6.07444,-1.5913,2.22233
7.6189,82191.4182,6.23327,-2.069,2.60473
7.6248,82191.4282,6.38782,-2.65604,2.8277
7.6345,82191.4382,6.53931,-3.51003,2.99202
7.6414,82191.4482,6.61995,-4.04759,2.97491
7.6533,82191.4581,6.72624,-4.70488,2.92482
7.6615,82191.4681,6.81726,-5.4031,2.89978
7.6789,82191.4781,6.97119,-6.19723,2.96147
7.6873,82191.4882,7.09764,-6.57596,3.06349
7.7002,82191.4982,7.22531,-6.87529,3.19421
7.7048,82191.5092,7.30778,-7.08665,3.28645
7.716,82191.5201,7.39452,-7.23081,3.31089
7.7245,82191.5312,7.54724,-7.32855,3.17894
7.7381,82191.5411,7.7531,-7.13124,3.00912
7.7446,82191.5511,7.72622,-6.64194,2.94009
7.7593,82191.5612,7.47699,-5.8753,2.89794
7.7652,82191.5712,7.19111,-5.50573,2.94559
7.7773,82191.5812,6.80076,-5.04086,3.06471
7.7849,82191.5912,6.39881,-4.70549,3.13374
7.7975,82191.6011,5.96876,-4.54178,3.08182
7.805,82191.6111,5.67433,-4.55461,3.07021
7.8207,82191.6212,5.49595,-4.51918,3.21621
7.8348,82191.6312,5.47396,-4.53506,3.37808
7.8402,82191.6412,5.58209,-4.69633,3.5363
7.8577,82191.6512,5.77084,-4.95473,3.51003
7.865,82191.6622,6.05795,-5.39089,3.35976
7.8757,82191.6722,6.24426,-5.73969,3.26507
7.8877,82191.6821,6.42264,-6.09216,3.13252
7.8912,82191.6921,6.50999,-6.18073,3.07021
7.9031,82191.7021,6.488,-5.95716,2.98224
7.9189,82191.7122,6.35483,-5.56743,2.83197
7.9208,82191.7222,6.00175,-4.94007,2.51005
7.9287,82191.7322,5.49595,-4.27667,2.06839
7.9436,82191.7422,4.73115,-3.41718,1.34513
7.9491,82191.7521,4.08608,-2.75683,0.88637
7.964,82191.7621,3.24186,-1.82099,0.2248
7.9688,82191.7731,2.37321,-0.55772,-0.31215
7.9784,82191.7831,1.54915,0.71593,-0.74403
7.9878,82191.7932,0.74281,1.75807,-1.07085
8.005,82191.8032,-0.04643,2.62855,-1.54793
8.0114,82191.8132,-0.40623,3.14046,-1.87291
8.021,82191.823,-0.6579,3.66397,-2.25287
8.032,82191.8331,-0.83139,4.12639,-2.54425
8.0384,82191.8431,-1.03053,4.49963,-2.88939
8.0465,82191.8531,-1.24555,4.6664,-3.12885
8.0586,82191.8632,-1.53938,4.76658,-3.37259
8.0692,82191.8732,-1.80511,4.91136,-3.56623
8.0789,82191.8832,-2.26509,5.3469,-3.85822
8.0894,82191.8942,-2.67926,5.73786,-4.12517
8.0998,82191.9042,-3.09587,5.94922,-4.3964
8.1096,82191.9142,-3.30295,5.92112,-4.53567
8.1219,82191.9241,-3.35793,5.58575,-4.56622
8.1285,82191.9341,-3.28401,5.17953,-4.5033
8.1393,82191.9442,-3.18872,4.51124,-4.4807
8.1491,82191.9542,-3.16367,4.00056,-4.53751
8.1644,82191.9642,-3.23575,3.49476,-4.61814
8.1671,82191.9742,-3.36159,3.27057,-4.65052
8.1793,82191.9841,-3.54852,3.07204,-4.65174
8.1878,82191.9941,-3.67985,2.92116,-4.65052
8.2016,82192.0041,-3.7892,2.60717,-4.65235
8.208,82192.0142,-3.83929,2.27792,-4.66762
8.2221,82192.0242,-3.98162,1.95843,-4.70549
8.2268,82192.0342,-4.15572,1.78556,-4.6774
8.2384,82192.0442,-4.37196,1.61391,-4.55278
8.2468,82192.0541,-4.4752,1.40988,-4.46054
8.26,82192.0641,-4.49658,1.09162,-4.44649
8.2674,82192.0742,-4.44832,0.95478,-4.49841
8.2804,82192.0842,-4.38968,0.93768,-4.53018
8.29,82192.0942,-4.39701,0.9896,-4.54117
8.3017,82192.1042,-4.43305,1.113,-4.56744
8.3075,82192.1141,-4.43427,1.24311,-4.56622
8.3251,82192.1241,-4.35303,1.29626,-4.47703
8.3316,82192.1342,-4.21069,1.29076,-4.32615
8.3417,82192.1451,-3.94375,1.12582,-4.01705
8.3484,82192.1551,-3.80447,0.92729,-3.87227
8.3605,82192.1652,-3.70245,0.63591,-3.80325
8.3684,82192.1752,-3.66336,0.42516,-3.83135
8.3864,82192.1852,-3.65725,0.1069,-3.93214
8.3998,82192.1952,-3.69146,-0.18937,-4.04515
8.4101,82192.2062,-3.7666,-0.39279,-4.10746
8.4117,82192.2162,-3.83257,-0.36285,-4.06409
8.4214,82192.2261,-3.93947,-0.20708,-3.91504
8.43,82192.2361,-4.05248,-0.06048,-3.71162
8.4419,82192.2462,-4.19787,0.10324,-3.46544
8.4497,82192.2562,-4.32554,0.2645,-3.27424
8.4614,82192.2662,-4.48619,0.4777,-3.05494
8.4706,82192.2762,-4.64013,0.76297,-2.87962
8.4999,82192.2872,-4.85577,1.24067,-2.67926
8.5113,82192.2972,-5.04453,1.67927,-2.53204
8.5136,82192.3082,-5.48557,2.42147,-2.37199
8.5202,82192.3182,-5.95716,3.05066,-2.32068
8.5274,82192.3282,-6.50022,3.76782,-2.20706
8.5343,82192.3381,-6.88934,4.18809,-2.07267
8.5469,82192.3481,-7.35115,4.49536,-1.8552
8.5524,82192.3582,-7.62604,4.56927,-1.77579
8.5662,82192.3682,-7.84412,4.35913,-1.86375
8.5712,82192.3782,-7.78303,3.77515,-1.9902
8.5853,82192.3882,-7.2754,2.47278,-1.93828
8.5911,82192.3981,-6.70364,1.61696,-1.80816
8.6051,82192.4081,-5.80017,0.71532,-1.69026
8.6191,82192.4182,-5.03658,-0.12278,-1.61024
8.6252,82192.4282,-3.99078,-1.4508,-1.36773
8.6323,82192.4382,-3.26874,-2.11176,-1.02686
8.6544,82192.4482,-2.43796,-2.58396,-0.41783
8.6668,82192.4581,-1.91567,-2.59068,0.11057
8.668,82192.4681,-1.68477,-2.38054,0.52534
8.6764,82192.4781,-1.61635,-2.37077,0.88331
8.6887,82192.4882,-1.50517,-2.45812,1.35979
8.6939,82192.4982,-1.26693,-2.56136,1.89368
8.7031,82192.5082,-0.93279,-2.59557,2.24615
8.7128,82192.5182,-0.6127,-2.22783,2.2376
8.7283,82192.5281,-0.12156,-1.80205,2.0971
8.7347,82192.5392,0.39462,-2.03235,1.82099
8.7501,82192.5491,0.7984,-2.32984,1.40377
8.7557,82192.5591,1.12155,-2.55158,1.0403
8.7636,82192.5692,1.36895,-2.82831,0.87598
8.7725,82192.5792,1.46241,-3.24064,0.9163
8.7889,82192.5892,1.4728,-4.08974,1.09284
8.792,82192.5992,1.46424,-5.07568,1.26388
8.8081,82192.6091,1.56443,-6.75861,1.4673
8.8123,82192.6191,1.85398,-8.52951,1.61085
8.8241,82192.629,2.34878,-10.345,1.6866
8.8351,82192.6392,2.91994,-12.05481,1.63284
8.844,82192.6492,3.47033,-13.36084,1.43492
8.8564,82192.6592,3.868,-13.87764,1.29565
8.8647,82192.6692,4.12701,-13.83304,1.27488
8.8735,82192.6791,4.21131,-13.42315,1.45203
8.8888,82192.6891,4.14655,-12.29733,1.91262
8.8922,82192.6992,3.9187,-10.99557,2.41047
8.9072,82192.7092,3.46422,-9.44337,2.90466
8.9131,82192.7192,3.01095,-8.18132,3.06288
8.9308,82192.7292,2.58824,-6.94309,3.05433
8.9332,82192.7391,2.4117,-6.15935,2.95048
8.945,82192.7491,2.46973,-5.48252,2.57968
8.9521,82192.7592,2.75806,-5.41593,2.215
8.9686,82192.7692,3.37564,-5.77207,1.71164
8.9762,82192.7801,4.11723,-6.42264,1.30664
8.9866,82192.7902,5.25894,-7.58389,0.92118
8.9932,82192.8002,6.14042,-8.32976,0.79351
9.0159,82192.8102,7.10375,-8.82578,0.85032
9.0181,82192.8201,7.94186,-8.95712,1.02625
9.0295,82192.8301,8.54417,-8.3206,1.40682
9.0383,82192.8401,8.57044,-7.35909,1.68171
9.0501,82192.8511,8.12145,-5.92784,1.9114
9.0577,82192.8611,7.36581,-4.78124,2.00119
9.0692,82192.8712,6.23266,-3.63892,2.12887
9.0765,82192.8812,5.52833,-2.91994,2.23027
9.0869,82192.8912,4.92174,-2.23393,2.22172
9.0945,82192.9012,4.75864,-1.68477,2.10687
9.1105,82192.9111,4.7733,-0.91996,1.90346
9.1163,82192.9211,4.83194,-0.15699,1.83993
9.1303,82192.9322,4.835,1.19241,1.91079
9.1369,82192.9421,4.67129,2.43491,1.96515
9.1654,82192.9521,4.28217,3.25164,1.90956
9.1746,82192.962,3.99384,3.11419,1.59863
9.1761,82192.9722,3.86006,2.46484,1.11544
9.1789,82192.9821,3.9187,1.69576,0.6353
9.2014,82192.9922,4.11357,0.74403,-0.05742
9.2043,82193.002,4.20886,0.11545,-0.75259
9.2096,82193.0121,4.0702,-0.23091,-1.59314
9.2249,82193.0222,3.76782,-0.19242,-2.26203
9.2277,82193.0322,3.15084,0.18509,-3.04761
9.236,82193.0422,2.39154,0.75014,-3.59067
9.2492,82193.0522,1.4563,1.61085,-4.12273
9.2567,82193.0621,0.76358,2.42269,-4.55034
9.2686,82193.0721,-0.05131,3.61571,-5.10439
9.2772,82193.0822,-0.48319,4.17404,-5.28704
9.2895,82193.0922,-0.85094,4.41167,-5.31086
9.296,82193.1031,-1.04091,4.18809,-5.27482
9.3079,82193.1131,-1.14782,3.47277,-5.30536
9.3168,82193.1232,-1.10506,2.66826,-5.4367
9.3276,82193.1331,-0.97494,1.97065,-5.64867
9.3389,82193.1432,-0.8772,1.64628,-5.81727
9.348,82193.1531,-0.83505,1.39277,-5.88569
9.3562,82193.1631,-0.8491,1.27671,-5.88813
9.3687,82193.1732,-0.89186,1.0061,-5.89363
9.378,82193.1832,-0.89736,0.80146,-5.88996
9.3921,82193.1932,-0.88026,0.62369,-5.87347
9.3973,82193.2032,-0.83811,0.50335,-5.81238
9.4128,82193.2131,-0.77091,0.44288,-5.66272
9.4199,82193.2231,-0.75075,0.37202,-5.5772
9.4297,82193.2332,-0.78618,0.21075,-5.57353
9.4413,82193.2432,-0.85704,-0.01038,-5.65722
9.4509,82193.2532,-0.98288,-0.35247,-5.81055
9.4568,82193.2632,-1.08734,-0.66401,-5.97854
9.4707,82193.2731,-1.18019,-0.8546,-6.1789
9.4766,82193.2831,-1.25227,-0.85949,-6.342
9.489,82193.2932,-1.42881,-0.73487,-6.5442
9.4982,82193.3032,-1.66827,-0.57544,-6.66271
9.5132,82193.3132,-2.00058,-0.38668,-6.64255
9.5226,82193.3232,-2.18751,-0.25595,-6.55092
9.5284,82193.3331,-2.42941,0.06536,-6.37499
9.5362,82193.3431,-2.57846,0.35247,-6.31207
9.5537,82193.3531,-2.72446,0.58643,-6.24549
9.5578,82193.3631,-2.7996,0.61392,-6.18012
9.5708,82193.3732,-2.83075,0.49602,-6.1001
9.5793,82193.3832,-2.80387,0.35491,-6.07322
9.5886,82193.3931,-2.73607,0.26267,-6.06284
9.5964,82193.4031,-2.66215,0.30055,-6.03718
9.6102,82193.4131,-2.6481,0.56139,-6.00175
9.6203,82193.4232,-2.69514,1.10078,-5.94922
9.6331,82193.4332,-2.56319,2.21805,-5.83254
9.6388,82193.4432,-2.51432,2.82892,-5.64073
9.6518,82193.4532,-2.63894,3.20582,-5.39822
9.6564,82193.4631,-2.92543,3.32005,-5.26688
9.6724,82193.4731,-3.55462,3.4294,-5.13493
9.6767,82193.4832,-3.96268,3.64381,-4.92357
9.6918,82193.4932,-4.35058,4.20153,-4.49414
9.7021,82193.5032,-4.45809,4.59859,-3.89854
9.7121,82193.5132,-4.3799,4.92602,-2.94681
9.7252,82193.5231,-4.24002,4.94984,-2.30602
9.7304,82193.5331,-4.01827,4.89059,-1.54732
9.7401,82193.5432,-3.88388,4.83866,-1.21073
9.7487,82193.5532,-3.68535,4.91685,-0.85949
9.7564,82193.5632,-3.54424,4.97794,-0.32376
9.7705,82193.5732,-3.50514,4.90219,0.47403
9.789,82193.5842,-3.51858,4.78979,0.97372
9.7921,82193.5942,-3.30845,4.31149,1.59253
9.7985,82193.6042,-2.64566,3.63037,2.09405
9.8116,82193.6141,-1.43676,2.95537,2.33595
9.8246,82193.6241,-0.32376,2.48805,2.03785
9.8406,82193.6342,0.60476,1.85947,1.45264
9.8426,82193.6442,1.19974,1.67744,0.94867
9.8539,82193.6542,1.26144,2.08183,0.61942
9.8618,82193.6642,0.81123,2.68048,0.40317
9.8769,82193.6741,0.26756,3.2663,0.16982
9.8797,82193.6841,-0.03054,3.70551,-0.05498
9.8953,82193.6942,-0.07147,3.88144,-0.26389
9.8995,82193.7051,0.10812,3.67924,-0.3427
9.9112,82193.7151,0.39889,3.35732,-0.23579
9.9199,82193.7252,0.70983,2.87046,0.02932
9.9347,82193.735,1.02686,2.3274,0.4331
9.9387,82193.7452,1.20524,2.11665,0.79168
9.9505,82193.7552,1.18019,2.19362,1.08856
9.9637,82193.7651,1.02198,2.21378,1.25899
9.9745,82193.7751,0.88575,2.38543,1.51372
9.9782,82193.7852,0.89003,2.79776,1.74097
9.99,82193.7952,0.90164,3.2498,1.98592
9.9982,82193.8052,0.95845,3.306,2.07755
10.0102,82193.8152,1.12338,3.16001,2.06595
10.0189,82193.8251,1.27671,2.74767,1.9395
10.0311,82193.8351,1.38972,2.1759,1.73241
10.0409,82193.8452,1.36406,1.75807,1.65483
10.05,82193.8552,1.11911,1.00182,1.57298
10.0602,82193.8652,0.81795,0.41417,1.64201
10.0705,82193.8752,0.52229,-0.15333,1.82343
10.0781,82193.8851,0.34758,-0.49114,2.00975
10.0935,82193.8951,0.1857,-0.86254,2.3109
10.1001,82193.9051,0.07025,-1.26449,2.65543
10.1163,82193.9152,-0.08491,-1.76784,3.18688
10.1252,82193.9261,-0.33475,-2.26814,3.78981
10.1321,82193.9362,-0.78985,-2.66887,4.47948
10.1398,82193.9462,-1.18569,-3.18016,4.86004
10.1541,82193.9562,-1.0684,-3.73605,5.09462
10.1844,82193.9662,-0.60903,-3.69696,5.05369
10.1894,82193.9761,-0.27306,-3.43978,4.68045
10.1923,82193.9861,-0.14111,-3.13924,4.11173
10.1942,82193.9962,-0.13439,-2.62611,3.50759
10.2063,82194.0062,-0.14355,-2.08183,3.14168
10.2133,82194.0162,-0.11118,-1.52594,2.88206
10.2264,82194.0262,-0.08369,-0.97677,2.75989
10.2343,82194.0361,-0.24923,-0.56383,2.84663
10.2444,82194.0461,-0.60476,-0.56261,3.31211
10.2548,82194.0562,-1.0739,-0.85399,4.16732
10.2594,82194.0662,-1.41537,-1.41782,4.90769
10.2806,82194.0762,-1.74097,-2.56563,5.8136
10.2813,82194.0862,-1.84115,-3.71834,6.50449
10.2912,82194.0961,-1.72508,-4.73665,7.12025
10.3032,82194.1061,-1.58336,-5.11294,7.46844
10.3109,82194.1161,-1.36651,-5.09401,7.79036
10.3187,82194.1262,-1.21868,-4.62608,7.93453
10.3315,82194.1362,-1.17714,-3.71589,7.94552
10.3387,82194.1462,-1.29992,-2.89611,7.91193
10.3511,82194.1561,-1.50456,-1.75685,7.97301
10.3587,82194.1661,-1.78739,-0.88331,8.14345
10.3711,82194.1761,-2.20645,-0.36774,8.26989
10.3809,82194.1861,-2.45812,-0.43371,8.24302
10.3911,82194.1962,-2.65971,-0.75259,8.17093
10.3993,82194.2062,-2.79776,-1.17714,8.12451
10.412,82194.2162,-2.90894,-1.59802,8.07258
10.4191,82194.2261,-2.97308,-1.91751,8.04998
10.4348,82194.2361,-2.96697,-2.28219,7.97424
10.4398,82194.2461,-2.95414,-2.50149,7.83679
10.4581,82194.2561,-2.94926,-2.51921,7.65109
10.4629,82194.2662,-2.98347,-2.38726,7.54907
10.4732,82194.2761,-3.06532,-2.21805,7.52158
10.4823,82194.2861,-3.15329,-2.08794,7.53014
10.492,82194.2961,-3.28035,-2.1026,7.49715
10.5039,82194.3061,-3.37564,-2.39276,7.3878
10.5218,82194.3161,-3.45689,-2.73545,7.01334
10.5232,82194.3262,-3.57601,-2.98835,6.60712
10.5364,82194.3361,-3.79225,-3.56379,6.12698
10.5444,82194.3461,-3.88938,-4.04881,5.71953
10.5523,82194.3561,-3.79836,-4.45748,5.20702
10.5594,82194.3661,-3.68718,-4.63891,4.82095
10.5762,82194.3761,-3.5363,-4.90586,4.32737
10.5796,82194.3862,-3.30906,-5.25222,3.77698
10.5976,82194.3962,-2.95292,-5.37439,3.08915
10.6039,82194.4061,-2.80754,-5.22107,2.65543
10.6152,82194.4161,-2.8729,-4.88081,2.23149
10.6251,82194.4261,-3.07448,-4.58699,1.98043
10.6381,82194.4361,-3.38908,-4.22719,1.68904
10.6412,82194.4462,-3.66641,-3.89671,1.46424
10.6566,82194.4562,-4.02805,-3.58272,1.18264
10.6606,82194.4662,-4.33226,-3.32127,1.02381
10.6787,82194.4761,-4.74642,-2.97064,0.77152
10.6814,82194.4861,-5.11844,-2.63405,0.52107
10.6919,82194.4961,-5.49351,-2.23821,0.17959
10.6999,82194.5062,-5.74641,-2.08183,-0.10263
10.7136,82194.5162,-5.93272,-2.33473,-0.53512
10.7194,82194.5262,-5.90462,-2.88939,-1.0458
10.7336,82194.5361,-5.63218,-3.49415,-1.60963
10.7412,82194.5472,-5.34507,-3.64015,-1.86864
10.7561,82194.5571,-5.16548,-3.47888,-1.93766
10.7622,82194.5671,-5.23206,-3.07265,-1.85275
10.7725,82194.5771,-5.52772,-2.59923,-1.72569
10.7803,82194.5871,-5.86064,-2.27303,-1.653
10.7939,82194.5972,-6.29741,-2.01341,-1.5461
10.8003,82194.6072,-6.37682,-1.97981,-1.52411
10.8125,82194.6172,-6.20578,-2.16674,-1.64873
10.8269,82194.6271,-5.85392,-2.47462,-1.89246
10.8327,82194.6371,-5.40799,-2.71285,-2.20217
10.8405,82194.6471,-4.91136,-2.92604,-2.45812
10.8536,82194.6572,-4.38601,-2.98102,-2.62489
10.8605,82194.6672,-3.9804,-2.94254,-2.68842
10.8738,82194.6772,-3.67435,-2.78555,-2.69514
10.8811,82194.6871,-3.54791,-2.52348,-2.64505
10.9051,82194.6971,-3.47277,-1.97187,-2.44652
10.9099,82194.7071,-3.50087,-1.33474,-2.11359
10.9147,82194.7171,-3.70612,-0.61087,-1.55648
10.9246,82194.7272,-4.00789,-0.07269,-1.13987
10.9344,82194.7372,-4.48558,0.56077,-0.71838
10.943,82194.7471,-4.92113,0.85643,-0.40012
10.9548,82194.7571,-5.39089,1.15942,-0.08552
10.9603,82194.7671,-5.74274,1.69026,0.16921
10.9748,82194.7771,-6.18379,2.59618,0.45387
10.9805,82194.7872,-6.33956,3.18994,0.57605
10.9925,82194.7972,-6.17646,4.03904,0.65973
11.004,82194.8071,-5.75618,4.55156,0.68722
11.0139,82194.8171,-5.31758,5.03658,0.77213
11.0215,82194.8271,-4.94801,5.34263,0.97555
11.0325,82194.8371,-4.72199,5.31575,1.23578
11.0405,82194.8472,-4.6383,4.83317,1.45447
11.056,82194.8572,-4.59371,4.14594,1.67438
11.0604,82194.8672,-4.60837,3.80508,1.9059
11.0729,82194.8771,-4.79896,4.33348,2.23638
11.0803,82194.8871,-5.23573,5.34874,2.35733
11.0935,82194.8971,-5.8753,6.3646,2.23088
11.1007,82194.9072,-6.16058,6.75861,1.99325
11.114,82194.9172,-5.84354,6.85452,1.55099
11.1208,82194.9272,-5.27727,6.75678,1.21684
11.133,82194.9371,-4.60409,6.40492,0.8546
11.1412,82194.9471,-4.24124,6.05917,0.67012
11.1545,82194.9571,-3.88632,5.73297,0.55222
11.1623,82194.9671,-3.69207,5.70976,0.57788
11.1757,82194.9772,-3.54424,6.11659,0.76908
11.2029,82194.9872,-3.51675,6.40737,0.96517
11.2107,82194.9969,-3.16062,6.9999,1.56443
11.2116,82195.0069,-3.12824,7.02739,1.59741
11.2351,82195.017,-2.89367,7.21737,1.77212
11.2388,82195.027,-2.66398,7.3933,1.79594
11.2412,82195.0381,-2.59312,7.45928,1.62673
11.2425,82195.0481,-2.6255,7.56312,1.21073
11.254,82195.0582,-2.86557,7.76593,0.70311
11.2606,82195.0682,-3.2553,8.01577,0.41356
11.2746,82195.0782,-3.76843,8.46415,0.39584
11.2807,82195.0881,-4.05187,8.77508,0.61453
11.2922,82195.0981,-4.17649,9.19535,1.07268
11.3013,82195.1081,-4.16305,9.68099,1.5516
11.3122,82195.1181,-4.14839,10.09943,1.93828
11.3207,82195.1282,-4.07936,10.21367,2.08183
11.3338,82195.1382,-3.75621,9.88441,1.93828
11.3407,82195.1481,-3.2553,9.47024,1.57603
11.3522,82195.1581,-2.33717,8.83861,1.03358
11.3607,82195.1681,-1.24861,8.11535,0.71105
11.3729,82195.1781,-0.22297,7.3255,0.47892
11.3824,82195.1882,0.23885,6.63461,0.39095
11.3965,82195.1982,0.27611,5.80872,0.42638
11.4025,82195.2081,0.14233,5.29498,0.54795
11.416,82195.2181,-0.12828,4.38174,0.85827
11.4237,82195.2292,-0.36041,3.22354,1.20096
11.4366,82195.2391,-0.41905,2.16613,1.50273
11.4434,82195.2491,-0.2645,1.30603,1.76845
11.4568,82195.2591,0.03787,0.65912,2.17407
11.4636,82195.2691,0.23579,0.25412,2.53876
11.4769,82195.2792,0.36835,-0.16005,2.75195
11.4847,82195.2901,0.55589,-0.60109,2.67742
11.5038,82195.3011,0.77946,-0.93035,2.36771
11.5082,82195.3111,0.65668,-0.95723,2.22721
11.5253,82195.3212,0.03421,-0.93462,2.31151
11.5418,82195.3312,-0.47892,-0.92974,2.47584
11.5466,82195.3412,-1.22234,-1.09101,2.94009
11.5494,82195.3511,-1.82527,-1.42942,3.6096
11.5567,82195.3611,-2.47828,-2.03785,4.50024
11.5644,82195.3711,-2.92788,-3.0134,5.05491
11.5769,82195.3812,-3.20277,-4.59737,5.44892
11.5844,82195.3912,-2.97675,-6.06711,5.56498
11.5967,82195.4012,-2.44468,-7.04083,5.5546
11.6048,82195.4111,-2.14597,-7.05977,5.4648
11.6175,82195.4211,-2.14414,-6.30474,5.26688
11.6263,82195.4311,-2.35061,-5.64195,5.15204
11.6397,82195.4411,-2.55281,-4.81606,5.16181
11.6474,82195.4521,-2.50577,-4.12212,5.32125
11.6598,82195.4621,-2.36344,-3.25225,5.44403
11.6678,82195.4731,-2.30235,-2.31884,5.50206
11.6816,82195.4841,-2.34267,-1.52777,5.56926
11.6888,82195.4941,-2.48072,-1.07696,5.63401
11.7045,82195.5052,-2.73484,-0.77091,5.80566
11.7097,82195.5151,-2.88267,-0.84666,6.01214
11.7248,82195.5262,-2.94804,-1.43859,6.14164
11.7319,82195.5372,-2.71896,-1.98165,6.05917
11.7459,82195.5481,-2.23088,-2.51432,5.78428
11.7538,82195.5591,-1.56992,-2.88756,5.42082
11.7722,82195.5701,-0.79962,-2.97797,5.07812
11.7774,82195.5801,-0.16188,-2.80204,4.92296
11.7933,82195.5901,0.27245,-2.49111,4.83989
11.8071,82195.6001,0.29688,-2.23699,4.77941
11.8095,82195.6111,0.0843,-1.90834,4.62486
11.819,82195.6211,-0.19853,-1.5235,4.43671
11.8293,82195.6312,-0.54184,-1.11727,4.25284
11.8368,82195.6412,-0.86254,-0.82528,4.12212
11.8466,82195.6512,-1.16859,-0.63286,4.02072
11.8544,82195.6611,-1.34635,-0.60964,3.9413
11.8692,82195.6711,-1.47341,-0.65485,3.81608
11.8746,82195.6811,-1.49173,-0.70311,3.77331
11.8929,82195.6911,-1.46913,-0.821,3.75316
11.8975,82195.7012,-1.3604,-0.89186,3.6487
11.9129,82195.7112,-1.02564,-0.88209,3.35609
11.9172,82195.7211,-0.73976,-0.85032,3.01951
11.928,82195.7311,-0.32803,-0.81489,2.40803
11.9352,82195.7411,0.02871,-0.77763,1.79472
11.9482,82195.7511,0.48258,-0.70494,1.15209
11.9573,82195.7621,0.84116,-0.65851,0.35797
11.9695,82195.7721,1.11239,-0.68906,-0.49663
11.9785,82195.7831,1.31092,-0.69516,-1.2816
11.9908,82195.7931,1.46669,-0.61514,-2.19973
11.9987,82195.8041,1.52167,-0.44349,-3.06654
12.0126,82195.8152,1.42087,-0.27672,-3.77637
12.0199,82195.8251,1.16064,-0.23824,-4.30843
12.0382,82195.8351,0.78007,-0.28772,-4.86737
12.0485,82195.8451,0.49908,-0.39034,-5.37622
12.0544,82195.8551,0.31215,-0.58704,-5.89057
12.0617,82195.8652,0.21502,-0.88514,-6.39454
12.0714,82195.8752,0.14416,-1.32313,-6.94126
12.0783,82195.8851,0.13867,-1.58886,-7.32733
12.0905,82195.8951,0.1576,-1.61391,-7.56496
12.0994,82195.9051,0.16188,-1.41293,-7.69629
12.1119,82195.9151,0.10873,-1.08062,-7.736
12.1194,82195.9252,0.0281,-0.88698,-7.61688
12.1321,82195.9352,-0.07636,-0.832,-7.309
12.1394,82195.9451,-0.16249,-0.84299,-7.05122
12.1521,82195.9551,-0.27245,-0.88698,-6.8588
12.1602,82195.9651,-0.40928,-0.95295,-6.893
12.174,82195.9751,-0.65179,-1.17897,-7.11658
12.1793,82195.9852,-0.88881,-1.51678,-7.30045
12.1935,82195.9952,-1.12521,-1.95966,-7.37192
12.1996,82196.0052,-1.17714,-2.215,-7.22959
12.2187,82196.0151,-1.07268,-2.09344,-6.86918
12.22,82196.0251,-0.97066,-1.79106,-6.52404
12.2323,82196.0351,-0.8265,-1.20035,-6.12637
12.2429,82196.0452,-0.76603,-0.52657,-5.79467
12.2549,82196.0552,-0.79535,0.14905,-5.61691
12.2599,82196.0652,-0.88392,0.49663,-5.68838
12.2711,82196.0751,-0.94684,0.47098,-5.88385
12.2777,82196.0851,-0.8882,0.16066,-6.00236
12.2908,82196.0951,-0.63652,-0.19609,-5.95594
12.2977,82196.1051,-0.38729,-0.28955,-5.71892
12.3104,82196.1152,-0.26817,-0.32987,-5.42937
12.3249,82196.1252,-0.36285,-0.46365,-5.25711
12.3301,82196.1351,-0.67501,-0.6915,-5.17036
12.3382,82196.1451,-0.98655,-0.81612,-5.20152
12.3511,82196.1551,-1.2034,-0.81123,-5.24367
12.3582,82196.1651,-1.18264,-0.78069,-5.13921
12.3703,82196.1752,-1.06596,-0.63897,-4.99443
12.3814,82196.1852,-1.09467,-0.18387,-4.75864
12.3954,82196.1952,-1.28465,0.51557,-4.23452
12.4049,82196.2051,-1.53388,1.02137,-3.69512
12.4107,82196.2151,-2.14047,1.77456,-3.05494
12.4205,82196.2251,-2.81365,2.49111,-2.59984
12.4311,82196.2352,-3.42268,3.04333,-2.16491
12.4428,82196.2452,-3.75865,3.24919,-1.76051
12.4514,82196.2552,-3.93642,3.37137,-1.27793
12.4582,82196.2651,-3.95535,3.58944,-0.83811
12.4744,82196.2751,-3.9413,4.05431,-0.18204
12.4785,82196.2851,-3.97001,4.31882,0.35675
12.4955,82196.2952,-4.0421,4.37074,0.92729
12.5026,82196.3061,-4.0763,4.13739,1.38605
12.5144,82196.3161,-3.89243,3.26507,1.55893
12.5213,82196.326,-3.44772,2.36283,1.67744
12.5308,82196.3362,-2.3952,1.32375,1.97859
12.5409,82196.3461,-1.53266,0.66462,2.20156
12.5524,82196.3561,-0.53878,0.11545,2.38726
12.559,82196.3661,-0.00733,-0.01283,2.44529
12.5708,82196.3761,-0.03848,0.32376,2.46851
12.5791,82196.3862,-0.50091,0.76175,2.46851
12.5922,82196.3962,-1.43798,1.46241,2.3219
12.5991,82196.4061,-2.16124,1.9114,1.88696
12.6114,82196.4161,-2.41964,2.87595,1.31153
12.6191,82196.4261,-2.19056,3.81424,0.94379
12.6356,82196.4361,-1.63956,4.8857,0.65179
12.6403,82196.4462,-1.16553,5.53688,0.54306
12.6571,82196.4562,-0.70983,6.09094,0.71716
12.6613,82196.4662,-0.46365,6.16913,1.06596
12.6773,82196.4761,-0.06414,5.85637,1.58031
12.6811,82196.4861,0.28222,5.47641,2.05373
12.6914,82196.4961,0.63713,4.76719,2.43369
12.6993,82196.5062,0.93646,3.96696,2.67437
12.7134,82196.5162,1.17958,3.4294,2.76783
12.7215,82196.5262,1.26877,3.36403,2.74217
12.7319,82196.537,1.02076,3.69635,2.82586
12.7429,82196.5472,0.60964,4.0702,2.90344
12.7522,82196.5571,0.2981,4.40006,2.86313
12.7649,82196.5671,0.31643,4.5595,2.91444
12.7732,82196.5771,0.58154,4.51735,2.98163
12.7802,82196.5871,0.92546,4.13495,2.93276
12.7939,82196.5972,1.32069,3.54058,2.88267
12.8004,82196.6072,1.35856,3.20765,2.93399
12.8236,82196.6172,1.07512,2.69025,3.02928
12.8288,82196.6282,0.82467,2.42086,3.03172
12.8365,82196.6391,0.82406,2.33595,2.79898
12.8471,82196.6501,0.78985,2.44896,2.36588
12.8566,82196.6601,0.68845,2.31335,1.93461
12.8633,82196.6702,0.68783,1.98531,1.64139
12.876,82196.6802,0.8717,1.52716,1.24678
12.883,82196.6902,1.09284,1.13071,0.85094
12.8947,82196.7001,1.25594,0.79107,0.40256
12.9035,82196.7101,1.19852,0.57788,0.13073
12.9149,82196.7201,0.91202,0.24557,-0.12889
12.9244,82196.7302,0.57971,-0.07575,-0.20281
12.9349,82196.7402,0.20769,-0.37996,-0.18937
12.9431,82196.7502,-0.1014,-0.57971,-0.18937
12.9559,82196.7601,-0.31582,-0.81551,-0.20708
12.9642,82196.7701,-0.48075,-0.87476,-0.2248
12.9763,82196.7801,-0.70066,-0.94745,-0.18387
12.9836,82196.7901,-0.92118,-1.10017,-0.08919
12.9999,82196.8002,-1.03908,-1.34513,0.02199
13.0039,82196.8102,-1.03236,-1.79106,0.05315
13.0162,82196.8201,-0.98471,-2.44896,-0.00977
13.0291,82196.8301,-0.9615,-3.0812,-0.09163
13.0377,82196.8401,-0.94073,-3.93153,-0.23702
13.0437,82196.8501,-0.89797,-4.66945,-0.4612
13.0571,82196.8602,-0.77397,-5.63645,-0.83261
13.0632,82196.8702,-0.73487,-6.05856,-1.00182
13.0786,82196.8802,-0.8265,-6.35544,-1.08734
13.0874,82196.8901,-0.96822,-6.67492,-1.12582
13.0995,82196.9001,-1.12705,-7.23264,-1.18997
13.1061,82196.9101,-1.17714,-7.82763,-1.21868
13.1161,82196.9202,-1.19302,-8.55639,-1.18813
13.1241,82196.9302,-1.17592,-8.98827,-1.1356
13.135,82196.9402,-1.19852,-9.06952,-0.95173
13.1439,82196.9501,-1.26144,-8.84594,-0.78679
13.1589,82196.9601,-1.29442,-8.12756,-0.9218
13.1631,82196.9701,-1.28648,-7.68285,-1.07268
13.1792,82196.9801,-1.27854,-7.2412,-1.12155
13.1976,82196.9902,-1.32497,-7.06954,-1.06352
13.202,82197.0002,-1.42209,-6.77083,-0.92118
13.2041,82197.0101,-1.61513,-6.25648,-0.832
13.2204,82197.0201,-1.91384,-5.69143,-0.77152
13.2259,82197.0301,-2.11359,-5.41104,-0.821
13.2353,82197.0401,-2.11909,-5.48313,-1.01098
13.2426,82197.0502,-1.99814,-5.73908,-1.17897
13.2595,82197.0602,-1.83382,-6.02069,-1.17408
13.2642,82197.0712,-1.74219,-6.07322,-0.97494
13.2768,82197.0812,-1.73608,-6.41958,-0.77702
13.2839,82197.0912,-1.62551,-6.75434,-0.85643
13.296,82197.1011,-1.21868,-7.18194,-1.18997
13.3106,82197.1111,-0.7984,-7.45256,-1.53327
13.3177,82197.1221,-0.1912,-7.38292,-1.93095
13.3261,82197.1332,0.17837,-7.12086,-1.98348
13.3395,82197.1432,0.35613,-6.97791,-1.79655
13.346,82197.1531,0.3262,-6.99502,-1.63773
13.3597,82197.1631,0.30238,-6.90461,-1.47463
13.3722,82197.1731,0.41233,-6.73784,-1.37506
13.3792,82197.1832,0.61209,-6.68836,-1.35734
13.3881,82197.1932,0.88514,-6.99135,-1.38056
13.4005,82197.2041,1.4111,-7.69812,-1.36467
13.4074,82197.2142,1.86375,-8.07869,-1.33413
13.4214,82197.2242,2.45385,-8.73598,-1.30053
13.4296,82197.2352,3.23453,-9.29737,-1.36956
13.4433,82197.2452,3.99445,-9.51423,-1.54243
13.4497,82197.2552,4.4245,-9.18986,-1.58275
13.4635,82197.2662,4.70427,-8.35725,-1.91079
13.4736,82197.2771,4.59187,-7.88199,-2.0073
13.4868,82197.2872,4.27361,-7.50998,-1.82343
13.4946,82197.2971,3.96513,-7.17339,-1.72264
13.5026,82197.3071,3.94375,-6.94554,-1.63834
13.5106,82197.3171,4.92357,-7.48249,-1.57298
13.5243,82197.3271,5.89057,-8.34931,-1.76723
13.5304,82197.3371,6.7464,-8.67673,-1.88574
13.5436,82197.3472,7.61993,-8.55822,-2.03968
13.5505,82197.3572,7.95041,-8.13795,-2.04579
13.5635,82197.3672,8.02738,-7.15201,-1.79717
13.5721,82197.3771,7.92475,-6.37988,-1.5571
13.5824,82197.3871,7.77143,-5.09706,-1.33779
13.5903,82197.3971,7.78792,-3.82951,-1.34635
13.6073,82197.4072,7.93331,-2.54975,-1.48074
13.6127,82197.4172,7.99317,-1.81244,-1.70126
13.6284,82197.4272,7.88138,-1.35551,-2.05923
13.6313,82197.4371,7.6914,-1.40194,-2.52654
13.6434,82197.4471,7.56068,-1.82588,-3.09281
13.6512,82197.4581,7.62665,-2.25104,-3.48132
13.664,82197.4681,7.96019,-2.26326,-3.45689
13.6712,82197.4781,8.17765,-1.74769,-3.14107
13.6882,82197.4881,8.16421,-0.74953,-2.66948
13.6916,82197.4982,7.92781,0.1295,-2.41658
13.7054,82197.5082,7.49226,0.84299,-2.27547
13.7164,82197.5192,7.07138,0.96028,-2.18201
13.7246,82197.5292,6.51488,0.7251,-1.97187
13.7321,82197.539,6.14653,0.35919,-1.72936
13.7458,82197.5491,5.73053,-0.05498,-1.29687
13.7523,82197.5591,5.40249,0.1405,-1.01648
13.7652,82197.5691,4.84844,1.0794,-0.81428
13.7731,82197.5791,4.34325,2.21255,-0.96395
13.7862,82197.5892,3.94558,3.33349,-1.46424
13.8004,82197.5992,3.68168,4.14106,-2.10077
13.819,82197.6091,3.4801,4.65663,-2.7495
13.8278,82197.6191,3.33838,4.65601,-3.1148
13.8294,82197.6291,3.29317,4.21925,-3.57234
13.8372,82197.6391,3.3848,3.72933,-3.87411
13.8485,82197.6492,3.41107,3.43367,-4.31027
13.8582,82197.6592,3.18139,3.44772,-4.77636
13.8711,82197.6692,2.63222,3.89732,-5.33285
13.8788,82197.6791,2.07572,4.37074,-5.80872
13.8848,82197.6891,1.42698,5.0824,-6.52343
13.8966,82197.6991,1.02137,5.78917,-6.94981
13.9067,82197.7092,0.76725,6.50999,-7.3371
13.9144,82197.7192,0.67073,6.80137,-7.51914
13.9255,82197.7292,0.67501,6.59734,-7.69507
13.9366,82197.7391,0.75869,6.00725,-7.85328
13.9444,82197.7491,0.90652,4.92541,-8.16238
13.9564,82197.7591,0.97311,4.10318,-8.41711
13.9705,82197.7692,0.82284,3.72506,-8.57288
13.977,82197.7792,0.50213,3.8063,-8.58205
13.9894,82197.789,-0.07514,4.01461,-8.52707
13.9927,82197.7991,-0.53817,4.0928,-8.46109
14.0095,82197.8091,-0.79229,3.96574,-8.41284
14.0192,82197.8191,-0.76847,3.70123,-8.45621
14.0292,82197.8291,-0.57482,3.18688,-8.62847
14.0332,82197.8392,-0.36224,2.51066,-8.75187
14.045,82197.8492,-0.18326,1.61452,-8.77508
14.0526,82197.8591,-0.15638,0.97066,-8.71216
14.0649,82197.8691,-0.25595,0.43127,-8.44582
14.0724,82197.8791,-0.42333,0.44166,-8.16116
14.0858,82197.8891,-0.66462,0.79901,-7.69263
14.0923,82197.8992,-0.80512,1.18997,-7.45072
14.1079,82197.9092,-0.93829,1.6304,-7.27052
14.1173,82197.9192,-0.98166,1.90712,-7.30106
14.1317,82197.9291,-0.98227,2.06167,-7.39391
14.1421,82197.9391,-0.97861,1.92484,-7.37009
14.1499,82197.9491,-1.05008,1.56626,-7.23936
14.1583,82197.9592,-1.17714,1.25838,-7.05794
14.1648,82197.9692,-1.37261,0.74587,-6.75067
14.1719,82197.9792,-1.49662,0.40256,-6.51915
14.193,82197.9891,-1.60108,0.1295,-6.21922
14.1946,82197.9991,-1.65911,0.08674,-5.92051
14.2061,82198.0091,-1.72203,0.37324,-5.6615
14.2122,82198.0192,-1.82221,0.85643,-5.50145
14.2253,82198.0292,-2.04884,1.28648,-5.34996
14.2322,82198.0391,-2.30479,1.36712,-5.22229
14.2538,82198.0491,-2.74706,1.18752,-5.10439
14.2546,82198.0591,-3.09098,1.08001,-5.07629
14.2675,82198.0691,-3.48254,1.14232,-5.03597
14.2761,82198.0791,-3.73422,1.31092,-4.99566
14.2838,82198.0891,-4.00117,1.60047,-4.84783
14.2917,82198.0991,-4.18321,1.90895,-4.63158
14.3042,82198.1091,-4.66457,2.204,-4.49291
14.3117,82198.1191,-5.06102,2.37993,-4.52712
14.3246,82198.1291,-5.67372,2.51127,-4.54178
14.3315,82198.139,-6.06895,2.54486,-4.31882
14.3484,82198.1491,-5.90646,2.23943,-3.98223
14.3522,82198.1591,-5.58331,2.00364,-3.57845
14.364,82198.1691,-4.93823,1.83809,-3.10625
14.3761,82198.1791,-4.36708,1.13865,-2.66521
14.3882,82198.1891,-3.93336,0.50824,-2.45812
14.3928,82198.1991,-3.70734,-0.01894,-2.50638
14.4053,82198.2091,-3.44895,-0.44104,-2.45934
14.4143,82198.2191,-3.13068,-0.58277,-2.22477
14.4258,82198.2291,-2.57541,-0.63408,-1.68843
14.4332,82198.2401,-1.98409,-0.82955,-1.03664
14.4552,82198.2501,-1.46791,-1.13682,-0.44288
14.4598,82198.2601,-0.97189,-1.664,-0.15944
14.4765,82198.27,-0.29993,-2.41719,-0.00672
14.4783,82198.2811,0.48625,-2.85396,0.08858
14.4875,82198.2911,1.50945,-2.91749,0.22297
14.4992,82198.3011,2.32068,-2.62733,0.36774
14.5085,82198.3111,2.90772,-2.24065,0.54795
14.5154,82198.321,3.17283,-1.92178,0.76297
14.5275,82198.3311,3.34693,-1.69698,0.99571
14.534,82198.3411,3.42756,-1.50334,1.06963
14.5469,82198.3511,3.55829,-1.23883,1.0122
14.5576,82198.3611,3.75988,-1.03481,0.89125
14.5674,82198.3711,4.07203,-1.07451,0.80146
14.5785,82198.3811,4.36646,-1.30114,0.81123
14.5879,82198.3911,4.74154,-1.77945,0.95539
14.5946,82198.4011,5.00665,-2.50394,1.21135
14.6076,82198.4111,5.15998,-2.94315,1.45264
14.6141,82198.421,5.25772,-3.11663,1.66461
14.6291,82198.4311,5.37195,-3.14596,1.7654
14.6342,82198.4411,5.32247,-3.12519,1.56259
14.6531,82198.4511,5.15631,-3.01829,1.18264
14.6624,82198.4611,4.94129,-2.75683,0.84605
14.6727,82198.4711,4.61448,-2.1643,0.65912
14.6797,82198.4811,4.10746,-1.42087,0.7648
14.6989,82198.4911,3.4746,-0.77458,1.41904
14.7013,82198.5021,3.15695,-0.67867,2.05129
14.7121,82198.5121,3.01706,-0.84727,2.65238
14.7156,82198.5221,3.07204,-0.95173,2.88695
14.7276,82198.5321,3.31639,-1.25777,3.05005
14.7363,82198.5421,3.71406,-1.72631,3.15268
14.7479,82198.5521,4.24368,-2.51005,3.24247
14.7562,82198.5631,4.835,-3.23759,3.31761
14.7718,82198.5731,5.32308,-3.93703,3.3286
14.7788,82198.5841,5.49779,-4.29622,3.33655
14.7937,82198.5951,5.41899,-4.42266,3.56073
14.8116,82198.6061,5.16242,-4.13739,3.86128
14.8152,82198.6171,4.71038,-3.43917,4.19603
14.8229,82198.6271,4.28644,-2.67498,4.2895
14.8327,82198.6371,3.94008,-1.9621,4.33531
14.8467,82198.6471,3.80264,-1.73302,4.37685
14.8534,82198.6571,3.73972,-1.93461,4.26201
14.8603,82198.6671,3.75865,-2.36894,4.07081
14.8727,82198.6771,3.79469,-2.91749,3.80936
14.8811,82198.6871,3.75499,-3.12946,3.62365
14.8962,82198.6971,3.61449,-2.92666,3.54119
14.903,82198.7071,3.44039,-2.52532,3.55157
14.9185,82198.7171,3.19116,-1.80694,3.65358
14.9326,82198.7271,3.06349,-1.1753,3.8344
14.9368,82198.7371,3.07876,-0.7477,4.02499
14.9451,82198.7471,3.23026,-0.74403,4.11662
14.9585,82198.7571,3.4746,-1.23089,4.16732
14.9604,82198.7671,3.71101,-1.96149,4.14716
14.9741,82198.7771,3.94252,-2.74462,4.10318
14.9804,82198.7871,4.02682,-2.98163,4.16244
14.9925,82198.7971,3.97979,-2.89794,4.34631
15.0004,82198.8071,3.82218,-2.61878,4.54484
15.0124,82198.8171,3.6322,-2.19178,4.76964
15.0213,82198.8271,3.53569,-1.88024,4.91563
15.0329,82198.8371,3.5082,-1.65544,5.02192
15.0403,82198.8471,3.56073,-1.68782,4.98955
15.0544,82198.8571,3.62915,-2.05556,4.87837
15.0603,82198.8671,3.67191,-2.38787,4.83805
15.0727,82198.8771,3.73116,-2.90283,4.83072
15.0807,82198.8871,3.75804,-3.31944,4.82522
15.0963,82198.8971,3.71101,-3.58089,4.85516
15.108,82198.9081,3.63282,-3.55707,4.87593
15.114,82198.9181,3.48743,-3.31761,4.8631
15.1222,82198.9281,3.25286,-2.88145,4.8576
15.1354,82198.9381,2.84419,-2.37382,4.87287
15.1418,82198.9481,2.48378,-2.1307,4.82156
15.1563,82198.9581,2.22294,-2.16979,4.68839
15.1675,82198.9681,2.08916,-2.43552,4.59615
15.1909,82198.9781,1.98653,-2.98591,4.42572
15.2072,82198.9881,1.923,-3.53324,4.26201
15.2083,82198.9981,1.80327,-4.18504,4.05981
15.2098,82199.0081,1.68538,-4.62181,3.85639
15.2176,82199.0181,1.53633,-4.88326,3.56073
15.2285,82199.0281,1.3494,-4.69267,3.33838
15.2401,82199.0381,1.01526,-4.17832,3.15756
15.2448,82199.0481,0.68111,-3.71162,3.09098
15.2554,82199.0581,0.21991,-3.29012,2.99874
15.2628,82199.0691,-0.20342,-3.13007,2.8448
15.2769,82199.0791,-0.55039,-3.24858,2.60351
15.2821,82199.0891,-0.76114,-3.47521,2.37382
15.2943,82199.0991,-1.0122,-3.85761,2.1142
15.3018,82199.1091,-1.23273,-4.17038,1.94072
15.3136,82199.1191,-1.55404,-4.19054,1.82282
15.3273,82199.1291,-1.84542,-4.07875,1.69637
15.3367,82199.1391,-2.34756,-3.9297,1.47463
15.3448,82199.1491,-2.71896,-3.81363,1.36162
15.3584,82199.1591,-3.18566,-3.64198,1.39522
15.3628,82199.1691,-3.55157,-3.47216,1.48746
15.377,82199.1791,-3.99262,-3.29195,1.60413
15.3918,82199.1891,-4.37196,-3.24614,1.61207
15.3959,82199.1991,-4.91258,-3.27302,1.53633
15.4028,82199.2091,-5.4593,-3.22231,1.43004
15.4189,82199.2191,-5.99198,-3.20338,1.19668
15.4225,82199.2291,-6.26137,-3.16734,0.96272
15.4392,82199.2391,-6.31024,-2.99874,0.70738
15.4487,82199.2491,-6.09338,-2.66826,0.63041
15.4545,82199.2591,-5.74763,-2.21561,0.70433
15.462,82199.269,-5.32675,-1.87047,0.73793
15.4761,82199.2791,-4.72138,-1.74524,0.62369
15.4824,82199.2891,-4.26934,-1.83076,0.44899
15.4954,82199.2991,-3.83868,-1.98653,0.18998
15.5021,82199.3091,-3.70612,-2.11176,0.01588
15.5166,82199.3191,-3.76843,-2.49111,-0.10018
15.5238,82199.3291,-3.93092,-2.96942,-0.1069
15.5382,82199.3391,-4.11357,-3.35121,0.06353
15.5447,82199.3491,-4.23513,-3.36831,0.3653
15.5566,82199.3591,-4.36402,-3.05372,0.92118
15.5719,82199.3691,-4.46115,-2.31151,1.45142
15.5798,82199.3791,-4.51674,-1.03297,1.96088
15.5851,82199.3901,-4.54728,-0.41478,2.18323
15.5979,82199.4001,-4.66151,-0.01588,2.31029
15.6054,82199.4101,-4.67984,0.20159,2.30418
15.6186,82199.42,-4.59493,0.09346,2.17163
15.6317,82199.4301,-4.45443,-0.08247,1.99875
15.6481,82199.4401,-4.15938,-0.16554,1.76174
15.651,82199.4501,-3.85578,-0.29138,1.48135
15.6603,82199.46,-3.38725,-0.61636,1.10261
15.6673,82199.4701,-2.94132,-0.7703,0.92363
15.6776,82199.4801,-2.27731,-0.98227,0.75869
15.6833,82199.4901,-1.50823,-1.21684,0.59071
15.7005,82199.5001,-0.75869,-1.46119,0.39584
15.7036,82199.5101,-0.31276,-1.61146,0.24679
15.7163,82199.5201,-0.0898,-1.50945,0.18998
15.7284,82199.5301,-0.03971,-1.37323,0.14172
15.7383,82199.5401,-0.07391,-1.16859,0.11484
15.7439,82199.5511,-0.17837,-0.83994,0.17287
15.7593,82199.5611,-0.37874,-0.42333,0.2755
15.775,82199.5711,-0.54489,-0.09224,0.38973
15.7789,82199.5811,-0.52534,0.21197,0.51618
15.7851,82199.5911,-0.36224,0.36224,0.60781
15.8012,82199.6011,-0.15821,0.43188,0.67806
15.8078,82199.6111,0.02749,0.59926,0.77397
15.8182,82199.6211,0.10568,0.93462,0.95906
15.8312,82199.6321,0.0391,1.29809,1.21623
15.8382,82199.6421,-0.1124,1.61757,1.42148
15.8458,82199.6521,-0.32987,1.91995,1.62185
15.8577,82199.6621,-0.64141,2.25654,1.90956
15.8662,82199.6721,-0.94745,2.47523,2.20767
15.8784,82199.6821,-1.25166,2.64505,2.57235
15.8885,82199.6921,-1.4618,2.75683,2.82281
15.8988,82199.7021,-1.71348,2.71591,3.047
15.908,82199.712,-1.94499,2.64016,3.16734
15.9193,82199.7221,-2.22905,2.79226,3.28523
15.9287,82199.7321,-2.47217,3.09403,3.39458
15.9385,82199.7421,-2.80082,3.61327,3.60288
15.9518,82199.7521,-3.09892,4.16121,3.83074
15.9629,82199.7621,-3.44406,4.73176,4.13983
15.9705,82199.7721,-3.67802,5.03353,4.41717
15.9776,82199.7821,-3.86739,5.22412,4.73237
15.9858,82199.7921,-4.003,5.2565,4.87165
15.9977,82199.8021,-4.15327,5.15876,4.82278
16.0089,82199.8121,-4.27484,5.15815,4.62486
16.0176,82199.8221,-4.40617,5.26627,4.3909
16.026,82199.8321,-4.53323,5.43853,4.22902
16.0427,82199.8421,-4.61875,5.78062,4.21741
16.0458,82199.8521,-4.52346,6.15691,4.30171
16.0624,82199.8621,-4.33103,6.49716,4.36585
16.0656,82199.8721,-4.36036,6.75861,4.37074
16.0818,82199.8821,-4.44649,6.97425,4.29927
16.0926,82199.8931,-4.4752,6.91133,4.1044
16.0984,82199.9031,-4.38968,6.68348,3.88144
16.1089,82199.9131,-4.138,6.52648,3.65969
16.119,82199.9231,-3.65664,6.32429,3.4294
16.1325,82199.9341,-3.15634,6.0549,3.27302
16.1397,82199.9441,-2.63405,5.81971,3.12458
16.1479,82199.9541,-2.28464,5.6841,2.91444
16.1621,82199.9641,-2.13986,5.68227,2.61023
16.1668,82199.9741,-2.20767,5.77573,2.3109
16.1799,82199.9841,-2.48011,6.06956,2.0238
16.1946,82199.9941,-2.80204,6.4263,1.8387
16.1985,82200.0041,-3.2327,6.91683,1.65544
16.2121,82200.0141,-3.53141,7.25647,1.5461
16.2206,82200.0241,-3.7556,7.50143,1.38666
16.232,82200.0341,-3.91992,7.67002,1.18569
16.2387,82200.0441,-4.14716,7.73294,0.81489
16.2466,82200.0541,-4.34325,7.59305,0.45509
16.26,82200.064,-4.48009,7.31389,0.06597
16.2671,82200.0741,-4.50269,7.18805,-0.18082
16.2817,82200.0841,-4.47948,7.05977,-0.34147
16.2875,82200.0941,-4.47886,7.02678,-0.32009
16.3009,82200.1041,-4.59859,7.15812,-0.22724
16.309,82200.1141,-4.81301,7.32611,-0.16616
16.3202,82200.1241,-5.13249,7.37253,-0.17959
16.3271,82200.1341,-5.26932,7.23509,-0.2645
16.3393,82200.1441,-5.19969,6.59857,-0.47281
16.3474,82200.1541,-4.83683,5.63462,-0.69578
16.3645,82200.1641,-4.06897,4.29011,-0.86865
16.3692,82200.1741,-3.27057,3.17467,-0.8491
16.3816,82200.1841,-2.21866,1.74158,-0.67928
16.3875,82200.1941,-1.67377,0.80573,-0.60537
16.4061,82200.2041,-1.63651,0.1179,-0.67317
16.4085,82200.2141,-1.84359,-0.13806,-0.77336
16.4222,82200.2241,-2.12092,-0.08247,-0.96456
16.433,82200.2351,-2.36466,0.15272,-1.22295
16.4403,82200.2451,-2.62489,0.3036,-1.36895
16.4483,82200.2551,-2.88145,0.22419,-1.40499
16.4604,82200.2651,-3.18566,0.01466,-1.48135
16.4684,82200.275,-3.42023,-0.2193,-1.57237
16.4831,82200.2851,-3.68535,-0.55589,-1.69698
16.4946,82200.2951,-3.99811,-1.09467,-1.85092
16.5062,82200.3051,-4.49047,-1.79228,-2.13009
16.5124,82200.3151,-4.85455,-2.14536,-2.30174
16.5222,82200.3251,-5.0714,-2.34633,-2.34206
16.528,82200.3351,-5.11905,-2.39032,-2.28097
16.5416,82200.3451,-5.08851,-2.06106,-2.04701
16.5523,82200.3551,-5.03109,-1.91262,-1.83626
16.5625,82200.3651,-4.94251,-1.98653,-1.76235
16.5682,82200.3751,-4.75314,-1.94866,-1.89307
16.581,82200.3851,-4.15877,-1.81549,-2.0409
16.5901,82200.3951,-3.57417,-1.9004,-2.06717
16.6003,82200.4051,-2.82281,-2.46362,-1.99631
16.6081,82200.4151,-2.40925,-3.24247,-1.923
16.6232,82200.4251,-2.21988,-3.85028,-1.86253
16.6294,82200.4351,-2.18384,-4.13678,-1.78067
16.6483,82200.4451,-2.21133,-4.27789,-1.63406
16.6562,82200.4551,-2.15452,-3.78003,-1.51372
16.6728,82200.4651,-1.93828,-2.66398,-1.32191
16.6782,82200.4761,-1.52716,-1.03725,-1.05863
16.6828,82200.4861,-0.96944,0.09774,-0.68661
16.6894,82200.4961,-0.27367,0.48319,-0.40439
16.704,82200.5061,0.49786,0.31215,-0.2645
16.7093,82200.5161,1.24372,0.06964,-0.16249
16.7215,82200.5261,1.97981,-0.18326,-0.02871
16.7294,82200.5361,2.56136,-0.29688,0.12156
16.7468,82200.5461,3.12641,-0.18631,0.29993
16.7516,82200.5561,3.44039,0.10751,0.46181
16.7619,82200.566,3.63343,0.52046,0.67623
16.7727,82200.5761,3.59494,0.93951,0.78679
16.7882,82200.5861,3.4801,1.36834,0.80023
16.7914,82200.596,3.52714,1.5125,0.7648
16.8028,82200.6061,3.81546,1.35123,0.68661
16.8099,82200.6161,4.19359,1.00854,0.6072
16.8222,82200.6261,4.72993,0.23885,0.47831
16.832,82200.6361,5.07201,-0.32987,0.35369
16.8454,82200.6461,5.67066,-1.17225,0.21747
16.8492,82200.6561,6.21983,-1.71226,0.15455
16.8616,82200.6661,6.71158,-2.05984,0.1967
16.8691,82200.6761,6.91622,-1.80999,0.28344
16.8813,82200.6861,6.73968,-1.35795,0.26695
16.8895,82200.6961,6.2351,-1.05313,0.15455
16.9015,82200.7061,5.62729,-0.72326,0.10079
16.9095,82200.7161,5.15204,-0.53634,0.22724
16.9218,82200.7261,4.87287,-0.10079,0.37202
16.9336,82200.7361,4.79774,0.15394,0.50152
16.9516,82200.7461,4.95595,-0.03482,0.69028
16.9536,82200.7561,5.27177,-0.52229,0.8717
16.9619,82200.7661,5.67555,-1.09284,1.07573
16.9709,82200.7761,6.04207,-1.2199,1.22906
16.9832,82200.7861,6.50633,-1.46119,1.40988
16.9915,82200.7961,6.59857,-1.86253,1.51067
17.0029,82200.8061,6.32429,-2.03785,1.53816
17.0147,82200.8161,5.94005,-2.12581,1.60474
17.026,82200.8271,5.39455,-2.10565,1.88635
17.035,82200.8371,5.105,-2.03113,2.16124
17.0446,82200.8471,4.76353,-1.8387,2.51127
17.0507,82200.8571,4.43122,-1.85581,2.60595
17.0646,82200.8681,3.90404,-2.03418,2.40864
17.0734,82200.8781,3.6041,-1.99875,2.15819
17.0839,82200.8881,3.39397,-1.75379,1.99997
17.0955,82200.8981,3.38114,-1.42148,2.07144
17.1051,82200.9081,3.96696,-0.99143,2.44713
17.122,82200.9181,4.09585,-0.76236,2.88878
17.1326,82200.9281,4.19726,-0.39279,3.39275
17.1344,82200.9391,4.14778,-0.31948,3.60716
17.1528,82200.9491,4.03293,-0.59559,3.75988
17.1579,82200.9591,3.99262,-0.80879,3.9859
17.1732,82200.969,3.93092,-1.13621,4.21314
17.1798,82200.9791,3.84662,-1.4166,4.30171
17.1944,82200.9891,3.64564,-1.63773,4.38662
17.1965,82200.9991,3.35976,-1.76968,4.43794
17.2066,82201.0091,2.9291,-1.73486,4.55461
17.2158,82201.0191,2.58335,-1.69026,4.67678
17.2253,82201.0291,2.19728,-1.7709,4.80995
17.2322,82201.0391,2.04396,-2.08672,4.81301
17.2478,82201.0491,1.95782,-2.66398,4.82034
17.2561,82201.0591,1.89124,-3.20704,4.83561
17.2658,82201.0691,1.75685,-4.01705,4.86432
17.274,82201.0791,1.62063,-4.51246,4.91747
17.2835,82201.0891,1.44225,-4.95045,4.94801
17.2919,82201.0991,1.30725,-5.15387,4.91563
17.3035,82201.1091,1.18141,-5.21496,4.85271
17.3135,82201.1191,1.102,-5.20152,4.79346
17.3253,82201.1291,1.11666,-5.10928,4.79041
17.3338,82201.1391,1.15331,-5.08301,4.79651
17.3496,82201.1491,1.23334,-5.22168,4.77758
17.3531,82201.1591,1.32558,-5.4196,4.75559
17.3694,82201.1691,1.43798,-5.70792,4.69755
17.375,82201.1791,1.52411,-6.01275,4.59004
17.3844,82201.1891,1.59191,-6.33406,4.40678
17.3949,82201.1991,1.64017,-6.45807,4.23635
17.4057,82201.2091,1.75624,-6.50205,4.04515
17.4147,82201.2191,1.87291,-6.54053,3.93947
17.4249,82201.2291,2.05129,-6.67554,3.82585
17.4327,82201.2391,2.15574,-6.83192,3.7385
17.4457,82201.2491,2.19301,-6.95348,3.55035
17.4527,82201.2591,2.10321,-6.98708,3.42879
17.4669,82201.269,1.88452,-6.98586,3.32555
17.4735,82201.2791,1.64506,-6.94432,3.1539
17.4869,82201.2891,1.37139,-6.88873,2.88451
17.4935,82201.2991,1.07207,-6.8649,2.53876
17.5078,82201.3091,0.70005,-6.92477,2.03418
17.5147,82201.3191,0.35736,-6.98463,1.55404
17.5379,82201.3291,-0.05009,-6.84413,1.16675
17.5493,82201.3391,-0.36224,-6.31818,1.13315
17.5538,82201.3491,-0.82222,-5.34141,1.16187
17.5567,82201.3591,-1.28648,-4.45076,1.03603
17.5698,82201.3691,-1.87291,-3.66886,0.75869
17.5735,82201.3791,-2.32251,-3.30539,0.55528
17.5862,82201.3891,-2.78188,-2.97308,0.32926
17.5923,82201.3991,-3.15878,-2.72873,0.13622
17.6069,82201.4091,-3.67191,-2.39948,-0.18448
17.616,82201.4191,-4.10074,-2.08183,-0.37385
17.6259,82201.4291,-4.65052,-1.65483,-0.48686
17.6332,82201.4401,-5.10134,-1.00793,-0.46181
17.6512,82201.4501,-5.116,0.0507,-0.41966
17.653,82201.4601,-5.05186,1.16553,-0.08858
17.6706,82201.4701,-4.66823,3.05555,0.5339
17.6791,82201.4801,-4.0873,4.09341,0.8998
17.6893,82201.4901,-3.72872,5.03292,1.18447
17.6939,82201.5001,-3.64564,5.86125,1.36712
17.7118,82201.5101,-3.8118,7.46783,1.57053
17.7158,82201.5201,-4.17893,8.90092,1.6866
17.7295,82201.5301,-4.9364,10.80498,1.66094
17.7425,82201.5401,-5.77879,11.54047,1.37445
17.7543,82201.5501,-6.59734,11.26374,1.0061
17.7565,82201.5601,-7.05122,10.88684,0.91691
17.7721,82201.5701,-7.57656,10.54476,0.97494
17.7764,82201.5801,-8.11473,10.36455,0.96578
17.7894,82201.5901,-8.78669,10.24116,0.80207
17.7976,82201.6001,-9.26805,10.31385,0.56444
17.8078,82201.6101,-9.63334,10.46901,0.25717
17.8135,82201.6201,-9.59608,10.42686,0.22174
17.8274,82201.6301,-8.71155,10.32179,0.45754
17.833,82201.6401,-7.70912,9.45436,0.62614
17.8465,82201.6501,-6.51915,8.141,0.90469
17.8531,82201.6601,-5.04269,7.21737,1.41537
17.8697,82201.6701,-3.11602,6.52282,2.00242
17.8788,82201.6811,-2.00303,6.36277,2.22477
17.8971,82201.6911,-0.89125,6.10193,2.32617
17.9003,82201.7021,-0.04887,5.75313,2.47767
17.9136,82201.7121,0.58032,5.49107,2.85641
17.9189,82201.7221,0.95723,5.28276,3.26385
17.9331,82201.7321,1.31825,5.00482,3.80813
17.9375,82201.7421,1.51189,4.74642,4.25223
17.9513,82201.7521,1.63101,4.34081,4.67006
17.9555,82201.7621,1.69271,4.02072,4.93518
17.968,82201.7719,1.68232,3.78675,5.25222
17.9757,82201.7821,1.54427,3.67924,5.55399
17.9898,82201.7921,1.28831,3.34632,5.86431
17.9964,82201.8031,1.08673,2.87473,6.03901
18.0108,82201.8131,1.01037,2.33656,6.15569
18.0179,82201.8241,0.98655,1.95904,6.19173
18.0319,82201.8341,0.84605,1.72936,6.20028
18.0388,82201.8441,0.54917,1.69454,6.31451
18.055,82201.8541,-0.0788,1.79167,6.57108
18.0711,82201.8641,-0.77641,1.95049,6.79038
18.0727,82201.8741,-1.55099,2.14414,6.86674
18.087,82201.8841,-2.00669,2.19606,6.79343
18.096,82201.8941,-2.16979,1.88085,6.58879
18.0984,82201.9041,-1.82588,1.2254,6.34261
18.1121,82201.9141,-1.13743,0.32559,5.93211
18.1175,82201.9241,-0.562,-0.50274,5.62668
18.1294,82201.9341,0.20159,-1.6756,5.35912
18.1378,82201.9441,0.78313,-2.30663,5.20763
18.1554,82201.9541,1.09039,-2.40253,5.14349
18.1617,82201.9651,1.03969,-2.2321,5.2229
18.1783,82201.9751,0.73609,-1.98409,5.36279
18.1805,82201.9851,0.41539,-1.75379,5.3298
18.2011,82201.9961,0.12339,-1.31764,5.00543
18.2065,82202.0061,0.01955,-1.08123,4.66945
18.2172,82202.0161,0.05925,-0.94012,4.21986
18.2191,82202.0261,0.20586,-0.87048,3.8906
18.2377,82202.0361,0.40928,-0.79901,3.55768
18.2413,82202.046,0.51557,-0.7251,3.22415
18.2539,82202.0561,0.55222,-0.58521,2.65604
18.2767,82202.0661,0.51496,-0.5565,2.08183
18.2774,82202.0761,0.46853,-0.697,1.42087
18.2868,82202.0861,0.46548,-0.94806,0.82345
18.2913,82202.0961,0.49663,-1.32008,0.14722
18.2986,82202.1061,0.52534,-1.6194,-0.58277
18.3131,82202.116,0.48747,-1.92361,-1.38056
18.3186,82202.126,0.38973,-2.09832,-2.0409
18.3333,82202.1361,0.26145,-2.15391,-2.67926
18.3386,82202.1461,0.11545,-2.03418,-3.31394
18.3513,82202.1561,-0.11912,-1.78556,-4.06775
18.3586,82202.1661,-0.32681,-1.6249,-4.55767
18.3702,82202.1761,-0.59559,-1.45264,-5.10317
18.3786,82202.1861,-0.88148,-1.2651,-5.59614
18.396,82202.1961,-1.21318,-1.07696,-6.08727
18.4001,82202.2061,-1.50212,-1.03419,-6.48128
18.4244,82202.2161,-1.78189,-1.10689,-6.91622
18.4288,82202.2271,-1.92789,-1.25105,-7.31328
18.4333,82202.2381,-1.96088,-1.41476,-7.81052
18.4454,82202.2481,-1.92911,-1.46363,-8.11351
18.4578,82202.2581,-1.93644,-1.53633,-8.27539
18.4625,82202.2681,-1.98104,-1.73486,-8.27967
18.4763,82202.2781,-2.05434,-2.204,-8.16055
18.4823,82202.2891,-2.15269,-2.73362,-7.97607
18.4978,82202.2991,-2.33351,-3.33838,-7.77998
18.5022,82202.3091,-2.58213,-3.79286,-7.77937
18.5183,82202.3191,-3.21071,-4.36341,-8.0286
18.5243,82202.3301,-3.53935,-4.28033,-8.01455
18.5358,82202.3401,-3.7611,-3.74033,-7.7867
18.5429,82202.3501,-3.78126,-3.05433,-7.4831
18.5548,82202.3601,-3.61388,-2.2431,-7.09153
18.5662,82202.3701,-3.3506,-1.81977,-6.67431
18.582,82202.3801,-3.11053,-1.53388,-6.23205
18.5869,82202.3901,-2.89367,-1.06107,-5.82216
18.5965,82202.4001,-2.60534,-0.13317,-5.44281
18.6076,82202.4111,-2.37443,0.37446,-5.19419
18.6178,82202.4211,-2.2547,0.3146,-4.96572
18.6253,82202.4309,-2.42636,-0.35675,-4.82584
18.6378,82202.4411,-2.76172,-1.41721,-4.69022
18.6439,82202.4511,-3.03905,-2.33167,-4.65846
18.6563,82202.4611,-3.20338,-3.24675,-4.82522
18.6668,82202.4719,-3.21804,-3.73788,-5.25466
18.6825,82202.4821,-3.11419,-4.23391,-5.76901
18.6851,82202.4921,-3.10442,-4.57538,-6.02924
18.6974,82202.5021,-3.10992,-4.75009,-6.18929
18.7049,82202.5121,-3.03172,-4.88265,-6.12148
18.7167,82202.5221,-2.7996,-5.3408,-5.95227
18.7275,82202.5321,-2.44285,-5.82032,-5.74274
18.7385,82202.5421,-1.90162,-6.43852,-5.52222
18.746,82202.5521,-1.31764,-6.95104,-5.45991
18.7628,82202.5621,-0.68783,-7.14285,-5.67799
18.7743,82202.5721,-0.21136,-7.25036,-6.18623
18.7808,82202.5821,0.11851,-7.64254,-6.97181
18.7856,82202.592,0.28283,-7.86367,-7.64009
18.7992,82202.6021,0.97066,-6.97547,-8.63641
18.8064,82202.6131,2.26814,-6.54114,-9.42932
18.8224,82202.6231,3.37259,-6.33406,-9.95894
18.8313,82202.6331,4.41167,-5.79161,-10.2662
18.8446,82202.6431,5.25405,-5.21801,-10.4403
18.8525,82202.6531,5.51,-5.01154,-10.58507
18.8632,82202.6631,5.47946,-4.89303,-10.90028
18.8664,82202.6731,5.19174,-4.72199,-11.16417
18.8798,82202.6831,4.68595,-4.3121,-11.3847
18.8873,82202.6941,4.32737,-3.89732,-11.29368
18.8993,82202.7041,3.95291,-3.65603,-10.86851
18.9086,82202.7141,3.34265,-3.48743,-10.1483
18.9222,82202.7251,2.21866,-3.10381,-9.01759
18.9294,82202.7351,1.27182,-2.5748,-7.93392
18.9418,82202.7451,0.36652,-2.03907,-6.60956
18.9501,82202.7551,-0.39951,-1.36284,-5.12516
18.966,82202.7651,-1.03908,-0.58215,-3.5308
18.9738,82202.7751,-1.35673,-0.06658,-2.40253
18.9907,82202.7851,-1.48501,0.29138,-1.55343
18.9938,82202.7961,-1.44714,0.4331,-1.11849
19.0026,82202.8071,-1.37994,0.28527,-1.07024
19.0105,82202.8171,-1.37017,-0.02321,-1.34024
19.0229,82202.8271,-1.27732,-0.28833,-1.83932
19.0303,82202.8369,-1.11116,-0.20892,-2.17773
19.049,82202.8471,-0.85155,0.36652,-2.27547
19.0527,82202.8571,-0.54,0.88392,-2.06595
19.0627,82202.8671,-0.23335,1.27976,-1.88574
19.0707,82202.8771,-0.06414,1.48013,-1.87475
19.0828,82202.8871,-0.07453,1.47585,-1.98348
19.0908,82202.8971,-0.15516,1.48868,-2.00181
19.1118,82202.9071,-0.17471,1.39094,-1.83626
19.1234,82202.9171,-0.11606,1.31458,-1.57481
19.1305,82202.9271,0.0226,1.40377,-1.19119
19.1333,82202.9371,0.1179,1.55038,-0.6463
19.1521,82202.9471,0.14844,1.97676,0.31643
19.1594,82202.9571,0.09102,2.35977,1.00304
19.1626,82202.9671,-0.09224,2.99752,2.12642
19.1861,82202.9771,-0.33231,3.56623,3.22109
19.1916,82202.9869,-0.74953,4.5485,5.21679
19.195,82202.9971,-0.81367,4.67556,5.49718
19.2021,82203.0071,-1.11239,5.05308,6.56924
19.2111,82203.0171,-1.40682,5.24428,7.11292
19.2215,82203.0271,-2.12887,5.29926,7.45561
19.2298,82203.0371,-2.73668,5.06529,7.65597
19.2493,82203.0471,-3.6261,4.5204,7.71278
19.2504,82203.0571,-4.20275,4.1209,7.67674
19.2614,82203.0671,-4.81545,3.70123,7.68102
19.2699,82203.0771,-5.16731,3.69024,7.88749
19.283,82203.0871,-5.40066,3.94863,8.27722
19.2908,82203.0971,-5.57476,4.14778,8.74087
19.3047,82203.1071,-5.67738,4.3011,9.37678
19.3192,82203.1171,-5.64256,4.06409,10.03407
19.3236,82203.1271,-5.375,3.63892,10.4122
19.3312,82203.1381,-5.06163,3.37075,10.42625
19.3448,82203.1481,-4.96267,3.96207,10.43663
19.352,82203.1581,-4.75681,4.43977,9.98581
19.3657,82203.168,-4.32309,4.94984,9.34563
19.3745,82203.1781,-4.02194,5.31758,8.78363
19.3837,82203.1881,-3.80264,5.48985,8.20453
19.3989,82203.1981,-3.61571,5.55887,7.74272
19.4088,82203.2081,-3.4465,5.65295,7.27785
19.4126,82203.2181,-3.22598,5.71098,6.88384
19.4268,82203.2281,-2.70797,5.91256,6.33528
19.4367,82203.2381,-2.22172,6.19784,5.99564
19.4461,82203.2481,-1.65239,6.62728,5.51795
19.4512,82203.2581,-1.34879,6.99257,5.12577
19.4657,82203.2681,-1.07696,7.37925,4.69022
19.4711,82203.2781,-0.9053,7.45622,4.61509
19.483,82203.2881,-0.75381,7.33038,4.78307
19.491,82203.2981,-0.70066,7.32733,5.14226
19.5032,82203.3081,-0.76175,7.68346,5.71281
19.5109,82203.3181,-0.8094,7.96141,6.16119
19.5228,82203.3281,-0.78924,8.17643,6.40675
19.5314,82203.3381,-0.57605,7.84229,6.13492
19.545,82203.3481,-0.05864,6.71952,5.35851
19.5516,82203.3581,0.4331,5.73297,4.64624
19.567,82203.3681,0.95723,4.93701,3.91931
19.5729,82203.3781,1.09345,4.92418,3.73422
19.5853,82203.3881,1.0232,5.19419,3.80691
19.593,82203.3981,0.7367,5.30536,3.98956
19.6111,82203.4081,-0.02871,5.11294,4.1435
19.617,82203.4181,-0.57788,4.78735,4.36891
19.6339,82203.4281,-0.81001,4.28705,4.85577
19.6439,82203.4381,-0.88942,3.55462,5.10256
19.6489,82203.4481,-1.0232,1.91506,4.94068
19.6554,82203.458,-1.00548,0.33231,4.39334
19.665,82203.4681,-0.79901,-1.16981,3.70795
19.6714,82203.4781,-0.67867,-1.80999,3.51309
19.6837,82203.4881,-0.60476,-2.30602,3.62487
19.6917,82203.4981,-0.71349,-2.16368,3.9694
19.7051,82203.5081,-1.06718,-1.41965,4.56255
19.7118,82203.5181,-1.57115,-0.4441,5.0995
19.7239,82203.5281,-2.13803,0.45754,5.54055
19.7319,82203.5381,-2.64138,1.08734,5.84476
19.7443,82203.5481,-3.0586,1.51556,5.99992
19.7583,82203.5581,-3.32066,1.62918,6.05123
19.7737,82203.5681,-3.56806,1.41476,6.00969
19.7759,82203.5781,-3.69635,0.91935,5.81727
19.7833,82203.5881,-3.64442,0.31521,5.24794
19.7915,82203.5981,-3.3787,-0.2193,4.36585
19.8035,82203.6081,-2.84785,-0.86376,2.98591
19.8113,82203.6181,-2.32679,-1.39705,1.85825
19.8245,82203.6281,-1.47096,-2.13925,0.5736
19.8359,82203.6381,-0.88514,-2.50027,0
19.8478,82203.6491,-0.16738,-2.77516,-0.50519
19.8543,82203.6591,0.24374,-2.97675,-0.85582
19.8714,82203.6691,0.74831,-3.27118,-1.43798
19.8758,82203.6791,1.11972,-3.45383,-2.05434
19.8917,82203.6891,1.36712,-3.3005,-2.74401
19.9024,82203.7001,1.35429,-2.91627,-3.35609
19.908,82203.7101,1.1753,-2.34328,-4.21314
19.9196,82203.7201,1.03969,-1.86558,-5.15448
19.9333,82203.7301,0.98349,-1.67316,-6.42447
19.942,82203.7401,0.94379,-1.85092,-7.38353
19.9526,82203.7501,0.80329,-2.60534,-8.31754
19.9571,82203.7611,0.54062,-3.54302,-8.82761
19.9663,82203.7711,0.13195,-4.20764,-8.94246
19.9743,82203.7811,-0.27733,-4.50819,-8.79707
19.9875,82203.7911,-1.01098,-4.26323,-8.28211
19.9943,82203.8011,-1.53938,-3.88022,-7.81358
20.0089,82203.8111,-2.069,-3.29012,-7.26746
20.0174,82203.8211,-2.2266,-2.79837,-6.9938
20.0299,82203.8321,-2.00669,-2.30968,-6.893
20.0361,82203.8421,-1.68232,-2.17407,-7.02312
20.0486,82203.8521,-1.24922,-2.01463,-7.23936
20.0554,82203.8621,-1.03114,-1.95355,-7.40857
20.0688,82203.8721,-1.03725,-2.04396,-7.55946
20.0756,82203.8821,-1.25655,-2.21378,-7.63154
20.0964,82203.8921,-1.57237,-2.00486,-7.53136
20.0985,82203.9021,-1.72508,-1.78373,-7.38964
20.1081,82203.9121,-1.79961,-1.79228,-6.87468
20.1159,82203.9221,-1.74402,-1.76601,-6.07322
20.1298,82203.9321,-1.57603,-1.13987,-4.96389
20.1357,82203.9421,-1.48196,-0.59987,-4.46909
20.1505,82203.9521,-1.34574,0.14172,-3.96696
20.1599,82203.9621,-1.21684,0.64141,-3.68107
20.1681,82203.9721,-1.11727,1.03114,-3.54241
20.1757,82203.9821,-0.9334,1.2987,-3.53324
20.1893,82203.9921,-0.53329,1.50151,-3.61327
20.1978,82204.0021,-0.13378,1.62796,-3.60288
20.2084,82204.0121,0.41905,1.71164,-3.41413
20.2188,82204.0221,0.88759,1.74158,-3.19055
20.2345,82204.0321,1.30908,1.75013,-3.04516
20.2375,82204.0421,1.52716,1.68232,-2.99629
20.2506,82204.0521,1.66705,1.55038,-2.93765
20.2561,82204.062,1.71592,1.2596,-2.81731
20.2665,82204.072,1.69943,1.03969,-2.61817
20.2746,82204.082,1.63529,1.09467,-2.40437
20.2867,82204.0921,1.4447,1.3158,-1.93522
20.2991,82204.1021,1.04763,1.22234,-1.37445
20.3077,82204.1121,0.40745,0.61392,-0.97189
20.3156,82204.122,0.12278,0.36224,-0.90469
20.3291,82204.1331,-0.11118,0.08247,-0.84483
20.3361,82204.1431,-0.20586,-0.08491,-0.71471
20.3516,82204.153,-0.27489,-0.21319,-0.41966
20.3561,82204.163,-0.29627,-0.26023,-0.1069
20.3737,82204.173,-0.30543,-0.06414,0.38973
20.3794,82204.1831,-0.3146,0.26145,0.92607
20.3894,82204.1931,-0.40012,0.71166,1.67438
20.3969,82204.203,-0.61881,1.03175,2.39765
20.4121,82204.213,-1.13193,1.43431,3.48376
20.4193,82204.223,-1.60291,1.72447,4.22597
20.4385,82204.233,-2.16246,1.95782,5.08912
20.4405,82204.2431,-2.48867,1.96454,5.60652
20.4486,82204.2531,-2.66276,2.10932,5.84842
20.4563,82204.2631,-2.69453,2.16857,5.79589
20.4721,82204.273,-2.6481,1.94011,5.34263
20.4827,82204.2841,-2.5357,1.73486,4.76353
20.4936,82204.294,-2.1869,1.60108,4.09768
20.4982,82204.304,-1.71042,1.48685,3.45566
20.5112,82204.314,-1.04947,1.32802,2.85457
20.5254,82204.325,-0.67562,1.18508,2.631
20.5315,82204.335,-0.38362,1.19546,2.50027
20.5383,82204.345,-0.2474,1.3494,2.3781
20.5509,82204.3551,-0.20036,1.26755,2.23454
20.5592,82204.366,-0.22846,0.96456,2.10321
20.5731,82204.3761,-0.31765,0.43188,1.88146
20.5794,82204.3861,-0.35491,0.08491,1.55404
20.5918,82204.3961,-0.2755,-0.13561,1.10444
20.5993,82204.406,-0.18692,-0.22113,0.76603
20.6171,82204.416,0,-0.35552,0.39279
20.6197,82204.426,0.15088,-0.52473,0.16005
20.6369,82204.436,0.43555,-0.75503,-0.12645
20.6409,82204.4461,0.71777,-0.9163,-0.31398
20.6523,82204.456,0.98288,-0.978,-0.37996
20.6595,82204.4661,1.17347,-0.73793,-0.32498
20.6732,82204.476,1.2761,-0.16371,-0.13867
20.6829,82204.486,1.23395,0.34636,0.14783
20.6932,82204.496,1.06718,0.84971,0.51862
20.7002,82204.507,0.79779,1.55587,0.80146
20.7125,82204.517,0.52718,2.32801,0.96028
20.7204,82204.5271,0.30543,2.89245,1.02686
20.7356,82204.5371,0.11606,3.46238,1.01587
20.7412,82204.548,-0.03238,4.00544,0.9163
20.7551,82204.5581,-0.09224,4.11968,0.79596
20.7629,82204.5681,-0.14722,3.73788,0.67745
20.7739,82204.5781,-0.49358,2.52226,0.46731
20.7813,82204.588,-0.85032,1.59191,0.28833
20.7935,82204.598,-1.23028,0.90103,0.10629
20.8034,82204.608,-1.39827,0.84666,0.01038
20.8237,82204.6181,-1.44958,1.09039,0.00244
20.8296,82204.6281,-1.47463,1.34451,0.0672
20.8439,82204.6381,-1.50273,1.43309,0.20892
20.8484,82204.648,-1.51006,1.42698,0.29199
20.853,82204.6578,-1.39094,1.17225,0.25351
20.8629,82204.668,-1.11239,0.74953,0.12278
20.8733,82204.678,-0.65179,0.27489,0.0336
20.881,82204.6881,-0.19853,-0.22969,0.09529
20.8987,82204.6981,0.19303,-0.55344,0.26695
20.9031,82204.708,0.28161,-0.26389,0.32193
20.9189,82204.718,0.05803,0.29932,0.16005
20.9255,82204.728,-0.26512,0.46976,0.00305
20.9358,82204.738,-0.64202,0.69761,-0.12095
20.9439,82204.7481,-0.78618,1.11239,-0.15211
20.9534,82204.7581,-0.78924,1.79411,-0.19731
20.9611,82204.7681,-0.77213,2.17773,-0.24435
20.973,82204.778,-0.87659,2.67376,-0.27733
20.981,82204.788,-1.06718,3.01218,-0.26328
20.993,82204.798,-1.30481,3.31333,-0.19487
21.0025,82204.8081,-1.49418,3.51186,-0.14416
21.0161,82204.819,-1.51556,3.53691,-0.07819
21.0234,82204.8291,-1.41354,3.5699,-0.03482
21.0385,82204.8391,-1.25411,3.64198,-0.06048
21.0461,82204.8491,-1.14476,3.62243,-0.13683
21.0595,82204.859,-1.05374,3.63587,-0.19242
21.0684,82204.869,-0.97861,3.87472,-0.25656
21.0741,82204.879,-0.91263,3.90343,-0.36102
21.0869,82204.8891,-0.87048,3.69451,-0.35858
21.0975,82204.8991,-0.83994,3.28951,-0.18326
21.1057,82204.9091,-0.72754,2.90894,-0.0226
21.1159,82204.9191,-0.52351,2.46606,0.05437
21.1248,82204.929,-0.3262,2.01891,0.04581
21.1341,82204.939,-0.01405,1.48074,-0.07697
21.1418,82204.949,0.25473,1.17042,-0.22785
21.1536,82204.9591,0.37202,1.02442,-0.26817
21.1649,82204.9691,0.31215,0.96456,-0.18204
21.1754,82204.9791,0.10324,0.98716,-0.02993
21.1821,82204.989,-0.09224,0.94012,0.1124
21.2006,82204.999,-0.18754,0.72082,0.26634
21.2156,82205.009,-0.12645,0.40012,0.3146
21.2176,82205.0191,0.12217,0.0788,0.22724
21.2248,82205.0291,0.38607,-0.03421,0.0391
21.2347,82205.0391,0.53634,-0.15333,-0.14905
21.2417,82205.049,0.52657,-0.23824,-0.27245
21.2535,82205.059,0.48503,-0.40928,-0.44043
21.2622,82205.069,0.43371,-0.57238,-0.55772
21.2734,82205.0791,0.38301,-0.95784,-0.59743
21.2846,82205.0891,0.42516,-1.40438,-0.57605
21.2984,82205.0991,0.92424,-1.57359,-0.62308
21.3024,82205.109,1.3323,-2.4514,-0.61331
21.3156,82205.119,1.8326,-3.60838,-0.59498
21.3222,82205.129,2.14475,-4.71649,-0.54611
21.3395,82205.139,2.33778,-6.0946,-0.51557
21.3468,82205.1491,2.41109,-7.08298,-0.42394
21.3544,82205.1591,2.4679,-7.70729,-0.38179
21.3663,82205.1691,2.53448,-7.83435,-0.46976
21.3763,82205.179,1.47341,-5.7232,-0.60903
21.3852,82205.189,0.686,-3.99872,-0.53084
21.3968,82205.199,-0.04643,-2.36894,0.19426
21.4031,82205.21,-0.45326,-1.61146,1.02992
21.4154,82205.22,-0.72326,-0.95845,1.65422
21.4232,82205.2301,-0.8827,-0.27061,1.89796
21.4352,82205.2401,-0.96883,0.18509,1.93705
21.4434,82205.2501,-1.02503,0.01588,1.7483
21.4573,82205.26,-1.02992,-0.57605,1.47707
21.4638,82205.27,-0.91385,-1.19913,1.28098
21.4769,82205.28,-0.58277,-2.57602,1.00976
21.4833,82205.2901,-0.11668,-4.02133,0.76847
21.5075,82205.3001,0.52229,-5.38111,0.52046
21.5116,82205.3101,1.1246,-6.05184,0.44227
21.5186,82205.32,1.6249,-6.8026,0.49663
21.5262,82205.3298,1.95416,-7.58756,0.59987
21.5371,82205.34,2.26998,-8.13795,0.62736
21.5494,82205.3501,2.43185,-8.50691,0.51924
21.5561,82205.3601,2.50577,-8.81906,0.36163
21.5673,82205.3701,2.54425,-9.09395,0.22052
21.578,82205.3811,2.5748,-9.31325,-0.07025
21.5841,82205.3911,2.48439,-9.21307,-0.35552
21.5969,82205.4011,2.26998,-8.95101,-0.65118
21.6053,82205.411,2.03479,-8.60892,-0.78741
21.62,82205.421,1.68904,-8.13673,-0.81795
21.6273,82205.431,1.34329,-7.62421,-0.74098
21.636,82205.4411,0.99082,-6.93149,-0.65179
21.6461,82205.4511,0.80023,-6.4544,-0.64019
21.6565,82205.4611,0.77885,-6.20822,-0.79779
21.6683,82205.471,0.99205,-6.30596,-1.04091
21.6762,82205.481,1.44592,-6.64255,-1.33291
21.6838,82205.491,1.85886,-6.96203,-1.56931
21.6975,82205.5011,2.40375,-7.41224,-1.82771
21.7108,82205.5111,2.73973,-7.72256,-1.90712
21.7218,82205.5211,3.14779,-8.10191,-1.9621
21.7353,82205.531,3.4349,-8.41894,-2.03357
21.7406,82205.541,3.73178,-8.74759,-2.15697
21.7518,82205.551,3.86556,-8.81662,-2.24982
21.7607,82205.561,3.90404,-8.7818,-2.24859
21.77,82205.5711,3.80691,-8.52279,-2.17224
21.7804,82205.5811,3.61266,-8.14528,-2.18079
21.7872,82205.5911,3.44406,-7.78426,-2.20828
21.7964,82205.601,3.37808,-7.40002,-2.1924
21.804,82205.611,3.39885,-6.88018,-2.13314
21.8178,82205.621,3.35609,-6.13736,-2.06228
21.8246,82205.6311,3.23636,-5.68044,-1.9847
21.8481,82205.6411,3.01584,-5.14654,-1.82954
21.8497,82205.6511,2.81548,-4.64258,-1.70004
21.8588,82205.661,2.62306,-4.04576,-1.58031
21.8649,82205.671,2.53387,-3.60227,-1.49479
21.8782,82205.681,2.48317,-3.0531,-1.3323
21.8892,82205.6911,2.46606,-2.76172,-1.20279
21.8971,82205.7011,2.38787,-2.29624,-1.0794
21.906,82205.7111,2.21316,-1.80694,-1.0061
21.9216,82205.721,1.89796,-1.16248,-0.82894
21.9245,82205.731,1.57909,-0.56261,-0.63286
21.9407,82205.741,1.22723,0.27672,-0.42638
21.9447,82205.7511,0.96883,0.92302,-0.21258
21.9567,82205.7611,0.54917,1.78922,-0.02199
21.9646,82205.7711,0.07758,2.55342,0.12523
21.9796,82205.7811,-0.40012,3.26202,0.36835
21.9895,82205.791,-0.7477,3.93703,0.6463
21.9992,82205.801,-1.07451,4.76353,0.93707
22.0075,82205.811,-1.43248,5.73969,1.24067
22.0224,82205.8211,-1.93217,7.02862,1.54121
22.0264,82205.832,-2.54792,8.29922,1.85153
22.0405,82205.8421,-3.18749,9.87708,2.2712
22.0523,82205.853,-3.70673,10.97786,2.64444
22.0579,82205.863,-4.16854,12.06337,2.9236
22.0662,82205.8731,-4.43244,12.94912,3.0024
22.0839,82205.8831,-4.70427,13.98576,2.9346
22.0917,82205.8931,-4.92724,14.41276,2.70797
22.1006,82205.903,-5.10683,14.25332,2.27486
22.1077,82205.913,-5.07934,13.86175,1.7147
22.1244,82205.923,-4.82461,13.51784,1.13438
22.1272,82205.9331,-4.42633,13.06335,0.63469
22.1395,82205.9431,-3.9187,12.08291,0.01833
22.1498,82205.9531,-3.60105,11.44028,-0.43127
22.1608,82205.9641,-3.30906,10.92349,-1.02564
22.1759,82205.9741,-3.16917,10.60951,-1.5125
22.1835,82205.984,-2.99019,10.00475,-1.95355
22.1973,82205.994,-2.68659,9.5069,-2.17468
22.214,82206.004,-2.25348,9.22468,-2.2095
22.2164,82206.0139,-1.7709,8.93757,-2.12764
22.2405,82206.0241,-1.42332,8.21064,-1.96088
22.2432,82206.034,-1.07146,7.09703,-1.64689
22.2437,82206.0441,-0.61453,5.76351,-1.24983
22.2473,82206.054,-0.24618,4.85149,-1.01281
22.2591,82206.064,0.10996,3.91137,-0.76419
22.2672,82206.074,0.2419,3.21071,-0.69089
22.2784,82206.0841,0.30238,2.70002,-0.7984
22.2879,82206.0941,0.37385,2.71285,-0.91508
22.2985,82206.1041,0.40012,2.97675,-0.93096
22.3066,82206.114,0.20647,3.12091,-0.78985
22.3181,82206.124,-0.26878,3.12274,-0.50763
22.3266,82206.134,-0.73487,3.11786,-0.26389
22.339,82206.144,-1.33413,3.1655,0.01344
22.3498,82206.1541,-1.77823,3.07204,0.27367
22.3601,82206.1641,-2.20034,2.73729,0.59743
22.3681,82206.174,-2.4569,2.20583,0.89247
22.3802,82206.184,-2.58946,1.45875,1.0849
22.3878,82206.194,-2.55464,0.58948,1.00365
22.4009,82206.204,-2.13497,-0.15821,0.76725
22.4104,82206.2141,-1.507,-0.43066,0.64263
22.4202,82206.2241,-0.91874,-0.39218,0.70738
22.4269,82206.234,-0.77091,-0.32987,0.89858
22.4385,82206.244,-0.90042,-0.36163,1.31764
22.4468,82206.254,-1.15881,-0.33964,1.78434
22.4594,82206.264,-1.53022,-0.55833,2.30174
22.4678,82206.274,-1.87413,-0.98533,2.60168
22.4805,82206.285,-2.35244,-1.91873,2.77699
22.4885,82206.295,-2.5693,-2.78921,2.66459
22.5139,82206.3051,-2.56014,-3.7727,2.3274
22.5241,82206.3151,-2.37321,-4.55339,1.76968
22.5285,82206.325,-1.77945,-4.88387,0.82161
22.53,82206.335,-0.95784,-4.16244,0.01222
22.543,82206.345,-0.07636,-2.60045,-0.60292
22.5485,82206.355,0.27855,-1.41232,-0.71654
22.5627,82206.3651,0.21869,-0.19548,-0.47281
22.5684,82206.3751,-0.19181,0.67745,-0.16921
22.5811,82206.385,-0.71716,1.39338,0.06842
22.5895,82206.3961,-0.96395,1.52167,0.09102
22.6015,82206.406,-0.75869,1.27182,-0.09163
22.6094,82206.416,-0.17654,1.01404,-0.27306
22.6215,82206.426,0.58154,0.6243,-0.36713
22.6304,82206.436,1.04702,0.1967,-0.31826
22.6413,82206.446,1.45142,-0.29871,-0.09896
22.6556,82206.4561,1.62063,-0.74159,0.25229
22.6667,82206.4661,1.6585,-1.46241,0.7984
22.6717,82206.476,1.59558,-1.97187,1.29259
22.6819,82206.486,1.43126,-2.45262,1.76296
22.6927,82206.496,1.3097,-3.0189,2.21194
22.7017,82206.506,1.2706,-3.8118,2.86251
22.7098,82206.5161,1.24555,-4.52346,3.55829
22.7242,82206.5261,1.20585,-5.33774,4.26628
22.7334,82206.536,1.21562,-5.93395,4.75986
22.7434,82206.546,1.31336,-6.50571,5.22901
22.7499,82206.556,1.50273,-6.904,5.39211
22.7654,82206.566,1.86558,-7.24669,5.39761
22.7762,82206.576,2.15513,-7.27052,5.4141
22.7847,82206.5861,2.28097,-6.94126,5.47396
22.7922,82206.596,2.10443,-6.60712,5.52222
22.8027,82206.6071,1.61879,-6.06345,5.58209
22.8107,82206.6171,1.27121,-5.48435,5.61935
22.8279,82206.627,0.94745,-4.88692,5.67616
22.834,82206.6381,0.90408,-4.69144,5.7232
22.8695,82206.648,1.02748,-4.69328,5.77634
22.8713,82206.6578,1.47768,-4.70183,5.63462
22.8722,82206.6678,1.64078,-4.68534,5.42143
22.8735,82206.678,1.92056,-4.62608,4.91197
22.8835,82206.6881,2.27975,-4.33531,3.95108
22.8915,82206.6981,2.33351,-3.97429,3.36526
22.9032,82206.708,2.02196,-3.44528,2.9853
22.9119,82206.718,1.51678,-2.95598,2.89733
22.925,82206.728,0.81612,-2.43735,2.90894
22.932,82206.738,0.24984,-2.03296,2.88695
22.9466,82206.748,-0.52779,-1.47585,2.76355
22.9525,82206.7581,-0.95417,-1.23028,2.76661
22.965,82206.7681,-1.28831,-1.29931,2.92666
22.9722,82206.778,-1.4001,-1.74585,3.08915
22.9867,82206.788,-1.29137,-2.78371,3.21926
22.9921,82206.798,-0.94073,-3.98834,3.14962
23.0058,82206.808,-0.37568,-5.39761,2.82342
23.0122,82206.8181,-0.13683,-6.02985,2.59923
23.03,82206.8281,-0.20647,-6.17157,2.49294
23.0416,82206.838,-0.63286,-5.72747,2.56747
23.047,82206.848,-1.31031,-4.83744,2.75134
23.0543,82206.858,-1.88452,-4.02988,2.84785
23.068,82206.868,-2.39887,-3.34265,2.8503
23.0715,82206.8781,-2.71285,-3.08304,2.77455
23.0834,82206.8881,-3.08059,-3.0415,2.62672
23.0912,82206.898,-3.42695,-3.12702,2.5522
23.1035,82206.908,-3.82951,-3.13924,2.51676
23.1119,82206.918,-4.08608,-3.08243,2.43918
23.1244,82206.928,-4.21436,-2.95903,2.22844
23.1325,82206.939,-4.15633,-2.71774,1.87536
23.1536,82206.949,-3.93458,-2.34817,1.54793
23.1605,82206.959,-3.68596,-1.93033,1.36345
23.175,82206.9691,-3.35487,-1.61146,1.17164
23.1852,82206.9789,-3.16856,-1.52228,1.07329
23.1864,82206.989,-3.02439,-1.49295,0.92302
23.1921,82206.999,-2.98224,-1.40194,0.71716
23.2047,82207.009,-3.09953,-1.19546,0.49297
23.2174,82207.019,-3.23331,-1.03908,0.37385
23.2254,82207.0291,-3.317,-0.9334,0.13744
23.2344,82207.0391,-3.32372,-0.99449,-0.18326
23.245,82207.049,-3.23514,-1.24922,-0.66829
23.2517,82207.059,-3.16917,-1.45752,-0.96883
23.2679,82207.069,-3.15939,-1.63773,-1.27426
23.2718,82207.079,-3.25408,-1.75441,-1.37384
23.2884,82207.0891,-3.44345,-1.79045,-1.35734
23.2923,82207.0991,-3.63526,-1.80877,-1.35184
23.3047,82207.109,-3.77576,-1.79228,-1.4337
23.3128,82207.119,-3.87227,-1.75746,-1.65728
23.3234,82207.129,-3.90343,-1.69026,-2.02807
23.3317,82207.139,-3.84601,-1.58581,-2.45079
23.344,82207.149,-3.72628,-1.45264,-2.91933
23.3518,82207.1591,-3.61082,-1.31458,-3.25347
23.3699,82207.1691,-3.51553,-1.39766,-3.51797
23.3724,82207.179,-3.47949,-1.66094,-3.65175
23.3841,82207.189,-3.41779,-2.09893,-3.83807
23.3921,82207.199,-3.27363,-2.38482,-4.09035
23.405,82207.209,-3.04089,-2.60168,-4.48497
23.4121,82207.2191,-2.87656,-2.68536,-4.74031
23.4274,82207.2291,-2.44285,-2.73545,-5.07568
23.4331,82207.239,-1.83321,-2.87168,-5.26077
23.4459,82207.249,-1.05741,-2.98652,-5.38722
23.4533,82207.259,-0.41356,-2.92604,-5.43304
23.4759,82207.269,0.30665,-2.74767,-5.40188
23.4816,82207.279,0.71654,-2.75439,-5.18625
23.5045,82207.2891,0.95356,-2.9346,-4.74948
23.5088,82207.299,0.97616,-3.05616,-4.3011
23.5102,82207.309,0.86376,-2.87046,-3.90709
23.5149,82207.32,0.6017,-2.15452,-3.66336
23.5256,82207.33,0.18754,-1.03114,-3.56196
23.5332,82207.34,-0.28466,-0.18876,-3.45017
23.5545,82207.35,-0.78252,0.47709,-3.37808
23.5682,82207.36,-1.24494,0.59437,-3.38725
23.5695,82207.3701,-1.59925,0.5791,-3.46238
23.5787,82207.3801,-1.82465,0.60537,-3.42634
23.5929,82207.39,-2.06595,0.71227,-3.3225
23.6005,82207.4,-2.37138,1.10567,-3.11847
23.6071,82207.41,-2.7434,1.71775,-2.69697
23.62,82207.42,-3.11053,2.09527,-2.39826
23.6292,82207.4301,-3.4972,2.33534,-2.13314
23.6333,82207.4401,-3.7611,2.49477,-1.90712
23.6461,82207.45,-4.0482,2.7043,-1.5351
23.6532,82207.46,-4.27117,2.85579,-1.13682
23.6663,82207.47,-4.51918,2.73118,-0.69516
23.6741,82207.481,-4.78124,2.62,-0.39645
23.6885,82207.491,-5.11783,2.7941,-0.0226
23.6964,82207.501,-5.47702,3.13007,0.43249
23.7088,82207.5111,-5.87713,3.42268,1.04763
23.7157,82207.5211,-6.11293,3.57295,1.4844
23.7293,82207.532,-6.21922,3.81669,2.0354
23.7381,82207.543,-6.23205,3.99995,2.26875
23.7532,82207.553,-6.13492,4.23818,2.30479
23.7596,82207.564,-5.92967,4.29011,2.23332
23.7723,82207.574,-5.48496,4.17526,2.07633
23.7796,82207.585,-4.99138,4.15755,1.82527
23.8052,82207.596,-4.49108,3.99872,1.46241
23.8134,82207.606,-4.35303,3.75988,1.3604
23.8154,82207.616,-4.3011,3.45505,1.38605
23.8302,82207.626,-4.26873,3.25408,1.49967
23.8495,82207.637,-4.25956,3.29073,1.66644
23.8563,82207.647,-4.1887,3.50514,1.75318
23.862,82207.657,-4.05065,3.90954,1.82893
23.8643,82207.668,-3.9523,4.3854,1.80877
23.8746,82207.678,-3.98834,4.59676,1.70004
23.8876,82207.6881,-4.07203,4.39273,1.55832
23.8963,82207.6981,-4.09768,4.04271,1.39583
23.9035,82207.708,-4.07203,3.64748,1.2706
23.9161,82207.718,-4.05798,3.29562,1.21257
23.9212,82207.728,-4.14106,3.30784,1.23456
23.936,82207.738,-4.36219,3.59128,1.37078
23.9413,82207.748,-4.64441,3.99933,1.5797
23.9561,82207.7581,-4.90891,4.37746,1.86436
23.9614,82207.7681,-4.97428,4.63402,1.96454
23.9729,82207.778,-4.87837,4.66518,1.79778
23.981,82207.788,-4.7788,4.50208,1.48807
23.993,82207.798,-4.71588,4.31637,1.08062
24.0014,82207.808,-4.80262,4.37074,0.81062
24.0141,82207.8181,-5.12272,4.51979,0.70188
24.0218,82207.8281,-5.35362,4.54606,0.70188
24.0333,82207.838,-5.60591,4.64319,0.70494
24.0423,82207.848,-5.63706,4.60959,0.68478
24.0586,82207.858,-5.42937,4.49963,0.70494
24.0627,82207.868,-5.15265,4.49658,0.77274
24.0805,82207.8781,-4.80201,4.5931,0.81612
24.0867,82207.8881,-4.68595,4.57416,0.7477
24.0933,82207.898,-4.63952,4.38723,0.55833
24.1012,82207.908,-4.67434,4.21253,0.31521
24.1181,82207.918,-4.69206,3.8625,-0.00794
24.1239,82207.928,-4.64685,3.55096,-0.29627
24.134,82207.9381,-4.48681,3.17161,-0.59254
24.1432,82207.9481,-4.23818,2.82892,-0.73243
24.1529,82207.958,-3.91381,2.24859,-0.86132
24.1652,82207.968,-3.62304,1.92423,-1.1246
24.1726,82207.978,-3.40374,1.8497,-1.50273
24.1818,82207.988,-3.2046,1.61024,-1.5235
24.1968,82207.998,-2.85579,1.35368,-1.30603
24.2038,82208.0081,-2.30174,1.07268,-1.08062
24.2158,82208.0181,-1.80816,-0.56016,-1.08001
24.2204,82208.028,-1.55893,-1.63956,-1.09101
24.2323,82208.0379,-1.20951,-2.78738,-0.96822
24.2404,82208.048,-0.95784,-3.5253,-0.77763
24.2535,82208.058,-0.72449,-3.9859,-0.5565
24.2605,82208.068,-0.65546,-4.22413,-0.46609
24.2729,82208.078,-0.96761,-4.14594,-0.28466
24.2834,82208.088,-1.9285,-3.9468,-0.02505
24.292,82208.098,-2.63466,-4.27056,0.42699
24.3006,82208.108,-3.20338,-4.10929,0.83261
24.3135,82208.118,-3.66153,-3.33594,1.10872
24.3206,82208.128,-3.81974,-2.1307,1.16064
24.3333,82208.138,-3.85028,-0.89247,0.98777
24.3406,82208.148,-3.77576,-0.37507,0.74892
24.352,82208.158,-3.53141,0.10568,0.26267
24.3605,82208.168,-3.25897,0.0281,-0.26328
24.372,82208.1779,-2.68842,-0.58277,-0.95234
24.3805,82208.188,-1.88757,-1.46241,-1.37567
24.393,82208.1978,-0.6127,-2.3781,-1.35184
24.401,82208.208,0.6182,-2.8674,-1.12888
24.4166,82208.218,1.82038,-2.68781,-0.90347
24.4209,82208.228,2.41842,-2.30785,-0.78007
24.4398,82208.238,2.6591,-1.83137,-0.69455
24.4441,82208.248,2.45812,-1.6475,-0.71471
24.455,82208.2578,2.01097,-1.40255,-0.74709
24.4611,82208.268,1.71531,-0.97861,-0.67317
24.4778,82208.278,1.51922,-0.01344,-0.4722
24.4825,82208.288,1.45814,0.7367,-0.17287
24.4932,82208.298,1.46852,1.27854,0.17776
24.5037,82208.308,1.5687,1.5687,0.43249
24.5148,82208.318,1.79778,1.71531,0.65546
24.5211,82208.328,2.00303,1.72325,0.41905
24.5334,82208.338,2.24371,1.81916,-0.01527
24.5409,82208.348,2.16246,1.98104,-0.26267
24.5567,82208.358,2.27608,2.02135,-0.53084
24.5611,82208.368,2.49294,1.91873,-0.55772
24.5749,82208.378,2.94376,1.51678,-0.48258
24.5846,82208.388,3.53324,1.03481,-0.49969
24.595,82208.398,4.26506,0.35491,-0.64935
24.6051,82208.408,4.80507,-0.21502,-0.84116
24.6139,82208.418,5.37256,-0.86437,-1.15454
24.6216,82208.428,5.6786,-0.9499,-1.42759
24.6339,82208.438,5.67188,0.0672,-1.5797
24.6416,82208.448,5.44953,0.3598,-1.41537
24.6548,82208.458,4.93152,-0.7251,-1.03481
24.6679,82208.468,4.34264,-1.96088,-0.66401
24.6737,82208.478,3.8399,-2.38115,-0.44043
24.682,82208.488,3.52897,-2.09588,-0.37202
24.6937,82208.498,3.24186,-1.58764,-0.34392
24.707,82208.508,2.89733,-1.07512,-0.33231
24.7136,82208.518,2.35,-0.56627,-0.32498
24.7271,82208.528,1.76907,-0.13622,-0.29199
24.7334,82208.5379,1.19485,0.25229,-0.21197
24.7409,82208.548,0.7251,0.56261,-0.09835
24.7559,82208.558,0.44715,0.81489,0.02077
24.7609,82208.568,0.42577,0.78741,0.11301
24.7728,82208.578,0.63041,0.5565,0.2248
24.782,82208.588,0.89858,0.37996,0.29016
24.7935,82208.598,1.35979,0.27611,0.33109
24.8028,82208.608,1.66949,0.25045,0.32559
24.8126,82208.618,2.00242,0.22907,0.28894
24.8221,82208.628,2.17896,0.24374,0.27367
24.8349,82208.638,2.28952,0.35797,0.26084
24.8412,82208.648,2.2712,0.38607,0.25656
24.8569,82208.658,2.16857,0.3427,0.24068
24.8631,82208.668,2.03724,0.32193,0.20525
24.8735,82208.678,1.91567,0.42516,0.12523
24.8815,82208.688,1.788,0.56261,0.02688
24.8933,82208.698,1.67133,0.64141,-0.08491
24.904,82208.708,1.60596,0.59987,-0.15149
24.9141,82208.718,1.54732,0.47709,-0.19242
24.9222,82208.729,1.43309,0.37324,-0.20342
24.9402,82208.739,1.23883,0.40134,-0.19364
24.9434,82208.749,1.06046,0.41966,-0.18815
24.9552,82208.759,0.83811,0.40989,-0.18509
24.9625,82208.769,0.62553,0.40073,-0.16371
24.9764,82208.779,0.40561,0.42272,-0.10507
24.9846,82208.789,0.25473,0.4667,-0.04704
25.0005,82208.799,0.13195,0.48442,0.03421
25.0025,82208.809,-0.00244,0.43066,0.08919
25.0145,82208.819,-0.19242,0.31948,0.13134
25.0222,82208.829,-0.38057,0.19487,0.16066
25.0362,82208.839,-0.61148,0.09407,0.19303
25.0439,82208.849,-0.79901,0.10446,0.23274
25.0539,82208.859,-1.09772,0.19975,0.30727
25.0623,82208.869,-1.40316,0.30849,0.38179
25.0761,82208.879,-1.75502,0.41172,0.46365
25.0836,82208.889,-1.97859,0.46609,0.48503
25.0968,82208.899,-2.11543,0.4893,0.38546
25.1022,82208.909,-2.08122,0.45571,0.26145
25.1166,82208.919,-1.84542,0.39034,0.13806
25.1279,82208.9289,-1.56626,0.39767,0.10201
25.1372,82208.939,-1.18264,0.55589,0.08308
25.144,82208.949,-0.91935,0.68417,0.05559
25.1575,82208.959,-0.77397,0.67378,0.00122
25.1662,82208.969,-0.75564,0.5229,-0.07758
25.1798,82208.979,-0.81734,0.33475,-0.17226
25.1822,82208.989,-0.85094,0.16493,-0.24251
25.1997,82208.999,-0.81856,-0.04032,-0.30116
25.2148,82209.009,-0.73059,-0.25779,-0.30421
25.2168,82209.0189,-0.55894,-0.51129,-0.25962
25.2224,82209.029,-0.37385,-0.61453,-0.19487
25.2357,82209.039,-0.10324,-0.53695,-0.11057
25.2432,82209.049,0.0843,-0.30299,-0.04032
25.2535,82209.059,0.20281,-0.0171,0.02993
25.2624,82209.069,0.20892,0.1014,0.07758
25.274,82209.079,0.11973,0.13011,0.10873
25.284,82209.089,0.01833,0.07514,0.12156
25.2943,82209.099,-0.06964,-0.01466,0.10018
25.3028,82209.11,-0.11362,-0.09835,0.04215
25.316,82209.12,-0.16493,-0.17532,-0.05986
25.3228,82209.13,-0.19609,-0.18448,-0.16677
25.3366,82209.14,-0.22907,-0.12034,-0.22846
25.3428,82209.15,-0.27611,-0.07391,-0.24129
25.3563,82209.16,-0.37324,-0.06109,-0.20097
25.3628,82209.17,-0.42211,-0.0562,-0.13989
25.3746,82209.18,-0.38851,-0.05009,-0.06048
25.3844,82209.19,-0.28588,-0.04826,0.00489
25.3962,82209.2,-0.1631,-0.05315,0.03848
25.4033,82209.21,-0.05009,-0.06414,0.02199
25.4232,82209.22,0.05437,-0.06231,-0.00733
25.4252,82209.23,0.11362,-0.0452,-0.0171
25.4367,82209.241,0.16249,-0.03787,-0.00183
25.4443,82209.251,0.15211,-0.06842,0.00916
25.4575,82209.261,0.11057,-0.08125,-0.00061
25.4696,82209.271,0.07147,-0.07575,-0.00855
25.4777,82209.281,0.00916,-0.10629,0.00183
25.4891,82209.292,-0.03971,-0.17715,0.01588
25.4976,82209.302,-0.07453,-0.25534,0.02138
25.5081,82209.312,-0.07269,-0.24068,0.01649
25.5204,82209.3219,-0.07453,-0.14233,0.01405
25.5285,82209.332,-0.08552,-0.06353,-0.00122
25.5389,82209.342,-0.11545,0.01466,-0.03604
25.5503,82209.352,-0.10446,0.07697,-0.05131
25.5577,82209.362,-0.0898,0.11668,-0.01772
25.5683,82209.372,-0.08125,0.10629,0.04398
25.5812,82209.382,-0.11973,-0.00367,0.135
25.5925,82209.392,-0.12584,-0.1295,0.18204
25.5995,82209.402,-0.07636,-0.22541,0.16371
25.6066,82209.412,-0.01161,-0.22297,0.05498
25.6228,82209.422,0.06414,-0.1295,-0.1631
25.6383,82209.432,0.11912,-0.00977,-0.32803
25.6392,82209.442,0.13867,0.11118,-0.42516
25.6515,82209.452,0.1069,0.16127,-0.43433
25.6575,82209.462,0.04459,0.15699,-0.36957
25.6734,82209.472,0.01649,0.12889,-0.28772
25.678,82209.482,0.00611,0.01649,-0.16921
25.6896,82209.492,0.06475,-0.11729,-0.09102
25.6972,82209.502,0.17654,-0.21014,0.07941
25.7051,82209.5118,0.2755,-0.23457,0.3207
25.7187,82209.5219,0.28833,-0.30971,0.65546
25.7253,82209.532,0.17471,-0.29749,1.0122
25.7401,82209.542,-0.05559,-0.16432,1.43798
25.7463,82209.552,-0.38362,-0.02688,1.92728
25.7598,82209.563,-0.87415,0.02077,2.58396
25.7675,82209.573,-1.22417,0.09835,3.025
25.7798,82209.583,-1.63834,0.36408,3.34143
25.7876,82209.593,-1.8949,0.62492,3.55279
25.8031,82209.603,-1.99875,0.86865,3.70673
25.8117,82209.613,-1.92484,1.13621,3.86739
25.8184,82209.623,-1.76601,1.41843,4.15266
25.8287,82209.633,-1.62857,1.61818,4.58943
25.8431,82209.643,-1.60291,1.51433,5.27177
25.8496,82209.653,-1.67377,1.10567,5.94494
25.8641,82209.663,-1.77212,0.59682,6.60956
25.8724,82209.6729,-1.80938,0.17349,6.99807
25.8827,82209.683,-1.83076,-0.11179,7.1685
25.889,82209.693,-1.82099,-0.37874,7.11902
25.9022,82209.703,-1.73913,-0.56749,6.80993
25.9076,82209.713,-1.57237,-0.59926,6.45746
25.9213,82209.723,-1.22723,-0.63225,5.9089
25.9265,82209.733,-0.86254,-0.69333,5.4196
25.9387,82209.743,-0.45876,-0.62064,4.95778
25.9464,82209.753,-0.16738,-0.40684,4.72443
25.959,82209.763,0.07453,-0.05315,4.51185
25.9687,82209.773,0.09468,0.27428,4.3011
25.9783,82209.783,-0.06842,0.64507,4.00178
25.9864,82209.793,-0.24251,1.01343,3.64931
25.9987,82209.8028,-0.3543,1.42148,3.20949
26.0089,82209.813,-0.34086,1.8497,2.69208
26.0213,82209.824,-0.1912,2.35733,1.95782
26.0284,82209.834,-0.06658,2.58213,1.34146
26.0529,82209.844,0.10507,2.58946,0.70311
26.0588,82209.854,0.34025,2.42391,0.0507
26.0729,82209.865,0.86132,2.18507,-0.85643
26.0757,82209.875,1.36834,1.9621,-1.52655
26.0827,82209.885,2.12764,1.57298,-2.4007
26.0883,82209.895,2.8167,1.1582,-3.10992
26.1017,82209.905,3.47827,0.70005,-3.78248
26.1095,82209.915,3.87899,0.36957,-4.29255
26.1203,82209.925,4.08302,-0.0788,-4.74826
26.1287,82209.935,4.0818,-0.48503,-5.16303
26.1416,82209.945,3.92786,-0.87904,-5.50512
26.1486,82209.955,3.68168,-1.10567,-5.6841
26.1601,82209.965,3.39213,-1.19791,-5.72442
26.1689,82209.975,3.05799,-1.1582,-5.6108
26.1812,82209.985,2.67131,-0.96028,-5.34263
26.1898,82209.995,2.3726,-0.65546,-5.01398
26.2077,82210.005,2.10749,-0.26878,-4.65724
26.2098,82210.015,1.9004,-0.03482,-4.4526
26.2321,82210.0249,1.68171,0.11484,-4.2785
26.2328,82210.035,1.57481,0.15027,-4.17954
26.241,82210.045,1.55526,0.14478,-4.0592
26.2474,82210.055,1.57848,0.0898,-3.95413
26.2591,82210.0649,1.63529,-0.21564,-3.80264
26.2676,82210.075,1.75563,-0.66218,-3.61571
26.279,82210.0849,2.00608,-1.21135,-3.37259
26.2875,82210.095,2.22111,-1.6304,-3.21926
26.299,82210.105,2.34633,-1.98837,-3.14718
26.3077,82210.115,2.30357,-2.17712,-3.16184
26.3191,82210.125,1.98043,-2.27669,-3.23453
26.3287,82210.1348,1.5461,-2.22599,-3.33227
26.3451,82210.145,0.92485,-1.90468,-3.48987
26.3523,82210.155,0.41722,-1.39461,-3.63282
26.3726,82210.165,-0.10507,-0.69455,-3.8344
26.3757,82210.175,-0.54,-0.08002,-4.03965
26.3885,82210.185,-0.9444,0.42272,-4.25834
26.3901,82210.195,-1.17042,0.686,-4.41289
26.4033,82210.205,-1.3323,0.90652,-4.54484
26.4105,82210.215,-1.33108,0.92668,-4.56072
26.4209,82210.225,-1.25288,0.6243,-4.38235
26.4282,82210.235,-1.19974,0.27855,-4.08363
26.4402,82210.245,-1.16797,-0.03971,-3.4856
26.4484,82210.255,-1.18508,-0.22846,-2.75317
26.4712,82210.265,-1.26144,-0.49908,-1.7428
26.4732,82210.2749,-1.31825,-0.74953,-0.87354
26.4816,82210.285,-1.2706,-1.07024,0.28833
26.492,82210.295,-1.08001,-1.26877,1.27365
26.5041,82210.305,-0.72937,-1.39705,2.10443
26.5087,82210.315,-0.34819,-1.38239,2.474
26.5311,82210.325,0.01405,-1.32252,2.53998
26.5332,82210.335,0.33414,-1.28587,2.40925
26.5445,82210.345,0.65912,-1.22478,2.13314
26.5517,82210.355,0.88759,-1.09834,1.87475
26.5621,82210.365,0.99205,-0.88514,1.70309
26.5691,82210.375,0.93401,-0.81245,1.7037
26.58,82210.385,0.72815,-0.95112,1.7935
26.5916,82210.395,0.54367,-1.12155,1.92361
26.6017,82210.405,0.42761,-1.21868,2.09282
26.6103,82210.415,0.43799,-1.22234,2.21255
26.6231,82210.425,0.56016,-1.18997,2.37138
26.6281,82210.435,0.72876,-1.15759,2.52287
26.6421,82210.4449,0.89125,-1.1973,2.77333
26.6491,82210.455,0.94806,-1.25716,3.05433
26.6627,82210.465,0.91202,-1.33535,3.49659
26.6723,82210.475,0.75869,-1.41904,3.88755
26.6916,82210.485,0.53451,-1.52228,4.22413
26.6952,82210.495,0.35064,-1.63345,4.37929
26.7028,82210.505,0.21747,-1.73791,4.40251
26.7097,82210.515,0.14478,-1.78373,4.30721
26.7248,82210.525,0.12828,-1.62796,4.03843
26.7281,82210.535,0.15882,-1.26083,3.65481
26.7417,82210.545,0.20097,-0.67623,2.9908
26.7483,82210.555,0.23763,-0.33964,2.54059
26.7599,82210.565,0.28344,0.08002,1.86497
26.7694,82210.575,0.34208,0.39095,1.35246
26.7799,82210.585,0.40623,0.68234,0.91202
26.7881,82210.595,0.42883,0.85582,0.65546
26.8172,82210.605,0.39095,1.02992,0.37507
26.8206,82210.615,0.27978,1.18752,0.11973
26.8227,82210.625,0.10263,1.36101,-0.18448
26.8297,82210.6349,-0.05376,1.48624,-0.42516
26.8456,82210.645,-0.23457,1.61757,-0.69761
26.8525,82210.655,-0.34758,1.65056,-0.89186
26.8606,82210.665,-0.38546,1.5852,-1.05863
26.8687,82210.675,-0.32803,1.47096,-1.1692
26.8813,82210.685,-0.16616,1.28831,-1.29381
26.8886,82210.6949,0.03482,1.05619,-1.38361
26.9012,82210.705,0.29993,0.66523,-1.42209
26.9086,82210.715,0.58826,0.21258,-1.38789
26.926,82210.725,0.93096,-0.37446,-1.26816
26.9457,82210.735,1.17286,-0.72082,-1.12216
26.9508,82210.745,1.33413,-0.85094,-0.92546
26.9534,82210.755,1.32375,-0.79412,-0.77519
26.9647,82210.765,1.20463,-0.59254,-0.61209
26.9687,82210.775,0.99632,-0.31887,-0.45265
26.9803,82210.785,0.66645,-0.05559,-0.20097
26.9885,82210.795,0.32254,0.08796,0.0898
27.0059,82210.805,-0.06414,0.2419,0.58277
27.016,82210.8149,-0.36957,0.38423,1.06963
27.0221,82210.825,-0.78741,0.47403,1.70676
27.0283,82210.835,-1.17592,0.44043,2.1643
27.0403,82210.845,-1.53755,0.2755,2.47584
27.0482,82210.855,-1.72508,0.1295,2.53265
27.061,82210.865,-1.83015,0.00428,2.40742
27.0732,82210.875,-1.82465,-0.09102,2.15758
27.081,82210.8849,-1.74646,-0.28527,1.83137
27.0884,82210.895,-1.62673,-0.50763,1.58092
27.1012,82210.905,-1.40194,-0.81489,1.383
27.1096,82210.916,-1.13315,-0.96456,1.25533
27.1227,82210.926,-0.78618,-1.03175,1.12644
27.1297,82210.936,-0.52473,-1.0965,0.98227
27.1432,82210.946,-0.22052,-1.18997,0.82161
27.152,82210.956,0.00061,-1.21318,0.6689
27.164,82210.966,0.18631,-1.25411,0.53023
27.1706,82210.977,0.29444,-1.35612,0.41661
27.1845,82210.987,0.39156,-1.46424,0.28527
27.1989,82210.9969,0.48014,-1.45752,0.15088
27.2039,82211.007,0.57421,-1.30786,-0.02443
27.2129,82211.017,0.63102,-1.14904,-0.1967
27.2216,82211.027,0.6463,-0.94012,-0.36285
27.2363,82211.037,0.61148,-0.74831,-0.57482
27.2414,82211.047,0.5565,-0.42272,-0.82161
27.2507,82211.057,0.55161,0.00977,-1.0403
27.2615,82211.067,0.57605,0.47586,-1.26083
27.2697,82211.077,0.59926,0.83078,-1.45875
27.282,82211.087,0.62492,1.06535,-1.62796
27.2898,82211.097,0.65485,1.23945,-1.72142
27.3014,82211.107,0.67806,1.3775,-1.74769
27.3098,82211.117,0.68967,1.44225,-1.72264
27.3232,82211.127,0.69089,1.49295,-1.61879
27.3298,82211.137,0.67928,1.50945,-1.48074
27.3413,82211.147,0.63652,1.48501,-1.27426
27.3506,82211.157,0.57055,1.45508,-1.08367
27.3623,82211.167,0.44288,1.37567,-0.82222
27.3703,82211.177,0.31154,1.26999,-0.58154
27.3822,82211.187,0.15944,1.09589,-0.32132
27.3911,82211.197,0.07391,0.98716,-0.15577
27.4053,82211.207,0.02321,0.91569,-0.05925
27.4114,82211.217,0.05131,0.97189,-0.07147
27.424,82211.227,0.15516,1.18264,-0.16982
27.4315,82211.237,0.26756,1.44592,-0.32437
27.4505,82211.248,0.32132,1.71714,-0.53084
27.4694,82211.258,0.26878,1.88818,-0.67623
27.4706,82211.2679,0.11973,1.9957,-0.76236
27.4727,82211.278,-0.0281,2.00242,-0.78496
27.4857,82211.288,-0.20708,1.93095,-0.78741
27.4916,82211.298,-0.34636,1.78373,-0.75869
27.5032,82211.308,-0.46365,1.48013,-0.67256
27.5112,82211.318,-0.52107,1.13987,-0.53084
27.5234,82211.328,-0.51618,0.76236,-0.28588
27.5323,82211.338,-0.47098,0.31948,-0.0898
27.5493,82211.349,-0.29627,-0.29505,0.11362
27.5532,82211.3589,-0.01222,-0.68722,0.15333
27.5663,82211.3689,0.34697,-0.99815,0.05803
27.5732,82211.379,0.6744,-1.07146,-0.16188
27.5859,82211.3888,0.86499,-1.05558,-0.47464
27.5934,82211.399,0.8656,-0.96578,-0.71593
27.6114,82211.409,0.71838,-0.75198,-0.91447
27.6152,82211.4189,0.55283,-0.47892,-1.0232
27.6286,82211.429,0.32193,-0.18876,-1.14171
27.6341,82211.439,0.14172,-0.00061,-1.22295
