AppTimestamp(s),SensorTimestamp(s),acc_x,acc_y,acc_z,gyro_x,gyro_y,gyro_z,mag_x,mag_y,mag_z,PitchX,RollY,YawZ,Quat_w,Quat_x,Quat_y,Quat_z
0.0307,82183.7974,-2.92093,3.36625,8.92558,-0.80695,2.63466,1.8497,-21.48,-29.04,-17.94,39.776005,15.124753,-130.844269,0.4284348663149098,0.25280505,-0.2551963,-0.82910073
0.0324,82183.8174,-2.37744,3.91691,9.49062,-1.18508,2.71163,2.02319,-22.02,-29.04,-19.02,38.762344,16.063795,-127.484894,0.45482576465761615,0.26357901,-0.23637739,-0.81718135
0.034,82183.8374,-1.95367,4.41012,10.22803,-1.16736,2.21927,1.9676,-22.14,-28.38,-19.98,37.543594,16.755089,-123.862938,0.4821156515913724,0.27152091,-0.21601436,-0.80447417
0.0574,82183.8572,-1.82199,4.43885,10.43393,-0.98349,1.75746,1.81305,-22.38,-27.54,-20.94,36.435009,17.009151,-120.481216,0.5064315148062779,0.27541739,-0.19868471,-0.79258865
0.0914,82183.8774,-2.15957,3.94086,10.20409,-0.85094,1.44347,1.67683,-22.86,-26.52,-22.08,35.476456,17.003426,-117.469704,0.5273940242478835,0.27674648,-0.18448082,-0.7818144
0.093,82183.8974,-2.727,2.77967,10.49857,-0.73182,1.31336,1.73058,-22.68,-25.5,-23.22,34.553143,16.910624,-114.722389,0.5461820196813233,0.27666739,-0.17164291,-0.77180248
0.1159,82183.9173,-2.76291,2.00395,11.04685,-0.51129,1.27365,2.01036,-22.8,-24.72,-24.42,33.727585,16.703697,-111.944183,0.564774668152271,0.27581871,-0.16008598,-0.76113474
0.1324,82183.9374,-1.70228,3.25611,10.64941,-0.38912,1.43248,2.16368,-22.98,-23.52,-25.2,33.230774,16.368572,-108.892761,0.5846288442765779,0.27555606,-0.15094844,-0.74799234
0.152,82183.9574,-0.89543,5.69102,9.60793,-0.27855,1.14415,1.89002,-22.74,-22.86,-26.1,33.021404,16.07588,-105.803009,0.604329561747426,0.27666706,-0.1435813,-0.73322952
0.1735,82183.9773,-1.98958,5.80833,10.94868,-0.27367,1.17714,1.2706,-22.62,-21.84,-26.94,32.832474,15.730674,-103.318634,0.6197831229901333,0.2766231,-0.13814907,-0.72129285
0.202,82183.9974,-3.40695,3.98874,9.67976,-0.32254,0.88331,1.23639,-22.5,-20.88,-27.54,32.526142,16.005732,-101.532089,0.6314665005968603,0.27892473,-0.13027099,-0.71167445
0.2188,82184.0174,-2.30083,3.01669,11.67892,-0.35491,0.89919,1.41721,-22.5,-20.52,-28.38,32.054588,15.809505,-99.649246,0.6431739254893826,0.27742073,-0.12367858,-0.70290017
0.2337,82184.0373,-2.12845,3.75411,11.42034,-0.25107,1.30175,1.38361,-22.8,-19.62,-28.86,31.622456,15.711889,-97.633873,0.6556362050141016,0.27670467,-0.11654214,-0.69281572
0.2531,82184.0573,-2.1045,3.7589,8.99502,-0.16493,1.49967,1.49234,-23.1,-19.08,-29.16,31.355213,16.11672,-95.679581,0.6679340438658814,0.27963191,-0.10774101,-0.68122095
0.2716,82184.0773,-1.3623,4.81713,6.54335,-0.10507,0.69211,1.52961,-23.28,-18.3,-29.46,31.379242,16.467577,-93.639397,0.6802500177895872,0.28368422,-0.10081458,-0.66829604
0.2958,82184.0973,-1.00078,5.48512,7.73567,-0.17043,-0.24251,1.38178,-22.8,-17.16,-29.64,31.619528,15.725676,-91.668495,0.6908128292444727,0.28245685,-0.10188486,-0.65773493
0.3148,82184.1174,-0.92656,4.20182,9.73004,-0.33414,1.80144,1.4392,-22.62,-16.5,-30.06,31.568821,14.925684,-89.823227,0.7006633330274238,0.27925244,-0.10190794,-0.64861679
0.3313,82184.1374,-1.26414,6.45477,8.87531,-0.26267,1.7935,1.38239,-22.5,-15.66,-30.84,31.564575,15.784424,-87.791618,0.7127622640750586,0.28574958,-0.0915771,-0.6339801
0.3511,82184.1574,-0.89304,6.27281,7.85777,-0.09774,1.24311,1.12277,-22.02,-15.36,-31.44,31.73255,16.533602,-85.936386,0.7233342167839154,0.29223949,-0.08320414,-0.620049
0.375,82184.1774,-2.25294,5.46357,9.13148,0.09468,0.79229,1.21318,-22.02,-14.76,-32.1,32.00676,16.852144,-84.468018,0.7311834039905685,0.29659873,-0.07902089,-0.60922551
0.3937,82184.1974,-2.48039,4.82671,9.61272,0.32132,0.57177,1.62979,-21.6,-14.52,-32.7,32.537064,16.692595,-82.842888,0.7391174164899502,0.30003023,-0.07888658,-0.59788311
0.413,82184.2184,-1.36948,4.85544,9.96227,0.51068,0.28466,1.89368,-21.0,-14.28,-33.24,33.341789,15.950799,-80.732422,0.7486152147563269,0.30254683,-0.08273122,-0.58412004
0.4333,82184.2384,-0.81403,4.45322,11.50893,0.71654,1.02564,2.09649,-21.18,-13.92,-33.42,34.271763,14.647004,-78.17778,0.759344118652451,0.3036299,-0.0897144,-0.56846875
0.4682,82184.2583,0.75178,5.50906,9.83778,0.77885,0.90713,2.15941,-21.3,-13.92,-33.6,35.344692,13.88261,-75.392235,0.7708312565591313,0.30885696,-0.09315284,-0.54931694
0.4793,82184.2784,1.6113,5.42047,8.24563,1.03053,0.88698,1.98653,-21.6,-13.86,-33.72,36.580833,12.836274,-72.50811,0.7816089264618191,0.31425545,-0.09883924,-0.52968085
0.4981,82184.2984,1.27372,5.29837,6.67982,0.95478,0.77763,1.71714,-21.84,-13.8,-33.54,37.954834,11.763358,-69.875603,0.7902202004196199,0.32067946,-0.1058148,-0.51139021
0.5158,82184.3183,0.36152,4.92487,5.04698,0.5229,0.67684,1.64201,-22.32,-13.68,-33.96,39.131359,10.717751,-67.483582,0.7974819268453157,0.32613829,-0.11202328,-0.495083
0.5374,82184.3384,-0.17238,4.71179,5.26485,-0.03726,0.52107,1.82771,-22.68,-14.04,-34.32,39.747982,9.487648,-64.964752,0.8056975675451833,0.32755551,-0.11633492,-0.47960922
0.5547,82184.3584,0.61292,4.93445,6.6463,-0.42638,0.29138,1.99448,-22.98,-13.74,-34.74,39.784248,7.811921,-62.051544,0.815880930325481,0.32391059,-0.12007485,-0.46368337
0.5732,82184.3783,2.09971,5.91128,8.78672,-0.53512,0.26939,1.95171,-23.34,-13.08,-35.22,39.373459,5.662649,-58.862064,0.8272153203456675,0.31589743,-0.12482456,-0.44759631
0.5973,82184.3984,3.10767,6.14113,9.8689,-0.38851,0.49663,1.70248,-23.22,-12.54,-35.4,38.801025,3.612803,-55.804474,0.8380536269630795,0.30732188,-0.12909016,-0.43192026
0.6138,82184.4184,2.54504,5.30795,9.04769,-0.18448,0.57238,1.41171,-23.34,-11.46,-35.4,38.308323,2.10411,-53.207199,0.8471819769353055,0.30109021,-0.13140032,-0.41756597
0.6348,82184.4383,1.17555,4.23055,8.6718,0.07697,0.35613,1.44653,-23.46,-10.44,-35.7,37.923485,0.929212,-50.996567,0.8547255694316954,0.29657897,-0.13295364,-0.40473256
0.6533,82184.4584,1.10133,3.11486,8.28394,0.44349,0.07453,1.63406,-23.82,-10.26,-35.82,37.729671,-0.491138,-48.76738,0.8612965604179367,0.29281837,-0.13718075,-0.39192739
0.6746,82184.4794,1.40061,1.77889,7.60638,0.71166,-0.03726,1.81183,-24.0,-9.9,-36.0,37.782116,-2.426485,-46.133404,0.8676106424002362,0.28996837,-0.1452567,-0.37692255
0.6944,82184.4994,2.46124,0.50039,8.05888,0.58582,0.25107,2.1588,-24.24,-9.84,-36.3,37.697895,-4.50846,-43.289402,0.8742759303546123,0.28633147,-0.15367319,-0.3606112
0.7154,82184.5194,5.42526,0.60094,8.39647,0.21136,1.04641,2.62855,-24.6,-9.66,-36.54,37.146317,-6.713171,-39.726162,0.8836576235290855,0.2801944,-0.16023608,-0.33906445
0.735,82184.5394,7.8051,2.45406,8.78433,-0.28344,1.68416,2.65604,-24.24,-8.82,-36.54,36.004154,-8.537227,-35.572845,0.896048166591974,0.27183926,-0.16154903,-0.31161356
0.7553,82184.5594,8.4252,3.32555,7.98945,-0.55711,2.15147,2.31274,-24.48,-7.74,-36.42,34.444744,-9.66536,-31.595974,0.909025801906343,0.26197714,-0.15774976,-0.28311673
0.7796,82184.5804,7.44357,2.9736,6.00705,-0.83689,2.03418,1.95904,-23.94,-6.12,-36.84,32.704037,-10.071007,-28.127819,0.9211904810879361,0.25157851,-0.14984888,-0.25624532
0.8027,82184.6004,6.01423,3.15556,4.72855,-1.16248,1.30298,2.00791,-22.74,-4.62,-37.26,30.896498,-10.540039,-25.287628,0.9311663642055613,0.23943114,-0.1444429,-0.23396192
0.8173,82184.6203,5.8227,4.52744,7.09641,-1.22356,-0.05498,2.44713,-21.96,-3.06,-38.22,28.848568,-11.878517,-22.51082,0.9397212153800543,0.22343826,-0.1466441,-0.21329531
0.843,82184.6404,7.82425,6.02142,11.30303,-0.4948,-0.99449,2.64199,-20.7,-1.56,-39.0,26.83349,-14.610578,-19.419209,0.9460155960259526,0.20599169,-0.16072966,-0.1918017
0.8569,82184.6604,9.04769,8.22648,11.76032,0.26328,-0.91324,2.40192,-19.68,-0.36,-39.42,25.678686,-17.985666,-16.086176,0.948679159442031,0.1960036,-0.18161356,-0.16913591
0.875,82184.6803,8.9591,10.73799,10.31183,0.41356,-0.74526,1.87291,-19.68,0.96,-39.12,25.348076,-20.83024,-13.009487,0.9488888309815675,0.19441944,-0.19968422,-0.14811239
0.8947,82184.7004,8.62152,11.87764,9.62469,0.41844,-0.5901,1.22112,-19.92,2.04,-38.76,25.055355,-22.566498,-10.782853,0.9491005579224636,0.19383132,-0.21014297,-0.13220243
0.9172,82184.7204,7.45076,11.84172,9.20571,0.57727,-0.9444,0.31887,-20.46,2.64,-38.52,25.057144,-23.901325,-9.36374,0.9481772282253078,0.1950175,-0.21878655,-0.12272149
0.9353,82184.7414,5.59285,10.6518,9.28711,0.98655,-1.49112,-0.59132,-21.18,2.64,-38.04,25.742701,-25.410492,-8.869723,0.9443665084199916,0.20007825,-0.23057067,-0.12238365
0.9551,82184.7613,4.0462,8.82024,9.08839,1.35184,-1.72386,-1.39277,-21.78,2.52,-38.04,27.310081,-27.102901,-9.138753,0.937272022037313,0.21063425,-0.24525529,-0.1304002
0.9781,82184.7814,3.32555,6.92643,8.96389,1.61452,-1.39155,-2.12764,-22.44,1.86,-37.5,29.928886,-28.653927,-9.971645,0.926945332917242,0.22846532,-0.25990203,-0.14500649
0.9974,82184.8014,3.38061,4.89375,8.33422,1.71836,-0.60415,-2.85091,-23.1,0.96,-36.72,32.933014,-29.197546,-11.501113,0.9161955475018965,0.248704,-0.26797915,-0.16407076
1.0364,82184.8213,3.60567,3.97916,7.50582,1.74097,0.36224,-3.63892,-23.88,-0.6,-36.12,36.302444,-28.237034,-13.90239,0.9055637370218902,0.27184311,-0.26664945,-0.18695912
1.0474,82184.8414,4.80277,4.05338,5.21697,1.90101,0.63408,-4.68289,-24.12,-3.42,-35.28,39.869843,-25.506834,-17.499504,0.8947677831067103,0.29710194,-0.25569865,-0.21386737
1.0619,82184.8624,3.19387,2.56658,1.8986,1.934,-0.20097,-6.0946,-24.0,-6.12,-35.34,44.012768,-21.394457,-23.294083,0.878230219069448,0.32587385,-0.24288438,-0.25204185
1.0803,82184.8824,-0.36631,-1.99437,-0.43574,1.57909,-1.62124,-6.83741,-23.64,-9.78,-35.4,47.73251,-16.451418,-31.509323,0.8553654989221116,0.3498719,-0.23465106,-0.30146044
1.0973,82184.9024,-1.35751,-1.69988,-0.54348,0.71593,-2.20095,-6.92721,-22.56,-12.96,-35.16,51.07542,-10.000295,-42.614437,0.8237729619627152,0.37153217,-0.22932136,-0.36162642
1.1163,82184.9223,-5.10923,-4.13239,-4.88178,-1.08734,-3.65908,-6.60162,-21.3,-16.14,-34.8,52.359543,-2.875362,-55.19516,0.7899309997645481,0.38043821,-0.2242742,-0.42541376
1.1371,82184.9424,-3.40934,-5.48272,-4.82671,-3.70184,-6.05245,-5.33102,-20.46,-19.62,-33.6,50.536007,1.513575,-66.678032,0.7585325593151065,0.36314058,-0.22459576,-0.49225402
1.1709,82184.9624,-19.04348,-5.80354,4.65193,-5.32308,-4.65418,-2.90589,-19.26,-21.54,-32.64,44.476009,5.358326,-78.223442,0.7285789970516666,0.32062265,-0.20491025,-0.56954855
1.1823,82184.9823,-13.38838,-7.61835,14.37479,-6.90156,-0.32987,0.80695,-19.68,-22.56,-31.86,35.919312,5.956874,-82.531059,0.7246368011862708,0.26405993,-0.16594221,-0.6145218
1.2048,82185.0024,-5.21936,-0.46448,17.86553,-6.56253,0.05009,1.72447,-20.7,-21.24,-32.16,26.474869,6.618401,-81.024139,0.7474209871155395,0.21030326,-0.1057838,-0.62124407
1.2191,82185.0224,-5.69341,1.75256,24.21974,-5.22717,0.3262,1.81183,-21.6,-18.48,-32.76,19.194155,5.973863,-78.359833,0.7687671322118252,0.16151792,-0.06535541,-0.61533546
1.2393,82185.0423,-1.7765,2.89698,25.32586,-2.69025,-0.01283,1.71164,-23.1,-14.34,-33.42,14.02837,5.548418,-75.952713,0.7850852848835254,0.12570566,-0.03718715,-0.60535634
1.2559,82185.0624,-0.97923,2.80361,23.64514,-0.20342,-0.16982,1.86925,-23.88,-10.14,-35.16,11.778546,4.999102,-73.96785,0.7965242378954206,0.10798223,-0.02701507,-0.59427196
1.2764,82185.0824,-0.79487,2.29843,20.3962,1.72631,-0.53206,2.1533,-24.48,-6.84,-35.64,12.262166,4.241819,-71.972031,0.8063035235597333,0.10798325,-0.03293898,-0.58062834
1.2982,82185.1023,2.32477,2.28886,19.92215,2.89917,0.09957,2.30479,-24.78,-4.26,-36.12,14.788162,3.105319,-69.700012,0.8155204320075455,0.1209279,-0.05146091,-0.56360859
1.3154,82185.1223,3.15316,0.95529,17.59259,2.78127,2.32556,2.64199,-25.08,-3.54,-36.42,18.295683,2.96102,-67.210266,0.8242776370642049,0.14648578,-0.06671692,-0.54282331
1.3402,82185.1423,2.40138,-0.19632,12.76588,2.03907,4.06836,3.74521,-24.96,-3.54,-36.12,21.466917,5.152442,-64.020927,0.8367110737724206,0.18117228,-0.06117422,-0.51317531
1.3592,82185.1623,2.71502,0.64165,7.38851,1.95538,4.17587,4.32248,-23.76,-3.66,-36.72,24.037334,8.009151,-59.551144,0.8540999339983009,0.21421863,-0.04386806,-0.47191024
1.3824,82185.1823,2.92093,-0.58179,2.07577,2.02563,3.11602,4.69022,-22.14,-4.38,-37.5,26.136431,9.562931,-54.207417,0.8726982733379831,0.23757313,-0.03037824,-0.42548078
1.3991,82185.2023,4.53701,-2.51152,1.1995,1.57481,2.41414,5.83987,-20.04,-5.1,-38.34,28.12924,8.918102,-47.994793,0.8911790212827922,0.25200999,-0.02963701,-0.37604862
1.4186,82185.2233,7.83143,0.72305,3.44286,0.53084,3.03417,6.00236,-18.06,-5.4,-39.24,29.742357,6.272827,-39.284153,0.9136218405640664,0.25912604,-0.0363371,-0.31117269
1.4401,82185.2433,9.18176,3.79002,5.6575,-0.53939,5.43181,4.3066,-16.26,-5.46,-40.32,30.132864,5.320918,-30.957773,0.9328178254255008,0.26220262,-0.02610277,-0.24580345
1.4656,82185.2633,7.00543,2.73418,1.81002,-1.27976,5.47396,2.62244,-14.4,-4.86,-41.22,29.475885,6.746326,-24.846159,0.9460394322667703,0.26025289,0.00093705,-0.19307239
1.4818,82185.2843,4.04381,0.47166,-1.46765,-1.53572,1.77029,1.93522,-11.64,-3.72,-42.6,28.290422,7.651619,-20.369707,0.9551560603335719,0.25143397,0.02056463,-0.15503211
1.5057,82185.3043,3.02867,0.54588,-0.67277,-1.64078,-1.38605,2.15269,-8.04,-2.1,-42.9,26.761398,6.312926,-17.17432,0.9623913482899542,0.23647723,0.01846577,-0.13244028
1.5191,82185.3243,4.35266,2.22182,2.37505,-1.54977,-2.50699,2.64138,-5.34,-0.48,-43.02,25.171028,1.886401,-13.865186,0.969138065111509,0.21821325,-0.01034866,-0.11422475
1.5412,82185.3443,7.17063,5.23612,5.76524,-2.23149,-1.4563,2.92666,-3.9,0.84,-42.84,22.388269,-6.012874,-7.945547,0.9765654826033813,0.18983628,-0.06475825,-0.07802829
1.5721,82185.3643,9.61751,4.18028,6.4811,-3.57173,-0.71777,2.98591,-4.2,3.0,-42.12,20.788506,-9.205559,-5.653885,0.9785103128940883,0.17572697,-0.08770386,-0.06281427
1.5877,82185.3843,8.02536,4.20661,7.00065,-3.86739,0.34575,2.92055,-5.34,4.92,-42.3,16.454762,-12.289656,-2.297278,0.9835167902618196,0.14012744,-0.10877119,-0.03504072
1.6024,82185.4043,9.2488,5.40371,7.79791,-3.96635,-0.44593,2.51249,-6.3,7.56,-41.82,11.888345,-14.01698,0.473685,0.9872353311914666,0.10328636,-0.12093444,-0.00855511
1.6207,82185.4243,10.41238,4.66391,9.21289,-3.06043,-1.80144,1.66339,-6.18,10.68,-40.8,7.64254,-16.457575,2.292509,0.9874973341966599,0.06880178,-0.14145997,0.01021797
1.6384,82185.4443,11.73159,3.51948,11.44668,-2.08733,-3.4801,0.95112,-5.28,13.56,-39.9,4.642393,-20.166563,3.208902,0.9835593198715569,0.04475831,-0.17375071,0.02045602
1.6644,82185.4643,15.3612,4.20901,19.18234,-0.94745,-4.65296,-0.20281,-5.1,16.5,-38.4,2.320316,-24.574392,3.468791,0.976575730642767,0.02621404,-0.21207215,0.02526004
1.6781,82185.4843,10.9822,0.79009,18.61971,0.15699,-4.12578,-0.78863,-6.18,18.84,-37.68,1.843779,-29.782921,3.040118,0.9660589474615916,0.02235971,-0.25645259,0.02149936
1.6981,82185.5043,7.6375,-0.21787,15.20797,0.73426,-4.01888,-0.43677,-8.58,20.34,-37.26,2.574869,-34.411827,2.870074,0.9548736192138527,0.02886201,-0.2951017,0.01727259
1.7188,82185.5243,8.59997,1.34554,14.55675,1.75746,-4.44221,-0.18082,-11.64,20.4,-36.36,3.667359,-39.089436,3.541435,0.9417791041835314,0.04047221,-0.33327973,0.01840491
1.7463,82185.5443,7.92002,2.07338,11.12586,2.75317,-5.60286,-0.01344,-15.06,20.16,-36.0,5.503235,-44.600662,5.270168,0.9240011210750868,0.06179435,-0.37658119,0.02428979
1.7589,82185.5643,11.78905,5.5761,11.83693,3.01645,-5.85881,-0.30482,-18.18,18.36,-35.4,7.701488,-51.455883,8.001667,0.8986752281775588,0.0905716,-0.42784181,0.03363042
1.781,82185.5843,13.09868,6.11479,12.08832,2.86435,-4.84477,-1.21257,-20.94,16.74,-34.02,10.160837,-58.375614,10.782548,0.8698068350158841,0.12260804,-0.47634533,0.03871001
1.8029,82185.6043,9.48583,3.91691,8.91122,2.38726,-3.21621,-1.28831,-24.42,15.24,-32.82,13.004619,-63.959316,13.19886,0.8440882446783159,0.15589657,-0.51168495,0.03728011
1.8185,82185.6243,7.62793,4.68066,3.7589,1.02564,-1.97432,-1.11605,-27.54,12.84,-31.44,15.332884,-67.066826,15.013706,0.8286606028701624,0.18177523,-0.52826506,0.03486255
1.84,82185.6443,8.28873,5.72214,3.57694,-0.27794,-1.89368,-1.67866,-30.42,11.16,-29.64,17.095346,-68.594276,15.266643,0.8208358495728197,0.19571884,-0.5359776,0.02550796
1.8611,82185.6643,8.78433,5.20978,5.80115,-0.6072,-1.96882,-2.52348,-32.82,9.3,-28.56,19.084414,-69.627144,14.000807,0.8151531530644477,0.20370567,-0.54222399,0.00474149
1.8841,82185.6843,8.97107,4.86502,7.58483,-0.17349,-2.25226,-3.41168,-34.14,7.62,-27.24,21.84617,-70.547173,12.197275,0.8087015362541494,0.21406601,-0.54737419,-0.02364455
1.9011,82185.7043,9.09318,4.29041,8.37013,0.50091,-2.41842,-4.41717,-35.28,6.24,-26.22,25.70829,-71.679054,10.565563,0.7989807249336002,0.23213981,-0.5518142,-0.05693855
1.9201,82185.7243,8.67419,3.34949,7.58962,0.99021,-2.19362,-5.38844,-36.18,4.14,-24.42,30.629141,-72.928917,9.262756,0.7858097774410057,0.25800169,-0.55419707,-0.09382819
1.9394,82185.7453,5.95199,0.63686,3.98395,0.85094,-1.70309,-6.0213,-36.78,1.26,-22.68,36.698944,-73.761787,7.945486,0.7704794422426176,0.29067397,-0.55082321,-0.1358818
1.9643,82185.7663,1.51314,-0.84515,0.33279,-0.32926,-1.14171,-5.83376,-37.5,-2.4,-21.84,42.536343,-73.531319,5.832744,0.7566097270213206,0.31858486,-0.54227173,-0.17884848
1.9911,82185.7863,2.58334,1.17555,1.83156,-1.82038,-0.1686,-5.42509,-37.32,-6.84,-20.58,47.591923,-70.567024,1.045516,0.7490035931796666,0.33417127,-0.52549094,-0.22623539
2.0022,82185.8063,-1.7765,1.18034,4.48434,-1.99142,1.24372,-5.40188,-36.48,-11.22,-20.04,51.654789,-63.989243,-6.568066,0.7489049325476893,0.3415564,-0.49729723,-0.27418259
2.0209,82185.8263,-2.24097,0.79248,-1.47962,-2.26631,1.76907,-4.91808,-35.28,-14.76,-19.86,55.78426,-55.34449,-14.995195,0.7476955566344878,0.35719872,-0.46101263,-0.31753391
2.0543,82185.8463,-3.41413,2.62883,0.3711,-2.71652,1.32741,-4.42999,-33.3,-18.18,-20.52,58.199799,-44.764011,-25.226076,0.7480116764779113,0.3661902,-0.42288393,-0.35714486
2.0652,82185.8673,-2.69348,3.53863,5.08768,-2.51249,1.22478,-3.99506,-30.78,-20.34,-21.6,59.003048,-33.34795,-36.831676,0.7464132307066624,0.36869183,-0.38596293,-0.39744967
2.0828,82185.8883,-1.67594,2.79164,7.32626,-1.9114,2.10138,-3.70001,-28.08,-22.26,-23.22,58.73304,-22.771496,-47.451759,0.7431880313075326,0.37088716,-0.35093749,-0.43238541
2.1046,82185.9083,-2.36547,4.79559,6.05015,-0.88392,1.61818,-3.71223,-25.32,-23.76,-25.26,57.544895,-11.64002,-57.47126,0.7411627120395665,0.37714654,-0.30815455,-0.46203798
2.1232,82185.9283,-5.79157,4.82671,2.07098,-0.63469,1.07451,-3.68291,-22.62,-24.12,-26.88,56.693508,-1.076558,-67.225029,0.7304378515309974,0.39082459,-0.2697143,-0.49088785
2.1416,82185.9483,-8.23127,6.26563,2.46124,-1.11849,0.29688,-3.26996,-20.04,-24.78,-28.38,55.362476,8.231588,-76.397614,0.7147473575718621,0.40343949,-0.23658627,-0.51999974
2.1624,82185.9683,-9.92636,6.39252,3.55778,-1.42393,0.00489,-2.63039,-17.76,-24.84,-29.52,53.077206,15.369452,-83.83181,0.6996546628390892,0.40940902,-0.20677821,-0.54782331
2.1874,82185.9883,-9.80426,6.77559,4.03662,-1.90285,0.23579,-1.97065,-15.96,-24.96,-30.12,50.357933,20.335855,-89.005844,0.6879554314040123,0.41065267,-0.17958836,-0.57081497
2.2035,82186.0083,-9.98861,6.51941,6.6894,-2.48928,0.71288,-1.6359,-14.46,-25.14,-30.42,47.053921,23.878315,-92.043427,0.6823151693825475,0.40768057,-0.14932933,-0.58816946
2.2344,82186.0282,-13.30697,5.59285,9.34218,-2.28647,0.62736,-0.92241,-13.5,-24.6,-31.44,43.266258,26.715193,-93.683929,0.6807622603437292,0.40200514,-0.11475731,-0.60148597
2.2451,82186.0483,-13.90313,5.03261,10.91038,-1.31458,-0.0843,0.18326,-12.3,-23.52,-32.52,40.328564,28.020039,-93.90699,0.6826809275687267,0.39437568,-0.08930138,-0.60863769
2.2615,82186.0683,-12.34929,4.56095,9.48583,-0.3036,-0.7025,1.13621,-12.0,-22.44,-33.78,39.338264,27.204853,-92.847099,0.6882424795469837,0.38594803,-0.08434558,-0.60848355
2.2819,82186.0882,-9.00699,6.40688,9.0429,0.03848,-1.35184,1.75807,-11.52,-21.66,-34.44,39.653362,25.404953,-91.233688,0.6951887347088108,0.37926549,-0.09178425,-0.6036936
2.3129,82186.1083,-7.46991,6.34703,10.18972,-0.25595,-1.25777,2.01647,-11.76,-21.06,-34.44,40.246769,22.796139,-89.121552,0.7035235873673211,0.3704994,-0.10442923,-0.59739375
2.3229,82186.1283,-7.62074,4.12282,9.88326,-1.14232,-0.19975,2.59801,-12.66,-20.76,-34.26,40.15332,20.559391,-86.54229,0.7148861680114614,0.36082256,-0.10948335,-0.58886182
2.3515,82186.1483,-9.07163,2.02549,10.45308,-2.31335,0.73976,3.77515,-13.68,-20.1,-34.26,39.025089,18.725092,-82.635513,0.7343700958036086,0.34876099,-0.10242335,-0.57321531
2.3676,82186.1683,-8.55448,-0.34237,9.03093,-2.44835,1.56076,5.26383,-15.36,-18.6,-34.32,36.974316,17.21003,-76.750313,0.7645902436418279,0.33388308,-0.08339254,-0.54494911
2.3826,82186.1883,-5.69102,-0.09098,7.0605,-2.12031,0.8265,6.39576,-16.32,-16.98,-34.5,35.159645,15.12726,-69.136024,0.8007224905284166,0.31774232,-0.06655157,-0.50344235
2.4022,82186.2083,-1.72143,-0.46926,6.19859,-1.23273,-0.72021,6.92599,-17.64,-14.46,-35.22,33.739033,11.580012,-60.573105,0.8369039109343224,0.29799566,-0.06223991,-0.45488089
2.4235,82186.2283,1.26653,-2.72939,4.65193,-0.20464,-2.43185,7.28518,-18.9,-11.82,-35.88,32.639198,6.159715,-51.750561,0.8688361088585491,0.27496186,-0.07605929,-0.40464154
2.4419,82186.2483,5.20739,-2.13802,6.79474,0.48503,-3.4691,7.33405,-20.52,-8.88,-36.24,31.516293,-1.627999,-42.38636,0.8958400312374951,0.24824126,-0.11091681,-0.3514888
2.4621,82186.2682,7.62553,-3.98874,9.02853,0.97983,-3.16795,7.22898,-23.04,-5.7,-36.24,29.699926,-10.559079,-32.87846,0.9164792333266403,0.21959861,-0.1575274,-0.29500404
2.4815,82186.2883,8.80348,-5.85861,7.82904,1.09589,-1.74524,7.4776,-25.74,-3.06,-35.7,26.932116,-18.705103,-23.370743,0.9320281587590116,0.19300237,-0.20130347,-0.23140983
2.5023,82186.3082,10.5273,-6.93121,7.21373,0.90958,-0.49358,7.96507,-27.96,0.0,-34.02,23.011135,-24.888409,-13.859795,0.9447072566941653,0.16787678,-0.23311676,-0.15812072
2.5311,82186.3283,13.01967,-5.11641,7.62074,0.96456,0.03238,7.82213,-29.1,3.0,-32.88,18.181093,-29.291548,-4.637017,0.9529573482252841,0.14263619,-0.25564617,-0.07856364
2.553,82186.3483,16.26142,-2.11169,7.49146,1.86619,-0.30849,6.66271,-29.7,6.3,-32.52,13.640275,-32.545628,3.580344,0.9537199973167363,0.12263154,-0.27453148,-0.00348405
2.5668,82186.3683,16.1034,-0.72065,4.63517,2.81609,-0.77702,4.86127,-28.8,9.3,-32.1,10.826728,-35.697781,11.273435,0.9458809272927134,0.11933663,-0.29484499,0.06429986
2.5839,82186.3883,12.53365,-0.74699,-0.38307,2.52776,-1.17714,3.62365,-27.42,11.46,-32.52,9.562868,-38.990383,17.402256,0.9327857316009283,0.12798253,-0.31685176,0.11461332
2.6031,82186.4083,10.74039,-0.66559,-2.59292,1.27976,-1.92484,3.09953,-26.34,13.02,-32.82,8.310979,-42.724308,22.190969,0.9165658362099227,0.13613941,-0.34352601,0.15284963
2.6238,82186.4283,11.7699,-1.07021,-0.37828,0.04887,-2.30541,2.66215,-25.38,13.56,-32.64,6.159492,-46.907864,25.511299,0.8981690408444248,0.13582213,-0.37674597,0.18140341
2.6426,82186.4483,11.67413,-2.6408,2.89698,-0.562,-2.33228,2.22538,-24.96,13.98,-32.52,3.364339,-50.876022,27.311087,0.8801222570846374,0.12712243,-0.41095424,0.20085147
2.662,82186.4683,10.65659,-3.61046,3.58173,-0.43738,-2.59068,1.97615,-25.26,15.0,-31.8,0.499682,-54.550434,28.372276,0.8621923580532079,0.11606476,-0.44333613,0.21588512
2.6828,82186.4883,10.2807,-3.76608,2.70305,-0.2193,-3.36281,1.87352,-25.74,16.08,-31.02,-2.074142,-58.459641,29.378313,0.8417661628190796,0.10852538,-0.47628149,0.22979972
2.7056,82186.5083,11.08755,-3.87621,2.97599,-0.12889,-3.58822,1.88452,-25.92,17.04,-29.7,-4.495943,-62.902348,30.329039,0.8173921386680698,0.10408942,-0.51196873,0.24274164
2.7233,82186.5283,11.74835,-3.7182,3.18429,-0.25229,-3.31883,1.8833,-26.82,18.24,-28.74,-6.877995,-67.239037,31.216106,0.7916451924976433,0.10059077,-0.54573792,0.2556355
2.745,82186.5483,13.82412,-2.11887,4.56095,-0.38485,-2.75683,1.6921,-27.06,19.02,-27.36,-9.095016,-70.960716,31.853514,0.7679624953052198,0.09668658,-0.57410294,0.26700398
2.7718,82186.5683,15.42345,-1.05824,5.51145,-0.28527,-1.99509,1.10139,-27.9,19.92,-26.22,-10.94408,-73.886208,32.210232,0.7484683211525303,0.09274013,-0.59594476,0.27576128
2.7891,82186.5883,16.9725,0.76614,5.39174,0.00244,-1.56626,0.33231,-28.8,20.94,-24.6,-12.065975,-76.031754,32.505981,0.7340487938977465,0.09192357,-0.61116642,0.28142145
2.8033,82186.6083,18.48084,2.4373,5.16429,0.35064,-1.2254,-0.81489,-29.28,21.54,-23.1,-12.159753,-77.709663,32.888165,0.7238743458835419,0.09748465,-0.62165254,0.28293249
2.8233,82186.6283,18.24621,2.65278,4.55138,0.61148,-0.88209,-2.23332,-29.88,21.78,-22.32,-10.769197,-78.975281,33.320427,0.718993561998272,0.11212591,-0.62729228,0.27745348
2.8472,82186.6483,17.06108,2.47082,3.14838,0.79718,-0.89919,-3.32922,-30.42,21.6,-21.66,-7.826506,-79.920555,33.730484,0.7190963220800375,0.13583802,-0.62837601,0.26380315
2.8679,82186.6683,16.72589,3.0981,2.53067,0.96517,-1.26327,-4.23757,-31.02,20.76,-21.66,-3.65015,-81.009109,34.201103,0.7202879397577541,0.16774544,-0.6275996,0.24323958
2.885,82186.6883,15.92384,3.27287,2.15239,1.04091,-1.47524,-5.08545,-32.28,18.96,-21.48,1.53287,-82.528145,34.735966,0.7199761185759715,0.20645352,-0.62640291,0.21594149
2.9043,82186.7083,12.98136,2.27449,1.0726,0.88392,-1.52472,-5.7794,-33.6,16.74,-21.12,7.657741,-84.270111,35.30843,0.7186498916315875,0.25019205,-0.62284005,0.18170455
2.9228,82186.7283,10.25197,1.30723,0.01197,0.51007,-1.35612,-5.9144,-35.34,13.14,-20.64,14.312542,-86.021019,35.740906,0.7166040736818033,0.29439107,-0.61621064,0.1417637
2.9423,82186.7483,8.12353,2.18591,-2.68629,-0.39095,-0.99693,-5.52039,-37.32,9.18,-19.68,20.52643,-87.443336,35.802799,0.7145655140341712,0.33157906,-0.60759169,0.10140903
2.9628,82186.7683,6.48829,3.95762,-4.52025,-1.4508,-0.64935,-5.58758,-38.88,5.46,-18.6,26.240101,-88.276031,34.886909,0.714174558112818,0.35871628,-0.59818941,0.05870912
2.9833,82186.7883,4.70939,2.99515,-4.45561,-2.5748,-0.79535,-5.82277,-40.26,1.26,-17.22,32.020164,-88.404099,32.746437,0.7153400381491966,0.37861362,-0.58723521,0.00975524
3.0031,82186.8083,4.03423,1.03669,-1.13964,-3.15084,-0.73365,-5.57964,-40.5,-2.4,-16.2,37.682774,-87.637489,29.045879,0.7171241951842265,0.38989604,-0.57590747,-0.04521673
3.0231,82186.8283,3.76847,1.10373,0.68714,-3.13496,-0.15699,-5.05858,-39.66,-6.12,-16.14,42.577255,-85.63932,24.280817,0.7200586732778472,0.39354283,-0.56314236,-0.09752041
3.0465,82186.8483,3.22978,2.34153,1.36469,-2.91566,0.10934,-5.10439,-38.76,-9.78,-16.14,46.854202,-82.129684,18.912361,0.7253235417752434,0.39471987,-0.5453214,-0.1439672
3.0751,82186.8683,3.15556,4.03184,4.27365,-2.17529,-0.53084,-5.21801,-37.26,-12.9,-17.4,51.258602,-77.288162,12.616691,0.7296111905076478,0.3976571,-0.5225085,-0.19110523
3.0831,82186.8882,4.03184,5.67426,4.69982,-1.11911,-1.60047,-5.41654,-35.7,-16.14,-18.06,55.607533,-72.862183,6.28221,0.7257932444818521,0.40350804,-0.50394195,-0.23758775
3.103,82186.9083,4.80516,4.79319,1.00078,-0.93035,-1.72692,-5.83926,-34.26,-18.96,-18.6,60.266167,-69.79554,0.558006,0.710727412712457,0.41414034,-0.49278858,-0.28374943
3.1228,82186.9283,4.05099,3.11725,-1.17076,-1.8271,-0.83017,-6.1172,-32.4,-21.84,-18.72,64.953743,-65.121704,-6.744268,0.6927805976124923,0.42507023,-0.47985965,-0.33031055
3.1552,82186.9483,1.11091,1.7765,-0.95529,-2.71652,0.13195,-6.3023,-30.0,-24.72,-18.66,69.807411,-52.103149,-21.427904,0.6772285890050503,0.43814239,-0.44946659,-0.38389122
3.1793,82186.9682,-1.18752,0.64404,0.20111,-3.39947,0.61942,-6.25648,-26.88,-27.06,-19.26,72.061615,-29.439301,-44.887547,0.665854447886413,0.44737393,-0.40711656,-0.43674996
3.1845,82186.9883,-6.17465,-1.12288,0.81882,-3.47277,0.38607,-5.63462,-23.4,-29.22,-20.46,70.363274,-5.277669,-69.534935,0.6555755888431053,0.45134825,-0.35912293,-0.48737678
3.2174,82187.0091,-12.31817,-0.39504,2.09253,-3.18811,-0.36346,-4.18931,-19.8,-30.78,-22.08,66.139488,10.120943,-85.610497,0.6451277007837422,0.44900033,-0.3151035,-0.53190106
3.2307,82187.0293,-15.6916,-0.12929,5.42766,-2.68903,-1.07634,-2.15452,-16.56,-31.68,-24.12,60.144989,21.185669,-97.513,0.6300593143248171,0.4443399,-0.26548225,-0.57888383
3.2524,82187.0493,-13.40035,1.13006,7.11078,-2.23638,-0.66462,0.00305,-13.68,-31.38,-26.1,55.26556,24.522142,-101.546776,0.6237785836031562,0.43235931,-0.23211004,-0.60835075
3.2643,82187.0703,-8.77954,4.29999,6.21535,-1.75013,-0.44593,0.98594,-12.66,-30.42,-27.24,51.895615,24.83423,-101.465843,0.628660094276821,0.42015737,-0.20845184,-0.62032419
3.2844,82187.0903,-7.434,5.87298,5.55694,-1.61757,-0.73976,1.27488,-12.0,-29.16,-28.26,49.538609,24.097204,-100.051193,0.6375110243644063,0.40848169,-0.19222623,-0.62431681
3.3035,82187.1103,-8.64067,5.93283,5.75566,-2.14047,-0.91263,1.62612,-11.88,-27.12,-29.16,47.558899,22.831165,-98.329567,0.6469172793208544,0.39547706,-0.18060374,-0.62648082
3.3408,82187.1303,-7.81946,5.20499,8.76996,-3.19238,-0.15577,2.13192,-13.26,-25.5,-30.24,45.031101,20.737991,-95.438843,0.6623249205914835,0.37643075,-0.16683212,-0.62593341
3.3539,82187.1503,-8.42998,3.69425,13.31894,-3.80813,0.58399,2.66093,-14.1,-23.58,-31.44,41.40115,18.767345,-91.27877,0.686487438721897,0.35288292,-0.14270617,-0.61955112
3.369,82187.1713,-7.70215,3.63919,16.63731,-3.08731,0.17654,3.32433,-14.76,-21.3,-33.18,37.481758,16.849447,-86.282715,0.7157143645421582,0.32677656,-0.11609086,-0.60621196
3.39,82187.1913,-4.74291,4.02944,15.70117,-1.45264,-0.45754,3.77637,-16.5,-19.2,-34.56,35.180805,13.590182,-80.46978,0.7456918456454112,0.30193889,-0.10773174,-0.58409798
3.4107,82187.2113,-4.04859,4.90333,9.20571,-0.16677,-1.67499,3.92298,-17.28,-16.62,-35.28,34.244511,10.561354,-75.601387,0.76852994796633,0.28555077,-0.11018594,-0.56185544
3.4302,82187.2313,-1.74298,6.43322,7.16106,0.18631,-3.19299,4.13434,-18.42,-14.76,-35.88,34.428196,6.03766,-70.710121,0.7869857427398891,0.27013949,-0.12997943,-0.5392434
3.448,82187.2513,3.23217,5.94959,9.47386,0.30238,-2.9798,4.0873,-20.4,-12.78,-35.58,34.617119,-0.238783,-65.41877,0.8029828442532968,0.24926229,-0.16244556,-0.51642841
3.4687,82187.2712,5.3678,5.58328,11.04445,0.02505,-1.61574,3.80936,-22.38,-11.04,-34.68,34.327888,-6.084174,-60.011997,0.8184083320526518,0.22983685,-0.19128224,-0.49070758
3.4893,82187.2913,3.99113,5.19063,11.79144,0.07147,-0.96395,3.62793,-25.08,-9.42,-34.02,33.421253,-10.296803,-55.010517,0.8341674623874565,0.21431586,-0.20848946,-0.46342799
3.508,82187.3123,7.50103,7.19218,15.64132,0.97433,-0.27428,3.11663,-27.12,-7.14,-33.3,32.550201,-14.067536,-49.981331,0.8490094476270815,0.20243973,-0.22404815,-0.43359375
3.5288,82187.3322,6.11719,6.57208,12.51449,1.75257,-0.12645,2.40559,-28.8,-5.7,-32.7,32.772633,-16.556963,-45.722576,0.8590277271943847,0.20357707,-0.23574427,-0.40626639
3.5473,82187.3523,2.08774,4.42209,7.3071,2.02991,-0.79718,2.15574,-30.06,-4.26,-32.28,33.769054,-18.804974,-41.997307,0.8643384341346316,0.21149321,-0.24862553,-0.38258991
3.5677,82187.3723,1.70467,4.46997,8.98783,1.93889,-2.00425,2.52287,-30.06,-3.54,-31.68,34.658913,-21.924875,-38.34148,0.866614723622398,0.21660057,-0.26749581,-0.36126044
3.5899,82187.3923,6.2369,6.00945,11.91834,2.27547,-1.40316,2.32984,-31.02,-3.24,-30.96,35.186634,-26.323444,-34.147289,0.8670721241282152,0.21762156,-0.29389632,-0.33830717
3.6089,82187.4123,5.97114,4.19704,9.47625,2.57235,-0.92424,1.93156,-31.68,-2.76,-30.36,35.889565,-29.994678,-29.983471,0.867046486458209,0.22379285,-0.31479099,-0.31472811
3.6274,82187.4323,1.41497,1.54905,5.12599,2.36222,-0.6408,2.08549,-32.28,-2.52,-29.7,36.68948,-32.858437,-26.07453,0.8668766420820943,0.23354179,-0.32963747,-0.29209974
3.6482,82187.4523,2.99993,1.35751,5.3247,2.13131,-0.99632,2.79776,-33.42,-2.76,-29.16,36.761292,-35.820496,-21.903479,0.8681256862783302,0.23913901,-0.3435261,-0.26675859
3.6696,82187.4723,6.04296,2.48758,5.284,2.32129,-0.79901,2.83686,-33.78,-2.76,-28.62,36.087776,-39.497738,-17.093006,0.8694035030993705,0.24054366,-0.36103693,-0.23649235
3.6894,82187.4923,5.31513,0.76375,4.54659,2.71102,-0.92485,2.92421,-34.56,-2.76,-28.26,35.275425,-43.10154,-12.120088,0.8696670671038707,0.24328473,-0.37785333,-0.2042513
3.7107,82187.5133,4.77404,-1.55623,3.41653,2.8167,-0.58826,3.37137,-35.1,-2.28,-27.96,34.110474,-46.981453,-6.675607,0.8684977185177376,0.24634339,-0.3960858,-0.16775782
3.7315,82187.5343,5.87777,-3.25851,1.36709,2.74278,-0.51374,4.16977,-35.64,-1.44,-27.36,31.821251,-51.011215,-0.407567,0.8675418557224099,0.24594657,-0.41498071,-0.12112978
3.7528,82187.5543,7.91762,-4.04859,0.69192,2.75378,-0.67317,4.98771,-36.42,-0.54,-26.76,28.094084,-55.331161,6.372707,0.8641240751997119,0.23967309,-0.43778056,-0.06476553
3.782,82187.5753,10.14423,-1.42694,-0.61531,2.46973,-0.13867,5.30292,-36.66,1.08,-25.86,23.546179,-59.441414,13.038019,0.8561704590261481,0.23115245,-0.46208751,-0.00397782
3.7921,82187.5953,12.967,-0.56982,-1.67115,1.86375,-0.20586,4.90097,-36.6,3.0,-25.62,18.426445,-62.658836,19.227539,0.8452339621854862,0.22055876,-0.48320153,0.05873384
3.8207,82187.6162,12.00453,-2.60968,-1.67594,1.64934,-0.7422,4.29316,-36.48,5.64,-25.2,13.358698,-65.261826,24.115763,0.8310930200240013,0.20767242,-0.5032866,0.11339822
3.8429,82187.6362,8.0924,-4.63039,-0.29928,2.37443,-1.45814,4.19542,-35.88,8.34,-25.2,8.822791,-68.02417,28.152191,0.8121123053349424,0.19748484,-0.52545786,0.1592714
3.8582,82187.6561,7.60638,-4.40533,-3.32555,3.06654,-2.63344,4.66151,-35.58,10.38,-25.32,4.29995,-71.382057,32.862957,0.7846473461102662,0.1941379,-0.55057406,0.20858385
3.8734,82187.6763,9.10275,-4.85305,-4.66151,3.1032,-4.61264,4.48742,-35.16,12.06,-25.32,-0.65039,-76.085579,37.896439,0.7437275262319738,0.19587374,-0.58429879,0.25903237
3.8926,82187.6963,9.54329,-4.63278,-4.03184,3.25652,-6.19478,4.01094,-34.92,13.2,-25.44,-5.580718,-82.594185,42.497997,0.6877459037306685,0.20481364,-0.62762147,0.30190766
3.9107,82187.7163,9.18176,-4.22337,-4.56574,3.24125,-6.17707,3.91381,-34.92,14.82,-24.54,-10.342813,-89.994881,46.704292,0.6213087868834963,0.22061324,-0.67177814,0.33766747
3.9321,82187.7363,9.42597,-5.02304,-6.22014,2.58091,-4.57477,4.07447,-34.74,15.96,-22.98,-15.388978,-96.628227,50.206863,0.554384812335504,0.23334788,-0.70794976,0.37015319
3.9504,82187.7563,9.36372,-6.34703,-7.2257,1.50395,-3.21376,4.26628,-35.4,16.92,-21.12,-20.657639,-101.52182,52.265186,0.49752881087040074,0.23378408,-0.73402619,0.39876765
3.971,82187.7763,9.08839,-6.7301,-8.28633,0.71593,-2.88023,4.58699,-35.88,18.54,-18.72,-25.872028,-105.562233,52.553139,0.44967466486340246,0.2221778,-0.75586671,0.42082685
3.9903,82187.7963,8.73644,-8.08282,-8.95431,0.40928,-3.5815,4.96267,-35.94,19.5,-16.8,-31.116877,-110.201172,51.441826,0.4010917311114062,0.2046416,-0.77841985,0.43738973
4.0102,82187.8163,7.20655,-8.92319,-9.27514,0.37568,-4.44832,5.67127,-35.88,22.02,-15.3,-36.514618,-116.434097,49.142303,0.34415696222801767,0.18561018,-0.80277079,0.45018208
4.0316,82187.8363,9.086,-9.4164,-9.17937,0.49724,-4.91258,5.4312,-34.56,24.66,-13.14,-42.10075,-124.384201,45.561069,0.27839702885757245,0.16513747,-0.82597744,0.46150404
4.0545,82187.8563,7.21134,-10.91517,-8.63828,0.52351,-4.66396,4.91258,-32.52,27.06,-10.86,-47.010159,-133.286072,41.236351,0.21134037923736632,0.14846554,-0.84363312,0.47071901
4.0714,82187.8763,4.70461,-10.67335,-8.10198,0.50213,-4.16549,5.24978,-30.54,30.12,-8.7,-51.017925,-142.837326,35.817841,0.14812845772179248,0.13248318,-0.85621935,0.47685909
4.0929,82187.8963,5.87537,-8.38928,-8.2576,0.6182,-4.31027,5.2064,-27.06,32.4,-6.66,-54.224758,-153.342209,28.668415,0.08902738729631327,0.11264102,-0.86518466,0.48045981
4.1133,82187.9163,4.56335,-6.80911,-6.02621,1.21135,-5.02437,4.73359,-23.76,34.32,-4.8,-56.500423,-164.664825,20.986589,0.030134673055082373,0.09689628,-0.86991435,0.48265105
4.134,82187.9363,3.54102,-7.60877,-5.94001,1.94438,-4.72321,4.32615,-20.28,35.94,-3.48,-58.507271,-176.434677,13.556622,0.030697210901337094,-0.08782987,0.8677417,-0.48822939
4.152,82187.9563,1.55144,-9.414,-2.99993,2.11482,-4.11601,4.10318,-16.02,36.84,-2.7,-60.415276,172.140656,6.060198,0.08567611098386167,-0.08000767,0.85914791,-0.49811971
4.1762,82187.9763,1.47004,-9.20092,-0.72065,2.63222,-3.11969,4.10868,-12.72,37.56,-2.28,-61.986275,160.66864,-2.266925,0.13385792742471306,-0.06972373,0.84660488,-0.51037323
4.1955,82187.9963,3.56018,-8.36295,-1.98,2.87718,-2.30968,3.41474,-9.18,38.28,-3.6,-63.426643,149.594345,-11.408901,0.1715553160741048,-0.05557048,0.83055454,-0.52693439
4.2142,82188.0163,4.85784,-7.57047,0.39744,3.25774,-1.87902,2.52226,-5.88,38.58,-5.58,-64.96785,139.847,-19.786261,0.1985940947616354,-0.04549541,0.81217825,-0.54667819
4.2297,82188.0363,4.63996,-6.46913,-0.29928,4.13128,-1.4447,1.35612,-3.18,38.82,-7.62,-67.211716,130.510803,-28.128954,0.21601218145308243,-0.04091239,0.79001814,-0.57230783
4.2537,82188.0563,5.77003,-6.4811,-3.16992,3.94069,-0.72571,-0.07819,-0.96,38.22,-10.2,-70.393356,121.027718,-37.072227,0.22185911017825444,-0.04285225,0.76462185,-0.60356909
4.2704,82188.0763,6.38055,-7.91523,-2.94247,3.24858,0.44838,-1.29076,0.12,37.5,-12.06,-74.224617,113.276733,-44.899788,0.21285542812051644,-0.05231781,0.7422803,-0.63322616
4.2935,82188.0963,7.41724,-9.0836,-3.3016,2.77699,2.14475,-2.42147,1.02,36.3,-15.06,-78.623932,107.92382,-51.536125,0.18721538396588833,-0.06368005,0.72546303,-0.65924096
4.313,82188.1173,8.16423,-10.99896,-3.4285,2.09649,3.25286,-3.59922,0.48,35.28,-17.46,-84.038979,104.506165,-58.203033,0.1399535370252332,-0.07234151,0.71258217,-0.68367124
4.3345,82188.1373,10.63983,-12.7587,-2.71742,2.06167,3.90282,-4.71405,-0.6,34.38,-19.38,-89.815483,-77.471138,115.705971,0.08005811368529456,-0.0822111,0.70206255,-0.7028088
4.3535,82188.1573,11.53048,-15.00207,-4.04141,2.34511,4.39579,-5.95777,-1.14,33.0,-21.66,-83.473816,-66.13829,122.321838,0.01655974803836152,-0.08757973,0.6850844,-0.72299027
4.3877,82188.1773,13.05319,-15.9789,-7.04614,2.15147,4.57905,-6.97852,-2.76,32.04,-23.04,-75.934586,-64.115967,119.015877,0.05765000687472307,0.09600579,-0.66161573,0.74143374
4.3996,82188.1973,12.56238,-17.17122,-8.26718,1.71897,4.17649,-7.93392,-3.72,30.9,-24.96,-67.459961,-63.616005,113.934219,0.13990573576289597,0.11025755,-0.63456309,0.75206339
4.4135,82188.2173,10.72124,-18.39705,-8.02297,1.17836,3.46605,-8.37496,-5.16,29.4,-26.82,-58.347675,-63.835575,108.329041,0.22496767219671496,0.13200659,-0.60570407,0.75172228
4.4338,82188.2383,9.91199,-18.14087,-5.58567,0.52595,2.74217,-8.40062,-7.44,28.2,-28.5,-49.21312,-64.307793,102.814766,0.3069455068892757,0.15829502,-0.57735556,0.73985654
4.467,82188.2583,8.24802,-17.67879,-2.95684,0.10629,1.90773,-8.26073,-9.78,26.34,-29.64,-39.876728,-65.038246,97.177856,0.3868299695276433,0.18881309,-0.54992521,0.71574748
4.4784,82188.2783,9.31823,-15.16966,-1.69988,-0.22541,1.21868,-8.04937,-12.48,24.18,-30.9,-31.32375,-65.78801,92.15686,0.45523236814928403,0.21941492,-0.52601194,0.68405557
4.4971,82188.2983,10.06283,-13.99411,-2.50194,-0.45876,0.68173,-8.01577,-15.06,21.9,-31.98,-22.99859,-66.600243,87.453964,0.5162094540030496,0.25147203,-0.50395775,0.6452257
4.5191,82188.3183,8.71489,-13.88637,-3.78763,-1.18325,0.5846,-7.78548,-17.58,19.68,-32.58,-14.863791,-67.30101,82.825157,0.5716406777756642,0.28271055,-0.48330748,0.59976292
4.5343,82188.3393,8.24324,-12.62223,-3.12204,-2.14719,0.4215,-7.39452,-19.86,17.52,-33.18,-6.986738,-67.612183,77.363968,0.6262486800449967,0.30756852,-0.46516541,0.54482597
4.5532,82188.3593,9.47625,-11.02051,-1.55863,-2.49172,-0.07086,-7.20821,-21.96,15.72,-33.18,-0.215807,-67.582161,71.561867,0.6735998033732904,0.32391325,-0.45210886,0.48676595
4.5731,82188.3793,12.22479,-8.83939,-1.64721,-2.39581,-0.93279,-7.31145,-24.0,14.4,-33.42,6.348981,-67.561928,65.606232,0.7142375531575051,0.33945146,-0.44170228,0.4237175
4.5977,82188.3993,12.46182,-9.07881,-0.69911,-2.4679,-1.39766,-7.41529,-24.42,12.48,-31.92,13.108394,-67.830223,59.626537,0.746990781737517,0.35777938,-0.43385959,0.35463297
4.6191,82188.4193,9.62948,-9.49301,0.0838,-2.92421,-0.25534,-6.97058,-26.58,10.8,-31.26,19.76981,-67.505318,53.378124,0.774671636217377,0.37337252,-0.42493469,0.28267884
4.6368,82188.4403,10.04368,-7.0605,-0.93853,-3.79531,1.45569,-6.89545,-28.32,8.64,-30.42,24.72374,-64.987976,46.088177,0.803168135345397,0.37157109,-0.41220024,0.21667218
4.6559,82188.4603,8.87291,-6.10282,-1.94409,-4.3573,3.13679,-7.10558,-29.52,6.12,-29.28,27.042143,-60.459976,38.036068,0.8325691768068799,0.35049912,-0.39697054,0.16246022
4.6808,82188.4803,5.87777,-7.30232,-2.37265,-4.58515,3.65175,-7.16117,-30.24,4.14,-29.64,28.373808,-53.780396,28.871216,0.8650083376750063,0.32099625,-0.37015274,0.10820782
4.6984,82188.5003,2.39899,-8.38928,-1.14203,-4.5992,3.53691,-6.53565,-29.88,2.28,-29.94,28.160923,-46.486702,19.136869,0.8947907307019273,0.28405651,-0.34029722,0.05347195
4.7214,82188.5203,0.27533,-6.10521,-0.01676,-4.45443,3.32433,-5.51367,-29.04,0.96,-31.38,26.053314,-39.697876,9.835674,0.9195727976382683,0.23959163,-0.31141034,0.00230669
4.7395,82188.5403,-0.38786,-2.97599,-0.89064,-4.59859,3.20399,-4.19787,-25.8,0.0,-32.34,22.279831,-34.100845,1.782093,0.9388010839203073,0.18916513,-0.28478125,-0.04205613
4.7542,82188.5603,0.39983,-1.60172,-1.15879,-5.28398,2.76111,-3.24247,-23.58,-0.42,-33.78,16.83881,-29.885885,-4.870973,0.95330263447517,0.13049947,-0.26085913,-0.07833575
4.7759,82188.5803,1.13964,-1.901,0.68474,-6.17035,1.94194,-2.40803,-22.26,0.54,-34.86,12.847576,-25.352457,-11.20732,0.96246982619333,0.08733968,-0.22768012,-0.11910238
4.795,82188.6003,-1.59933,-4.58729,6.63673,-6.00969,0.45876,-1.50578,-20.34,2.1,-35.04,7.356328,-22.556089,-16.720953,0.9664449092941106,0.03386712,-0.20224106,-0.15471202
4.816,82188.6203,-2.37505,-4.19464,7.01262,-5.38172,-0.8375,-0.04581,-19.44,5.1,-34.92,1.01719,-21.903959,-20.723928,0.9654335127542871,-0.025598,-0.18844789,-0.17824216
4.8361,82188.6401,3.5913,-3.86903,8.51378,-5.08851,-2.63649,1.09711,-17.34,8.88,-33.18,-6.227621,-23.127171,-22.948757,0.9608708248317027,-0.091971,-0.18557248,-0.18393327
4.8584,82188.6603,9.3326,-3.54342,10.15141,-4.68961,-3.68352,1.17164,-17.16,12.06,-31.92,-12.7063,-26.753181,-24.317472,0.9505982421443733,-0.15366727,-0.20209761,-0.17862225
4.8779,82188.6803,14.34366,-2.07338,13.67329,-4.33531,-4.12029,0.39279,-18.3,16.02,-29.52,-17.927589,-31.714386,-25.853071,0.9356410924876482,-0.20646055,-0.22953489,-0.17106584
4.9013,82188.7003,15.42824,-2.01831,17.08263,-3.46544,-4.45748,-0.5174,-19.44,19.32,-26.7,-21.819775,-37.475681,-28.305387,0.9165239593502549,-0.25091875,-0.26203448,-0.16840886
4.9162,82188.7203,13.70441,-2.31998,15.84243,-1.93095,-5.47152,-1.38605,-21.36,21.78,-23.52,-23.970419,-44.05854,-31.160471,0.8943854995653026,-0.28397095,-0.30171943,-0.16852437
4.9418,82188.7403,13.02206,-2.35111,12.83053,-1.03358,-7.02067,-1.75685,-23.7,24.06,-20.1,-24.017864,-51.856312,-33.593643,0.8684205341381065,-0.30272657,-0.35535428,-0.16710995
4.9578,82188.7613,15.02601,-1.49638,12.68448,-0.36102,-8.37741,-2.10504,-25.68,24.66,-16.5,-22.70603,-61.736404,-35.420746,0.8323944459712184,-0.31398427,-0.42778426,-0.15979359
4.9776,82188.7813,18.11692,-0.08859,13.04122,0.05925,-8.56555,-2.32068,-27.84,24.42,-12.12,-20.579475,-71.921982,-36.303078,0.7894452779791628,-0.31738746,-0.50399452,-0.14842802
5.0009,82188.8012,20.49916,2.64559,11.32697,0.60903,-8.09091,-2.87229,-29.94,23.64,-7.56,-17.836847,-81.78154,-36.257137,0.7413247110411247,-0.31259978,-0.57813758,-0.13592641
5.0164,82188.8213,18.91659,2.32477,7.92241,0.80207,-7.91742,-3.38236,-31.8,22.32,-2.4,-14.348955,-90.83757,-35.18943,0.690733493060616,-0.29717907,-0.64712095,-0.12572318
5.0359,82188.8413,15.15051,0.79727,6.2776,0.7086,-7.52158,-3.18139,-33.24,20.82,2.76,-10.574237,-99.541161,-33.451572,0.6361407028645067,-0.27577895,-0.71092653,-0.11770491
5.0554,82188.8613,14.63097,1.41976,5.60722,0.59682,-6.83436,-2.5522,-34.14,19.02,7.8,-7.377269,-107.737656,-31.436506,0.5804875022348831,-0.25486541,-0.76557964,-0.10938783
5.0769,82188.8813,15.1122,1.92973,5.16908,0.66462,-6.26076,-2.21378,-33.66,17.22,12.3,-5.019854,-115.253891,-29.34486,0.5268404907956895,-0.23640364,-0.81031495,-0.09971007
5.1017,82188.9013,14.63097,2.78446,3.9241,1.01587,-5.95044,-2.46973,-32.58,15.42,16.8,-3.177004,-122.144913,-26.957455,0.47585464394627625,-0.21696389,-0.84767276,-0.08910623
5.123,82188.9213,13.86482,4.16591,0.23224,1.27976,-6.57352,-2.94315,-30.54,13.86,20.82,-1.507237,-128.938599,-23.82962,0.42412306526371957,-0.19182801,-0.88166708,-0.07736149
5.1403,82188.9433,12.78025,3.31118,-1.10852,1.49662,-7.44889,-3.48804,-28.26,12.48,24.54,0.108839,-137.082031,-19.783783,0.36024417972974654,-0.15953879,-0.91690326,-0.06371748
5.1601,82188.9633,10.1993,1.901,-1.13964,1.80755,-7.93392,-3.74705,-25.86,11.28,28.08,1.75921,-143.807007,-14.935417,0.30605071193809863,-0.11879599,-0.9429813,-0.05483377
5.1894,82188.9833,7.91284,2.48039,-1.67115,2.10138,-7.97301,-3.49354,-21.9,10.02,30.72,2.655754,-150.600784,-9.977814,0.2507727845453038,-0.07823585,-0.96385765,-0.04439136
5.206,82189.0033,7.98945,2.36068,-1.75016,2.3726,-7.51914,-3.66886,-17.88,9.24,33.06,2.680896,-157.206726,-5.12179,0.19632376309461783,-0.03917034,-0.97924232,-0.03173552
5.2259,82189.0233,6.61518,2.16675,-1.64721,2.72996,-7.44706,-4.03354,-13.74,9.6,35.22,2.034088,-163.19838,-0.011626,0.14607204878808108,0.00249285,-0.9891147,-0.0175742
5.2416,82189.0433,5.02543,0.82121,-0.74699,3.24308,-7.95285,-4.40312,-8.94,10.2,36.84,0.557828,-169.048111,5.421403,0.09554873974494699,0.04754065,-0.9942888,-0.0003273
5.2607,82189.0633,0.46448,-1.59933,0.3711,4.14106,-8.86427,-4.95351,-4.32,11.58,37.5,-2.288108,-175.144455,11.193948,0.04020230019102094,0.09658162,-0.99422359,0.02398372
5.2802,82189.0832,-5.35104,-2.36547,0.07901,4.87837,-9.80255,-4.91624,0.0,13.74,37.08,-7.226586,174.947266,16.836729,0.05273449017835907,-0.14871511,0.98589277,-0.05584206
5.298,82189.1033,-3.59849,-3.99592,1.55623,5.07751,-9.83982,-4.37807,4.68,16.5,34.92,-13.786583,164.358948,21.321747,0.15475164355666776,-0.19799948,0.96354014,-0.09186149
5.3182,82189.1233,-1.69988,-3.86185,2.69827,5.10195,-8.86854,-4.53018,9.12,19.86,32.1,-20.994461,154.039841,24.161339,0.25311755817283843,-0.24054314,0.92835611,-0.12737909
5.3401,82189.1433,-1.2378,-4.5825,1.43892,4.86615,-7.49715,-5.01154,12.78,24.06,28.32,-28.694,144.991577,26.097584,0.3372276113176046,-0.28121641,0.88326609,-0.16442592
5.3653,82189.1633,-3.84748,-5.32949,0.7829,4.37196,-6.24426,-5.1667,15.0,27.66,23.34,-36.57048,137.445938,27.597332,0.40434217237043524,-0.3215971,0.83209497,-0.20174408
5.3787,82189.1843,-4.9153,-6.05015,-2.09732,3.45322,-4.1435,-4.79712,15.72,30.78,18.24,-44.466106,131.111511,28.574451,0.45620137512132214,-0.35969096,0.77797771,-0.23927683
5.4002,82189.2051,-6.59124,-7.1443,-5.82509,1.08062,-1.05985,-3.55707,14.52,34.02,12.96,-50.852608,127.344948,29.215958,0.48464746007630777,-0.38841087,0.73526829,-0.27135655
5.4211,82189.2253,-6.84023,-6.45716,-5.42047,-0.1967,-0.10568,-2.96881,12.0,36.3,9.12,-54.374554,128.514694,31.802267,0.4843179365667757,-0.41037351,0.71620846,-0.28995717
5.4446,82189.2453,-4.82671,-6.05494,-5.03501,-0.94928,0.15455,-2.32984,9.12,37.56,6.72,-56.075603,131.595734,35.412407,0.47509722162441853,-0.42842063,0.70831382,-0.29837883
5.4623,82189.2663,-1.78129,-6.43083,-3.73017,-1.72081,1.68843,-2.43124,6.12,38.4,5.76,-56.828529,136.169373,39.923702,0.45926047551678045,-0.44549975,0.70631659,-0.3028641
5.4828,82189.2863,0.34955,-7.4747,-3.98395,-2.37871,2.68353,-2.6536,3.9,38.4,5.94,-56.996464,144.15538,46.28167,0.42709151228511344,-0.46362793,0.71120632,-0.31117126
5.5084,82189.3063,2.78206,-8.44435,-5.0374,-2.85641,3.31028,-3.22903,1.38,38.04,6.6,-56.240883,154.089569,53.715385,0.3839113170489734,-0.48257393,0.71905744,-0.32045421
5.522,82189.3263,-0.43574,-10.78588,-7.09163,-3.02562,4.17465,-3.82646,-0.96,37.98,7.68,-54.555992,165.131454,61.796726,0.3320496779566651,-0.50345773,0.72579294,-0.33090472
5.5413,82189.3463,-4.0869,-12.05002,-9.07402,-3.17161,5.10195,-3.58334,-3.96,37.5,9.36,-51.957794,176.308197,69.126884,0.27222478766650765,-0.52134883,0.73189962,-0.34411046
5.5635,82189.3663,-1.24259,-9.87369,-13.58709,-3.77087,5.3469,-3.13557,-7.38,36.9,10.86,-48.159317,-173.894806,73.995026,0.20635204458661913,-0.53128046,0.74120188,-0.35465431
5.5829,82189.3863,2.69827,-8.42041,-13.86961,-4.57843,5.251,-3.53813,-11.52,36.06,12.3,-43.06773,-165.676529,76.92627,0.13572341901543497,-0.53825009,0.7511363,-0.35729575
5.6013,82189.4063,3.85227,-9.44513,-13.95341,-4.99871,5.40188,-4.04515,-15.48,34.38,13.56,-36.76646,-158.090912,79.202019,0.05841814287648305,-0.54770929,0.75606042,-0.35351732
5.6228,82189.4263,3.78044,-10.69969,-14.68843,-5.23023,5.57476,-4.41717,-19.8,31.68,14.34,-29.480263,-150.670563,80.82975,0.026825457450067713,0.55751419,-0.75408727,0.34613684
5.645,82189.4463,3.43329,-11.4371,-15.97172,-5.42143,5.41532,-4.408,-24.24,28.38,14.76,-21.649101,-143.815857,81.455467,0.11467284209061805,0.56497437,-0.74558628,0.33429807
5.6618,82189.4663,3.96001,-9.86172,-15.76342,-5.44159,4.8521,-4.28217,-28.2,24.48,14.22,-13.675474,-137.76561,80.914612,0.20011443218361583,0.56836301,-0.73257703,0.31662059
5.6849,82189.4873,4.97515,-8.02297,-16.31888,-5.38966,4.08119,-4.26384,-31.68,20.28,13.44,-5.817004,-132.514999,79.526772,0.27938920199238176,0.56902558,-0.71579444,0.2928991
5.7058,82189.5083,6.05254,-7.13712,-15.2798,-5.40555,2.90039,-4.17099,-34.56,16.02,11.58,2.644141,-127.769478,77.323914,0.3565620819079307,0.56872731,-0.6945979,0.25874019
5.7298,82189.5283,7.58004,-5.85861,-13.67568,-5.44342,2.64444,-3.99445,-36.54,11.28,9.54,10.109661,-124.343002,74.663498,0.417000094442063,0.56691444,-0.67550087,0.2200398
5.7468,82189.5483,7.35978,-4.89135,-12.28465,-5.74397,3.00485,-4.014,-37.38,6.54,7.74,17.349815,-120.552353,71.346962,0.4745577264718799,0.56139255,-0.65378684,0.17943282
5.7668,82189.5683,7.49385,-4.07254,-10.16578,-6.02008,3.26141,-3.93703,-38.16,2.22,5.58,24.525227,-115.552086,67.009575,0.5336673094121457,0.55076259,-0.62679237,0.13780819
5.785,82189.5883,7.96072,-2.61207,-7.68539,-5.88141,3.03661,-4.07691,-38.16,-1.8,3.0,30.413826,-110.340797,61.911564,0.5833902533632929,0.53591764,-0.60222703,0.09884685
5.8021,82189.6083,6.6463,-0.80206,-6.50265,-5.38905,2.53509,-4.12945,-37.86,-5.4,0.36,34.953293,-105.867798,56.946545,0.619617330299046,0.52197355,-0.58274633,0.06344046
5.8231,82189.6283,6.34942,1.10852,-6.96713,-5.1783,2.37138,-4.10501,-37.08,-8.64,-2.7,39.147053,-101.686378,52.046883,0.6486104175873122,0.5106442,-0.56372499,0.02758918
5.8443,82189.6483,6.28717,1.01754,-7.79791,-5.38172,2.83319,-4.1044,-36.24,-12.12,-6.18,43.028526,-97.075317,46.816975,0.6744798372131227,0.49981615,-0.54332751,-0.00748213
5.866,82189.6693,5.96635,1.34075,-7.55849,-5.99748,3.58395,-4.06042,-34.56,-15.0,-9.54,46.584808,-90.799583,40.478424,0.7025087904484423,0.48674849,-0.51756293,-0.04105996
5.8851,82189.6893,5.6168,1.56581,-4.70461,-6.57963,3.99078,-4.28644,-31.98,-17.04,-12.96,49.629734,-81.395943,31.563908,0.7366457719062858,0.46716848,-0.48301354,-0.07618752
5.9052,82189.7093,3.61285,-0.29928,-1.55384,-6.7525,4.82522,-4.54789,-29.46,-18.6,-17.16,51.391926,-70.428658,21.26613,0.7696987968178891,0.44404313,-0.44532412,-0.10989035
5.9248,82189.7293,0.25857,-2.19069,-0.10774,-6.71952,5.5772,-4.37929,-26.22,-18.6,-21.18,51.636307,-58.155693,10.463704,0.8027450877221224,0.41893086,-0.40095535,-0.1390398
5.9441,82189.7493,-3.70862,-3.04303,3.00951,-6.41653,5.53138,-3.78431,-22.92,-18.24,-25.56,50.362366,-40.561489,-3.749255,0.8435851032085844,0.38862962,-0.32656783,-0.17517033
5.9672,82189.7693,-5.8634,-1.95367,6.83066,-5.35546,4.70366,-2.7605,-19.56,-16.86,-30.0,46.628937,-26.074949,-14.816444,0.8756939568829499,0.35564494,-0.25515419,-0.20389485
5.9846,82189.7893,-8.14986,-1.35512,8.37013,-4.04881,3.70856,-1.63773,-15.66,-14.94,-33.54,42.272385,-16.261831,-21.519882,0.89759407067069,0.3260563,-0.19624373,-0.22248724
6.0074,82189.8093,-8.96389,-1.30963,9.35654,-2.6872,2.25837,-0.17043,-11.76,-12.06,-36.72,36.909264,-7.441716,-26.480888,0.9167075991023338,0.29339013,-0.13227192,-0.23679854
6.0343,82189.8293,-9.23204,0.77572,10.07241,-1.79411,1.03786,1.22967,-7.98,-9.42,-38.46,32.834633,-2.712955,-27.970327,0.9289176921689657,0.26868907,-0.09031907,-0.23824477
6.0477,82189.8493,-4.55856,1.94649,9.07642,-1.12033,-0.75075,2.02319,-5.16,-7.14,-39.6,29.874928,-0.934501,-27.047441,0.9388950835388873,0.24876671,-0.06793663,-0.22798193
6.0663,82189.8693,-2.88262,1.80523,8.90882,-0.71227,-2.88695,2.38176,-3.78,-4.8,-39.96,27.769779,-2.088388,-24.955612,0.9467474956759651,0.23044254,-0.06911333,-0.21398309
6.087,82189.8903,-0.62968,2.87544,12.04283,-0.26512,-4.30416,2.55158,-3.78,-3.24,-39.78,26.095743,-6.242823,-22.163582,0.9522357290364287,0.21103071,-0.09538693,-0.19903389
6.1107,82189.9103,-0.20111,3.11964,10.6949,0.45754,-4.98771,2.86557,-5.16,-1.86,-39.84,24.96224,-11.474645,-19.207949,0.9542560836590156,0.19573723,-0.13211325,-0.18338035
6.1292,82189.9303,0.72065,3.23696,6.96473,0.91691,-6.25893,3.57295,-7.8,-0.48,-38.88,24.358723,-17.784428,-15.604481,0.9523758926676454,0.18599534,-0.17799437,-0.16341327
6.1456,82189.9503,3.34709,3.10049,4.80756,1.3158,-7.87466,4.15266,-10.98,0.0,-38.04,23.622789,-26.057911,-11.016254,0.9447953292987368,0.17731896,-0.23879294,-0.13746892
6.1834,82189.9703,8.04931,3.23457,2.60729,1.9792,-9.34807,4.61387,-15.12,0.54,-36.6,22.48855,-36.814629,-5.521054,0.9265772145769658,0.16988488,-0.31826013,-0.1063216
6.1881,82189.9903,12.50492,5.82988,0.2083,2.52654,-10.25398,4.75925,-20.04,1.74,-33.6,20.83983,-49.987423,0.810722,0.8919255343736756,0.16685997,-0.4143807,-0.07010868
6.2329,82190.0113,13.47457,6.68701,-3.31836,2.23943,-9.56432,4.70672,-25.26,2.82,-29.64,18.165468,-64.625992,7.321133,0.8382286038358441,0.16684245,-0.51824683,-0.0309294
6.2353,82190.0313,13.27345,5.60722,-6.99346,0.61025,-6.78977,4.8466,-30.3,4.98,-24.42,14.409977,-76.74498,11.958459,0.781679828386087,0.16194686,-0.6022765,0.00358859
6.2474,82190.0513,15.27261,0.80445,-7.33344,-1.12399,-5.06468,4.84905,-34.2,7.44,-19.02,9.392126,-84.928085,13.637337,0.73658674650995,0.13985553,-0.66093117,0.03240963
6.2729,82190.0713,19.50317,2.70784,-3.16513,-1.86131,-4.95106,4.66212,-36.6,10.38,-13.26,4.198373,-90.862267,12.649018,0.6999015995608939,0.10397469,-0.70476484,0.05131798
6.2856,82190.0912,23.96117,5.12359,-0.50039,-1.5125,-5.50756,3.37381,-37.14,13.5,-8.52,-0.680449,-96.615433,10.60682,0.6618609797358777,0.06508607,-0.74388313,0.06589185
6.3055,82190.1112,23.46318,4.74291,1.09415,-0.81673,-5.53138,1.76601,-36.78,16.56,-4.32,-3.772423,-103.040573,8.843146,0.6180629822705361,0.03989925,-0.78165472,0.0736349
6.3261,82190.1312,20.25734,4.2521,-0.08619,-0.03299,-5.48007,0.60964,-35.46,19.2,0.48,-5.203608,-109.441628,7.996605,0.5729774768797371,0.03070846,-0.81534922,0.07719748
6.3446,82190.1512,16.33564,3.10049,-1.84593,0.58154,-5.9596,-0.16005,-34.26,21.12,4.32,-5.696669,-115.813408,8.210071,0.5262680355353426,0.03423708,-0.84585667,0.07997669
6.3665,82190.1712,11.76511,2.68869,-5.34386,0.79229,-5.8301,-0.40806,-33.18,22.56,7.68,-5.835512,-122.591805,9.268665,0.47448804582141607,0.04640761,-0.87508619,0.08325616
6.3919,82190.1913,10.45787,1.2809,-7.50103,0.34147,-5.74335,-0.36774,-31.68,23.04,11.4,-5.912353,-129.102097,10.43285,0.42312373918463836,0.05991779,-0.90004694,0.08539125
6.4141,82190.2123,11.18571,2.34871,-7.2281,0.1576,-6.39026,-0.45387,-30.12,23.04,14.34,-5.795498,-136.119736,11.142816,0.3668444991001192,0.07114007,-0.92384624,0.08289951
6.4318,82190.2322,10.64462,2.15239,-5.76524,0.60781,-7.30045,-0.78313,-28.02,22.62,17.64,-5.18564,-142.704529,12.044892,0.3131614574747738,0.08492344,-0.94282591,0.07613944
6.4484,82190.2522,7.80749,2.7246,-5.98072,1.30847,-8.34503,-1.13254,-25.38,22.38,21.06,-4.719752,-149.821625,13.669134,0.25352183631566033,0.1041597,-0.95912331,0.07042664
6.4698,82190.2722,6.72771,2.09732,-6.53378,1.66033,-9.02798,-1.58275,-22.32,22.08,23.76,-4.872949,-157.761948,15.941135,0.18502772677225757,0.12781939,-0.97200781,0.06802765
6.4907,82190.2933,6.39252,1.25456,-3.93607,2.26387,-10.32118,-2.19178,-18.54,22.32,26.58,-5.635601,-166.854767,18.913231,0.1047464321825376,0.15747303,-0.97966689,0.06695681
6.5093,82190.3132,6.43561,0.72305,-1.20907,3.15634,-11.04933,-2.96025,-14.34,22.56,28.5,-7.399242,-176.120911,22.392662,0.020609016050221043,0.19151358,-0.97878653,0.06981938
6.5333,82190.3332,3.85706,-0.27294,1.13485,4.08241,-11.0194,-3.97551,-9.48,23.16,29.88,-10.818978,174.706116,26.606634,0.06641131033817327,-0.23307367,0.96679598,-0.08106624
6.5512,82190.3532,0.78051,-2.91374,3.76129,4.61875,-9.55088,-4.46665,-4.32,24.66,29.88,-16.483053,165.27858,31.128323,0.160287893125197,-0.28104943,0.94059777,-0.10293126
6.5704,82190.3732,-4.66151,-6.62236,4.34069,4.98283,-5.82765,-3.79958,-0.36,26.28,28.74,-23.284113,156.175674,34.372379,0.2514811251443517,-0.32296032,0.90323794,-0.12889957
6.5888,82190.3932,-4.70461,-5.61201,-2.78446,4.47092,-2.52532,-2.56197,2.64,28.86,25.8,-30.106148,150.878922,35.641968,0.3080580539438728,-0.34821004,0.86983991,-0.16501071
6.6088,82190.4132,-3.055,-3.65116,-8.9184,2.88512,-0.54978,-2.19362,4.08,31.08,22.38,-35.598248,148.641571,35.64386,0.335042656415147,-0.35921276,0.84743071,-0.2014294
6.6307,82190.4342,-1.58975,-1.98479,-10.53449,1.13682,-0.06048,-2.41903,4.32,32.76,19.14,-39.109829,149.49736,36.988747,0.3375137475546047,-0.37188721,0.83425188,-0.22761409
6.6588,82190.4543,-1.86508,-3.41892,-8.3007,0.19059,0.30055,-2.38726,3.72,34.44,16.2,-40.979393,152.081924,40.070759,0.32867338010824365,-0.39077741,0.82512718,-0.24172704
6.6762,82190.4742,0.68953,-3.33033,-9.21049,-0.86315,1.14476,-2.45873,2.28,35.1,14.58,-41.526199,155.741989,43.7365,0.31142630186071674,-0.40963468,0.82065493,-0.24847248
6.695,82190.4942,3.21781,-3.84269,-9.84975,-2.18507,2.48072,-3.1539,0.36,35.76,13.8,-40.79604,161.35643,48.501144,0.2796894519009908,-0.43136328,0.82011169,-0.25122967
6.7168,82190.5143,3.33752,-6.46434,-10.63504,-3.37503,3.98528,-3.95963,-1.98,36.0,13.86,-38.582111,169.360703,54.5588,0.2285389542924647,-0.45795527,0.82122803,-0.25225273
6.7307,82190.5342,3.65834,-7.86495,-11.90158,-4.02866,4.70122,-4.59248,-4.86,35.4,14.64,-34.833233,178.56485,60.84832,0.16186574673704113,-0.48637542,0.82080406,-0.25203001
6.7584,82190.5542,2.478,-9.54329,-13.51766,-4.48742,5.40433,-5.06346,-8.1,34.26,16.14,-29.82276,-172.544922,66.532005,0.08832253643029978,-0.51494598,0.81544334,-0.24916245
6.7727,82190.5752,0.79727,-10.15141,-16.03876,-4.99077,6.40614,-5.13493,-12.18,31.8,17.52,-23.289867,-163.478317,71.383591,0.002263751491597385,-0.54193372,0.80411702,-0.24433284
6.7917,82190.5953,2.10929,-10.41717,-18.8304,-5.52894,6.32062,-5.18991,-16.98,28.92,18.96,-15.703699,-154.815491,74.473518,0.09126302773321925,0.56130666,-0.78772914,0.23683052
6.8143,82190.6152,2.09493,-10.24,-17.59738,-5.70487,5.40433,-5.05491,-22.02,24.9,19.26,-7.222099,-147.325516,76.066559,0.18388087423489122,0.57611346,-0.76526463,0.22057006
6.8319,82190.6352,2.68629,-8.27436,-14.76983,-5.55032,4.60531,-4.48558,-26.76,21.06,18.24,1.329631,-141.397629,76.332901,0.2666214407353614,0.58619183,-0.73960888,0.19562937
6.8523,82190.6553,5.19063,-5.39414,-14.1641,-5.49168,4.85516,-4.31698,-30.84,16.5,16.56,9.425108,-136.052673,75.453026,0.3415731865119648,0.5898391,-0.71219325,0.1679237
6.8722,82190.6752,5.13317,-5.54737,-12.5097,-5.5827,4.88631,-4.33959,-34.08,11.76,13.98,17.377083,-130.103333,73.711632,0.41578307924473973,0.5885781,-0.6789403,0.14050025
6.8911,82190.6962,5.04698,-3.62722,-9.2919,-5.25955,4.1325,-4.15572,-36.18,6.96,11.04,25.514248,-123.513992,70.854965,0.4888418209354265,0.58320248,-0.63954854,0.10902388
6.9135,82190.7162,7.87932,0.28012,-7.41724,-4.3854,2.88145,-4.13311,-37.74,2.64,7.98,30.65976,-119.515152,68.408195,0.5301165640797548,0.57848209,-0.61420804,0.08416284
6.9316,82190.7362,8.63349,3.2609,-8.64307,-3.65236,2.39581,-4.36402,-38.4,-1.26,4.92,35.437454,-116.844734,66.597427,0.5592632858692704,0.57873183,-0.59078699,0.05713824
6.9552,82190.7563,7.83383,2.66475,-10.17775,-3.71834,2.32923,-4.45993,-38.88,-4.98,2.04,40.186047,-114.76133,65.461578,0.5823181952641339,0.58347678,-0.5652802,0.03030944
6.975,82190.7762,6.83066,3.2633,-8.66462,-4.26689,2.75378,-4.23513,-38.52,-8.64,-0.78,45.013935,-112.241714,63.829193,0.6051456145432911,0.58659828,-0.53823328,0.00248584
6.9946,82190.7962,6.6463,3.69186,-6.82587,-4.72626,3.78492,-3.97307,-37.5,-12.78,-3.36,49.728603,-107.730972,60.695156,0.6332864383537549,0.58419907,-0.50709242,-0.02273788
7.019,82190.8163,6.59363,3.70622,-5.92565,-5.116,4.73176,-3.97857,-36.0,-16.38,-6.48,54.053635,-100.404007,55.731293,0.6672475037158487,0.57702172,-0.46909598,-0.04213864
7.0402,82190.8362,4.75728,2.82516,-4.69742,-5.40982,5.08851,-4.14167,-33.24,-19.38,-10.8,57.922337,-90.234169,48.648029,0.7039268575589238,0.56671369,-0.42417076,-0.05832443
7.0596,82190.8562,3.01191,2.45406,-0.68714,-5.17708,4.75436,-4.07325,-30.42,-21.3,-15.42,60.961575,-77.427399,39.037666,0.7397993065621089,0.55313826,-0.37577704,-0.07434156
7.0782,82190.8763,0.7039,2.60968,-1.53708,-4.56316,4.22535,-3.75865,-26.94,-22.32,-20.1,63.012054,-64.294769,28.720697,0.7682804107102333,0.54115772,-0.32974491,-0.09034283
7.0911,82190.8962,1.07978,2.77488,-2.57137,-4.3964,4.09402,-3.5363,-23.04,-22.2,-24.72,64.013191,-50.354504,17.481174,0.7927766569219227,0.52891254,-0.28367102,-0.10624241
7.1109,82190.9162,-0.49799,1.89381,-1.72622,-4.57905,3.96207,-3.30967,-19.44,-21.24,-28.62,62.872177,-32.923397,3.125981,0.8219751373860643,0.50657731,-0.22804877,-0.12541954
7.1356,82190.9363,-2.66475,0.577,-1.87466,-5.05491,4.89181,-2.88084,-15.42,-19.5,-31.98,59.617889,-17.896597,-8.690265,0.8488054599543899,0.47942242,-0.17177971,-0.14203931
7.1516,82190.9562,-6.43322,0.22505,-2.93529,-5.72931,5.47335,-2.36222,-11.4,-17.34,-35.16,54.460117,-5.428489,-16.700914,0.8756159138299333,0.44609055,-0.10803679,-0.15042621
7.1783,82190.9762,-7.99185,-1.03669,-2.98796,-6.34872,4.77513,-1.49234,-7.44,-14.4,-37.44,47.738235,3.994535,-20.890356,0.9013287290611111,0.40347952,-0.04197318,-0.15181914
7.1939,82190.9963,-5.05416,-1.49159,0.96965,-6.38476,3.01157,-0.94501,-3.54,-11.1,-38.94,40.292042,9.646289,-21.928677,0.9239246711758407,0.35194299,0.01222039,-0.14949915
7.2144,82191.0162,-2.58334,-1.40779,5.4492,-5.83254,1.54488,-0.8772,0.36,-6.84,-39.96,33.021236,12.372655,-21.57341,0.9420734464295929,0.29688227,0.04861525,-0.14830744
7.2347,82191.0362,-0.98162,-2.31998,6.46674,-5.25527,0.44899,-1.21073,3.06,-1.86,-40.26,26.461617,13.615128,-21.174116,0.9551230637102952,0.24459232,0.07166991,-0.15092367
7.2523,82191.0563,-0.64404,-3.52666,8.85855,-4.69267,-1.33841,-1.64139,5.04,3.0,-39.72,20.388058,13.670554,-21.253222,0.9643434848104443,0.19431143,0.0827227,-0.15950444
7.2713,82191.0762,-1.68552,-4.35026,14.13537,-3.92481,-2.46545,-1.80816,5.76,8.34,-38.58,13.575156,12.223507,-21.984262,0.9716319445835191,0.13551931,0.08137474,-0.17590916
7.295,82191.0962,-1.34794,-4.2521,18.28212,-2.88634,-3.37075,-1.39949,4.98,12.66,-37.26,8.016932,9.426342,-23.023438,0.9753277946558352,0.08462398,0.06641433,-0.19277866
7.31,82191.1162,1.14203,-2.72939,22.29241,-1.5913,-3.11419,-1.25288,3.36,16.2,-35.58,4.208652,5.567773,-23.969034,0.9767607316644699,0.04595482,0.03986257,-0.20551789
7.3321,82191.1362,0.52194,-2.08774,20.81998,-0.68539,-1.97004,-1.15026,0.66,19.56,-34.62,2.566614,2.35337,-25.032871,0.9758828806648098,0.02630853,0.01518986,-0.21617061
7.3538,82191.1562,-1.29766,-1.17076,18.76575,-0.51129,-1.31519,-1.30298,-2.04,21.42,-34.2,1.831583,0.423614,-26.127588,0.9740012730851051,0.01640462,-1.21e-05,-0.2259478
7.3798,82191.1762,-1.29287,-1.41737,21.53584,0.01833,-1.61391,-1.31336,-4.14,22.44,-33.66,1.325489,-1.09923,-27.433029,0.9713448217092291,0.00896203,-0.01206083,-0.23719919
7.3926,82191.1963,-1.5682,-1.18992,23.54937,1.27488,-2.04579,-1.36345,-5.7,23.16,-33.18,1.688267,-3.018455,-28.751308,0.9681512679539481,0.00772771,-0.02916696,-0.24854113
7.4109,82191.2162,-2.08056,-0.93853,24.72492,2.56991,-2.54853,-1.32375,-7.32,22.32,-32.7,3.596314,-5.426401,-29.936386,0.9641275680685069,0.01805973,-0.05380337,-0.25930113
7.4345,82191.2362,-3.65116,-2.36068,24.78238,4.18076,-3.00607,-1.02503,-8.88,21.3,-32.52,7.117829,-8.387398,-30.755095,0.9585595391294178,0.04033758,-0.08679131,-0.26833516
7.4569,82191.2563,-4.28083,-1.45328,22.27326,5.44647,-3.1258,-0.40256,-10.92,19.74,-32.7,12.39865,-11.962068,-30.531557,0.9508899851674502,0.07633528,-0.12821276,-0.27118748
7.4767,82191.2772,-1.94409,-0.49321,18.16241,5.70609,-2.74706,-0.21441,-12.78,16.92,-32.94,18.985092,-15.955542,-29.009481,0.9398964056676933,0.1238325,-0.17343137,-0.26679921
7.4945,82191.2972,-0.62489,-1.23062,15.97651,5.62485,-1.92728,0.19364,-14.82,13.56,-33.6,25.21781,-19.672937,-26.730934,0.926873228216646,0.17072184,-0.21192071,-0.25855306
7.5175,82191.3172,0.55785,0.03591,15.10981,5.27055,-0.80695,0.57605,-16.38,9.9,-34.08,31.021284,-23.012903,-23.464279,0.9136425264154032,0.2174845,-0.24148078,-0.24422297
7.5371,82191.3373,0.53391,0.06464,13.3764,5.31453,-0.16066,0.65363,-17.58,5.94,-34.14,36.223118,-25.771404,-19.482082,0.9014300429736827,0.2628082,-0.26017454,-0.22508873
7.5567,82191.3572,-1.14443,0.15323,11.42513,5.50512,-0.16249,0.7086,-18.54,1.62,-34.68,41.319134,-28.741056,-14.83294,0.8875302856456775,0.30893955,-0.274405,-0.20383386
7.5762,82191.3782,-2.45885,-0.17717,9.11473,5.656,-0.4331,1.01281,-18.96,-2.16,-34.5,45.112385,-30.882551,-10.365965,0.8773030317791739,0.34601912,-0.27827945,-0.18212827
7.6033,82191.3992,-4.17549,-1.45567,7.52737,5.926,-1.17592,1.82588,-19.26,-5.7,-34.02,48.227055,-33.703087,-5.502507,0.8668522004882331,0.37785134,-0.2830593,-0.16022815
7.6193,82191.4192,-3.7158,-1.51074,4.99909,6.23327,-2.069,2.60473,-19.86,-9.3,-33.12,50.932865,-39.19236,1.566306,0.852436525895251,0.40917847,-0.2972365,-0.13257229
7.6353,82191.4392,-2.5618,-0.10534,1.02472,6.53931,-3.51003,2.99202,-20.64,-12.48,-31.26,52.734734,-46.695702,9.893921,0.8347133720768667,0.4368591,-0.3185969,-0.10442092
7.6538,82191.4592,-2.69108,1.24738,-1.18752,6.72624,-4.70488,2.92482,-22.5,-15.12,-28.8,54.159916,-57.024742,19.610441,0.807960658195193,0.46655694,-0.35068613,-0.0808915
7.6798,82191.4792,-2.82037,0.89304,-2.04944,6.97119,-6.19723,2.96147,-24.96,-17.64,-25.2,54.31369,-74.542183,34.165531,0.7580097615097113,0.5054732,-0.40835941,-0.05621955
7.7007,82191.4992,-2.09014,-0.08859,-2.75812,7.22531,-6.87529,3.19421,-27.72,-19.32,-20.94,51.742725,-93.052895,48.28616,0.6944302659237875,0.54102939,-0.47304934,-0.0357509
7.7166,82191.5212,-1.36948,-0.38068,-4.90093,7.39452,-7.23081,3.31089,-30.42,-19.98,-15.72,46.134655,-110.399635,60.299274,0.6156444609675982,0.57281625,-0.5409748,-0.01448127
7.7385,82191.5422,-0.56743,-1.01035,-5.58088,7.7531,-7.13124,3.00912,-32.82,-19.62,-9.0,38.09729,-125.408195,69.168762,0.5215020640316058,0.60001528,-0.6066007,0.00726992
7.7598,82191.5622,-0.71347,-3.20344,-8.14986,7.47699,-5.8753,2.89794,-34.74,-18.3,-1.8,29.736742,-136.293289,74.787758,0.43046155842996925,0.62066287,-0.65469354,0.02927144
7.7786,82191.5823,-1.6496,-3.71341,-10.93432,6.80076,-5.04086,3.06471,-35.34,-15.18,5.52,19.759161,-146.316086,78.887177,0.3247592136124853,0.63744044,-0.69658321,0.05452495
7.7984,82191.6022,-0.84515,-3.76368,-12.2224,5.96876,-4.54178,3.08182,-35.46,-11.46,12.66,10.316393,-153.661285,80.262131,0.22991089737738843,0.6407069,-0.72824734,0.07931872
7.8216,82191.6222,-2.6001,-5.38217,-10.08438,5.49595,-4.51918,3.21621,-34.74,-6.72,17.7,1.829818,-160.061356,80.014626,0.14269659364238305,0.63521475,-0.75252372,0.09923686
7.841,82191.6423,-2.45645,-7.18261,-8.88488,5.58209,-4.69633,3.5363,-33.42,-1.62,21.9,-6.203514,-166.321747,78.401787,0.05818944798384416,0.62163144,-0.77236587,0.11678743
7.8662,82191.6632,-2.9329,-7.98227,-9.01896,6.05795,-5.39089,3.35976,-31.62,3.3,24.78,-14.113718,-173.12854,75.63089,0.02820629244823944,-0.60156554,0.78711027,-0.1333444
7.8889,82191.6831,-3.83551,-8.98544,-9.32302,6.42264,-6.09216,3.13252,-29.16,8.34,26.46,-22.259193,178.449417,71.864182,0.12401413212098011,-0.57785171,0.79287946,-0.14849262
7.9038,82191.7032,-3.76368,-10.31662,-8.84179,6.488,-5.95716,2.98224,-25.56,13.26,27.66,-29.627981,169.057037,67.16526,0.21757801988804598,-0.55262691,0.78824323,-0.16104631
7.9213,82191.7232,-0.89304,-8.53772,-9.11233,6.00175,-4.94007,2.51005,-21.18,18.24,28.2,-35.914555,159.234421,61.267036,0.30204226139014206,-0.52459621,0.77681375,-0.17357905
7.9475,82191.7433,2.36787,-6.1124,-9.9934,4.73115,-3.41718,1.34513,-16.56,23.28,27.3,-40.735397,150.801437,55.485512,0.36591875572775634,-0.49995071,0.7620855,-0.18809158
7.9649,82191.7632,2.98078,-4.78122,-9.68694,3.24186,-1.82099,0.2248,-12.42,27.72,25.86,-44.171806,145.414505,51.664776,0.40434850208899054,-0.48611286,0.74762601,-0.2031057
7.9787,82191.7842,1.9393,-4.36702,-8.76038,1.54915,0.71593,-0.74403,-8.94,30.54,23.46,-46.687977,144.021561,50.504868,0.4172392135012431,-0.48322091,0.73760056,-0.21989635
8.0059,82191.8042,2.23618,-5.83467,-7.50103,-0.04643,2.62855,-1.54793,-7.14,33.0,21.0,-48.118179,147.519714,52.232075,0.401591787091145,-0.48828334,0.73699635,-0.23903932
8.0216,82191.8241,2.44927,-7.29753,-6.38773,-0.6579,3.66397,-2.25287,-6.84,34.62,19.5,-48.675972,154.630951,56.347683,0.3661962978321263,-0.49946171,0.74084961,-0.25996178
8.0388,82191.8442,2.78924,-7.92002,-8.76038,-1.03053,4.49963,-2.88939,-8.16,34.74,18.54,-48.644482,163.760941,61.662376,0.3194852314150272,-0.51229101,0.74481016,-0.28415653
8.059,82191.8642,3.45483,-7.7644,-11.6861,-1.53938,4.76658,-3.37259,-10.44,35.04,18.0,-47.673607,174.103439,67.745979,0.2640089252095364,-0.52639526,0.74686229,-0.30887544
8.0794,82191.8843,5.80115,-7.13233,-13.32373,-2.26509,5.3469,-3.85822,-13.62,34.08,17.4,-45.34259,-175.431061,73.856239,0.2019927029672751,-0.54166603,0.74626696,-0.32997346
8.1006,82191.9052,6.05015,-7.54413,-14.88236,-3.09587,5.94922,-4.3964,-17.88,32.4,16.86,-41.353344,-164.660553,79.465988,0.12765606833873228,-0.55644727,0.74318266,-0.34892678
8.1225,82191.9252,4.8291,-8.61673,-14.10185,-3.35793,5.58575,-4.56622,-21.6,29.88,16.14,-36.144032,-155.008255,83.708794,0.04887237724024383,-0.56930304,0.73610944,-0.36283389
8.1402,82191.9452,6.45956,-7.85538,-14.05636,-3.18872,4.51124,-4.4807,-25.56,26.94,15.48,-30.312227,-147.085144,86.605545,0.02702885202261209,0.58097249,-0.72444946,0.37001809
8.1651,82191.9652,8.35576,-6.62236,-15.05713,-3.23575,3.49476,-4.61814,-29.16,23.64,14.34,-24.328972,-141.143707,88.577003,0.09399627942583011,0.59355289,-0.70885736,0.36929786
8.1797,82191.9852,8.14507,-6.0693,-15.25825,-3.54852,3.07204,-4.65174,-32.1,20.04,12.66,-17.986151,-136.672882,89.871361,0.15550358834404787,0.60750562,-0.69056958,0.36037371
8.2035,82192.0052,7.93678,-5.58807,-14.55675,-3.7892,2.60717,-4.65235,-34.62,16.02,10.74,-11.304428,-133.028275,90.391701,0.21537635750354947,0.61991888,-0.67101502,0.34503978
8.2224,82192.0252,7.69018,-4.67348,-14.2886,-3.98162,1.95843,-4.70549,-36.54,11.76,8.76,-4.405896,-130.186188,90.357933,0.2719139537785134,0.63145459,-0.65034491,0.32307801
8.2387,82192.0453,6.63194,-5.29119,-13.38598,-4.37196,1.61391,-4.55278,-38.16,7.74,6.9,2.709894,-128.037628,89.841034,0.32511878355424845,0.64192015,-0.62903374,0.29419866
8.2607,82192.0652,7.66863,-4.01508,-10.9846,-4.49658,1.09162,-4.44649,-39.0,3.06,5.28,9.868092,-126.201988,88.638153,0.37607731575879727,0.6485942,-0.60850084,0.26003489
8.2809,82192.0852,7.75961,-2.49715,-9.62948,-4.38968,0.93768,-4.53018,-39.12,-0.9,3.6,17.020649,-124.740448,87.161461,0.422632997913116,0.65375239,-0.58741605,0.22120476
8.3022,82192.1053,7.36217,-1.59214,-8.23127,-4.43305,1.113,-4.56744,-39.06,-4.98,1.8,22.746191,-124.104698,85.955093,0.4549054956810383,0.65799868,-0.57060248,0.18577281
8.3267,82192.1252,5.37498,-1.68552,-6.78277,-4.35303,1.29626,-4.47703,-37.98,-9.48,0.6,28.194717,-123.176361,84.758553,0.4852921031111883,0.66060275,-0.55204022,0.15279783
8.3427,82192.1462,3.94325,0.53151,-6.17465,-3.94375,1.12582,-4.01705,-36.42,-13.08,-1.44,33.342216,-122.051949,83.594017,0.5132267331133634,0.66216815,-0.53216761,0.1221855
8.3614,82192.1662,5.40132,3.05261,-6.78517,-3.70245,0.63591,-3.80325,-35.04,-16.26,-3.36,38.19173,-121.018402,82.334793,0.5376417936907961,0.66268128,-0.51318395,0.09185345
8.3881,82192.1863,6.01184,4.71897,-7.11078,-3.65725,0.1069,-3.93214,-33.36,-19.2,-5.16,42.650829,-120.527275,81.274849,0.5562786575336972,0.66366988,-0.49632606,0.06129264
8.4106,82192.2073,4.97276,3.39258,-6.30633,-3.7666,-0.39279,-4.10746,-31.68,-21.36,-7.86,47.271244,-120.632492,80.38385,0.5713330698827207,0.66529214,-0.47984529,0.02670935
8.4223,82192.2272,2.98557,2.25055,-5.35822,-3.93947,-0.20708,-3.91504,-29.94,-23.1,-9.54,52.290272,-120.989922,79.445175,0.5851300560314047,0.66620159,-0.46221614,-0.01242976
8.4423,82192.2472,1.71664,2.08774,-4.29041,-4.19787,0.10324,-3.46544,-27.84,-25.14,-10.92,56.795166,-120.682381,78.171677,0.5984390025312922,0.66462409,-0.44496936,-0.04634488
8.4642,82192.2672,1.075,1.94409,-3.10528,-4.48619,0.4777,-3.05494,-25.74,-26.28,-12.9,61.000038,-119.014061,75.877579,0.6137064484840148,0.65959257,-0.42721161,-0.07610701
8.5023,82192.2882,-0.2059,1.77171,-2.05422,-4.85577,1.24067,-2.67926,-24.42,-27.36,-14.52,65.774055,-113.301323,70.091949,0.6383996281579288,0.64718592,-0.40287471,-0.10624626
8.5141,82192.3092,-1.64721,1.16119,-2.31759,-5.48557,2.42147,-2.37199,-22.74,-28.5,-16.92,70.497444,-99.521721,57.249386,0.674119569842427,0.62589675,-0.36860025,-0.13397731
8.5278,82192.3293,-3.0574,-0.11492,-1.86987,-6.50022,3.76782,-2.20706,-20.52,-28.26,-19.8,73.035034,-74.866142,34.952019,0.7173349257540361,0.59741217,-0.3240518,-0.15336145
8.5474,82192.3492,-3.97677,-1.21625,-0.3711,-7.35115,4.49536,-1.8552,-18.66,-27.72,-22.92,71.326561,-45.647545,9.198081,0.7645661355721881,0.5609107,-0.27104822,-0.16538039
8.5666,82192.3692,-2.79882,-0.71587,2.31759,-7.84412,4.35913,-1.86375,-15.72,-25.32,-27.06,65.385872,-23.735056,-8.720366,0.8127608466259987,0.51390374,-0.21275584,-0.17337158
8.5862,82192.3893,-4.40054,-1.18034,7.08923,-7.2754,2.47278,-1.93828,-12.9,-21.72,-31.26,57.437382,-10.366223,-18.629541,0.8548607685629976,0.45941132,-0.15563811,-0.18420392
8.6089,82192.4092,-4.26647,-0.71108,11.5185,-5.80017,0.71532,-1.69026,-10.08,-17.52,-34.74,49.756451,-3.786212,-23.942301,0.8841072460341126,0.40510109,-0.11652941,-0.20166403
8.6296,82192.4292,-4.79319,-0.87628,15.06432,-3.99078,-1.4508,-1.36773,-7.44,-12.66,-37.5,41.888222,0.41251,-28.177786,0.9061435892925164,0.34752068,-0.08375331,-0.22609413
8.655,82192.4493,-6.11719,-0.90261,17.54471,-2.43796,-2.58396,-0.41783,-6.18,-8.22,-38.88,36.190769,0.732912,-30.66906,0.9172064243159704,0.30114356,-0.07627472,-0.2494536
8.6687,82192.4692,-4.61363,0.76854,15.54076,-1.68477,-2.38054,0.52534,-6.06,-4.38,-39.12,32.391262,-0.962228,-31.370968,0.9238873203475924,0.26634151,-0.08316799,-0.26187307
8.6891,82192.4892,-4.48913,0.50996,16.60618,-1.50517,-2.45812,1.35979,-7.2,-0.84,-39.0,29.310984,-3.045093,-30.921335,0.930334361694437,0.2369124,-0.09219746,-0.26429173
8.7035,82192.5093,-0.36152,0.96486,17.80328,-0.93279,-2.59557,2.24615,-9.24,1.68,-38.16,27.462717,-6.764148,-28.847422,0.9356736984736975,0.21521273,-0.11452527,-0.25511208
8.7286,82192.5292,4.00311,3.73974,18.97884,-0.12156,-1.80205,2.0971,-10.86,3.54,-37.86,26.192799,-10.746219,-25.995609,0.9400929984718388,0.19930109,-0.13960797,-0.23877572
8.7505,82192.5502,6.7708,6.53617,15.45218,0.7984,-2.32984,1.40377,-12.72,4.98,-36.9,25.864305,-14.197089,-23.236071,0.94178035048638,0.19327632,-0.1626984,-0.22186317
8.764,82192.5702,3.46202,6.86896,11.88482,1.36895,-2.82831,0.87598,-14.22,6.12,-36.78,26.535181,-17.785929,-21.258587,0.9385644296988997,0.1950963,-0.18970427,-0.21224169
8.7892,82192.5902,0.99359,5.9472,6.55532,1.4728,-4.08974,1.09284,-15.42,6.48,-36.48,27.41997,-21.40452,-19.677469,0.9330482650957691,0.19863129,-0.21755512,-0.20648563
8.8084,82192.6102,1.6113,5.50427,3.55778,1.56443,-6.75861,1.4673,-17.58,6.18,-35.28,28.315434,-26.8986,-17.662319,0.9231218759528568,0.20044151,-0.25936753,-0.20099176
8.8247,82192.63,5.51624,5.94241,3.15077,2.34878,-10.345,1.6866,-20.04,6.0,-33.96,29.170799,-36.272736,-14.916764,0.9017365185267026,0.19818325,-0.32976353,-0.19710572
8.8445,82192.6502,10.3214,7.33105,3.10049,3.47033,-13.36084,1.43492,-23.16,5.1,-30.9,30.27154,-50.491188,-10.940012,0.8585196131601217,0.19584733,-0.43234169,-0.1940839
8.8655,82192.6703,9.10515,7.45076,2.12366,4.12701,-13.83304,1.27488,-27.96,5.04,-26.88,31.366566,-67.924347,-5.874793,0.7897405286648093,0.19634834,-0.54863012,-0.19173476
8.8894,82192.6902,7.41245,4.65433,0.37828,4.14655,-12.29733,1.91262,-32.76,5.28,-20.46,31.27755,-85.43148,-0.249271,0.7071294285362412,0.19664039,-0.65367812,-0.18440565
8.9078,82192.7102,8.04212,3.70144,-2.47321,3.46422,-9.44337,2.90466,-36.9,5.4,-12.78,28.948351,-100.258553,4.724135,0.6280893766598618,0.19071972,-0.73589778,-0.16608486
8.9312,82192.7303,11.53287,2.62644,-2.4756,2.58824,-6.94309,3.05433,-40.02,6.66,-4.98,24.918669,-110.604301,7.559426,0.5663263561822576,0.1754676,-0.79296082,-0.14035212
8.9454,82192.7502,12.76588,3.58173,-1.18034,2.46973,-5.48252,2.57968,-39.9,8.22,2.94,20.867329,-117.400581,8.737894,0.521227937233525,0.15782462,-0.83072424,-0.11536925
8.9705,82192.7702,11.83693,3.11964,-0.16041,3.37564,-5.77207,1.71164,-38.7,10.68,9.06,17.266945,-122.695076,9.861589,0.4836305014886784,0.14628449,-0.85820323,-0.09049642
8.9872,82192.7912,8.55448,0.24421,-0.51715,5.25894,-7.58389,0.92118,-36.24,13.5,13.62,13.390356,-129.158295,12.364672,0.4351969251574711,0.14635822,-0.88641334,-0.05877328
9.0167,82192.8113,2.76291,-4.01029,-0.44532,7.10375,-8.82578,0.85032,-34.08,16.26,16.86,8.216733,-137.161636,16.341209,0.37003127672554914,0.15786299,-0.91539776,-0.01425032
9.0303,82192.8312,-3.00951,-5.08289,-4.68306,8.54417,-8.3206,1.40682,-31.2,19.02,19.2,0.707923,-147.4711,20.878824,0.27650430061775144,0.17564234,-0.9437573,0.04491435
9.051,82192.8522,-1.37667,-6.11958,-10.46745,8.12145,-5.92784,1.9114,-28.02,21.9,20.88,-9.081562,-155.979813,24.146301,0.18664629934336954,0.18783054,-0.95691997,0.11910927
9.0701,82192.8722,0.84515,-6.88333,-12.00932,6.23266,-3.63892,2.12887,-24.3,25.5,20.64,-18.990223,-162.033707,25.561384,0.11414365438201454,0.190393,-0.95576334,0.19297194
9.0874,82192.8922,2.90417,-6.09085,-7.37893,4.92174,-2.23393,2.22172,-19.98,29.28,19.74,-26.331408,-165.771866,25.298454,0.06816923083223622,0.18406095,-0.94894528,0.24693598
9.1111,82192.9122,3.21302,-7.06529,-3.29921,4.7733,-0.91996,1.90346,-16.26,32.28,16.92,-32.579372,-168.136597,24.398703,0.038000263706515526,0.1734122,-0.93928272,0.29365313
9.131,82192.9333,2.94008,-9.59835,-1.17795,4.835,1.19241,1.91079,-13.08,35.1,12.9,-38.929901,-168.764542,23.699465,0.022229191025347247,0.16075429,-0.92501962,0.3435151
9.1667,82192.9532,5.14035,-9.27035,-4.956,4.28217,3.25164,1.90956,-10.98,37.08,9.6,-45.348351,-166.760925,22.910645,0.02819441132478896,0.13847986,-0.90712833,0.3964172
9.1767,82192.9732,8.11634,-7.67581,-7.94396,3.86006,2.46484,1.11544,-9.06,38.16,5.76,-50.309254,-162.86586,22.673834,0.04958327147973712,0.11386507,-0.89004731,0.43862516
9.2025,82192.9933,9.83059,-5.89452,-9.44273,4.11357,0.74403,-0.05742,-7.68,39.12,1.86,-54.273685,-158.582123,24.46644,0.06664476383874235,0.10245109,-0.8725245,0.4730362
9.2101,82193.0132,11.97101,-5.88016,-10.63026,4.0702,-0.23091,-1.59314,-7.08,39.42,-1.5,-57.431396,-153.329956,29.61973,0.07605749999962745,0.11099647,-0.85334516,0.50368351
9.2285,82193.0332,12.95024,-7.91762,-10.83376,3.15084,0.18509,-3.04761,-6.6,39.48,-5.64,-59.809673,-146.24762,37.954529,0.08282725792701606,0.13288707,-0.83150321,0.53299445
9.2494,82193.0533,11.97101,-9.20571,-9.47146,1.4563,1.61085,-4.12273,-7.32,38.94,-8.52,-59.951763,-137.143784,47.684902,0.1014535640309453,0.1589925,-0.81132883,0.55333
9.2689,82193.0732,11.44907,-10.51533,-8.06607,-0.05131,3.61571,-5.10439,-9.06,37.92,-11.46,-57.157028,-127.811234,55.710468,0.14077743638739457,0.18246043,-0.79558265,0.56030184
9.2897,82193.0932,9.57441,-12.8401,-7.74764,-0.85094,4.41167,-5.31086,-10.98,36.18,-13.62,-52.020653,-119.069374,60.735626,0.20205395755552602,0.1997786,-0.7807591,0.55648714
9.3084,82193.1142,11.43231,-11.82975,-7.47709,-1.14782,3.47277,-5.30536,-13.56,34.26,-15.06,-45.787601,-111.940948,63.127396,0.27050722207115935,0.21413551,-0.7644757,0.54456288
9.3278,82193.1342,12.91911,-9.81623,-5.01585,-0.97494,1.97065,-5.64867,-15.96,32.58,-16.56,-39.552948,-107.630493,64.110725,0.3259258828313791,0.23379949,-0.74973494,0.52631515
9.3483,82193.1542,11.41077,-10.45069,-3.68707,-0.83505,1.39277,-5.88569,-18.12,31.38,-17.22,-32.943634,-104.956184,64.963097,0.3719300702894144,0.26276693,-0.73433292,0.5033654
9.3689,82193.1742,10.80503,-10.00776,-3.32315,-0.89186,1.0061,-5.89363,-20.4,29.94,-18.36,-26.180511,-103.035759,65.586388,0.41348309494871077,0.29448053,-0.71727997,0.47730744
9.3932,82193.1943,10.37408,-9.38048,-3.14598,-0.88026,0.62369,-5.87347,-23.1,28.62,-19.26,-19.36198,-101.809784,65.899658,0.4506529456234252,0.32712591,-0.69966614,0.44762468
9.4134,82193.2142,10.09874,-8.84179,-3.0574,-0.77091,0.44288,-5.66272,-25.74,26.64,-19.38,-12.599274,-101.059959,66.100716,0.4834032589326782,0.35999984,-0.68118167,0.41558746
9.4301,82193.2342,11.4778,-6.68701,-3.98395,-0.78618,0.21075,-5.57353,-28.02,24.12,-19.74,-6.193935,-100.556313,66.273376,0.5116330739606421,0.39092514,-0.66199982,0.38362139
9.4513,82193.2542,12.31099,-4.65433,-4.19943,-0.98288,-0.35247,-5.81055,-30.3,21.78,-19.92,-0.242471,-100.578743,66.341972,0.5339027762544635,0.41977143,-0.64465845,0.35093483
9.4713,82193.2741,12.00932,-3.67271,-3.33512,-1.18019,-0.8546,-6.1789,-31.92,18.42,-19.32,5.367758,-101.433846,66.303009,0.5493312846570156,0.44763798,-0.63111311,0.31551802
9.4897,82193.2942,11.70286,-2.96642,-4.0893,-1.42881,-0.73487,-6.5442,-33.78,14.7,-19.44,11.189834,-102.697807,66.319397,0.5620191659063422,0.47610867,-0.61736184,0.27625957
9.5135,82193.3142,9.87848,-3.39737,-4.77643,-2.00058,-0.38668,-6.64255,-35.04,11.34,-18.84,17.327875,-103.749878,66.265869,0.5758686887771794,0.5029512,-0.60040694,0.23436478
9.5287,82193.3342,8.82503,-3.44765,-3.80439,-2.42941,0.06536,-6.37499,-36.36,7.08,-17.76,23.406263,-104.243454,65.717232,0.5919020311901729,0.5239715,-0.58168024,0.1917132
9.5541,82193.3542,8.76038,-2.14042,-3.32794,-2.72446,0.58643,-6.24549,-37.02,3.0,-17.46,29.157509,-103.838371,64.624786,0.6103878708103911,0.53841496,-0.5608449,0.15162116
9.5712,82193.3742,8.29591,-1.15879,-2.32477,-2.83075,0.49602,-6.1001,-36.84,-0.9,-16.56,34.709408,-102.596779,62.913704,0.6305716675298669,0.54782075,-0.53808206,0.11286937
9.5893,82193.3942,7.65187,-0.1652,-0.80206,-2.73607,0.26267,-6.06284,-36.24,-5.16,-17.22,40.066025,-101.059242,60.724731,0.6489732637055082,0.55448091,-0.515706,0.07370173
9.6106,82193.4142,6.52181,0.28491,-0.95289,-2.6481,0.56139,-6.00175,-35.04,-8.4,-17.82,45.194225,-99.369835,58.37516,0.6643597164678077,0.56034017,-0.49333987,0.03550822
9.6349,82193.4342,4.3766,0.32561,-0.45969,-2.56319,2.21805,-5.83254,-33.54,-11.4,-18.54,50.09201,-96.546028,55.547188,0.6807560258334122,0.56438011,-0.46695212,0.00142911
9.6522,82193.4543,3.30639,0.88107,-1.82917,-2.63894,3.20582,-5.39822,-31.14,-14.82,-19.98,54.544182,-91.525177,52.356873,0.7013108851004161,0.5678193,-0.43046597,-0.02105549
9.673,82193.4742,1.4461,0.23703,-3.13162,-3.55462,3.4294,-5.13493,-28.92,-17.94,-21.48,59.517403,-83.537453,46.924,0.7255874330922689,0.56982654,-0.38307929,-0.04550658
9.6922,82193.4942,-3.06697,0.5363,-0.52912,-4.35058,4.20153,-4.49414,-25.62,-20.16,-23.76,64.121399,-69.091873,35.154274,0.7563610209559097,0.5619365,-0.32610795,-0.07615104
9.7128,82193.5143,-5.66229,0.6608,2.63123,-4.3799,4.92602,-2.94681,-22.14,-21.78,-26.58,65.701836,-49.478046,19.072912,0.7900503910648313,0.54410714,-0.26508185,-0.09746493
9.7339,82193.5342,-5.15232,2.30562,4.73573,-4.01827,4.89059,-1.54732,-18.48,-21.96,-29.7,63.933315,-32.123432,6.095,0.8218744862201812,0.52051812,-0.20733742,-0.10292915
9.7509,82193.5542,-5.41568,3.27527,6.90248,-3.68535,4.91685,-0.85949,-14.22,-20.76,-32.64,60.559368,-20.051224,-1.320936,0.849319310659697,0.49475604,-0.15605173,-0.09757575
9.7709,82193.5743,-7.70454,3.62722,7.52019,-3.50514,4.90219,0.47403,-10.44,-19.26,-35.22,56.117134,-8.176311,-7.534434,0.8761166498886949,0.46402967,-0.09360256,-0.09129426
9.7931,82193.5953,-7.13951,4.97036,12.06917,-3.30845,4.31149,1.59253,-6.66,-16.68,-37.26,50.941521,-0.595093,-8.744851,0.8999949670509079,0.42843544,-0.03746097,-0.07105497
9.8126,82193.6152,-4.04381,6.28478,16.25184,-1.43676,2.95537,2.33595,-3.12,-14.16,-38.76,46.619415,2.887368,-6.596704,0.917140601632761,0.39625144,0.00034011,-0.04286954
9.8412,82193.6352,0.70868,11.69089,14.62618,0.60476,1.85947,1.45264,0.36,-11.7,-39.78,45.098335,4.008832,-3.557656,0.922957262528956,0.38405952,0.02039067,-0.01524458
9.8548,82193.6553,-0.55306,12.28704,8.84658,1.26144,2.08183,0.61942,3.42,-10.26,-40.38,45.864403,5.12037,-2.044753,0.9202114177678922,0.38992468,0.03418653,0.00098575
9.8779,82193.6751,-0.56503,12.10508,5.76045,0.26756,3.2663,0.16982,5.58,-9.78,-40.08,47.059223,7.462121,-1.429444,0.9151634609540543,0.39909005,0.05468872,0.01456419
9.8962,82193.6952,-3.19626,11.74356,5.85861,-0.07147,3.88144,-0.26389,7.68,-9.78,-39.6,47.234821,11.468839,-1.384878,0.9120731149547378,0.39969984,0.08672444,0.02900935
9.9117,82193.7162,-8.14747,8.82024,5.01585,0.39889,3.35732,-0.23579,9.66,-10.08,-39.06,47.254379,16.782888,-2.194086,0.9073179034667737,0.39898026,0.12608622,0.04112468
9.9352,82193.7361,-10.49857,7.41005,3.90973,1.02686,2.3274,0.4331,12.06,-10.5,-37.86,47.836075,21.574829,-3.353356,0.8998081048208951,0.40310031,0.15936673,0.0495758
9.9512,82193.7563,-9.15064,7.97509,2.08296,1.18019,2.19362,1.08856,14.34,-10.5,-37.26,49.291756,25.131927,-4.072341,0.8897942018951026,0.41378868,0.1831575,0.05914843
9.9751,82193.7762,-7.35738,7.37414,3.4261,0.88575,2.38543,1.51372,16.44,-10.74,-36.06,50.921242,28.129753,-4.073676,0.8789734541266006,0.42453814,0.20445873,0.07327798
9.9926,82193.7962,-6.09564,7.24007,4.06775,0.90164,3.2498,1.98592,18.06,-11.4,-34.14,52.527412,30.846384,-3.203839,0.867424402009894,0.43306801,0.22647391,0.09346964
10.0107,82193.8163,-4.42448,8.67419,1.96564,1.12338,3.16001,2.06595,19.14,-12.36,-33.0,54.541565,33.797085,-1.745786,0.8524016387480251,0.44229701,0.25166044,0.12021574
10.0322,82193.8362,-4.42688,9.88087,-1.32399,1.38972,2.1759,1.73241,21.0,-13.38,-31.26,57.044098,36.837734,-0.929907,0.8348196535894569,0.45527363,0.27392882,0.1441009
10.0508,82193.8562,-4.23295,9.10994,-3.57933,1.11911,1.00182,1.57298,22.44,-14.88,-30.06,59.737598,39.812813,-1.31556,0.817247792753111,0.47161791,0.28986228,0.16019504
10.0709,82193.8763,-4.98712,7.20894,-1.23541,0.52229,-0.15333,1.82343,23.4,-16.2,-28.74,61.978775,41.322056,-1.648902,0.8046582630049697,0.48606679,0.29551181,0.17010857
10.0965,82193.8962,-4.97755,5.2457,1.20668,0.1857,-0.86254,2.3109,24.18,-17.82,-28.02,63.784214,40.468605,-0.63495,0.797646889682875,0.49733612,0.29089928,0.17830825
10.1171,82193.9162,-5.55934,4.06775,0.76854,-0.08491,-1.76784,3.18688,24.18,-19.26,-27.54,65.494759,37.375267,1.981797,0.7936059713542221,0.50768054,0.27830526,0.18707275
10.1327,82193.9372,-3.86424,1.3216,-0.41659,-0.78985,-2.66887,4.47948,23.58,-20.52,-27.18,67.365807,30.164707,7.865579,0.7916658754393824,0.51938033,0.25274092,0.19907597
10.1694,82193.9573,3.51469,3.5913,6.90009,-1.0684,-3.73605,5.09462,22.14,-21.48,-27.9,68.051331,15.398403,20.588619,0.7946979152151485,0.52575111,0.20834239,0.22053218
10.1905,82193.9772,11.18092,9.05008,8.7125,-0.27306,-3.43978,4.68045,19.44,-22.08,-27.96,67.225754,-4.232414,37.191795,0.795297989002158,0.53412575,0.14726441,0.24601623
10.1952,82193.9972,12.43309,11.47301,7.89129,-0.13439,-2.62611,3.50759,15.96,-23.22,-28.74,65.347,-20.635397,50.92416,0.7892796414927937,0.54434937,0.0922156,0.2687335
10.2146,82194.0172,7.12275,9.58399,7.10838,-0.11118,-1.52594,2.88206,12.18,-23.82,-29.94,62.907272,-31.11705,59.609676,0.7826657314995548,0.5499236,0.0513151,0.28702813
10.2347,82194.0372,2.29604,6.65588,2.53307,-0.24923,-0.56383,2.84663,8.16,-24.66,-30.78,60.549622,-37.70266,65.58033,0.7752844023816655,0.55220485,0.02379993,0.30567542
10.255,82194.0572,-2.77967,2.63123,-2.29365,-1.0739,-0.85399,4.16732,5.04,-25.14,-31.5,57.927582,-42.325886,70.385155,0.7675422618384531,0.55109662,0.00213466,0.32736346
10.2808,82194.0772,-0.77572,-0.0431,-3.87382,-1.74097,-2.56563,5.8136,2.22,-24.66,-31.8,53.241268,-47.545879,75.2686,0.7581976920224744,0.54479277,-0.0350024,0.3565276
10.2916,82194.0972,4.21858,-1.24977,-1.02711,-1.72508,-4.73665,7.12025,-0.72,-24.24,-32.1,46.460468,-54.543087,79.839897,0.7424028795904141,0.53907895,-0.09795269,0.38553485
10.3112,82194.1172,9.38048,-1.67834,1.16598,-1.36651,-5.09401,7.79036,-4.2,-23.34,-32.4,38.357952,-62.677582,83.711838,0.7148611096984022,0.53676975,-0.17865358,0.4110167
10.3317,82194.1372,12.85686,-0.86191,1.89621,-1.17714,-3.71589,7.94552,-8.64,-21.24,-32.52,28.685463,-70.32341,86.904633,0.6730994105253864,0.53073978,-0.26574907,0.44116879
10.3514,82194.1572,11.95185,-1.89621,0.80924,-1.50456,-1.75685,7.97301,-13.62,-18.96,-32.4,18.87307,-75.102394,88.72937,0.6289827624228096,0.51331538,-0.33892787,0.4754113
10.3714,82194.1772,11.94228,-2.59053,-2.44209,-2.20645,-0.36774,8.26989,-18.42,-15.24,-31.38,8.965588,-77.25769,89.450676,0.5876760506582825,0.48134416,-0.39921415,0.51339334
10.3915,82194.1972,12.32774,-3.9217,-3.95762,-2.65971,-0.75259,8.17093,-22.8,-10.74,-30.48,-1.16258,-78.41684,89.11377,0.5475957319160183,0.43789813,-0.45592853,0.54819095
10.4123,82194.2173,12.54322,-6.26323,-3.23217,-2.90894,-1.59802,8.07258,-25.8,-6.18,-29.64,-11.096198,-80.422089,87.927261,0.503770329216055,0.39293703,-0.51377183,0.57258576
10.4354,82194.2372,13.8744,-7.2688,-1.97043,-2.96697,-2.28219,7.97424,-27.54,-0.66,-29.4,-20.656696,-83.635223,85.911888,0.45514839126656825,0.34920022,-0.57113367,0.58711624
10.461,82194.2572,14.34845,-9.48822,-1.70467,-2.94926,-2.51921,7.65109,-28.44,5.22,-28.74,-29.726751,-88.096535,82.99691,0.4021438101218294,0.30717841,-0.62547523,0.59388763
10.4738,82194.2772,12.29423,-12.20803,-2.46603,-3.06532,-2.21805,7.52158,-27.9,11.22,-27.6,-38.332813,-93.347618,78.999825,0.3481866657765724,0.26324522,-0.67350173,0.59654289
10.4925,82194.2972,11.85609,-13.44584,-4.43885,-3.28035,-2.1026,7.49715,-27.06,17.52,-25.92,-46.472038,-99.961716,73.122131,0.2946363303138635,0.21541397,-0.71635658,0.59465915
10.5222,82194.3172,13.64456,-12.29662,-7.28556,-3.45689,-2.73545,7.01334,-25.26,22.86,-22.92,-53.772305,-109.577774,64.230164,0.2391509316007759,0.16655517,-0.75582844,0.58633572
10.5368,82194.3372,14.76504,-11.90876,-9.11951,-3.79225,-3.56379,6.12698,-22.86,27.48,-19.92,-58.985073,-123.571495,51.657063,0.1813944774934951,0.12466857,-0.79178381,0.56976503
10.5528,82194.3572,14.47056,-12.00932,-7.8051,-3.79836,-4.45748,5.20702,-19.8,31.8,-16.8,-61.033108,-141.509552,36.253529,0.1207079642901576,0.09398044,-0.82504731,0.54396158
10.5765,82194.3772,14.07312,-10.71405,-7.35499,-3.5363,-4.90586,4.32737,-16.5,34.8,-13.14,-60.137142,-159.392731,21.95742,0.0580806000209266,0.07418015,-0.85295379,0.51341385
10.6005,82194.3973,11.15219,-8.96868,-6.61757,-2.95292,-5.37439,3.08915,-13.32,37.68,-9.24,-57.382992,-174.178894,11.685838,0.004481435101373375,-0.06493592,0.87401617,-0.48151737
10.6159,82194.4172,8.71968,-7.89129,-8.40604,-2.8729,-4.88081,2.23149,-9.78,39.3,-5.82,-54.114017,174.902267,5.97461,0.06323094140381476,-0.06656657,0.88741028,-0.45174521
10.6389,82194.4372,7.11317,-7.42921,-8.96868,-3.38908,-4.22719,1.68904,-6.84,40.14,-1.98,-50.370899,167.084091,3.080526,0.11311020830288378,-0.0720158,0.8975817,-0.41996059
10.6573,82194.4573,5.6168,-6.56969,-9.67257,-4.02805,-3.58272,1.18264,-4.26,39.96,1.26,-45.992069,161.697113,2.291487,0.15408811576148906,-0.08029349,0.90739083,-0.38269007
10.6799,82194.4772,5.06134,-6.49547,-9.51935,-4.74642,-2.97064,0.77152,-1.8,39.6,3.84,-41.351078,159.754135,4.083708,0.1767201527321406,-0.09483328,0.91823459,-0.34149945
10.6927,82194.4972,4.3766,-6.43801,-8.72926,-5.49351,-2.23821,0.17959,0.18,39.12,6.9,-36.376404,159.932236,7.211453,0.1845277826031901,-0.11311071,0.93023336,-0.29634669
10.7141,82194.5173,5.64074,-5.63356,-8.98544,-5.93272,-2.33473,-0.53512,1.5,37.92,9.6,-30.92289,161.033264,10.921218,0.1831002653550966,-0.1341884,0.94214416,-0.24664174
10.7346,82194.5372,5.37019,-5.17387,-6.55772,-5.63218,-3.49415,-1.60963,3.24,37.08,12.96,-25.575031,161.706039,15.188525,0.18254402041611886,-0.16211709,0.94970196,-0.1961171
10.7607,82194.5582,2.27928,-6.71095,-7.00065,-5.16548,-3.47888,-1.93766,4.56,35.04,16.74,-21.005703,160.975616,20.225645,0.1915307917287818,-0.19992729,0.94937158,-0.14845416
10.773,82194.5782,-0.72544,-7.68539,-8.09001,-5.52772,-2.59923,-1.72569,5.34,33.0,20.34,-17.281872,160.075424,24.786085,0.19880894692652282,-0.23436755,0.94547421,-0.10782102
10.7945,82194.5982,-1.02951,-8.07085,-6.24168,-6.29741,-2.01341,-1.5461,6.9,30.78,24.0,-13.226735,159.540054,29.109064,0.19923840816045868,-0.26545835,0.94104362,-0.06536686
10.8129,82194.6183,-0.47645,-5.4899,-3.80918,-6.20578,-2.16674,-1.64873,7.44,28.38,26.7,-8.695496,159.056198,33.345203,0.19499878400300955,-0.29451141,0.93534029,-0.01941766
10.8334,82194.6382,-0.62728,-2.02071,-2.76051,-5.40799,-2.71285,-2.20217,7.86,25.5,29.58,-4.761021,157.845474,37.620613,0.19485683337252996,-0.32370973,0.92558056,0.02331206
10.854,82194.6582,-1.43173,-2.2697,-1.81241,-4.38601,-2.98102,-2.62489,8.52,22.2,31.56,-2.232934,155.685135,42.181023,0.20330809935597832,-0.35553378,0.91043836,0.05799604
10.8744,82194.6783,-3.28963,-1.98958,-3.17232,-3.67435,-2.78555,-2.69514,9.42,18.42,33.84,-0.594133,152.78743,46.737228,0.2179476818119828,-0.38662779,0.89171356,0.08868307
10.9058,82194.6982,-6.7732,-2.71024,-4.84826,-3.47277,-1.97187,-2.44652,10.74,14.94,35.7,0.081565,149.763992,51.147549,0.23495988707460158,-0.41656548,0.87089151,0.11320349
10.9162,82194.7182,-9.11951,-3.94804,-7.38372,-3.70612,-0.61087,-1.55648,12.18,12.06,36.6,0.913447,147.528351,55.258381,0.24415197944781006,-0.4432641,0.8516407,0.13643631
10.9358,82194.7383,-9.76595,-1.42694,-8.64067,-4.48558,0.56077,-0.71838,13.08,9.36,37.38,2.846348,146.596817,58.794323,0.23862823891172252,-0.46378973,0.83773077,0.16174921
10.9559,82194.7582,-9.57202,0.53151,-7.69257,-5.39089,1.15942,-0.08552,13.44,7.44,37.56,6.2267,146.586731,62.163113,0.21898110685088307,-0.48036471,0.82713234,0.19274105
10.9752,82194.7782,-9.03332,0.00479,-3.92888,-6.18379,2.59618,0.45387,13.56,4.8,38.1,10.802568,146.892441,65.558792,0.18963115871511171,-0.49411318,0.81685591,0.22943106
10.9934,82194.7983,-7.82186,1.64242,1.01035,-6.17646,4.03904,0.65973,12.78,1.26,38.34,16.420631,148.066208,69.06366,0.14646361304775468,-0.50704658,0.80618006,0.26744324
11.0203,82194.8182,-8.60476,2.26731,-1.58496,-5.31758,5.03658,0.77213,11.58,-2.7,38.94,22.000277,150.319382,72.309624,0.09418452947834521,-0.52035135,0.79498559,0.29725689
11.0331,82194.8382,-10.66138,4.85305,-5.4109,-4.72199,5.31575,1.23578,9.3,-7.26,38.88,27.152155,153.639099,74.771591,0.037338149431728945,-0.53213704,0.78451669,0.31617969
11.0565,82194.8583,-10.28788,8.39168,-7.762,-4.59371,4.14594,1.67438,6.3,-12.48,37.74,32.349571,157.26297,76.214569,0.019573467039855675,0.53787118,-0.77477032,-0.33172643
11.0735,82194.8782,-8.73405,7.57286,-6.32309,-4.79896,4.33348,2.23638,2.4,-16.38,36.66,37.717926,160.032959,76.918892,0.06953267963681477,0.53577876,-0.76464528,-0.35131741
11.0939,82194.8982,-3.96959,7.62793,-5.96874,-5.8753,6.3646,2.23088,-1.2,-20.34,34.44,43.70845,164.426895,76.836899,0.13065891529728657,0.53191078,-0.75182116,-0.36710232
11.1147,82194.9183,-0.97923,9.73722,-1.51074,-5.84354,6.85452,1.55099,-5.1,-23.94,31.68,50.978535,171.045303,76.652443,0.2107766541719684,0.53171456,-0.726807,-0.38026887
11.1335,82194.9382,-0.65841,10.65899,-2.3966,-4.60409,6.40492,0.8546,-8.34,-26.46,28.02,57.661663,178.352905,76.212868,0.28765388779440837,0.53512037,-0.69353789,-0.38717777
11.1552,82194.9582,-1.90578,10.45548,-3.39977,-3.88632,5.73297,0.55222,-11.82,-28.56,22.86,62.889778,-174.716217,75.558014,0.35033046234566556,0.54109973,-0.65885866,-0.38779494
11.1764,82194.9782,-4.68785,9.67497,-1.86029,-3.54424,6.11659,0.76908,-15.3,-30.54,17.64,67.377335,-167.991409,74.61248,0.40356266528746965,0.5476771,-0.62303394,-0.38602549
11.2357,82195.018,-2.27928,8.68616,1.24977,-2.89367,7.21737,1.77212,-17.7,-31.38,11.94,73.730034,-139.970505,60.445618,0.5203525434032374,0.55581844,-0.54619461,-0.34924281
11.2417,82195.0392,4.13,10.71166,-0.72305,-2.59312,7.45928,1.62673,-19.92,-31.38,5.04,74.913315,-120.529015,48.451935,0.5757457596919677,0.55792105,-0.50480878,-0.32001409
11.2567,82195.0592,4.24971,11.44428,-3.18429,-2.86557,7.76593,0.70311,-20.76,-31.38,-1.38,74.841736,-100.257088,36.526611,0.629638909559476,0.56094855,-0.45674667,-0.28332675
11.2761,82195.0793,-1.63045,8.68138,-2.35589,-3.76843,8.46415,0.39584,-21.72,-30.36,-7.8,74.970718,-80.52285,25.162436,0.6766589168651703,0.56494784,-0.39935631,-0.25195473
11.2925,82195.0992,-5.68623,6.97192,2.21464,-4.17649,9.19535,1.07268,-21.06,-28.8,-14.46,74.048325,-56.742767,10.521358,0.7257606571642112,0.56237739,-0.32920268,-0.22051924
11.3124,82195.1192,-4.13239,5.66708,4.59447,-4.14839,10.09943,1.93828,-19.26,-27.72,-19.44,70.819588,-36.112484,0.285765,0.7753363159570725,0.55151385,-0.25124389,-0.1776586
11.3341,82195.1392,2.16915,6.06212,8.21451,-3.75621,9.88441,1.93828,-15.96,-25.8,-24.96,65.936501,-21.95685,-2.293973,0.821378781178848,0.5309099,-0.17043486,-0.12009802
11.3524,82195.1591,3.87382,7.74524,12.16494,-2.33717,8.83861,1.03358,-11.04,-23.7,-29.4,61.236252,-11.911584,-1.228025,0.8553202861905599,0.50557852,-0.09471819,-0.06201639
11.3731,82195.1792,-0.0431,7.58962,7.49864,-0.22297,7.3255,0.47892,-5.88,-21.48,-32.7,58.801735,-3.332544,-0.057692,0.870830705653189,0.49069652,-0.02557984,-0.01471323
11.3973,82195.1992,-2.9736,7.35978,0.66319,0.27611,5.80872,0.42638,-0.12,-19.32,-35.22,58.811733,3.935373,0.685817,0.8705333966791435,0.49051559,0.0328484,0.02206907
11.4174,82195.2192,-7.09881,7.57047,-2.03986,-0.12828,4.38174,0.85827,4.98,-18.42,-35.58,59.476963,10.592393,0.540039,0.8643663301607929,0.49354094,0.08247469,0.04986094
11.4375,82195.2401,-6.33027,7.03177,0.90022,-0.41905,2.16613,1.50273,9.36,-17.76,-34.86,59.794979,14.712546,1.487764,0.8588820618570425,0.4928644,0.11740783,0.07497792
11.4576,82195.2602,-5.9448,5.76763,4.41491,0.03787,0.65912,2.17407,12.36,-17.94,-34.02,59.935791,15.423737,3.532805,0.8559959774069429,0.4911781,0.1314536,0.09346075
11.4777,82195.2802,-1.7358,6.60081,4.32393,0.36835,-0.16005,2.75195,14.22,-17.94,-32.76,60.694672,13.1203,7.318072,0.851896666800107,0.49461743,0.1304238,0.11231785
11.5062,82195.3022,1.17795,10.21127,2.9305,0.77946,-0.93035,2.36771,14.58,-17.64,-32.22,62.014729,8.033332,13.04361,0.8453644775067506,0.50373816,0.11801597,0.13296239
11.5305,82195.3222,-0.64165,9.38766,-1.21147,0.03421,-0.93462,2.31151,14.46,-18.42,-32.46,63.676994,2.815204,18.017965,0.8367759604656165,0.51759404,0.10319147,0.14578725
11.5471,82195.3423,-3.98395,7.37893,-2.56898,-1.22234,-1.09101,2.94009,13.98,-19.08,-32.64,64.336082,-2.091032,22.80224,0.8315689254272933,0.52486479,0.09008545,0.1577805
11.5572,82195.3622,-5.0374,3.4668,-3.51229,-2.47828,-2.03785,4.50024,12.54,-19.8,-32.82,63.620613,-8.175461,28.684853,0.8305252843753057,0.5243867,0.07155241,0.17357014
11.5775,82195.3822,3.61764,2.96402,-2.41336,-3.20277,-4.59737,5.44892,11.22,-20.34,-33.0,61.106667,-18.803522,37.831059,0.8306283352565907,0.52003199,0.02949839,0.19685818
11.5971,82195.4023,11.56399,3.65116,2.53785,-2.44468,-7.04083,5.5546,8.28,-19.44,-33.48,55.822388,-32.953316,47.073544,0.8299055097053234,0.51162159,-0.05052568,0.21667337
11.6179,82195.4222,14.87518,2.83713,2.82755,-2.14414,-6.30474,5.26688,4.08,-18.06,-34.2,49.568027,-47.080002,54.093086,0.817443757686564,0.5071649,-0.14819524,0.22936355
11.6406,82195.4422,12.81616,0.18196,4.87938,-2.55281,-4.81606,5.16181,-1.2,-16.44,-34.98,42.537285,-56.78096,57.590893,0.8015144168523022,0.49308437,-0.23459063,0.24374101
11.6611,82195.4632,11.25035,0.62728,7.31189,-2.36344,-3.25225,5.44403,-7.02,-14.22,-35.22,34.747162,-62.884552,58.767876,0.7859178975661528,0.46625251,-0.30879614,0.26379272
11.6824,82195.4852,9.93594,-0.85473,5.17866,-2.34267,-1.52777,5.56926,-12.0,-11.46,-35.22,26.855751,-66.395996,59.383953,0.77002446740708,0.43260458,-0.36638731,0.29270452
11.7055,82195.5063,7.67821,-3.51229,2.42772,-2.73484,-0.77091,5.80566,-16.08,-8.64,-34.62,18.780716,-67.960876,59.599804,0.7552536761385644,0.39144668,-0.41126508,0.32744834
11.726,82195.5273,9.32063,-4.0893,2.97599,-2.94804,-1.43859,6.14164,-18.96,-4.38,-33.9,10.248473,-68.819351,59.35627,0.7389183747819289,0.342702,-0.45252925,0.36300448
11.7471,82195.5492,12.88559,-3.03345,6.61278,-2.23088,-2.51432,5.78428,-21.0,-0.24,-33.72,1.378405,-70.741486,58.941105,0.7132890230211445,0.29330629,-0.49910283,0.39507791
11.7734,82195.5712,13.38598,-1.5275,8.12831,-0.79962,-2.97797,5.07812,-22.38,3.9,-33.18,-6.123083,-73.723946,59.14798,0.679041389415225,0.25848687,-0.54208046,0.42218018
11.7957,82195.5912,11.58794,-1.69031,3.79481,0.27245,-2.49111,4.83989,-23.1,8.58,-32.28,-11.918604,-76.593956,60.496208,0.6418830221858582,0.24011582,-0.57351398,0.44878981
11.8104,82195.6122,11.81299,-2.20027,-0.08619,0.0843,-1.90834,4.62486,-23.16,11.94,-31.86,-16.881678,-78.657219,62.359699,0.6064532148981953,0.22742143,-0.59512872,0.4757266
11.8298,82195.6322,10.25676,-2.92332,-1.03669,-0.54184,-1.11727,4.25284,-22.98,15.18,-30.36,-21.757568,-80.321457,63.588802,0.5737556980792966,0.21109886,-0.61430085,0.49887487
11.8471,82195.6522,9.27753,-3.77326,-0.85234,-1.16859,-0.63286,4.02072,-23.22,18.3,-28.8,-26.102955,-81.511681,63.71101,0.548975336753035,0.19035497,-0.63046712,0.51468658
11.8695,82195.6722,9.02375,-4.84347,0.77333,-1.47341,-0.65485,3.81608,-23.22,20.64,-27.9,-30.259655,-82.682419,62.958122,0.5280734585856921,0.16584818,-0.64613229,0.52549583
11.8939,82195.6922,9.5816,-5.89213,2.40857,-1.46913,-0.821,3.75316,-22.62,23.28,-26.28,-34.216293,-84.076942,61.801868,0.5079112644929868,0.14120385,-0.66135865,0.5335657
11.9139,82195.7122,12.60308,-4.31196,5.04458,-1.02564,-0.88209,3.35609,-21.72,25.32,-25.14,-37.865501,-85.530945,60.694141,0.4879659817146406,0.11893611,-0.67460865,0.54096818
11.9288,82195.7322,16.45056,-2.96402,5.93762,-0.32803,-0.81489,2.40803,-20.16,27.06,-24.42,-40.574936,-86.480896,60.29995,0.471549273925293,0.104321,-0.68249971,0.54859143
11.9488,82195.7522,18.54788,-2.35589,4.83629,0.48258,-0.70494,1.15209,-18.12,28.8,-23.4,-42.991657,-87.430168,60.387753,0.4539133255433789,0.09446501,-0.68896902,0.5571003
11.9707,82195.7732,20.63084,-1.45089,3.09091,1.11239,-0.68906,-0.49663,-16.86,30.18,-22.5,-43.841621,-87.445328,61.666821,0.4434320637317903,0.09697534,-0.68885529,0.56519216
11.9921,82195.7942,21.34431,-1.25696,1.67834,1.46669,-0.61514,-2.19973,-15.96,30.72,-22.02,-42.677303,-86.94854,63.684082,0.4421260763945782,0.11378355,-0.68372899,0.56929123
12.0135,82195.8163,18.8304,-3.53145,-1.00078,1.42087,-0.27672,-3.77637,-15.6,30.72,-21.96,-39.383945,-86.177895,65.798195,0.45228509893954427,0.14273368,-0.67369604,0.56674415
12.0452,82195.8361,17.63569,-4.59926,-2.65278,0.78007,-0.28772,-4.86737,-16.74,29.58,-22.38,-34.438419,-85.574722,67.165413,0.4727550423069981,0.17790808,-0.66070485,0.55526614
12.0555,82195.8562,17.3436,-5.16429,-2.15718,0.31215,-0.58704,-5.89057,-17.94,28.02,-23.22,-28.52408,-85.783455,67.351448,0.4979306838958809,0.21556099,-0.64902449,0.53325951
12.0724,82195.8762,18.06186,-5.94001,-1.00556,0.14416,-1.32313,-6.94126,-20.46,26.28,-24.12,-21.476027,-86.703072,67.001709,0.5251452870409966,0.2592876,-0.63719004,0.50098026
12.0909,82195.8962,16.12974,-7.72369,1.26414,0.1576,-1.61391,-7.56496,-23.52,23.88,-24.66,-13.322984,-88.428574,66.635223,0.550455888905339,0.31097269,-0.62446249,0.45862937
12.1125,82195.9162,14.25268,-7.73327,1.51074,0.10873,-1.08062,-7.736,-26.22,21.18,-24.3,-4.573401,-90.154472,66.552841,0.5743962533199237,0.36463216,-0.60694903,0.41076174
12.1327,82195.9362,11.81299,-6.49786,-0.12689,-0.07636,-0.832,-7.309,-29.04,17.58,-23.94,4.225443,-91.282219,66.574242,0.598510320916864,0.41368198,-0.58311689,0.361424
12.1531,82195.9562,11.90637,-3.95522,-1.65918,-0.27245,-0.88698,-6.8588,-31.26,13.08,-23.1,12.433695,-92.256355,66.526749,0.6189079082626312,0.4558304,-0.55807012,0.312617
12.1756,82195.9762,12.99812,-2.23858,-3.24893,-0.65179,-1.17897,-7.11658,-33.0,8.76,-22.44,20.307291,-93.308121,66.365768,0.6356377096658862,0.49305716,-0.53287339,0.26249817
12.1941,82195.9962,11.3557,-3.21541,-0.65841,-1.12521,-1.95966,-7.37192,-34.26,4.02,-22.14,27.10519,-94.688393,65.867599,0.6465640516904935,0.52197033,-0.51373804,0.21348332
12.2193,82196.0162,9.06924,-2.38223,2.2697,-1.07268,-2.09344,-6.86918,-34.86,-1.14,-21.36,33.515026,-96.455528,64.990089,0.6535330616984848,0.54564881,-0.49913627,0.16132234
12.2345,82196.0362,7.61117,-0.31603,1.43413,-0.8265,-1.20035,-6.12637,-34.74,-5.64,-20.34,39.112625,-97.970085,64.247498,0.6580261759401329,0.5641194,-0.48534673,0.11493218
12.2553,82196.0562,7.90565,0.99359,0.0814,-0.79535,0.14905,-5.61691,-33.66,-10.44,-19.02,43.859222,-98.406853,63.841713,0.6639359337758882,0.57843113,-0.46703985,0.0805002
12.2713,82196.0762,7.86974,2.15718,-0.14126,-0.94684,0.47098,-5.88385,-32.22,-14.28,-17.58,48.312019,-97.400551,63.295067,0.6739613662383994,0.58958942,-0.44183344,0.05425499
12.2919,82196.0962,4.27126,3.52426,0.07661,-0.63652,-0.19609,-5.95594,-30.48,-17.7,-17.04,53.18005,-96.198257,62.438786,0.6834032862189039,0.6006211,-0.4142552,0.02463477
12.3107,82196.1162,2.0231,4.72376,-2.80361,-0.26817,-0.32987,-5.42937,-28.44,-20.64,-17.34,58.112091,-96.681778,62.650444,0.6849855503982465,0.61529839,-0.39005217,-0.00787348
12.3305,82196.1362,3.51708,4.15873,-3.47399,-0.67501,-0.6915,-5.17036,-25.8,-23.88,-17.94,62.585949,-98.470261,64.010788,0.6816568174215423,0.63062429,-0.36908248,-0.03788286
12.3514,82196.1562,3.2633,4.93445,-0.7446,-1.2034,-0.81123,-5.24367,-22.62,-26.82,-18.6,67.105728,-99.736702,64.412224,0.6797225831626295,0.64102209,-0.34926695,-0.07127754
12.3706,82196.1762,1.40061,5.76284,0.17238,-1.06596,-0.63897,-4.99443,-19.32,-28.98,-18.72,72.40258,-99.869881,63.699883,0.6797185720267449,0.64880812,-0.32397398,-0.10987059
12.3964,82196.1963,-4.64954,4.71658,-2.70066,-1.28465,0.51557,-4.23452,-16.2,-31.14,-19.44,78.123878,-99.250237,62.675026,0.6792814243271644,0.65630001,-0.29293495,-0.14844581
12.411,82196.2162,-6.55772,4.55856,-5.47075,-2.14047,1.77456,-3.05494,-13.08,-32.4,-19.62,82.80484,-91.489525,55.819447,0.684285451358881,0.65931129,-0.25872093,-0.17356706
12.4315,82196.2362,-6.9791,5.44681,-4.7501,-3.42268,3.04333,-2.16491,-10.32,-33.06,-20.52,86.839996,-61.854359,28.557127,0.690944332789432,0.66347009,-0.21634601,-0.18867372
12.4519,82196.2563,-8.86094,4.82432,-0.79966,-3.93642,3.37137,-1.27793,-7.56,-33.24,-21.78,85.234245,15.39182,-44.943203,0.7085504947489617,0.65771496,-0.1654072,-0.1949556
12.475,82196.2762,-11.83454,4.5849,0.44053,-3.9413,4.05431,-0.18204,-4.8,-32.76,-23.52,80.468086,31.001987,-56.290955,0.7300843300594463,0.64505929,-0.11370116,-0.194801
12.496,82196.2962,-11.92552,4.55617,0.14126,-4.0421,4.37074,0.92729,-2.04,-31.2,-25.5,76.020866,33.923641,-53.893982,0.7532125717652829,0.62922865,-0.06202185,-0.18137094
12.5151,82196.3172,-8.23127,4.60166,2.63841,-3.89243,3.26507,1.55893,0.66,-29.16,-27.84,71.857018,32.546825,-46.584492,0.7789748273082723,0.60708475,-0.01431143,-0.1563378
12.5313,82196.3372,-8.27676,6.16268,9.81144,-2.3952,1.32375,1.97859,2.58,-26.82,-30.36,68.120049,29.676275,-39.600765,0.8020636768439295,0.58124447,0.01622341,-0.13632874
12.5528,82196.3572,-5.58807,8.79151,9.96227,-0.53878,0.11545,2.38726,4.2,-24.72,-31.5,66.164413,25.936762,-33.844444,0.8168173458566694,0.56361932,0.02506401,-0.12047606
12.5711,82196.3772,-4.48673,10.89362,3.9624,-0.03848,0.32376,2.46851,4.8,-23.16,-32.88,66.27459,22.381805,-29.402193,0.8214735981341138,0.5599401,0.02110559,-0.10584312
12.5927,82196.3972,-0.64165,10.96784,0.95289,-1.43798,1.46241,2.3219,4.32,-22.08,-33.48,66.664391,18.730232,-24.249519,0.8247543568480041,0.55863059,0.01904625,-0.08572838
12.6118,82196.4172,2.91135,10.07241,9.61272,-2.41964,2.87595,1.31153,4.02,-21.42,-33.6,65.040871,14.88832,-17.678667,0.8368656929893931,0.5435251,0.02603369,-0.05965337
12.6362,82196.4372,-0.07901,8.50181,11.96143,-1.63956,4.8857,0.65179,3.96,-20.58,-34.26,62.297726,14.877068,-13.297951,0.8506700141304184,0.52228922,0.05066427,-0.03174318
12.6579,82196.4572,-5.46357,5.1188,8.90404,-0.70983,6.09094,0.71716,4.32,-20.04,-34.68,60.263775,18.95838,-11.102736,0.8570594246112732,0.5065943,0.09386853,-0.00023868
12.6787,82196.4772,-8.83939,3.6344,5.57849,-0.06414,5.85637,1.58031,6.6,-19.14,-34.74,59.169434,24.495596,-9.381514,0.8555518870194022,0.49594334,0.14440927,0.03488746
12.6919,82196.4972,-7.05092,4.35505,2.62405,0.63713,4.76719,2.43369,9.12,-18.54,-34.32,59.342731,28.802826,-6.752926,0.847366706533259,0.49136457,0.18748808,0.07333992
12.7139,82196.5172,-4.03184,5.74848,1.28569,1.17958,3.4294,2.76783,11.76,-18.6,-33.24,60.83213,31.170645,-3.60804,0.834534005032831,0.4947128,0.21622922,0.10980512
12.7322,82196.5381,-2.44927,5.60243,0.63686,1.02076,3.69635,2.82586,14.7,-18.78,-31.74,63.067841,32.487549,-0.589258,0.8190474212551591,0.50334436,0.23583271,0.14208698
12.7525,82196.5582,-0.58179,6.8115,2.62165,0.2981,4.40006,2.86313,16.74,-19.68,-29.94,65.268394,32.896183,4.142713,0.8016211956242535,0.50824821,0.2569845,0.18178609
12.7738,82196.5782,-1.27132,7.41005,4.69982,0.58154,4.51735,2.98163,18.54,-20.76,-28.26,66.846886,32.359364,10.175347,0.7847961226081326,0.50629723,0.27856392,0.22396496
12.7968,82196.5982,-1.85551,9.39485,1.49877,1.32069,3.54058,2.88267,20.04,-21.84,-26.34,69.113792,31.647511,16.173464,0.7627176348796887,0.50871235,0.29910433,0.26459432
12.824,82196.6183,-0.39265,8.21929,-1.70228,1.07512,2.69025,3.02928,20.94,-23.22,-24.72,72.13459,30.040148,21.878063,0.7375704788337758,0.51853645,0.31358144,0.29795372
12.8369,82196.6402,4.94642,10.88644,1.75016,0.82406,2.33595,2.79898,21.18,-24.96,-22.74,74.932571,23.387363,31.828245,0.7136443111904708,0.52872992,0.31803361,0.3316792
12.8571,82196.6612,6.46674,12.36126,1.38864,0.68845,2.31335,1.93461,21.48,-26.7,-20.34,77.219398,13.154788,45.245407,0.6890490526037271,0.5377779,0.32107356,0.36457935
12.8764,82196.6812,6.71813,12.81137,2.6025,0.8717,1.52716,1.24678,21.3,-28.08,-18.3,78.466576,3.359863,57.587975,0.6695836921098198,0.5431022,0.32441014,0.38917315
12.895,82196.7012,6.08127,12.72039,1.15161,1.25594,0.79107,0.40256,21.18,-29.64,-16.32,79.635384,-5.529637,68.029152,0.6532004906758591,0.55088842,0.3270852,0.40356702
12.9153,82196.7212,4.19943,12.45703,-1.58496,0.91202,0.24557,-0.12889,21.24,-30.72,-14.94,81.060196,-12.272342,75.548737,0.6398852388464854,0.56048208,0.3315675,0.408007
12.9353,82196.7412,2.29125,11.00854,-1.30963,0.20769,-0.37996,-0.18937,20.94,-31.38,-14.34,82.034912,-17.008156,80.3657,0.632720332882028,0.56787747,0.33355728,0.40733242
12.9566,82196.7612,1.84832,10.47224,0.34716,-0.31582,-0.81551,-0.20708,21.0,-32.34,-13.38,82.219681,-20.504694,83.290825,0.6318079866182944,0.57260287,0.32973719,0.40523821
12.9769,82196.7812,0.66319,10.51773,0.51954,-0.70066,-0.94745,-0.18387,21.18,-32.4,-13.32,81.95919,-21.946699,83.791855,0.635034003151357,0.57518142,0.32294759,0.40199876
13.0006,82196.8012,-0.11971,10.6111,1.32878,-1.03908,-1.34513,0.02199,21.3,-32.58,-13.44,81.233612,-21.471478,82.208588,0.6416916388898833,0.57491088,0.31394669,0.39893207
13.0182,82196.8212,1.31921,12.19846,1.50595,-0.98471,-2.44896,-0.00977,21.6,-32.58,-13.8,80.191513,-21.918242,80.976456,0.6506802109127752,0.57532978,0.29995766,0.39450768
13.0382,82196.8412,3.37104,14.04439,0.90501,-0.94073,-3.93153,-0.23702,21.3,-31.8,-14.88,79.288254,-23.859583,79.866928,0.6623505760037491,0.58083206,0.27864334,0.38247055
13.0601,82196.8612,5.54497,15.29655,0.73981,-0.77397,-5.63645,-0.83261,20.34,-31.74,-16.02,78.587563,-26.878082,78.036957,0.6774820165224514,0.59180015,0.24804324,0.35953477
13.0792,82196.8813,4.18506,12.63181,0.44772,-0.8265,-6.35544,-1.08734,19.14,-31.02,-17.94,78.368065,-29.404655,73.917633,0.6955045184303273,0.60660946,0.21023862,0.32264245
13.1003,82196.9012,3.3447,10.86489,-0.577,-1.12705,-7.23264,-1.18997,17.64,-30.9,-19.62,78.195679,-31.599892,68.705513,0.7133950472253201,0.62021571,0.16796872,0.27961847
13.1165,82196.9212,3.4285,9.85932,0.1245,-1.19302,-8.55639,-1.18813,15.66,-30.66,-22.08,77.871735,-33.948002,62.448086,0.7313065516935786,0.63172263,0.11739764,0.22876853
13.1354,82196.9413,2.82755,6.96473,2.45166,-1.19852,-9.06952,-0.95173,13.14,-30.06,-24.48,77.437637,-37.518833,55.994648,0.7467472519682629,0.64074486,0.0564782,0.16918859
13.1594,82196.9612,5.37498,9.36372,4.84586,-1.29442,-8.12756,-0.9218,9.06,-29.64,-26.52,76.622818,-41.932964,50.225235,0.7575857316877239,0.64332646,-0.00854689,0.11009939
13.1796,82196.9812,3.32555,7.3071,2.54264,-1.27854,-7.2412,-1.12155,4.68,-28.5,-28.62,75.911537,-44.474976,43.73103,0.7640248125336903,0.63948435,-0.06490637,0.0557944
13.2027,82197.0012,2.6408,5.87537,2.53546,-1.42209,-6.77083,-0.92118,0.36,-27.72,-29.76,75.281143,-45.79348,36.790733,0.7671732264497357,0.63106388,-0.11480952,0.00473224
13.2206,82197.0212,3.32555,6.80911,2.34632,-1.91384,-5.69143,-0.77152,-4.14,-26.82,-29.88,74.329323,-46.638065,30.135229,0.7688135623688159,0.61769331,-0.160394,-0.04067488
13.2357,82197.0412,4.44603,8.34379,3.01669,-2.11909,-5.48313,-1.01098,-8.22,-25.8,-29.82,72.908409,-45.790092,22.77249,0.7720192960796369,0.59837443,-0.19869921,-0.08032977
13.2597,82197.0612,1.4054,7.20894,3.73256,-1.83382,-6.02069,-1.17408,-11.82,-25.08,-29.1,71.720001,-44.306301,14.634896,0.7726446941613652,0.5770672,-0.23401441,-0.12349445
13.2773,82197.0822,3.19147,5.63834,2.90177,-1.73608,-6.41958,-0.77702,-15.6,-24.18,-28.08,70.629059,-44.56319,7.375917,0.7675967122985328,0.55369455,-0.27434331,-0.17015693
13.2965,82197.1022,8.64307,8.64546,6.62715,-1.21868,-7.18194,-1.18997,-18.6,-23.52,-27.0,69.214729,-46.704544,1.742991,0.7589790800698875,0.52632785,-0.31827992,-0.21360628
13.3189,82197.1232,7.40527,9.11951,9.21049,-0.1912,-7.38292,-1.93095,-21.0,-23.28,-25.2,68.697426,-49.679966,-3.806345,0.7409514065315438,0.50022751,-0.36364388,-0.26177582
13.3398,82197.1443,3.10767,8.87291,5.64074,0.35613,-6.97791,-1.79655,-23.52,-23.04,-22.74,69.802277,-53.708748,-8.955007,0.7092841242461679,0.47997856,-0.40919715,-0.31479248
13.3601,82197.1642,2.5618,9.2895,3.94086,0.30238,-6.90461,-1.47463,-25.56,-23.28,-20.22,70.965233,-58.042305,-12.456596,0.6772961236888629,0.46172035,-0.44777459,-0.3571865
13.3796,82197.1842,2.01352,10.18972,4.30238,0.61209,-6.68836,-1.35734,-27.24,-23.76,-16.74,72.070793,-62.58477,-15.496116,0.6435139529117238,0.44149047,-0.48395813,-0.3959299
13.4009,82197.2052,1.22104,10.04607,5.31273,1.4111,-7.69812,-1.36467,-28.62,-24.66,-12.96,73.477623,-68.150696,-17.421133,0.6053656509446915,0.42175177,-0.51884979,-0.43180177
13.4223,82197.2252,1.32878,9.89045,5.48272,2.45385,-8.73598,-1.30053,-29.58,-25.8,-8.76,75.358093,-78.935928,-15.571721,0.55271460335318,0.39936048,-0.56236672,-0.46771941
13.4449,82197.2462,2.48997,10.74757,5.66229,3.99445,-9.51423,-1.54243,-29.76,-27.06,-3.54,77.051292,-98.5121,-6.070377,0.4849075241058793,0.37457702,-0.61341333,-0.49827787
13.4646,82197.2672,3.62722,11.88721,2.57856,4.70427,-8.35725,-1.91079,-29.22,-27.66,1.56,77.251831,-126.34198,11.998369,0.4088832852336742,0.35305327,-0.66388035,-0.51713705
13.4872,82197.2882,-1.4868,9.54329,-2.03028,4.27361,-7.50998,-1.82343,-27.3,-27.9,7.8,75.107651,-156.093094,32.58213,0.32487505597974753,0.33873686,-0.70903778,-0.52628791
13.5033,82197.3082,-4.13239,8.94234,6.42125,3.94375,-6.94554,-1.63834,-24.06,-27.6,14.58,72.62793,-174.558426,43.444679,0.2544685358825781,0.32400697,-0.73731571,-0.53537911
13.525,82197.3282,-4.10127,8.47787,5.42047,5.89057,-8.34931,-1.76723,-20.22,-26.58,20.7,69.29673,171.234406,49.865883,0.18196201326936656,0.30638444,-0.76212096,-0.54054606
13.544,82197.3482,-5.06852,5.29597,3.75411,7.61993,-8.55822,-2.03968,-15.18,-25.14,26.34,63.585129,158.760391,52.629841,0.08914374138117366,0.28330648,-0.79187268,-0.53359956
13.5665,82197.3683,-7.67342,1.97522,0.70629,8.02738,-7.15201,-1.79717,-9.78,-22.5,31.38,55.97094,149.128632,51.984459,0.013026716163312992,-0.26078314,0.8198514,0.50957447
13.5828,82197.3882,-6.61997,0.79966,1.36469,7.77143,-5.09706,-1.33779,-4.26,-18.06,34.38,48.371563,142.664932,49.059021,0.10448639975773841,-0.23949695,0.84067434,0.47433159
13.6077,82197.4082,-4.06057,-1.87466,0.62489,7.93331,-2.54975,-1.48074,1.32,-12.48,36.78,41.02253,139.172165,45.01226,0.17610542062473777,-0.22309111,0.85771132,0.42842564
13.6289,82197.4283,0.16041,-2.56898,-4.83868,7.88138,-1.35551,-2.05923,5.46,-5.76,37.98,32.886539,140.093674,39.566723,0.2179208909811287,-0.21423966,0.88101315,0.36114773
13.6439,82197.4481,-0.05267,-2.87544,-5.69581,7.56068,-1.82588,-3.09281,8.46,0.54,37.74,24.358713,140.531693,35.574303,0.25361589456407607,-0.21323763,0.89786279,0.28991568
13.6645,82197.4692,-5.31752,-7.54174,-0.71347,7.96019,-2.26326,-3.45689,10.68,6.66,36.78,14.819111,139.088882,32.69175,0.298549006776881,-0.21823919,0.90424907,0.21348013
13.6893,82197.4892,-5.94241,-10.30704,-1.83635,8.16421,-0.74953,-2.66948,11.22,13.44,34.86,3.37205,136.516388,29.493996,0.3511108363109315,-0.22580101,0.9006505,0.12068041
13.7061,82197.5092,-5.21697,-9.93594,-6.98867,7.49226,0.84299,-2.27547,11.34,19.14,32.04,-7.019439,135.750916,25.34444,0.3791984322643516,-0.22533333,0.89704907,0.02713679
13.7251,82197.5302,-7.18739,-10.07241,-10.29986,6.51488,0.7251,-1.97187,10.74,25.02,27.84,-16.341841,135.975769,21.268091,0.38894170038819637,-0.22170141,0.89210248,-0.061041
13.7462,82197.5502,-6.39252,-9.13867,-9.414,5.73053,-0.05498,-1.29687,9.12,30.18,23.52,-23.755398,135.448715,17.72406,0.3958602542741024,-0.21659489,0.88272822,-0.13104275
13.7665,82197.5702,-1.36469,-9.25838,-5.69102,4.84844,1.0794,-0.81428,8.22,33.42,19.08,-29.958466,134.028275,13.940394,0.40332204138994154,-0.20810871,0.8704977,-0.19040969
13.7871,82197.5902,5.29358,-6.65109,-4.16591,3.94558,3.33349,-1.46424,6.9,36.6,14.88,-35.209846,134.841034,10.938861,0.39093370467639416,-0.19948876,0.86502659,-0.24311329
13.8218,82197.6102,5.3247,-8.61913,-5.90889,3.4801,4.65663,-2.7495,5.28,38.34,11.04,-43.045277,141.796875,9.78191,0.33287414042067165,-0.19456598,0.86561519,-0.31945145
13.83,82197.6302,7.13712,-10.21127,-9.01656,3.29317,4.21925,-3.57234,3.78,39.24,8.1,-46.304893,146.52916,11.464255,0.3010441083854464,-0.2005949,0.86480719,-0.34819916
13.8492,82197.6502,8.94234,-10.02452,-10.76912,3.41107,3.43367,-4.31027,1.74,39.72,4.8,-52.037849,155.38089,15.794885,0.24865612044459434,-0.21327013,0.85681236,-0.39819413
13.8723,82197.6703,10.86728,-12.22001,-11.41555,2.63222,3.89732,-5.33285,-0.96,39.66,2.52,-57.356892,165.088882,22.428474,0.20420513238183285,-0.23025905,0.84119046,-0.44461179
13.8854,82197.6902,11.30303,-13.15374,-10.67814,1.42698,5.0824,-6.52343,-3.78,39.18,0.48,-60.878418,179.797028,33.846172,0.14893263572570714,-0.25182444,0.82456976,-0.48423985
13.9073,82197.7102,10.63983,-15.524,-9.18895,0.76725,6.50999,-7.3371,-7.02,38.94,-2.04,-60.929306,-159.811661,49.780624,0.07304900598561351,-0.27655348,0.80717832,-0.51637697
13.9262,82197.7303,11.26232,-16.34043,-11.01572,0.67501,6.59734,-7.69507,-11.46,38.04,-4.32,-57.294556,-139.166519,64.618423,0.01859676834483032,0.29824474,-0.78451061,0.54336667
13.945,82197.7502,14.02523,-15.6916,-12.27268,0.90652,4.92541,-8.16238,-15.54,36.3,-7.44,-51.103382,-122.995552,75.329552,0.10918703846993953,0.32153165,-0.75338638,0.56312037
13.9725,82197.7702,14.13297,-16.28057,-11.32457,0.82284,3.72506,-8.57288,-19.5,33.84,-10.74,-43.149326,-112.05825,82.832817,0.18794238832131852,0.3560971,-0.71427608,0.57243532
13.9901,82197.7901,13.06276,-15.57428,-10.65899,-0.07514,4.01461,-8.52707,-23.46,30.06,-13.86,-34.057137,-104.667465,87.377151,0.26236672676432404,0.39340723,-0.6709097,0.57120454
14.0102,82197.8102,12.64139,-12.61026,-6.65349,-0.79229,3.96574,-8.41284,-25.8,25.68,-17.22,-24.493969,-99.08429,88.935768,0.3394717851776307,0.42264566,-0.62706441,0.55939233
