AppTimestamp(s),SensorTimestamp(s),gyro_x,gyro_y,gyro_z
0.0477,84273.1569,-0.3207,-0.38179,-0.21014
0.0494,84273.1669,-0.55405,-0.56627,-0.23824
0.0506,84273.1769,-0.77213,-0.77397,-0.26389
0.0523,84273.1869,-0.956,-0.99632,-0.28344
0.0542,84273.1969,-1.05252,-1.14659,-0.23152
0.0575,84273.2069,-1.04641,-1.28587,-0.17837
0.0589,84273.2169,-1.00548,-1.46302,-0.1295
0.0669,84273.2269,-1.00365,-1.43187,-0.07697
0.0862,84273.2369,-1.01404,-1.09834,-0.00428
0.0878,84273.2469,-1.01587,-0.73487,-0.02016
0.0977,84273.2569,-1.01587,-0.38973,-0.11973
0.1278,84273.2669,-1.03481,-0.26756,-0.20953
0.1291,84273.2768,-1.04397,-0.281,-0.2865
0.1309,84273.2869,-1.05252,-0.42944,-0.28161
0.1373,84273.2969,-1.01098,-0.62614,-0.25717
0.1494,84273.3069,-0.94867,-0.75014,-0.23885
0.1571,84273.3168,-0.83505,-1.08245,-0.20647
0.1654,84273.3269,-0.7758,-1.37078,-0.20342
0.177,84273.3369,-0.81673,-1.76784,-0.25962
0.1854,84273.3469,-0.87232,-2.02502,-0.28466
0.1981,84273.3569,-0.90042,-1.81916,-0.281
0.2054,84273.3669,-0.91324,-1.2987,-0.30543
0.2172,84273.3769,-0.90286,-0.69028,-0.27917
0.2254,84273.3869,-0.84116,-0.30238,-0.22358
0.2372,84273.3969,-0.64507,-0.15027,-0.09468
0.2454,84273.4069,-0.41783,0.00305,0.08674
0.2603,84273.4169,-0.08735,0.02505,0.32193
0.2691,84273.4269,0.22541,-0.2193,0.45815
0.283,84273.4369,0.5058,-0.54245,0.53023
0.2859,84273.4468,0.62064,-0.92974,0.52107
0.2972,84273.4568,0.6805,-1.41049,0.46731
0.3054,84273.4669,0.68906,-1.65972,0.41539
0.3172,84273.4769,0.70677,-1.72753,0.35613
0.3253,84273.4869,0.69455,-1.68843,0.26267
0.3371,84273.4969,0.68234,-1.67316,0.15455
0.3469,84273.5069,0.57238,-1.19424,0.19853
0.3599,84273.5169,0.3036,-0.27733,0.35247
0.3654,84273.5269,0.23274,0.44043,0.45754
0.3786,84273.5369,0.39401,1.13804,0.5058
0.3862,84273.5477,0.66035,1.17408,0.49969
0.3981,84273.5579,0.64568,0.66157,0.69272
0.4068,84273.5679,0.53512,0.56261,0.37141
0.4181,84273.5779,0.38973,0.38912,0.1967
0.4264,84273.5879,0.24068,-0.47342,0.39034
0.4385,84273.5979,0.15149,-1.88269,0.48747
0.4464,84273.6079,0.21502,-2.60717,0.36835
0.4589,84273.6179,0.28405,-3.16001,0.30604
0.4664,84273.6279,0.21075,-3.53141,0.47403
0.4781,84273.6379,-0.40317,-1.80083,0.95051
0.4872,84273.6479,-1.04091,0.65912,1.63468
0.5011,84273.6579,-1.66644,2.15147,2.15513
0.5078,84273.6679,-2.21805,2.61328,2.25104
0.5371,84273.6779,-2.49966,2.23454,2.13742
0.5594,84273.6879,-2.26203,1.60047,1.71409
0.5617,84273.6979,-1.3494,0.95784,0.93462
0.5642,84273.7079,-0.30604,0.50396,0.37935
0.5664,84273.7179,0.97311,0.01649,-0.08369
0.5698,84273.7279,1.67499,-0.24923,-0.15577
0.592,84273.7379,1.96088,-0.3543,0.15027
0.5943,84273.7479,2.03724,-0.45082,0.52046
0.5988,84273.7579,1.95599,-0.4496,0.94257
0.6064,84273.7676,1.79228,-0.48503,1.18019
0.6189,84273.7779,1.64139,-0.42394,1.29626
0.6265,84273.7879,1.54977,-0.3091,1.29687
0.6385,84273.7978,1.47096,-0.2364,1.23089
0.6467,84273.8079,1.45447,-0.28283,1.08001
0.6586,84273.8179,1.47157,-0.41294,0.82161
0.6667,84273.8279,1.48807,-0.58277,0.5284
0.6843,84273.8379,1.51372,-0.71166,0.23152
0.6892,84273.8489,1.52105,-0.83444,-0.0452
0.7006,84273.8589,1.55648,-0.90836,-0.22846
0.7076,84273.8689,1.59008,-0.97189,-0.3146
0.7197,84273.8789,1.62918,-1.01587,-0.30482
0.7276,84273.8889,1.65178,-1.07451,-0.18754
0.7397,84273.8989,1.64262,-1.22234,0.07086
0.7477,84273.9089,1.55893,-1.39705,0.3207
0.7627,84273.9189,1.42209,-1.54182,0.51374
0.7708,84273.9289,1.21745,-1.66461,0.60964
0.7979,84273.9399,0.9053,-1.72631,0.71899
0.8189,84273.9499,0.58826,-1.56565,0.81673
0.8216,84273.9599,0.13744,-1.32985,0.90042
0.8248,84273.9699,-0.27122,-1.28954,0.94928
0.8273,84273.9799,-0.81856,-1.20646,0.95051
0.8312,84273.9899,-1.30847,-0.84727,0.84605
0.8468,84273.9999,-1.87597,-0.23396,0.60903
0.8583,84274.0109,-2.35977,0.13073,0.38179
0.8625,84274.0209,-2.84663,0.49724,0.14233
0.8704,84274.0309,-3.17955,0.99205,-0.03971
0.8845,84274.0409,-3.39763,1.50762,-0.15088
0.89,84274.0509,-3.50453,1.93766,-0.20403
0.9016,84274.0609,-3.50148,2.29197,-0.12401
0.9146,84274.0709,-3.37808,2.4398,0.05742
0.9219,84274.0809,-3.01401,2.67987,0.36102
0.9341,84274.0909,-2.56991,3.03722,0.64935
0.9417,84274.1009,-1.93095,3.34204,1.08184
0.9504,84274.1109,-1.40743,3.36342,1.44775
0.9614,84274.1209,-1.02076,3.45383,1.74219
0.9696,84274.1309,-0.87109,3.52042,1.89735
0.9822,84274.1409,-0.80695,3.35548,2.05617
0.9901,84274.1509,-0.72449,3.20277,2.09405
1.0063,84274.1609,-0.50824,3.09831,1.99264
1.0106,84274.1709,-0.281,3.17406,1.76968
1.0238,84274.1809,-0.06414,3.50698,1.44286
1.0296,84274.1909,-0.02993,3.8851,1.06107
1.0447,84274.2009,-0.18815,4.09768,0.67562
1.0499,84274.2109,-0.42761,3.89182,0.40989
1.0657,84274.2209,-0.60353,3.33838,0.30849
1.0735,84274.2309,-0.53512,2.60778,0.36469
1.0848,84274.2409,-0.11912,1.72325,0.59437
1.0974,84274.2509,0.48564,1.05496,0.83017
1.1016,84274.2609,1.248,0.7984,0.98838
1.1096,84274.2709,1.76112,0.79901,0.97372
1.1212,84274.2809,2.24065,0.7703,0.81978
1.1296,84274.2909,2.43613,0.63835,0.60842
1.1448,84274.3009,2.45385,0.40623,0.36163
1.152,84274.3109,2.38604,0.22297,0.17654
1.1664,84274.3209,2.27731,-0.07025,-0.1069
1.1722,84274.3309,2.21378,-0.31948,-0.33414
1.1847,84274.3409,2.21255,-0.73243,-0.66462
1.1917,84274.3509,2.26264,-1.10567,-0.91508
1.2137,84274.3609,2.34084,-1.62307,-1.16859
1.2233,84274.3708,2.37749,-2.00608,-1.38605
1.2274,84274.3809,2.35489,-2.12581,-1.52716
1.2327,84274.3909,2.28647,-2.1081,-1.71775
1.2497,84274.4009,2.1704,-1.97309,-1.94927
1.2549,84274.4119,2.01036,-1.81793,-2.12887
1.27,84274.4219,1.82893,-1.7147,-2.24371
1.2727,84274.4319,1.6756,-1.62185,-2.24126
1.2869,84274.4418,1.48624,-1.46913,-2.1704
1.297,84274.4519,1.32252,-1.26266,-2.03601
1.3058,84274.4619,1.15454,-1.00121,-1.8216
1.3109,84274.4719,1.01465,-0.76114,-1.53633
1.3279,84274.4819,0.84299,-0.47464,-1.10933
1.3386,84274.4919,0.64568,-0.08002,-0.70433
1.3449,84274.5019,0.36591,0.38057,-0.14539
1.3544,84274.5119,0.00305,0.63102,0.31398
1.3731,84274.5219,-0.52595,0.64996,0.77519
1.3745,84274.5319,-0.96517,0.52351,1.06474
1.3833,84274.5419,-1.5125,0.27061,1.31214
1.3978,84274.5519,-1.90285,0.05192,1.40927
1.4064,84274.5619,-2.18018,-0.26634,1.44225
1.4142,84274.5719,-2.26142,-0.51435,1.41965
1.4229,84274.5819,-2.25959,-0.74587,1.34879
1.431,84274.5919,-2.2095,-1.04458,1.23639
1.4431,84274.6019,-2.06228,-1.60841,1.07085
1.451,84274.6119,-1.87658,-2.07755,0.88698
1.4631,84274.6219,-1.56076,-2.57174,0.65301
1.4724,84274.6319,-1.26877,-2.89856,0.46304
1.4885,84274.6419,-0.97983,-3.2608,0.37141
1.4945,84274.6519,-0.75259,-3.53202,0.40317
1.5051,84274.6619,-0.53756,-3.6603,0.53084
1.5133,84274.6729,-0.31582,-3.52286,0.69639
1.5275,84274.6839,-0.16005,-3.14657,0.88453
1.535,84274.6939,-0.14966,-2.95781,1.02686
1.5474,84274.7039,-0.21869,-2.92666,1.2987
1.5654,84274.7138,-0.27061,-3.09892,1.60352
1.5728,84274.7249,-0.17593,-3.44589,2.00547
1.5752,84274.7349,0.03848,-3.71345,2.24004
1.5939,84274.7449,0.44776,-3.8851,2.42697
1.6029,84274.7549,0.82955,-3.79592,2.49538
1.6145,84274.7649,1.14659,-3.587,2.496
1.6159,84274.7749,1.30847,-3.42268,2.47278
1.6261,84274.7849,1.40194,-3.17283,2.42269
1.6352,84274.7949,1.39216,-2.97247,2.35611
1.6525,84274.8049,1.35001,-2.85763,2.24432
1.6572,84274.8149,1.32191,-2.78066,2.14902
1.666,84274.8249,1.32191,-2.74767,2.06472
1.675,84274.8349,1.383,-2.82403,2.01891
1.6855,84274.8449,1.50151,-3.02623,2.04884
1.6936,84274.8549,1.66705,-3.20032,2.15391
1.7061,84274.8649,1.90407,-3.27424,2.37871
1.7137,84274.8749,2.08,-3.16367,2.59251
1.7283,84274.8849,2.204,-2.84541,2.85396
1.7353,84274.8949,2.18079,-2.49661,2.99935
1.7494,84274.9059,1.98104,-2.02563,3.00424
1.7575,84274.9169,1.63101,-1.46363,2.81914
1.7717,84274.9269,1.17103,-0.87965,2.46545
1.794,84274.9369,0.78557,-0.47342,2.11848
1.7962,84274.9479,0.25656,0.08674,1.62734
1.8075,84274.9579,-0.12156,0.55772,1.26571
1.8117,84274.9679,-0.4777,1.11422,0.89186
1.824,84274.9779,-0.66096,1.57298,0.60842
1.8377,84274.9879,-0.71166,2.27181,0.25901
1.8392,84274.9978,-0.59743,3.025,-0.01772
1.8565,84275.0079,-0.38607,3.76232,-0.27489
1.8635,84275.0179,-0.16493,4.15755,-0.44654
1.8726,84275.0279,0.02505,4.52773,-0.5681
1.8801,84275.0379,0.15027,4.6719,-0.65057
1.8898,84275.0479,0.19426,4.59493,-0.69639
1.8976,84275.0579,0.17959,4.42205,-0.68661
1.9084,84275.0679,0.18265,4.29744,-0.56688
1.9167,84275.0779,0.21075,4.21741,-0.44166
1.9284,84275.0879,0.27,4.15388,-0.35247
1.9366,84275.0979,0.30299,4.14228,-0.35308
1.9484,84275.1079,0.2926,4.21619,-0.36896
1.9567,84275.1179,0.24618,4.39456,-0.40745
1.9752,84275.1279,0.13256,4.76964,-0.51801
1.9788,84275.1379,0.01466,5.11294,-0.67623
1.9924,84275.1479,-0.13622,5.27238,-0.89858
1.9971,84275.1579,-0.22235,5.15448,-1.01587
2.0097,84275.1679,-0.30971,4.56683,-0.96089
2.0212,84275.1779,-0.32681,3.64137,-0.62919
2.0328,84275.1879,-0.18265,2.58763,-0.01222
2.0365,84275.1979,0.09957,2.2095,0.51496
2.0481,84275.2079,0.47831,2.62122,0.68234
2.067,84275.2179,0.80451,3.51736,0.31215
2.0699,84275.2279,1.04275,4.26017,-0.68417
2.0836,84275.2379,1.1411,4.29683,-1.75196
2.0899,84275.2479,1.20768,3.85884,-2.48989
2.0985,84275.2579,1.26083,3.28218,-2.54181
2.1089,84275.2679,1.28037,2.55097,-2.13497
2.1174,84275.2779,1.26877,2.12154,-1.64139
2.13,84275.2878,1.27732,2.0635,-1.27915
2.1362,84275.2979,1.37811,2.14353,-1.2089
2.1479,84275.3079,1.58458,2.23699,-1.39338
2.1565,84275.3179,1.80755,2.26509,-1.71226
2.1679,84275.3279,2.06411,2.03601,-2.11482
2.1764,84275.3379,2.23393,1.6475,-2.36283
2.1878,84275.3479,2.41231,1.01098,-2.51432
2.1986,84275.3579,2.58091,0.46365,-2.52715
2.2079,84275.3679,2.86618,0.06842,-2.45323
2.2273,84275.3779,3.15939,-0.13073,-2.41109
2.2381,84275.3879,3.48682,-0.16982,-2.54364
2.2396,84275.3979,3.67374,-0.04398,-2.8338
2.257,84275.4079,3.70551,0.15699,-3.19544
2.2581,84275.4179,3.59311,0.31032,-3.46055
2.2685,84275.4279,3.34815,0.405,-3.60716
2.2766,84275.4379,2.98774,0.30727,-3.56806
2.2911,84275.4478,2.40375,0.011,-3.37198
2.2999,84275.4579,1.88146,-0.12584,-3.12396
2.3136,84275.4679,1.46608,-0.08369,-2.82159
2.3215,84275.4779,1.26816,-0.02688,-2.70186
2.3374,84275.4879,1.00487,-0.09652,-2.71346
2.3412,84275.4979,0.69578,-0.44838,-2.69392
2.3517,84275.5079,0.26756,-0.67928,-2.42391
2.3567,84275.5179,-0.09346,-0.53084,-2.06778
2.3715,84275.5279,-0.60903,-0.3036,-1.507
2.3766,84275.5379,-0.94195,-0.27245,-1.06779
2.3884,84275.5479,-1.10628,-0.56322,-0.8827
2.3964,84275.5577,-1.15331,-0.9951,-0.93646
2.4082,84275.5678,-1.11422,-1.37872,-1.07329
2.4173,84275.5779,-0.99693,-1.79655,-1.15881
2.4323,84275.5879,-0.72449,-2.474,-1.31397
2.4397,84275.5989,-0.59743,-2.82586,-0.94745
2.4508,84275.6089,-0.48381,-3.0079,-0.35369
2.4576,84275.6189,-0.40073,-2.82342,0.03604
2.4697,84275.6289,-0.55772,-2.42758,-0.01466
2.4775,84275.6389,-0.63408,-2.3616,-0.3036
2.4893,84275.6489,-0.68111,-1.8668,-0.56261
2.4982,84275.6589,-0.67012,-1.07818,-0.6017
2.5142,84275.6689,-0.57605,-0.18631,-0.32559
2.5176,84275.6789,-0.3543,0.22907,-0.03299
2.5321,84275.6889,0.03787,0.02749,0.10201
2.5376,84275.6989,0.45387,-0.73487,0.17349
2.5511,84275.7089,0.76236,-1.97004,0.27122
2.5593,84275.7199,0.70494,-2.83991,0.23885
2.5716,84275.7299,0.25473,-2.87107,0.14416
2.5823,84275.7399,-0.27917,-2.51005,0.2303
2.5964,84275.7499,-0.53145,-2.01402,0.35064
2.6081,84275.7599,-0.57482,-1.5913,0.3317
2.6255,84275.7709,-0.60537,-1.56565,0.46242
2.6349,84275.7809,-0.65729,-1.97676,0.64691
2.6358,84275.7909,-0.73243,-2.57052,0.81917
2.6479,84275.8009,-0.80207,-3.10014,0.82528
2.6555,84275.8109,-0.77946,-3.72139,0.59804
2.6656,84275.8209,-0.53634,-4.25345,0.18021
2.6718,84275.8309,-0.06109,-4.63647,-0.31887
2.6809,84275.8409,0.49052,-4.77758,-0.62064
2.6961,84275.8509,1.00487,-4.66029,-0.70738
2.7042,84275.8609,1.39644,-4.37441,-0.59559
2.7116,84275.8709,1.67377,-3.84723,-0.25412
2.7206,84275.8809,1.80938,-3.18078,0.1631
2.7313,84275.8909,1.88024,-2.31884,0.7367
2.7525,84275.9009,1.69943,-1.94438,1.1527
2.7552,84275.9109,1.50945,-1.80999,1.48257
2.7611,84275.9209,1.34329,-1.73852,1.58581
2.7891,84275.9309,1.17042,-1.81366,1.4447
2.8028,84275.9419,0.94379,-1.91323,1.21745
2.8067,84275.9519,0.4948,-1.9511,1.19546
2.809,84275.9619,0.08796,-1.71103,1.32375
2.8214,84275.9719,-0.3543,-1.21807,1.36956
2.8242,84275.9819,-0.43127,-1.20218,1.32924
2.8354,84275.9919,-0.26512,-1.42698,1.17897
2.843,84276.0019,0.03115,-1.52411,0.99082
2.8542,84276.0119,0.46731,-1.40377,0.76114
2.8679,84276.0219,0.89553,-1.20157,0.6017
2.8758,84276.0319,1.40621,-0.87781,0.40378
2.8827,84276.0419,1.80694,-0.24862,0.20953
2.8935,84276.0519,2.10993,0.66157,0.08796
2.9011,84276.0619,2.23516,2.71163,0.45387
2.9133,84276.0719,2.35916,3.15756,0.96822
2.9247,84276.0819,2.24676,3.72689,1.44225
2.94,84276.0929,2.14963,4.37135,1.94805
2.9461,84276.1029,2.13436,4.65296,2.48805
2.9562,84276.1129,2.03235,5.04453,2.95842
2.9658,84276.1229,1.7428,4.92846,3.08182
2.9738,84276.1329,1.18264,4.33226,2.55403
2.9834,84276.1429,0.65118,3.97673,1.65972
2.9943,84276.1529,0.28833,4.13006,0.9279
3.0326,84276.1629,0.04032,4.24674,0.49419
3.0336,84276.1729,-0.31582,3.97918,0.27
3.0357,84276.1829,-0.80573,3.49965,0.25962
3.0364,84276.1929,-1.56687,3.1093,0.34453
3.0433,84276.2029,-2.36588,3.5815,0.45143
3.0699,84276.2129,-3.75071,5.45442,0.72815
3.0711,84276.2229,-3.99078,5.38966,1.07207
3.0784,84276.2329,-4.25407,4.61081,1.14965
3.085,84276.2429,-4.23269,4.00178,1.2199
3.0942,84276.2529,-3.99445,2.63161,1.47402
3.1033,84276.2629,-3.49904,1.45203,1.66033
3.1144,84276.2739,-2.34145,0.78191,1.92056
3.1232,84276.2839,-1.37689,0.53634,2.02135
3.1412,84276.2939,-0.12095,0.59132,1.98287
3.1529,84276.3039,0.88637,0.99082,1.84603
3.1645,84276.3149,1.8723,1.28587,1.51739
3.1672,84276.3249,2.17224,1.0061,1.14171
3.1763,84276.3349,1.93278,0.24923,0.53512
3.1848,84276.3449,1.22662,-0.39156,0.00428
3.1962,84276.3548,0.42333,0.2981,-0.32498
3.2079,84276.3649,0.08552,1.09284,-0.42883
3.2244,84276.3759,0.02382,1.68904,-0.46609
3.2349,84276.3859,0.39645,1.81916,-0.40439
3.2382,84276.3959,0.97494,1.68965,-0.39828
3.245,84276.4059,1.39644,1.51433,-0.45754
3.2669,84276.4159,1.84848,1.23945,-0.46976
3.2712,84276.4258,2.23332,0.87842,-0.47098
3.2799,84276.4359,2.74156,0.30665,-0.61331
3.2846,84276.4458,3.23026,-0.14783,-0.86743
3.2973,84276.4559,3.74521,-0.59315,-1.23456
3.3047,84276.4659,3.96085,-0.89797,-1.39461
3.3173,84276.4759,4.04881,-1.0232,-1.57359
3.3246,84276.4859,3.95963,-1.00793,-1.73669
3.3369,84276.4959,3.67558,-1.03358,-1.81427
3.3469,84276.5059,3.36587,-1.1246,-1.80205
3.3589,84276.5159,2.97308,-1.33779,-1.71287
3.3816,84276.5259,2.66459,-1.61085,-1.59497
3.3948,84276.5359,2.35489,-2.02807,-1.60169
3.4088,84276.5459,2.07755,-2.55036,-1.80694
3.4103,84276.5559,1.86436,-3.22048,-1.48685
3.4127,84276.5659,1.85337,-3.57173,-0.89492
3.4249,84276.5759,1.9169,-3.70917,-0.41539
3.4286,84276.5859,1.94255,-3.34204,-0.15944
3.4493,84276.5959,1.87841,-2.60229,-0.02993
3.4514,84276.6059,1.63284,-2.12215,-0.13073
3.4631,84276.6159,1.14843,-2.08672,-0.34819
3.4665,84276.6259,0.80451,-2.35794,-0.44654
3.4829,84276.6359,0.45754,-2.56258,-0.42089
3.491,84276.6459,0.26206,-2.45812,-0.31948
3.5003,84276.6559,0.12462,-1.93828,-0.23763
3.5095,84276.6659,0.04093,-1.38117,-0.2529
3.5255,84276.6759,-0.12034,-0.98777,-0.31032
3.5294,84276.6859,-0.30299,-1.17958,-0.35675
3.5373,84276.6959,-0.57849,-1.69332,-0.40195
3.5455,84276.7059,-0.79901,-2.21378,-0.3372
3.5566,84276.7159,-1.05741,-2.50577,-0.19364
3.5692,84276.7259,-1.3885,-2.61817,-0.08674
3.583,84276.7359,-1.7599,-2.64749,0.07086
3.5873,84276.7459,-2.05923,-2.58579,0.24862
3.6086,84276.7559,-2.33595,-2.37871,0.51252
3.6104,84276.7659,-2.5021,-2.31396,0.7025
3.6194,84276.7759,-2.60229,-2.34389,0.85521
3.6248,84276.7859,-2.52348,-2.29136,0.95295
3.6371,84276.7959,-2.30418,-2.05801,1.10139
3.6452,84276.8059,-2.10749,-1.8216,1.21012
3.6603,84276.8159,-1.84237,-1.79594,1.24189
3.669,84276.8259,-1.61024,-2.01891,1.1637
3.68,84276.8359,-1.35429,-2.29807,1.09528
3.6845,84276.8459,-1.26327,-2.66398,1.04519
3.6973,84276.8559,-1.2254,-3.1313,1.18202
3.7045,84276.8659,-1.21379,-3.28462,1.53694
3.7162,84276.8759,-1.23945,-3.44956,2.19362
3.7245,84276.8859,-1.24006,-3.73178,2.80509
3.7372,84276.8959,-1.10506,-3.9975,3.37014
3.7472,84276.9059,-0.83017,-4.11112,3.74033
3.7602,84276.9159,-0.44227,-4.24674,4.13311
3.7753,84276.9269,-0.04398,-4.1154,4.57721
3.8027,84276.9369,0.25717,-4.3011,4.91563
3.8106,84276.9479,0.52901,-4.66029,5.25039
3.826,84276.9579,0.78985,-4.81606,5.78184
3.8287,84276.9677,1.60474,-4.2394,6.91072
3.8332,84276.9777,1.65911,-4.16854,6.96631
3.8346,84276.9879,1.94499,-3.79592,7.22287
3.8392,84276.9979,2.46545,-3.2498,7.38842
3.8507,84277.0079,2.84724,-2.95842,7.22409
3.8597,84277.0179,3.16795,-2.87595,6.88628
3.8671,84277.0279,3.45505,-2.91688,6.4825
3.8801,84277.0379,3.69024,-2.69086,6.21983
3.8871,84277.0479,3.78126,-2.47095,6.15691
3.9022,84277.0579,3.83257,-2.24493,6.04634
3.9087,84277.0689,3.91504,-2.15086,5.82643
3.9307,84277.0789,4.06286,-2.0464,5.51184
3.9432,84277.0889,4.21558,-1.97615,5.38172
3.9447,84277.0989,4.4245,-1.77029,5.16425
3.9541,84277.1089,4.53506,-1.42087,4.93946
3.961,84277.1189,4.56377,-0.64874,4.74398
3.968,84277.1289,4.52895,-0.14539,4.71099
3.9803,84277.1389,4.46909,0.33414,4.74215
3.9881,84277.1489,4.40678,0.59437,4.75009
4.0077,84277.1589,4.30293,0.77091,4.56927
4.0129,84277.1687,4.2223,0.73548,4.28155
4.0249,84277.1789,4.22658,0.65546,3.74338
4.0313,84277.1889,4.23085,0.65729,3.30906
4.0477,84277.1989,4.20214,0.75869,2.81609
4.0518,84277.2089,4.138,1.04947,2.42941
4.073,84277.2189,3.992,1.44409,2.04701
4.0775,84277.2289,3.81058,1.71042,1.79045
4.0903,84277.2389,3.59311,1.95966,1.53388
4.0923,84277.2489,3.3677,1.97126,1.16248
4.1034,84277.2599,3.16306,1.73669,0.52718
4.1096,84277.2699,3.04272,1.38789,-0.00672
4.124,84277.2799,2.90833,0.69394,-0.79107
4.1297,84277.2899,2.8222,-0.13317,-1.50212
4.1426,84277.3009,2.73484,-1.36773,-2.40864
4.15,84277.3109,2.68964,-2.23821,-3.0531
4.1648,84277.3209,2.59434,-3.13191,-3.72811
4.1758,84277.3309,2.4117,-3.58456,-4.1154
4.1918,84277.3409,2.13192,-3.74277,-4.26201
4.1995,84277.3509,1.91506,-3.55585,-4.25834
4.2083,84277.3609,1.65178,-3.025,-4.29683
4.2113,84277.3709,1.40804,-2.48744,-4.5033
4.2253,84277.3809,1.11849,-1.97554,-4.93457
4.2306,84277.3909,0.83383,-1.72264,-5.42082
4.2424,84277.4009,0.59071,-1.65972,-5.97671
4.2542,84277.4109,0.44532,-1.74097,-6.40798
4.2616,84277.4209,0.43433,-1.81366,-6.92538
4.2697,84277.4309,0.50824,-1.5913,-7.19477
4.2823,84277.4408,0.61514,-0.99571,-7.14896
4.2897,84277.4509,0.69883,-0.41172,-6.82764
4.3079,84277.4609,0.78252,0.29444,-6.19417
4.3096,84277.4709,0.82894,0.70921,-5.76046
4.3278,84277.4809,0.90713,0.71227,-5.57659
4.3325,84277.4908,0.99571,0.73548,-5.61202
4.3437,84277.5009,1.00793,0.77702,-5.85881
4.3512,84277.5109,0.83627,0.58277,-6.06895
4.3668,84277.5208,0.52534,0.2865,-6.2742
4.3713,84277.5308,0.21686,-0.06597,-6.37316
4.3872,84277.5409,-0.15333,-0.6579,-6.32734
4.3913,84277.5509,-0.48625,-1.34635,-6.1392
4.4098,84277.5619,-0.91935,-1.97248,-5.6786
4.4136,84277.5719,-1.17592,-1.89002,-5.31453
4.4279,84277.5819,-1.40743,-1.27854,-4.91258
4.4389,84277.5929,-1.47402,-0.43127,-4.65968
4.4558,84277.6029,-1.46974,0.20525,-4.50574
4.4705,84277.6139,-1.50823,0.17165,-4.46726
4.4722,84277.6249,-1.62796,-0.56994,-4.49597
4.4745,84277.6349,-1.73974,-1.19241,-4.60165
4.4872,84277.6449,-1.89857,-1.73913,-4.7116
4.4945,84277.6549,-2.05862,-1.79289,-4.57905
4.5061,84277.6649,-2.26692,-1.60291,-4.25712
4.5141,84277.6749,-2.37749,-1.55648,-3.88816
4.5261,84277.6849,-2.49294,-1.88452,-3.62915
4.5352,84277.6949,-2.56869,-2.70613,-3.59922
4.5559,84277.7049,-2.61328,-3.6768,-3.80569
4.564,84277.7159,-2.44774,-3.51858,-4.16305
4.5867,84277.7269,-1.96149,-2.30907,-4.28522
4.5933,84277.7369,-1.2816,-0.96395,-3.9358
4.5974,84277.7479,-0.21991,-0.21197,-3.13068
4.5994,84277.7579,0.2364,-0.3091,-2.66826
4.61,84277.7679,0.39034,-0.90652,-2.57296
4.619,84277.7779,0.33048,-1.63956,-2.79165
4.6291,84277.7879,0.18082,-2.5693,-3.10564
4.6374,84277.7979,0.05681,-2.92055,-3.20216
4.6492,84277.8079,-0.0336,-2.48317,-3.11725
4.6572,84277.8179,0.12889,-2.00608,-2.98591
4.6691,84277.8279,0.41539,-1.82588,-2.75012
4.6772,84277.8379,0.52107,-1.90162,-2.46362
4.6892,84277.8479,0.6463,-2.19789,-2.19728
4.6972,84277.8579,0.94379,-2.60656,-2.01586
4.7161,84277.8679,1.58153,-2.90955,-1.80694
4.7284,84277.8789,2.15269,-2.92666,-1.59314
4.7378,84277.8889,2.9517,-2.66459,-1.30236
4.74,84277.8989,3.31394,-2.26387,-1.04275
4.7502,84277.9089,3.46971,-1.79167,-0.49052
4.758,84277.9189,3.42146,-1.50212,0.26878
4.7702,84277.9289,3.1258,-1.07024,1.33657
4.7801,84277.9389,2.62489,-0.5455,2.74828
4.7908,84277.9489,2.16613,0.01894,4.45321
4.7994,84277.9599,2.02319,0.63408,6.05367
4.8121,84277.9699,2.06778,1.54243,7.21249
4.8231,84277.9799,2.25409,2.15025,8.04815
4.8317,84277.9899,2.62183,2.21439,8.64619
4.8389,84277.9999,3.04455,1.73119,9.02187
4.8521,84278.0099,3.56196,0.1295,9.28454
4.8593,84278.0199,3.81302,-1.02992,8.984
4.8749,84278.0299,3.81974,-1.72875,7.97607
4.8791,84278.0399,3.56745,-1.5742,7.36948
4.8952,84278.0499,3.10197,-1.17958,7.05733
4.8995,84278.0599,2.7434,-0.66279,7.04755
4.9161,84278.0699,2.32495,0.12339,7.17217
4.9206,84278.0799,2.03479,0.78557,7.33649
4.9303,84278.0899,1.78861,1.4508,7.47577
4.9388,84278.0999,1.6249,1.88757,7.52769
4.9521,84278.1099,1.43126,2.32495,7.58267
4.9593,84278.1199,1.36284,2.42391,7.5564
4.9737,84278.1299,1.44164,2.24493,7.33038
4.9787,84278.1399,1.59558,1.91567,6.95409
4.9905,84278.1499,1.82649,1.5235,6.33528
4.9987,84278.1599,1.92911,1.34757,5.53994
5.0104,84278.1699,1.83382,1.38789,4.55705
5.0186,84278.1799,1.57298,1.55282,3.73972
5.0399,84278.1899,1.2144,1.78678,3.02195
5.0459,84278.1999,0.88759,2.05006,2.65849
5.0542,84278.2099,0.66951,2.2883,2.3836
5.06,84278.2199,0.66462,2.39948,2.27608
5.0709,84278.2299,0.85155,2.48011,2.17773
5.079,84278.2399,1.00365,2.58518,2.0745
5.0916,84278.2499,1.04947,2.74767,1.93278
5.1,84278.2609,0.94195,2.9236,1.72631
5.1148,84278.2709,0.83444,2.96453,1.39155
5.1215,84278.2819,0.77763,2.90955,1.02014
5.1404,84278.2919,0.70738,2.72018,0.54672
5.1452,84278.3019,0.61209,2.5693,0.18082
5.1619,84278.3119,0.46487,2.49538,-0.05131
5.1658,84278.3219,0.26023,2.47095,-0.17043
5.1737,84278.3319,0.04032,2.49111,-0.23152
5.1817,84278.3419,0.00428,2.60901,-0.19914
5.197,84278.3519,0.04887,2.52898,-0.15272
5.2062,84278.3629,0.00977,2.26264,-0.09346
5.2191,84278.3729,-0.0843,1.95049,-0.011
5.2304,84278.3827,-0.16188,1.64017,-0.01588
5.2426,84278.3929,-0.27367,1.34085,-0.17471
5.2481,84278.4029,-0.40012,1.01465,-0.42883
5.2572,84278.4129,-0.50824,0.57605,-0.78496
5.2624,84278.4229,-0.52168,0.13195,-1.15881
5.2789,84278.4329,-0.49114,-0.28466,-1.6866
5.2858,84278.4438,-0.52168,-0.46914,-2.24554
5.2954,84278.4539,-0.6524,-0.46426,-2.92299
5.3027,84278.4639,-0.67806,-0.42577,-3.55157
5.3159,84278.4739,-0.59926,-0.34697,-4.16549
5.3238,84278.4839,-0.52351,-0.30727,-4.51613
5.3355,84278.4939,-0.46914,-0.27855,-4.86493
5.3437,84278.5039,-0.51007,-0.21502,-5.28704
5.3569,84278.5139,-0.54672,-0.23579,-6.09033
5.3635,84278.5238,-0.54123,-0.37507,-6.87223
5.3758,84278.5339,-0.70127,-0.73976,-7.53563
5.3847,84278.5439,-0.91385,-1.13315,-7.81846
5.4141,84278.5539,-1.00732,-1.56931,-7.87894
5.4192,84278.5649,-1.00732,-1.68965,-7.72622
5.4226,84278.5759,-0.95051,-1.56931,-7.48493
5.4311,84278.5869,-0.91752,-1.24189,-7.3878
5.4528,84278.5969,-0.83627,-0.53451,-7.41957
5.4545,84278.6079,-0.55039,0.72693,-7.40063
5.4597,84278.6179,-0.12034,2.34878,-7.22776
5.4674,84278.6279,0.22785,3.78614,-6.78793
5.4892,84278.6379,0.5339,5.87103,-5.97487
5.4909,84278.6479,0.65485,7.53502,-5.30842
5.5025,84278.6578,0.76297,9.14343,-4.86004
5.5073,84278.6679,0.96333,10.34928,-4.62486
5.5293,84278.6779,1.1356,10.91189,-4.51674
5.5352,84278.6889,0.68417,8.97422,-4.85638
5.5452,84278.6989,-0.28344,4.91441,-5.16181
5.5528,84278.7088,-0.62064,2.03724,-4.9474
5.5631,84278.7189,-0.36224,-0.0562,-4.23085
5.5688,84278.7289,0.22969,-0.87048,-3.48621
5.5828,84278.7389,0.75564,-1.81916,-2.88145
5.5893,84278.7489,0.9389,-2.6817,-2.61145
5.6034,84278.7589,0.97311,-3.61266,-2.43369
5.6077,84278.7689,1.03664,-3.95719,-2.25165
5.6206,84278.7789,1.21929,-3.35304,-2.08855
5.6276,84278.7889,1.37689,-2.26203,-2.01463
5.6404,84278.7989,1.61452,-1.49234,-2.00242
5.6502,84278.8099,1.9169,-1.43492,-2.09221
5.6665,84278.8209,2.25531,-2.11115,-2.39642
5.6883,84278.8309,2.41475,-2.65177,-2.63466
5.6921,84278.8419,2.57968,-3.08487,-2.82586
5.6951,84278.8519,2.72079,-3.18078,-2.8784
5.7042,84278.8619,2.85457,-3.06532,-2.9743
5.7184,84278.8719,3.0189,-2.78432,-3.0867
5.7233,84278.8819,3.3396,-2.53876,-3.4184
5.7347,84278.8919,3.48987,-2.79532,-3.91015
5.7432,84278.9019,3.36953,-3.41474,-4.36219
5.7507,84278.9119,3.19483,-3.85151,-4.35425
5.7645,84278.9219,2.98652,-4.20947,-3.64931
5.775,84278.9319,2.69086,-4.48009,-2.5748
5.7842,84278.9419,2.24982,-4.78063,-1.16431
5.7913,84278.9519,1.97859,-4.81179,-0.39218
5.8077,84278.9619,1.63834,-4.81606,0.13378
5.8107,84278.9719,1.5125,-4.1942,0.3091
5.8227,84278.9819,1.26693,-3.19544,0.41905
5.8308,84278.9919,0.90652,-2.58274,0.5565
5.8448,84279.0019,0.57605,-2.20034,0.66951
5.8527,84279.0119,0.20281,-1.91079,0.65485
5.8624,84279.0219,-0.30543,-1.48135,0.48075
5.8708,84279.0319,-0.66096,-1.25411,0.28222
5.8849,84279.0419,-1.02992,-1.13132,0.18387
5.8908,84279.0519,-1.31825,-1.06229,0.23579
5.9082,84279.0619,-1.62673,-0.93279,0.41356
5.9126,84279.0719,-1.85031,-0.84422,0.66768
5.9301,84279.0819,-2.10077,-0.87293,1.01831
5.9394,84279.0917,-2.28708,-0.90469,1.28587
5.9516,84279.1019,-2.53998,-0.89736,1.55282
5.9532,84279.1119,-2.6933,-0.76847,1.67377
5.9729,84279.1219,-2.8112,-0.66584,1.79839
5.9796,84279.1319,-2.92482,-0.80207,1.97676
5.9873,84279.1419,-2.99507,-0.99205,2.16124
5.9933,84279.1519,-3.03783,-1.12399,2.50394
6.0047,84279.1619,-2.89245,-1.45814,3.34265
6.0108,84279.1718,-2.5638,-1.49479,4.35303
6.0282,84279.1819,-2.17285,-1.55893,5.24183
6.0337,84279.1919,-1.83137,-1.67011,5.99564
6.0426,84279.2019,-1.54366,-1.7318,6.73051
6.0513,84279.2119,-1.32985,-1.86314,7.24792
6.0643,84279.2229,-0.94806,-2.24615,7.72256
6.0718,84279.2329,-0.51557,-2.49172,8.17093
6.0884,84279.2429,-0.08919,-2.67315,8.66207
6.0951,84279.2539,0.16127,-2.69575,9.0909
6.1201,84279.2639,0.32315,-2.54059,9.4733
6.1233,84279.2739,0.41172,-2.39337,9.73964
6.1269,84279.2839,0.59193,-2.20217,9.95588
6.134,84279.2939,0.92668,-1.99386,9.9626
6.148,84279.3039,1.47341,-1.77823,9.66755
6.1541,84279.3139,2.16918,-1.65728,9.14587
6.1749,84279.3249,3.02684,-1.60108,8.25462
6.1838,84279.3348,3.47582,-1.55465,7.51792
6.1953,84279.3449,3.95413,-1.29931,6.82031
6.1994,84279.3549,4.12701,-0.83627,6.35361
6.2075,84279.3649,4.00605,-0.18815,5.72625
6.2141,84279.3749,3.52836,0.32681,5.23634
6.2317,84279.3849,2.80631,0.64691,4.78369
6.2365,84279.3949,2.05617,0.71593,4.26567
6.2508,84279.4049,1.34513,0.6634,3.54791
6.256,84279.4149,0.80329,0.76908,2.88878
6.2653,84279.4249,0.30299,1.0061,2.24065
6.2736,84279.4349,0.0336,1.12216,1.78434
6.2885,84279.4448,-0.18876,0.89858,1.21257
6.2936,84279.4549,-0.20647,0.46242,0.87109
6.3054,84279.4649,-0.02016,-0.13073,0.46914
6.3137,84279.4749,0.22907,-0.54917,0.14294
6.3263,84279.4849,0.64324,-1.07451,-0.30238
6.3335,84279.4949,0.99938,-1.56992,-0.71532
6.3454,84279.5049,1.2144,-2.01158,-1.21623
6.3536,84279.5149,1.21073,-2.33473,-1.53449
6.3659,84279.5249,0.98044,-2.64688,-1.78495
6.3737,84279.5349,0.74342,-2.63466,-1.91323
6.3853,84279.5449,0.49786,-2.20217,-2.02868
6.3937,84279.5549,0.41722,-1.51617,-2.15941
6.4056,84279.5649,0.43371,-0.83872,-2.44468
6.4136,84279.5749,0.42089,-0.32132,-2.72996
6.4254,84279.5849,0.36346,-0.00611,-3.08976
6.4335,84279.5949,0.25656,-0.01405,-3.35609
6.4497,84279.6049,0.21502,-0.21686,-3.35487
6.4613,84279.6149,0.29566,-0.56872,-3.26446
6.4689,84279.6249,0.70677,-0.96578,-3.32005
6.4769,84279.6349,1.14782,-1.01526,-3.59311
6.4958,84279.6449,1.6249,-0.71532,-3.99567
6.5027,84279.6549,1.74646,-0.39645,-4.25529
6.5127,84279.6649,1.45814,-0.11729,-4.59004
6.5157,84279.6749,0.99388,0.00183,-4.96817
6.5278,84279.6849,0.50885,-0.38057,-5.48985
6.538,84279.6949,0.32193,-0.91935,-5.8808
6.552,84279.7049,0.4441,-1.72386,-5.99992
6.557,84279.7149,0.66951,-2.04396,-5.60408
6.5654,84279.7249,0.86315,-1.89979,-4.79774
6.5777,84279.7349,0.80084,-1.30664,-4.15205
6.5876,84279.7449,0.52107,-0.49297,-3.6768
6.5951,84279.7549,0.0391,0.19914,-3.63831
6.6056,84279.7649,-0.5791,0.67256,-4.06286
6.6136,84279.7749,-0.978,0.59132,-4.66029
6.6252,84279.7849,-1.09039,-0.1576,-5.44342
6.6335,84279.7949,-1.04641,-1.05802,-5.86614
6.6463,84279.8049,-0.97861,-2.22905,-5.92051
6.6552,84279.8149,-0.89431,-2.8619,-5.75252
6.6654,84279.8249,-0.92668,-3.03295,-5.46785
6.6736,84279.8349,-1.11116,-2.88939,-5.18136
6.7047,84279.8449,-1.45936,-2.08183,-4.86799
6.7082,84279.8549,-1.65606,-1.03053,-4.69572
6.7093,84279.8649,-1.59986,-0.39767,-4.6102
6.7225,84279.8749,-1.29442,-0.37202,-4.49902
6.7341,84279.8849,-0.98777,-0.9163,-4.27239
6.7369,84279.8948,-0.94318,-1.3885,-4.1997
6.7497,84279.9049,-1.08856,-1.66278,-4.48925
6.7563,84279.9149,-1.14476,-1.67805,-4.90219
6.7752,84279.9249,-1.00915,-1.62612,-5.46541
6.7832,84279.9349,-0.63347,-1.57542,-5.99564
6.7969,84279.9449,-0.1069,-1.63406,-6.38782
6.8006,84279.9549,0.2865,-1.67988,-6.52038
6.8156,84279.9659,0.63347,-1.88452,-6.49838
6.8228,84279.9759,0.85765,-2.33839,-6.46479
6.8292,84279.9859,1.0458,-2.90222,-6.55764
6.84,84279.9959,1.19424,-3.05738,-6.64194
6.848,84280.0059,1.37445,-3.04516,-6.56436
6.8545,84280.0159,1.48196,-2.89794,-6.33101
6.8664,84280.0259,1.5351,-2.58213,-5.81177
6.8746,84280.0359,1.54366,-2.40314,-5.34263
6.8864,84280.0459,1.56137,-2.27853,-4.99749
6.8946,84280.0559,1.65544,-2.42636,-4.84599
6.9069,84280.0659,1.94499,-2.7831,-4.99993
6.9146,84280.0759,2.34817,-2.98774,-5.21923
6.9264,84280.0859,2.80693,-3.04089,-5.33041
6.9351,84280.0959,3.12885,-2.75378,-5.17403
6.9464,84280.1059,3.56012,-1.91628,-4.70855
6.959,84280.1159,4.0366,-1.58825,-4.25773
6.969,84280.1259,4.5931,-1.6756,-3.88877
6.9753,84280.1359,5.04514,-1.90285,-3.67313
6.9881,84280.1459,5.43853,-2.11482,-3.56806
6.9952,84280.1559,5.69632,-1.96943,-3.57539
7.0077,84280.1659,5.86553,-1.82038,-3.64687
7.0175,84280.1759,5.96571,-1.91751,-3.6994
7.0338,84280.1859,6.10743,-2.08794,-3.72261
7.037,84280.1959,6.42203,-2.25715,-3.78492
7.047,84280.2059,6.9602,-2.60412,-3.87777
7.056,84280.2159,7.44523,-2.46362,-3.91565
7.0698,84280.2259,7.81113,-1.9511,-3.91992
7.0763,84280.2359,7.81297,-1.17714,-3.9859
7.0891,84280.2459,7.36581,-0.32193,-4.19359
7.0969,84280.2559,6.7354,0.34025,-4.34875
7.1303,84280.2658,6.14164,1.17469,-4.30171
7.1317,84280.2759,5.90035,1.63101,-4.27422
7.1332,84280.2859,5.82827,1.70492,-4.47276
7.1358,84280.2957,5.89057,1.49357,-4.81117
7.1531,84280.3059,6.10804,1.15881,-5.20824
7.1545,84280.3159,6.33651,0.93523,-5.40982
7.1661,84280.3259,6.66637,0.95967,-5.47519
7.1745,84280.3359,6.92538,1.33841,-5.48068
7.1861,84280.3459,7.11353,1.75196,-5.75679
7.1954,84280.3559,7.1569,1.77701,-6.21678
7.2133,84280.3659,7.00479,1.76784,-6.54848
7.2162,84280.3759,6.73296,1.57725,-6.50449
7.2278,84280.3859,6.16424,1.44164,-6.11782
7.235,84280.3959,5.46297,1.50273,-5.61752
7.2481,84280.4059,4.61936,1.47219,-5.12088
7.2549,84280.4159,4.09585,1.44103,-4.77819
7.2677,84280.4259,3.69512,1.40927,-4.3066
7.2762,84280.4359,3.57601,1.2987,-3.89182
7.2956,84280.4468,3.61021,1.20768,-3.60227
7.3007,84280.4569,3.73483,1.58214,-3.61693
7.31,84280.4669,3.78309,2.20156,-3.85945
7.3182,84280.4779,3.60166,2.26326,-4.12334
7.3437,84280.4879,3.35732,2.05251,-4.02072
7.351,84280.4979,3.21498,2.20339,-3.63954
7.3519,84280.5079,3.12152,2.66643,-3.21987
7.3589,84280.5179,2.96697,3.04028,-2.96086
7.3774,84280.5279,2.71163,3.27546,-2.88267
7.3786,84280.5379,2.34633,3.39091,-2.95598
7.3899,84280.5479,1.77517,3.71345,-2.89733
7.3966,84280.5579,1.11055,3.91137,-2.67315
7.41,84280.5679,0.24862,3.93886,-2.4514
7.4166,84280.5779,-0.31398,3.92786,-2.29258
7.4284,84280.5879,-0.83322,4.12334,-2.04823
7.4378,84280.5979,-1.25105,4.42572,-1.96821
7.4551,84280.6079,-1.75013,4.78185,-2.15941
7.4618,84280.6179,-2.05434,4.96267,-2.50088
7.4785,84280.6279,-2.33595,5.35484,-2.91444
7.4863,84280.6379,-2.50516,5.89974,-2.93826
7.499,84280.6489,-2.8674,6.46723,-2.92788
7.5121,84280.6599,-3.12458,6.40798,-3.08548
7.5142,84280.6699,-3.08915,6.17951,-3.31639
7.5249,84280.6799,-2.72935,5.99076,-3.55768
7.5315,84280.6899,-2.27975,5.80872,-3.85456
7.5397,84280.6999,-2.13375,5.7794,-4.02377
7.5511,84280.7099,-2.33534,6.12148,-4.07508
7.559,84280.7199,-2.82036,6.59673,-3.91381
7.573,84280.7299,-3.39275,7.15995,-3.59189
7.5793,84280.7399,-3.72078,7.24853,-3.37931
7.5958,84280.7499,-3.84845,6.84841,-3.24308
7.6084,84280.7599,-3.58028,6.06589,-3.24492
7.6201,84280.7699,-2.92971,5.02681,-3.51431
7.625,84280.7809,-2.56014,4.13067,-4.00178
7.6404,84280.7909,-2.47217,3.14473,-4.87715
7.642,84280.8009,-2.70064,2.70552,-5.38844
7.6531,84280.8109,-3.04028,2.45507,-5.68593
7.6607,84280.8209,-3.27179,2.44041,-5.60102
7.6738,84280.8309,-3.50637,2.45079,-5.25588
7.6802,84280.8409,-3.54852,2.32495,-4.8967
7.6921,84280.8509,-3.39947,2.00058,-4.74826
7.7001,84280.8609,-3.29012,1.81793,-4.91136
7.714,84280.8709,-3.33777,1.54305,-5.04269
7.7215,84280.8809,-3.4129,1.22845,-5.06468
7.7359,84280.8909,-3.40985,0.91019,-5.14471
7.7425,84280.9009,-3.31333,0.79168,-5.24978
7.7593,84280.9109,-3.17344,0.832,-5.39394
7.7642,84280.9209,-3.05249,0.94195,-5.53872
7.7918,84280.9309,-2.92177,0.8827,-5.67738
7.7992,84280.9408,-2.76844,0.74892,-5.88446
7.802,84280.9509,-2.6536,0.55711,-6.07811
7.803,84280.9609,-2.57235,0.33537,-6.27053
7.8121,84280.9709,-2.54059,0.16188,-6.46906
7.8215,84280.9819,-2.59984,0.21686,-6.68775
7.8334,84280.9919,-2.67498,0.22358,-7.00357
7.8412,84281.0019,-2.68903,0.10263,-7.19721
7.8554,84281.0119,-2.69269,-0.08125,-7.2974
7.8643,84281.0219,-2.69147,-0.07941,-7.24914
7.875,84281.0319,-2.68903,0.13195,-7.16911
7.8831,84281.0419,-2.72568,0.50824,-6.97608
7.8939,84281.0519,-2.92116,1.37933,-6.47639
7.9041,84281.0627,-3.16856,2.41719,-5.96204
7.9142,84281.0729,-3.38358,3.87166,-5.29559
7.922,84281.0829,-3.48193,4.89608,-4.73054
7.9352,84281.0929,-3.47827,5.84903,-4.12395
7.9431,84281.1039,-3.28707,6.48861,-3.76415
7.955,84281.1139,-2.88573,6.62667,-3.70307
7.9631,84281.1239,-2.48072,5.99259,-3.82646
7.9751,84281.1339,-2.64199,4.22902,-4.20642
7.9831,84281.1439,-3.22292,2.57724,-4.71221
7.9974,84281.1539,-3.77515,1.52228,-5.25405
8.0043,84281.1639,-3.99872,1.49601,-5.5039
8.0182,84281.1749,-4.16427,2.34633,-5.5662
8.0263,84281.1859,-4.34203,3.17955,-5.39394
8.0391,84281.1959,-4.54667,3.63465,-5.18319
8.0482,84281.2069,-4.71771,3.66519,-5.00176
8.0622,84281.2169,-4.77636,3.55585,-4.96023
8.0685,84281.2279,-4.76475,3.22231,-4.9529
8.0817,84281.2379,-4.76353,2.36222,-4.70794
8.0881,84281.2479,-4.79835,1.44225,-4.52162
8.1055,84281.2579,-4.74154,-0.1686,-4.46359
8.1138,84281.2679,-4.55339,-1.24311,-4.43671
8.1246,84281.2779,-4.03171,-2.40498,-4.2895
8.1355,84281.2879,-3.30906,-3.03234,-4.09096
8.1488,84281.2979,-2.3952,-3.12641,-3.67008
8.1507,84281.3079,-1.85947,-2.91566,-3.1765
8.1608,84281.3179,-1.30542,-2.74462,-2.64199
8.167,84281.3279,-1.27243,-3.14412,-2.27731
8.1797,84281.3379,-1.63162,-4.09585,-2.04396
8.187,84281.3479,-2.05862,-4.6493,-1.89124
8.199,84281.3579,-2.4007,-5.37195,-1.77456
8.2071,84281.3679,-2.6481,-6.24732,-1.64445
8.219,84281.3779,-2.60106,-7.09887,-1.29565
8.2283,84281.3879,-2.26264,-7.2131,-0.61636
8.242,84281.3989,-1.4508,-7.15323,0.40623
8.2501,84281.4099,-0.1576,-7.29679,1.37323
8.2652,84281.4199,1.49784,-7.64009,2.02441
8.27,84281.4299,2.48317,-7.95774,2.28952
8.2836,84281.4399,3.77454,-8.43544,2.56563
8.2901,84281.4499,4.5931,-8.83861,2.80387
8.3062,84281.4599,4.98894,-8.9559,2.92971
8.3173,84281.4699,4.67801,-8.80135,3.182
8.3322,84281.4799,3.79653,-8.35786,3.54058
8.3457,84281.4899,2.70674,-7.8374,3.75621
8.3486,84281.4999,1.72203,-7.20271,3.59922
8.36,84281.5099,1.40377,-6.78122,3.33655
8.3633,84281.5199,1.82038,-6.7525,3.13252
8.3763,84281.5299,2.6145,-7.09764,2.98896
8.3854,84281.5399,4.05065,-7.43912,2.76172
8.396,84281.5499,4.95595,-7.54541,2.54059
8.4062,84281.5599,5.77023,-7.67063,2.23271
8.4099,84281.5699,6.00297,-7.7415,1.91873
8.4287,84281.5799,5.75802,-7.91254,1.53327
8.4351,84281.5909,5.26138,-7.96752,1.39522
8.4431,84281.6009,4.83439,-7.69202,1.66216
8.4536,84281.6109,4.49597,-8.16727,2.21194
8.4629,84281.6209,4.28339,-8.60282,2.9462
8.4702,84281.6309,4.22535,-8.41528,3.30478
8.4821,84281.6409,3.93947,-7.5729,3.05677
8.49,84281.6509,3.4184,-6.89484,2.51188
8.5026,84281.6609,2.67926,-6.17402,1.91812
8.512,84281.6709,2.22111,-5.6841,1.74341
8.5251,84281.6809,2.02929,-5.29926,1.78189
8.5303,84281.6909,2.10382,-5.30903,1.84237
8.5433,84281.7009,2.27242,-5.65478,1.86008
8.5514,84281.7109,2.37077,-5.97121,1.72753
8.5737,84281.7209,2.42697,-6.57352,1.50334
8.5776,84281.7319,2.5583,-7.27174,1.45875
8.5869,84281.7419,2.88267,-8.18804,1.52533
8.5915,84281.7519,3.16795,-8.67368,1.62551
8.6089,84281.7629,3.50759,-9.01332,1.77456
8.6123,84281.7729,3.62976,-9.15443,1.78495
8.626,84281.7829,3.55096,-9.15443,1.65544
8.6322,84281.7929,3.24369,-8.95773,1.55465
8.6561,84281.8029,2.72324,-8.692,1.55587
8.6711,84281.8128,2.34022,-8.49836,1.62979
8.676,84281.8229,2.05373,-8.38596,1.68293
8.6776,84281.8329,1.93889,-8.32793,1.73364
8.6844,84281.8429,1.85092,-8.3377,1.66278
8.692,84281.8529,1.82527,-8.3884,1.43492
8.7051,84281.8629,1.83198,-8.36763,1.08429
8.7123,84281.8729,1.923,-8.26073,0.70005
8.726,84281.8829,2.12031,-8.00539,0.34025
8.7322,84281.8929,2.23577,-7.67491,0.09224
8.7554,84281.9029,2.15697,-7.06343,-0.18387
8.7615,84281.9139,1.87658,-6.46234,-0.39462
8.772,84281.9249,1.42759,-5.8301,-0.4612
8.7781,84281.9349,1.11605,-5.54177,-0.40989
8.8031,84281.9449,0.71166,-5.24611,-0.30543
8.8085,84281.9549,0.34086,-4.84111,-0.36224
8.8115,84281.9659,-0.04765,-4.29744,-0.7477
8.8161,84281.9759,-0.27489,-3.98528,-1.06779
8.828,84281.9859,-0.52351,-3.46422,-1.46363
8.8347,84281.9959,-0.72082,-3.04639,-1.66949
8.8476,84282.0059,-1.03908,-2.57052,-1.93644
8.8549,84282.0159,-1.36528,-2.29502,-2.3164
8.8667,84282.0259,-1.71897,-1.99325,-2.8619
8.8747,84282.0359,-2.07205,-1.87902,-3.41352
8.8868,84282.0459,-2.41719,-1.91079,-4.02743
8.8959,84282.0559,-2.69819,-2.00791,-4.50635
8.9178,84282.0659,-2.91505,-2.05556,-4.83255
8.9313,84282.0759,-2.99141,-2.19911,-4.90769
8.9328,84282.0859,-3.03905,-2.34694,-4.74581
8.9364,84282.0959,-3.05494,-2.36038,-4.39029
8.9472,84282.1059,-3.10014,-2.2376,-3.87961
8.9556,84282.1159,-3.22048,-2.04151,-3.48193
8.9671,84282.1259,-3.4575,-1.82404,-2.98224
8.9751,84282.1359,-3.61571,-1.46547,-2.51676
8.9872,84282.1459,-3.70673,-0.93401,-2.08977
8.995,84282.1559,-3.71834,-0.61636,-1.9792
9.0072,84282.1659,-3.68046,-0.58948,-2.1533
9.0153,84282.1759,-3.68657,-0.96944,-2.39154
9.0294,84282.1859,-3.72689,-1.72203,-2.43796
9.0363,84282.1959,-3.74094,-2.35305,-2.28647
9.0505,84282.2069,-3.76354,-2.77577,-2.04212
9.0582,84282.2169,-3.75132,-2.65054,-1.89429
9.0763,84282.2279,-3.76721,-2.09893,-1.54977
9.0835,84282.2379,-3.97551,-1.57176,-1.18874
9.0979,84282.2478,-4.36585,-1.113,-0.78679
9.0998,84282.2579,-4.73176,-0.94806,-0.50641
9.1157,84282.2679,-5.06163,-0.80756,-0.26084
9.1181,84282.2779,-5.28276,-0.64752,-0.01894
9.1292,84282.2879,-5.51,-0.94867,0.42577
9.1371,84282.2979,-5.53444,-1.34879,0.821
9.149,84282.3079,-5.38417,-1.47707,1.00793
9.1594,84282.3179,-5.13005,-1.52105,0.9725
9.1769,84282.3279,-4.6047,-1.62979,1.06291
9.1858,84282.3379,-4.11845,-1.59619,1.44531
9.197,84282.3479,-3.69757,-1.46424,1.96271
9.2039,84282.3579,-3.65786,-1.32252,2.45262
9.2093,84282.3679,-3.97673,-1.06291,2.79715
9.2171,84282.3779,-4.42022,-0.76053,2.86801
9.2304,84282.3879,-4.82767,-0.28344,2.73057
9.238,84282.3989,-5.19113,0.28161,2.53876
9.2494,84282.4089,-5.70792,0.44715,2.3726
9.2577,84282.4189,-6.11782,0.12828,2.34939
9.2698,84282.4289,-6.24549,-0.29566,2.39765
9.2775,84282.4389,-5.90401,-0.31887,2.41109
9.2912,84282.4489,-4.89975,-0.25656,2.48011
9.2977,84282.4589,-4.41656,-0.54123,2.32495
9.3092,84282.4689,-4.01522,-0.56077,2.30785
9.3175,84282.4789,-3.79653,-0.17898,2.31701
9.3332,84282.4889,-3.83013,0.61942,2.29319
9.3435,84282.4989,-4.14411,1.53633,2.33167
9.3507,84282.5089,-4.78674,2.40864,2.42391
9.3589,84282.5199,-5.59003,3.02928,2.47217
9.3712,84282.5299,-6.2577,3.31578,2.44285
9.382,84282.5399,-6.72868,3.44039,2.32068
9.4027,84282.5499,-6.99563,3.77087,2.13986
9.407,84282.5599,-7.06221,4.10807,2.01586
9.4129,84282.5699,-7.02923,4.44527,1.87169
9.4236,84282.5799,-6.89789,4.73787,1.77517
9.4335,84282.5899,-6.56375,4.8967,1.68171
9.4438,84282.5999,-6.10254,4.81117,1.64384
9.4507,84282.6099,-5.52039,4.59493,1.57359
9.4585,84282.6199,-5.1276,4.44404,1.50395
9.4715,84282.6299,-4.79957,4.3799,1.38178
9.4801,84282.6399,-4.71893,4.50819,1.35123
9.4905,84282.6499,-4.81545,4.80751,1.36651
9.4986,84282.6599,-4.98222,4.9248,1.36284
9.5122,84282.6699,-5.25711,4.99138,1.37872
9.5198,84282.6799,-5.49962,5.06102,1.40866
9.5318,84282.6899,-5.65295,5.17403,1.48135
9.5436,84282.6999,-5.74824,5.16548,1.53266
9.5552,84282.7099,-5.95655,5.03964,1.47096
9.5705,84282.7209,-6.21494,4.97305,1.30908
9.5782,84282.7309,-6.55397,4.88142,1.03969
9.5866,84282.7409,-6.81176,4.71221,0.79657
9.5967,84282.7509,-7.00968,4.419,0.60048
9.6005,84282.7609,-7.13429,4.15388,0.43982
9.6121,84282.7709,-7.21065,4.00056,0.32009
9.6208,84282.7809,-7.25036,3.90221,0.25473
9.6325,84282.7909,-7.24669,3.68474,0.26084
9.6419,84282.8019,-7.15445,3.35609,0.34636
9.6559,84282.8129,-6.86674,2.73607,0.44043
9.6799,84282.8239,-6.45135,2.04334,0.44715
9.6874,84282.8339,-5.68899,0.9499,0.4496
9.7028,84282.8449,-4.48497,-0.52412,0.46914
9.7049,84282.8549,-3.08609,-2.1478,0.5736
9.7088,84282.8659,-1.34146,-4.1716,0.75686
9.7313,84282.8759,0.23946,-6.17402,1.03908
9.7344,84282.8859,1.31641,-7.45439,1.53205
9.7432,84282.8959,2.0971,-8.51119,2.21744
9.7458,84282.9059,2.61084,-8.8832,2.95109
9.7582,84282.9159,2.86618,-8.66512,3.83623
9.7652,84282.9259,2.84358,-8.23935,4.31454
9.7772,84282.9359,2.67009,-7.48127,4.70366
9.7862,84282.9459,2.35366,-6.48922,4.80262
9.7984,84282.9559,1.97554,-5.41471,4.66151
9.8068,84282.9659,1.75746,-4.64807,4.43244
9.8245,84282.9759,1.72753,-4.20153,4.16305
9.8261,84282.9859,1.86742,-4.07081,4.00972
9.8362,84282.9959,2.0861,-3.81791,3.78309
9.8446,84283.0059,2.19911,-3.57356,3.62365
9.8573,84283.0159,2.28158,-3.38542,3.80874
9.8646,84283.0259,2.24371,-3.48743,4.0482
9.8768,84283.0359,2.05434,-3.91137,4.38785
9.8855,84283.0459,1.77517,-4.47825,4.54545
9.8975,84283.0559,1.52838,-5.24,4.58515
9.9056,84283.0659,1.51433,-5.8301,4.63402
9.9185,84283.0759,1.81183,-6.488,4.73298
9.9264,84283.0859,2.21133,-6.80198,4.88937
9.9434,84283.0959,2.81731,-7.1123,5.105
9.9547,84283.1059,3.23148,-7.20454,5.10683
9.9675,84283.1159,3.42756,-7.03045,4.92418
9.9719,84283.1259,3.37808,-6.63827,4.72932
9.9779,84283.1369,3.00912,-5.99381,4.47337
9.9861,84283.1469,2.60534,-5.5717,4.3964
9.9984,84283.1569,2.16307,-5.34385,4.49291
10.007,84283.1679,1.8216,-5.33346,4.61753
10.0187,84283.1779,1.43126,-5.39333,4.63463
10.027,84283.1879,1.0568,-5.35973,4.48131
10.0423,84283.1979,0.6298,-5.14104,4.13678
10.0469,84283.2079,0.27855,-5.03353,3.66336
10.0605,84283.2179,0.10446,-4.98649,3.22354
10.0668,84283.2279,0.12095,-5.00787,2.97858
10.0799,84283.2379,0.17898,-5.03414,2.74889
10.0869,84283.2479,0.23274,-5.1722,2.54059
10.1003,84283.2579,0.34147,-5.5039,2.21866
10.1178,84283.2679,0.37385,-5.69754,1.92117
10.1247,84283.2779,0.24496,-5.81544,1.7092
10.1299,84283.2889,-0.02627,-6.02985,1.68477
10.1403,84283.2989,-0.41661,-6.41347,1.78006
10.1485,84283.3089,-0.70616,-6.62972,1.84726
10.1646,84283.3189,-0.95967,-6.64499,1.72875
10.1679,84283.3289,-1.14843,-6.58757,1.48929
10.1803,84283.3389,-1.34024,-6.59429,1.1863
10.189,84283.3499,-1.39583,-6.77633,0.87293
10.2034,84283.3599,-1.27549,-7.05427,0.60537
10.214,84283.3709,-1.0177,-7.43728,0.43616
10.2217,84283.3809,-0.85765,-7.75249,0.26573
10.2299,84283.3909,-0.85277,-7.87039,0.12401
10.242,84283.4007,-1.0006,-7.60527,0.19364
10.2497,84283.4109,-1.3604,-7.14957,0.3427
10.2616,84283.4209,-1.91262,-6.73357,0.40378
10.2697,84283.4309,-2.31884,-6.4654,0.2193
10.285,84283.4408,-2.51249,-6.11659,-0.26084
10.29,84283.4509,-2.48378,-5.76535,-0.69944
10.3017,84283.4609,-2.29624,-5.50328,-1.27732
10.3097,84283.4709,-2.02624,-5.67738,-1.83626
10.3217,84283.4809,-1.80327,-6.05551,-2.54242
10.3298,84283.4909,-1.73547,-6.38415,-2.97186
10.3439,84283.5009,-1.70004,-6.52648,-3.13863
10.3515,84283.5109,-1.68049,-6.36888,-2.78432
10.3848,84283.5209,-1.80816,-5.667,-2.08427
10.395,84283.5309,-2.06656,-4.90952,-1.56626
10.3962,84283.5409,-2.49233,-3.9297,-1.08673
10.3979,84283.5508,-2.84358,-3.23575,-0.92485
10.4105,84283.5619,-3.12946,-2.65116,-1.01465
10.4131,84283.5719,-3.21682,-2.45507,-1.19546
10.4312,84283.5819,-3.26569,-2.31946,-1.48074
10.4327,84283.5918,-3.28462,-2.38848,-1.6475
10.4455,84283.6019,-3.3341,-2.72996,-1.75441
10.4521,84283.6129,-3.40741,-3.08365,-1.79289
10.4683,84283.6229,-3.44284,-3.19727,-1.75807
10.4751,84283.6329,-3.44345,-3.13618,-1.58886
10.4949,84283.6429,-3.50148,-2.77638,-1.27732
10.4963,84283.6529,-3.69757,-2.25409,-0.98899
10.5053,84283.6629,-4.15755,-1.50029,-0.551
10.5123,84283.6729,-4.49291,-1.29442,-0.28039
10.5253,84283.6829,-4.77208,-1.28098,-0.04215
10.5321,84283.6928,-4.9138,-1.21501,0.05864
10.5536,84283.7029,-4.99993,-0.9841,0.1967
10.5561,84283.7129,-5.05247,-0.5455,0.36591
10.5681,84283.7229,-5.15387,-0.0391,0.61331
10.5745,84283.7329,-5.33652,0.1179,0.84238
10.5848,84283.7429,-5.53016,0.32559,1.13499
10.5923,84283.7529,-5.67616,0.61575,1.49357
10.6065,84283.7629,-5.80627,1.24494,1.88208
10.6203,84283.7729,-6.0268,2.03235,2.1643
10.6313,84283.7829,-6.35911,2.4117,2.44896
10.6342,84283.7929,-6.74701,2.36588,2.74523
10.6469,84283.8029,-7.1123,2.20645,2.9798
10.6559,84283.8129,-7.30412,2.1588,3.0415
10.6738,84283.8228,-7.32305,2.30296,3.09098
10.6767,84283.8329,-7.27785,2.40437,3.14718
10.6907,84283.8429,-7.18439,2.37321,3.2663
10.6957,84283.8529,-7.15079,2.36771,3.38114
10.7048,84283.8629,-7.23387,2.6536,3.48987
10.7118,84283.8729,-7.42079,3.05372,3.50148
10.7267,84283.8829,-7.75982,3.70917,3.41901
10.7317,84283.8929,-8.01822,4.27789,3.26507
10.745,84283.9029,-8.39268,5.06041,2.89733
10.753,84283.9129,-8.74454,5.61691,2.47645
10.7705,84283.9229,-9.10006,6.15202,1.98714
10.7779,84283.9329,-9.29798,6.2406,1.42332
10.7968,84283.9429,-8.9168,6.41103,0.93523
10.8,84283.9529,-8.40367,6.42447,0.72265
10.8112,84283.9629,-7.79281,6.56191,0.82039
10.8131,84283.9728,-7.32855,6.64621,0.94867
10.8311,84283.9829,-6.8307,6.62117,1.05863
10.8333,84283.9929,-6.49472,6.70669,1.0513
10.8478,84284.0029,-6.20944,6.80748,0.94318
10.8516,84284.0129,-6.00969,6.7299,0.65729
10.8634,84284.0229,-5.74091,6.75495,0.19487
10.8716,84284.0329,-5.49412,6.96264,-0.13867
10.8838,84284.0429,-5.29926,6.99868,-0.34392
10.8916,84284.0529,-5.24428,6.92171,-0.33292
10.9038,84284.0629,-5.2791,6.76778,-0.22052
10.9127,84284.0729,-5.31636,6.68164,-0.2138
10.9254,84284.0829,-5.43304,6.77633,-0.32193
10.9333,84284.0929,-5.54482,6.74334,-0.53084
10.948,84284.1039,-5.50756,6.10315,-1.00854
10.9638,84284.1139,-5.11905,5.15326,-1.57664
10.9671,84284.1239,-4.33409,3.56257,-2.19911
10.9789,84284.1339,-3.58944,2.17835,-2.57602
11.009,84284.1439,-2.62794,0.5339,-2.81059
11.0186,84284.1539,-1.94866,-0.49908,-2.77516
11.0255,84284.1639,-1.4001,-1.34085,-2.47889
11.0339,84284.1749,-1.19363,-1.67133,-2.19973
11.0347,84284.1849,-1.18813,-1.8326,-1.76174
11.0359,84284.1949,-1.30175,-1.98409,-1.18264
11.0489,84284.2049,-1.27243,-2.27669,-0.0562
11.0542,84284.2149,-0.97311,-2.57235,1.06657
11.0856,84284.2249,-0.46609,-3.03111,2.71469
11.0868,84284.2349,-0.29688,-3.60777,4.12212
11.0874,84284.2449,-0.50091,-4.50269,5.27482
11.0941,84284.2548,-0.6298,-5.19235,5.95044
11.105,84284.2649,-0.4386,-6.16363,6.19845
11.1143,84284.2749,0.12584,-6.73601,6.10682
11.1258,84284.2848,1.0232,-6.79404,5.89851
11.1334,84284.2949,1.54549,-6.71952,5.78062
11.145,84284.3049,1.85581,-6.47884,5.73114
11.155,84284.3149,1.66583,-5.83498,5.7794
11.1691,84284.3248,0.85094,-4.4807,5.9706
11.1752,84284.3348,-0.13867,-3.17528,6.27664
11.1912,84284.3458,-1.15698,-1.99264,6.71952
11.2081,84284.3558,-1.80389,-1.46608,7.02984
11.2154,84284.3669,-2.23943,-1.43431,7.30595
11.2177,84284.3766,-2.24493,-1.83687,7.45866
11.2328,84284.3868,-1.83015,-2.82647,7.58023
11.2357,84284.3968,-1.12277,-3.75132,7.5564
11.2547,84284.4069,-0.15088,-4.53323,7.38108
11.2565,84284.4169,0.5565,-4.76108,7.19599
11.2719,84284.4269,0.99021,-4.51002,7.0897
11.278,84284.4368,1.10017,-4.0873,7.16545
11.2912,84284.4468,1.00854,-3.46544,7.3762
11.2955,84284.4568,0.8436,-2.95781,7.49715
11.3073,84284.4669,0.64019,-2.46057,7.44034
11.3156,84284.4769,0.50091,-2.11604,7.24975
11.3293,84284.4869,0.36713,-1.93583,6.893
11.3358,84284.4968,0.2138,-2.01219,6.54664
11.3474,84284.5068,-0.08613,-2.19667,6.04879
11.3575,84284.5168,-0.34941,-2.27425,5.58392
11.3697,84284.5269,-0.54367,-2.18079,5.02376
11.3759,84284.5369,-0.57849,-1.95843,4.72749
11.3882,84284.5469,-0.57666,-1.66766,4.4361
11.396,84284.5568,-0.52412,-1.65117,4.21741
11.41,84284.5668,-0.3934,-1.77823,3.94314
11.4227,84284.5778,-0.18815,-1.86375,3.3677
11.4404,84284.5878,0.11606,-1.77701,2.61084
11.4446,84284.5978,0.38729,-1.66094,2.03479
11.4539,84284.6088,0.75442,-1.58031,1.36651
11.4646,84284.6188,1.03725,-1.61146,0.76114
11.4725,84284.6288,1.30786,-1.65544,-0.08369
11.4854,84284.6388,1.44225,-1.61146,-0.86743
11.495,84284.6489,1.46791,-1.30481,-1.95721
11.4989,84284.6598,1.17347,-0.79229,-2.87351
11.5134,84284.6699,0.63897,-0.27122,-3.51736
11.5185,84284.6799,0.23702,0.09835,-3.85761
11.532,84284.6899,-0.13867,0.41844,-4.18259
11.5392,84284.6998,-0.26695,0.58826,-4.51979
11.5569,84284.7098,-0.24251,0.48319,-4.99627
11.5603,84284.7198,-0.15272,0.13928,-5.4141
11.5714,84284.7299,0.00916,-0.4331,-5.95227
11.5787,84284.7399,0.19548,-0.9163,-6.37132
11.5909,84284.7499,0.4386,-1.35551,-6.84597
11.5987,84284.7598,0.67378,-1.59253,-7.24547
11.6122,84284.7698,0.9108,-1.80205,-7.53624
11.6187,84284.7798,1.01037,-1.97981,-7.62787
11.6313,84284.7899,0.98288,-2.17468,-7.62238
11.6388,84284.7999,0.76053,-2.1142,-7.51975
11.6588,84284.8099,0.24129,-1.5852,-7.3481
11.6758,84284.8198,-0.2755,-0.87354,-7.17034
11.6824,84284.8309,-0.95784,0.08858,-6.79404
11.6887,84284.8409,-1.35001,0.37263,-6.40859
11.6929,84284.8508,-1.52411,0.28588,-5.9822
11.7004,84284.8608,-1.51922,0.18876,-5.61813
11.714,84284.8708,-1.37872,0.19609,-5.28887
11.7202,84284.8809,-1.13071,0.31582,-5.1331
11.7331,84284.8909,-0.72388,0.28161,-5.13371
11.7421,84284.9009,-0.39767,0.09713,-5.16364
11.7572,84284.9108,-0.11057,-0.18937,-5.21679
11.7616,84284.9208,-0.05315,-0.63286,-5.30842
11.7832,84284.9308,-0.14355,-1.05924,-5.4257
11.8013,84284.9409,-0.26817,-1.15576,-5.50328
11.8038,84284.9509,-0.51801,-0.72326,-5.55338
11.8072,84284.9609,-0.86682,0.3036,-5.58575
11.8168,84284.9708,-1.39583,1.22234,-5.73664
11.8233,84284.9808,-1.89246,1.56198,-5.91745
11.8326,84284.9908,-2.5583,1.47219,-6.04696
11.8411,84285.0018,-3.05249,0.99449,-6.02924
11.853,84285.0118,-3.27546,0.35186,-5.90218
11.8703,84285.0218,-3.19544,-0.1069,-5.72503
11.8776,84285.0319,-2.86068,-0.3653,-5.33957
11.8836,84285.0419,-2.41292,-0.27245,-4.90342
11.8939,84285.0519,-1.76357,0.17287,-4.41717
11.9008,84285.0618,-1.40316,0.58521,-4.18748
11.9133,84285.0718,-1.00915,1.27732,-3.93214
11.9218,84285.0828,-0.81367,1.98409,-3.79592
11.9448,84285.0928,-0.8491,2.61511,-3.72811
11.9499,84285.1028,-1.03664,2.45873,-3.73666
11.9555,84285.1128,-1.41049,1.27732,-3.87411
11.9653,84285.1238,-1.7092,-0.04154,-3.868
11.9794,84285.1338,-1.97737,-0.43371,-3.69451
11.9852,84285.1448,-2.1478,-0.4496,-3.90832
11.9982,84285.1548,-2.11054,-0.45937,-4.29866
12.0055,84285.1648,-1.86864,-0.54672,-4.45382
12.0174,84285.1749,-1.37567,-0.84971,-4.38051
12.0244,84285.1849,-0.90652,-1.13926,-4.16732
12.0394,84285.1948,-0.3317,-1.24006,-3.92237
12.0459,84285.2048,0.03543,-1.15392,-3.78675
12.059,84285.2148,0.13011,-1.17286,-3.56684
12.0645,84285.2248,0.01833,-1.2535,-3.27302
12.0772,84285.2349,-0.11729,-1.11972,-2.79715
12.0924,84285.2449,-0.11362,-0.73731,-2.33839
12.0966,84285.2548,-0.04887,-0.44349,-1.88574
12.104,84285.2648,0.07819,-0.6408,-1.65056
12.116,84285.2748,0.29138,-1.02686,-1.6921
12.124,84285.2848,0.52779,-1.62612,-1.94622
12.1381,84285.2949,0.88087,-2.62916,-2.35611
12.1439,84285.3048,1.13865,-2.9346,-2.53692
12.156,84285.3149,1.30664,-2.67681,-2.43185
12.1651,84285.3248,1.21196,-2.069,-2.06289
12.1789,84285.3348,0.93829,-1.44958,-1.38056
12.1854,84285.3448,0.70311,-1.16675,-0.75931
12.1991,84285.3549,0.67378,-1.31641,-0.26695
12.2112,84285.3658,0.94928,-1.63101,-0.13622
12.2235,84285.3758,1.50151,-1.88452,-0.27489
12.2272,84285.3859,2.01219,-2.09405,-0.46365
12.2371,84285.3959,2.28525,-2.21927,-0.48625
12.245,84285.4058,2.25226,-2.29441,-0.26512
12.2571,84285.4158,2.1423,-2.37627,0.26695
12.265,84285.4258,2.16307,-2.44713,0.76786
12.277,84285.4358,2.31884,-2.43552,1.23028
12.2851,84285.4458,2.47523,-2.38909,1.54488
12.3037,84285.4559,2.71041,-2.3164,1.94744
12.3229,84285.4669,2.94926,-2.17835,2.40192
12.325,84285.4778,3.17467,-2.14963,2.76783
12.3288,84285.4888,3.39275,-2.04396,2.94132
12.3412,84285.4988,3.56929,-1.76174,2.99446
12.348,84285.5088,3.65236,-1.55343,3.02012
12.3607,84285.5189,3.74338,-1.30236,3.16001
12.3676,84285.5289,3.77393,-1.07696,3.37442
12.3792,84285.5389,3.71956,-0.84299,3.83318
12.3874,84285.5488,3.57601,-0.77274,4.35425
12.4002,84285.5588,3.41596,-0.84483,4.90097
12.4076,84285.5688,3.32738,-0.92607,5.20274
12.4192,84285.5789,3.19116,-0.96333,5.47702
12.4289,84285.5889,3.05005,-1.00304,5.61874
12.4416,84285.5989,2.8784,-1.08978,5.61019
12.4563,84285.6088,2.74217,-1.16003,5.49779
12.4745,84285.6199,2.55891,-1.25411,5.3353
12.4798,84285.6298,2.44529,-1.29992,5.32613
12.4849,84285.6409,2.29441,-1.28648,5.38417
12.491,84285.6509,2.12398,-1.16614,5.54543
12.5029,84285.6608,1.87108,-0.94257,5.78734
12.5102,84285.6708,1.77395,-0.8436,5.95594
12.5222,84285.6808,1.79045,-0.80512,6.1337
12.5317,84285.6909,1.92117,-0.77397,6.34994
12.5426,84285.7009,2.10321,-0.74526,6.60284
12.5519,84285.7118,2.23516,-0.82589,6.76106
12.5735,84285.7219,2.38115,-0.94379,6.81176
12.5864,84285.7319,2.48011,-0.9444,6.7409
12.5886,84285.7418,2.59557,-0.96028,6.47212
12.5934,84285.7518,2.72202,-1.01159,6.1227
12.6075,84285.7618,2.84052,-1.06779,5.70426
12.6163,84285.7718,2.96514,-1.0232,5.28826
12.6288,84285.7819,3.10686,-0.80207,4.97672
12.6334,84285.7919,3.26385,-0.48503,4.82522
12.6491,84285.8019,3.4349,-0.09896,4.72321
12.6575,84285.8118,3.54974,0.21564,4.65479
12.6648,84285.8218,3.62793,0.85582,4.72443
12.6756,84285.8318,3.53569,1.32069,4.79285
12.6852,84285.8419,3.32616,1.59741,4.76108
12.6917,84285.8528,3.21437,1.59008,4.5876
12.7033,84285.8628,3.29012,1.44958,4.26812
12.7116,84285.8729,3.42207,1.38361,3.91504
12.7247,84285.8829,3.55096,1.22051,3.37625
12.7321,84285.8928,3.59128,1.09589,3.02195
12.7434,84285.9028,3.61388,0.92363,2.50394
12.7531,84285.9128,3.56134,0.87598,2.05862
12.7662,84285.9228,3.44345,0.91385,1.54671
12.7728,84285.9329,3.32922,0.93951,1.14171
12.809,84285.9429,3.18566,1.01587,0.6072
12.8146,84285.9527,2.65177,1.68965,-0.67073
12.8202,84285.9626,2.61695,1.73241,-0.73793
12.8245,84285.9727,2.46973,1.86558,-0.98838
12.8253,84285.9828,2.21744,2.1142,-1.45203
12.8332,84285.9929,2.06289,2.31946,-1.87169
12.8494,84286.0029,2.01952,2.496,-2.29563
12.8542,84286.0129,2.07633,2.57358,-2.6591
12.8665,84286.0228,2.2602,2.5412,-3.10258
12.8754,84286.0328,2.46362,2.46301,-3.46238
12.884,84286.0428,2.63833,2.29197,-3.9749
12.8918,84286.0529,2.55036,2.05006,-4.44466
12.9051,84286.0629,2.01647,1.71348,-4.87409
12.9128,84286.0729,1.53266,1.54121,-5.06896
12.9254,84286.0828,0.77091,1.36956,-5.36217
12.9331,84286.0928,0.2022,1.33596,-5.5717
12.9531,84286.1039,-0.35125,1.34085,-5.64439
12.9576,84286.1138,-0.64263,1.3213,-5.61568
12.9692,84286.1238,-0.84483,1.20707,-5.56132
12.976,84286.1338,-0.82711,1.23089,-5.48129
12.9852,84286.1439,-0.72937,1.56931,-5.4477
12.993,84286.1539,-0.66706,2.03785,-5.40677
13.0051,84286.1639,-0.67378,2.51249,-5.34141
13.0129,84286.1738,-0.70799,2.58518,-5.33224
13.025,84286.1838,-0.70311,2.33473,-5.34324
13.0329,84286.1938,-0.63958,2.04823,-5.39822
13.0485,84286.2039,-0.41356,1.4166,-5.58209
13.0571,84286.2139,-0.13073,0.79474,-5.64745
13.0751,84286.2239,0.08063,0.57055,-5.40677
13.0834,84286.2338,0.11973,0.69028,-5.12516
13.093,84286.2438,0.08125,0.90347,-4.77147
13.0956,84286.2538,0.00061,0.94073,-4.54423
13.1129,84286.2638,-0.1857,0.84666,-4.39823
13.1175,84286.2739,-0.43433,0.78863,-4.35242
13.1252,84286.2839,-0.84727,0.58521,-4.42511
13.1376,84286.2938,-1.18019,0.33598,-4.55339
13.1482,84286.3038,-1.39827,-0.33781,-4.71527
13.1589,84286.3138,-1.30664,-0.88575,-4.73421
13.1666,84286.3238,-0.88942,-0.74587,-4.554
13.1729,84286.3339,-0.54672,-0.38851,-4.29194
13.185,84286.3439,-0.24374,0,-3.93947
13.1973,84286.3539,-0.07819,0.14478,-3.69635
13.2051,84286.3638,0.05742,0.15211,-3.45383
13.2151,84286.3738,0.14966,0.17287,-3.30539
13.226,84286.3838,0.23396,0.41294,-3.3005
13.2341,84286.3939,0.25962,0.67134,-3.46177
13.247,84286.4039,0.33414,0.85949,-3.65969
13.2665,84286.4149,0.46242,0.90713,-3.71773
13.2743,84286.4249,0.72021,0.78191,-3.59372
13.2833,84286.4349,0.91874,0.47098,-3.46422
13.286,84286.4448,1.18691,-0.0171,-3.4013
13.2963,84286.4548,1.39522,-0.42577,-3.52347
13.308,84286.4648,1.69393,-1.08612,-3.99628
13.3169,84286.4749,1.91323,-1.58092,-4.48742
13.3298,84286.4849,2.22477,-2.1643,-4.97183
13.3345,84286.4949,2.46301,-2.53998,-5.11722
13.3462,84286.5048,2.50943,-2.90589,-5.08179
13.3536,84286.5148,2.43308,-3.13435,-4.76475
13.3656,84286.5248,2.19973,-2.97675,-4.0928
13.3738,84286.5348,1.88757,-2.87779,-3.57295
13.386,84286.5449,1.69088,-3.08853,-3.28645
13.3944,84286.5549,1.80266,-3.67985,-3.28523
13.4077,84286.5649,2.28952,-4.33837,-3.57417
13.4166,84286.5748,2.59312,-4.2504,-3.76476
13.4269,84286.5848,2.58091,-3.81791,-3.56012
13.4394,84286.5958,2.29624,-3.59677,-2.99263
13.4497,84286.6058,1.9957,-3.46055,-2.20034
13.456,84286.6168,1.91751,-3.39397,-1.62307
13.4679,84286.6268,2.06472,-3.47766,-1.23761
13.476,84286.6368,2.28708,-3.46238,-0.99876
13.4896,84286.6468,2.50516,-3.24553,-0.7086
13.5047,84286.6569,2.65543,-3.08853,-0.41294
13.5099,84286.6669,2.76294,-3.0867,-0.06597
13.5248,84286.6779,2.82953,-3.17528,0.19181
13.5378,84286.6879,2.78921,-3.21193,0.42394
13.5392,84286.6979,2.63711,-3.25897,0.59498
13.549,84286.7078,2.43185,-3.35732,0.8094
13.5618,84286.7178,2.31457,-3.38908,1.15209
13.569,84286.7278,2.28952,-3.10869,1.55221
13.577,84286.7379,2.18201,-2.61573,1.97248
13.5944,84286.7479,1.79839,-2.14902,2.51066
13.6029,84286.7579,1.37323,-1.7825,2.80876
13.6112,84286.7678,0.93279,-1.48135,3.0305
13.6167,84286.7778,0.76053,-1.3494,3.16428
13.63,84286.7878,0.86804,-1.41293,3.40374
13.637,84286.7978,1.12094,-1.47768,3.61449
13.6536,84286.8079,1.5913,-1.45142,3.93764
13.6569,84286.8179,1.9847,-1.31458,4.03171
13.6749,84286.8279,2.34084,-0.97922,3.92481
13.6813,84286.8378,2.52104,-0.54611,3.7837
13.6891,84286.8478,2.61389,-0.00489,3.71834
13.6994,84286.8578,2.6536,0.34392,3.71589
13.7104,84286.8679,2.75561,0.58215,3.60777
13.717,84286.8779,2.89,0.60231,3.45872
13.7306,84286.8879,2.95231,0.26939,3.26019
13.7371,84286.8978,2.93704,-0.00428,2.95659
13.7511,84286.9078,2.88695,-0.29932,2.57846
13.757,84286.9178,2.79226,-0.43066,2.42208
13.769,84286.9279,2.66765,-0.44654,2.41536
13.7848,84286.9379,2.52898,-0.33353,2.55403
13.7903,84286.9479,2.32617,-0.14966,2.91077
13.7978,84286.9578,2.16552,-0.0055,3.24003
13.8086,84286.9678,1.88941,0.33414,3.64137
13.8166,84286.9778,1.64139,0.60781,3.8625
13.8306,84286.9878,1.42393,0.79474,4.01338
13.8366,84286.9979,1.4392,0.78618,3.98895
13.8501,84287.0079,1.7373,0.60292,3.8344
13.8565,84287.0178,2.09282,0.44838,3.67863
13.8699,84287.0278,2.48133,0.38912,3.54363
13.8766,84287.0378,2.58518,0.56688,3.55096
13.8883,84287.0478,2.43613,0.91324,3.62732
13.9032,84287.0579,2.1869,1.17958,3.7165
13.9216,84287.0679,1.94683,1.41721,3.78981
13.9259,84287.0789,1.84115,1.47219,3.84295
13.9364,84287.0889,1.8552,1.40255,3.83746
13.9427,84287.0989,1.90895,1.30786,3.82096
13.9506,84287.1088,2.04457,1.21196,3.80386
13.9586,84287.1188,2.2205,1.17408,3.80997
13.9738,84287.1288,2.46667,1.04275,3.76171
13.9784,84287.1388,2.70491,0.77519,3.6542
14.0037,84287.1489,3.02378,0.39706,3.50453
14.017,84287.1587,3.182,0.16982,3.43795
14.0184,84287.1688,3.33166,-0.02016,3.35121
14.0211,84287.1788,3.37686,-0.04337,3.29195
14.0326,84287.1888,3.34143,0.05742,3.23697
14.038,84287.1988,3.19483,0.38118,3.12824
14.0526,84287.2089,2.86679,0.94745,2.89611
14.058,84287.2189,2.61756,1.38605,2.71957
14.0873,84287.2289,2.33839,1.90407,2.56747
14.0902,84287.2388,2.22721,2.18262,2.43247
14.0924,84287.2488,2.19056,2.37138,2.18568
14.1002,84287.2588,2.17712,2.39704,1.87902
14.1172,84287.2689,2.19728,2.37688,1.43737
14.1216,84287.2798,2.25226,2.49355,0.9841
14.1322,84287.2899,2.29136,2.75012,0.48808
14.1387,84287.2999,2.30602,2.9798,0.14172
14.1505,84287.3099,2.31701,3.0696,-0.11179
14.1588,84287.3198,2.32617,3.00485,-0.27122
14.1729,84287.3296,2.28036,2.72873,-0.55405
14.1812,84287.3409,2.14475,2.33351,-0.99327
14.1931,84287.3508,1.86436,2.08916,-1.54732
14.2,84287.3608,1.53083,2.19973,-1.99875
14.2123,84287.3708,0.9499,2.48378,-2.51249
14.2282,84287.3809,0.34331,2.68842,-2.82831
14.2386,84287.3909,-0.33109,2.77638,-2.90833
14.2477,84287.4009,-0.76541,2.70369,-2.78066
14.2577,84287.4108,-1.14476,2.45262,-2.54364
14.2667,84287.4219,-1.27671,2.08,-2.3671
14.278,84287.4318,-1.17469,1.74402,-2.32984
14.2884,84287.4418,-1.05313,1.53449,-2.45201
14.2965,84287.4518,-1.01037,1.10628,-2.74095
14.3038,84287.4618,-1.01953,0.75808,-3.08548
14.316,84287.4719,-0.99693,0.70127,-3.66641
14.3259,84287.4819,-0.88148,0.85643,-4.0482
14.3345,84287.4918,-0.72693,0.99388,-4.53445
14.3408,84287.5018,-0.61575,1.03481,-4.74764
14.3544,84287.5118,-0.48564,1.2761,-4.80812
14.3614,84287.5218,-0.26023,1.50884,-4.85027
14.3771,84287.5319,0.26389,1.72081,-5.02925
14.3831,84287.5419,0.84422,1.75624,-5.31941
14.3945,84287.5519,1.36834,1.40132,-5.70976
14.4012,84287.5618,1.64139,0.66584,-6.13003
14.4135,84287.5718,1.77334,-0.22602,-6.59246
14.4211,84287.5818,1.8326,-0.99754,-7.028
14.4342,84287.5919,1.72386,-1.72264,-7.42751
14.4416,84287.6019,1.61513,-2.00303,-7.57778
14.4548,84287.6119,1.51495,-1.87658,-7.38536
14.462,84287.6218,1.40621,-1.54671,-6.9883
14.4755,84287.6329,1.23212,-0.87904,-6.18929
14.4849,84287.6428,1.17347,-0.3036,-5.49534
14.5032,84287.6528,1.15515,0.07269,-4.89303
14.5075,84287.6628,1.0965,0.13683,-4.42328
14.5173,84287.6727,1.00548,-0.03543,-4.10807
14.5248,84287.6829,0.98533,-0.30177,-4.1099
14.5361,84287.6929,1.0458,-0.85949,-4.32248
14.5501,84287.7039,1.10994,-1.37506,-4.47825
14.5575,84287.7139,1.15454,-1.75196,-4.43855
14.5671,84287.7238,1.15454,-1.80511,-4.23452
14.575,84287.7338,1.06901,-1.70248,-3.84784
14.5844,84287.7438,0.97189,-1.56076,-3.47033
14.596,84287.7538,0.88881,-1.38972,-3.036
14.605,84287.7639,0.8937,-1.37078,-2.91505
14.616,84287.7739,0.90103,-1.54305,-2.95048
14.6255,84287.7839,0.90347,-1.8045,-3.08243
14.6387,84287.7938,0.94623,-2.28952,-3.33105
14.6446,84287.8038,1.00182,-2.83991,-3.41962
14.6557,84287.8138,1.1075,-3.25836,-3.12152
14.6752,84287.8238,1.17592,-3.37503,-2.71407
14.686,84287.8348,1.2254,-3.33716,-2.43674
14.6874,84287.8448,1.27549,-3.15145,-2.36099
14.7001,84287.8549,1.35856,-2.90955,-2.20889
14.7078,84287.8649,1.42515,-2.91994,-1.98592
14.7247,84287.8749,1.55648,-3.28584,-1.61696
14.7269,84287.8848,1.74646,-3.5644,-1.34513
14.736,84287.8948,2.05251,-3.86311,-0.96089
14.7454,84287.9048,2.30663,-4.06897,-0.59559
14.763,84287.9149,2.52654,-4.15327,-0.21747
14.7682,84287.9249,2.61267,-4.01216,0.20159
14.7793,84287.9349,2.53143,-3.83318,0.75564
14.7908,84287.9448,2.36771,-3.58334,1.32497
14.8005,84287.9548,2.15635,-3.1203,1.89307
14.8078,84287.9648,1.87169,-2.56319,2.45079
14.819,84287.9748,1.49173,-2.07816,3.01706
14.8246,84287.9849,1.09345,-1.73119,3.36892
14.8353,84287.9949,0.55222,-1.68721,3.5027
14.8436,84288.0048,0.11973,-1.94866,3.44833
14.8562,84288.0148,-0.4441,-2.34267,3.3225
14.8639,84288.0248,-0.82039,-2.41658,3.20949
14.8823,84288.0348,-1.24494,-2.39765,2.98713
14.8908,84288.0449,-1.53999,-2.1142,2.8057
14.9269,84288.0558,-2.09832,-1.66278,2.53692
14.9505,84288.0659,-2.41292,-1.49723,2.41475
14.9523,84288.0759,-2.67315,-1.44225,2.27425
14.9546,84288.0868,-2.76539,-1.50762,2.06717
14.9561,84288.0969,-2.7214,-1.64384,1.68232
14.9595,84288.1069,-2.55097,-1.89063,1.21745
14.9637,84288.1168,-2.18201,-2.10382,0.66706
14.9723,84288.1268,-1.52838,-2.39459,0.32437
14.9785,84288.1368,-0.70983,-2.5974,0.08308
14.9871,84288.1468,-0.04704,-2.57724,0.02077
15.0008,84288.1569,0.54734,-2.27669,0.14172
15.0065,84288.1669,0.92241,-1.97615,0.34208
15.0178,84288.1767,1.36651,-1.54427,0.74953
15.0616,84288.1868,1.76907,-1.26266,1.15087
15.0641,84288.1968,2.32312,-1.07268,1.56992
15.0696,84288.2068,2.83991,-1.02014,1.90712
15.0706,84288.2169,3.57601,-1.13071,2.33351
15.0725,84288.2269,4.18748,-1.21868,2.62611
15.0782,84288.2369,4.7507,-1.28221,2.89245
15.087,84288.2468,5.14226,-1.34451,3.06715
15.0976,84288.2568,5.45258,-1.33779,3.12396
15.1074,84288.2668,5.5943,-1.1075,3.00912
15.119,84288.2768,5.49412,-0.69944,2.73973
15.1255,84288.2868,5.21862,-0.35552,2.63344
15.1404,84288.2968,4.7959,0.0226,2.91566
15.1453,84288.3068,4.44404,0.37018,3.35976
15.1574,84288.3168,3.99078,0.87537,4.02988
15.1668,84288.3268,3.57967,1.37261,4.56255
15.1787,84288.3368,3.16001,1.84359,4.90219
15.1868,84288.3468,2.88451,2.07389,5.02192
15.2065,84288.3568,2.63649,2.2376,5.15326
15.2178,84288.3668,2.52348,2.31274,5.28582
15.221,84288.3768,2.5186,2.0971,5.35301
15.2291,84288.3868,2.60901,1.7092,5.37867
15.2388,84288.3968,2.84113,1.07757,5.4422
15.2459,84288.4068,3.03661,0.74587,5.48557
15.2599,84288.4168,3.33777,0.48625,5.38783
15.2659,84288.4268,3.66641,0.3879,5.08545
15.278,84288.4368,3.98101,0.32315,4.6835
15.287,84288.4467,4.06897,0.36713,4.29316
15.3037,84288.4568,3.8063,0.54734,3.82768
15.3079,84288.4678,3.44039,0.80451,3.54241
15.3213,84288.4778,2.84419,1.48685,3.19483
15.3336,84288.4878,2.27914,2.37627,2.87534
15.3428,84288.4988,1.78739,3.43184,2.37138
15.3506,84288.5088,1.73608,3.96818,1.89551
15.3649,84288.5188,2.08122,4.47398,1.05252
15.3685,84288.5288,2.52959,4.64258,0.13195
15.3804,84288.5388,2.74462,4.3518,-0.95845
15.388,84288.5488,2.61267,3.90771,-1.80144
15.403,84288.5588,2.14902,3.35854,-2.60656
15.408,84288.5688,1.76418,3.44406,-3.13801
15.4264,84288.5788,1.34696,3.84723,-3.72383
15.4311,84288.5888,1.06229,4.18687,-4.13617
15.4513,84288.5988,0.81734,4.39945,-4.59004
15.4535,84288.6088,0.80512,4.53384,-4.91075
15.4628,84288.6188,1.03481,4.86127,-5.36767
15.4745,84288.6298,1.26205,5.15815,-5.64317
15.492,84288.6398,1.21562,5.11355,-5.69632
15.495,84288.6508,1.04458,4.88814,-5.64806
15.5038,84288.6608,0.86865,4.46237,-5.76107
15.5099,84288.6708,0.85338,3.98162,-6.01641
15.5258,84288.6808,1.04458,3.14596,-6.29558
15.5312,84288.6918,1.34635,2.46118,-6.28092
15.5458,84288.7018,1.61513,2.25837,-6.15508
15.5577,84288.7118,1.70309,2.40742,-6.07322
15.5708,84288.7218,1.56381,2.85274,-5.99564
15.5726,84288.7318,1.11544,3.32127,-5.98831
15.5847,84288.7428,0.19792,3.60044,-6.08666
15.5924,84288.7528,-0.53451,3.71223,-6.17646
15.6055,84288.7628,-1.29137,3.72017,-6.207
15.6218,84288.7728,-1.67683,3.64198,-6.03901
15.6244,84288.7828,-1.77884,3.53935,-5.66944
15.6351,84288.7938,-1.65544,3.47643,-5.15815
15.6455,84288.8038,-1.47646,3.42818,-4.41411
15.6531,84288.8138,-1.40132,3.12335,-3.7501
15.6732,84288.8238,-1.38422,2.29013,-3.11786
15.6785,84288.8338,-1.30053,1.43309,-2.8112
15.6863,84288.8438,-1.03236,0.19242,-2.78066
15.6929,84288.8537,-0.75503,-0.60903,-2.87412
15.7094,84288.8638,-0.67317,-0.8827,-2.88695
15.7131,84288.8738,-0.89186,-1.00182,-2.71163
15.7283,84288.8838,-1.383,-1.06901,-2.30541
15.7339,84288.8938,-1.78312,-0.95295,-1.79717
15.7445,84288.9038,-1.90834,-0.66523,-1.28221
15.7524,84288.9138,-1.62124,-0.42516,-0.88881
15.7644,84288.9238,-1.102,-0.31032,-0.48381
15.773,84288.9338,-0.52779,-0.27855,-0.05681
15.7857,84288.9448,0.16371,-0.3207,0.43616
15.7932,84288.9548,0.52046,-0.43616,0.59315
15.8052,84288.9647,0.89309,-0.69333,0.62186
15.8132,84288.9748,1.02259,-0.73121,0.562
15.8247,84288.9848,0.92424,-0.7367,0.41111
15.836,84288.9948,0.7703,-0.53756,0.37446
15.8471,84289.0058,0.64507,0.36957,0.56566
15.8547,84289.0158,0.62614,1.33413,0.90286
15.8665,84289.0258,0.52351,2.6817,1.30481
15.8742,84289.0358,0.18937,4.19603,1.64689
15.8857,84289.0457,-0.34941,5.5717,1.95294
15.8942,84289.0558,-0.97677,6.83803,2.09466
15.9059,84289.0658,-1.45203,7.86367,2.04762
15.9142,84289.0758,-1.64811,8.66757,2.16552
15.9258,84289.0858,-1.69088,9.44581,2.62977
15.9366,84289.0957,-1.58947,9.74147,3.1032
15.9458,84289.1057,-1.18325,9.61624,3.5363
15.9542,84289.1157,-0.52718,9.04142,3.72506
15.9675,84289.1257,0.3207,7.99989,3.76598
15.9742,84289.1357,0.93401,7.04144,3.72933
15.9877,84289.1457,1.72264,5.98037,3.76476
15.9941,84289.1556,2.08672,5.4929,3.82402
16.0063,84289.1657,2.1814,4.88753,3.79286
16.0141,84289.1757,2.05923,4.44282,3.71162
16.0258,84289.1857,1.85031,3.79286,3.598
16.0342,84289.1957,1.71409,3.10503,3.46544
16.0467,84289.2057,1.76296,2.23516,3.19727
16.0551,84289.2157,1.89918,1.71775,3.0024
16.0666,84289.2257,2.06534,1.35184,2.78616
16.0742,84289.2357,2.1252,1.33902,2.56563
16.0857,84289.2457,2.05984,1.37811,2.27242
16.0941,84289.2557,1.99264,1.383,1.96027
16.1059,84289.2657,1.89185,1.46669,1.60963
16.1141,84289.2757,1.8045,1.39888,1.33596
16.1258,84289.2857,1.66461,1.12216,0.99999
16.1341,84289.2957,1.49662,0.77336,0.74464
16.147,84289.3057,1.2034,0.29077,0.48564
16.1542,84289.3157,0.88392,-0.17898,0.26939
16.1678,84289.3257,0.40684,-0.81612,0.01649
16.1752,84289.3367,0.13744,-1.41721,-0.04826
16.1869,84289.3467,0.01344,-2.06778,-0.06414
16.1952,84289.3567,0.03299,-2.59007,-0.1014
16.2067,84289.3667,0.06292,-3.05799,-0.18937
16.2151,84289.3767,-0.01527,-3.5082,-0.32254
16.2279,84289.3867,-0.26756,-4.04515,-0.5058
16.236,84289.3967,-0.49541,-4.51124,-0.6243
16.2477,84289.4077,-0.69028,-5.27238,-0.79535
16.2561,84289.4177,-0.67501,-5.89057,-0.88392
16.2686,84289.4277,-0.60659,-6.51732,-0.96883
16.2762,84289.4377,-0.6127,-6.76472,-0.94501
16.2887,84289.4477,-0.73304,-6.95898,-0.83261
16.2961,84289.4576,-0.90713,-7.19782,-0.71777
16.3077,84289.4677,-1.13132,-7.3817,-0.59254
16.316,84289.4775,-1.28648,-7.24792,-0.52351
16.3284,84289.4877,-1.53144,-6.75861,-0.50335
16.3362,84289.4977,-1.82404,-6.29374,-0.60476
16.3482,84289.5077,-2.24249,-5.9034,-0.77091
16.3672,84289.5177,-2.60473,-5.77207,-0.89125
16.3723,84289.5277,-3.07143,-5.80566,-1.04153
16.3769,84289.5376,-3.3567,-5.89851,-1.13377
16.3917,84289.5477,-3.48743,-5.96388,-1.1301
16.398,84289.5577,-3.39275,-6.11476,-1.07451
16.4098,84289.5677,-3.08792,-6.4599,-1.04091
16.4169,84289.5777,-2.56869,-6.86307,-1.10017
16.4292,84289.5877,-2.00547,-7.52281,-1.2596
16.4381,84289.5977,-1.73119,-7.96752,-1.39033
16.4511,84289.6077,-1.81671,-8.51057,-1.56748
16.4594,84289.6187,-2.06839,-9.22406,-1.69759
16.4721,84289.6287,-1.98898,-9.99192,-1.7825
16.4794,84289.6387,-1.40621,-10.53865,-1.96088
16.5037,84289.6487,-0.27611,-10.64188,-2.40131
16.5161,84289.6587,0.72693,-10.23016,-2.84541
16.5172,84289.6687,1.84787,-9.51239,-3.45383
16.519,84289.6787,2.27364,-9.00843,-3.84601
16.5316,84289.6887,2.40253,-8.35664,-4.09463
16.5388,84289.6997,2.26142,-7.83862,-4.11968
16.5511,84289.7097,2.10015,-7.41896,-4.19298
16.559,84289.7197,2.12825,-7.38658,-4.43794
16.5713,84289.7297,2.23943,-7.47149,-4.87165
16.5793,84289.7397,2.31701,-7.70973,-5.24428
16.5943,84289.7497,2.40742,-8.10496,-5.66272
16.6093,84289.7597,2.57235,-8.47576,-5.88446
16.6148,84289.7707,2.95109,-8.75553,-5.79955
16.6249,84289.7807,3.38725,-8.69628,-5.56071
16.6452,84289.7917,3.83623,-8.28211,-5.12272
16.6467,84289.8017,3.9016,-7.82274,-4.69206
16.6561,84289.8127,3.51675,-7.02129,-4.1606
16.6629,84289.8237,2.72385,-5.94128,-3.61754
16.675,84289.8337,1.80144,-4.50024,-3.11969
16.6831,84289.8437,1.10322,-3.16734,-2.81303
16.6949,84289.8537,0.26084,-1.35123,-2.49477
16.7041,84289.8637,-0.39584,-0.00244,-2.29319
16.7174,84289.8737,-0.8937,0.99693,-2.09221
16.7243,84289.8837,-1.00304,1.42942,-1.95721
16.7386,84289.8947,-0.72021,1.36956,-1.90895
16.7453,84289.9047,-0.08796,0.84299,-1.95355
16.7648,84289.9157,0.88637,0.06903,-2.04151
16.7833,84289.9267,1.86986,-0.62125,-2.21194
16.7863,84289.9377,2.71285,-0.99266,-2.37749
16.7958,84289.9477,3.04028,-0.98899,-2.50943
16.8025,84289.9576,3.2382,-0.88698,-2.70125
16.8079,84289.9687,3.29317,-0.54367,-2.85579
16.838,84289.9787,3.30356,0.04276,-2.96086
16.8441,84289.9887,3.32127,0.53206,-3.02989
16.8449,84289.9987,3.45017,0.97128,-3.13557
16.8493,84290.0087,3.68413,1.0739,-3.24431
16.86,84290.0187,4.08608,0.97066,-3.29195
16.8683,84290.0287,4.40739,0.80634,-3.24064
16.8794,84290.0387,4.76047,0.51129,-3.12763
16.8875,84290.0487,4.96389,0.40867,-2.97552
16.8998,84290.0587,5.09828,0.6353,-2.74828
16.9077,84290.0687,5.21435,1.02931,-2.54731
16.9233,84290.0787,5.45869,1.49845,-2.27731
16.9278,84290.0887,5.80811,2.01341,-1.98348
16.9451,84290.0987,6.22227,2.48928,-1.69882
16.9475,84290.1087,6.54176,2.81303,-1.43737
16.962,84290.1187,6.85941,3.03234,-1.113
16.9676,84290.1287,7.10009,3.14779,-0.9108
16.9804,84290.1387,7.45317,3.18383,-0.81734
16.9922,84290.1487,7.74699,3.18016,-0.78985
17.0002,84290.1587,7.97424,3.20582,-0.68173
17.01,84290.1687,7.99134,3.28279,-0.4667
17.0297,84290.1787,7.736,3.37198,-0.18021
17.0388,84290.1887,7.32427,3.4801,-0.04643
17.0401,84290.1987,6.74578,3.63587,-0.02627
17.0524,84290.2087,6.32856,3.81974,-0.07147
17.0631,84290.2187,5.95105,4.10807,-0.03726
17.0701,84290.2287,5.7067,4.31332,0.05559
17.0834,84290.2387,5.39699,4.46604,0.03421
17.0882,84290.2487,5.14287,4.59798,-0.1405
17.1001,84290.2587,4.77636,5.04453,-0.46731
17.1074,84290.2685,4.39456,5.53872,-0.87415
17.1223,84290.2787,4.1099,6.09399,-1.42332
17.1276,84290.2887,4.12945,6.43974,-1.78495
17.1452,84290.2987,4.21192,6.71952,-2.15574
17.1475,84290.3087,4.17832,6.88995,-2.45079
17.1595,84290.3187,3.90587,7.039,-2.63894
17.168,84290.3287,3.49843,7.28274,-2.63039
17.1798,84290.3387,3.03234,7.73661,-2.4343
17.1906,84290.3487,2.7886,7.98828,-2.26203
17.1991,84290.3587,2.6817,8.0512,-2.06167
17.2088,84290.3687,2.7776,7.80014,-1.95843
17.2214,84290.3787,3.06899,7.14957,-1.90162
17.2274,84290.3887,3.35732,6.47273,-1.85031
17.243,84290.3987,3.75316,5.43975,-1.68965
17.2485,84290.4087,3.94436,4.66212,-1.51372
17.2655,84290.4187,4.03171,3.70734,-1.31947
17.2705,84290.4285,3.99689,3.02012,-1.30481
17.2846,84290.4387,3.77698,2.12031,-1.55832
17.2961,84290.4487,3.43184,1.52411,-1.91812
17.3089,84290.4587,2.77577,0.68111,-2.48561
17.312,84290.4687,2.10626,-0.12095,-3.00973
17.3249,84290.4787,1.45936,-0.821,-3.48987
17.3279,84290.4887,0.85704,-1.30298,-3.89488
17.3408,84290.4987,0.15394,-1.61696,-4.24918
17.3479,84290.5087,-0.3207,-1.64506,-4.4019
17.3701,84290.5187,-0.93829,-1.5009,-4.51857
17.3837,84290.5287,-1.36956,-1.31275,-4.55461
17.3865,84290.5387,-1.8106,-0.98227,-4.50147
17.3887,84290.5487,-2.05129,-0.65546,-4.49841
17.4008,84290.5587,-2.09771,-0.46976,-4.66823
17.408,84290.5687,-1.9511,-0.48136,-4.93701
17.4204,84290.5787,-1.6133,-0.6298,-5.37378
17.4282,84290.5887,-1.20707,-0.80329,-5.78123
17.4404,84290.5987,-0.74526,-1.05924,-6.13003
17.4491,84290.6097,-0.43799,-1.2761,-6.25831
17.4637,84290.6197,-0.27855,-1.37933,-6.20517
17.4745,84290.6307,-0.31887,-1.25655,-6.00664
17.4903,84290.6407,-0.53573,-0.92241,-5.82216
17.4936,84290.6507,-0.81856,-0.66401,-5.75557
17.5042,84290.6617,-1.37261,-0.38912,-5.77207
17.5174,84290.6717,-1.70615,-0.32193,-5.80261
17.5238,84290.6817,-1.9621,-0.35675,-5.83315
17.5312,84290.6917,-2.07328,-0.49297,-5.92539
17.547,84290.7017,-2.03724,-0.76236,-6.09827
17.5539,84290.7117,-1.9395,-1.07085,-6.29619
17.5728,84290.7217,-1.80022,-1.36223,-6.50205
17.574,84290.7317,-1.72081,-1.44592,-6.59551
17.583,84290.7417,-1.70981,-1.21868,-6.64927
17.5946,84290.7517,-1.81977,-0.68111,-6.6566
17.6024,84290.7617,-2.09466,0.21991,-6.60162
17.6121,84290.7717,-2.41231,0.96089,-6.48678
17.6278,84290.7817,-2.95476,1.84726,-6.2516
17.6319,84290.7917,-3.3115,2.24859,-6.10193
17.6436,84290.8017,-3.67191,2.71713,-5.96938
17.6508,84290.8117,-3.91442,3.04761,-5.94677
17.665,84290.8217,-4.16977,3.19055,-6.02252
17.6719,84290.8317,-4.25651,3.07632,-5.98159
17.6887,84290.8417,-4.27911,2.77088,-5.73358
17.6932,84290.8517,-4.24979,2.48683,-5.37561
17.7058,84290.8627,-4.30355,2.24554,-4.94373
17.7132,84290.8727,-4.48436,2.17468,-4.6493
17.7276,84290.8837,-4.87959,2.36466,-4.36158
17.7343,84290.8937,-5.19785,2.37749,-4.1099
17.7472,84290.9037,-5.58575,2.07572,-3.76415
17.755,84290.9147,-5.8417,1.61574,-3.37625
17.7703,84290.9247,-5.88569,1.11483,-2.99568
17.7786,84290.9347,-5.81544,0.67317,-2.77944
17.7964,84290.9446,-5.59858,-0.04643,-2.60351
17.8001,84290.9547,-5.31697,-0.72876,-2.44835
17.8119,84290.9647,-5.12149,-1.39338,-2.18079
17.8221,84290.9747,-5.15265,-1.81305,-1.99997
17.8299,84290.9847,-5.52589,-2.2431,-1.95355
17.8373,84290.9947,-5.89241,-2.54792,-2.0861
17.8471,84291.0047,-6.32307,-2.89061,-2.29991
17.8558,84291.0147,-6.50694,-3.02806,-2.4624
17.8662,84291.0246,-6.50388,-3.05005,-2.50638
17.8734,84291.0347,-6.30413,-3.04944,-2.41536
17.8853,84291.0447,-5.74458,-2.97491,-2.19667
17.8935,84291.0547,-5.00726,-2.71163,-1.95904
17.9053,84291.0647,-4.02927,-2.23027,-1.7092
17.9134,84291.0747,-3.3005,-1.54427,-1.55587
17.9252,84291.0847,-2.51066,-0.79535,-1.42637
17.9362,84291.0947,-1.90651,-0.37446,-1.31641
17.9461,84291.1047,-1.15759,-0.14111,-1.15942
17.9549,84291.1147,-0.48442,-0.05253,-1.12216
17.9653,84291.1247,0.43555,0.11057,-1.11544
17.9737,84291.1347,1.13804,0.24679,-1.0232
17.9874,84291.1447,1.72569,0.33231,-0.80329
17.9937,84291.1547,1.92178,0.31337,-0.66096
18.0055,84291.1647,2.11726,0.35369,-0.49847
18.0148,84291.1747,2.29319,0.52962,-0.37935
18.0282,84291.1847,2.45751,0.76114,-0.2981
18.035,84291.1947,2.51249,0.76114,-0.27061
18.0505,84291.2047,2.60351,1.01404,-0.33659
18.0573,84291.2147,2.79104,1.24983,-0.3146
18.069,84291.2247,3.08426,1.10139,-0.3708
18.0776,84291.2347,3.29928,0.8094,-0.49297
18.0863,84291.2447,3.61999,0.49541,-0.58154
18.0944,84291.2547,3.97795,0.19303,-0.54917
18.1098,84291.2647,4.37685,-0.20464,-0.37446
18.116,84291.2747,4.75253,-0.4722,-0.15577
18.1284,84291.2847,5.24183,-0.69944,0.13622
18.134,84291.2947,5.67616,-0.76847,0.39095
18.146,84291.3047,6.31268,-0.20647,0.68539
18.1567,84291.3147,6.9657,-0.18937,0.90408
18.1665,84291.3247,7.21493,-0.32987,1.15392
18.175,84291.3357,7.26319,-0.08308,1.30175
18.194,84291.3457,7.00968,0.19242,1.42026
18.1962,84291.3557,6.64927,0.28588,1.53938
18.2092,84291.3657,6.25893,0.13378,1.72997
18.221,84291.3757,6.03657,-0.11484,1.8723
18.2273,84291.3857,5.94311,-0.47098,2.06167
18.2349,84291.3957,5.94066,-0.78618,2.28525
18.2484,84291.4057,5.78612,-0.87598,2.64138
18.2551,84291.4157,5.41593,-0.65118,2.93276
18.2689,84291.4257,4.63463,0.03238,3.52775
18.2754,84291.4356,3.79592,0.8265,4.1154
18.2917,84291.4457,2.98102,1.64811,4.63463
18.2992,84291.4567,2.45446,2.1142,4.91991
18.3168,84291.4677,2.03174,2.25654,5.06163
18.3183,84291.4777,1.87475,2.01219,5.0152
18.3321,84291.4877,1.91567,1.52961,4.86737
18.3383,84291.4977,2.05556,1.08795,4.73176
18.3512,84291.5077,2.36466,0.36896,4.50452
18.3564,84291.5177,2.72018,-0.38057,4.26323
18.371,84291.5277,3.17589,-1.1918,4.0482
18.3764,84291.5377,3.50148,-1.67683,4.00728
18.389,84291.5477,3.75316,-2.08916,4.07447
18.3965,84291.5577,3.76782,-2.18873,4.22474
18.4082,84291.5677,3.60777,-2.02807,4.38785
18.4169,84291.5777,3.4184,-1.77945,4.48864
18.4316,84291.5877,3.14657,-1.3885,4.56561
18.4367,84291.5977,3.00729,-1.10811,4.62914
18.4486,84291.6077,2.90528,-0.77397,4.7397
18.4599,84291.6177,2.82525,-0.51068,4.83683
18.4732,84291.6277,2.69697,-0.29993,4.89486
18.4771,84291.6377,2.53204,-0.19364,4.86921
18.4924,84291.6477,2.35305,-0.23274,4.76292
18.4975,84291.6577,2.30724,-0.40806,4.63647
18.5095,84291.6677,2.33228,-0.75869,4.48986
18.5178,84291.6777,2.34328,-1.0232,4.44832
18.5314,84291.6877,2.30968,-1.24494,4.55889
18.5381,84291.6977,2.21622,-1.29259,4.77513
18.5554,84291.7077,1.98959,-1.29687,5.01032
18.559,84291.7187,1.70859,-1.32436,5.16364
18.5768,84291.7297,1.29809,-1.10444,5.35973
18.5811,84291.7397,0.9279,-0.94257,5.48496
18.6039,84291.7507,0.56505,-0.85765,5.6786
18.6128,84291.7607,0.33842,-0.84116,5.92295
18.6142,84291.7707,0.22785,-0.98044,6.19662
18.6258,84291.7807,0.22907,-1.24189,6.36277
18.6334,84291.7907,0.31582,-1.6866,6.50388
18.6451,84291.8007,0.51801,-2.2376,6.54664
18.6589,84291.8107,0.84788,-2.89123,6.52832
18.6655,84291.8217,1.08673,-3.23331,6.46234
18.6778,84291.8317,1.15942,-3.29501,6.39576
18.6856,84291.8417,1.05985,-3.00912,6.39393
18.6926,84291.8517,0.75198,-2.51738,6.33834
18.7026,84291.8617,0.37813,-1.94561,6.19051
18.7139,84291.8717,-0.17959,-1.25227,5.926
18.7226,84291.8817,-0.5229,-0.81917,5.7855
18.7325,84291.8917,-0.99815,-0.45265,5.64317
18.7408,84291.9017,-1.30481,-0.42089,5.5601
18.7602,84291.9117,-1.48929,-0.57055,5.41471
18.7677,84291.9217,-1.529,-0.79657,5.26505
18.7782,84291.9317,-1.43737,-1.18813,5.09401
18.7901,84291.9417,-1.26449,-1.48868,4.92602
18.7998,84291.9517,-1.27365,-1.5009,4.6554
18.8063,84291.9617,-1.36956,-1.55893,4.41717
18.8207,84291.9717,-1.46791,-1.69393,4.16977
18.8243,84291.9817,-1.57237,-1.85886,3.97307
18.8452,84291.9917,-1.77029,-1.97493,3.7556
18.8467,84292.0017,-1.99814,-2.10871,3.56257
18.8564,84292.0117,-2.31335,-2.3726,3.32066
18.8619,84292.0217,-2.54914,-2.54975,3.1484
18.8757,84292.0317,-2.90039,-2.3555,3.01523
18.8809,84292.0417,-3.31028,-1.98898,2.93704
18.8951,84292.0517,-4.04332,-1.35856,2.77027
18.9041,84292.0627,-4.40984,-0.96272,2.56075
18.9148,84292.0727,-4.65113,-0.56933,2.21927
18.9254,84292.0827,-4.69267,-0.5229,1.9004
18.9363,84292.0927,-4.58271,-0.77702,1.39949
18.9432,84292.1037,-4.40251,-1.19424,0.88942
18.9576,84292.1147,-4.22658,-1.58825,0.41966
18.9638,84292.1247,-4.17404,-1.85642,0.18509
18.9767,84292.1347,-4.28766,-1.89918,-0.03787
18.9851,84292.1447,-4.51979,-1.5797,-0.12034
18.9965,84292.1547,-4.88814,-1.08612,-0.3146
19.0057,84292.1647,-5.00848,-0.76725,-0.50152
19.0173,84292.1747,-4.87593,-0.47403,-0.75931
19.0258,84292.1847,-4.59126,-0.38362,-0.99876
19.0383,84292.1947,-4.20092,-0.551,-1.3042
19.0791,84292.2047,-3.88816,-0.86743,-1.59314
19.0805,84292.2147,-3.46666,-1.37811,-1.96332
19.082,84292.2247,-3.18261,-1.85825,-2.18873
19.0859,84292.2347,-3.11236,-2.17102,-2.28769
19.0886,84292.2447,-3.21376,-2.17651,-2.23271
19.0984,84292.2547,-3.31272,-2.01769,-2.10687
19.1039,84292.2647,-3.33288,-1.68293,-1.87413
19.1164,84292.2747,-3.35793,-1.11483,-1.57786
19.131,84292.2847,-3.33899,-0.67073,-1.47585
19.1353,84292.2947,-3.23942,-0.29199,-1.54427
19.1434,84292.3047,-3.04333,0.07269,-1.74585
19.1551,84292.3147,-2.79043,0.44166,-2.08977
19.1648,84292.3247,-2.60351,0.63102,-2.43796
19.1852,84292.3347,-2.36283,0.54611,-2.75928
19.1898,84292.3457,-1.98287,0.16371,-2.90711
19.2014,84292.3557,-1.39949,-0.71899,-2.82586
19.2119,84292.3657,-1.06107,-1.67377,-2.64199
19.2241,84292.3757,-1.19791,-2.48378,-2.47828
19.2269,84292.3857,-1.53144,-3.036,-2.43369
19.2384,84292.3957,-1.92423,-3.33838,-2.48378
19.2525,84292.4057,-2.02991,-3.71223,-2.64871
19.2645,84292.4157,-2.02807,-4.22902,-2.92543
19.2661,84292.4257,-2.09099,-4.67678,-3.16428
19.2788,84292.4357,-2.30785,-4.96023,-3.46422
19.2881,84292.4457,-2.48378,-4.7678,-3.62487
19.2971,84292.4557,-2.62794,-4.27789,-3.76965
19.306,84292.4657,-2.65604,-3.96879,-3.82951
19.3169,84292.4757,-2.62855,-3.83135,-3.88083
19.3249,84292.4857,-2.59129,-3.86922,-3.96635
19.3369,84292.4957,-2.58335,-3.87472,-4.08058
19.3463,84292.5057,-2.62306,-3.6542,-4.11845
19.3601,84292.5157,-2.64749,-2.96147,-4.08608
19.3672,84292.5267,-2.62244,-2.11665,-3.98834
19.3884,84292.5377,-2.52593,-1.12644,-3.90893
19.4015,84292.5477,-2.41903,-0.5565,-3.90648
19.4074,84292.5577,-2.20278,-0.4215,-3.9187
19.4138,84292.5677,-1.87352,-0.60476,-3.85089
19.4268,84292.5787,-1.36467,-0.90897,-3.59861
19.4316,84292.5887,-1.03053,-0.99082,-3.31028
19.4462,84292.5987,-0.78741,-0.79779,-2.89489
19.449,84292.6087,-0.77702,-0.46976,-2.50027
19.4599,84292.6187,-0.89309,-0.02138,-1.96515
19.4679,84292.6287,-0.98288,0.26756,-1.51311
19.4852,84292.6387,-0.95845,0.42272,-1.01526
19.4884,84292.6487,-0.73304,0.39523,-0.65363
19.5001,84292.6587,-0.42638,0.26878,-0.28161
19.508,84292.6687,-0.31337,0.12889,-0.04826
19.5199,84292.6787,-0.32803,-0.02627,0.16188
19.5279,84292.6887,-0.40684,0.02871,0.32376
19.5399,84292.6987,-0.53512,0.33537,0.50396
19.5479,84292.7087,-0.66096,0.74159,0.67501
19.5618,84292.7187,-0.77213,1.0965,0.86621
19.5701,84292.7297,-0.81917,1.29809,1.08795
19.6048,84292.7397,-0.74953,1.26449,1.31458
19.6092,84292.7497,-0.66645,1.18019,1.56809
19.6104,84292.7597,-0.65607,1.15576,1.86986
19.6119,84292.7697,-0.77702,1.14293,2.14963
19.6215,84292.7797,-0.97372,1.17714,2.50027
19.6327,84292.7897,-1.1692,1.27793,2.80937
19.6468,84292.7997,-1.37628,1.27793,3.0586
19.6541,84292.8097,-1.58886,1.11605,3.27485
19.6634,84292.8197,-1.88024,1.01159,3.50576
19.6687,84292.8297,-2.21316,0.91996,3.61082
19.681,84292.8397,-2.51738,0.81184,3.60227
19.6915,84292.8497,-2.72079,0.82528,3.56073
19.7013,84292.8597,-2.86801,1.09406,3.53141
19.711,84292.8697,-2.96453,1.45386,3.56684
19.728,84292.8797,-3.00485,1.97371,3.65236
19.7348,84292.8897,-3.04516,2.39032,3.70551
19.7494,84292.9007,-3.17161,2.53815,3.62732
19.7542,84292.9107,-3.29379,2.27853,3.4801
19.7717,84292.9206,-3.35548,1.92178,3.36526
19.7757,84292.9317,-3.36098,1.72569,3.27241
19.7833,84292.9417,-3.33288,1.88452,3.15268
19.793,84292.9517,-3.317,2.10077,3.05494
19.8039,84292.9617,-3.3451,2.01647,2.87473
19.8172,84292.9727,-3.37014,1.7037,2.67987
19.8254,84292.9827,-3.47216,1.46852,2.58152
19.8315,84292.9927,-3.71895,1.50273,2.60473
19.8433,84293.0027,-4.09829,1.72386,2.7495
19.8516,84293.0127,-4.63891,2.31884,2.97369
19.8632,84293.0227,-5.55154,3.45261,3.1765
19.8744,84293.0327,-6.51427,4.38418,3.2608
19.887,84293.0427,-7.44767,5.00726,3.24308
19.8937,84293.0527,-7.97851,5.33957,3.17833
19.9129,84293.0627,-8.46965,5.64256,2.99996
19.9265,84293.0727,-8.6694,5.78428,2.78738
19.9274,84293.0827,-8.52951,5.87775,2.59007
19.9345,84293.0927,-8.19537,5.98526,2.46362
19.9446,84293.1027,-7.65597,6.2351,2.339
19.9522,84293.1127,-7.31328,6.65171,2.29136
19.9643,84293.1227,-7.16606,7.17095,2.21316
19.972,84293.1327,-7.11169,7.53502,1.94499
19.9844,84293.1427,-7.04083,8.18743,1.56259
19.9929,84293.1537,-7.03411,8.50508,1.16248
20.007,84293.1637,-7.00479,8.35664,0.69639
20.014,84293.1737,-6.90156,8.06403,0.35858
20.0271,84293.1837,-6.78366,7.83923,-0.07147
20.035,84293.1947,-6.70119,7.73111,-0.37446
20.0542,84293.2057,-6.57658,7.55824,-0.6744
20.0613,84293.2157,-6.43058,7.30228,-0.86804
20.0769,84293.2257,-6.23755,6.70913,-1.02137
20.0795,84293.2357,-5.98098,5.86492,-1.00732
20.0939,84293.2457,-5.58209,4.87287,-0.90286
20.0993,84293.2557,-5.2345,4.18382,-0.87965
20.116,84293.2657,-4.76169,3.29317,-0.84177
20.1188,84293.2757,-4.24918,2.38482,-0.66279
20.127,84293.2857,-3.6603,1.49051,-0.36652
20.1386,84293.2957,-3.23453,0.92913,-0.21869
20.147,84293.3057,-2.7098,0.25595,-0.24374
20.1552,84293.3157,-2.29197,-0.14966,-0.35919
20.1708,84293.3257,-1.99814,-0.39645,-0.40378
20.1783,84293.3357,-1.87169,-0.57849,-0.36346
20.1878,84293.3457,-1.84481,-0.57482,-0.28405
20.1958,84293.3557,-1.99814,-0.54917,-0.25229
20.2163,84293.3657,-2.21011,-0.67562,-0.29322
20.2183,84293.3757,-2.16002,-0.80512,-0.10201
20.2274,84293.3857,-1.77029,-1.0006,0.49358
20.2349,84293.3957,-1.11972,-1.42271,1.4056
20.247,84293.4057,-0.21197,-2.01769,2.61267
20.2549,84293.4157,0.5791,-2.46423,3.53874
20.267,84293.4257,1.14171,-3.01645,4.19726
20.2761,84293.4357,1.5235,-3.75377,4.54239
20.289,84293.4457,1.83321,-4.45565,4.85394
20.2971,84293.4567,1.96943,-4.80629,5.06529
20.3124,84293.4677,1.78984,-4.79407,5.20579
20.3194,84293.4787,1.40316,-4.58332,5.34629
20.3378,84293.4886,0.77336,-4.06531,5.5772
20.3422,84293.4987,0.21808,-3.55707,5.81238
20.3523,84293.5087,-0.53634,-2.96209,6.12759
20.36,84293.5187,-0.94318,-2.6817,6.29802
20.3753,84293.5287,-1.21318,-2.54486,6.48067
20.3822,84293.5387,-1.18691,-2.5864,6.68836
20.3978,84293.5486,-0.86987,-2.84663,6.98402
20.405,84293.5587,-0.55283,-3.1539,7.19111
20.4105,84293.5687,-0.03238,-3.53324,7.32855
20.4181,84293.5787,0.40561,-3.66336,7.37375
20.4344,84293.5887,0.64813,-3.75316,7.44339
20.4436,84293.5987,0.6127,-3.77331,7.4721
20.4543,84293.6087,0.50763,-3.75071,7.37314
20.4642,84293.6187,0.65851,-3.78614,7.16056
20.4699,84293.6287,1.05435,-3.78187,6.92477
20.4779,84293.6387,1.26816,-3.63954,6.78855
20.4918,84293.6487,1.06718,-3.34693,6.54848
20.4979,84293.6587,0.75625,-3.036,6.24976
20.5099,84293.6687,0.24679,-2.52715,5.81727
20.5178,84293.6787,-0.09957,-2.22294,5.50267
20.5325,84293.6887,-0.40684,-1.94927,5.16487
20.538,84293.6987,-0.48258,-1.85153,4.90769
20.5533,84293.7087,-0.43677,-1.79655,4.45809
20.5597,84293.7187,-0.32865,-1.67988,3.97918
20.5697,84293.7287,-0.16066,-1.46241,3.49415
20.5839,84293.7387,0.01649,-1.27488,3.03356
20.5937,84293.7487,0.22174,-0.99327,2.45995
20.6014,84293.7587,0.32803,-0.84055,2.01402
20.6119,84293.7687,0.42577,-0.83139,1.43004
20.6178,84293.7787,0.5284,-0.91508,0.74953
20.6336,84293.7887,0.67562,-1.03419,-0.08858
20.6384,84293.7987,0.75136,-0.97983,-0.84422
20.6552,84293.8087,0.67928,-0.68295,-1.62734
20.6597,84293.8187,0.46304,-0.27978,-2.19056
20.6689,84293.8287,0.14111,-0.00061,-2.88451
20.6774,84293.8387,-0.06475,0.04032,-3.51797
20.6924,84293.8487,-0.10079,-0.09468,-4.27239
20.7015,84293.8587,0.00855,-0.35736,-4.91013
20.7162,84293.8687,0.22419,-0.96028,-5.88141
20.7197,84293.8786,0.40684,-1.71103,-6.63827
20.731,84293.8887,0.52962,-2.59618,-7.67491
20.738,84293.8987,0.5229,-2.92788,-8.20209
20.7501,84293.9087,0.36591,-2.84724,-8.78302
20.7579,84293.9187,0.02077,-2.25593,-8.99499
20.7765,84293.9287,-0.66462,-1.31214,-8.91191
20.7801,84293.9387,-1.42026,-0.87354,-8.75553
20.7894,84293.9487,-2.07083,-0.38423,-8.68711
20.7974,84293.9587,-2.46973,-0.39095,-8.83861
20.8093,84293.9687,-2.69514,-0.79046,-9.30042
20.8176,84293.9787,-2.66826,-1.10261,-9.77568
20.8292,84293.9887,-2.40864,-1.23578,-9.9064
20.8391,84293.9987,-2.01402,-1.33596,-9.56798
20.8547,84294.0097,-1.43004,-1.20402,-8.79768
20.8612,84294.0197,-0.98227,-0.80146,-8.14955
20.8736,84294.0297,-0.6524,-0.45937,-7.65903
20.8803,84294.0397,-0.54184,-0.62736,-7.50876
20.8944,84294.0497,-0.41111,-0.83689,-7.7586
20.9003,84294.0597,-0.18692,-1.07146,-8.00539
20.9133,84294.0697,0.21564,-1.61818,-8.34198
20.9214,84294.0807,0.70433,-2.32556,-8.557
20.9341,84294.0907,0.92852,-2.60717,-8.23996
20.9418,84294.1007,0.83444,-2.46606,-7.57106
20.9599,84294.1107,0.49847,-2.10932,-6.84963
20.9769,84294.1206,0.00672,-1.38911,-6.18012
20.9784,84294.1307,-0.58338,-0.58765,-5.49657
20.9836,84294.1407,-0.97128,-0.57299,-4.8802
20.9922,84294.1507,-1.06657,-1.08551,-4.02682
20.9997,84294.1607,-0.85643,-1.64567,-3.26019
21.015,84294.1707,-0.3824,-2.43552,-2.26814
21.0201,84294.1807,-0.16493,-2.70674,-1.73425
21.0335,84294.1907,-0.12462,-2.60351,-1.14965
21.0411,84294.2007,-0.28344,-2.14841,-0.68845
21.0567,84294.2107,-0.70677,-1.42209,-0.07208
21.0612,84294.2207,-1.10628,-0.82955,0.57238
21.0749,84294.2307,-1.38056,-0.15638,1.35246
21.0854,84294.2407,-1.4844,0.29199,1.85459
21.0944,84294.2507,-1.53022,0.78191,2.20522
21.1009,84294.2607,-1.61574,1.44347,2.37321
21.1144,84294.2707,-1.8271,1.94744,2.48867
21.1198,84294.2807,-1.9847,1.98653,2.60229
21.1365,84294.2907,-1.99203,1.80694,2.82892
21.1472,84294.3007,-1.80755,1.43248,3.14718
21.1535,84294.3107,-1.48013,0.83017,3.52347
21.1601,84294.3207,-1.22967,0.4893,3.72261
21.1757,84294.3307,-1.17042,0.28527,3.68902
21.1847,84294.3417,-1.31031,0.20586,3.42695
21.1938,84294.3517,-1.43248,-0.15577,3.04516
21.2006,84294.3617,-1.45203,-0.75869,2.77822
21.2136,84294.3717,-1.32741,-1.43309,2.56808
21.2206,84294.3817,-1.13438,-1.72569,2.46667
21.2332,84294.3917,-0.94134,-1.45142,2.82892
21.2404,84294.4017,-0.87904,-1.11422,3.25652
21.2528,84294.4117,-0.84727,-0.67562,3.65297
21.2653,84294.4217,-0.87232,-0.43799,3.7275
21.2724,84294.4317,-0.90042,-0.47159,3.56562
21.2846,84294.4416,-0.79107,-0.7703,3.25897
21.294,84294.4517,-0.50091,-1.26755,2.60168
21.3004,84294.4617,-0.10385,-1.46669,1.89918
21.3122,84294.4717,0.44593,-1.11849,1.10506
21.3206,84294.4817,0.75381,-0.69089,0.70921
21.3342,84294.4917,0.7532,-0.31093,0.60842
21.3404,84294.5017,0.58399,-0.07636,0.69516
21.3523,84294.5117,0.29016,0.29627,0.82406
21.3605,84294.5217,0.01038,0.62186,0.93035
21.3735,84294.5317,-0.29199,0.86193,0.99205
21.3818,84294.5417,-0.43188,0.79657,1.01404
21.3936,84294.5517,-0.36224,0.4948,1.0403
21.4016,84294.5617,-0.09163,0.08491,0.94318
21.4223,84294.5717,0.34392,-0.14722,0.67623
21.4247,84294.5827,0.56077,-0.15333,0.44349
21.4367,84294.5927,0.6182,-0.17287,0.27855
21.4501,84294.6027,0.60048,-0.18326,0.23396
21.4555,84294.6127,0.54,-0.13561,0.24557
21.4691,84294.6227,0.47586,-0.13806,0.2584
21.4835,84294.6327,0.45815,-0.25656,0.2981
21.4944,84294.6427,0.4667,-0.24007,0.35675
21.4961,84294.6526,0.4612,-0.26389,0.41966
21.502,84294.6627,0.45693,-0.36469,0.4612
21.5137,84294.6727,0.48869,-0.43738,0.51313
21.5224,84294.6827,0.52351,-0.46365,0.53267
21.5345,84294.6927,0.5565,-0.51924,0.52901
21.5423,84294.7027,0.5962,-0.59193,0.50885
21.5545,84294.7127,0.62919,-0.61209,0.47586
21.5623,84294.7227,0.63835,-0.62553,0.39279
21.5773,84294.7327,0.62247,-0.60659,0.25595
21.5839,84294.7427,0.60048,-0.53084,0.19059
21.5955,84294.7527,0.55222,-0.41356,0.16554
21.6029,84294.7627,0.47281,-0.34758,0.14905
21.6142,84294.7727,0.34758,-0.23518,0.16677
21.6249,84294.7827,0.2529,-0.16066,0.20708
21.6339,84294.7927,0.16188,-0.07575,0.27672
21.6429,84294.8027,0.08186,0.03971,0.3317
21.6693,84294.8127,-0.01038,0.11545,0.35858
21.6766,84294.8227,-0.08796,0.12889,0.35858
21.6781,84294.8337,-0.15211,0.07453,0.35064
21.6866,84294.8437,-0.17593,-0.00244,0.33353
21.6955,84294.8547,-0.13928,-0.12034,0.28588
21.709,84294.8647,-0.1124,-0.05986,0.22297
21.7165,84294.8747,-0.13561,0.04826,0.13439
21.7251,84294.8847,-0.18876,0.1069,0.09407
21.7369,84294.8947,-0.22663,0.15882,0.11606
21.7469,84294.9047,-0.21564,0.18387,0.1631
21.7559,84294.9147,-0.21502,0.15394,0.20892
21.7699,84294.9247,-0.2193,0.10934,0.23579
21.7758,84294.9347,-0.23335,0.10568,0.23824
21.7833,84294.9447,-0.26695,0.17349,0.21075
21.7957,84294.9547,-0.33353,0.16921,0.16921
21.8035,84294.9647,-0.36163,0.12278,0.14478
21.8159,84294.9747,-0.35064,0.13867,0.10873
21.8233,84294.9847,-0.33781,0.21869,0.07697
21.8382,84294.9947,-0.45265,0.44838,0.04032
21.8447,84295.0047,-0.65485,0.59498,0.04032
21.8591,84295.0147,-0.83566,0.71838,0.06842
21.8647,84295.0247,-0.93585,0.821,0.07025
21.8778,84295.0347,-1.0287,0.87659,0.02688
21.8835,84295.0447,-1.08184,0.85032,0.02627
21.8993,84295.0547,-1.05313,0.82894,0.11301
21.9052,84295.0647,-0.92363,0.77213,0.23274
21.9153,84295.0747,-0.67928,0.63041,0.36408
21.9233,84295.0847,-0.47525,0.57605,0.45693
21.9346,84295.0947,-0.33964,0.58093,0.50519
21.9441,84295.1047,-0.3372,0.67806,0.52779
21.9547,84295.1147,-0.40317,0.75564,0.53756
21.9644,84295.1247,-0.44104,0.78435,0.56261
21.9772,84295.1346,-0.43799,0.83261,0.57055
21.9854,84295.1446,-0.42028,0.8094,0.55894
21.9969,84295.1547,-0.39951,0.75747,0.53267
22.0034,84295.1647,-0.38607,0.77213,0.49786
22.0147,84295.1747,-0.38179,0.85704,0.45571
22.0232,84295.1847,-0.37935,0.89186,0.42699
22.0348,84295.1946,-0.33903,0.8546,0.43249
22.0433,84295.2046,-0.23763,0.76114,0.46426
22.0551,84295.2147,-0.06536,0.61575,0.50152
22.0635,84295.2247,0.11484,0.50885,0.52351
22.0752,84295.2347,0.27611,0.50763,0.52351
22.0837,84295.2447,0.35125,0.59926,0.53695
22.0959,84295.2546,0.44043,0.78313,0.5901
22.1034,84295.2646,0.53145,0.91447,0.63713
22.1152,84295.2746,0.65424,0.98899,0.65668
22.1234,84295.2847,0.76236,1.07634,0.58338
22.1362,84295.2947,0.83505,1.15942,0.45082
22.1437,84295.3047,0.86743,1.30114,0.28161
22.156,84295.3147,0.91447,1.35918,0.07819
22.1646,84295.3257,0.98838,1.28465,-0.07819
22.1783,84295.3357,1.12582,1.08795,-0.1576
22.186,84295.3456,1.26022,0.8491,-0.22052
22.1985,84295.3556,1.4111,0.56933,-0.31704
22.2071,84295.3667,1.51739,0.33414,-0.4215
22.221,84295.3777,1.58764,0.06414,-0.57666
22.2286,84295.3887,1.5913,-0.11484,-0.72754
22.2458,84295.3987,1.57786,-0.25901,-0.85704
22.257,84295.4087,1.57542,-0.39034,-0.94501
22.2723,84295.4186,1.54671,-0.45204,-1.05863
22.2737,84295.4286,1.47035,-0.45754,-1.19424
22.2807,84295.4387,1.33413,-0.4893,-1.372
22.2916,84295.4487,1.20951,-0.53878,-1.47035
22.3029,84295.4587,1.03053,-0.51801,-1.53694
22.3089,84295.4697,0.83505,-0.48319,-1.52228
22.321,84295.4797,0.66706,-0.46059,-1.46547
22.3288,84295.4897,0.562,-0.49969,-1.40682
22.3415,84295.4997,0.46548,-0.66157,-1.34146
22.3498,84295.5107,0.41661,-0.91202,-1.29626
22.3647,84295.5207,0.38851,-1.11911,-1.2425
22.3712,84295.5306,0.3653,-1.25166,-1.19058
22.3851,84295.5406,0.32193,-1.4508,-1.11422
22.3915,84295.5506,0.28833,-1.57542,-1.00671
22.4043,84295.5607,0.26817,-1.64628,-0.83505
22.4114,84295.5707,0.2755,-1.65972,-0.67928
22.4305,84295.5817,0.22541,-1.63529,-0.45632
22.4361,84295.5917,0.16616,-1.63101,-0.31276
22.4514,84295.6016,0.10201,-1.60719,-0.16982
22.4557,84295.6117,0.0336,-1.52594,-0.01649
22.4667,84295.6216,-0.11057,-1.41354,0.13989
22.4745,84295.6316,-0.28772,-1.31519,0.22846
22.4998,84295.6417,-0.51862,-1.20157,0.26756
22.5157,84295.6517,-0.66218,-1.12216,0.28283
22.5186,84295.6627,-0.81489,-0.97555,0.33598
22.5206,84295.6727,-0.9389,-0.86376,0.39462
22.5392,84295.6827,-1.09039,-0.77519,0.44776
22.55,84295.6927,-1.19546,-0.73304,0.49358
22.5513,84295.7025,-1.23639,-0.77702,0.54306
22.5533,84295.7126,-1.18935,-0.94318,0.53451
22.5722,84295.7226,-1.1301,-1.19791,0.51007
22.5738,84295.7327,-1.07207,-1.4166,0.51374
22.5885,84295.7427,-0.94501,-1.56198,0.65973
22.5987,84295.7527,-0.76053,-1.63895,0.85521
22.6089,84295.7627,-0.45021,-1.86803,0.97616
22.6124,84295.7726,-0.16982,-2.0971,0.94806
22.6252,84295.7826,0.16249,-2.40803,0.74098
22.6323,84295.7936,0.45754,-2.66093,0.50824
22.6451,84295.8036,0.72143,-2.76661,0.40745
22.6562,84295.8137,0.92241,-2.74645,0.42028
22.6655,84295.8237,1.1582,-2.6591,0.43677
22.6777,84295.8337,1.27915,-2.59984,0.41417
22.6854,84295.8437,1.34513,-2.46851,0.34636
22.6925,84295.8536,1.34024,-2.31823,0.27489
22.705,84295.8636,1.26205,-2.11787,0.19975
22.7136,84295.8747,1.18325,-2.08,0.19609
22.7255,84295.8846,1.11361,-2.11787,0.1967
22.7336,84295.8946,1.11666,-2.14475,0.17715
22.7479,84295.9047,1.1582,-2.11359,0.12706
22.7544,84295.9147,1.18019,-2.06106,0.03971
22.7677,84295.9247,1.17775,-1.94194,-0.08308
22.79,84295.9347,1.14171,-1.75441,-0.15821
22.7968,84295.9446,1.07451,-1.43004,-0.20708
22.7989,84295.9546,0.99693,-1.17286,-0.24312
22.8111,84295.9647,0.92485,-0.8827,-0.24984
22.8208,84295.9747,0.86926,-0.58826,-0.26023
22.8314,84295.9847,0.84055,-0.29871,-0.26023
22.8376,84295.9947,0.85094,-0.05681,-0.2193
22.8529,84296.0046,0.91996,0.1912,-0.13867
22.8557,84296.0146,0.98716,0.40989,-0.06292
22.8663,84296.0246,1.02686,0.61453,0.03482
22.8735,84296.0347,1.01098,0.74159,0.11668
22.8864,84296.0447,0.92118,0.92424,0.22602
22.8935,84296.0547,0.75808,1.1527,0.33903
22.9053,84296.0647,0.52473,1.37261,0.48136
22.9135,84296.0746,0.32926,1.53449,0.56933
22.9253,84296.0846,0.08308,1.75196,0.66157
22.934,84296.0947,-0.11912,1.90407,0.71716
22.947,84296.1047,-0.30543,1.98837,0.76786
22.9537,84296.1147,-0.45021,2.01586,0.83505
22.9722,84296.1247,-0.65301,2.07694,0.88942
22.9739,84296.1346,-0.84788,2.10321,0.91263
22.9899,84296.1446,-1.07573,2.21072,0.92485
22.9949,84296.1545,-1.27549,2.38299,0.96395
23.0069,84296.1647,-1.50823,2.61756,1.01831
23.0387,84296.1747,-1.77579,2.89123,1.06901
23.0398,84296.1847,-1.98653,3.03417,1.2254
23.0471,84296.1946,-2.02624,3.07082,1.42332
23.0489,84296.2046,-1.97248,3.13557,1.53877
23.0756,84296.2147,-1.93156,3.21987,1.52594
23.0772,84296.2247,-1.97187,3.26996,1.38056
23.0787,84296.2356,-2.04823,3.25469,1.19119
23.0875,84296.2457,-2.07144,3.08548,1.13743
23.0956,84296.2557,-1.91384,2.72263,1.19058
23.112,84296.2657,-1.36101,2.18629,1.37445
23.1235,84296.2767,-0.44899,1.65483,1.57909
23.1328,84296.2867,0.51862,1.37872,1.59558
23.1442,84296.2967,1.35734,1.37506,1.3549
23.1515,84296.3066,1.8607,1.57481,0.86743
23.1652,84296.3166,1.86375,1.77456,0.48381
23.1676,84296.3267,1.58092,1.91384,0.23274
23.1759,84296.3367,1.3268,1.99692,0.16799
23.1889,84296.3467,1.08734,2.01036,0.16005
23.1959,84296.3567,0.98044,1.96393,0.08613
23.2078,84296.3667,0.9444,1.79472,-0.12767
23.2158,84296.3766,0.95417,1.61452,-0.34392
23.228,84296.3866,0.97005,1.3885,-0.59193
23.2359,84296.3967,0.99693,1.18141,-0.83383
23.2503,84296.4067,1.06779,0.98044,-1.10017
23.2569,84296.4167,1.15148,0.86987,-1.24555
23.277,84296.4267,1.26388,0.68295,-1.37261
23.2805,84296.4366,1.37078,0.45448,-1.45752
23.2882,84296.4466,1.51922,0.1631,-1.53083
23.2972,84296.4567,1.65422,-0.04154,-1.59925
23.3155,84296.4667,1.74402,-0.16127,-1.6866
23.3204,84296.4767,1.73302,-0.22113,-1.77945
23.3291,84296.4867,1.59802,-0.23763,-1.86803
23.3363,84296.4966,1.45019,-0.2419,-1.88269
23.3473,84296.5066,1.25166,-0.24129,-1.86619
23.3554,84296.5167,1.03481,-0.25412,-1.81671
23.3684,84296.5267,0.81123,-0.32498,-1.70309
23.3754,84296.5367,0.61148,-0.39889,-1.55038
23.3893,84296.5467,0.38362,-0.5003,-1.372
23.3968,84296.5566,0.22602,-0.61209,-1.22295
23.4093,84296.5666,0.10201,-0.71532,-0.97311
23.4179,84296.5776,0.12156,-0.69333,-0.64446
23.4328,84296.5876,0.23091,-0.73243,-0.23091
23.4391,84296.5976,0.3262,-0.81673,0.11179
23.4511,84296.6077,0.34575,-0.86621,0.46059
23.4593,84296.6186,0.17471,-0.73731,0.62553
23.473,84296.6287,-0.08796,-0.57055,0.71593
23.4792,84296.6387,-0.36774,-0.48869,0.78496
23.4928,84296.6487,-0.62064,-0.51252,0.84238
23.4989,84296.6587,-0.76908,-0.53451,0.84971
23.5127,84296.6697,-0.86926,-0.56505,0.81306
23.5218,84296.6795,-0.95784,-0.51435,0.74403
23.5359,84296.6897,-1.0965,-0.4331,0.6072
23.5416,84296.6996,-1.28526,-0.37385,0.47647
23.5605,84296.7096,-1.48685,-0.46426,0.30421
23.5637,84296.7206,-1.63345,-0.64263,0.14294
23.5761,84296.7306,-1.57603,-0.88881,0.02199
23.5847,84296.7407,-1.38972,-1.05985,0.00122
23.5945,84296.7507,-1.22173,-1.13804,0
23.6002,84296.7607,-1.13743,-1.22051,-0.01649
23.616,84296.7707,-1.14232,-1.35551,-0.10812
23.6234,84296.7806,-1.21073,-1.529,-0.24557
23.6334,84296.7906,-1.25044,-1.81732,-0.41539
23.6419,84296.8017,-1.10994,-2.24065,-0.54856
23.6544,84296.8116,-0.7532,-2.66643,-0.68417
23.6625,84296.8216,-0.33964,-2.99507,-0.7422
23.6741,84296.8317,0.13622,-3.19238,-0.72204
23.6818,84296.8417,0.46487,-3.23575,-0.6634
23.6943,84296.8517,0.7251,-3.11663,-0.60109
23.7021,84296.8617,0.7984,-2.91383,-0.59132
23.7154,84296.8727,0.77091,-2.66215,-0.64263
23.723,84296.8827,0.73609,-2.47767,-0.70494
23.7366,84296.8937,0.76786,-2.35855,-0.8094
23.7452,84296.9047,0.83383,-2.30418,-0.92668
23.759,84296.9145,0.99632,-2.23699,-1.03297
23.7662,84296.9246,1.24617,-2.09466,-1.07329
23.7787,84296.9347,1.53877,-1.88269,-1.05435
23.7864,84296.9446,1.71836,-1.71348,-1.01892
23.7981,84296.9546,1.89246,-1.56076,-0.96028
23.804,84296.9647,1.95599,-1.47707,-0.93218
23.8228,84296.9747,1.9621,-1.32436,-0.91385
23.8261,84296.9847,1.89002,-1.19058,-0.92729
23.8384,84296.9947,1.81427,-1.01281,-0.92485
23.8451,84297.0046,1.80511,-0.74648,-0.83872
23.8562,84297.0146,1.85275,-0.41844,-0.65057
23.8639,84297.0246,1.92117,-0.22358,-0.44593
23.8757,84297.0347,2.02624,-0.03971,-0.18937
23.884,84297.0447,2.09649,0.09102,0.01161
23.8959,84297.0547,2.13009,0.33231,0.30482
23.904,84297.0647,2.04884,0.60231,0.60048
23.9184,84297.0746,1.86619,0.94257,0.91691
23.926,84297.0857,1.63712,1.23639,1.15881
23.9394,84297.0956,1.39461,1.44286,1.37017
23.9463,84297.1056,1.20768,1.56137,1.50517
23.9568,84297.1157,1.02809,1.65056,1.60291
23.9649,84297.1257,0.88087,1.66949,1.62307
23.9775,84297.1357,0.72876,1.62918,1.59008
23.9859,84297.1467,0.60292,1.56992,1.51922
23.9979,84297.1567,0.46059,1.56565,1.42881
24.0071,84297.1667,0.28527,1.70615,1.33474
24.02,84297.1767,-0.04826,1.94438,1.22356
24.031,84297.1877,-0.47709,2.23882,1.10628
24.0415,84297.1977,-0.89064,2.59434,1.00671
24.0468,84297.2076,-1.30603,3.0415,0.87415
24.0599,84297.2176,-1.85703,3.63343,0.6182
24.0717,84297.2277,-2.22172,3.93825,0.37568
24.0801,84297.2377,-2.54609,4.19542,0.08919
24.0879,84297.2486,-2.63161,4.31393,0.0733
24.1031,84297.2587,-2.55281,4.20153,0.33475
24.1152,84297.2687,-2.3616,3.82402,0.67012
24.1261,84297.2787,-2.0238,3.27179,0.96089
24.1337,84297.2887,-1.57542,2.77027,1.0006
24.1444,84297.2986,-1.13193,2.39887,0.75808
24.1516,84297.3086,-0.91508,2.20217,0.36713
24.1627,84297.3186,-0.86987,2.06778,-0.0281
24.1687,84297.3296,-0.86926,2.05923,-0.24618
24.1814,84297.3397,-0.79657,2.17835,-0.34636
24.1899,84297.3497,-0.70433,2.31335,-0.3543
24.201,84297.3597,-0.61148,2.5131,-0.35064
24.2088,84297.3697,-0.55467,2.65543,-0.35247
24.2239,84297.3796,-0.46976,2.58763,-0.36652
24.2291,84297.3896,-0.30299,2.32312,-0.41478
24.2429,84297.3996,-0.01222,1.76174,-0.58521
24.2511,84297.4097,0.26878,1.17714,-0.77519
24.2613,84297.4197,0.66279,0.44104,-1.04275
24.2688,84297.4297,0.95784,-0.02382,-1.26266
24.2806,84297.4396,1.07085,-0.23335,-1.49112
24.2888,84297.4496,0.978,-0.2193,-1.61818
24.3033,84297.4596,0.72876,-0.03054,-1.70798
24.3089,84297.4697,0.50396,0.21808,-1.77823
24.3246,84297.4797,0.32559,0.42089,-1.95171
24.3292,84297.4897,0.30177,0.42394,-2.11237
24.3414,84297.4997,0.38057,0.3146,-2.2993
24.3488,84297.5096,0.49297,0.09285,-2.39032
24.3703,84297.5196,0.64141,-0.35003,-2.39887
24.3763,84297.5297,0.71471,-0.69578,-2.33961
24.3867,84297.5397,0.686,-0.93646,-2.21805
24.3899,84297.5497,0.59193,-1.102,-2.14047
24.4023,84297.5597,0.41356,-1.19424,-2.04212
24.4087,84297.5696,0.21991,-1.18019,-1.92545
24.4209,84297.5796,-0.04581,-1.16492,-1.78922
24.4287,84297.5897,-0.24496,-1.15637,-1.6866
24.4415,84297.5997,-0.4441,-1.16797,-1.50639
24.4526,84297.6097,-0.53267,-1.20524,-1.29503
24.4615,84297.6197,-0.54,-1.2932,-1.04519
24.4698,84297.6307,-0.43921,-1.33169,-0.79596
24.4818,84297.6407,-0.26084,-1.25594,-0.42333
24.4899,84297.6507,-0.16738,-1.12216,-0.03726
24.5019,84297.6606,-0.21441,-1.05069,0.29688
24.5099,84297.6706,-0.32437,-0.99632,0.46548
24.524,84297.6807,-0.49663,-0.92424,0.5339
24.5311,84297.6907,-0.63713,-0.86987,0.45632
24.5441,84297.7007,-0.73731,-0.81612,0.37141
24.5529,84297.7107,-0.75808,-0.84177,0.35675
24.5717,84297.7206,-0.72815,-0.93707,0.36041
24.5744,84297.7306,-0.70738,-1.04824,0.37385
24.5826,84297.7407,-0.74526,-1.15637,0.36346
24.5946,84297.7507,-0.80879,-1.26144,0.3543
24.6026,84297.7607,-0.83383,-1.35246,0.33353
24.6098,84297.7707,-0.76969,-1.4392,0.2926
24.6243,84297.7806,-0.59071,-1.53327,0.23335
24.6307,84297.7906,-0.47281,-1.59375,0.18326
24.6457,84297.8007,-0.41844,-1.68293,0.1124
24.6505,84297.8116,-0.40378,-1.7764,0.04337
24.663,84297.8216,-0.41661,-1.86925,-0.0226
24.6707,84297.8317,-0.42089,-1.97676,-0.12095
24.6828,84297.8417,-0.42516,-2.09893,-0.26756
24.6909,84297.8517,-0.3769,-2.21805,-0.4215
24.704,84297.8617,-0.21747,-2.36955,-0.53206
24.712,84297.8727,0.03665,-2.44285,-0.57788
24.7278,84297.8827,0.32132,-2.5241,-0.58154
24.7345,84297.8937,0.66829,-2.631,-0.54489
24.7477,84297.9037,0.89553,-2.5522,-0.54611
24.7543,84297.9147,0.94806,-2.34511,-0.57727
24.7678,84297.9247,0.88514,-2.17163,-0.64935
24.7803,84297.9347,0.82528,-2.04334,-0.76236
24.7914,84297.9446,0.82161,-1.85092,-0.956
24.7974,84297.9546,0.85399,-1.6921,-1.11544
24.807,84297.9655,0.89431,-1.54549,-1.26877
24.815,84297.9756,0.96089,-1.4618,-1.32069
24.827,84297.9856,1.05008,-1.34329,-1.32436
24.8349,84297.9957,1.1301,-1.24861,-1.30298
24.847,84298.0057,1.23089,-1.18202,-1.25838
24.8549,84298.0157,1.33718,-1.11239,-1.18141
24.8672,84298.0257,1.47035,-0.99571,-1.01343
24.8749,84298.0356,1.57053,-0.83383,-0.83078
24.892,84298.0456,1.67683,-0.63713,-0.52962
24.9004,84298.0557,1.69271,-0.54367,-0.34086
24.9071,84298.0657,1.60841,-0.40928,-0.15699
24.9145,84298.0757,1.54121,-0.28527,0.04948
24.9262,84298.0857,1.55404,-0.18631,0.3708
24.9343,84298.0956,1.63773,-0.12889,0.79229
24.9462,84298.1056,1.78984,-0.12889,1.27549
24.9544,84298.1157,1.96027,-0.17165,1.66216
24.9661,84298.1257,2.13681,-0.22602,2.07267
24.9744,84298.1357,2.26448,-0.20097,2.3616
24.9862,84298.1457,2.31884,-0.12401,2.67803
24.996,84298.1556,2.28891,-0.011,2.93032
25.009,84298.1656,2.21316,0.15577,3.15206
25.0172,84298.1767,2.15758,0.33048,3.23331
25.0303,84298.1866,2.0971,0.45509,3.23453
25.037,84298.1966,1.97676,0.57299,3.22964
25.0528,84298.2067,1.72081,0.83627,3.26446
25.0628,84298.2167,1.4111,1.17164,3.24797
25.0767,84298.2267,0.98349,1.72386,3.07632
25.0792,84298.2367,0.63469,2.24004,2.87229
25.0885,84298.2466,0.32498,2.69269,2.60839
25.0999,84298.2566,0.14294,3.08853,2.38909
25.1079,84298.2667,-0.04704,3.4856,2.09099
25.1177,84298.2767,-0.23763,3.82035,1.81671
25.1277,84298.2865,-0.48319,4.12029,1.50945
25.1359,84298.2967,-0.70005,4.21253,1.29259
25.1504,84298.3066,-0.97189,4.11051,1.08673
25.1575,84298.3166,-1.09711,3.88083,0.99388
25.1711,84298.3267,-1.01404,3.53019,0.91874
25.1829,84298.3367,-0.70127,3.19544,0.82833
25.1923,84298.3467,-0.19426,2.86251,0.68356
25.1983,84298.3567,0.31521,2.7605,0.42944
25.2108,84298.3667,0.56505,2.82647,-0.00122
25.2185,84298.3766,0.44715,3.01584,-0.40806
25.2279,84298.3866,0.1741,3.28462,-0.71593
25.2359,84298.3967,-0.10079,3.38358,-0.8717
25.2483,84298.4067,-0.28405,3.15634,-0.94379
25.2588,84298.4167,-0.32681,2.7269,-1.03297
25.2727,84298.4267,-0.25962,2.25898,-1.23761
25.2772,84298.4366,-0.18815,2.02074,-1.47463
25.2913,84298.4466,-0.22785,1.89063,-1.80205
25.3036,84298.4567,-0.42883,1.85642,-2.00181
25.3134,84298.4667,-0.71471,1.81183,-2.0745
25.319,84298.4767,-0.82284,1.71592,-2.04151
25.3287,84298.4867,-0.76114,1.52594,-2.00669
25.3362,84298.4966,-0.56688,1.20463,-2.05739
25.3489,84298.5066,-0.24862,0.67256,-2.25898
25.3559,84298.5167,-0.00794,0.24801,-2.49172
25.369,84298.5267,0.27611,-0.17471,-2.6536
25.3774,84298.5367,0.45571,-0.4667,-2.71896
25.388,84298.5467,0.5846,-0.67928,-2.70002
25.3957,84298.5566,0.66401,-0.74281,-2.60534
25.4097,84298.5666,0.71716,-0.72143,-2.4514
25.4166,84298.5767,0.72265,-0.65546,-2.25898
25.4294,84298.5867,0.66096,-0.50091,-1.99692
25.4355,84298.5966,0.56994,-0.41417,-1.84848
25.4476,84298.6067,0.37996,-0.37874,-1.72203
25.4556,84298.6166,0.22358,-0.3934,-1.67011
25.4682,84298.6266,0.02138,-0.41417,-1.6078
25.4771,84298.6367,-0.13989,-0.45265,-1.51922
25.4914,84298.6476,-0.25901,-0.52962,-1.42576
25.4992,84298.6587,-0.27978,-0.6408,-1.34024
25.5121,84298.6686,-0.21686,-0.76664,-1.23761
25.5191,84298.6786,-0.12584,-0.93096,-1.12399
25.5427,84298.6887,-0.02016,-1.14843,-0.9841
25.5497,84298.6987,0.0672,-1.30236,-0.78252
25.5523,84298.7087,0.11118,-1.38422,-0.45937
25.563,84298.7187,0.09346,-1.41721,-0.13134
25.5746,84298.7286,0.02932,-1.41232,0.22174
25.5791,84298.7386,-0.03115,-1.3439,0.51191
25.593,84298.7486,-0.0672,-1.1918,0.92302
25.6007,84298.7587,-0.09346,-1.08306,1.24006
25.6105,84298.7687,-0.1686,-0.94257,1.44225
25.6184,84298.7797,-0.33903,-0.70677,1.51983
25.6305,84298.7897,-0.60537,-0.52046,1.58764
25.6388,84298.7997,-0.85949,-0.43127,1.69515
25.6505,84298.8097,-1.13987,-0.41172,1.87475
25.6586,84298.8196,-1.30236,-0.48136,1.99692
25.6723,84298.8296,-1.38422,-0.6805,2.07267
25.6786,84298.8397,-1.33657,-0.90286,2.01341
25.6916,84298.8497,-1.22845,-1.113,1.69698
25.6985,84298.8597,-1.12338,-1.26938,1.35612
25.7105,84298.8697,-1.00793,-1.53083,0.97555
25.7186,84298.8796,-0.98227,-1.82221,0.71471
25.7316,84298.8896,-1.04153,-2.08305,0.48381
25.7398,84298.8996,-1.09467,-2.18629,0.29993
25.7634,84298.9097,-1.06718,-2.21011,0.11545
25.7666,84298.9197,-0.97738,-2.22599,-0.08735
25.7764,84298.9307,-0.87904,-2.18995,-0.34208
25.7867,84298.9407,-0.84849,-2.05556,-0.4948
25.7921,84298.9507,-0.86743,-1.84481,-0.68417
25.8032,84298.9607,-0.88698,-1.80205,-0.81673
25.8118,84298.9706,-0.83811,-1.85764,-0.98227
25.8209,84298.9806,-0.69639,-1.94316,-1.08917
25.8311,84298.9906,-0.48991,-2.13803,-1.13865
25.8392,84299.0007,-0.20831,-2.40131,-1.13254
25.8535,84299.0107,0.18937,-2.69758,-1.06107
25.8597,84299.0207,0.58093,-2.9627,-0.96456
25.8716,84299.0306,0.92974,-3.24125,-0.85094
25.8796,84299.0406,1.27365,-3.51125,-0.7367
25.8915,84299.0507,1.68843,-3.71956,-0.56688
25.9013,84299.0607,2.00486,-3.70123,-0.41844
25.9125,84299.0707,2.17835,-3.54424,-0.2755
25.9205,84299.0807,2.1814,-3.32983,-0.1631
25.9413,84299.0917,2.09405,-2.86862,0.03482
25.9479,84299.1017,1.98226,-2.39948,0.26756
25.9556,84299.1117,1.82954,-1.84848,0.56261
25.9635,84299.1216,1.68477,-1.43309,0.79474
25.9766,84299.1316,1.55404,-0.9499,1.113
25.9833,84299.1417,1.49234,-0.59682,1.44164
25.9926,84299.1517,1.4844,-0.29871,1.8387
26.0014,84299.1617,1.48135,-0.14294,2.0916
26.0148,84299.1717,1.49784,-0.08063,2.32923
26.0207,84299.1816,1.55221,-0.1124,2.44407
26.0327,84299.1916,1.68049,-0.20525,2.58885
26.0421,84299.2017,1.75929,-0.27122,2.70735
26.0541,84299.2117,1.76601,-0.30238,2.8393
26.0613,84299.2217,1.66949,-0.23396,2.92727
26.0735,84299.2317,1.47768,-0.07086,3.00362
26.0879,84299.2417,1.27732,0.15516,3.06654
26.0945,84299.2516,1.02931,0.46304,3.12885
26.106,84299.2616,0.74709,0.79962,3.12824
26.1137,84299.2717,0.4215,1.1973,3.08059
26.126,84299.2817,0.14355,1.55526,2.97003
26.1329,84299.2917,-0.14661,1.99631,2.75683
26.1445,84299.3017,-0.36652,2.37993,2.52898
26.1529,84299.3116,-0.62247,2.95292,2.15452
26.1606,84299.3216,-0.85277,3.48376,1.80511
26.1744,84299.3317,-1.15392,4.03049,1.44714
26.1816,84299.3426,-1.39949,4.43366,1.12766
26.1961,84299.3527,-1.44897,4.76231,0.65424
26.2037,84299.3626,-1.2425,4.959,0.12584
26.2135,84299.3727,-0.92913,5.31147,-0.47159
26.2217,84299.3827,-0.87293,5.59736,-0.78618
26.2333,84299.3926,-1.11727,5.66028,-0.8656
26.2416,84299.4026,-1.20585,5.35057,-0.64019
26.2555,84299.4126,-0.80879,4.61448,-0.19548
26.2626,84299.4236,-0.06292,3.75193,0.09774
26.2746,84299.4336,0.97311,2.84236,0.15455
26.2826,84299.4436,1.83626,2.15391,-0.07391
26.2945,84299.4537,2.52226,1.49295,-0.5339
26.3038,84299.4637,2.78921,1.07024,-0.95661
26.3165,84299.4737,2.85702,0.8375,-1.53144
26.325,84299.4847,2.60656,0.97494,-2.04151
26.3424,84299.4947,2.12703,1.28954,-2.32984
26.3521,84299.5046,1.70004,1.56565,-2.38604
26.3587,84299.5146,1.23945,1.88269,-2.29197
26.3683,84299.5257,0.98105,1.99631,-2.17529
26.3767,84299.5356,0.98227,1.84054,-2.27608
26.3862,84299.5456,1.22234,1.53144,-2.55769
26.3968,84299.5557,1.59497,1.05313,-2.94742
26.4049,84299.5657,1.81305,0.6463,-3.22842
26.418,84299.5757,1.81671,0.33414,-3.317
26.4266,84299.5867,1.66033,0.16799,-3.25164
26.4392,84299.5967,1.39033,0.10629,-3.15023
26.4547,84299.6067,1.11972,0.06109,-3.06105
26.4618,84299.6166,0.88759,-0.00367,-3.05127
26.4728,84299.6266,0.74403,-0.15027,-3.08915
26.4797,84299.6367,0.71838,-0.3262,-3.13435
26.486,84299.6467,0.73548,-0.45571,-3.20949
26.5008,84299.6567,0.69639,-0.59132,-3.31944
26.5066,84299.6677,0.57666,-0.66645,-3.34449
26.5211,84299.6777,0.34819,-0.75014,-3.27546
26.5363,84299.6877,0.10324,-0.82894,-3.15145
26.5416,84299.6977,-0.19181,-0.86071,-2.96819
26.5523,84299.7076,-0.37263,-0.83322,-2.8057
26.5598,84299.7187,-0.5846,-0.76053,-2.58946
26.5699,84299.7297,-0.71044,-0.73731,-2.42819
26.5801,84299.7397,-0.77641,-0.77336,-2.21316
26.5883,84299.7497,-0.75014,-0.88881,-1.94683
26.6002,84299.7596,-0.67195,-1.08795,-1.5797
26.6081,84299.7696,-0.60231,-1.30542,-1.24067
26.6259,84299.7797,-0.56749,-1.64445,-0.89003
26.6286,84299.7897,-0.59132,-1.97065,-0.54
26.6416,84299.7997,-0.67134,-2.29441,-0.18937
26.6506,84299.8097,-0.74464,-2.51554,0.0788
26.6624,84299.8196,-0.82955,-2.60229,0.3036
26.6728,84299.8307,-0.98716,-2.65238,0.48869
26.6864,84299.8407,-1.17408,-2.73301,0.62247
26.6988,84299.8506,-1.3213,-2.66948,0.69761
26.7048,84299.8617,-1.49112,-2.3836,0.78191
26.7113,84299.8716,-1.62124,-2.15086,0.92241
26.7276,84299.8816,-1.80572,-1.88941,1.248
26.7368,84299.8926,-1.95782,-1.78067,1.60108
26.7448,84299.9026,-2.00608,-1.8888,1.95171
26.7518,84299.9127,-1.87352,-2.15513,2.15086
26.7638,84299.9227,-1.58581,-2.43613,2.12215
26.782,84299.9327,-1.39461,-2.50699,1.92789
26.7838,84299.9427,-1.35918,-2.41475,1.5351
26.793,84299.9527,-1.51495,-2.30235,1.07879
26.8037,84299.9626,-1.69576,-2.2431,0.58826
26.8115,84299.9726,-1.7147,-2.32068,0.26084
26.8259,84299.9827,-1.59558,-2.58579,-0.02688
26.8314,84299.9927,-1.30908,-2.94132,-0.31215
26.8438,84300.0027,-0.82772,-3.1765,-0.62003
26.8532,84300.0127,-0.39156,-3.26324,-0.86499
26.8637,84300.0226,-0.03238,-3.30661,-1.05374
26.8716,84300.0326,0.26328,-3.28462,-1.11911
26.8871,84300.0427,0.60415,-3.21376,-1.11361
26.8927,84300.0527,0.93951,-3.12274,-1.07085
26.9116,84300.0637,1.34574,-2.94315,-1.02625
26.9142,84300.0737,1.63406,-2.61939,-0.96883
26.9302,84300.0837,1.83137,-2.30968,-0.89614
26.9357,84300.0947,1.93217,-2.08855,-0.79596
26.9478,84300.1056,1.97798,-1.8497,-0.66706
26.9611,84300.1157,2.02502,-1.64139,-0.54734
26.9684,84300.1257,2.06778,-1.4447,-0.41661
26.9859,84300.1357,2.11665,-1.28587,-0.2865
26.9955,84300.1457,2.18568,-1.03481,-0.05559
27.0074,84300.1556,2.22355,-0.90469,0.09774
27.0087,84300.1656,2.25837,-0.78313,0.25534
27.0217,84300.1757,2.26264,-0.70127,0.3598
27.0573,84300.1857,2.2321,-0.6243,0.42516
27.0584,84300.1957,2.16918,-0.57971,0.46487
27.059,84300.2057,2.08733,-0.5174,0.52718
27.0601,84300.2157,1.97676,-0.36896,0.59743
27.0663,84300.2256,1.8045,-0.12339,0.73915
27.0769,84300.2356,1.63834,0.12156,0.92057
27.0873,84300.2457,1.41232,0.42638,1.20524
27.0943,84300.2557,1.24067,0.65729,1.48135
27.1069,84300.2657,1.102,0.87354,1.80022
27.1157,84300.2757,0.99021,1.07757,2.03296
27.1285,84300.2856,0.80329,1.40866,2.27608
27.1368,84300.2967,0.61025,1.75624,2.46973
27.1585,84300.3077,0.42272,2.10321,2.5693
27.1637,84300.3177,0.27672,2.46362,2.58274
27.1739,84300.3287,0.0898,2.91688,2.51554
27.1779,84300.3387,-0.05009,3.20643,2.45751
27.1899,84300.3487,-0.21991,3.50576,2.44285
27.1977,84300.3586,-0.38973,3.69573,2.45385
27.2099,84300.3686,-0.55772,3.83379,2.42086
27.2184,84300.3787,-0.66279,3.90099,2.28525
27.2316,84300.3887,-0.65546,3.93092,2.00791
27.2497,84300.3996,-0.49908,3.89793,1.55099
27.2556,84300.4097,-0.30116,3.72506,1.06474
27.2702,84300.4197,-0.12523,3.54668,0.82467
27.2781,84300.4307,0.08369,3.41596,0.88392
27.281,84300.4406,0.29932,3.28707,1.04275
27.2929,84300.4507,0.5846,3.1429,1.22417
27.3002,84300.4607,0.80695,3.02134,1.32252
27.317,84300.4706,1.07757,2.87229,1.33963
27.3215,84300.4806,1.33046,2.6933,1.25716
27.334,84300.4907,1.63773,2.41292,0.98716
27.342,84300.5007,1.87963,2.16796,0.59376
27.3601,84300.5106,2.03174,1.98837,0.16677
27.363,84300.5207,2.02257,1.8888,-0.21686
27.3723,84300.5306,1.8723,1.82282,-0.54245
27.3801,84300.5406,1.71409,1.88941,-0.72693
27.3923,84300.5507,1.55832,1.97798,-0.8601
27.4001,84300.5607,1.42026,1.97554,-0.95417
27.4134,84300.5707,1.3158,1.81732,-1.07268
27.4212,84300.5807,1.28893,1.56076,-1.19913
27.4393,84300.5917,1.38666,1.14049,-1.40743
27.4434,84300.6017,1.49418,0.82528,-1.60535
27.4622,84300.6117,1.59619,0.49175,-1.84603
27.4656,84300.6216,1.59986,0.27733,-2.02502
27.484,84300.6316,1.52594,0.11484,-2.17224
27.4897,84300.6417,1.43737,-0.00428,-2.26692
27.5016,84300.6526,1.32069,-0.07575,-2.36955
27.5069,84300.6627,1.21807,-0.07819,-2.42697
27.5167,84300.6727,1.10628,-0.05498,-2.47034
27.5243,84300.6827,0.94562,-0.011,-2.48561
27.5352,84300.6927,0.71777,-0.00428,-2.50027
27.5424,84300.7027,0.50396,-0.03299,-2.50577
27.5542,84300.7126,0.2981,-0.07453,-2.47889
27.5617,84300.7226,0.17287,-0.13744,-2.41353
27.5737,84300.7327,0.03604,-0.22907,-2.30296
27.5819,84300.7427,-0.08735,-0.32376,-2.17835
27.5978,84300.7527,-0.21564,-0.52107,-2.01891
27.6033,84300.7626,-0.28588,-0.7025,-1.87597
27.615,84300.7726,-0.34331,-0.97066,-1.66705
27.6217,84300.7826,-0.36713,-1.14293,-1.52044
27.6406,84300.7927,-0.37263,-1.39766,-1.31214
