AppTimestamp(s),SensorTimestamp(s),acc_x,acc_y,acc_z,gyro_x,gyro_y,gyro_z,mag_x,mag_y,mag_z,yaw_deg_ori,yaw_deg_ori_cal,yaw_deg,yaw_error,Quat_w,Quat_x,Quat_y,Quat_z,q_w,q_x,q_y,q_z,quat_angle_error_deg
0.0482,84273.1579,-3.076864561103059,0.34445805748249114,-1.3952526479558038,-0.06840461786315899,-0.41024495959457663,-0.34167514307740754,0.27011710136643696,18.37170752989264,-14.96297070701347,54.887512,61.565707215364995,0.0,54.887512000000015,0.7378671777566911,0.30052024,0.36131355,0.48445034,1.0,0.0,0.0,0.0,84.8999052498648
0.0512,84273.1779,-1.8914842618249685,0.17279269201899972,-1.0860553970465716,0.002646822461970233,-0.7537294339528363,-0.47374236251970125,0.11332441725295306,18.547496436262445,-14.986933906737818,54.65797,60.905982094239164,0.0,54.657970000000006,0.7408323680386526,0.30028218,0.3582038,0.4823775,1.0,0.0,0.0,0.0,84.39526219539013
0.0549,84273.1979,-0.8737242171937423,0.011955299408232367,-0.7439394869377374,0.05134282926664441,-1.0315354245822326,-0.562594021282802,0.11014412209389501,18.73814276274299,-15.06460530835595,54.62714,59.994219177027766,0.0,54.62714,0.7467060183765967,0.29849836,0.3503502,0.4801912,1.0,0.0,0.0,0.0,83.38831399032512
0.0597,84273.2179,-0.1138461461339304,-0.12819921135915768,-0.3773836727110442,0.057781753335960084,-1.2030022370469053,-0.5873036135067871,0.1482171071409426,18.964489709294813,-15.197442774335622,54.83868,58.938044789615,0.0,54.83868000000001,0.7543307798043676,0.296413,0.33829972,0.47820258,1.0,0.0,0.0,0.0,82.06614180249336
0.0867,84273.2379,0.30523805652175984,-0.2349149892930713,-0.0731812676678043,0.017115381881770197,-1.2698570919653458,-0.5666143557492704,0.14428348553814807,19.22514172785108,-15.372329492318169,55.226761,57.81489666167368,0.0,55.22676100000001,0.7624224774495428,0.29528958,0.32339543,0.4763732,1.0,0.0,0.0,0.0,80.64354781557401
0.0981,84273.2579,0.41917187092558983,-0.23905167050839538,0.08794260672294385,-0.03266175525627396,-1.2738139215538429,-0.5408641844272613,-0.18787329222794114,19.385290083964875,-15.716732703174628,55.75486,57.505229608976094,0.0,55.75486000000001,0.7682831195608654,0.29179388,0.31178209,0.47685355,1.0,0.0,0.0,0.0,79.60007232934399
0.1298,84273.2779,0.3509333233567369,-0.1426975392446277,0.11653617631068336,-0.0509518586531198,-1.2637479328426948,-0.5522358508921377,-0.7664415193888052,19.362747370612464,-16.256533006456003,55.988735,57.65897383096865,0.0,55.98873499999999,0.773030382354134,0.28500253,0.30492458,0.47772229,1.0,0.0,0.0,0.0,78.74640012282424
0.1377,84273.2979,0.24895500956390126,-0.07116618524697538,0.11268482570769223,-0.01986965936465601,-1.2618528942732947,-0.6180883052781247,-1.2775849006872941,19.289755041850675,-16.77445836303596,55.965466,57.57368683191304,0.0,55.96546599999999,0.7785686586290006,0.27793276,0.29804504,0.47723514,1.0,0.0,0.0,0.0,77.74058137615631
0.1582,84273.3178,0.29618940353499923,-0.1238402760099766,0.18878693504637134,0.04554335485778538,-1.2577311571321563,-0.7051443013329329,-1.625871849910521,19.312297208295476,-17.09615228776682,55.890381,57.08824292633217,0.0,55.89038099999999,0.7846603203697298,0.27327219,0.28900513,0.4755066,1.0,0.0,0.0,0.0,76.62145408676466
0.1777,84273.3379,0.5828391654144673,-0.37943259462199785,0.3937401714739508,0.10423153714249433,-1.215048172093753,-0.7531149970828577,-1.7748969517694362,19.526639348367638,-17.156429678765473,55.719215,55.99153239964245,0.0,55.71921499999999,0.7912938282321668,0.27320865,0.27696186,0.47170249,1.0,0.0,0.0,0.0,75.38682667720191
0.1984,84273.3579,0.9074216959109762,-0.8368130642638181,0.683723357563327,0.14209847815938703,-1.09905589769545,-0.7129675285052044,-1.5658069327651514,19.902903676196154,-17.077737450868124,55.466202,54.358636559811835,0.0,55.46620200000001,0.8003008393264285,0.27510992,0.25880706,0.46567371,1.0,0.0,0.0,0.0,73.68231999176464
0.2176,84273.3779,1.1110179835317338,-1.2682572942807337,0.9443464182171653,0.19826534915791122,-0.9071461954978486,-0.5843368806497232,-1.4715552354773536,20.205444257719147,-17.166462993643552,55.223457,53.223456203995525,0.0,55.223456999999996,0.8084564547948682,0.27411374,0.24270336,0.46081981,1.0,0.0,0.0,0.0,72.10920827539812
0.2377,84273.3979,1.1068778929495293,-1.362261413029032,1.06941267893124,0.326757520605388,-0.6694684058016165,-0.43053115680660975,-1.8083642994327245,20.247468281167553,-17.651530466468984,54.984486,53.03775143003142,0.0,54.984486000000004,0.8139480955305257,0.26724324,0.23512115,0.4591161,1.0,0.0,0.0,0.0,71.03303128899704
0.264,84273.4179,0.9135076421771786,-1.122412315193071,1.0004098110394608,0.5403481384716644,-0.42855500574018934,-0.33880884129753347,-2.378466215500209,20.23745742903392,-18.236837651971186,54.917877,53.19799845228102,0.0,54.917877000000004,0.8166784086079976,0.26127821,0.23208778,0.45924431,1.0,0.0,0.0,0.0,70.49268245712628
0.284,84273.4379,0.7032382207658001,-0.6904921612477306,0.7921973997585567,0.7911066565990551,-0.2230508348675319,-0.33693964805426885,-3.0386257480955177,20.35663787856569,-18.613537883756525,55.231361,53.38982257689322,0.0,55.23136099999999,0.8160422794874189,0.26185548,0.23062162,0.46078235,1.0,0.0,0.0,0.0,70.61889828425383
0.2976,84273.4579,0.578861459705974,-0.2626943528807466,0.589253526242274,0.9872096136738846,-0.06825181486823656,-0.3731508998264703,-3.396112918718677,20.679306105517345,-18.657114295454104,55.59045,52.9224392594554,0.0,55.590450000000004,0.8148654716477943,0.27055988,0.22584017,0.46020412,1.0,0.0,0.0,0.0,70.85187559441368
0.3176,84273.4779,0.5161215108172241,0.020146466392659157,0.4797830675301533,1.054950929870802,0.0491839930039909,-0.35559917969623,-3.238902115015892,21.109501064310933,-18.45355347069045,55.878281,51.74150210059391,0.0,55.878281000000015,0.8152057101458472,0.28417692,0.21502115,0.45656219,1.0,0.0,0.0,0.0,70.78458575893518
0.3376,84273.4979,0.4321560711811623,0.1623449798548977,0.40544615249798355,0.9812931043519566,0.14978684496640077,-0.23812881574179584,-2.8596514429439925,21.41785977940912,-18.20409915110804,56.058968,50.36475680482803,0.0,56.05896799999999,0.8160811161648791,0.29834577,0.20298161,0.451442,1.0,0.0,0.0,0.0,70.61119823841247
0.3603,84273.5179,0.13113797254305748,0.2837236940964054,0.23878680895020565,0.8320859555471181,0.22222097851800415,-0.05855632056261839,-2.4783832095185114,21.457670034353367,-18.097442235013375,56.0993,49.21603760296329,0.0,56.0993,0.8172769528397337,0.30895302,0.19294663,0.44651765,1.0,0.0,0.0,0.0,70.37374402993308
0.3791,84273.5379,-0.4345328420481418,0.5422181784296085,-0.06579715610936177,0.7087253329116783,0.23266673003234695,0.07311146825664883,-2.656920532202288,21.030500988637176,-18.353656497425042,56.597317,49.542346199956825,0.0,56.597317000000004,0.8154615275907056,0.31035832,0.19255492,0.44902429,1.0,0.0,0.0,0.0,70.733955439795
0.3985,84273.5589,-0.9785970572893121,0.7372141384506747,-0.33082963605074767,0.6908079317449765,0.11731985566433942,0.07277921877642443,-3.3930621829915832,20.3921179170753,-18.67942555403986,57.248352,50.48442020814899,0.0,57.24835200000001,0.8096321347827177,0.3105841,0.20250067,0.45500198,1.0,0.0,0.0,0.0,71.87998890343006
0.4185,84273.5789,-1.2312347378723154,0.6397786016877332,-0.24991518344665486,0.7693548067753002,-0.15322183532310957,-0.017703194621814355,-3.860549384773062,19.914325470262316,-18.811774001820496,57.847271,50.925165947793204,0.0,57.847271000000006,0.8045020361237872,0.31473309,0.20841798,0.45856461,1.0,0.0,0.0,0.0,72.87561682527958
0.4389,84273.5989,-0.8277916586403693,0.313719455620618,0.35705301965130154,0.8351087976258635,-0.5271602440359588,-0.05987204655633932,-4.016524240144573,19.54016284324797,-18.87744613355587,58.038361,50.58206875141443,0.0,58.03836100000001,0.8018111260254033,0.32153675,0.20990017,0.45788094,1.0,0.0,0.0,0.0,73.3931962792353
0.4593,84273.6189,0.05264085920741035,-0.30343357642487945,1.3881827517805299,0.7351251022477687,-0.9195619139171786,0.096410764377578,-3.3481177953603343,19.70444698889382,-18.569039579857595,58.448803,48.95197751728976,0.0,58.448803,0.80340005782982,0.33708513,0.19298087,0.45130959,1.0,0.0,0.0,0.0,73.08795663962229
0.4784,84273.6389,1.0351986176946752,-0.7650809726386179,2.5744519385505136,0.40788000394591406,-1.212226166360113,0.4676395099517867,-2.2699452791024526,19.89736381844109,-18.329044714552275,58.51292,47.01141812337898,0.0,58.51292000000001,0.809208615249138,0.35087094,0.16674083,0.440759,1.0,0.0,0.0,0.0,71.9626342042131
0.5026,84273.6589,1.9356492355535782,-0.4363514412481919,3.684416452029918,0.059598077200545316,-1.2670487156928283,0.9071933900864603,-2.3652947976659973,19.472851158028888,-18.69192683998178,60.195534,48.46703520488474,0.0,60.19553400000001,0.8081713941438988,0.34761631,0.15504378,0.44942555,1.0,0.0,0.0,0.0,72.16469099395965
0.5473,84273.6789,2.432387339864942,0.7170774448659385,4.502010214780853,-0.10286688669502092,-1.032240750058946,1.1911640527614429,-3.3537590418204237,18.345975049539316,-19.71267950716596,63.323853,53.29115364157915,0.0,63.323852999999986,0.8011513128273867,0.32459629,0.15726978,0.47755632,1.0,0.0,0.0,0.0,73.51962859663399
0.5624,84273.6989,2.346294980146058,1.6875870854768493,4.7682642370867185,-0.04887501796688143,-0.5513565618700687,1.1838745950987504,-3.7254107349764505,17.39462502836698,-20.63980221553806,66.021645,57.61069119086487,0.0,66.021645,0.7964010184856344,0.30060422,0.15242922,0.50214326,1.0,0.0,0.0,0.0,74.42442730234484
0.5674,84273.7189,2.3763173318427837,2.1537745522707814,4.185493600093524,0.25318918573486504,0.047342667988741205,1.0006330280849858,-3.8913396018384585,16.97239911822499,-21.11679195459875,66.674431,58.89777970713919,0.0,66.674431,0.7954046126793225,0.29163447,0.15147382,0.50925094,1.0,0.0,0.0,0.0,74.6130219044753
0.5927,84273.7389,2.58340308628972,2.253524402902824,2.827409158979929,0.6998735962243954,0.564664514710824,0.7974536932113083,-4.153107042319606,17.24568822123403,-20.92482060209457,66.554916,58.012258750275194,0.0,66.55491599999999,0.7933799359050752,0.3025355,0.15487409,0.50500947,1.0,0.0,0.0,0.0,74.99499357306004
0.5993,84273.7589,2.552325540220222,2.4880884568223314,1.1166181595108071,1.1066236042183957,0.9035620647498095,0.6548590766227236,-4.295027025778678,17.772905383622174,-20.374908346928596,67.311211,57.24806401886669,0.0,67.31121100000001,0.7873592758327793,0.32013443,0.15691698,0.50294769,1.0,0.0,0.0,0.0,76.1211759763044
0.6194,84273.7789,2.2315435425323167,2.920951999592046,-0.5246272350523178,1.364153896216592,1.0803496484042532,0.5596874018272073,-4.169548027053873,18.249585838744316,-19.69951452471776,69.361023,57.323994365343445,0.0,69.36102299999999,0.7777753209168574,0.33819985,0.154449,0.50678587,1.0,0.0,0.0,0.0,77.88533045715404
0.6389,84273.7989,1.7728424459249958,3.2848995862541104,-1.966033207538758,1.4679387203696679,1.1686066816553384,0.4431741727183459,-3.8542624034021067,18.472468474105614,-19.08245167371342,72.141731,57.91913102446882,0.0,72.141731,0.7663637271630235,0.35523835,0.14975882,0.51387221,1.0,0.0,0.0,0.0,79.94306347393575
0.6594,84273.8189,1.2995563794709661,3.2602261172712916,-3.3122806563634866,1.4757419238493066,1.2330147591132463,0.2609721722357211,-3.4245938162549807,18.388679628256646,-18.635286490374142,74.971466,58.493226274544966,0.0,74.97146600000002,0.7549695638124033,0.37135208,0.14517134,0.52061874,1.0,0.0,0.0,0.0,81.95457921006458
0.6849,84273.8389,0.8748540862291834,2.687030704538576,-4.707256155830345,1.4673710655209633,1.2858189490334302,0.03066898100659865,-2.8410293529022006,18.127259452039848,-18.33462071810555,77.287636,58.334094799378505,0.0,77.28763600000002,0.7456468572798663,0.38845143,0.14027436,0.52291429,1.0,0.0,0.0,0.0,83.57062161722504
0.7016,84273.8599,0.449581569249357,1.6729610081870185,-6.196163663384293,1.4998235032138498,1.2976156971003792,-0.2015749329278549,-2.1567887753779553,17.77636663068494,-18.164268204268396,78.843834,57.21289373542574,0.0,78.84383400000002,0.739181296207138,0.4066456,0.13579628,0.51943213,1.0,0.0,0.0,0.0,84.67655761243918
0.7202,84273.8799,-0.08631908249023845,0.4593378910651743,-7.64063218237736,1.5803196111569966,1.21580925034013,-0.3970545927366116,-1.4573148516435017,17.35867408194304,-18.13346233588598,79.811646,55.65022387340003,0.0,79.811646,0.7349248630156641,0.42331639,0.13250273,0.51296365,1.0,0.0,0.0,0.0,85.39826498029262
0.7406,84273.8999,-0.732625899240759,-0.7674126749922694,-8.747087485814253,1.6568491580691977,0.9898471973792364,-0.5601095223661405,-0.9847821387930331,16.938398115800467,-18.165432469062317,80.427399,53.57461185433051,0.0,80.42739899999998,0.730915530355231,0.44045499,0.13387468,0.50382483,1.0,0.0,0.0,0.0,86.07359760599626
0.7643,84273.9199,-1.4210694226050082,-1.9609499877769898,-9.238496823539235,1.6449620365178954,0.6071219378860075,-0.6655685984661328,-0.5064055565015115,16.75394186932434,-18.044350982990224,81.913422,51.77884549778101,0.0,81.91342199999997,0.7248493449096219,0.45903412,0.1311233,0.49667674,1.0,0.0,0.0,0.0,87.08736690201654
0.8065,84273.9409,-2.004478727844753,-3.20376086667626,-8.96309845928004,1.448476445379728,0.08484276206435666,-0.7270664500399721,0.019801761492661996,16.711806378911675,-17.85374052223283,83.999512,50.3759094779175,0.0,83.99951199999998,0.7181199547420112,0.47719234,0.12330731,0.49131101,1.0,0.0,0.0,0.0,88.20104446027004
0.8225,84273.9609,-2.3620822634451284,-4.677084371710979,-7.913359044280309,1.001928769576047,-0.5224594547799339,-0.7485630970776653,0.5516813996151999,16.697044035713542,-17.723414416611252,86.133003,49.53159425382181,0.0,86.13300300000003,0.7123889554471009,0.49228159,0.11089227,0.48771274,1.0,0.0,0.0,0.0,89.1407575515477
0.8281,84273.9809,-2.4157158822500695,-6.519038458408125,-6.197290456112866,0.3142509747882958,-1.137468699231565,-0.7126178789408286,0.9671296326386116,16.57279380913254,-17.84277383148813,87.570694,49.72975908878664,0.0,87.570694,0.7094119942695059,0.49913028,0.09682029,0.48808751,1.0,0.0,0.0,0.0,89.62581262853872
0.8473,84274.0009,-2.162234719774555,-8.517938713300316,-3.7885101381345834,-0.5416323881983522,-1.6983522711956955,-0.5465319106375527,1.0862825968455638,15.927135662011697,-18.63604480277216,85.822357,50.067726562840946,0.0,85.82235700000001,0.7168907679318198,0.49070486,0.09107406,0.48680785,1.0,0.0,0.0,0.0,88.40326096504144
0.8633,84274.0219,-1.6880542707698551,-10.26919486864442,-0.8858078045642852,-1.4071050579853819,-2.114771486518295,-0.19546243473262115,1.011592931935434,14.930323355193751,-19.86913871186431,82.10508,51.22634882700235,0.0,82.10507999999999,0.7318612051167659,0.46661559,0.0900907,0.48839813,1.0,0.0,0.0,0.0,85.9146935707651
0.8848,84274.0419,-1.148711421448719,-11.303828718614486,2.22359549949088,-2.130130936098618,-2.309606315920238,0.3286073216660256,0.7937071857042337,13.838687403721533,-21.249706031851304,77.808861,52.89265497458033,0.0,77.80886099999998,0.7502516086053342,0.4319309,0.09143317,0.49213636,1.0,0.0,0.0,0.0,82.77564458966366
0.9021,84274.0619,-0.6088446906602742,-11.106620840486075,5.293211438797556,-2.592039662755907,-2.248370292720791,0.9984944966631912,0.36150761312750923,12.678483805046767,-22.704409529837257,73.840042,55.06204101520497,0.0,73.84004199999998,0.7685151639187228,0.3883568,0.09761979,0.49903288,1.0,0.0,0.0,0.0,79.55852305685859
0.9223,84274.0819,-0.28549372439971865,-9.873916887107598,7.633679168851778,-2.7849094417025126,-1.9755454231395084,1.6601503663551056,-0.1179872473055461,12.21549035806978,-23.771156701125378,72.242561,57.801194677378916,0.0,72.242561,0.7788881059343591,0.34968543,0.09883073,0.51116133,1.0,0.0,0.0,0.0,77.6822322695928
0.9423,84274.1019,-0.06854730969327782,-7.34639493193046,9.195785899226752,-2.758018822368637,-1.55926540955407,2.2967298225979462,-0.9107160774759979,12.00385557857999,-24.644952360011683,71.983315,60.97099858185072,0.0,71.983315,0.7826293934358941,0.31351614,0.1050318,0.52741557,1.0,0.0,0.0,0.0,76.99609071778744
0.9618,84274.1219,0.08655555651732527,-3.8934515874160476,9.86349930044969,-2.602979756375918,-1.1069179615663503,2.8162824356761558,-2.159346364901195,12.012270458959359,-25.18143623389382,73.211777,64.75732394527274,0.0,73.21177699999998,0.7775279559383643,0.28403279,0.11821225,0.54845375,1.0,0.0,0.0,0.0,77.93041737638661
0.9831,84274.1419,-0.07288856657011422,-0.08136249713236632,9.795168651320527,-2.4484428156055373,-0.6852420888690671,3.122576094295833,-3.5109065745291197,12.088694048361514,-25.324030298733017,75.371849,69.03056196455141,0.0,75.371849,0.7662934278529542,0.25965077,0.13452753,0.57208234,1.0,0.0,0.0,0.0,79.95560253863005
1.0067,84274.1619,-0.6629151596791125,3.41070367851789,9.230858068179419,-2.371156583809573,-0.3356122355440728,3.1712416262903034,-4.519918379278451,12.175140576781446,-25.111182962148877,77.84494,73.37481591753834,0.0,77.84494000000001,0.7527288610022702,0.2379408,0.14926687,0.59540141,1.0,0.0,0.0,0.0,82.34536718150873
1.0244,84274.1819,-1.3083178287592467,6.0959947856205705,8.37837671665394,-2.304609578839461,-0.061772070904650755,3.0083038525328725,-5.219641976836342,12.203861661911436,-24.64304329310509,80.059761,77.32233829113203,0.0,80.05976099999998,0.7389009338943399,0.21939008,0.16535108,0.61526614,1.0,0.0,0.0,0.0,84.72424805004732
1.0451,84274.2019,-1.6809575667776642,8.036403996472563,7.337810005117621,-2.134750030564497,0.20738933548081648,2.6929762055906714,-5.674457925015032,11.818557889776372,-24.209850128719083,81.438065,80.9363268314813,0.0,81.438065,0.7263416460771557,0.19866997,0.18894713,0.6302833,1.0,0.0,0.0,0.0,86.83885662213358
1.0662,84274.2219,-1.7975845877110066,9.396728680044209,6.240314135363196,-1.8179555589641532,0.5363805218008033,2.2423411687062695,-5.556367018982339,11.146117050374222,-23.946844331499488,81.860031,84.00898652553401,0.0,81.86003099999999,0.7172640039856437,0.17272626,0.21427225,0.64014482,1.0,0.0,0.0,0.0,88.34189783934472
1.085,84274.2419,-1.7193616824027567,10.227935785241634,5.312075501109705,-1.3698473612037079,0.925426913733308,1.704120622749307,-4.838321960651267,10.875585593443432,-23.59968303528654,82.079163,86.14258682702263,0.0,82.079163,0.7112417889705493,0.1509752,0.23080446,0.64658403,1.0,0.0,0.0,0.0,89.32791857254199
1.1019,84274.2619,-1.4257450194982404,10.676981285872857,4.519096361014615,-0.855871550060477,1.3473083107912045,1.155524842765377,-4.117641250315606,11.28500665512344,-22.904356151407214,82.689529,87.6001188869529,0.0,82.689529,0.704697291717591,0.14551982,0.2404356,0.65147251,1.0,0.0,0.0,0.0,90.38981221281523
1.1216,84274.2819,-1.0325920743949553,11.038596035551182,3.485465430571894,-0.3913388094654416,1.7514958770268352,0.5841138026969277,-3.810523873134218,11.797324067970944,-22.013278036745728,83.39386,89.00028373769344,0.0,83.39386000000002,0.6954220393086776,0.15377596,0.2540938,0.65435272,1.0,0.0,0.0,0.0,91.87828433220274
1.147,84274.3019,-0.6738636607737281,11.305718145910696,2.107267087114092,-0.0524434933148219,2.0515204505562132,-0.06485196920476931,-3.649661814543891,12.024824932636331,-21.162781500673795,83.539063,90.10092031558315,0.0,83.539063,0.6864224083016779,0.16767651,0.2727623,0.65292388,1.0,0.0,0.0,0.0,93.3048511422793
1.1675,84274.3219,-0.28354964987070463,11.22304345443944,0.6555363720053577,0.1583696243807758,2.193652760602349,-0.781544347513369,-3.2681611859864335,12.054477803073288,-20.403750084142732,83.015503,90.42887744087949,0.0,83.01550299999997,0.6807643074359141,0.18346655,0.2898657,0.64720774,1.0,0.0,0.0,0.0,94.19320473932272
1.186,84274.3419,0.3659453916367985,10.66784598626574,-0.6795440423146317,0.26267394316753656,2.19209881404545,-1.5110050845795484,-2.5959383088174315,11.992113325827747,-19.745950840271902,81.782433,89.7014352215514,0.0,81.78243299999997,0.6796891698368821,0.19991089,0.30304292,0.63735646,1.0,0.0,0.0,0.0,94.36128309806008
1.2152,84274.3619,1.4342838714415898,9.592968369359037,-1.8822359421223833,0.2700161638737435,2.093127367150842,-2.1634195939079452,-1.7231066691997867,11.97856381291805,-19.143741843358185,79.681259,87.50652306620474,0.0,79.68125900000001,0.6838007908400303,0.2190084,0.31212693,0.62211621,1.0,0.0,0.0,0.0,93.71726204695891
1.2284,84274.3819,2.752094085262099,7.756032181965078,-2.815334791381602,0.19806220856208712,2.0262066126254803,-2.5709127420931113,-0.6185533386424344,12.668072067427916,-18.173477151256744,78.523705,83.47618785042455,0.0,78.523705,0.6900868182940865,0.25075826,0.30527863,0.6063872,1.0,0.0,0.0,0.0,92.72603663872542
1.2514,84274.4019,3.9451842768624292,5.517336822982942,-4.0389949739970685,0.05231679458103078,1.938587636963971,-2.730773009712407,0.48752080349996607,13.328054917757607,-17.23482412878211,77.037521,78.49481037732708,0.0,77.03752099999997,0.6982373322346784,0.28118074,0.29627046,0.58789951,1.0,0.0,0.0,0.0,91.42848912679844
1.2714,84274.4229,4.680764415327942,3.041299127862735,-5.6264904701256375,-0.11092409442990547,1.7861238113274283,-2.6159379636666173,1.5281576383724564,13.82613137816747,-16.430370259897735,74.895317,73.10410618103133,0.0,74.895317,0.7083390580870206,0.30585676,0.28798082,0.56725168,1.0,0.0,0.0,0.0,89.80012656668968
1.2875,84274.4428,4.729457815612703,0.5649006601097862,-7.373961677270435,-0.22490034736133702,1.5408179623949478,-2.22767710649618,2.5005618785955575,14.238497300566081,-15.722594271596337,72.697273,68.30397418365094,0.0,72.697273,0.7191444229672012,0.32255563,0.27881062,0.5486837,1.0,0.0,0.0,0.0,88.0322249604273
1.309,84274.4629,4.113523834795716,-1.572680247474679,-9.007071586193796,-0.26044660095337413,1.1730996432518417,-1.6173906302959695,3.406097057899454,14.622675822233369,-15.085653662715302,70.648193,64.44194662586888,0.0,70.64819299999999,0.7302870562779048,0.33204269,0.26855445,0.53320444,1.0,0.0,0.0,0.0,86.17907121338153
1.3283,84274.4829,3.0516232766842952,-2.9645005976907086,-10.20334733015862,-0.2302868227783338,0.6580209450650388,-0.8901209663163356,4.198952773599104,14.943195011129337,-14.58629275185353,68.953964,62.169818930879664,0.0,68.95396399999998,0.7409747751742151,0.33199486,0.25892287,0.52315843,1.0,0.0,0.0,0.0,84.37096443127977
1.3453,84274.5029,1.875902716576391,-3.320435899675984,-10.785570395170037,-0.16330682818512104,0.018673947326853457,-0.17143493634808055,4.210116627484134,15.31648957117896,-14.319197489616727,67.468399,60.68626442889037,0.0,67.468399,0.7429437236277353,0.336097,0.26437044,0.51495796,1.0,0.0,0.0,0.0,84.03443383087188
1.3735,84274.5229,0.9827572526948619,-2.605275813747696,-10.417208257072602,0.00149044341551835,-0.6916107230832003,0.3655011119960814,3.9583494567282527,15.743995679681628,-14.102273398482742,67.80407,61.526002637367604,0.0,67.80407,0.7395927749787372,0.33459675,0.26940367,0.51814014,1.0,0.0,0.0,0.0,84.60652441234612
1.384,84274.5429,0.5247629035618404,-1.1090279102165679,-9.068896425846251,0.2508267677750442,-1.371197399227223,0.5975155404800822,3.7217502236667706,16.137721499210144,-13.899453984944314,69.745766,63.95010321405253,0.0,69.745766,0.734787859591412,0.32805339,0.26731792,0.53010273,1.0,0.0,0.0,0.0,85.42141288500675
1.4068,84274.5629,0.37220695564272654,0.6900517048594697,-6.857689643794088,0.5602311523094277,-1.901237183601292,0.4947204685341719,3.656976266930518,16.424778519556277,-13.766931089710804,72.472572,66.82447839754555,0.0,72.47257200000001,0.7316814745526251,0.31780279,0.25541836,0.54626465,1.0,0.0,0.0,0.0,85.94491233546749
1.4233,84274.5829,0.2846433507463395,2.2762070430472967,-4.027003396700175,0.9294311863653406,-2.193464730285923,0.12014664645116102,3.6962087547183895,16.602949373139555,-13.80920102863146,75.135567,69.26105048613789,0.0,75.13556699999998,0.7306954499778489,0.30686292,0.23635451,0.56218845,1.0,0.0,0.0,0.0,86.11054439728721
1.4438,84274.6029,0.07354363431076294,3.228307562435973,-0.912416742334635,1.3623255327486443,-2.2248734687150016,-0.3982039791951276,3.712673473054215,16.7197194461247,-14.106407937538865,77.337685,70.92595015646091,0.0,77.33768499999996,0.7311004630558294,0.29813987,0.21370295,0.57527018,1.0,0.0,0.0,0.0,86.04254149115508
1.4638,84274.6229,-0.3847711812013568,3.081242332955881,2.178113000746844,1.8242412490768571,-2.0390747624456473,-0.9337382356178232,3.804901882860019,17.07005291767982,-14.35817314760379,79.496193,71.30834008763681,0.0,79.496193,0.7321115992483459,0.30019689,0.18199396,0.58375734,1.0,0.0,0.0,0.0,85.87257960577209
1.4892,84274.6429,-1.0843442689211855,1.9443546709000625,4.821869027381734,2.2709307338082247,-1.743655613889272,-1.3105654268851907,3.850916003544457,17.465916229284662,-14.838260725866288,80.659393,70.38360098172309,0.0,80.65939300000002,0.7352137893382064,0.30975565,0.14983605,0.58400452,1.0,0.0,0.0,0.0,85.34943177685176
1.506,84274.6629,-2.075931007099645,0.16124231086915208,6.741270146176259,2.6782384663046646,-1.4539293969294742,-1.445898568380843,3.778186790421082,17.90435311151893,-15.510158953955816,81.235847,68.76686130497252,0.0,81.23584700000004,0.738827855428049,0.32443827,0.1187374,0.57859713,1.0,0.0,0.0,0.0,84.73667533195541
1.5285,84274.6849,-3.2943327568060603,-1.8948960602920835,7.843767837591294,3.0486308127297663,-1.2288963343444699,-1.3564400253496327,3.5032746893819873,18.461053539856813,-16.186362041148442,82.075264,67.20920050258398,0.0,82.075264,0.7395494190742342,0.34367001,0.08800323,0.57202536,1.0,0.0,0.0,0.0,84.61390575212098
1.5487,84274.7049,-4.51050536585594,-3.689526408988442,8.233821684349621,3.4025931123696123,-1.0680636499371996,-1.098307662885335,2.936920263526898,18.930079526078515,-16.959681555142463,83.439987,66.5019031139833,0.0,83.43998699999997,0.7361070922545999,0.36140329,0.06134577,0.56900853,1.0,0.0,0.0,0.0,85.19830616941826
1.5733,84274.7259,-5.611526023522527,-5.097910695466824,8.021841231991662,3.7320907537578165,-0.940252926188713,-0.734367311427472,2.409588384094044,19.268974418787522,-17.660188185177763,85.300606,66.59786402180167,0.0,85.30060600000002,0.7294074630284777,0.37733659,0.03308154,0.56963801,1.0,0.0,0.0,0.0,86.32651486580443
1.5947,84274.7459,-6.465054409092194,-6.351574366586622,7.138814702586757,3.9906266792765646,-0.8109402787520604,-0.33792118207962996,2.094152251674328,19.705239911239257,-17.934334776930946,88.045387,67.19693655455445,0.0,88.045387,0.7169551578596673,0.39855489,-0.00281643,0.57194525,1.0,0.0,0.0,0.0,88.39267713537157
1.6149,84274.7659,-6.7479544859854546,-7.248910501498822,5.693954210619502,4.144856717337268,-0.6596820241044694,0.007691279692951802,1.6459440793666804,19.975779539032825,-18.0977809609954,91.382111,67.94146668323026,0.0,91.38211100000001,0.6990299472223294,0.42454445,-0.03607967,0.57429731,1.0,0.0,0.0,0.0,91.3015434991422
1.6266,84274.7859,-6.483666075461369,-7.712253627917288,3.765319141297697,4.2100813860978965,-0.4921443680764076,0.28328453657692854,1.0491896241128629,19.908622407049602,-18.38775163385231,95.074837,68.77991617227232,0.0,95.074837,0.6772460124802075,0.45196989,-0.06380671,0.57705265,1.0,0.0,0.0,0.0,94.74238044270398
1.6537,84274.8059,-5.8209608660123635,-7.746272363383458,1.4825194033545852,4.2284383828618015,-0.34204762404107253,0.5085486538617547,0.5011605925170812,19.440545327494227,-18.947208783268323,98.676598,69.67767939785844,0.0,98.67659800000001,0.6543312614706656,0.47729689,-0.08710295,0.58004427,1.0,0.0,0.0,0.0,98.2620758203374
1.6665,84274.8259,-4.891894073429176,-7.435137573684186,-0.9405223967947443,4.233186165760539,-0.2534081239607543,0.7061994708758768,0.1634371734763569,18.664144625176153,-19.749676663817993,101.871635,70.45358828912757,0.0,101.87163499999997,0.6321537372703576,0.50016552,-0.10813662,0.58182693,1.0,0.0,0.0,0.0,101.58159856671075
1.6859,84274.8459,-3.7581087077470956,-6.749064121478366,-3.0478868961095786,4.2162194069686425,-0.23996902494687988,0.846802073799241,-0.208600837496693,17.373129813251005,-20.991797072904923,104.31105,70.41304797032305,0.0,104.31105000000002,0.615490011739861,0.51992047,-0.11935573,0.58018011,1.0,0.0,0.0,0.0,104.02493190588493
1.7066,84274.8659,-2.6999019312520325,-5.89324786832881,-4.672369777376258,4.090543869298402,-0.32325002071136155,0.9473383325075111,-0.5831487447188213,15.872911386113419,-22.34403365827073,106.553795,69.87054834321938,0.0,106.55379499999998,0.6007154591467565,0.53946716,-0.12638038,0.57631946,1.0,0.0,0.0,0.0,106.15768832821907
1.7295,84274.8859,-1.8849099548620818,-5.043146916859601,-5.672897565037846,3.7328219161622687,-0.484039049719694,1.0153248103387407,-0.8893789879142204,14.449864782632929,-23.60556631618118,109.262009,69.62581116168039,0.0,109.26200900000003,0.5823116193397894,0.55940759,-0.13367009,0.57455081,1.0,0.0,0.0,0.0,108.77341116765793
1.751,84274.9069,-1.3035975494972298,-4.377229210015971,-5.960927013775704,3.0609815934656264,-0.6777344779025918,1.0313498672163939,-1.0703803913854664,12.97114471401774,-24.90198122801888,112.270195,70.10111995743061,0.0,112.270195,0.5612226010022546,0.57572973,-0.13913134,0.57810634,1.0,0.0,0.0,0.0,111.71921803521066
1.7726,84274.9279,-0.8172780673231368,-4.135558529138688,-5.700831247353144,2.0801181993486297,-0.8894700608041766,0.9854562934332678,-1.047281295115429,11.451727454548092,-26.238544542803663,115.135292,71.29231278647254,0.0,115.13529199999999,0.5398663270046359,0.58670247,-0.14339101,0.58631355,1.0,0.0,0.0,0.0,114.65092077880918
1.7983,84274.9489,-0.2527729139052082,-4.311474940575467,-5.053775403383906,0.8764982184779679,-1.0969230068242497,0.9257665137170433,-0.9008244302639579,9.385145282943864,-27.76693191518205,116.439026,72.44235693994665,0.0,116.43902600000001,0.5305816176288097,0.58709908,-0.14194104,0.59468526,1.0,0.0,0.0,0.0,115.91047837190045
1.8123,84274.9689,0.44944059243674506,-4.770658413935138,-4.232331066169688,-0.416438216728078,-1.2548261523764066,0.9365815480586552,-0.6619405549021984,6.984126196440131,-29.227608415751266,116.415634,73.77769554283282,0.0,116.41563400000001,0.5315562532361566,0.57780427,-0.13674282,0.60406256,1.0,0.0,0.0,0.0,115.77866997448398
1.8382,84274.9889,1.1515698114678528,-5.184585524485741,-3.338341442402678,-1.651240325740897,-1.3209526601346255,1.0583913409962056,-0.31708678246743816,4.3595254148235645,-30.42633501707408,115.31588,75.51665471636716,0.0,115.31587999999999,0.5409302485711597,0.55839801,-0.12720837,0.61595792,1.0,0.0,0.0,0.0,114.50602525384086
1.8571,84275.0089,1.6924269685989346,-5.223278726384286,-2.457299784190595,-2.686854369756206,-1.2930416878790056,1.262558315066689,0.08852217097714465,1.6255601576302814,-31.205935960377246,113.837486,77.81182258905869,0.0,113.83748600000001,0.5544219533529872,0.52998841,-0.10976154,0.63220328,1.0,0.0,0.0,0.0,112.65818081911112
1.8731,84275.0289,2.020563471375892,-4.751076844884742,-1.6604779525164997,-3.4274756123110834,-1.2164909436685094,1.4920061534643612,0.4615914012354114,-1.0405341440061004,-31.480148060522005,112.586464,80.61647399136716,0.0,112.58646399999998,0.5678363799486507,0.49543136,-0.08164244,0.65226078,1.0,0.0,0.0,0.0,110.80102531758884
1.8903,84275.0489,2.2528462486004703,-3.8518762076965496,-0.9357499979737405,-3.8331211455961496,-1.2376697733766413,1.6895483820105415,0.8676538615649037,-3.189345202548833,-31.294600930769615,113.178825,85.00764765720844,0.0,113.17882500000002,0.5694752927472928,0.45956114,-0.04126766,0.6802929,1.0,0.0,0.0,0.0,110.57271115519353
1.9087,84275.0689,2.2650667451749515,-2.742081184814292,-0.12649721233098887,-4.0080840805082065,-1.2797061981994726,1.8222123278501012,1.320914222429714,-4.5289171237345816,-30.82310377416717,113.793365,89.67587459959955,0.0,113.793365,0.5681618571843319,0.42363366,-0.00242325,0.70549327,1.0,0.0,0.0,0.0,110.75570864330568
1.9288,84275.0889,2.0791280767482974,-1.4306760898233197,0.9146618348152895,-4.042739782011204,-1.3684355618051383,1.8801786532270803,1.8378259335605733,-5.010152771345458,-30.235371339937725,114.615944,94.60122801267083,0.0,114.61594400000001,0.5628203393213496,0.38887918,0.03195438,0.72868729,1.0,0.0,0.0,0.0,111.49786344617199
1.949,84275.1089,1.6925340622139942,0.16354056358784974,2.18024122060773,-3.9918681695786753,-1.5074198264006504,1.8861973257208209,2.3171349988096157,-4.872691410480074,-29.608215010137542,115.7313,99.6692360499295,0.0,115.73130000000003,0.5537267211072934,0.35557672,0.06329045,0.75029743,1.0,0.0,0.0,0.0,112.75388159014553
1.9755,84275.1289,1.0635529841672229,2.072225000532618,3.5343029678224553,-3.8628392935630376,-1.6534535266489696,1.8580220368076454,2.714414282188171,-4.460274335006716,-28.942839032645004,116.955231,104.75677375195018,0.0,116.95523100000003,0.5423366986077399,0.32214478,0.09361583,0.77027899,1.0,0.0,0.0,0.0,114.31429968389982
1.9929,84275.1489,0.05393077085102149,4.258186368078828,4.838238587656541,-3.656739611576551,-1.730459781366885,1.7832645049040277,3.2195920788043466,-4.071693760220467,-28.20074552165949,117.947762,109.80154163133012,0.0,117.94776200000001,0.5303682108358574,0.28378755,0.12291709,0.78934503,1.0,0.0,0.0,0.0,115.93932654808732
2.0101,84275.1689,-1.313917293184533,6.563293426925061,6.023852753074532,-3.4149600115614427,-1.6655397982047542,1.6697922550867672,3.705255215788627,-3.703582705583785,-27.41534896869299,118.462189,114.05539656079439,0.0,118.46218899999997,0.519963708801286,0.24282385,0.14955808,0.80517495,1.0,0.0,0.0,0.0,117.34036562518823
2.033,84275.1889,-2.833850581169888,8.515192596792543,7.139721342675063,-3.234043137577985,-1.4900259738887103,1.4983366090247525,3.867510121105333,-2.828832331970844,-26.71584348131622,119.102036,117.20352386697544,0.0,119.102036,0.5096492805967241,0.21013544,0.1670102,0.81744009,1.0,0.0,0.0,0.0,118.7190573527077
2.0485,84275.2089,-4.242844384358623,9.814518475372616,7.952562895413159,-3.1805125364337803,-1.2970465300696992,1.2682448660817536,3.4969969521322657,-1.571857076864558,-26.090299769500092,120.572762,120.21365822739003,0.0,120.57276200000001,0.495188469185652,0.18886217,0.18027546,0.8286255,1.0,0.0,0.0,0.0,120.63564204913634
2.0702,84275.2289,-5.507917057142041,10.587481765302247,7.816498847935673,-3.238225950190969,-1.1422337320199583,0.9628819588032121,2.935112474975435,-0.8090308349392421,-25.38472632979231,122.412155,123.84997089362362,0.0,122.41215499999998,0.4761611925439507,0.16551264,0.20128149,0.83985823,1.0,0.0,0.0,0.0,123.13003576913322
2.0903,84275.2489,-6.364972699688439,11.256131013469936,6.415430076813504,-3.331439551322373,-0.9405402476578635,0.5709945382574837,2.6594832098692462,-1.1681076669083303,-24.50855214492562,121.89315,125.98040390742469,0.0,121.89314999999999,0.4679619591399347,0.12997156,0.23373562,0.84231031,1.0,0.0,0.0,0.0,124.19583196360425
2.1091,84275.2689,-6.552300198770385,11.514192857582572,4.619058556206413,-3.354232739572212,-0.672999454511648,0.13851557392497083,2.4356053169923317,-1.5952912331425289,-23.493561590768152,119.53492,126.19059952555253,0.0,119.53492,0.4706424003765549,0.09704989,0.26480785,0.8360346,1.0,0.0,0.0,0.0,123.84799157039274
2.1302,84275.2888,-6.45977108362874,11.25661883064016,3.1193997172147725,-3.294292393592952,-0.3999639846098342,-0.28306035306831046,2.003081124834429,-1.3154578010199272,-22.428954503960878,117.94252,126.55156378369838,0.0,117.94252,0.4701115437767451,0.07552195,0.28889602,0.83056045,1.0,0.0,0.0,0.0,123.91692534900466
2.1481,84275.3089,-6.441403094452598,10.877098786764545,1.7057736621823452,-3.2180826832552363,-0.13940879482551027,-0.7384986981515675,1.557741089554292,-0.6495586056465106,-21.331741188351298,117.098816,127.49843638876094,0.0,117.098816,0.4644107557120941,0.05735556,0.3112914,0.82712191,1.0,0.0,0.0,0.0,124.65581232730209
2.1681,84275.3289,-6.358223530048148,10.623598712306027,0.10543733675516265,-3.162061576828197,0.11205745934877953,-1.2800744304346445,1.2079056500677972,0.03675815088381018,-20.25657531667543,115.583237,128.16726578522858,0.0,115.583237,0.4602463410862143,0.03810148,0.33693904,0.8204838,1.0,0.0,0.0,0.0,125.19399083202308
2.1881,84275.3489,-5.944763741398544,10.456696927148664,-1.6477649278100817,-3.1238141125605443,0.3521711656921343,-1.8881062008229446,0.9422170451260428,0.8211836114960818,-19.275781855034552,112.524071,127.74954069001379,0.0,112.52407099999999,0.4642916207836348,0.02215178,0.36380091,0.80721217,1.0,0.0,0.0,0.0,124.67122681310661
2.2081,84275.3689,-5.131309862892495,10.142051974184364,-3.3953012725023424,-3.1071161272303707,0.5580490334318055,-2.45852325197821,0.6896702552936009,1.934807316689557,-18.399970081356454,108.261169,126.34853005014452,0.0,108.261169,0.4771014279210476,0.01659207,0.3877697,0.78850085,1.0,0.0,0.0,0.0,123.0074756005734
2.2385,84275.3889,-4.08012196098108,9.403500020139754,-5.162561036412901,-3.1220806795421496,0.6524024082160418,-2.8743406146191033,0.4210404147727438,3.259295889852914,-17.604841775397446,103.174599,124.64722594384688,0.0,103.174599,0.4940899260927017,0.0209784,0.41152629,0.76555938,1.0,0.0,0.0,0.0,120.7804861533975
2.2573,84275.4089,-2.9870010547208934,7.948282087190704,-6.766039124845397,-3.1424837242249857,0.629041601670159,-3.040695077141472,0.13061632546386015,4.919451989947956,-16.816374320956747,98.152237,123.11937781140301,0.0,98.15223700000001,0.5112860389227843,0.03650787,0.431844,0.74213511,1.0,0.0,0.0,0.0,118.50093965138456
2.269,84275.4289,-2.0662166998870894,5.885063171339169,-8.098989173432024,-3.0596851596132946,0.4758688425188067,-2.9773166331381415,0.03227422831971083,6.764319057195193,-16.019201975971782,93.136597,121.36861257762635,0.0,93.136597,0.5292086085227756,0.05467416,0.44770262,0.71868724,1.0,0.0,0.0,0.0,116.0960014481747
2.2914,84275.4489,-1.4004352042109678,3.615425003551542,-8.950219634548697,-2.808833489562294,0.18904271579618637,-2.738168746484535,0.13113258736327804,8.64344232910564,-15.27511442735027,88.197716,119.34449244054332,0.0,88.19771600000001,0.5469330945310926,0.06911508,0.46025997,0.69587934,1.0,0.0,0.0,0.0,113.68627242238352
2.3142,84275.4689,-0.9216382487619287,1.577899676312632,-9.13684886555388,-2.3916279288087736,-0.1459605880471182,-2.393173799933738,0.3598064807945063,10.755712129231545,-14.450318656574847,84.596146,117.0018098353908,0.0,84.59614599999998,0.5636906700984393,0.0826478,0.46348485,0.6786781,1.0,0.0,0.0,0.0,111.37716315592931
2.3404,84275.4889,-0.537414516276881,0.07551775457444482,-8.768295055341653,-1.8472675523435222,-0.5745766353340521,-2.0082292830741064,0.5853355744160496,12.488154281038915,-13.947272721708437,80.577782,114.56697009242923,0.0,80.57778200000001,0.5796549719018298,0.08351954,0.47010863,0.66031998,1.0,0.0,0.0,0.0,109.14744228086414
2.3523,84275.5089,-0.20901505160622558,-0.7447408989739197,-7.892923537263801,-1.2323889716613303,-0.9837202580225588,-1.626061482140208,0.8355093661145228,13.904871597872969,-13.759186199209228,76.351753,111.5852612069518,0.0,76.35175300000003,0.5976473416214442,0.07731104,0.47623864,0.64034164,1.0,0.0,0.0,0.0,106.59682785909479
2.3719,84275.5289,0.0611233691151003,-0.8760641533172745,-6.667913431208988,-0.5955219169358645,-1.3041288553323986,-1.3284274657605994,0.9562646003299,15.239168616241795,-13.597209005877527,73.651321,108.50071500353201,0.0,73.651321,0.6144230112592087,0.07082716,0.47483188,0.62610108,1.0,0.0,0.0,0.0,104.17998556837277
2.3887,84275.5489,0.32037252049438614,-0.4228856280666291,-5.226514351342688,0.040756059074561146,-1.5219115745751477,-1.173035396914155,0.5557681014421507,16.386148885201848,-13.510071061349652,73.055099,106.56012672092781,0.0,73.05509899999998,0.6240178504502217,0.06148511,0.46909925,0.6219061,1.0,0.0,0.0,0.0,102.77972691546906
2.4085,84275.5689,0.5631808850811391,0.36775296500181387,-3.653705730596723,0.6077822542979723,-1.602021523447361,-1.1588690721027084,-0.043901747605446406,17.29348224765885,-13.501688691090301,73.214249,104.52148943815631,0.0,73.214249,0.6336749859847381,0.05492675,0.45782337,0.62115765,1.0,0.0,0.0,0.0,101.35644042224585
2.4327,84275.5889,0.7758906271655723,1.236009436450572,-1.9912659442747245,1.028165791537797,-1.5588023143931962,-1.1907299026673466,-0.5243030564799884,17.92661475193218,-13.643389611662208,73.034622,101.52492477379359,0.0,73.03462200000001,0.6482671331926367,0.0531886,0.44139951,0.618132,1.0,0.0,0.0,0.0,99.17784359964823
2.4511,84275.6099,0.9450857078005876,1.8319536951083149,-0.25850670008360055,1.2347204323806462,-1.4129200206614754,-1.181005580467435,-0.737626058677868,18.49265419865627,-13.742366807261407,72.466347,97.40858340741897,0.0,72.46634699999998,0.6680947527246204,0.06160678,0.4180719,0.6124295,1.0,0.0,0.0,0.0,96.15962666087603
2.4702,84275.6299,1.0364992333483896,1.8491728293256477,1.4367271716078633,1.2402379897358224,-1.1606460158579277,-1.102196973080687,-1.2922557158723103,19.076634140085194,-13.704961927883256,72.931931,94.43432032628377,0.0,72.93193100000002,0.6810991211499348,0.07835928,0.39336616,0.61255765,1.0,0.0,0.0,0.0,94.14081587004385
2.4897,84275.6499,0.7090624306241251,1.3340710875568824,2.81963676828542,1.1281296174826283,-0.8701543329574067,-0.9367850379879675,-1.8114805839166654,19.443502782597516,-13.921555924743014,73.480042,91.84129245705566,0.0,73.480042,0.6922265586660666,0.0908848,0.36975905,0.61305839,1.0,0.0,0.0,0.0,92.38676052967848
2.5145,84275.6699,-0.14855318684695984,0.6216201718040177,3.624642725065293,1.0361617267069885,-0.6079100231637145,-0.7588441365225438,-2.1711787565068184,19.436973010077246,-14.64988080819736,73.285408,89.60320224842856,0.0,73.28540800000002,0.7028085197658936,0.09381218,0.35339817,0.61022061,1.0,0.0,0.0,0.0,90.69446299880171
2.5325,84275.6899,-1.189350478773055,-0.0033709568247535238,3.867144671628491,1.084653299710837,-0.41958480867668996,-0.6656093187855853,-2.8938544738390126,19.073789283862276,-15.70456586602468,73.239418,89.24736027573587,0.0,73.239418,0.7050292848366707,0.09036421,0.35054153,0.60982674,1.0,0.0,0.0,0.0,90.33618004769134
2.5516,84275.7099,-2.097296336764929,-0.6979613980301851,3.8173016474269055,1.2820063408744462,-0.37401072777044475,-0.6798673201707828,-3.5120620245625482,18.893059144552623,-16.423882917656798,73.050476,88.94524220996041,0.0,73.050476,0.705786657835763,0.09567973,0.35004359,0.60842425,1.0,0.0,0.0,0.0,90.21373594063807
2.5722,84275.7309,-2.7923433418109713,-1.6352688494780434,3.6931084586249536,1.5548663309679245,-0.49607420992606166,-0.7691153608809276,-3.511209765289351,19.3970451521501,-16.37984330826574,72.616608,86.84461090188077,0.0,72.61660799999999,0.7122802391689956,0.11885863,0.3385042,0.60327804,1.0,0.0,0.0,0.0,89.15850798953475
2.6064,84275.7509,-3.3656838937186393,-2.374173866922901,3.6049243566359888,1.855422743188022,-0.714820460340803,-0.8956432452192186,-3.25706055504543,19.812433908584538,-16.399969110325145,72.463173,84.50488509508268,0.0,72.46317299999998,0.7201466644472878,0.13660118,0.32220516,0.59909326,1.0,0.0,0.0,0.0,87.86681869385238
2.6259,84275.7719,-3.6123007979011676,-2.7682618656150715,3.671954451424682,2.179443556504367,-0.9152546123397138,-1.1026613349254624,-3.2956297857828907,19.765116974210365,-16.832866244513554,72.59697,83.21293226438492,0.0,72.59697,0.724827038985254,0.14442705,0.31046367,0.59781176,1.0,0.0,0.0,0.0,87.0910771641694
2.6361,84275.7919,-3.483098473840652,-3.049460566595204,3.8881280286766877,2.518772414267216,-0.9970661276400974,-1.4360910060052592,-3.55263939564603,19.534633289644503,-17.354939023532946,72.992088,82.24940189970563,0.0,72.992088,0.7279812473758067,0.15202622,0.29884759,0.59801459,1.0,0.0,0.0,0.0,86.56515838774172
2.6558,84275.8119,-3.1021298548997738,-3.601396367316275,4.086137698128091,2.830392178179597,-0.8770825899992705,-1.836884433250256,-3.735816921440764,19.46478589486022,-17.641554096737057,73.747292,80.72246645242474,0.0,73.74729200000002,0.7323606402197498,0.1663065,0.27907261,0.59842169,1.0,0.0,0.0,0.0,85.83067672327624
2.6723,84275.8319,-2.7282283061701555,-4.5442469793065445,3.9883479434511653,3.0613988841760467,-0.5740560243937323,-2.1162580930451136,-3.4947961816622555,19.571794570679348,-17.785486628510334,73.951424,77.69625331568015,0.0,73.951424,0.7422930719914592,0.1867431,0.2495195,0.59318465,1.0,0.0,0.0,0.0,84.14576360733025
2.6965,84275.8519,-2.4811219755808933,-5.685954897156007,3.343225446337648,3.164415488384917,-0.20677114609443326,-2.1285493565283873,-3.0052383205511615,19.763558278732212,-17.881831236313708,72.956558,73.12206116834776,0.0,72.956558,0.7565345592890318,0.2148204,0.21767129,0.57803708,1.0,0.0,0.0,0.0,81.68072514995164
2.7119,84275.8719,-2.379612592564239,-6.592094700840347,2.088140238153823,3.135019185036594,0.10673350957298078,-1.848353974163939,-2.8408203583111624,19.93529322343324,-17.96803748863746,71.77375,68.42887564916472,0.0,71.77375,0.7674996959910088,0.24857178,0.19127215,0.55908072,1.0,0.0,0.0,0.0,79.74021681176728
2.7317,84275.8919,-2.3209900877215293,-6.725643915818002,0.5691064528401419,2.996325743660879,0.2526614911879662,-1.3922833039151934,-3.3701826111901187,19.746967484504836,-18.336994638011156,71.061295,64.98739220488311,0.0,71.061295,0.7715122450841717,0.27818519,0.17809148,0.54375112,1.0,0.0,0.0,0.0,79.02023594315408
2.7557,84275.9119,-2.1568182760719288,-6.1351075232257894,-0.8138800235769281,2.7859667301359785,0.21971955119507902,-0.9381311803043171,-4.523065594481114,19.039662130398426,-19.012691482659218,71.2575,63.490240061381854,0.0,71.2575,0.7685042399715618,0.29830304,0.17766298,0.5374499,1.0,0.0,0.0,0.0,79.56047947687954
2.7909,84275.9319,-1.8718879418101504,-5.364670655550413,-1.916834180086214,2.542012875420873,0.044296684688131804,-0.5911123414426144,-5.528291911324015,18.236084888778354,-19.580252395505436,72.310631,62.867042664084885,0.0,72.310631,0.762694779177975,0.31539786,0.17623198,0.5364356,1.0,0.0,0.0,0.0,80.59531383985083
2.8076,84275.9529,-1.2862630066163443,-4.733362447716133,-2.544517329600521,2.2707987069871844,-0.17837181071356395,-0.39030506179360036,-6.050795995976677,17.406764954513584,-20.089035214070904,73.046524,61.90972070008953,0.0,73.046524,0.7592148636623672,0.33067337,0.17229551,0.53344369,1.0,0.0,0.0,0.0,81.2099383796142
2.8226,84275.9729,-0.3376806457927555,-4.3520070531471475,-2.697682831342968,1.981768466163044,-0.27278895447140344,-0.24620023959894644,-6.041089329390228,16.42987696873258,-20.73413130616023,73.397484,61.182914420120646,0.0,73.39748400000002,0.7591122772792912,0.33867058,0.16503689,0.5308612,1.0,0.0,0.0,0.0,81.22799881213881
2.8357,84275.9929,0.9212244885240142,-4.078989285189104,-2.56470758078912,1.6753998640758199,-0.102676017625908,-0.04303353787166553,-5.780962734212091,15.20068428924997,-21.54543346388832,73.767151,61.43248119504989,0.0,73.76715100000001,0.7598869369220405,0.33756202,0.15781513,0.53265196,1.0,0.0,0.0,0.0,81.09153697689639
2.8572,84276.0129,2.2352869111834344,-3.8208232642012345,-2.492427233325653,1.3174171357034483,0.31423749288269953,0.324916980344446,-5.3600402627078685,14.155937674611156,-22.191856826277473,73.854492,61.2708446331583,0.0,73.854492,0.7619601841269736,0.33773389,0.14905429,0.53210461,1.0,0.0,0.0,0.0,80.72538108916301
2.8763,84276.0329,3.3525916864935317,-3.496651441960508,-2.7285517393453382,0.8833972548815451,0.8792541046820135,0.9521171693690667,-5.10117021010501,13.280009659920456,-22.61369644017726,73.796638,60.70161386674658,0.0,73.796638,0.7632000324926915,0.34157327,0.14372157,0.52933687,1.0,0.0,0.0,0.0,80.50575265664828
2.8941,84276.0529,4.051353404707125,-3.0593863321789154,-3.3415418350264714,0.39614996095780497,1.4265033619363314,1.8404629080135135,-5.178536443726372,12.398982519086307,-22.822700684694446,73.698456,60.002716785771874,0.0,73.698456,0.761935978619829,0.34814364,0.14716978,0.52591884,1.0,0.0,0.0,0.0,80.7296639544847
2.9138,84276.0729,4.195820184062646,-2.2757891740704106,-4.092605490340356,-0.11437101843561281,1.8513506080108586,2.8164251845183474,-5.612909711129517,10.840596102431695,-23.054273159629325,73.696274,60.784348671220215,0.0,73.69627400000002,0.7562555129247085,0.34573153,0.16795944,0.52946854,1.0,0.0,0.0,0.0,81.7296100628556
2.9421,84276.0939,3.6451652583577787,-1.2214362436310424,-4.703451862553368,-0.6557563292363611,2.022099427014478,3.6570045231851918,-5.866974232391233,8.928817899646928,-23.12951624332913,75.074654,64.20668668202728,0.0,75.07465400000001,0.7426644155129092,0.33506888,0.19699328,0.54531831,1.0,0.0,0.0,0.0,84.08223955131294
2.9566,84276.1139,2.4515812347088017,-0.075890811321217,-5.048690343724733,-1.211208340131482,1.82843334128007,4.177966399241237,-5.692691195246528,7.015407758766777,-22.961775239936557,78.131683,70.4660949505292,0.0,78.13168300000001,0.7198885890949602,0.31906632,0.22992921,0.57191753,1.0,0.0,0.0,0.0,87.90943417277987
2.9741,84276.1339,0.8782660990819144,0.7578670875784457,-5.154969605628402,-1.702313648484251,1.1936981218333917,4.351274429626093,-5.003226666466741,5.662809145527049,-22.52774733793013,82.581314,78.4333968941591,0.0,82.58131400000002,0.6903174250503467,0.30413008,0.25957957,0.60298026,1.0,0.0,0.0,0.0,92.68951787044165
2.9953,84276.1539,-0.586940743040167,1.0565652788980828,-5.052094397221574,-2.054682401633034,0.2599926481405706,4.247574940548653,-3.6831863964021068,4.934047510845227,-22.00369121499534,85.955055,85.0030296722319,0.0,85.95505500000002,0.6675387643919578,0.28959754,0.27969679,0.62633455,1.0,0.0,0.0,0.0,96.24522302442116
3.0348,84276.1739,-1.4257609491404324,1.0440238225854503,-4.672770711534927,-2.1973012250091175,-0.7446123034820779,4.066286057887815,-2.269815130640076,4.173584545121855,-21.51552832743992,87.111053,90.34866761151478,0.0,87.11105299999997,0.652567410804992,0.26852125,0.3019489,0.64099842,1.0,0.0,0.0,0.0,98.52909099644594
3.0367,84276.1939,-1.4305694734344727,1.0349130136600868,-3.7670733952646653,-2.0999191494598035,-1.7005052078972671,3.952156160442323,-0.9530027841689446,3.620839227385809,-21.041379385313117,87.516022,94.826189393027,0.0,87.51602200000002,0.6418129827448062,0.24352629,0.32071555,0.65261978,1.0,0.0,0.0,0.0,100.14571543448382
3.0702,84276.2139,-0.8280323988324874,1.4508789026047977,-2.178077623381742,-1.780924967975856,-2.4224287210705593,3.8303263787788167,0.3212347957674133,3.463654149659228,-20.591628335584446,88.81955,98.88904019425485,0.0,88.81954999999999,0.6321676295414332,0.21240351,0.32809013,0.66903341,1.0,0.0,0.0,0.0,101.57954402317918
3.079,84276.2339,-0.3346152279606356,2.853652091633912,-0.029231978607732856,-1.1957269131709691,-2.6292204277445945,3.6442920991133816,1.4032377063671841,3.1560391430354278,-20.274292822542478,92.133797,105.02456803222742,0.0,92.13379700000002,0.6117466357835094,0.15885486,0.33438131,0.69908535,1.0,0.0,0.0,0.0,104.56819293075947
3.0944,84276.2539,-0.529870191292237,4.903052521166857,2.381026614448288,-0.5995630849644245,-2.2661192332209525,3.2521819419128883,2.1003372137245933,3.3276449592336963,-20.02202334782809,96.421707,109.39516602535363,0.0,96.42170699999997,0.590569569898616,0.1112576,0.32686129,0.72939086,1.0,0.0,0.0,0.0,107.60512593542701
3.1167,84276.2749,-1.552838933274229,6.798467290511458,4.686626746226837,-0.2224253036122108,-1.5110181757008034,2.6659743492991046,2.282854873189237,3.999597328695005,-19.83185062523222,100.897453,112.09779621284551,0.0,100.89745299999998,0.5724670284845994,0.08324732,0.3063904,0.75596052,1.0,0.0,0.0,0.0,110.15512211022295
3.142,84276.2949,-2.905309317462107,8.121548595454426,6.556988882295055,-0.1136857388367527,-0.6253141103366058,2.033845964894818,1.6917873478365753,4.722682246700503,-19.725906860048553,105.166809,114.7588945223036,0.0,105.166809,0.553151430441664,0.07755726,0.28899738,0.77748883,1.0,0.0,0.0,0.0,112.83303187895997
3.1651,84276.3159,-4.059445498702001,9.424005559943854,7.6031400641116385,-0.26437825995405373,0.15003158340921097,1.4539356503076777,0.6171231582393002,4.529319744879414,-19.768883675318552,107.691544,117.556557656288,0.0,107.69154400000002,0.5348135483126445,0.07869016,0.29489297,0.78792161,1.0,0.0,0.0,0.0,115.33746479253934
3.1767,84276.3359,-4.578365411642169,10.596728188937796,8.065281924937064,-0.5795772255357312,0.5830395898615385,0.9515423618161987,-0.5410688126770857,3.770528104284574,-19.728134390952288,108.887955,120.36062018507941,0.0,108.88795500000003,0.5183832455310868,0.08457367,0.31681216,0.78978235,1.0,0.0,0.0,0.0,117.55226968295852
3.1978,84276.3559,-4.400947753245315,11.219360563922068,8.312444299313658,-0.9585542162978632,0.7269866939453643,0.5805039165839967,-0.9694595279963494,3.4186211755348475,-19.410964855887627,108.480667,120.89588565180206,0.0,108.48066699999998,0.5166806705047322,0.09482469,0.3284848,0.78495038,1.0,0.0,0.0,0.0,117.78028070353568
3.2263,84276.3769,-4.2927844753831,11.595778736442243,7.920765424866378,-1.344638282046235,0.8109631300604061,0.25739190761420194,-0.5184317325240979,3.156386505370674,-18.969437569406338,107.585533,120.65930603264817,0.0,107.585533,0.5189430306719756,0.09020761,0.33422315,0.78157252,1.0,0.0,0.0,0.0,117.47724248559602
3.2386,84276.3969,-4.2380491142660315,11.87018207014387,6.666488796126821,-1.6740269377201291,0.9832187975881927,-0.12883744023027544,0.14236819786807686,2.7998413759171528,-18.443949909217327,106.85141,121.18800299104178,0.0,106.85140999999999,0.5161423172924419,0.07540445,0.34576729,0.77997196,1.0,0.0,0.0,0.0,117.85232065855912
3.2673,84276.4169,-3.8537848350657167,11.80623347148148,4.733764682604667,-1.8985299521189192,1.2919894147816797,-0.6256415170356782,0.5308663796582866,2.5996458956965838,-17.845688403193755,105.819855,122.04601988164612,0.0,105.81985500000002,0.5120950792732822,0.06713062,0.3635653,0.77528858,1.0,0.0,0.0,0.0,118.39303408896289
3.2813,84276.4369,-3.313638659820191,11.199987054113663,2.293855584553164,-2.014563713487042,1.6546257356412264,-1.2355338416560746,0.6754737343032975,2.6011651540080076,-17.22202423478334,104.229393,122.94171958449337,0.0,104.22939300000002,0.5091645883098245,0.06700195,0.38508251,0.76679438,1.0,0.0,0.0,0.0,118.78360120393224
3.2976,84276.4569,-2.6337066086124663,9.929898144504993,-0.35707399633365,-2.013075457524102,1.9634236492526345,-1.8715183085972937,0.6207325270269788,2.824213864688688,-16.58924777541878,101.490974,123.43553339499479,0.0,101.490974,0.5110762409058279,0.07801185,0.40884107,0.75204003,1.0,0.0,0.0,0.0,118.52891153868524
3.3176,84276.4769,-1.986623306089319,8.077386437611663,-2.947776735007734,-1.8734486033423985,2.114090636642305,-2.446739552792997,0.5252488917531455,3.187431457794669,-15.95969713572216,96.964539,123.26782813908967,0.0,96.964539,0.5194219400615812,0.09716018,0.43485248,0.72915298,1.0,0.0,0.0,0.0,117.41303127172615
3.3373,84276.4969,-1.5892358031477662,5.709234755014882,-4.936360772036202,-1.6001188022236885,2.142522018385464,-2.8364870710372245,0.5318341125125112,4.232430077238281,-15.208036333295027,93.617783,122.89552987445371,0.0,93.61778300000003,0.5276893676698595,0.12713873,0.44885197,0.7098673,1.0,0.0,0.0,0.0,116.3010655162323
3.3601,84276.5169,-1.3584994565672137,3.5096677186439984,-6.4164653377639915,-1.1877007161523274,2.0113489339215564,-3.1177036337076545,0.7966277113367886,5.404944136386736,-14.431956144022859,90.167229,122.11365775653063,0.0,90.16722900000002,0.5366896400634048,0.15443677,0.4594447,0.6906693,1.0,0.0,0.0,0.0,115.08285728747839
3.3956,84276.5369,-1.074977856125984,1.8001168662851,-7.25784875310873,-0.6914749169930265,1.8246873632809868,-3.2729697347891076,1.233742408831655,6.750562559500647,-13.61430473721216,87.649582,120.99136352620428,0.0,87.64958200000001,0.5447613321832597,0.18272761,0.46350992,0.67454004,1.0,0.0,0.0,0.0,113.98328916337086
3.4112,84276.5569,-0.744845247132016,0.8328223271848312,-7.548985837610868,-0.14251807962545793,1.6056624441113678,-3.309522974227487,1.9837890021625695,7.949625000913413,-12.857234766754086,84.651031,117.98357516877387,0.0,84.65103099999999,0.5590921693667539,0.20832705,0.46129531,0.65667528,1.0,0.0,0.0,0.0,112.01392313864014
3.4264,84276.5769,-0.5146971906417425,0.6138007783149152,-7.4118066923616315,0.3179045845805424,1.3406805025771487,-3.1922392182039614,2.8190409380596897,8.849770615124765,-12.264711573203652,80.834137,113.38136419150476,0.0,80.834137,0.5770195750914795,0.23443025,0.45703453,0.63498843,1.0,0.0,0.0,0.0,109.51762539528437
3.4501,84276.5969,-0.4563780409856173,0.8654772068349079,-7.031337702668662,0.573442633989502,1.0703001555558729,-2.9225262080024756,3.4244342738326066,9.672490480772595,-11.739977594060335,78.69146,108.8287109045261,0.0,78.69146,0.5885656855494407,0.26544723,0.44982406,0.61707902,1.0,0.0,0.0,0.0,107.88941834346156
3.4639,84276.6169,-0.5421949840234641,1.2922884848055984,-6.603953587029241,0.6445967625828416,0.7285739102789648,-2.595551654820392,3.689030678157259,10.224802838144733,-11.480389754483507,77.113708,105.70463980765271,0.0,77.11370799999997,0.5934602790857629,0.28886628,0.4474065,0.6034804,1.0,0.0,0.0,0.0,107.19410690082205
3.4834,84276.6369,-0.7423520717880575,1.6503537944046405,-6.24985315240915,0.6463598827803272,0.3289589948919657,-2.2623827917684136,3.9774532181640097,10.521322262647011,-11.400011955315792,75.522072,101.50200129460566,0.0,75.52207199999998,0.6015514356998056,0.3052595,0.44178739,0.59141898,1.0,0.0,0.0,0.0,106.03781592740094
3.5011,84276.6569,-1.0455969398614653,1.8424642398352178,-6.003003292735071,0.624117124969832,-0.09432008936174544,-1.9772011460687064,4.320867669184598,10.70909343168078,-11.394750255124464,74.575653,96.01467200666158,0.0,74.57565299999999,0.6122693102993172,0.31958732,0.4304978,0.58108681,1.0,0.0,0.0,0.0,104.49245926433399
3.526,84276.6769,-1.420788885236317,1.9303093652180232,-5.8679470685029544,0.6222367044540495,-0.545859335815544,-1.7905068926834444,4.411941821061002,10.861898593076024,-11.572543521259583,74.181488,92.4397543597391,0.0,74.181488,0.6191623009425247,0.32765481,0.42231303,0.57526696,1.0,0.0,0.0,0.0,103.49002595183636
3.5378,84276.6969,-1.6882233468854857,2.012653981636881,-5.760271259883862,0.7009754749572625,-1.0312143987445999,-1.698815840466407,4.323658536237098,11.014917388013563,-11.912220262803368,73.834511,90.12990451575085,0.0,73.83451100000002,0.624914116045228,0.33012637,0.41625848,0.57203829,1.0,0.0,0.0,0.0,102.64823184534372
3.558,84276.7169,-1.6149300884675295,2.158757052607468,-5.4869118533726775,0.8488410137196146,-1.5237025381653737,-1.6555730260180734,4.366202689830954,11.252973418259199,-12.20217110508892,73.757927,85.93089976806517,0.0,73.757927,0.6358605851119036,0.33435696,0.40207881,0.5676437,1.0,0.0,0.0,0.0,101.03231656337721
3.5843,84276.7369,-1.1492030803110307,2.3716620843967005,-4.851562020222785,1.0242062706528916,-1.9681827745801195,-1.6014091641035382,4.394269817201938,11.626699233143821,-12.398422206532027,74.481262,81.23998052234957,0.0,74.48126200000002,0.6492001997761503,0.33933938,0.38015011,0.5646891,1.0,0.0,0.0,0.0,99.03734505237507
3.6091,84276.7569,-0.48278281463244266,2.6159366894267793,-3.750681557266149,1.2068667716151467,-2.2976542876827817,-1.5030313594060702,4.251911778515492,12.098449955974905,-12.563376509524577,76.017548,77.64596792347386,0.0,76.01754800000003,0.6626172255745139,0.3415564,0.35254493,0.56567633,1.0,0.0,0.0,0.0,97.0004318684138
3.6206,84276.7769,0.07615903570839455,2.7690550069774313,-2.2038597584516033,1.398132756422394,-2.4452716968627333,-1.4054311636049968,3.755347954378485,12.732610942344193,-12.734148504164175,78.838196,75.79469738546724,0.0,78.83819599999998,0.6715348536482874,0.34405336,0.32106519,0.57235074,1.0,0.0,0.0,0.0,95.62872730823102
3.6412,84276.7969,0.20548391711473002,2.7156816793058898,-0.45364619863222444,1.6205870704407337,-2.4231245781791166,-1.3332628538665008,3.0827684999584566,13.404911032829704,-13.057321363669107,81.861397,74.75624840086302,0.0,81.86139700000001,0.6787721428327868,0.34618816,0.28557587,0.58126462,1.0,0.0,0.0,0.0,94.50446339170693
3.6608,84276.8169,-0.11873872549853814,2.3299551806014183,1.1390212753082665,1.9384322573050137,-2.2748433956647776,-1.3059964491976188,2.1510427176119515,14.0245700908964,-13.691736704837805,84.74617,74.57584842520822,0.0,84.74617,0.6819320600990584,0.34901622,0.25280967,0.59096837,1.0,0.0,0.0,0.0,94.01038771673285
3.6811,84276.8369,-0.6115671415002994,1.509390871777404,2.3005815110433367,2.3992624444152377,-2.0814642868305957,-1.3076230114031204,1.1072971077927818,14.521433246960237,-14.603332086402057,87.238968,74.33990415125625,0.0,87.238968,0.6825516905594924,0.35539982,0.22356659,0.59819072,1.0,0.0,0.0,0.0,93.91327124800908
3.6976,84276.8569,-0.9106497989360118,0.3357050267168268,2.9509765271174757,3.0166321731557746,-1.9374954760877314,-1.276887807697904,0.19894898854793652,14.858178706545573,-15.654581167489438,88.979958,73.10149528610896,0.0,88.97995800000001,0.6841852932155889,0.36708423,0.19472796,0.59935021,1.0,0.0,0.0,0.0,93.65686256625253
3.7167,84276.8769,-0.8610966678751604,-0.9513360242049934,3.1423198104213963,3.7885809896455553,-1.878747157015037,-1.1274082017854554,-0.5092612591652976,15.043628520823345,-16.701600778659497,90.502411,71.48171891473686,0.0,90.502411,0.6859010463465268,0.38208738,0.16276076,0.59754324,1.0,0.0,0.0,0.0,93.38697879919692
3.7376,84276.8969,-0.46614639404122116,-2.1874654642192435,2.9257012231001163,4.678579949607015,-1.8463870138623304,-0.7839848698235852,-1.1287428612985497,15.167720753316466,-17.611635317823044,93.148911,71.03907717346675,0.0,93.148911,0.6816815019072385,0.39867085,0.12455563,0.60071439,1.0,0.0,0.0,0.0,94.0496366386657
3.7673,84276.9169,0.3276668364786124,-3.2211377341122516,2.3359455753950513,5.571097279489084,-1.8315898840138984,-0.24411644587358872,-1.7389892681807062,15.27646123200815,-18.40244168640696,96.779984,71.56576975297348,0.0,96.77998400000001,0.6701254284840585,0.41870743,0.08103464,0.60749435,1.0,0.0,0.0,0.0,95.84650765943883
3.8054,84276.9379,1.5121693766309479,-3.9442736199766046,1.4857633558837318,6.366367444989039,-1.818175442090174,0.4302074731170551,-2.5020086791012552,15.45163490358491,-19.097657093745894,101.465836,72.9833704575376,0.0,101.46583599999997,0.6486376109291152,0.44375676,0.03601281,0.61729431,1.0,0.0,0.0,0.0,99.12207567686332
3.8268,84276.9589,2.801219183234285,-4.242382917599299,0.6665201677417159,6.969117744958923,-1.844787846461728,1.1978215867625561,-3.21429626271477,15.721925750320466,-19.7325602090204,106.520912,75.04705113472426,0.0,106.52091200000001,0.6189895577863034,0.47114334,-0.00998109,0.62831223,1.0,0.0,0.0,0.0,103.51523176220245
3.8315,84276.9687,3.6551470730652884,-3.9500775997564075,0.3106100705959616,7.292654236438363,-1.8138725653684367,2.146412616162912,-3.5393597358757116,15.667839036868445,-20.62966039172076,111.405884,79.02669691992355,0.0,111.40588400000001,0.5823316785277132,0.48892844,-0.0535354,0.64728105,1.0,0.0,0.0,0.0,108.77058370025148
3.8336,84276.9787,4.223415631545502,-2.403421335971442,0.4863810240135251,7.375881733256575,-1.736452640030198,2.891920274849618,-4.120665835788458,13.004378148703982,-23.082634821238333,111.405884,79.02669691992355,0.0,111.40588400000001,0.5823316785277132,0.48892844,-0.0535354,0.64728105,1.0,0.0,0.0,0.0,108.77058370025148
3.8401,84276.9989,3.647370453702994,-1.9287664028420926,0.6027630462381044,7.135124826268727,-1.5994008523738275,3.694222978570842,-3.928835718386333,12.629509689171023,-24.194003344248664,117.65966,84.33186774530729,0.0,117.65966000000003,0.527897421670127,0.51130766,-0.09752182,0.67110229,1.0,0.0,0.0,0.0,116.27299629536105
3.8605,84277.0189,2.6115254759755038,-1.3741215102013207,0.5860018324164624,6.679110821134316,-1.3486777377315602,4.377676687488143,-3.5354711701899912,11.603837453021427,-25.954509255582174,124.134972,90.35976598695578,0.0,124.134972,0.4652972316267827,0.53012216,-0.1301199,0.69680542,1.0,0.0,0.0,0.0,124.54107987203345
3.8806,84277.0389,1.640076048489102,-0.8303268464801286,0.27461067144760953,6.111040169278835,-1.1199128785735222,4.859804147636842,-2.9806633372079467,10.179699219273331,-28.251087460689963,130.446655,95.80532320004517,0.0,130.44665499999996,0.4008912904910059,0.54915369,-0.15180939,0.71740526,1.0,0.0,0.0,0.0,132.73218163720858
3.9053,84277.0589,0.9784472839758304,-0.24511298386929492,-0.16019644609843198,5.474691230719426,-0.9807881370638281,5.199597603395414,-2.1057634543399777,8.606010806164873,-30.875954072126223,136.643494,101.06050029331728,0.0,136.64349400000003,0.3355706175614849,0.56650639,-0.16522835,0.73427683,1.0,0.0,0.0,0.0,140.7855187374952
3.9318,84277.0799,0.6312083194954885,0.357023225840281,-0.46142053685426454,4.795589975156801,-1.0151398856219385,5.432087934522407,-0.7853076001218096,7.325784574533644,-33.52190390457302,142.998352,106.91137263485007,0.0,142.998352,0.2661365469622672,0.58119476,-0.17415877,0.74903452,1.0,0.0,0.0,0.0,149.13100492125358
3.9451,84277.0999,0.530221297585466,1.0638753894426753,-0.44575741638630717,4.162655419564888,-1.2259095392913606,5.518119249037075,0.7071476512779817,6.092782365132981,-36.0663981659729,149.103516,112.75786700351907,0.0,149.103516,0.2003127731941073,0.59348053,-0.17611304,0.75936806,1.0,0.0,0.0,0.0,156.88950050302245
3.9616,84277.1199,0.32235658876826423,1.7013375315483472,-0.007370093445246084,3.5940353384313273,-1.5622493861185767,5.4731624706744695,2.500780212645372,5.107550953173283,-38.33932039176012,155.529953,120.256668947674,0.0,155.52995299999998,0.1334557532339927,0.60168564,-0.17190176,0.76851398,1.0,0.0,0.0,0.0,164.6613338900264
3.9808,84277.1399,-0.3620106505979608,2.0061623753020976,0.8609333755712605,3.0370148077290704,-1.9470731156640704,5.333133552843131,5.064226719146415,4.370413078553147,-40.20473365224614,162.182343,131.94145855782838,0.0,162.182343,0.0672961885003335,0.60008794,-0.16355565,0.78013796,1.0,0.0,0.0,0.0,172.28259228157512
4.0101,84277.1599,-1.5208440726339507,1.6224136432086165,2.017649469170024,2.500415634460525,-2.3299400397175707,5.062349111496607,8.068015688839575,4.259161957159067,-41.55334012137933,169.05365,148.5686091756893,0.0,169.05365,0.0010810124808313,0.59100193,-0.15440668,0.79175383,1.0,0.0,0.0,0.0,179.87612507036835
4.0263,84277.1799,-2.8593794814707656,0.5711939331265028,3.188989642333457,1.9928138613449877,-2.625677016640804,4.65907123887812,10.827185059836795,4.5035914713344765,-42.51899679017472,175.878021,167.97071663673808,0.0,175.878021,0.0607284532219709,-0.57912546,0.14313172,-0.80027437,1.0,0.0,0.0,0.0,173.0367473717971
4.0491,84277.1999,-4.071521496826491,-0.8396098165875485,4.170179299852293,1.5082392421186455,-2.756995128922963,4.172253135536095,12.852337857500416,4.600406097226676,-43.348677940485786,-177.362366,-172.42163489234932,0.0,177.362366,0.1155574871917931,-0.56883848,0.12530991,-0.804591,1.0,0.0,0.0,0.0,166.72843781828064
4.0738,84277.2199,-5.11236442715778,-2.3890621830845418,4.848396870452552,0.9432314457385538,-2.7171608691199363,3.6575162721494348,14.490421158078671,4.39633113543756,-44.03886428494567,-171.01619,-155.83261008389985,0.0,171.01619,0.1617548046449361,-0.55735087,0.10305476,-0.80782121,1.0,0.0,0.0,0.0,161.38246789684126
4.0911,84277.2399,-5.979098000359182,-3.9990246645002356,5.1473299899464795,0.19206571740460454,-2.492053327156729,3.1323386769043955,16.169551334259396,4.0820128202665025,-44.451108581080305,-165.303009,-144.54785993510814,0.0,165.303009,0.1998642864469186,-0.54126036,0.08032084,-0.81279767,1.0,0.0,0.0,0.0,156.9419540235252
4.1039,84277.2609,-6.6318669128023835,-5.580843808740253,5.012594043767606,-0.8148704960934037,-2.074943285159282,2.569385656947736,18.282366739454964,4.101912885949796,-44.36516535097878,-160.114761,-138.12022589678034,0.0,160.114761,0.2326472916184971,-0.51717263,0.0602232,-0.82145047,1.0,0.0,0.0,0.0,153.09404172417007
4.1245,84277.2809,-6.69340932117354,-6.519883095374012,4.833092206305837,-2.0009731779095365,-1.4579864220432563,1.9810847438604033,20.062645286088575,3.709590989990943,-44.0952208235542,-155.851578,-134.19230539541482,0.0,155.851578,0.2556740836171461,-0.49572679,0.03575094,-0.82922107,1.0,0.0,0.0,0.0,150.37293713343107
4.143,84277.3019,-6.049934114379658,-6.32660602362197,5.050809061079471,-3.228301117381974,-0.7667861266289085,1.3723052834769778,20.918878029046603,2.3914477506159884,-43.915179551302174,-153.004913,-131.4402379052169,0.0,153.004913,0.2652133702670457,-0.48624021,0.00400342,-0.83259612,1.0,0.0,0.0,0.0,149.24073664916793
4.1733,84277.3219,-4.833540871894938,-4.738279671050243,5.80139163204521,-4.3171710143544795,-0.22068998375227666,0.7560492814197501,20.705958157637617,-0.2745328326293599,-43.79067348077829,-151.215759,-128.56128102997891,0.0,151.215759,0.2604817419872228,-0.49360287,-0.04173377,-0.82871211,1.0,0.0,0.0,0.0,149.80270215659803
4.1924,84277.3419,-3.431770833233898,-2.153390459318124,6.638599619838409,-5.141275331667444,-0.027634684483356597,0.14128041117895082,19.848182869371,-3.4547486989267817,-43.29806357575862,-150.109177,-125.7311956762124,0.0,150.109177,0.2442344911321321,-0.51178187,-0.09413154,-0.8182714,1.0,0.0,0.0,0.0,151.72680188403757
4.2089,84277.3619,-2.2555735661101473,0.7576005556168237,7.1351205056363085,-5.665650382354961,-0.26782430491620257,-0.4301662946058315,19.01730470809568,-5.975683452493433,-42.17267164577432,-149.219406,-123.46161504349278,0.0,149.219406,0.2221502303693862,-0.53059906,-0.14520165,-0.80500335,1.0,0.0,0.0,0.0,154.32928433770442
4.2258,84277.3819,-1.6617071995690118,3.558320150696917,7.114462175636032,-5.925298759465622,-0.8631123715339348,-0.936863338496611,18.884983230293503,-7.237383893256514,-40.36904933414653,-148.490723,-122.97938589566864,0.0,148.490723,0.1971854369458796,-0.54060584,-0.19134279,-0.79514223,1.0,0.0,0.0,0.0,157.25516180558134
4.2431,84277.4019,-1.6368358628611313,6.299341436493496,6.413889728073308,-5.973585021771507,-1.6284451093843217,-1.3134852952929685,19.435302460876418,-7.860468220938379,-37.91318283672022,-148.376648,-125.10637546299813,0.0,148.376648,0.1644014994529297,-0.54054445,-0.23522723,-0.79085523,1.0,0.0,0.0,0.0,161.07506374215924
4.2621,84277.4219,-1.7889713862826306,8.907927034899146,4.849911684482244,-5.874554016654369,-2.3872820275594604,-1.4174267027366523,20.015958851580848,-8.505050260171583,-34.99508827459846,-148.97348,-129.11319660395088,0.0,148.97348,0.1209261328908976,-0.53502429,-0.27965292,-0.78798485,1.0,0.0,0.0,0.0,166.1088893190944
4.2826,84277.4419,-1.9634371495112755,10.911347063700962,2.547680392608406,-5.674131242149431,-3.0173066270528937,-1.2247836963947951,20.36953153954169,-9.236318292780757,-31.730933624225845,-149.833328,-134.3523986909587,0.0,149.833328,0.0694245571779827,-0.52396125,-0.32693401,-0.78342772,1.0,0.0,0.0,0.0,172.0381272711396
4.3082,84277.4619,-2.426760902895727,11.639941234372351,0.25844627569572864,-5.385938846093504,-3.474866506496179,-0.9496485131516654,20.66049638663487,-9.082841700903915,-28.337397462354446,-150.463501,-140.48216644499473,0.0,150.463501,0.0222503077921899,-0.50177032,-0.37264398,-0.7802999,1.0,0.0,0.0,0.0,177.45009211197706
4.3287,84277.4819,-3.280317315768504,11.081304133459238,-1.3464567932373086,-5.048635076880376,-3.7777253534909363,-0.8044559154745858,20.614761225243107,-7.676946455643641,-25.255562096161317,-150.742126,-146.35930070988283,0.0,150.742126,0.0118205523153905,0.4711391,0.41204596,0.77981174,1.0,0.0,0.0,0.0,178.64543293579646
4.345,84277.5019,-4.292510357597981,9.872053274487005,-2.44803167618952,-4.714040067768291,-3.9401244116099,-0.8555088034346138,19.994837559025605,-6.046865677555152,-22.51365625474417,-151.026657,-151.77373072499927,0.0,151.026657,0.0414731362927399,0.43820685,0.44875678,0.77773523,1.0,0.0,0.0,0.0,175.24616520714574
4.3674,84277.5219,-5.213459045580033,8.450169434875257,-3.2528687570059382,-4.34189695998251,-4.010209372870922,-1.152932814211728,18.94323831878075,-4.458110231544079,-20.091991796969772,-152.173523,-157.13914669076408,0.0,152.173523,0.0703956101186017,0.40466067,0.48002049,0.77516097,1.0,0.0,0.0,0.0,171.92657987295678
4.3877,84277.5419,-5.691251879567306,7.118578049345791,-3.7014311493246534,-3.9220835004676005,-3.9742746281073837,-1.6133970330222087,17.35817984451584,-2.905804495612637,-18.22186664035667,-155.127396,-161.95067621433182,0.0,155.127396,0.0981393420923786,0.37976313,0.49704891,0.7740097,1.0,0.0,0.0,0.0,168.73592886842385
4.4108,84277.5629,-5.724353551292985,6.259408351658893,-3.98464042450468,-3.476153265146773,-3.8686682649518094,-2.033058644513591,15.541070655935382,-1.8736321623322096,-16.632483053239085,-160.281128,-166.95549322794858,0.0,160.281128,0.133494929752875,0.36362082,0.50592995,0.77070999,1.0,0.0,0.0,0.0,164.6568040593342
4.4369,84277.5829,-5.45591136578437,5.844895943934916,-4.086773988208842,-3.059190029492269,-3.728075775047969,-2.3518785058514546,13.641238382915894,-1.0464865474156602,-15.31619369853681,-167.660751,-172.1945421358206,0.0,167.660751,0.1734779515379864,0.35642526,0.50502622,0.76669091,1.0,0.0,0.0,0.0,160.01980709461836
4.457,84277.6039,-5.249087260432681,5.536765826757279,-4.2070979106818545,-2.5691343821175177,-3.6565755396961985,-2.651871791349932,11.934662426547238,0.23404003741087998,-14.121647203503983,-175.884216,-177.47724673410877,0.0,175.884216,0.2039337714549983,0.34345219,0.49995431,0.76843822,1.0,0.0,0.0,0.0,156.4658196655072
4.4727,84277.6259,-4.987534190962166,5.30337012427026,-4.519305120658641,-2.0562167708917722,-3.6185885500951085,-2.952112703968819,10.302421602664555,1.6315091324039086,-13.156482779476695,175.910797,177.581137485147,0.0,175.910797,0.2271471387812907,0.32481781,0.49577731,0.77272403,1.0,0.0,0.0,0.0,153.7416603108735
4.4876,84277.6459,-4.270934767653414,5.241788491728909,-4.8880561473702695,-1.7012043260092622,-3.493176785684845,-3.2520546386117797,8.64980596612728,2.688432912093035,-12.598803939239007,166.934418,172.2358602079479,0.0,166.934418,0.2573291532412857,0.31477252,0.48697221,0.77301878,1.0,0.0,0.0,0.0,150.17671525880147
4.5067,84277.6659,-3.126802418516373,5.143837713075148,-5.047571190704359,-1.4798820937814778,-3.2692570035839443,-3.5286367640790375,7.038692662110698,3.6639008095284855,-12.392085571710286,157.887573,166.22189984464458,0.0,157.88757299999997,0.2919604603023315,0.31172451,0.47232199,0.77103752,1.0,0.0,0.0,0.0,146.04927513217402
4.5266,84277.6859,-1.7973698739174742,4.764455887530102,-4.776917272822176,-1.334284434113369,-2.939426383205178,-3.7258291601374234,5.43835782776916,4.848426824249171,-12.36783711138216,150.208588,160.01069463994736,0.0,150.20858799999996,0.3230925564870772,0.30937502,0.45283738,0.77125651,1.0,0.0,0.0,0.0,142.29989383830014
4.5571,84277.7059,-0.3873506673456839,4.008999476105297,-4.0522976680512635,-1.364626846092416,-2.456684410787515,-3.765978808492352,3.8116079200123565,6.172489056502906,-12.371587051819676,143.783447,153.0653191114623,0.0,143.78344700000002,0.3557751152436016,0.31378087,0.42737985,0.76961815,1.0,0.0,0.0,0.0,138.31808624847298
4.5878,84277.7279,0.746413856091791,2.8990015929406145,-3.10386417971939,-1.529917235874657,-1.82640371174185,-3.6373778392916902,2.489812110472116,7.481592719350008,-12.262653449783388,135.375381,142.58284864211382,0.0,135.375381,0.4031155448757874,0.32247019,0.39559847,0.75961351,1.0,0.0,0.0,0.0,132.45381744726723
4.5981,84277.7489,1.0493080280022191,1.9454362025924974,-2.1859110393897216,-1.5839150732895138,-1.28425507932025,-3.4302122545930427,1.0710790214604318,8.600545034793459,-12.272246357321388,126.524887,133.72898945367226,0.0,126.52488700000004,0.4444153682537176,0.31316814,0.3797676,0.74846327,1.0,0.0,0.0,0.0,127.228119473957
4.6105,84277.7689,1.0725978785786854,1.2827037276387536,-1.3713704903490793,-1.629741662347171,-0.8151855327067598,-3.2920660629502176,-1.0877363463530596,9.708643651768567,-12.276042822547954,121.580292,130.0103148584619,0.0,121.58029199999999,0.4646766157562073,0.30640131,0.38051185,0.73851514,1.0,0.0,0.0,0.0,124.62140962827466
4.6296,84277.7889,1.3143942070795807,0.6359508198033372,-0.6346847342476956,-1.6516547456801094,-0.3205233894510602,-3.2885070344689966,-3.1593390552615706,11.002199929152306,-11.992353589854977,117.32962,125.52002054374914,0.0,117.32961999999998,0.4858862547852494,0.3120794,0.37862414,0.72330129,1.0,0.0,0.0,0.0,121.8588925214901
4.6501,84277.8089,1.9173159942316018,-0.13738219239452465,0.04545294652073295,-1.5646916190441857,0.1956943909505824,-3.347296684007627,-4.512507545758346,12.521481635761782,-11.601984513996165,111.127129,117.6308415300628,0.0,111.12712899999997,0.5182629350672008,0.32291326,0.37089023,0.6996935,1.0,0.0,0.0,0.0,117.56839083291865
4.6699,84277.8289,2.7957505482557323,-1.0832563192446556,0.6664053502531804,-1.332733839185509,0.6897222234091513,-3.364310506533301,-5.468191958177703,14.0422870218056,-11.348465804606699,104.56514,109.93495477955932,0.0,104.56513999999999,0.548826832745335,0.32796001,0.36528096,0.67661005,1.0,0.0,0.0,0.0,113.42686806501976
4.6928,84277.8489,3.7984575101248566,-2.3597398020874714,1.1680470472242863,-0.9700942230893614,1.214075735020404,-3.232956340834779,-6.2104151670356265,15.543683386795273,-11.194488995209362,98.672073,103.29325051954767,0.0,98.67207300000001,0.5739748252254455,0.33198023,0.3627654,0.65478492,1.0,0.0,0.0,0.0,109.9442597010238
4.7169,84277.8689,4.4986399147428955,-4.194268629045358,1.4270361422392472,-0.40870261357841153,1.787681951958415,-2.8384423502447578,-6.484822037716269,17.164317815578762,-10.992386864519553,93.590691,96.00224199940699,0.0,93.59069099999999,0.597438025661502,0.3407436,0.35633788,0.63244361,1.0,0.0,0.0,0.0,106.62674146903261
4.7386,84277.8899,4.7304819514198915,-6.3899485278737895,1.1985885167919363,0.38424336468584264,2.2643498833912896,-2.085449572635363,-6.362351680233687,18.748305927831698,-10.692411581990344,88.710892,87.54101979381092,0.0,88.710892,0.6177234302607312,0.35919675,0.35210043,0.60450041,1.0,0.0,0.0,0.0,103.69984556864594
4.7508,84277.9099,4.620075460709646,-8.258864021134402,0.42743037723923294,1.4433656354658666,2.4923060946312976,-1.023635164088685,-6.289022762219673,19.867087888841674,-10.445298202282036,84.287781,80.00312108573888,0.0,84.287781,0.628181381245376,0.38103199,0.35773167,0.57639468,1.0,0.0,0.0,0.0,102.16784954184288
4.7707,84277.9299,4.343144505533372,-9.1970246353008,-0.7411704034719602,2.8076622771288804,2.4748946579812996,0.19600113393952745,-6.265938674128428,20.31757739596042,-10.324485879595727,81.044159,74.17312485678846,0.0,81.04415899999998,0.6293292305577732,0.40119919,0.36829579,0.55438447,1.0,0.0,0.0,0.0,101.99869659277586
4.7917,84277.9499,4.061328230327435,-8.879335002957829,-2.2045179897301406,4.344095700664526,2.3472544337395913,1.421851615432291,-6.25229916293185,20.074205474649503,-10.111474970245077,82.86631,72.25747572600945,0.0,82.86631,0.6190820412731538,0.41884643,0.37375969,0.54918921,1.0,0.0,0.0,0.0,103.50173758170588
4.813,84277.9709,3.7655116787032545,-7.322838910359104,-3.811177995883317,5.736255446265948,2.3111387221506257,2.535968625821265,-6.358791354555848,19.189978885391046,-9.46730979212224,95.799072,78.14734629728255,0.0,95.79907200000002,0.5890917150973487,0.43604842,0.36740309,0.57257986,1.0,0.0,0.0,0.0,107.8148399792627
4.8326,84277.9909,3.0672872755642846,-4.845143185196585,-4.990394558720526,6.72029548321316,2.5574842982863784,3.311771792524065,-6.395299162284363,17.494680574065114,-8.978234316194879,114.874489,92.048155435652,0.0,114.87448899999998,0.5405086494110218,0.44914365,0.35847199,0.61450648,1.0,0.0,0.0,0.0,114.56345693978199
4.8525,84278.0109,1.6587779182344946,-2.4365135300267236,-5.6142060292456595,7.227777088124525,2.9406297142572932,3.662200395999031,-5.801262301293282,15.387656792393923,-8.841509192255389,134.987076,109.71315373074908,0.0,134.987076,0.4769748671461488,0.46701208,0.34749785,0.65851343,1.0,0.0,0.0,0.0,123.02397700440957
4.8754,84278.0309,-0.0304705206500534,-0.8489427934869767,-5.7858370767775575,7.477783730422532,2.9539757269729536,3.6079124773589304,-4.15679932327947,13.513617876479229,-9.180128906560839,152.671555,123.63493072574212,0.0,152.671555,0.4104314227645581,0.50452006,0.32796049,0.68516237,1.0,0.0,0.0,0.0,131.5361220308993
4.896,84278.0509,-1.250666527321161,0.015179855710053758,-5.60406437129479,7.574815980323141,2.5957349896511017,3.2851928322544053,-2.1302036711903787,11.81724229820757,-10.527124163636598,166.123352,136.67613441509795,0.0,166.123352,0.3465884624335486,0.55235451,0.30721942,0.69310689,1.0,0.0,0.0,0.0,139.44241677308202
4.9166,84278.0709,-1.8675225047609594,0.42130324595992974,-5.256117245522937,7.457659150623299,2.049910982660303,3.114318459144188,-0.10971679385174982,10.35892534179121,-12.80675312195851,174.605331,156.09958697561348,0.0,174.60533099999998,0.2840845602677679,0.58915883,0.2837995,0.7011745,1.0,0.0,0.0,0.0,146.99172774204513
4.9307,84278.0909,-2.0818189124913364,0.574770251453689,-4.707317777615469,7.1907598311367895,1.4458239485032327,3.128608077413131,1.833918220130402,9.390386894186662,-15.451445050122881,-179.922409,-179.62076787241472,0.0,179.922409,0.2184072531497739,0.61094302,0.2569167,0.7162686,1.0,0.0,0.0,0.0,154.7689989610565
4.955,84278.1109,-2.1918740711704974,0.490031054503139,-3.770578299676801,6.780346150999595,0.8927965702136145,3.1889178829175595,3.7374054864965545,9.029516271000201,-18.054681704826123,-175.799149,-161.53323762833992,0.0,175.799149,0.1484219621022425,0.61981106,0.22688913,0.7364282,1.0,0.0,0.0,0.0,162.92902396516098
4.974,84278.1309,-2.391284727147167,0.019256142000922516,-2.46572275317168,6.1822350107587365,0.42225069876924737,3.1793361776946205,5.612897484582922,9.214101399176686,-20.470761500419286,-172.228653,-150.64747181197959,0.0,172.228653,0.0766605603444368,0.61917311,0.19430993,0.756962,1.0,0.0,0.0,0.0,171.20671970385655
4.9912,84278.1509,-2.5586428485928843,-0.7385631947645412,-1.0772296683307676,5.440071772232382,0.05273620820241076,2.959825194446533,7.066324451127501,9.433710778046352,-22.980610689431593,-168.465256,-140.95750544633557,0.0,168.465256,0.0099898938941491,0.61744058,0.16830175,0.76833707,1.0,0.0,0.0,0.0,178.8552234425604
5.0108,84278.1709,-2.5357766480297803,-1.4859599780711508,0.05906247163115985,4.635500667012884,-0.2678391991941169,2.5780627709560644,7.950147615767035,9.395122608517285,-25.695346736574795,-164.490707,-131.46706857865982,0.0,164.490707,0.0483391335708567,-0.61753798,-0.15285625,-0.77002931,1.0,0.0,0.0,0.0,174.45858381313082
5.0405,84278.1909,-2.4399586473847714,-1.8973585957195152,0.7776738534291763,3.8518579953702834,-0.6291981976144096,2.1954386650083926,8.823479685149929,8.857432997355577,-28.373955972946497,-161.110016,-125.36294668174928,0.0,161.110016,0.0920391082708811,-0.61430931,-0.14649159,-0.76986563,1.0,0.0,0.0,0.0,169.43814722059702
5.0548,84278.2109,-2.385901485387604,-2.037740464677829,1.1383402975709576,3.1811661221542202,-1.0581725665656176,1.8710188860498516,9.978210814436768,8.094485670921241,-30.648354273606824,-158.699463,-123.0030448552022,0.0,158.699463,0.1229775450631703,-0.60597503,-0.14211607,-0.7729643,1.0,0.0,0.0,0.0,165.87204696952966
5.0717,84278.2309,-2.3746118029195538,-2.1739177354539905,1.2714120576842607,2.6608331704893935,-1.4864001542060912,1.5870853042766948,11.212023291723842,7.57919759457606,-32.36271650379764,-156.74646,-122.51061102364527,0.0,156.74646,0.1491004603576312,-0.59333116,-0.13669087,-0.77912951,1.0,0.0,0.0,0.0,162.85039894161844
5.092,84278.2509,-2.3501422674825285,-2.3855349430554935,1.2471826175940581,2.279600965203267,-1.831594147539946,1.310731932448026,12.201791593980992,7.402256901443829,-33.63903719076772,-154.483795,-122.01134617261977,0.0,154.483795,0.1756087056873818,-0.57837671,-0.13394603,-0.78530276,1.0,0.0,0.0,0.0,159.77183409158573
5.1159,84278.2719,-2.3551117280277625,-2.6120673239222483,1.025987909977859,1.9807858118694956,-2.077302795129051,1.026522555930284,13.156951265255847,7.544945948132191,-34.495050453108036,-152.088943,-122.0519994031077,0.0,152.088943,0.2014556807550915,-0.55936164,-0.13276397,-0.79303461,1.0,0.0,0.0,0.0,156.75580760425595
5.1427,84278.2929,-2.3050341685320035,-2.6207752818010945,0.6592314567032211,1.7292063501071357,-2.209892095417082,0.738082187128994,14.070665800122907,7.549014190251149,-35.10423451457191,-150.102936,-122.78870446567932,0.0,150.102936,0.2209500387475041,-0.53915197,-0.13358673,-0.80165505,1.0,0.0,0.0,0.0,154.47032108346187
5.1637,84278.3129,-2.053203479730607,-2.317541184972538,0.33524388428117824,1.522304614369788,-2.214353138485066,0.4715736437547865,14.707108608413504,7.073045786546775,-35.65643755771418,-148.671463,-123.7266494835753,0.0,148.671463,0.2322785287121068,-0.5220387,-0.13793661,-0.80900913,1.0,0.0,0.0,0.0,153.13748906946816
5.1745,84278.3329,-1.6129078043759295,-1.9422452418441543,0.27227338643447396,1.3421081677347324,-2.093505527541483,0.23308702694625041,15.12041021760195,6.463373963875378,-36.03968512013815,-147.710205,-124.94617141546381,0.0,147.710205,0.2391006367219489,-0.50615031,-0.14203551,-0.81637532,1.0,0.0,0.0,0.0,152.33306939133158
5.1978,84278.3529,-1.1163538979162968,-1.7500269141007219,0.6906709450604858,1.1390894287496316,-1.8580731325124946,0.007971444934741329,15.384488117598838,6.0488990388958435,-36.15601261658823,-147.061462,-126.44684706377477,0.0,147.061462,0.244674309024975,-0.4892371,-0.14321028,-0.82478625,1.0,0.0,0.0,0.0,151.67482554437356
5.2199,84278.3739,-0.722806851256887,-1.8019613416664617,1.7118547495323888,0.8518357840749153,-1.540815673264313,-0.2353498078809034,15.413519566492132,5.8553843600538045,-36.07633701830732,-146.284546,-127.6439581046124,0.0,146.284546,0.2516553560492043,-0.47180584,-0.14411299,-0.83264655,1.0,0.0,0.0,0.0,150.84902145877794
5.2431,84278.3939,-0.4453414668516428,-1.9603865028664704,3.28481219422115,0.4087410271034474,-1.2253647779524615,-0.5500480085310449,14.852199985977407,5.631085992595359,-36.062526178913735,-145.52179,-128.06704574308864,0.0,145.52179,0.2582712455622338,-0.46002799,-0.14536791,-0.83698171,1.0,0.0,0.0,0.0,150.06498266866447
5.2577,84278.4139,-0.39213494189972287,-2.0359176060494786,5.184249256352016,-0.21663211778026115,-1.008883529521134,-0.9678174661704916,13.995690494241806,5.258515249776522,-36.0611862096146,-145.105606,-128.40912699987,0.0,145.105606,0.2611403409500484,-0.45281187,-0.1473999,-0.83966684,1.0,0.0,0.0,0.0,149.72452660693597
5.2792,84278.4339,-0.5829158466968648,-1.7423564376700973,7.105705426077293,-0.9982774422027023,-0.9665577663378497,-1.4856180905663299,12.954759152547947,4.489663733068707,-36.06266824012524,-145.237549,-128.95912740900314,0.0,145.237549,0.2568974146461287,-0.45117053,-0.1528841,-0.84087771,1.0,0.0,0.0,0.0,150.2279099588022
5.2957,84278.4549,-1.1889922250414648,-0.9543872447138626,8.700335992743582,-1.8696680963824484,-1.1143403990882301,-2.0822934067285486,12.07454807792245,3.3698103838652402,-35.87644712160599,-146.027786,-130.34169531109802,0.0,146.027786,0.2438699987479338,-0.45120174,-0.16273946,-0.84288806,1.0,0.0,0.0,0.0,151.76987198493325
5.3167,84278.4749,-2.3543020614981067,0.322434890201067,9.683160771202008,-2.7531374091374867,-1.4024269759135788,-2.7346971790783803,11.545153778809846,1.9685547944322574,-35.35457847138804,-147.60611,-133.0995418252135,0.0,147.60611,0.2205970875572766,-0.44941559,-0.17701314,-0.84736586,1.0,0.0,0.0,0.0,154.5117895412732
5.3361,84278.4949,-4.030587407934098,1.9919441909116906,9.886335402848616,-3.559725022322694,-1.7771368330941635,-3.4193988153483574,11.30158529842059,0.43324965659372267,-34.42901142741102,-149.674454,-137.07860563533976,0.0,149.674454,0.1892938475188862,-0.44335449,-0.19679922,-0.85374159,1.0,0.0,0.0,0.0,158.17684635160637
5.3574,84278.5149,-5.868793205573376,3.870490136243999,9.251040629901286,-4.204512417591305,-2.2016714667002724,-4.076702652876815,11.025802906530487,-1.01481291224016,-33.13940572628601,-152.146713,-141.9175083784328,0.0,152.146713,0.1522579915058884,-0.43348768,-0.2199983,-0.86052698,1.0,0.0,0.0,0.0,162.4843935700031
5.3763,84278.5349,-7.4919936412447905,6.058055267853506,7.698338633130927,-4.587961622843583,-2.701706669791438,-4.583903411887502,10.687554841404996,-2.6993235299847904,-31.447301095270085,-155.715118,-148.3906829517327,0.0,155.715118,0.1028226268665684,-0.41912925,-0.24792528,-0.86734724,1.0,0.0,0.0,0.0,168.19653356315945
5.4152,84278.5549,-8.255186429427798,8.347463951091761,5.418791597499153,-4.732115630858626,-3.333093160607233,-4.679260259947751,9.814039876872833,-4.502233647085762,-29.48957412334946,-160.750549,-156.26813672940688,0.0,160.750549,0.0398836010894849,-0.40470785,-0.27772641,-0.87033838,1.0,0.0,0.0,0.0,175.42846343310543
5.423,84278.5769,-7.9337666185234434,10.24196551169726,2.8687775371594686,-4.766631930204479,-4.121703982024029,-4.106736349044215,8.19815710438398,-5.908934481099905,-27.446551562092356,-167.096436,-164.9223271249977,0.0,167.096436,0.0312060202109119,0.39254671,0.30564126,0.86690062,1.0,0.0,0.0,0.0,176.4234728530737
5.4534,84278.5979,-7.057766079544702,11.247911002018277,0.3620460659980047,-4.783933747682364,-5.019297728558323,-2.8239169261636867,6.384279704812008,-6.433143889763464,-25.38310406372158,-174.402191,-173.8992087007652,0.0,174.402191,0.1015179642771162,0.37584361,0.3312417,0.85948509,1.0,0.0,0.0,0.0,168.3468233725163
5.4656,84278.6189,-6.376508967557145,11.060525277607518,-2.0508505123346046,-4.804448501630233,-5.87592460129582,-1.0694258647193875,5.1054924488713525,-5.983126846595363,-23.325927969280734,177.4655,177.53209839365317,0.0,177.46550000000002,0.1617349874327107,0.34366015,0.35701364,0.85339367,1.0,0.0,0.0,0.0,161.38476908271102
5.4898,84278.6389,-6.210933281160575,9.526302253861477,-4.416695307498774,-4.737295227220938,-6.502147649091651,0.7045792916811511,4.565630810645964,-4.852175420066876,-21.299048657553136,168.997437,170.94819936157435,0.0,168.997437,0.2017342006614958,0.28796968,0.38846269,0.85174733,1.0,0.0,0.0,0.0,156.72322256979763
5.5029,84278.6588,-6.089220670413771,6.66905581732769,-6.471316980992333,-4.359741556571456,-6.740899772671998,1.8704936849679243,4.415809798979309,-3.197286402020403,-19.38995061993913,160.894073,166.99733224219648,0.0,160.894073,0.2130125577003527,0.20547277,0.42391443,0.85598081,1.0,0.0,0.0,0.0,155.40209099774958
5.5307,84278.6789,-4.971094324760209,3.2848655758672214,-7.355653065072133,-3.4673423168862114,-6.509742789987714,1.9502606195712744,3.38314848830526,-0.8784655766277609,-17.918448291821345,157.022324,166.0696132748829,0.0,157.02232400000003,0.1904669827524258,0.11898767,0.4480387,0.86534709,1.0,0.0,0.0,0.0,158.03992394894988
5.5456,84278.6999,-2.8790590756307264,1.1220877606514887,-7.0936310780133125,-2.35011232649469,-5.569671234403053,1.1913869706588178,1.6382847757212735,0.5829643703972511,-16.81871476692273,152.846069,164.85241046383004,0.0,152.846069,0.1639305747299542,0.02952445,0.47315362,0.86509001,1.0,0.0,0.0,0.0,161.12976995538384
5.5635,84278.7199,-0.8072835620742045,0.7817373989493768,-5.775619107769112,-1.6701683633060207,-4.039508789783273,-0.3135532285729967,-0.9846684811637836,2.2851952802447935,-16.10302214153019,148.114914,161.82422545973455,0.0,148.114914,0.174719654004886,-0.00645812,0.47087488,0.86470121,1.0,0.0,0.0,0.0,159.8753117573464
5.5834,84278.7399,0.3528683050113737,1.5679555201618434,-4.26352236784127,-1.147726294901011,-2.4324144574832447,-1.7783725070562033,-3.29410188898055,3.811493440953258,-15.583485326656119,141.014893,157.25473741034267,0.0,141.01489300000003,0.2121026032667628,-0.0186801,0.46850899,0.85741639,1.0,0.0,0.0,0.0,155.50880261518304
5.6039,84278.7599,0.8043288550145631,2.787026118823058,-2.9792117342340028,-0.7894328316692524,-1.163562313515655,-2.8694484745673403,-5.53238662697596,5.280504204325856,-15.0723160900288,135.523941,153.93093101600766,0.0,135.52394100000004,0.2487846624155193,-0.00739691,0.46887544,0.84747112,1.0,0.0,0.0,0.0,151.18878714744045
5.6231,84278.7799,0.7858897958739768,3.657546516030221,-1.9074700459493634,-0.724470636360695,-0.20626755766806748,-3.568345679503661,-7.2990860467801015,7.202169280756232,-14.287699141368886,131.866486,150.77503673471705,0.0,131.866486,0.2888079638918153,0.02247611,0.45604166,0.84149319,1.0,0.0,0.0,0.0,146.42679196810215
5.6455,84278.7999,0.31412227029343276,4.246464491513951,-1.1373845097299053,-0.8872861307694135,0.3632135766746629,-3.96716722436451,-8.62039096266184,8.610828585403466,-13.61941098461211,128.533951,148.00398295332832,0.0,128.533951,0.320977658629508,0.04640595,0.44779709,0.83324522,1.0,0.0,0.0,0.0,142.55588033113642
5.6676,84278.8219,-0.27209747997693334,4.591855680538897,-0.7000286033029308,-1.2105555970861561,0.6246036260507493,-4.279955118308721,-9.717178066220704,9.423794205829859,-13.225463360476844,124.741837,145.7085700417639,0.0,124.74183700000003,0.3466369162839691,0.06274122,0.44951636,0.82087845,1.0,0.0,0.0,0.0,139.43649742030877
5.6931,84278.8429,-0.3975961114209401,4.543140755155839,-0.45448847576178864,-1.571324068270881,0.8150407445022698,-4.593718750378464,-10.447556798367096,10.397719703419384,-12.842579810306038,119.490204,142.7021317068673,0.0,119.490204,0.3797457748279609,0.0861112,0.45355526,0.80166429,1.0,0.0,0.0,0.0,135.36412748470835
5.7047,84278.8629,0.012749577416353741,3.947332002997362,-0.3459811901746903,-1.8121707167966898,1.0468802367023775,-4.9005276759121195,-10.817533167726168,11.680570883234665,-12.385830424491076,113.250557,138.83101247888223,0.0,113.25055700000001,0.4182367118198657,0.11466415,0.45593971,0.777206,1.0,0.0,0.0,0.0,130.55337261336558
5.725,84278.8829,0.8109652692143601,2.6817586516916747,-0.42786092509303053,-1.8280083285098017,1.2727411391044878,-5.145734056030392,-11.123649189353486,12.972829560487307,-11.872044836942685,106.992912,135.0677124064461,0.0,106.99291199999999,0.4525464303274807,0.14232601,0.45975873,0.75071096,1.0,0.0,0.0,0.0,126.18564394738517
5.744,84278.9029,1.7983882156851183,0.932678986698763,-0.7481443087337833,-1.5102629929377827,1.37975692893703,-5.272383863644192,-11.270369792038812,14.160247873139369,-11.563112922013369,98.635498,130.81730269161852,0.0,98.63549799999998,0.4878477772619185,0.16687416,0.46992698,0.71646786,1.0,0.0,0.0,0.0,121.60155976993245
5.7649,84278.9229,2.409421517425445,-1.0180758391713758,-1.1459993961722592,-0.7650205455973742,1.3570213437623897,-5.19256759369412,-10.793922057828327,15.527700026867326,-11.590210177366995,87.77681,123.72742933846918,0.0,87.77681000000001,0.533314614280082,0.18936165,0.47542208,0.67356628,1.0,0.0,0.0,0.0,115.54063051032176
5.7846,84278.9429,2.393615111498999,-2.6119102987352223,-1.5919041744695086,0.12810671705253185,1.1975734729187288,-4.781710176376183,-10.172253843018911,16.964631039042903,-11.54719181635782,78.559914,115.29967899250538,0.0,78.55991399999999,0.5744244164631549,0.2145104,0.47236806,0.63315898,1.0,0.0,0.0,0.0,109.88133262439459
5.808,84278.9629,1.9170089528866976,-3.4710580446976538,-2.2083116882618574,0.8681669673982937,0.9707902607101271,-4.045913411905279,-9.730325230068262,18.47038605719303,-11.033972053823595,73.870117,106.71401057063217,0.0,73.870117,0.6027973947776681,0.24710816,0.45762369,0.60510612,1.0,0.0,0.0,0.0,105.85897979256362
5.8231,84278.9829,1.282866865848506,-3.470558997078799,-2.860968906712495,1.302989572402829,0.5763290199390749,-3.1410217455728464,-9.438973657261231,19.677823606688555,-10.582555150216157,71.490662,98.02206138723635,0.0,71.49066199999999,0.6233453957943734,0.27800974,0.4388209,0.58445472,1.0,0.0,0.0,0.0,102.8783066219607
5.8452,84279.0029,0.8261179303304376,-3.0077412443597376,-3.3493150683239374,1.3984138599690281,0.037601397876004305,-2.23369635970449,-9.662906286193008,20.197410209218862,-10.63157496058507,70.228287,91.94089332436452,0.0,70.228287,0.6351816766004305,0.29755548,0.42597726,0.57144409,1.0,0.0,0.0,0.0,101.13307923334027
5.8627,84279.0229,0.5320111662633993,-2.776341726241691,-3.638162063286223,1.289566864216807,-0.5561857980754243,-1.4274451773492776,-10.068222847209661,20.294339777033148,-11.023426988704104,70.25605,87.56142889262992,0.0,70.25605000000002,0.6434370074481304,0.30987856,0.41300172,0.56514925,1.0,0.0,0.0,0.0,99.90282287495121
5.8852,84279.0429,0.352484943087811,-3.0192459213910188,-3.7149616525668563,1.125518754726053,-1.1687774278857181,-0.7649507901422921,-10.475215230669564,19.973986632554244,-11.920579875444181,70.256996,84.53430220342403,0.0,70.25699600000002,0.6526925774703285,0.3116754,0.40102527,0.56216508,1.0,0.0,0.0,0.0,98.51016070334124
5.9089,84279.0629,0.275729892727965,-3.6971350498590025,-3.6191563169148235,1.0238484804943084,-1.7443374434541439,-0.22992413631362862,-10.770965420533084,19.413577706325142,-13.14703673382694,69.936539,82.23084235522126,0.0,69.93653899999998,0.6641939529520876,0.30562764,0.38905764,0.56042153,1.0,0.0,0.0,0.0,96.7589653177889
5.9324,84279.0829,0.362665146293355,-4.613487908061135,-3.3952934842516083,1.0740428153916057,-2.2329539938364062,0.2136307320461327,-11.08557396656923,18.772053121497684,-14.440281741226013,70.164795,81.0397197700127,0.0,70.164795,0.6749605502056353,0.2946319,0.3760078,0.56235081,1.0,0.0,0.0,0.0,95.09782644707252
5.9522,84279.1029,0.6951807728795725,-5.607077654156639,-3.103819327995992,1.3264220185510447,-2.6037615330949397,0.602498380147928,-11.45647468987299,18.23789385881544,-15.631947646712664,71.482689,80.78815411128174,0.0,71.482689,0.6834145073473151,0.28211629,0.35955095,0.5692786,1.0,0.0,0.0,0.0,93.77791128698208
5.9783,84279.1229,1.3572891491866828,-6.521632399572622,-2.766235333935903,1.8140423202629246,-2.8179161797780963,1.0104232845744479,-11.882613249852389,17.757589486827978,-16.82075607610112,73.568878,81.34214043735474,0.0,73.56887799999998,0.6897457282174136,0.26722628,0.33997947,0.58073652,1.0,0.0,0.0,0.0,92.78003115393247
5.9876,84279.1429,2.4013949345321484,-7.116225725576764,-2.430386269258441,2.5445764726306876,-2.8282274820914157,1.5293395495360373,-12.360362800212085,17.163406249983733,-18.0864141063295,75.792595,82.36562016669092,0.0,75.792595,0.6942750661720518,0.25014073,0.3196896,0.59431499,1.0,0.0,0.0,0.0,92.06104506213639
6.005,84279.1629,3.6988618615118476,-7.077465407809788,-2.274052780124478,3.4529354753547548,-2.6190158229370097,2.2336384766967816,-12.687843882189245,16.42799063949225,-19.42168880676757,78.347961,83.50890812184976,0.0,78.347961,0.6976195359775217,0.23230861,0.29493314,0.61022466,1.0,0.0,0.0,0.0,91.52734064384323
6.0285,84279.1829,5.236240822184264,-6.118266281869199,-2.5692042858841875,4.464987034593983,-2.1985125681814273,3.0866974841300894,-13.14916259810869,15.590346427876748,-20.473461553951225,82.822388,85.92579287899466,0.0,82.82238799999999,0.6915368859732023,0.22111955,0.26404551,0.63495106,1.0,0.0,0.0,0.0,92.49621965934779
6.0432,84279.2029,6.841976669135922,-3.9639756680381315,-3.196945180851289,5.451604191265603,-1.5724615815681335,4.033686568430911,-13.89235564437689,14.377890897526644,-21.282917272083907,89.379791,90.2122500059583,0.0,89.37979100000001,0.6715570400895907,0.21801893,0.2309387,0.66943723,1.0,0.0,0.0,0.0,95.62529612585006
6.0646,84279.2239,8.025293371780277,-0.7373595121117669,-3.6711601286600386,6.204388492034589,-0.8284440798673762,5.044756611632306,-14.49204520874802,12.753778908954068,-22.101044072400136,97.574051,95.96635309514362,0.0,97.574051,0.638662162230577,0.22166328,0.19347534,0.7110157,1.0,0.0,0.0,0.0,100.61573501533236
6.0892,84279.2439,8.279787745894383,3.025319619383845,-3.4239148305336062,6.572152677598249,-0.14273039943127053,6.044903568916802,-14.650858480217693,11.03755240906495,-22.984267160991298,107.229393,102.94866705918326,0.0,107.22939300000002,0.5915139692014597,0.23498309,0.14873269,0.75681752,1.0,0.0,0.0,0.0,107.47096438037131
6.1213,84279.2649,7.12427356938336,6.567480454279581,-2.055226106313347,6.48311214026282,0.4027046408528566,6.935484709331389,-14.24410072753208,9.315434721934013,-24.119336966471895,117.849648,111.28959417242936,0.0,117.849648,0.5284060763786357,0.25575948,0.10059705,0.80327725,1.0,0.0,0.0,0.0,116.20435407945857
6.1278,84279.2849,4.315230142549872,8.825951624870731,0.2825952647596939,5.8728092743955,0.7472767306321014,7.644392841151134,-12.93063330625169,7.763262562325068,-25.757546948083153,128.314758,120.55492230009806,0.0,128.31475799999998,0.4535401536640913,0.27658868,0.05267036,0.84559202,1.0,0.0,0.0,0.0,126.0579111558793
6.1492,84279.3049,0.23477247769404697,8.854754997794663,2.735977404301172,4.847495222191092,0.830322015712357,8.024428794643153,-10.881094678161192,6.6960827564059855,-27.720912729387187,138.580643,130.6701993385638,0.0,138.580643,0.3680509103922548,0.2971051,0.0091858,0.88101232,1.0,0.0,0.0,0.0,136.80907600151576
6.1767,84279.3259,-3.998122949980594,6.634943979938395,4.192814118485492,3.691118998039742,0.7052435776587753,7.933437221348022,-8.584334161235407,5.891860239041431,-29.805573843656234,148.374741,141.02294477222054,0.0,148.37474099999997,0.2797949573919204,0.31785169,-0.01906007,0.90571618,1.0,0.0,0.0,0.0,147.5040649797235
6.1965,84279.3459,-7.213026378470507,2.987873102818805,4.350003730876303,2.7205124096518993,0.4557233306878524,7.344397932687087,-6.582599789877513,4.963230174520441,-31.840767910218126,157.843674,151.4622265636863,0.0,157.84367399999996,0.194752288943666,0.34143743,-0.02600043,0.91913873,1.0,0.0,0.0,0.0,157.53949326179665
6.2081,84279.3659,-8.961535338406234,-0.9569625485736948,3.6022227282369936,2.0113940416143423,0.13410399415486615,6.372529217369844,-4.545006214884209,3.790391655683128,-33.785014775071254,166.184021,161.41877839039853,0.0,166.18402100000003,0.1223325776021077,0.36115217,-0.01699292,0.92429167,1.0,0.0,0.0,0.0,165.9465170947391
6.2354,84279.3859,-9.306051641190509,-4.424250674350019,2.4863079055212207,1.5215361528720388,-0.18980154195686924,5.147523261569534,-2.1179402809489547,2.71750707833604,-35.451106172583664,173.294327,170.74865429570664,0.0,173.294327,0.062134026711612,0.37151724,-0.00208302,0.92634225,1.0,0.0,0.0,0.0,172.87537572107166
6.2515,84279.4059,-8.495956733933832,-6.84824985668773,1.3778774410624273,1.1723998075514688,-0.4386869644119143,3.809569245089215,0.6090433559253231,2.3542228028270102,-36.64444907114895,178.643402,178.12232766472852,0.0,178.64340200000004,0.0152980100094406,0.37265462,0.00633971,0.92782235,1.0,0.0,0.0,0.0,178.24690879942338
6.2657,84279.4259,-6.900755538422762,-7.9402357643031785,0.640178684212712,0.8645167859101995,-0.4513001167502918,2.522977321947059,3.0005171668741117,2.4752910424717025,-37.37700991373688,-177.456924,-176.49680958558102,0.0,177.456924,0.0203408291180519,-0.37041014,-0.00889816,-0.92860293,1.0,0.0,0.0,0.0,177.66895191569944
6.2889,84279.4458,-5.141436673721989,-7.700797673187055,0.5600663600702642,0.47027498774906457,-0.1696184592490454,1.4444351836450253,4.702749203575403,2.197142738789279,-37.85189249785025,-175.136185,-173.3205863847208,0.0,175.136185,0.0405790442851132,-0.36926046,-0.01278707,-0.92835152,1.0,0.0,0.0,0.0,175.34870694004132
6.3059,84279.4659,-3.6749131287202963,-6.717438324044655,1.0206045601927674,-0.05955603959315624,0.3033213239596195,0.6283220388533453,5.686007965769344,1.6034422922440439,-38.202793085267885,-173.80899,-171.4804314563344,0.0,173.80899,0.0510666672922038,-0.37074402,-0.01772715,-0.92716062,1.0,0.0,0.0,0.0,174.14564459571218
6.3266,84279.4859,-2.595986108780523,-5.372319880887549,1.8841882883971053,-0.6780876511148352,0.8152215169693259,0.03608063868066367,5.737267041093019,0.5974050790358914,-38.53116415658317,-172.774368,-169.89426292598918,0.0,172.774368,0.0565710869518816,-0.37943739,-0.02811028,-0.92305839,1.0,0.0,0.0,0.0,173.5139682801717
6.3457,84279.5059,-1.8718112125006803,-3.756623368709526,2.9781750819098356,-1.298840796151553,1.1763232385902664,-0.414761698896896,5.0553151733357815,-0.966749743495042,-38.77340736939736,-171.703003,-168.0448463591033,0.0,171.703003,0.0580073829267358,-0.39518753,-0.04803474,-0.91550785,1.0,0.0,0.0,0.0,173.34911011160477
6.3664,84279.5259,-1.3494279416354473,-1.9427498039546638,4.148181264701229,-1.8350858586552496,1.2460699722586022,-0.7728764103474897,3.8687738449983056,-2.817226994566081,-38.7973327961115,-170.66803,-165.9855272887437,0.0,170.66803,0.054983382813187,-0.41645458,-0.07450134,-0.90442908,1.0,0.0,0.0,0.0,173.69618946701374
6.3856,84279.5459,-0.9217535803850226,-0.15575890017420635,5.273922522081177,-2.2554811854462313,1.0168822938208582,-1.024314887124433,2.4872679136879565,-4.28095459457808,-38.550070505657835,-169.918671,-164.10631688729387,0.0,169.918671,0.048499923974384,-0.43936065,-0.0989971,-0.89152092,1.0,0.0,0.0,0.0,174.44013695352817
6.4059,84279.5659,-0.8790195320986876,1.4192255798114712,6.258312215319528,-2.5816140112309482,0.5924224550603626,-1.205245628165424,1.8825246853291147,-5.009751807720519,-38.04406994011004,-169.447754,-162.94569076900552,0.0,169.447754,0.0412372968580605,-0.45200256,-0.11896272,-0.88308609,1.0,0.0,0.0,0.0,175.2732135553785
6.4259,84279.5859,-1.366539598984418,2.9057950193302853,6.999246856834198,-2.8688801248883684,0.1101331248093923,-1.359685321343854,2.2101484308959383,-5.513411849649386,-37.259219102529215,-169.161423,-162.7188093679649,0.0,169.161423,0.0318929205772869,-0.45179778,-0.14089525,-0.8803466,1.0,0.0,0.0,0.0,176.34472066413653
6.4512,84279.6059,-2.196467929609653,4.287868617190849,7.4296970956226005,-3.1782426193770186,-0.2933101108941365,-1.4905593489643523,2.8381503828482586,-5.963248371241267,-36.189722229298255,-169.369614,-163.63019643012916,0.0,169.369614,0.0176262767876411,-0.44465837,-0.16458762,-0.88027221,1.0,0.0,0.0,0.0,177.9800728601451
6.4746,84279.6259,-3.017159127621018,5.397628068887691,7.554166197107737,-3.549089967125452,-0.5814108008601038,-1.5891872921129102,2.9325741647817214,-6.179477930781376,-34.931761960836276,-169.704803,-164.61607816676752,0.0,169.704803,0.0019517824612572,-0.43964055,-0.18805338,-0.87826437,1.0,0.0,0.0,0.0,179.776342062882
6.4985,84279.6459,-3.7567926054984544,6.358562657425951,7.219588569829842,-3.9386004580076377,-0.8304147122100719,-1.6790868887469235,2.3699035051458526,-6.472751111186428,-33.473326113311344,-169.494675,-164.74618494099954,0.0,169.494675,0.0132393430799173,0.43837804,0.21771291,0.87192345,1.0,0.0,0.0,0.0,178.4828387123984
6.5139,84279.6659,-4.702205674949653,7.255794378557356,6.19026681349685,-4.220289364553497,-1.1060061330604876,-1.8572631380708022,1.9716611054512228,-6.972531256419593,-31.755610907830963,-168.993698,-164.9756748869098,0.0,168.993698,0.0302437030917795,0.43028712,0.25662103,0.86491847,1.0,0.0,0.0,0.0,176.53379836318464
6.5283,84279.6859,-5.623488994467699,7.872186695952927,4.596776692912012,-4.311461042867767,-1.3316329802783504,-2.141678694787123,1.856780278775227,-7.156537589620944,-29.95267557429962,-169.671326,-167.0415386360888,0.0,169.671326,0.0542110314895868,0.41418821,0.29338703,0.8599031,1.0,0.0,0.0,0.0,173.78482661737002
6.5524,84279.7059,-6.095674925442222,8.27915515092609,2.7461619909894956,-4.2213017070702605,-1.4600261636277312,-2.4068233938626324,1.5380495876462814,-7.159561057956804,-28.166349478258354,-172.446609,-171.25839432652023,0.0,172.446609,0.0917202527831927,0.39834476,0.32487881,0.85285556,1.0,0.0,0.0,0.0,169.47484057682865
6.5657,84279.7259,-6.1519281787001,8.38792874690462,1.05547286229171,-4.03028855491158,-1.6009309412547337,-2.5144114990347597,0.5479617982209966,-7.102030777368245,-26.465512382448757,-175.795517,-175.456838076296,0.0,175.795517,0.1344692896392084,0.39093131,0.35526797,0.83837664,1.0,0.0,0.0,0.0,164.54413478187598
6.588,84279.7459,-6.416132703773491,7.897054189578597,-0.18600312850625933,-3.7750131505272058,-1.863216974747061,-2.584004332282812,-0.6044510366210056,-6.516554153426544,-24.965636318738117,-178.021759,-178.00855101938643,0.0,178.021759,0.1644804448018665,0.38463914,0.38180527,0.82415026,1.0,0.0,0.0,0.0,161.06589242167456
6.606,84279.7659,-6.7180186134337765,7.352869836088707,-1.2332417897258807,-3.5572546514580234,-2.0414495328037336,-2.8269151348929116,-1.502599796891814,-5.501682585576919,-23.622252362846872,176.749146,176.88074276776044,0.0,176.749146,0.2033295114374861,0.37668893,0.39336672,0.8136493,1.0,0.0,0.0,0.0,156.53654462357468
6.6255,84279.7859,-6.985078998700409,6.947948922349271,-2.470268870309223,-3.3105002541440243,-2.2049023420938187,-3.261022258672323,-1.8140226497984306,-4.593303607218607,-22.31810008284824,168.361069,169.5623454805017,0.0,168.361069,0.2481625527687364,0.3569406,0.40033728,0.80668384,1.0,0.0,0.0,0.0,151.26238375083776
6.6467,84279.8059,-6.475163996411194,6.720683299053038,-3.3893592894877296,-3.199399663486748,-2.1668453851805607,-3.651571628750901,-2.8334024205943704,-3.282070666959749,-21.049716618514935,159.239456,161.35976809730994,0.0,159.23945600000002,0.2981714039955229,0.35385731,0.39586124,0.79320407,1.0,0.0,0.0,0.0,145.30438706989108
6.6658,84279.8259,-5.402400182203052,6.642949111627626,-3.950791234146889,-3.2131659846624734,-1.9982272831220134,-3.8341773455198567,-4.348804131680082,-1.6734261274758877,-19.741969295340848,149.619095,151.312544617702,0.0,149.61909500000002,0.3547777009412002,0.36506781,0.38641599,0.769117,1.0,0.0,0.0,0.0,138.44035839281915
6.7067,84279.8459,-4.286024683451473,6.4588224417347355,-4.1245765483567665,-3.2747066287085276,-1.7803633429609262,-3.818672860813557,-5.829426987980618,0.39282286597980676,-18.469921761409818,140.741943,140.00170443628778,0.0,140.741943,0.4062429981162405,0.37979409,0.37304276,0.74267232,1.0,0.0,0.0,0.0,132.06191344371342
6.7101,84279.8659,-3.5179961527508548,6.234354604160933,-4.087517736531113,-3.3037740536468103,-1.5873089510400833,-3.764508492651415,-6.839629769720294,2.5320475795092428,-17.40874870971445,132.268677,129.24446645936402,0.0,132.26867700000003,0.448322979226018,0.38261384,0.35943627,0.72347683,1.0,0.0,0.0,0.0,126.72772230879713
6.7351,84279.8859,-2.89795706985688,6.173539879665791,-3.9487802351953096,-3.4035982203094663,-1.3880292815280595,-3.7680237390949185,-7.795697683217055,4.440477008340599,-16.562445754481438,124.514992,120.82596682839068,0.0,124.514992,0.4825316997822704,0.37773114,0.35172686,0.70765144,1.0,0.0,0.0,0.0,122.29823544850589
6.7548,84279.9059,-1.9278855712174898,6.16932055627089,-3.7701567421399425,-3.6885852169260667,-0.9925208013009541,-3.874878125568876,-8.96730879267538,6.528271851716573,-15.685586796737534,117.972641,112.19731985468299,0.0,117.97264100000001,0.5136965931917404,0.38180637,0.34428295,0.68688351,1.0,0.0,0.0,0.0,118.1792536122842
6.7815,84279.9259,-0.6435858548706748,5.937969507095536,-3.886853036032205,-3.9977357807897973,-0.4050320059464876,-4.147056042890217,-9.850144730832397,8.703890675030252,-14.942374742167845,110.084938,101.79344672168288,0.0,110.08493799999997,0.5499401548310435,0.3853775,0.33416477,0.66135007,1.0,0.0,0.0,0.0,113.27418512432554
6.798,84279.9459,0.6987951660472547,5.250757385164697,-4.393055703246471,-4.2012921111432195,0.24794751791904535,-4.521918027857034,-10.466761872322287,10.744820268299318,-14.424760357016918,99.963585,90.7832644523439,0.0,99.96358499999997,0.5908597574923548,0.38409325,0.32824862,0.62897533,1.0,0.0,0.0,0.0,107.5639140730763
6.816,84279.9669,1.818844356316776,4.055395320199814,-5.031882050642559,-4.253438306615221,0.8859933234617842,-4.88103594507741,-10.967955366349962,12.818191710561143,-13.927986766528274,88.417107,79.30490697995407,0.0,88.41710699999999,0.6316124273160493,0.38393033,0.3283985,0.58806264,1.0,0.0,0.0,0.0,101.66163012249308
6.8299,84279.9869,2.533750766994715,2.5210334180186162,-5.457376763147521,-4.104722443027175,1.483933282482722,-5.148511540626989,-11.123369955941316,15.197601773265767,-13.325655229998443,75.82251,66.53828991405781,0.0,75.82251,0.671525103548463,0.38814095,0.32892266,0.53871191,1.0,0.0,0.0,0.0,95.63023515335473
6.8484,84280.0069,2.8169091685973986,0.8964991880805459,-5.4260854785559625,-3.7206485393800635,2.023501532073282,-5.291372922920183,-10.667442187380413,17.936369284883988,-12.603951649958637,63.290684,53.3583277624726,0.0,63.290684,0.7096524831566013,0.39593422,0.32384953,0.48451102,1.0,0.0,0.0,0.0,89.58670513044503
6.8667,84280.0269,2.899243994434031,-0.4714556708219082,-4.95734162668791,-3.272817543715772,2.334381497152889,-5.293154637580031,-10.00154837637098,20.473147353677152,-12.057745162838438,48.60218,40.54171141685153,0.0,48.602180000000004,0.7441869627108992,0.40026081,0.32797059,0.42238885,1.0,0.0,0.0,0.0,83.82137472333211
6.8867,84280.0469,2.9629379895052756,-1.5914536977044516,-4.114840653469436,-2.803983574579343,2.5553270010458102,-5.211989152022811,-9.407158919179361,22.837739920786092,-11.448202239718734,35.04184,29.428476485214755,0.0,35.04184000000001,0.7690104542971796,0.40389076,0.33667159,0.36352086,1.0,0.0,0.0,0.0,79.46977702650457
6.9072,84280.0669,2.794596655980188,-2.685698063536152,-3.051970962315689,-2.1090085355266406,2.8400565395961883,-5.182016536290176,-8.381440682783033,25.138341814016965,-10.87639990245451,25.733255,21.37333433648667,0.0,25.733254999999986,0.7908175916670692,0.40636447,0.3324258,0.31459266,1.0,0.0,0.0,0.0,75.47603505256993
6.9271,84280.0869,2.3014627390837337,-3.790568178639844,-2.0460321934997427,-1.2722163781337965,3.1385396441735214,-5.188186178869901,-6.768640131787558,27.227719050369366,-10.499806908565592,15.868098,12.956258109542741,0.0,15.868098000000003,0.811229993325822,0.41088998,0.32635051,0.25801292,1.0,0.0,0.0,0.0,71.5674405020103
6.9468,84280.1069,1.4781646801254975,-4.733185682112566,-1.2137999951707918,-0.37123768774692434,3.354955517414864,-5.265995788016745,-4.812468846289315,28.89307749185299,-10.360559971675688,4.934176,3.9846307973588853,0.0,4.934176000000008,0.8262294934972422,0.41749698,0.32459402,0.1941129,1.0,0.0,0.0,0.0,68.57331646912621
6.9698,84280.1269,0.6117047307853932,-5.470112986945864,-0.6282051227502095,0.4345676322730372,3.5095328472137517,-5.426950129407744,-3.217867015359357,30.09505659623454,-10.055655274784536,-5.730433,-4.587240599203863,0.0,5.730433000000005,0.8294190224205962,0.42915848,0.33103511,0.13528799,1.0,0.0,0.0,0.0,67.92179252785233
6.9886,84280.1469,-0.31301238552234967,-6.122430707061215,-0.27900455781151834,1.1740107618984847,3.6432812708010562,-5.6649277099879995,-1.3195910140001958,30.910480270964616,-9.506534691435506,-16.678696,-12.900591376709201,0.0,16.678696000000002,0.8238558496977523,0.45003965,0.33575761,0.0774124,1.0,0.0,0.0,0.0,69.054674205112
7.015,84280.1669,-1.3220545536310915,-6.663628830322275,-0.06835159895619647,1.8109854284442937,3.7344480554678796,-5.95101668776341,0.975676639300135,31.155950163175138,-9.091055351355038,-28.151524,-20.732631504630547,0.0,28.151523999999995,0.8122707394262617,0.47589126,0.33681336,0.01733537,1.0,0.0,0.0,0.0,71.36322835929865
7.0344,84280.1869,-2.337426162670873,-6.9461482865451,0.11960144385051663,2.2746202212873343,3.808913302822572,-6.221329176845604,3.2030465203126166,30.738180201116823,-9.114286722805582,-39.789322,-28.199858038970874,0.0,39.789322,0.7950624366819369,0.50118941,0.33860689,-0.04505853,1.0,0.0,0.0,0.0,74.67769331050907
7.0477,84280.2069,-3.3871463579584975,-6.718607373777792,0.32337781473631466,2.68115020046515,3.8786643334853563,-6.358764401421714,5.435167688816267,29.651491854695372,-9.624496934350699,-51.155884,-35.11690403300634,0.0,51.155884000000015,0.7736208919088976,0.52503455,0.33674967,-0.11157552,1.0,0.0,0.0,0.0,78.63967069166911
7.0705,84280.2269,-4.289452956499774,-5.928759024020458,0.4298682810572618,3.1344453888093424,3.9686964240275855,-6.258487138464237,7.790284179855181,27.93874139402489,-10.25013879968218,-63.264225,-41.80529546330932,0.0,63.26422500000001,0.7430815676447051,0.55224627,0.32971755,-0.18477061,1.0,0.0,0.0,0.0,84.01083261340618
7.0898,84280.2469,-4.717217405454361,-4.98958967854412,0.28168672480941304,3.5948107078961002,4.170865125334069,-5.910998958387287,9.50137024114968,25.94870722634246,-10.620423158480904,-75.283836,-48.108797224881286,0.0,75.283836,0.7000996306110457,0.58252937,0.3260937,-0.25334352,1.0,0.0,0.0,0.0,91.13000414957367
7.131,84280.2669,-4.666332204814438,-4.243337707682882,-0.1018550558402147,3.9505180100848345,4.468996046551081,-5.512642173012716,10.02386665204983,23.98343008751113,-11.065557662497586,-85.146278,-54.287474892258444,0.0,85.146278,0.6501366681220814,0.60721707,0.33427709,-0.31123716,1.0,0.0,0.0,0.0,98.89618628725667
7.1335,84280.2869,-4.601591360201255,-3.7512109812575742,-0.7150267284612344,4.214331343298316,4.864710035814995,-5.181209408439703,9.741572001239872,22.183046445886312,-11.593402826879405,-92.504349,-59.932046484407216,0.0,92.504349,0.5982202497650947,0.62654984,0.35101706,-0.35546428,1.0,0.0,0.0,0.0,106.51492303680581
7.1535,84280.3069,-4.750322339026652,-3.0738305426995023,-1.2856584516819165,4.415554153444665,5.210823813197303,-5.046094202525757,9.39934538490978,20.244405956570546,-12.593168711804594,-98.67849,-65.5532943165851,0.0,98.67849,0.5435368997877298,0.64049023,0.3681241,-0.39852798,1.0,0.0,0.0,0.0,114.15052583188263
7.1665,84280.3269,-4.88339746643081,-1.8314813611383276,-1.4776070952254763,4.530057099168457,5.392004482216363,-5.133427089711745,9.150107311055228,17.997858585588233,-14.302728024255398,-104.768082,-71.93268656908039,0.0,104.768082,0.4814545737189226,0.64778149,0.38189057,-0.45026684,1.0,0.0,0.0,0.0,122.43910864262945
7.1864,84280.3469,-4.730226847838267,-0.15856487375375372,-1.26198404031231,4.594059929098362,5.424138195723306,-5.176022667499511,9.004773655899532,15.649727195987449,-16.306514512167343,-111.159821,-78.15805637083383,0.0,111.159821,0.4112300591972718,0.65391153,0.39033157,-0.50092995,1.0,0.0,0.0,0.0,131.43574270558724
7.214,84280.3669,-3.9710453954877565,1.3163601502936477,-0.7026169637523498,4.5379605493188695,5.34362289498752,-4.993604020663322,8.67769902376237,13.557909785728967,-18.40559064632186,-117.65731,-84.53977803109285,0.0,117.65731,0.3286489744181129,0.65903175,0.39987478,-0.54568046,1.0,0.0,0.0,0.0,141.626411514085
7.2285,84280.3869,-2.7112688033855465,2.0365251539038,-0.14115245203297277,4.319943682351913,5.089596149983982,-4.634640333596515,7.872071866527509,11.758924819971762,-20.78623943503404,-123.661644,-91.42565611019003,0.0,123.661644,0.2402896498678256,0.65730083,0.41095465,-0.58423692,1.0,0.0,0.0,0.0,152.19272728699667
7.2488,84280.4069,-1.6562128827306553,1.9688332515389642,-0.09112158381682889,4.048307910748632,4.649301603111306,-4.175492661368227,6.926553130170559,10.111579336440242,-23.382627760747862,-128.645966,-97.47700118460492,0.0,128.645966,0.1622747793235335,0.651757,0.41936573,-0.61074716,1.0,0.0,0.0,0.0,161.32208543381424
7.2722,84280.4269,-1.1702735906185966,1.4981975296996461,-0.6152787633555441,3.76299429704964,4.133467385061759,-3.7524844503362447,5.995301845753017,8.671638899700746,-26.05964730182188,-132.253891,-102.59062930843183,0.0,132.253891,0.0992395505909885,0.64397007,0.42808193,-0.62625867,1.0,0.0,0.0,0.0,168.60923577462046
7.2969,84280.4478,-1.0802202920161696,1.1738510440831398,-1.445519550769614,3.543741509898949,3.5770736210273384,-3.491723335329663,5.1436230066648285,7.303751083160399,-28.732060617287935,-135.400879,-107.04876867205438,0.0,135.400879,0.0465041872301617,0.6357581,0.43376386,-0.63678718,1.0,0.0,0.0,0.0,174.6690900326802
7.3112,84280.4679,-0.9651170435891077,1.2839756776794657,-2.233696291776493,3.4172181411247347,2.978659213805765,-3.4080714893171034,4.185737610961924,6.033279826923167,-31.277461249109166,-139.207047,-111.42404202646017,0.0,139.207047,0.005035798930011,-0.62799418,-0.433723,0.64612871,1.0,0.0,0.0,0.0,179.42293751066958
7.3445,84280.4889,-0.4865077930862074,1.6591259898849033,-2.7508266262553835,3.3609325343145846,2.3854862064699374,-3.3636622582474507,3.160887077260579,5.68125928458576,-33.45570663984967,-143.159576,-115.42631445299097,0.0,143.159576,0.06420734509313,-0.62196767,-0.43559852,0.64752418,1.0,0.0,0.0,0.0,172.63731542327835
7.3523,84280.5089,0.5510070740170168,2.253592025310403,-3.0145580377763324,3.297732582666274,1.719067294842685,-3.3674317025924836,1.9942577572616118,5.500470361964686,-35.39868209000744,-146.81543,-119.47148658469783,0.0,146.81543,0.1171060845680625,-0.61421084,-0.43735185,0.64633936,1.0,0.0,0.0,0.0,166.54976852037237
7.3779,84280.5289,2.01610098168054,2.7767567743357757,-3.0986854246603652,3.2952190497051883,0.8749850852241807,-3.321088662003656,1.2806991616168952,5.363463923508345,-37.09295517326771,-150.532425,-120.69564330786825,0.0,150.532425,0.1674090650986064,-0.61397821,-0.43444356,0.63738823,1.0,0.0,0.0,0.0,160.72557868964554
7.3902,84280.5489,3.4693066944709656,3.034369427782591,-3.0180872148415627,3.3246939874425667,-0.09495385840737858,-3.2078176848876034,1.097174078837324,5.577713897577938,-38.53204483398201,-152.890076,-117.25964645101205,0.0,152.890076,0.2145849347012724,-0.61954284,-0.43373275,0.61805815,1.0,0.0,0.0,0.0,155.2176450339089
