AppTimestamp(s),SensorTimestamp(s),acc_x,acc_y,acc_z,gyro_x,gyro_y,gyro_z,mag_x,mag_y,mag_z,yaw_deg_ori,yaw_deg_ori_cal,yaw_deg,yaw_error,Quat_w,Quat_x,Quat_y,Quat_z,q_w,q_x,q_y,q_z,quat_angle_error_deg
0.0656,84430.8872,-2.349589323101058,1.14159974074125,0.4309208252210297,-0.18279006624500563,-1.4129437486431513,-0.047300589647083835,-0.06946929391545886,22.515246948466174,-31.780553903749333,123.060768,138.43973025050272,0.0,123.060768,0.425807900981774,0.23294099,0.40753666,0.7735244,1.0,0.0,0.0,0.0,129.5963767417833
0.0723,84430.9071,-2.0483916891108858,0.9060402756120896,0.738531794898531,-0.29426313572532714,-1.307724344305885,-0.5455572476791078,-0.010724153654772195,22.727587296145543,-31.513296846594898,122.027641,137.21263202493867,0.0,122.02764100000002,0.4309742778997793,0.22467878,0.40191028,0.77604687,1.0,0.0,0.0,0.0,128.94118767055187
0.0781,84430.9272,-1.6888444751261567,0.5500384817989485,0.9459714588700194,-0.3243392983552451,-1.1896539172407326,-1.024692675883025,0.11929278596412018,22.823635843504633,-31.355749109038104,120.419395,135.66875756438256,0.0,120.41939500000001,0.4389638610570268,0.21763979,0.39775166,0.77571726,1.0,0.0,0.0,0.0,127.92441985617583
0.0827,84430.9472,-1.122226970617965,0.0532158578147377,1.135060695587356,-0.25149652348781254,-1.054206191791842,-1.4461943216125346,0.2634490349552472,22.75623341225866,-31.3486429807556,117.964935,133.64360390570766,0.0,117.96493499999997,0.451280827798331,0.21522631,0.39643839,0.76997393,1.0,0.0,0.0,0.0,126.34821946080788
0.0866,84430.9671,-0.40922410548161015,-0.5585029054048634,1.547658978972617,-0.0784460674850278,-0.8894009468490836,-1.779390316007023,0.6259985766868112,22.663203360074228,-31.375883988328795,114.821556,130.8452445374761,0.0,114.82155599999999,0.4679846621183833,0.21447739,0.39404964,0.76138997,1.0,0.0,0.0,0.0,124.19288815428771
0.0972,84430.9872,0.36472221681457473,-1.2495542822281245,2.3652752516628226,0.13957733264405958,-0.6659237459044574,-1.996411265274032,1.0825269629201308,22.727074404409773,-31.278478233729366,112.006561,127.71508870136432,0.0,112.00656100000003,0.4851979160122839,0.21380767,0.38754854,0.75410569,1.0,0.0,0.0,0.0,121.94911972073537
0.121,84431.0072,1.1508421572276255,-2.097311827527775,3.447157216181388,0.29827993739493275,-0.3530982066133081,-2.068831321938908,1.5350452419415674,23.182751990043688,-30.864075630508857,110.240936,124.32056744476661,0.0,110.24093600000003,0.5016374169086965,0.21765107,0.37389719,0.74912536,1.0,0.0,0.0,0.0,119.78322022504321
0.1341,84431.0271,2.0304395579781103,-2.874307816533237,4.415652412546542,0.31246919068752244,-0.011947251904262213,-1.9635143773851609,1.6163754437617008,23.356414760031253,-30.654611541878104,108.481819,121.22782395322308,0.0,108.48181899999997,0.5165240845655095,0.2247117,0.36397386,0.74177527,1.0,0.0,0.0,0.0,117.80123713202168
0.179,84431.0471,2.9647994191797817,-3.755826831389105,4.816118065954747,0.18824538491229736,0.34035102663730565,-1.689501123196543,1.5914340861857674,23.48273971528866,-30.49501122586951,106.480629,117.46681336358179,0.0,106.48062900000002,0.5332235695733428,0.24060276,0.3547892,0.72931993,1.0,0.0,0.0,0.0,115.5529634003342
0.1829,84431.0672,3.799025592712611,-4.434311995104385,4.4917147075455155,0.022444749382622087,0.6801704304343219,-1.3126824548134357,1.2522399422590347,23.197871483521535,-30.69664173558581,104.532288,114.7378721652259,0.0,104.532288,0.5452167574312434,0.25162619,0.35256067,0.71772134,1.0,0.0,0.0,0.0,113.92104536102892
0.1949,84431.0871,4.5060322159371005,-4.784976380046363,3.464926419868643,-0.10442092111373652,1.0230755581228128,-0.9411791250823482,0.5276786286389274,22.615306388792323,-31.142444257325714,103.603661,114.47896661140135,0.0,103.60366099999999,0.54737989908859,0.25210205,0.35728484,0.71355963,1.0,0.0,0.0,0.0,113.62510375194132
0.2126,84431.1071,5.1043985202102204,-5.023066451912952,1.7916563675915196,-0.11333074399080689,1.3740557339682917,-0.6223419287456665,-0.05583416538637209,22.031051427188828,-31.54467947073995,102.70076,114.54252615758138,0.0,102.70076,0.5481587754200922,0.25352904,0.36437565,0.70885497,1.0,0.0,0.0,0.0,113.51842251354637
0.2351,84431.1272,5.478069586878512,-5.039889897537481,-0.22039994390433293,0.038389327013779256,1.6902257275784955,-0.3396683488346786,-0.19726624605095466,21.166425671741283,-32.065805192141596,100.430656,114.03672994172781,0.0,100.430656,0.5526907633954701,0.25474241,0.37553126,0.69901037,1.0,0.0,0.0,0.0,112.89638572774332
0.2558,84431.1471,5.596098134000501,-4.773676863737985,-2.3057660395678283,0.2874908087696766,1.920471636246497,-0.004510111383531024,-0.160106829327475,20.36876127185522,-32.45951689508943,98.169708,113.81646753130725,0.0,98.16970800000001,0.5557379868841721,0.25756279,0.38801941,0.68866366,1.0,0.0,0.0,0.0,112.47687892302663
0.2761,84431.1671,5.373976551985676,-4.117161771024956,-4.210863455219872,0.5064034487487421,2.0129903480475737,0.47591597567422683,0.09865990393876523,19.983100817152476,-32.55646279848998,97.236549,114.20792120984221,0.0,97.23654899999997,0.5547704279787924,0.26198635,0.39663959,0.68283963,1.0,0.0,0.0,0.0,112.6101922243496
0.2939,84431.1881,4.78952097698336,-3.1364642948475443,-5.842407216061065,0.5853160351974571,1.9015896292575882,1.1382121630190019,0.5459593550743396,20.246434205925958,-32.27936887968806,98.460838,115.07265535051393,0.0,98.46083799999997,0.5491620490558708,0.27121422,0.39839792,0.68274665,1.0,0.0,0.0,0.0,113.38090998261696
0.3147,84431.2082,3.8675684412457745,-1.9777776017279813,-7.103644384784435,0.47436025780151514,1.5424641235255794,1.8834233187510936,1.2103040692570044,20.55989445412234,-32.037582549350645,100.669327,116.68830089274341,0.0,100.66932700000001,0.5404230605820927,0.27680761,0.39840546,0.6874544,1.0,0.0,0.0,0.0,114.57511388568902
0.3387,84431.2282,2.7844145697705547,-0.850834923493605,-8.01464409943845,0.21331733028385302,0.9783708244743434,2.559554420077504,1.3523211157749273,20.194925399948648,-32.33779975164193,103.363342,121.75124171466535,0.0,103.36334199999999,0.5207640285234596,0.26563379,0.40995103,0.70013118,1.0,0.0,0.0,0.0,117.23297003098466
0.3544,84431.2481,1.7322421391724634,-0.18898320007972086,-8.575984280879709,0.006988842218367486,0.19192845105174594,3.1129104713549065,1.7529430557389478,19.776075994976857,-32.71059497844703,105.900177,126.4588320134798,0.0,105.90017699999999,0.5010118529197133,0.24948323,0.4206996,0.71397275,1.0,0.0,0.0,0.0,119.86606748030502
0.3754,84431.2682,1.0581991396516834,0.06122190909218983,-8.643538712089956,0.03181860808300563,-0.7371364537164026,3.5070457142462317,1.682622562936503,19.59799359333777,-32.93885901575881,109.482368,131.68538875234134,0.0,109.48236800000001,0.4758142155549304,0.23553821,0.43237418,0.72881764,1.0,0.0,0.0,0.0,123.17524646573865
0.3999,84431.2892,0.8956364427249675,0.14915433456845129,-7.975732449917478,0.23477633948487386,-1.6333018189647976,3.7419598835704027,2.0351263591287694,19.580566487255528,-32.959316511048414,112.957848,135.69498199509417,0.0,112.95784800000001,0.4514778512763972,0.20943661,0.43800896,0.74863356,1.0,0.0,0.0,0.0,126.32291808930623
0.4202,84431.3092,1.1146370585226264,0.3850985881743031,-6.4177007650624045,0.5609242513643831,-2.3477202769629484,3.8401256470137985,2.8464527967034385,19.87426398848413,-32.631957612763685,115.92408,137.77224487652492,0.0,115.92408,0.4320247848651664,0.17632775,0.43453696,0.77035105,1.0,0.0,0.0,0.0,128.8077462713267
0.4399,84431.3302,1.2932363498202373,1.0107696785185454,-3.900958065567859,0.9342157387385874,-2.7779713530697405,3.8187323452942232,3.633121587683929,20.468717623741792,-31.9823536469239,118.975685,138.92628959793944,0.0,118.975685,0.4140740027828207,0.13989878,0.42358699,0.79343879,1.0,0.0,0.0,0.0,131.07796888768274
0.4579,84431.3501,0.9076270319715491,2.0495084633891683,-0.5561900494904748,1.260322232114102,-2.8922717713267234,3.6706974210376577,4.0379725969155995,21.281409567334002,-31.12211256038755,122.681969,140.05829342223498,0.0,122.68196899999998,0.3932502099155852,0.10143427,0.40663764,0.81835884,1.0,0.0,0.0,0.0,133.68622252832927
0.4765,84431.3701,-0.34036751273357346,3.238433222392276,3.2300687024696586,1.4089508804713653,-2.7529944063042615,3.357769993219299,4.146405425221829,22.226077131269506,-30.11868874801062,126.68483,141.1213082098719,0.0,126.68483000000003,0.3718852448396077,0.06596057,0.38348049,0.84278899,1.0,0.0,0.0,0.0,136.33613542870913
0.4966,84431.3902,-2.269954007787347,4.323356095055801,6.850592696255216,1.3307359334701172,-2.4212309090732105,2.85996629050335,3.754465066466011,23.030941792487248,-29.205556284695334,130.876816,142.62922285291177,0.0,130.87681599999996,0.3484891043218425,0.03704388,0.35947481,0.86484736,1.0,0.0,0.0,0.0,139.21014039680932
0.5257,84431.4101,-4.436121138909547,5.068225908622391,9.68072433791005,0.978853686764454,-1.995759228132804,2.188783401611205,3.156307281157691,23.66833287471055,-28.380091673858146,134.680939,144.16334034218434,0.0,134.68093899999997,0.3273143646393731,0.01660885,0.33537859,0.88323873,1.0,0.0,0.0,0.0,141.78830164713628
0.5416,84431.4301,-6.559036762879444,5.769287968268246,11.07720676079007,0.3771878293217341,-1.513576446975992,1.440367363422134,2.8610916997793883,23.688856306714385,-27.99100751398564,136.882446,145.0085217581253,0.0,136.88244599999996,0.3134453394350976,-0.00252959,0.31846872,0.8946079,1.0,0.0,0.0,0.0,143.46602831742888
0.559,84431.4502,-8.19778598591743,6.578605526727506,10.81142173819767,-0.3401462543319085,-1.0346055918664319,0.6718269765100967,2.801644929667397,23.076774230312864,-28.08605559376077,137.532013,145.1882308251712,0.0,137.532013,0.3069204633070341,-0.01943753,0.31275487,0.89866924,1.0,0.0,0.0,0.0,144.25251809584404
0.5916,84431.4712,-9.09721005415585,7.3084641598377615,9.116011169751864,-1.0427155524118175,-0.6167301900635798,-0.05674751530071054,2.7754047448586654,22.107909967007895,-28.426791060879005,137.137283,144.98066547282173,0.0,137.13728300000002,0.3053917455354151,-0.03226635,0.31689143,0.89737093,1.0,0.0,0.0,0.0,144.43653239649618
0.6148,84431.4911,-9.225889368909224,7.72645113440136,6.47456163546364,-1.6520605460675986,-0.29068637285625265,-0.680803328177157,2.7766642282054743,21.073519190697276,-28.760670183148612,135.810822,144.3878112626379,0.0,135.81082200000003,0.3091418208877114,-0.0392596,0.32798699,0.8918041,1.0,0.0,0.0,0.0,143.98495949555178
0.6242,84431.5122,-8.872158693052887,7.762400863019295,3.3154909496870797,-2.1196158489036314,-0.07059940133717829,-1.169865895714827,2.987157845203173,19.99025682027598,-29.064466489142696,133.346802,143.2867860732801,0.0,133.34680200000003,0.3183623768392391,-0.04387668,0.34553576,0.88166052,1.0,0.0,0.0,0.0,142.8721654963334
0.6424,84431.5321,-8.323541065551188,7.254550796068397,0.1627272378595599,-2.4264581866390165,0.026030871099463893,-1.5227726081639972,3.220230704829243,19.077709815136693,-29.23424695964635,130.433731,142.17995768171966,0.0,130.43373099999997,0.3285784297014238,-0.04641606,0.36627927,0.8693223,1.0,0.0,0.0,0.0,141.63497068150755
0.666,84431.5522,-7.744034342110034,6.295556671983964,-2.62212701509228,-2.572852997596618,0.0039068709769422005,-1.7604976045263065,3.410878161423428,18.422886424584927,-29.269420209892935,127.356895,141.2559035915885,0.0,127.35689500000001,0.338249327780529,-0.04668109,0.3882466,0.85596311,1.0,0.0,0.0,0.0,140.45950099511288
0.6815,84431.5722,-7.1452455144632765,5.094855223020021,-4.872249531512209,-2.553924148751889,-0.10056566694403515,-1.9208053481952698,3.6389888714127174,18.044266243498946,-29.184822904849227,124.027855,140.34460055089406,0.0,124.02785499999999,0.3487902493830325,-0.04477705,0.40952665,0.84180063,1.0,0.0,0.0,0.0,139.17332158583122
0.6981,84431.5921,-6.486970835578084,3.8164549378193886,-6.406113802671786,-2.3894758500716686,-0.23911446841888795,-2.0127722337043044,3.5339951864353516,18.20853899293443,-28.875094785692816,121.413414,139.96371631206193,0.0,121.41341399999999,0.3572148889078712,-0.03578131,0.42658007,0.83014858,1.0,0.0,0.0,0.0,138.1414979775913
0.7183,84431.6122,-5.811299783347005,2.7602608452113975,-7.309632114586602,-2.0895146288764854,-0.39415093172419113,-2.0790123239603204,3.3876629943394807,18.585042197050647,-28.50144546098268,118.742996,139.51451958636295,0.0,118.742996,0.3671216709458086,-0.02433746,0.44102883,0.81861037,1.0,0.0,0.0,0.0,136.923575157356
0.7379,84431.6322,-5.124901999483347,2.0610189412225406,-7.596054764116504,-1.7161468732021314,-0.5497376926875422,-2.1248507291461576,3.1494198825739232,19.23560486358482,-28.00771573095293,116.259026,138.9315085343249,0.0,116.259026,0.379070332036349,-0.0090413,0.45074162,0.80811876,1.0,0.0,0.0,0.0,135.44778245849662
0.7619,84431.6521,-4.417912248581283,1.724635020108474,-7.411838744074446,-1.3350067863126744,-0.7182448641826835,-2.15933171945546,2.7885812964501646,20.028314576448878,-27.456814316487126,114.046806,138.18586691739506,0.0,114.046806,0.3919789050926884,0.00735361,0.45620829,0.79885697,1.0,0.0,0.0,0.0,133.84462236205943
0.7791,84431.6722,-3.6172621151133604,1.655367534939927,-6.910592065917436,-1.0078343387123905,-0.8862391281297564,-2.1945123324098055,2.215785078354555,20.91138369978549,-26.876852213971553,112.280403,137.39289239052277,0.0,112.28040299999998,0.4045151404149015,0.02446167,0.45807144,0.7911635,1.0,0.0,0.0,0.0,132.27850616964503
0.7974,84431.6922,-2.659872905714609,1.716791940202921,-6.243434542970139,-0.7553752716398672,-1.0149963949451948,-2.2573587538002555,1.6384151236873628,21.852611326322823,-26.28077467529257,110.693275,136.20101017567816,0.0,110.69327499999997,0.4184875987560809,0.04022757,0.45582888,0.7845189,1.0,0.0,0.0,0.0,130.52171991183053
0.8171,84431.7121,-1.5434228402298378,1.80451182289665,-5.488088835236992,-0.5749683391717726,-1.063057958435035,-2.362164063373179,1.1389028611971934,22.75652417562497,-25.77763068460395,108.931175,134.52279550068647,0.0,108.931175,0.4344501606638242,0.05380713,0.45134738,0.77758819,1.0,0.0,0.0,0.0,128.49937618077516
0.8411,84431.7322,-0.3992409937607704,1.9245909518632507,-4.6882098098491,-0.42430582515044735,-1.0109889399636625,-2.507717283593283,0.8300075198156041,23.399987715697637,-25.60254188100333,106.42321,132.21821192176475,0.0,106.42320999999998,0.4528278202306819,0.06047684,0.44756866,0.76874691,1.0,0.0,0.0,0.0,126.14948154574634
0.8624,84431.7522,0.5851085522923838,2.024179900817388,-3.827085715524606,-0.2679313265832164,-0.8189227305715431,-2.6962694893416543,0.9544193462876915,24.02421297472057,-25.540785824474213,103.316124,128.8796355891181,0.0,103.316124,0.4766915179885047,0.06402238,0.44034085,0.75813341,1.0,0.0,0.0,0.0,123.06091631144591
0.8826,84431.7732,1.270288336368894,1.8477907949445322,-2.9290075197863246,-0.07697803847017815,-0.4646427434523263,-2.924440336980087,1.3454654065001623,25.12345273031044,-25.065158043733902,100.800362,124.84419671857178,0.0,100.800362,0.5039772304724298,0.07535207,0.42444137,0.74845076,1.0,0.0,0.0,0.0,119.4730356933204
0.905,84431.7951,1.5530879837699194,1.4384370884591622,-2.1802937467272905,0.2195220651278771,-0.10765866869329543,-3.165718782165894,1.466539070109535,26.05919981644711,-24.732825810542067,98.430031,121.18157313198023,0.0,98.43003099999999,0.5277277605447731,0.08819877,0.41129616,0.73794299,1.0,0.0,0.0,0.0,116.29588613390963
0.9304,84431.8161,1.5107683536980065,0.9087839082184758,-1.672163554873734,0.678223531900046,0.09842963406621008,-3.424342188190348,1.391155098292728,26.63448636468627,-24.711810983247243,95.686577,117.75035989128938,0.0,95.686577,0.5493653431018264,0.1023254,0.4033215,0.72460955,1.0,0.0,0.0,0.0,113.35303251319222
0.9462,84431.8362,1.3468292471555023,0.4230604761290019,-1.3441620691235379,1.3082272500932737,0.03177482710816722,-3.6846043044050796,1.541676591419158,26.988875378314006,-24.791215936397585,92.266777,113.57158852452515,0.0,92.26677699999999,0.5738364450674894,0.12145935,0.39567956,0.7066803,1.0,0.0,0.0,0.0,109.96362321667426
0.9705,84431.8562,1.33683810367832,0.15827158925844545,-1.0730675176471607,2.0174851294041787,-0.34434725887887785,-3.9063550877261797,1.6014727416335628,27.334036734328702,-24.716542928613205,89.436882,109.12387684347503,0.0,89.43688199999997,0.5964394430639356,0.14458394,0.3843911,0.68963683,1.0,0.0,0.0,0.0,106.76937020597671
0.9857,84431.8761,1.6979150930579565,0.06584852704353089,-0.727279107243822,2.673914053102433,-0.9790189614315475,-4.032291177251091,1.8704278060971085,27.809601302241298,-24.280398281224954,87.348663,103.59120684074037,0.0,87.34866299999999,0.6202294013416982,0.17108124,0.3630386,0.67398047,1.0,0.0,0.0,0.0,103.33422297905096
1.0037,84431.8962,2.548184625783101,-0.051680629460115035,-0.12621414217317728,3.1095282397371835,-1.753487666027838,-4.011023957023329,2.4415435374631382,28.27274780547919,-23.617540726736795,85.56871,96.6910201650647,0.0,85.56871000000001,0.6469582471534288,0.19796035,0.33069462,0.65794969,1.0,0.0,0.0,0.0,99.37468522318137
1.0248,84431.9162,3.737878529319192,-0.5176531819637589,1.0019104758538688,3.2437036887887167,-2.3868087157831845,-3.794847551054821,2.9834335018269087,28.700290804723263,-22.810071007579225,84.639526,89.89540036667056,0.0,84.63952599999999,0.6726348700383729,0.21963635,0.28705275,0.64569569,1.0,0.0,0.0,0.0,95.45849498264766
1.0528,84431.9361,4.754950079744859,-1.5539108450787478,2.8399114202672973,3.0686772851211384,-2.6571778531500705,-3.323831082194728,3.8189952517116525,28.868556952653485,-22.17611648916362,83.497604,83.60880129887694,0.0,83.49760400000002,0.7003496147876884,0.2307712,0.23242833,0.63421774,1.0,0.0,0.0,0.0,91.08987924369332
1.0795,84431.9562,5.087012674267916,-3.1570168306164526,5.12287781031894,2.6575201498113508,-2.344216929142096,-2.6572873531644494,4.526833310497094,28.859483953688553,-21.799450680794273,82.447273,79.1130198450654,0.0,82.447273,0.7244899430916171,0.23339623,0.17269094,0.62515467,1.0,0.0,0.0,0.0,87.14713272595283
1.0873,84431.9762,4.770191156895232,-4.776579283633868,7.22060486850199,2.1793490790948225,-1.4422712203413584,-1.9072806641716478,4.268690932157657,28.530196838100817,-22.177678439654557,81.744965,76.9136237369653,0.0,81.74496499999998,0.7392052439383844,0.23097615,0.12588744,0.61998224,1.0,0.0,0.0,0.0,84.67248302460851
1.1075,84431.9972,4.330100309770209,-5.962213207051353,8.602085249701013,1.8321648024414277,-0.14847008057585745,-1.219329396201889,2.8307173191847603,27.808938874967048,-23.393911216432286,81.124077,75.69749748471583,0.0,81.124077,0.74623799575072,0.23221099,0.1048575,0.61498928,1.0,0.0,0.0,0.0,83.46891226516118
1.1283,84432.0171,3.822371221540404,-6.698238831783426,9.080655841781269,1.8045050072140953,1.276724636962705,-0.6847620093816016,0.8189315291664423,26.929603199297656,-24.80103577865491,80.809738,74.87244723750472,0.0,80.80973799999998,0.747918125137024,0.2396041,0.1025456,0.61048567,1.0,0.0,0.0,0.0,83.17928029206905
1.1426,84432.0371,3.206985598717786,-7.484446377588097,8.484929226946534,2.1096822562180346,2.5499072975032724,-0.3324068487793508,-1.0739313294266708,26.55428497554317,-25.503703982906465,81.053993,73.67352345782498,0.0,81.05399299999999,0.7450818909477552,0.2618109,0.10642337,0.60413748,1.0,0.0,0.0,0.0,83.66773355528085
1.165,84432.0572,2.5589957424250445,-8.172858672532714,6.99029041126407,2.573500341685897,3.441397984804385,-0.18529909975539904,-2.820700408898153,26.521124414949448,-25.697999951921872,82.268387,72.46382714385545,0.0,82.26838700000002,0.7358119846316536,0.29465878,0.11696431,0.59839475,1.0,0.0,0.0,0.0,85.2482553112149
1.1922,84432.0772,2.042025912345566,-8.661056596992331,4.933510505656889,2.950306404184926,3.8000172987018477,-0.2620079206176018,-4.537512635653448,26.582359891177877,-25.6372603450301,84.40313,70.8661165446429,0.0,84.40313000000003,0.7201936111840881,0.33639288,0.13623396,0.59127092,1.0,0.0,0.0,0.0,87.85906470258465
1.2075,84432.0971,1.5293758362534566,-9.528013420085989,2.3009430076145083,3.1616499998307876,3.521508527907455,-0.3029895622391152,-5.575860911816175,27.781678760807786,-24.364276312347354,88.698494,66.89026273380065,0.0,88.69849399999998,0.6977637059705015,0.40003365,0.14473011,0.57632637,1.0,0.0,0.0,0.0,91.50427991584503
1.2259,84432.1172,0.936618868557332,-10.05483940807217,-0.2809810011154319,3.247002817748946,2.6630811608102816,-0.3339752020969937,-5.328820766356374,28.980670327365964,-23.299002145070048,93.08506,60.11824047333876,0.0,93.08506,0.6801125731044457,0.46259272,0.14452446,0.5500614,1.0,0.0,0.0,0.0,94.2951189413824
1.2542,84432.1382,0.5975158247341472,-9.806325944637214,-2.1266113011779186,3.249497001799737,1.5965477846602447,-0.26577417598643027,-4.1394371201741915,28.59274275776657,-24.417014395178157,94.981262,56.906761918213775,0.0,94.98126200000002,0.6738302067060229,0.4864566,0.14300728,0.5374586,1.0,0.0,0.0,0.0,95.2732504146075
1.2699,84432.1592,1.0100038373986395,-9.382666348870488,-3.687134164473277,3.3780550713374238,0.6243432400294111,-0.009364038595910396,-2.833092472930012,27.64465595780428,-26.12739076021482,96.527657,56.547737667660996,0.0,96.52765699999998,0.6688930743218281,0.49456277,0.13902438,0.53727269,1.0,0.0,0.0,0.0,96.036621732807
1.3007,84432.1792,1.9947785082132983,-8.891650378561932,-5.127066700593596,3.7246800528848034,-0.0846248984884578,0.409454254254324,-1.4567990059519182,26.70729670539262,-27.618128309496754,98.338547,57.21153557092965,0.0,98.338547,0.6632982439735852,0.49967894,0.12994185,0.54173011,1.0,0.0,0.0,0.0,96.89619322866645
1.3097,84432.1991,3.1829738954219855,-8.192999257526328,-6.417422902944272,4.235184726105846,-0.43274731072724526,1.0162027318472444,0.01966011390172362,25.851004436528786,-28.727690079553412,100.617599,59.08734235970339,0.0,100.61759899999998,0.6556287761207633,0.5024122,0.11440451,0.5519461,1.0,0.0,0.0,0.0,98.0653113998342
1.3279,84432.2192,4.225364999962329,-7.054142232357388,-7.503895785990645,4.783560972721347,-0.4000458678737077,1.8125649896727731,1.2813759265046087,25.03284358329557,-29.441906694822094,103.88662,62.38537684139938,0.0,103.88662,0.6420889425155912,0.50377303,0.09611383,0.5698216,1.0,0.0,0.0,0.0,100.10447273683626
1.3478,84432.2392,4.790262035837279,-5.342598151359593,-8.430216895089101,5.225754792494255,-0.09306640802680749,2.702363633645323,1.8796442020036963,24.427587372865002,-29.685194671199856,109.028908,66.55962808836632,0.0,109.028908,0.617456817851671,0.5100798,0.07900433,0.59356886,1.0,0.0,0.0,0.0,103.73869048583306
1.3669,84432.2591,4.6437010103096075,-3.1679869085621872,-9.142550283553225,5.447364178154188,0.2709706619873555,3.5730914296281755,1.8487331418579203,24.117985923917225,-29.52733908591466,116.074066,71.33206517512612,0.0,116.07406600000002,0.5797100071459587,0.52379858,0.0632282,0.62094569,1.0,0.0,0.0,0.0,109.13970265652044
1.386,84432.2791,3.803246815587231,-0.849553862002382,-9.46919850830207,5.419094037335999,0.5874126948108358,4.302002052003786,1.4127530005491238,23.498571045355845,-29.590140553476946,123.825943,77.00912359582408,0.0,123.825943,0.5332014169271043,0.53749353,0.05539873,0.65094388,1.0,0.0,0.0,0.0,115.55596406492627
1.4071,84432.2992,2.501445847965652,1.1574764708129546,-9.40586673035452,5.2595105008448995,0.7224885228493128,4.7271195086549485,0.6559365665990775,22.875602162235637,-29.73528351009817,132.453781,82.95208029032432,0.0,132.453781,0.4775231073054654,0.55527544,0.05409165,0.67875987,1.0,0.0,0.0,0.0,122.95248636284907
1.4252,84432.3191,1.1488931737779025,2.5034775406751595,-8.851724224695193,5.114425465130392,0.6120317018496081,4.78273999098933,-0.35121818664820026,22.81010360872338,-29.58506909616356,141.843048,88.36209230211306,0.0,141.843048,0.4116751353694511,0.58128059,0.05267262,0.69990146,1.0,0.0,0.0,0.0,131.37978458665663
1.4455,84432.3391,0.16143624885924363,3.0955461632920285,-7.836880421938533,4.932634331138642,0.41853665292528425,4.615068554420921,-0.7027410108893903,22.814518024372845,-29.513417068672048,149.658951,94.29876794640205,0.0,149.658951,0.3479490282826407,0.60196531,0.04832088,0.71710134,1.0,0.0,0.0,0.0,139.27616054399635
1.4661,84432.3592,-0.2977348327041022,3.0789140685841954,-6.507298478194378,4.705861552661625,0.26599507065804817,4.325601859774443,-0.5896186548141937,22.932800179742944,-29.428155802227195,155.996124,100.86194921937411,0.0,155.996124,0.2878778575324145,0.61776048,0.04100262,0.73062789,1.0,0.0,0.0,0.0,146.5381019565168
1.4856,84432.3791,-0.3887937631321624,2.637794608373422,-4.982319547184477,4.347837630736027,0.21785211151634995,4.080579693171487,-0.014126015606349185,23.21544694183891,-29.210086870557202,161.219269,110.24533032417756,0.0,161.219269,0.2291367073350959,0.62568772,0.03013582,0.7450524,1.0,0.0,0.0,0.0,153.50749712435916
1.5123,84432.3991,-0.2601143777746384,1.979284310103017,-3.39711483851199,3.882820194475601,0.22721390888907458,3.889775368363133,0.5523672512463618,23.485572577163147,-28.965612339548617,165.780212,121.1834720484291,0.0,165.780212,0.1733445178987292,0.63081855,0.01912745,0.75607789,1.0,0.0,0.0,0.0,160.03533268377114
1.5298,84432.4192,-0.011942024922957095,1.3203106092593693,-1.813194084526713,3.3528575352830208,0.19545084101947863,3.709274506616182,0.6710300686483421,23.536670743117327,-28.914169097232886,170.143936,132.96290620983922,0.0,170.143936,0.1213226505111102,0.63779795,0.01251122,0.76048541,1.0,0.0,0.0,0.0,166.06311472355165
1.5448,84432.4391,0.2082009945968666,0.7562382732131108,-0.121476254885037,2.7726112994489167,0.01948109133908439,3.488864080732808,0.35614227176338886,23.320257128686237,-29.14059603645203,174.511887,148.4373066376881,0.0,174.511887,0.0727763293163606,0.64602941,0.01203457,0.75973994,1.0,0.0,0.0,0.0,171.6530677692057
1.5692,84432.4591,0.22006223869278982,0.19738389851864618,1.873080254302625,2.1228709523710263,-0.3359702441939575,3.1810556836419663,-0.04020434383113625,22.968658060606963,-29.518237301805737,178.934982,173.01047852961557,0.0,178.934982,0.0265026353630407,0.65086842,0.01663416,0.75854546,1.0,0.0,0.0,0.0,176.96266605932408
1.5896,84432.4792,-0.10410233337142133,-0.4646142663872913,4.233456970724372,1.3740976492304806,-0.8230849973606149,2.752675523520575,0.028648876348772445,22.64982398033112,-29.87173520171193,-177.053772,-162.2301215415002,0.0,177.053772,0.0148452783627106,-0.64776915,-0.02221793,-0.76136792,1.0,0.0,0.0,0.0,178.29879391838887
1.6047,84432.4992,-0.8470974978988992,-1.058922558086938,6.794796014373013,0.5164735920456358,-1.310223674069465,2.206215878936221,0.8369604778461057,22.269253037797647,-30.215362735034123,-173.92099,-150.632493391451,0.0,173.92099,0.0454311579872247,-0.63549304,-0.02824622,-0.7702511,1.0,0.0,0.0,0.0,174.79218024769787
1.6318,84432.5191,-1.7895369574596198,-1.1333335161461213,9.31638417013696,-0.39565464132522293,-1.6775613346924436,1.5933976032002366,1.7833754091851572,21.534726062297093,-30.710358930563647,-171.697433,-146.71194688931047,0.0,171.697433,0.0616116524234928,-0.62149233,-0.03883053,-0.78002787,1.0,0.0,0.0,0.0,172.9353503147313
1.6482,84432.5392,-2.90631219835022,-0.45775485316614195,11.583781680229933,-1.337509413867679,-1.905919422525631,0.9892206148687784,2.6088639946193672,20.498131847247667,-31.304053262493746,-170.092178,-145.90684272451423,0.0,170.092178,0.0660232654164679,-0.60707837,-0.05580064,-0.78992599,1.0,0.0,0.0,0.0,172.42878369609866
1.6666,84432.5592,-4.148741330060521,0.8263885626683368,13.398601007726391,-2.30435491599356,-2.01507161526633,0.42432113629334023,3.2124275928118524,19.47214000783321,-31.805936863669118,-169.106323,-146.81772507670206,0.0,169.106323,0.0617790458982125,-0.59317064,-0.07589103,-0.79910731,1.0,0.0,0.0,0.0,172.91613182477448
1.7359,84432.5791,-5.667659699321198,2.428204911722311,14.462156357191205,-3.2971405918133265,-2.0067662522295753,-0.13270833353375489,3.8826370410660416,18.75948322622253,-32.02522808781985,-168.837189,-149.76499709816906,0.0,168.837189,0.0508850560395117,-0.57628131,-0.0956643,-0.81003636,1.0,0.0,0.0,0.0,174.1664828043786
1.7375,84432.5992,-7.269893484702114,4.496937820775164,14.391070478830915,-4.264426343240043,-1.8795999983168925,-0.6836139082786805,4.603451087223339,17.998252757215973,-32.17328304418658,-169.528366,-154.47023044283515,0.0,169.528366,0.028784691824419,-0.5580554,-0.11834466,-0.82081676,1.0,0.0,0.0,0.0,176.70106162019647
1.7392,84432.6192,-8.431953911402722,7.127824024128144,12.915653589184558,-5.096470892921018,-1.7240097177594467,-1.1673543794194186,4.87380315185654,16.673020554816674,-32.572871815009805,-170.846375,-159.35570491144142,0.0,170.846375,0.0065410878522903,0.54398161,0.15124166,0.82532853,1.0,0.0,0.0,0.0,179.25044120013155
1.7474,84432.6391,-9.087843536376553,9.517888016245685,10.13944325672325,-5.668321029165397,-1.6926661928731614,-1.5921320248786353,4.589070651593633,15.156713503092416,-33.00800648658744,-172.219864,-163.6234288732153,0.0,172.219864,0.0480375745878122,0.53246385,0.19244364,0.82288522,1.0,0.0,0.0,0.0,174.49318011895747
1.7731,84432.6591,-9.214456640011685,11.115281581102174,6.573987666705975,-5.935100362053846,-1.8244836883018638,-1.944464793600148,4.045472596164243,13.75935505810768,-33.316029006185644,-174.071518,-168.2896510352676,0.0,174.071518,0.09546166182576,0.52223074,0.23540354,0.81409293,1.0,0.0,0.0,0.0,169.04421629801666
1.7852,84432.6792,-8.933173406850619,11.80332188711784,2.786595722842147,-5.921401304026733,-2.0860870093552606,-2.2470177467567964,3.7870920067849623,12.619297371347336,-33.452980118288735,-177.160446,-174.77804742652694,0.0,177.160446,0.1500955344682853,0.50937283,0.2752625,0.80139953,1.0,0.0,0.0,0.0,162.7350740810034
1.8076,84432.6991,-8.642465735240652,11.402752642380085,-0.6475663840638308,-5.6339641172279755,-2.509300582410296,-2.6025841037556137,4.087559284086618,12.32187402298714,-33.25465714696558,178.683655,177.85077679953142,0.0,178.683655,0.1997563849472849,0.48640636,0.30831864,0.79274577,1.0,0.0,0.0,0.0,156.95457309327324
1.8286,84432.7192,-8.08073806271219,10.414489109657334,-3.494859345872503,-5.171113032390284,-2.9714448656786523,-2.9514176770142124,4.7658912917545235,12.531105140510311,-32.88931264738684,172.7948,169.8070668914407,0.0,172.7948,0.2467727321720807,0.4570058,0.33411601,0.78652108,1.0,0.0,0.0,0.0,151.42675815140564
1.8459,84432.7392,-6.872650231869771,9.34672127706361,-5.695619269633034,-4.7049461811805,-3.285582197173858,-3.1543319733866313,5.580328688025389,12.589045824480966,-32.60691309437942,164.062271,160.05788064152426,0.0,164.062271,0.3008003831885587,0.43008932,0.35246137,0.77479887,1.0,0.0,0.0,0.0,144.9886353479283
1.8678,84432.7602,-5.295585682037032,8.207875600666018,-7.231943160798822,-4.223621819451097,-3.410305328698279,-3.237262517068213,6.678700453301129,12.445859460840737,-32.37327499108763,151.876755,148.7305925798769,0.0,151.876755,0.3593241472836189,0.40072736,0.36322764,0.76050603,1.0,0.0,0.0,0.0,137.88260919572525
1.8888,84432.7801,-3.679550599616806,6.914920722828893,-7.637674923975274,-3.742180222484378,-3.1675995187298867,-3.328359437249007,7.347629899808588,13.748398843992222,-31.655699544315503,141.417114,138.3761625917573,0.0,141.41711399999997,0.4042660568898965,0.38236555,0.35290349,0.75221318,1.0,0.0,0.0,0.0,132.3097146703064
1.9153,84432.8001,-2.376887368368003,5.60683937566829,-7.484089944263452,-3.222179468614032,-2.7076540565045124,-3.3537441025300314,7.481488918850049,15.397225882906326,-30.85506139573421,133.387177,130.11335340018118,0.0,133.387177,0.4394263111171397,0.36766335,0.33798149,0.74665701,1.0,0.0,0.0,0.0,127.86543347708452
1.9287,84432.8202,-1.4019763196135928,4.32422693915832,-7.112974115282654,-2.743281525228652,-2.0783109151273176,-3.2902679273850897,7.061188264698108,17.091258379162454,-30.077168445190292,127.289505,122.50170042381218,0.0,127.28950500000002,0.4705646479577877,0.36299273,0.32109252,0.7373634,1.0,0.0,0.0,0.0,123.85808940405344
1.9465,84432.8402,-0.8080491399897404,3.0509625962709306,-6.813024942818059,-2.262781292809072,-1.4475643383930776,-3.1633168562784277,6.222053000305463,18.69800898689884,-29.326384298589616,122.566803,115.61428632988508,0.0,122.566803,0.497368916429346,0.36539498,0.30649671,0.72468644,1.0,0.0,0.0,0.0,120.34783791317635
1.9666,84432.8601,-0.588889908633832,1.8350797198159512,-6.663566739739303,-1.7321555867335299,-0.923742272076666,-3.0334115847515952,5.319057551629587,20.233145781853263,-28.48934311854544,118.745758,109.38259525856778,0.0,118.74575800000002,0.5202278113738631,0.37077096,0.29341438,0.71119612,1.0,0.0,0.0,0.0,117.30493225218203
1.9877,84432.8802,-0.6954731805307552,0.8410206535934188,-6.642505778094646,-1.12938700691929,-0.6137781284495004,-2.938167384131299,4.808076434182778,21.019472209069985,-28.009873793261022,113.581017,103.33307894825629,0.0,113.58101699999997,0.5463169667415082,0.36969647,0.28649163,0.6948272,1.0,0.0,0.0,0.0,113.77058690143053
2.0188,84432.9012,-0.9845179979066551,0.07555212544536694,-6.608007504720277,-0.48331855278382285,-0.47486161338473276,-2.905548016022679,4.430872305972763,21.61114881777037,-27.632536538570655,108.88829,98.32569761302125,0.0,108.88828999999998,0.569098336932839,0.3668341,0.28099862,0.68014675,1.0,0.0,0.0,0.0,110.62525209510295
2.0516,84432.9212,-1.2583090849145375,-0.4689182459597764,-6.458970369214832,0.15463298967229133,-0.4509726824559114,-2.909587780067829,4.140275997117024,22.266127411897603,-27.215686130054692,105.265121,93.64999115061237,0.0,105.26512100000002,0.5882030848408613,0.3679868,0.27281639,0.66646385,1.0,0.0,0.0,0.0,107.94080585184614
2.0623,84432.9422,-1.4409331451826692,-0.7408610810801821,-6.098262567874275,0.7460680335464217,-0.5225520376250038,-2.8839342408616333,4.331955281659733,22.93934946372027,-26.767696102837764,101.87291,87.86689945911061,0.0,101.87290999999999,0.6090607772406802,0.37445027,0.25691849,0.65024984,1.0,0.0,0.0,0.0,104.95675602923758
2.0754,84432.9621,-1.5627649271066923,-0.6742723894700222,-5.454852727315089,1.248996677005024,-0.6728296026348398,-2.771379327695596,4.932721520607329,23.67130716238418,-26.263999451904986,99.058197,81.67333180484052,0.0,99.058197,0.6299398569876707,0.38531038,0.23204383,0.63314086,1.0,0.0,0.0,0.0,101.90862913355039
2.1088,84432.9821,-1.6304945472226946,-0.2266237573300956,-4.5104816070576685,1.6287845870634943,-0.883596537833993,-2.604748786396197,5.494871659951826,24.37721816475088,-25.821312636601004,97.244995,76.45201567466322,0.0,97.24499500000002,0.6467432082553667,0.39820579,0.20293307,0.61804008,1.0,0.0,0.0,0.0,99.40699718914236
2.1176,84433.0022,-1.5273917395764127,0.541611118456906,-3.2831838709699763,1.8984471447214288,-1.1200377680564024,-2.505491123661446,5.365358305865795,24.839665043157105,-25.73957517730577,96.657654,73.51758237351794,0.0,96.65765399999998,0.6555866636384685,0.40835682,0.17921421,0.60937107,1.0,0.0,0.0,0.0,98.0717022413001
2.1345,84433.0221,-1.0291123844350398,1.2601157509305811,-1.7695534572092004,2.083297884324434,-1.2922129267568747,-2.6137008148027885,4.361131077987663,25.247146461098268,-25.78354127921635,97.726974,72.10328136584573,0.0,97.72697399999998,0.655257268733594,0.42078909,0.16100021,0.60634428,1.0,0.0,0.0,0.0,98.1216793773701
2.1681,84433.0421,-0.09838850057618664,1.3089066183436042,0.031161753903006684,2.2284907878435973,-1.3192017236834537,-2.920843195815152,3.7030355726907445,25.856067469523662,-25.367837119795674,99.331863,70.34624932418002,0.0,99.331863,0.6537951185649296,0.43878192,0.13171175,0.60222453,1.0,0.0,0.0,0.0,98.343295034797
2.1713,84433.0622,1.049966407552823,0.5812794615223448,2.003136567026136,2.3861250460755143,-1.2231664314203163,-3.2430623252422466,4.091758145528118,25.922422825099144,-25.144675028115252,98.331055,67.5031819741646,0.0,98.33105499999999,0.6635421464118404,0.45186698,0.09288885,0.58898193,1.0,0.0,0.0,0.0,96.8588403768965
2.2094,84433.0821,2.110007767306815,-0.5621960622936913,4.052706024446618,2.607578889349778,-0.9587180145011285,-3.444616115733089,4.7649117598308806,25.34066059725362,-25.397447981498658,95.41217,64.53496753078917,0.0,95.41217,0.6802214000206518,0.45820022,0.05432804,0.56956112,1.0,0.0,0.0,0.0,94.27810710943423
2.2209,84433.1032,2.938005263088159,-1.786765339879775,6.108234000047595,2.900041345024263,-0.4076435184292987,-3.495288351863002,5.078555969665278,24.845067076203076,-25.58920771610969,93.13192,62.2875838975807,0.0,93.13191999999998,0.6923064996329648,0.46594125,0.01596057,0.55077738,1.0,0.0,0.0,0.0,92.37406647759845
2.2348,84433.1231,3.709082213029456,-2.9666291983784614,7.958103982089071,3.1806785322703375,0.4584387484535489,-3.405522950459806,4.747417965372669,24.827429199154995,-25.518601553669626,92.542542,60.598287285762375,0.0,92.54254200000003,0.6947581922801425,0.48147994,-0.02018521,0.53392947,1.0,0.0,0.0,0.0,91.98409721708525
2.2516,84433.1432,4.605784786986567,-4.528099607264317,9.143654311344893,3.374179261047243,1.511068625925433,-3.1910894838947392,4.087628050500557,25.393522632781202,-25.072982362878562,92.89344,57.80214700375323,0.0,92.89344,0.691214483160514,0.51097709,-0.05521447,0.50801212,1.0,0.0,0.0,0.0,92.54735443470261
2.272,84433.1632,5.622595208791262,-5.999359642542074,9.30651678849987,3.4952311366960753,2.533661333688509,-2.94254725347964,2.786512316577106,25.682751610163887,-25.13839281164219,93.182152,53.63612326891617,0.0,93.18215199999997,0.6886087760995196,0.54376894,-0.0737617,0.47401741,1.0,0.0,0.0,0.0,92.95983582035122
2.2884,84433.1831,6.472399534476125,-7.305954538726322,8.316165784161583,3.6123016532249794,3.4551912565859784,-2.750044866271521,0.9630104269032547,25.781242136101316,-25.514347763108255,93.798065,47.96128775487819,0.0,93.79806500000001,0.6865601881533399,0.5799132,-0.07734368,0.43168709,1.0,0.0,0.0,0.0,93.28313805934768
2.3106,84433.2032,6.585194355448179,-8.287434133879424,6.589820404585939,3.830040661042041,4.295898483997405,-2.574093135711531,-0.5407456937817585,25.940881119597353,-25.80812081617355,95.338326,42.19491201678834,0.0,95.338326,0.6815902507047064,0.61627924,-0.07913633,0.38648683,1.0,0.0,0.0,0.0,94.06392765720966
2.3354,84433.2232,6.108474756234772,-8.666347859061892,4.573467263779445,4.104659228365786,5.149783705332432,-2.390868237735063,-1.52200748211302,26.26463611030398,-25.91025052401681,98.780869,37.01858122384107,0.0,98.780869,0.6704057622553036,0.65300715,-0.08232075,0.34258002,1.0,0.0,0.0,0.0,95.80322109115542
2.3524,84433.2431,5.6094680873789144,-8.428648998115088,2.3489196805542,4.278414365543145,6.0864402757374325,-2.223323533030015,-2.534118649751889,26.75264948547746,-25.760674606678265,105.529877,31.330224807350373,0.0,105.529877,0.6518876280672673,0.69395322,-0.07921381,0.29529074,1.0,0.0,0.0,0.0,98.63185482470884
2.3757,84433.2632,5.102293238898548,-7.982399549416797,-0.19359632024598383,4.332698896593651,7.027748046213769,-1.982520917887305,-3.6052720282652864,27.541008231202472,-25.164770876704633,117.649193,24.329977482731014,0.0,117.64919299999997,0.6253232880074405,0.74069798,-0.06947856,0.23560564,1.0,0.0,0.0,0.0,102.588160262172
2.3972,84433.2832,4.3168785289934775,-7.43126043941858,-2.990779104248576,4.323539489556641,7.805136984927665,-1.7068695358228778,-4.853260402847402,28.18510025442975,-24.57360255787156,136.585419,15.946436228407157,0.0,136.585419,0.5959271188075863,0.78517133,-0.04939724,0.16104895,1.0,0.0,0.0,0.0,106.84249489619283
2.4106,84433.3031,2.8008900179489737,-6.575196812212351,-5.444439543119233,4.38555329793892,8.254638884816659,-1.6752187244199317,-5.706019040842265,27.425696275899114,-25.57499426978127,156.110886,8.234634028172616,0.0,156.110886,0.5820431390286913,0.80797821,-0.02443047,0.08831845,1.0,0.0,0.0,0.0,108.81125033015756
2.4292,84433.3232,0.7322517554929616,-5.651040940989786,-7.627558329517985,4.580428970125966,8.43867373760283,-1.7532110139573165,-6.581736106906649,26.195465375799223,-26.953301768158227,178.528412,0.5180691025159796,0.0,178.528412,0.5692662681272864,0.822034,0.00382832,0.0134671,1.0,0.0,0.0,0.0,110.60184753199641
2.4488,84433.3432,-1.5525446911990288,-4.497810769049472,-9.319956374438755,4.92957037610317,8.463398625304702,-1.922613512680825,-7.335861014758566,24.82813081522859,-28.29826281058945,-162.914902,-6.860519566484851,0.0,162.914902,0.5522939019762702,0.83090144,0.0322065,-0.05947255,1.0,0.0,0.0,0.0,112.95094600220894
2.4689,84433.3631,-3.686848605121573,-2.9802664916794015,-10.428358480261515,5.405405281731269,8.428285809616014,-2.2907709639647216,-8.058309668366784,23.465112508583676,-29.400765458069753,-150.591644,-14.291555490727347,0.0,150.591644,0.5295366390404849,0.83521956,0.05970801,-0.13577256,1.0,0.0,0.0,0.0,116.051694520714
2.4881,84433.3832,-5.52475037230366,-1.05002347418305,-10.945938541004747,5.937474025522894,8.405650900081765,-2.8451034644387696,-8.776503274214082,22.344893238442516,-30.046387263542755,-143.954224,-21.908162916043036,0.0,143.954224,0.496842330213499,0.8356716,0.08444006,-0.21833587,1.0,0.0,0.0,0.0,120.41738156902382
2.5092,84433.4032,-7.081477935852175,1.2959896914288274,-10.905944805832503,6.516885606806692,8.592478362968814,-2.810869226922785,-8.685238666180078,23.350031604533804,-29.087723923061308,-144.621323,-28.235563248530525,0.0,144.621323,0.4276532630624325,0.84898043,0.10890459,-0.29066253,1.0,0.0,0.0,0.0,129.36255549405698
2.5298,84433.4231,-8.43450652080358,3.7024006190365397,-9.68392444980714,6.966288519894514,8.736809460809464,-2.8921798434911974,-8.884105982712024,24.29299290570142,-27.825684160461304,-145.633347,-35.27363734605876,0.0,145.633347,0.3497717452664176,0.85115367,0.13763975,-0.36640477,1.0,0.0,0.0,0.0,139.05329065006268
2.5515,84433.4439,-9.153532005233895,5.7451510829928285,-6.792737450392609,7.094594362965224,8.729211841734852,-3.2752907912954985,-10.15037788123329,25.092241594503708,-26.045212568473968,-146.593201,-45.1433413092341,0.0,146.593201,0.2620909507995069,0.83330745,0.17438114,-0.45442078,1.0,0.0,0.0,0.0,149.61166397250562
2.5705,84433.4641,-8.176966626262177,6.878052354415912,-2.5451636273917986,6.89264016203989,8.494438402730012,-3.6592075086368254,-11.651882195985905,26.281087189123618,-23.37723172316795,-149.365387,-58.03630660355334,0.0,149.365387,0.1558278295090055,0.79666615,0.21344143,-0.54358393,1.0,0.0,0.0,0.0,162.0703784097928
2.5915,84433.4842,-5.3875846022582525,6.756931709614895,1.2061854920987543,6.553260950236952,7.893805330354397,-3.7470405120350296,-11.7178622222947,27.222307848339845,-21.33728754940506,-154.411316,-70.8830857970599,0.0,154.411316,0.0485910416141145,0.75543875,0.23988448,-0.60778832,1.0,0.0,0.0,0.0,174.42968331601213
2.6091,84433.5041,-1.4794313348774368,5.467098012646296,3.3463595841896066,6.0498461596684825,6.909640910607538,-3.597647189623015,-10.88548507566601,27.776402560260877,-20.2322257664941,-161.36586,-86.01529453538485,0.0,161.36586,0.0545783597069268,-0.71216083,-0.25460398,0.65193939,1.0,0.0,0.0,0.0,173.74267149390312
2.6324,84433.5241,2.333701581946914,3.593061897967347,3.4516549453424332,5.351061375470829,5.6233067638992855,-3.24508785154835,-9.882233694996263,27.78973616460087,-20.196077606400152,-169.44429,-111.94433497208931,0.0,169.44429,0.1455105571753119,-0.66935074,-0.26198336,0.67982423,1.0,0.0,0.0,0.0,163.26630892992796
2.6507,84433.5442,5.055559412409394,1.9057982696818607,2.043816428396955,4.56557510406297,4.11517880484979,-2.698720897175998,-8.902139611881397,27.421781882709436,-21.0420105990215,-177.593735,-162.45928368406243,0.0,177.593735,0.2204989754806864,-0.63309449,-0.26644349,0.69251674,1.0,0.0,0.0,0.0,154.52331618791533
2.6717,84433.5642,6.383509391905059,0.9933606889829676,0.10256895576585734,3.8048479699048574,2.4883360691017695,-2.0803989632494004,-7.8825093402010955,26.705533673918094,-22.578621780215716,175.662338,153.39140349502475,0.0,175.66233799999998,0.2759092888519241,-0.60889477,-0.2702609,0.69287825,1.0,0.0,0.0,0.0,147.9675816742312
2.6905,84433.5841,6.578595520543928,0.9449488057703466,-1.5669803932691337,3.1489813791250354,0.909492357059251,-1.515389640376419,-6.73013269453727,25.675898770932843,-24.43419233701411,171.775742,133.63872231454,0.0,171.77574200000004,0.3109786799816935,-0.59854966,-0.27670956,0.68444312,1.0,0.0,0.0,0.0,143.7635596356365
2.7107,84433.6042,6.067246368715769,1.3897422954141603,-2.5717628668072567,2.6630872927916376,-0.4748372830187372,-1.0890682412933115,-5.034818019795544,24.720219988126033,-26.01700594526389,171.287888,119.78960242109562,0.0,171.287888,0.3326405109726051,-0.60213536,-0.28988665,0.66539389,1.0,0.0,0.0,0.0,141.1417553047273
2.7301,84433.6242,5.38030908812455,2.025226428595679,-2.958063348605444,2.3509651676888472,-1.5629960199786308,-0.9134394294325927,-3.1811681942490884,24.00316359304375,-27.00088220387117,173.990372,100.65346860711564,0.0,173.99037199999998,0.3447367024645296,-0.61279893,-0.31089124,0.639516,1.0,0.0,0.0,0.0,139.66855212043907
2.753,84433.6441,5.022062443138618,2.6054658951494583,-2.9063861019827257,2.2051444429223057,-2.366970671625867,-1.0126612203081728,-1.6508117519513312,23.47614670620422,-27.459521365455604,178.662186,23.26910704268526,0.0,178.66218600000002,0.3520534170482365,-0.62482125,-0.33457616,0.61132282,1.0,0.0,0.0,0.0,138.7740743722363
2.7725,84433.6642,5.273039916670718,2.9210043228040115,-2.4135854408272674,2.1746006019123185,-2.9926810903481975,-1.2954574372186325,-0.2922933369816285,23.08630062879597,-27.59046367368255,-175.264877,-27.7970441488069,0.0,175.264877,0.359502770378053,-0.63955086,-0.35666174,0.57838124,1.0,0.0,0.0,0.0,137.86067480627565
2.7937,84433.6852,6.124083906559896,2.796072952701874,-1.354999582153301,2.1810252571788586,-3.56748941696441,-1.6681773073472534,0.8469080298431875,22.885043452515617,-27.463766540132575,-168.121674,-34.662237821813775,0.0,168.121674,0.3707624135537029,-0.65557355,-0.37614885,0.53969491,1.0,0.0,0.0,0.0,136.4747100375273
2.8142,84433.7052,7.160221250018619,2.1397527633939113,0.3707560381615256,2.170079814557547,-4.19464492033089,-2.025864046510221,1.811269055901798,22.818326622531984,-27.218338806568614,-158.976471,-37.18484500488765,0.0,158.976471,0.3833538922053692,-0.67313868,-0.39434031,0.49438834,1.0,0.0,0.0,0.0,134.91682833844618
2.8364,84433.7251,7.81639332087497,1.0153968157782347,2.6465255742841602,2.0681477781279223,-4.957959485038302,-2.2525542216346306,2.828742879681103,22.568034141266985,-27.157726491456245,-148.548645,-38.645514375955074,0.0,148.548645,0.3920073185688867,-0.69575608,-0.40774277,0.44271839,1.0,0.0,0.0,0.0,133.84108316939407
2.8627,84433.7452,7.529736909481992,-0.4494238728828863,5.205732667650867,1.847836266782623,-5.819628531943632,-2.339711112558449,3.980156383191307,22.261611243603177,-27.15671270546312,-137.924805,-40.67746428081612,0.0,137.924805,0.3939424135734387,-0.72251868,-0.41963315,0.38299367,1.0,0.0,0.0,0.0,133.59993716687492
2.8875,84433.7652,6.321658548056573,-1.954802651422178,7.496274010442107,1.535871612410573,-6.662643131429842,-2.381485986468358,4.593724106600204,22.087217601539706,-27.13480381379157,-129.172623,-43.35714899244282,0.0,129.172623,0.3898480801987973,-0.74633867,-0.43269166,0.32214126,1.0,0.0,0.0,0.0,134.10990632089903
2.898,84433.7851,4.072048490459146,-3.209100254986752,9.236609041052464,1.200079689256537,-7.403930148333015,-2.3986757398081076,5.254396109488162,21.995877721404884,-27.043516170248203,-122.126747,-46.923861313071534,0.0,122.126747,0.3754915197018003,-0.77042311,-0.44887063,0.25292194,1.0,0.0,0.0,0.0,135.8906099834515
2.9175,84433.8052,1.3201073179631457,-3.884717702255365,10.167901726670546,0.8434107975725342,-7.999543857356966,-2.397217669926921,5.82190631963533,21.806740053937446,-27.08190261831721,-117.988976,-50.25482622085183,0.0,117.988976,0.3514854288385272,-0.79355991,-0.46322906,0.17927493,1.0,0.0,0.0,0.0,138.84360495871778
2.9325,84433.826,-1.5898995684842223,-3.8784114509849914,10.301090578740457,0.46709782509392017,-8.430607535029154,-2.3760560753531514,6.521759173587707,21.535157598667027,-27.24775976331827,-116.168053,-53.13842476755428,0.0,116.168053,0.3185809136042456,-0.81495416,-0.47372431,0.09970555,1.0,0.0,0.0,0.0,142.84574750596593
2.9536,84433.8462,-3.9399734406079654,-3.3047373273213756,9.783005627259481,0.09654825899424191,-8.68781162109837,-2.3603012989274594,6.753459908274736,21.38570484545796,-27.56486556867186,-115.708122,-55.595332659454094,0.0,115.708122,0.2833515721225172,-0.82960385,-0.48055527,0.02315105,1.0,0.0,0.0,0.0,147.07932142093424
2.9843,84433.8661,-5.921588069505733,-2.340435514798429,8.728425205050403,-0.2595265387239034,-8.775811824703764,-2.354601283592727,7.180469717343252,21.437026362195013,-27.788205518219968,-116.026772,-58.13701213414992,0.0,116.026772,0.2437002500273329,-0.83784419,-0.48504287,-0.05797168,1.0,0.0,0.0,0.0,151.78992888687029
2.9921,84433.8861,-7.364528104197449,-0.9191882134583347,7.310611157794035,-0.6305597570890402,-8.730206164776076,-2.2679424854641144,7.760244668540706,21.36555603035553,-28.055871558001396,-117.427818,-60.55712891751343,0.0,117.427818,0.1969884738263493,-0.84069598,-0.48519313,-0.13788922,1.0,0.0,0.0,0.0,157.27818366708271
3.0118,84433.9062,-8.228413763741504,0.7723781045078266,5.6246307864912435,-0.9210385760379061,-8.591832628045045,-2.0802160922223165,8.191915111508242,21.18285171230705,-28.301672510199325,-119.234146,-63.25797703804661,0.0,119.234146,0.1449274823145665,-0.83588248,-0.48473009,-0.21291605,1.0,0.0,0.0,0.0,163.33384025181445
3.0324,84433.9262,-8.35416886337599,2.6527167948669117,3.792122026662483,-1.1525432141915215,-8.416324305095872,-1.6925022713243718,8.081352595239977,20.722323043003346,-28.70721819835731,-121.298187,-65.91200601285485,0.0,121.298187,0.089544048930043,-0.82560349,-0.48383194,-0.27616552,1.0,0.0,0.0,0.0,169.72524577817785
3.0567,84433.9461,-7.800073699732101,4.4014425223859215,1.886145157644231,-1.4681403019215091,-8.173883306658956,-1.1342858696377291,7.798809779734551,20.119307657941455,-29.116905786012232,-124.145187,-67.95004907003356,0.0,124.145187,0.0318568244799521,-0.81276798,-0.47790116,-0.33166826,1.0,0.0,0.0,0.0,176.34885907506768
3.0745,84433.9662,-7.133367818200774,5.313287349201396,0.03475156357935738,-1.797263443593799,-7.828491861641957,-0.6341543415196933,7.916216468181064,20.024001083711894,-29.063604897841305,-127.473839,-71.29674220295702,0.0,127.473839,0.0255670487532192,0.78851551,0.47133872,0.39424539,1.0,0.0,0.0,0.0,177.0699127442281
3.0962,84433.9862,-6.335460080404952,5.102723043524721,-1.1067756216499323,-2.08916807330187,-7.425530698865812,-0.2910117930295635,6.652961314093451,20.75799811961269,-28.89519532477901,-130.016495,-76.0472786601595,0.0,130.016495,0.0634342988705966,0.75998175,0.46929657,0.44515678,1.0,0.0,0.0,0.0,172.7260809571434
3.1134,84434.0061,-5.757945800906644,4.349325432259572,-1.8417235484145316,-2.347679090663758,-7.04522151488373,-0.014930141673166863,4.5521676525827655,21.31829943132964,-29.069332438574605,-131.543365,-81.84492944535153,0.0,131.543365,0.0960792115270834,0.73060113,0.47416317,0.48182991,1.0,0.0,0.0,0.0,168.97312353217475
3.1335,84434.0262,-5.346380391937128,3.491347069366858,-2.4108467265259286,-2.5122613207939635,-6.773436196693774,0.16508370018266683,2.1027208040456173,21.519361747890677,-29.46863857785535,-132.303818,-87.99867339210773,0.0,132.303818,0.1275698256811976,0.7023744,0.48333308,0.50673985,1.0,0.0,0.0,0.0,165.34163138565143
3.1625,84434.0462,-4.939259671119843,2.808299424804858,-3.0040254410026517,-2.5789020128115236,-6.642925222610515,0.25243090138308744,0.07327838785833585,21.517037262252774,-29.825882835615026,-133.59021,-93.7902930099448,0.0,133.59021,0.1624238390838668,0.67627001,0.48961654,0.52588308,1.0,0.0,0.0,0.0,161.30477478918922
3.1805,84434.0661,-4.4859044473518095,2.227969862837874,-3.6920342875640966,-2.495435805558143,-6.664209400736515,0.2623514863771199,-1.2855187294520274,21.69485037205963,-29.889785430684668,-136.337631,-100.49840398024746,0.0,136.337631,0.1985642011811748,0.64935112,0.4904379,0.54624724,1.0,0.0,0.0,0.0,157.09398004888922
3.1995,84434.0871,-3.9990550851976234,1.5843402074908153,-4.464814183127404,-2.183031016467382,-6.8326792858438665,0.243958666577615,-2.2731204859190317,22.160824170187176,-29.592484816325182,-140.844299,-111.2912284395069,0.0,140.844299,0.2307612712333185,0.61702764,0.48855487,0.57213658,1.0,0.0,0.0,0.0,153.31620980229476
3.2136,84434.1072,-3.4253540633546335,0.922828836406423,-5.288960345853537,-1.6970009013181575,-7.083547608211585,0.33074801199178516,-3.0528423460685037,22.614214568888507,-29.136892676547234,-147.673889,-127.40179138520206,0.0,147.673889,0.2610861284663102,0.58017206,0.48477709,0.60018796,1.0,0.0,0.0,0.0,149.73096216106507
3.2348,84434.1272,-2.6807515281010716,0.3511155898535723,-6.085302633126315,-1.1960662505798838,-7.347934739905376,0.6465163735586521,-3.7533505296199605,22.918203700353697,-28.63246960885275,-157.014313,-145.77487158290293,0.0,157.014313,0.2925483251224651,0.54626638,0.47788844,0.62260032,1.0,0.0,0.0,0.0,145.97883543045162
3.2676,84434.1471,-1.9100102957960214,-0.165440515114747,-6.91473485902632,-0.704276804367253,-7.603740334112546,1.1693088280188935,-3.7399866575860643,23.06571773951365,-28.233859477338257,-173.414307,-171.84105004608412,0.0,173.414307,0.3291748358405951,0.50156409,0.46657544,0.64991134,1.0,0.0,0.0,0.0,141.56260190495797
3.3162,84434.167,-1.0087219369932527,-0.7263236363626476,-7.752846222592957,-0.2864890367498409,-7.802736072757966,1.7308400362210525,-3.5281395550116694,23.457500035834755,-27.63686707157404,164.704971,164.6925135759979,0.0,164.704971,0.3616133795990588,0.44854498,0.44838464,0.68336987,1.0,0.0,0.0,0.0,137.60137541475444
3.3193,84434.1872,0.2253414131006945,-1.3710271761095663,-8.562883681384895,0.1088051060330868,-7.8479420688930475,2.1645749781298282,-3.749435611723455,23.930817225972216,-26.963699641733108,146.905365,151.42396197336313,0.0,146.90536499999996,0.3829184221972282,0.38652214,0.4276821,0.72184634,1.0,0.0,0.0,0.0,134.9708519680179
3.322,84434.2071,1.941849490976622,-1.9743550657049447,-9.066816850864075,0.5020403693395599,-7.603989273877573,2.314155501276934,-4.354024315919009,24.25908004321048,-26.459153076866954,136.302063,144.83402969111935,0.0,136.30206299999998,0.3938675251994771,0.3147999,0.40455064,0.76296014,1.0,0.0,0.0,0.0,133.60927358051384
3.3334,84434.2271,3.8675257946544073,-2.299817988028568,-8.823901809378059,0.8273842063558945,-6.993401785921888,2.079497645673103,-4.863410820253483,24.499650067247053,-26.16038614970997,130.577942,140.55407583971154,0.0,130.577942,0.4016952867917825,0.24082433,0.37535185,0.79984719,1.0,0.0,0.0,0.0,132.63159619806504
3.3558,84434.2472,5.284943541842749,-2.208029217487089,-7.766235860022551,1.1306596109401377,-6.040848502952682,1.4458992284461543,-5.227126132542425,24.88720914818898,-25.85377177757821,127.597977,137.01215700245797,0.0,127.59797700000001,0.4109498449310965,0.1775631,0.34070599,0.82674724,1.0,0.0,0.0,0.0,131.4709668977046
3.3743,84434.2671,5.654530302039693,-1.6309808080051544,-6.3296396573175375,1.5845219386183889,-4.820439497535119,0.519722578169965,-5.820893964552942,25.368070142017693,-25.479622691041126,126.133636,134.27363272389357,0.0,126.13363600000002,0.419957302158337,0.13053448,0.30665448,0.84413248,1.0,0.0,0.0,0.0,130.33621634734456
3.3958,84434.2871,4.9646224993298835,-0.5481171229628743,-4.914936872740818,2.2954736118846184,-3.43740180224339,-0.512028579425078,-6.515493553902212,25.568442022985078,-25.387519266888518,125.152565,132.14563183887375,0.0,125.15256499999998,0.4279312886122099,0.09038803,0.27690285,0.8555873,1.0,0.0,0.0,0.0,129.32730802263654
3.4167,84434.3072,3.8702621167894113,0.6353422141408694,-3.860425892319319,3.1904866140719976,-2.010512133949274,-1.6512048191419735,-7.471969825854767,26.16954680081747,-24.777009617742678,124.836327,130.2648930670101,0.0,124.83632699999998,0.4366973048134181,0.0736475,0.24416079,0.86270332,1.0,0.0,0.0,0.0,128.2133094238871
3.4367,84434.3272,3.1287445213253062,1.7147661229123488,-2.9548041291443212,4.160127812088821,-0.6285181629726257,-2.66190653126596,-8.189608583878046,26.99937721967158,-23.85449194627381,123.794281,127.6071040886187,0.0,123.79428100000001,0.4530717685128649,0.07730145,0.20937325,0.8630836,1.0,0.0,0.0,0.0,126.11812620692706
3.4545,84434.3471,3.168543422609978,2.551825088502632,-1.890826181134293,5.1181157861389615,0.6442052587729346,-3.2901750786623567,-8.282130842904072,28.206067300664152,-22.488625540677944,121.692345,123.52662618770098,0.0,121.69234499999999,0.4789250274263545,0.0989064,0.16597784,0.8563292,1.0,0.0,0.0,0.0,122.76956525280387
3.4739,84434.3672,3.83219997435895,3.127293718608315,-0.48636568948750103,5.9987208671174725,1.6963192427232503,-3.277792328891353,-7.5570009266933145,29.58555541668137,-20.889369845590238,118.501511,117.98516689305671,0.0,118.501511,0.5115615939393803,0.13141425,0.11153134,0.84178132,1.0,0.0,0.0,0.0,118.46419436159353
3.4967,84434.3872,4.72536277366425,3.428847771620857,1.2009335597640582,6.6457121399501915,2.4523670439039904,-2.6787814808290853,-6.7811567954716025,30.938722032989958,-18.9802020344141,115.375717,112.15076403287,0.0,115.37571700000001,0.5398550926614593,0.17800638,0.04978582,0.82121348,1.0,0.0,0.0,0.0,114.6524501571529
3.5141,84434.4071,5.362802831233758,3.6026051858844657,2.939378104806991,6.934865448717366,3.016079367976098,-1.8101614138084938,-7.279287132649159,31.800910391287427,-17.09067590822015,114.460342,108.1364204577598,0.0,114.46034199999997,0.5471706978123146,0.23704439,-0.00700162,0.80272359,1.0,0.0,0.0,0.0,113.65374659139094
3.5335,84434.4272,5.246820267492874,3.8081774902697383,4.455666736103083,6.96499166252653,3.4618013745427914,-0.9743600277412348,-8.95148892823374,31.684226229303036,-16.28038234375908,115.888474,106.39347419056458,0.0,115.88847399999997,0.534443055415867,0.29294363,-0.04791106,0.79136539,1.0,0.0,0.0,0.0,115.3877026299566
3.5567,84434.4471,4.206898663759445,3.5903882141459946,5.592278754971957,6.975306167573112,3.71387257846601,-0.24856019750148595,-10.019099462980215,31.149029239797343,-16.439174968053617,117.319252,105.05936118823331,0.0,117.319252,0.5182832584346475,0.33868179,-0.0858831,0.78057748,1.0,0.0,0.0,0.0,117.5656676745534
3.5775,84434.4671,2.948588003867609,2.549857810378798,6.2812383755057795,7.006317109708116,3.8832693024240905,0.1922067991673828,-10.713894360299786,31.020394523847138,-15.897335278052978,118.883148,102.55926593554126,0.0,118.883148,0.4967342275846412,0.39707071,-0.12867041,0.76094276,1.0,0.0,0.0,0.0,120.431655162481
3.597,84434.4872,1.707273754266522,1.5086115981645758,6.833870358300853,7.0122562232773875,4.132981372653574,0.258494900307668,-11.385155463501675,30.766469201285496,-15.45686378762278,120.84584,98.94666156569025,0.0,120.84584000000001,0.4710087114138322,0.46027237,-0.16323088,0.7346127,1.0,0.0,0.0,0.0,123.80041176913265
3.6185,84434.5072,0.6160050775435622,0.5820004440705662,7.742399675869269,6.954219671121548,4.550107138306334,0.07617562057844451,-11.8484579835022,30.257620661503857,-15.629798018447074,123.035278,94.69466632572313,0.0,123.035278,0.4434850780680178,0.51917905,-0.18941504,0.70561749,1.0,0.0,0.0,0.0,127.34708966384052
3.6336,84434.5271,0.25075516381739105,-0.8905516681222259,8.897140588160898,6.803256083566258,5.186560584174438,-0.18041233834092396,-12.150244934293985,29.806885024976427,-15.969743037243742,125.451057,89.50111801615486,0.0,125.45105699999999,0.4125515895544104,0.57730627,-0.21243794,0.67185473,1.0,0.0,0.0,0.0,131.26955446204542
3.6548,84434.5472,1.0992587551470172,-3.2646014787286832,9.382575459852173,6.643215837366022,5.9298318200657345,-0.2844943058985212,-11.973268112819511,29.833899402406907,-16.103689587124034,127.1605,82.56302717943464,0.0,127.16050000000001,0.382581595424952,0.63617539,-0.23871581,0.6260407,1.0,0.0,0.0,0.0,135.01263085386898
3.6749,84434.5672,2.9657947106780895,-5.85168449458625,8.154073866522296,6.609342879609616,6.614433406982199,-0.13890455759303255,-11.410944430127971,30.206859524690646,-16.21607782374302,127.829529,73.93842195104993,0.0,127.82952899999998,0.3598899544739973,0.69416368,-0.26470873,0.56439817,1.0,0.0,0.0,0.0,137.813124185611
3.6932,84434.5871,4.922217081327098,-7.6545171348304635,4.989341095578819,6.747114786985634,7.171856942335092,0.27604016616141624,-11.250872874108374,30.550736096755543,-16.289285996604548,128.936554,64.43604063729799,0.0,128.936554,0.3389735334317051,0.75231367,-0.28210449,0.48942634,1.0,0.0,0.0,0.0,140.37130295281435
3.7126,84434.6072,5.951586889507822,-7.939822724467879,0.8249048387781208,7.077973731008637,7.57684584667515,0.9035677708669754,-11.876610534423818,30.663768390900124,-16.215513858394345,131.797272,54.92869143352208,0.0,131.79727200000002,0.311561358262685,0.80922884,-0.28658137,0.40736878,1.0,0.0,0.0,0.0,143.69329918882465
3.737,84434.6272,5.834402784421009,-6.720295999680273,-2.934119021012277,7.510470666070345,7.931631014572746,1.7032309106033718,-13.18761904051628,30.43059832868672,-15.9670031147425,137.059418,45.94374807149106,0.0,137.059418,0.2695299019425565,0.86221218,-0.27630147,0.32802635,1.0,0.0,0.0,0.0,148.72740959781478
3.7568,84434.6482,4.930332167564448,-4.611853002715195,-5.343375781146858,7.981182131879221,8.275505257766124,2.665326369016763,-13.759540302954893,29.57664197653778,-16.91659239540668,142.621613,39.13007877039702,0.0,142.62161300000002,0.2234771974432048,0.90004504,-0.25819573,0.27076158,1.0,0.0,0.0,0.0,154.17330391282528
3.7779,84434.6692,4.143193289315957,-2.3906585355995595,-7.287371957699591,8.688652587778925,8.34347011903395,3.6641217578191445,-13.714781922549134,29.009998502880425,-17.19682571750298,147.964111,32.82110672881164,0.0,147.964111,0.1688721535597843,0.93422711,-0.24051414,0.20212583,1.0,0.0,0.0,0.0,160.55549967394492
3.8005,84434.6911,3.5183566654299283,0.24579059474862053,-8.938668084611788,9.536360088278435,8.090308591550064,4.505248050334026,-13.662731023481328,28.339637311947712,-17.025555562233425,153.576172,26.578082824791043,0.0,153.57617200000004,0.1074255289724611,0.96323657,-0.21476139,0.1204683,1.0,0.0,0.0,0.0,167.666140500377
3.8315,84434.7112,2.5996826320885305,3.4554498018293387,-9.69084811771959,10.275613264616547,7.462505038840593,5.217486530822149,-13.47863475768182,27.357051751756657,-17.03171815166969,159.43663,20.577448903394693,0.0,159.43663000000004,0.036600564633991,0.98269105,-0.17688972,0.04109411,1.0,0.0,0.0,0.0,175.80494726524032
3.8421,84434.7312,1.1519270853966903,6.518316545617255,-8.45342336370165,10.60504682993271,6.291585457900086,6.017548796158213,-12.79989227529875,26.75167120638162,-16.819762049996974,165.532578,14.378498872109212,0.0,165.532578,0.0602912694113931,-0.99018955,0.12393198,0.0230322,1.0,0.0,0.0,0.0,173.08693691397946
3.8622,84434.7511,-0.44080859143327045,7.680110252455612,-4.946887829277866,10.646583684190066,4.713004725262525,6.106076503536251,-12.629917418203757,26.97090732226269,-15.438894157754559,171.804733,7.781465458161501,0.0,171.804733,0.1831110500773083,-0.97741193,0.05104554,0.09236133,1.0,0.0,0.0,0.0,158.89795523043085
3.8794,84434.7712,-0.882531341023811,5.906937189688702,-0.99755246188802,10.405773685964105,3.020077949585139,5.219520366330025,-11.995579372641032,27.88453662998871,-14.1490706737405,176.071579,3.34474553510641,0.0,176.07157900000004,0.3065331402356988,-0.93950802,-0.01979927,0.15155891,1.0,0.0,0.0,0.0,144.29914981150387
3.8978,84434.7912,0.22461593870068264,2.6948840607403457,1.2202124799111207,9.759088698629762,1.4667120302742185,3.684764055512368,-10.080675570571932,29.085202914757637,-14.295044312040037,177.516052,1.7782431505349308,0.0,177.516052,0.4068549089986111,-0.89174777,-0.0687395,0.18582217,1.0,0.0,0.0,0.0,131.9851647589204
3.9183,84434.8111,1.991033446183467,-0.26648195937708596,1.6071381804130542,8.67875468182212,0.2308166116957613,2.0415912529544533,-7.4898490382974074,30.11917136853753,-15.605859550653262,178.500061,0.8427850085124805,0.0,178.50006099999996,0.4857271627574013,-0.84527582,-0.1049929,0.19635275,1.0,0.0,0.0,0.0,121.87974975417993
3.9415,84434.8312,3.7226137180545567,-2.2984001679401564,1.1079915701077887,7.353400592504865,-0.7299006088631566,0.5714677583658678,-4.55403019653668,30.78448801831606,-17.471336745772135,-178.183746,-0.7337232924368257,0.0,178.183746,0.5489420974445666,-0.80351198,-0.13471901,0.18676686,1.0,0.0,0.0,0.0,113.41106666575703
3.9685,84434.8512,5.219255036901277,-3.4414756680761704,0.5812556264077333,5.971511299935827,-1.5195574116124733,-0.696122803490731,-1.4960151285637542,30.909022247078106,-19.595611416660496,-169.321213,-2.824851912095177,0.0,169.321213,0.5984877219578476,-0.76867241,-0.15591785,0.16323234,1.0,0.0,0.0,0.0,106.4766693712477
3.986,84434.8711,6.352154049156723,-4.0436347720819015,0.5271418416459284,4.641185911552478,-2.2629704518691045,-1.722612019192812,1.6224478711168633,30.279280152922233,-21.98523223575047,-148.470703,-5.434409397547272,0.0,148.470703,0.6335950499786009,-0.7445488,-0.16696955,0.12777154,1.0,0.0,0.0,0.0,101.36828066425278
3.9992,84434.8911,7.1094973770939935,-4.346607868353875,1.1176363698135319,3.483201116591262,-2.972755502404427,-2.498309863452969,3.9808000466110487,28.856922010012273,-24.570513308916276,-121.324783,-8.646145086127062,0.0,121.324783,0.6529206557220069,-0.73113269,-0.17619541,0.08997102,1.0,0.0,0.0,0.0,98.47565906112501
4.018,84434.9112,7.195784400508115,-4.834347227546537,2.34832771216133,2.5209139360763144,-3.7448072420390903,-3.0194480836060476,6.065337554641679,26.99749490842918,-26.852440762373217,-105.427406,-12.735129354657957,0.0,105.427406,0.6610598849400404,-0.72594726,-0.1845562,0.04403877,1.0,0.0,0.0,0.0,97.23848836824264
4.0376,84434.9322,6.213769562357477,-5.908461484222928,4.02576503920694,1.6463506664941292,-4.543461387104866,-3.363738816666298,8.461407978562292,25.11195234557902,-28.315686913636235,-99.449753,-17.79916717837382,0.0,99.449753,0.6627827144109837,-0.72420639,-0.18957308,-0.0174993,1.0,0.0,0.0,0.0,96.97510939060872
4.0577,84434.9522,4.358421800250097,-7.162992162554256,5.714245599297872,0.8630325434655078,-5.220774355359683,-3.641147061821669,9.894630337235485,23.62126493707422,-29.1109174120942,-97.452568,-23.102569836152902,0.0,97.452568,0.6596964537749929,-0.72071737,-0.19857237,-0.07704593,1.0,0.0,0.0,0.0,97.44654652004856
4.0823,84434.9721,1.6945634092044441,-8.239533598225854,7.026388980232248,0.2136126652405892,-5.716802675230741,-3.904019898934931,10.6153206670836,22.695374483483644,-29.289819016333283,-96.537254,-29.11547226356412,0.0,96.537254,0.6525485757680884,-0.71367514,-0.21542439,-0.13579574,1.0,0.0,0.0,0.0,98.53193938732639
4.0993,84434.9922,-1.6092407086961558,-8.549597953747735,7.716773169850153,-0.4389770501422756,-6.056482187954979,-4.047951207183669,11.484544717627923,21.501218515268576,-29.322678777718227,-98.979279,-35.791383843494174,0.0,98.979279,0.6328351539633306,-0.71069843,-0.23089828,-0.20276438,1.0,0.0,0.0,0.0,101.48078763495649
4.1182,84435.0122,-4.723353739883605,-7.92778691955522,7.640554766200754,-1.1578899564330642,-6.178848130934291,-4.04390450356758,12.231014848058358,20.161901020852593,-29.28395197982273,-103.408806,-42.46175920217051,0.0,103.408806,0.6018173164832614,-0.71050012,-0.24031939,-0.27432114,1.0,0.0,0.0,0.0,105.99967094290186
4.1423,84435.0321,-6.875538463622132,-6.683652526794419,7.066379990469617,-1.8608612406152203,-6.101927818234688,-3.9014928508780873,12.396313580077077,19.07571381573539,-29.228872812252224,-108.119255,-49.02172896950623,0.0,108.119255,0.5630810179177979,-0.70982498,-0.24909344,-0.34211215,1.0,0.0,0.0,0.0,111.46172078348512
4.1606,84435.0522,-7.940512006013497,-5.230914745738281,6.466201563203239,-2.5208517734234044,-5.9085639912348835,-3.7073615378215727,11.914812268714627,18.36218618783013,-29.26379993890119,-112.570633,-55.367823661486455,0.0,112.570633,0.5190183763198223,-0.70832473,-0.25974485,-0.4017818,1.0,0.0,0.0,0.0,117.46714174025172
4.1805,84435.0722,-8.27414362713521,-3.805613952549991,6.102103773285,-3.033873802333914,-5.725708052494729,-3.606148552537844,10.69345021922356,18.117008067329937,-29.391872080438304,-115.951408,-61.466553678265655,0.0,115.951408,0.4743139498790173,-0.70486647,-0.27655196,-0.44911975,1.0,0.0,0.0,0.0,123.37061846075412
4.2069,84435.0921,-8.46586983978226,-1.9870722875126328,5.836575594229043,-3.330254418482342,-5.701397413222312,-3.607679732087215,9.140960420128154,17.692261496524356,-29.741767008131404,-118.647705,-67.64892388375533,0.0,118.647705,0.4236945090863628,-0.70183843,-0.30303791,-0.48587427,1.0,0.0,0.0,0.0,129.86388392856642
4.2216,84435.1122,-8.701428208767034,0.45672702389126485,5.276061617069315,-3.5295727666413517,-5.787546125413348,-3.6703816181945865,7.902817228186919,16.868824208500236,-30.140113603645556,-121.871323,-73.8223155050494,0.0,121.871323,0.3621978844244855,-0.70022005,-0.32927817,-0.51969266,1.0,0.0,0.0,0.0,137.52952574511312
4.2502,84435.1332,-8.865143514115951,2.820118841358923,4.191858537421309,-3.7446330252021154,-5.758296268591737,-3.9106519971327582,7.530818368212589,16.860549875603404,-29.816027940541872,-126.023514,-80.68515224376031,0.0,126.023514,0.2988493877487265,-0.69064575,-0.3416816,-0.56298417,1.0,0.0,0.0,0.0,145.2229844108289
4.2679,84435.1532,-8.648660535975498,4.8478993207679215,2.774306354823624,-4.046971626124707,-5.552371125715003,-4.195161873722987,7.815915725183295,17.62843046523758,-28.953503663003332,-131.334396,-88.71328962891367,0.0,131.334396,0.2341443138920693,-0.67347181,-0.34162176,-0.61229628,1.0,0.0,0.0,0.0,152.91762322992736
4.2821,84435.1731,-7.770222798288972,6.536278721130209,1.1790651008596171,-4.44491828225474,-5.28908742078193,-4.23627237088359,7.7846525795667905,18.31490768877918,-28.3721396511751,-136.983337,-96.89003249624844,0.0,136.983337,0.1666563095699969,-0.65731263,-0.34056038,-0.65129441,1.0,0.0,0.0,0.0,160.81306721645694
4.3097,84435.193,-6.26981890638465,7.949157025515771,-0.7954414946041037,-4.906437556223592,-5.0826588047821515,-3.8142308876315094,7.320550369979712,17.757664380177708,-28.885069401216683,-142.6586,-104.10982208326935,0.0,142.6586,0.0843022432901989,-0.64940184,-0.34897104,-0.67036527,1.0,0.0,0.0,0.0,170.3281953190723
4.3341,84435.2132,-4.838100261010675,8.265921668158807,-2.8199776449231706,-5.142402135800409,-4.9223792741607255,-3.2151931507126905,6.497897499763557,16.987563704172825,-29.723369364386745,-147.328415,-111.67295380020343,0.0,147.328415,0.0031297557139428,-0.63763535,-0.36530706,-0.67820507,1.0,0.0,0.0,0.0,179.64135582785786
4.3432,84435.2331,-3.9298960963629486,7.258206140693764,-4.027602165758974,-5.097676238034001,-4.7829230119247965,-2.7467452959476395,4.916472475104202,17.72210834064234,-29.88427381329761,-150.964432,-118.90957642832234,0.0,150.964432,0.0521763749809863,0.62287098,0.37512124,0.68453884,1.0,0.0,0.0,0.0,174.01831168463156
4.3609,84435.2531,-3.59564424312148,5.709109389809675,-4.652864616655943,-4.871645009326073,-4.749186034300151,-2.454161102361935,3.2275286790579205,19.249561833966442,-29.521332717353488,-154.512085,-127.00131236266469,0.0,154.512085,0.0945534406930235,0.60555553,0.38064054,0.69244128,1.0,0.0,0.0,0.0,169.14876369198566
4.3787,84435.2732,-3.51832519412005,4.200808473619552,-5.145210859915575,-4.5626961978541365,-4.845774766036025,-2.3104381388464743,1.663763883713301,20.939015009575254,-28.878363650085614,-158.317444,-136.37606077086411,0.0,158.317444,0.1319123180908153,0.5857271,0.38489816,0.70098239,1.0,0.0,0.0,0.0,164.83977626673675
4.3999,84435.2931,-3.185027331796871,3.025382781745358,-5.843052560537899,-4.248965253891897,-4.9976211003129425,-2.21898335984634,0.4595251447823143,22.40595110832035,-28.166773682122713,-163.11145,-147.2512033854097,0.0,163.11145,0.1710927739966985,0.56499469,0.38698032,0.70834631,1.0,0.0,0.0,0.0,160.29727737081234
4.419,84435.3131,-2.246005092421448,2.0945772966539296,-6.738930919579955,-3.9759233589996463,-5.089408277226969,-2.057553998147698,-0.049571048393540984,23.54672498740574,-27.503324249709884,-170.06189,-161.06836187137225,0.0,170.06189,0.2179529807965967,0.54456347,0.38369122,0.71325183,1.0,0.0,0.0,0.0,154.822339798568
4.4387,84435.3332,-0.8056128475740448,1.0315646048302387,-7.468969893639656,-3.667336757913629,-5.093231369069449,-1.763840218596096,-0.23705900689756498,24.57836767001366,-26.785371061005492,-178.797516,-177.789996763414,0.0,178.797516,0.2655641093384312,0.52240753,0.37634775,0.71758515,1.0,0.0,0.0,0.0,149.19905009423505
4.4761,84435.3532,0.6357315068583356,-0.21088477011642537,-7.6304474502235085,-3.260519982492137,-5.034994935593619,-1.2595671810013676,0.26739326322012635,24.630126414659816,-26.925780903895614,168.419022,162.26011618449743,0.0,168.41902200000004,0.3231630260275225,0.48235255,0.37584582,0.7222476,1.0,0.0,0.0,0.0,142.29136087593355
4.4893,84435.3731,1.7031630205103654,-1.4592652433503175,-7.016391800916455,-2.7527172253828867,-4.870351919794767,-0.761094690560735,0.021339358712205048,24.874203473087416,-26.965226387879174,155.74823,149.82908659723097,0.0,155.74823000000004,0.3650340989362401,0.43852282,0.37635225,0.72993618,1.0,0.0,0.0,0.0,137.18063754957728
4.5075,84435.3932,2.2849715962915487,-2.397969512779295,-5.899387453098731,-2.158847609678789,-4.609849224806993,-0.42763199314156,-0.8854382535930565,25.247712373696448,-26.982688270964584,145.009674,143.43110204592347,0.0,145.00967400000002,0.3922306183516064,0.39259061,0.37767854,0.74120623,1.0,0.0,0.0,0.0,133.8132672474612
4.5196,84435.4132,2.494344115133946,-3.065850421008993,-4.618668033123329,-1.5725105739854692,-4.238766047726047,-0.35681146364444216,-1.7212254766826334,25.78460506423758,-26.89486478193325,136.308319,138.53855425502385,0.0,136.30831899999998,0.4149640482790886,0.35275358,0.37379524,0.75076419,1.0,0.0,0.0,0.0,130.96589509399146
4.5464,84435.4331,2.5567724491499395,-3.548547386671027,-3.342909672047421,-0.9308380611154732,-3.8116107146112927,-0.5104131634369953,-2.287988189789404,26.237162433959966,-26.868581914241776,129.074326,134.215226898493,0.0,129.07432600000004,0.4369972015424819,0.31748357,0.36777988,0.75695151,1.0,0.0,0.0,0.0,128.17510567726154
4.5612,84435.4532,2.661568410737794,-3.9181265819980924,-2.1352946777235022,-0.20504766750264766,-3.3377623046529585,-0.8448040972290252,-2.4486239622909896,26.67118605387237,-26.788736624292135,123.002731,129.77126113828635,0.0,123.00273099999998,0.4602699185554489,0.28852221,0.35813251,0.75937319,1.0,0.0,0.0,0.0,125.19094755179978
4.5811,84435.4742,2.892035340811786,-3.998345965993005,-0.9184744080003586,0.6448356765313253,-2.799077873544814,-1.2785264309168205,-2.3768652083870485,26.838388607327396,-26.863742688579492,117.764694,125.71142188353718,0.0,117.76469400000002,0.4830476965231442,0.25983763,0.3475948,0.76047826,1.0,0.0,0.0,0.0,122.23071641215455
4.6021,84435.4942,3.1928294898027163,-3.8182463701936697,0.26351751492012454,1.5611625832732734,-2.105634944344764,-1.7951792462493124,-2.2439816384400597,27.19991624981322,-26.63752870619902,114.553307,122.14392899685713,0.0,114.55330700000002,0.5019882266044936,0.23650077,0.32918203,0.76401204,1.0,0.0,0.0,0.0,119.73674515583222
4.6343,84435.5141,3.3724615422805186,-3.4721498480340065,1.3421895306414076,2.4077836340436276,-1.234127825044832,-2.301361572454859,-1.7865894760750578,27.851201312606328,-26.054203635798018,112.336266,117.93966007548417,0.0,112.33626600000002,0.522557457478784,0.22537717,0.3007969,0.7652843,1.0,0.0,0.0,0.0,116.99208487164246
4.6434,84435.5351,3.4590898445585028,-3.067073440627947,2.1757030440743748,3.0792607581634566,-0.2434059565594373,-2.711677091771052,-1.2841538164484767,28.684488796720302,-25.186932859530067,110.710762,113.15275182428499,0.0,110.71076199999999,0.5437480924584723,0.23221228,0.26711154,0.76096445,1.0,0.0,0.0,0.0,114.12169179086534
4.6614,84435.5552,3.5554377438542675,-2.581804526330365,2.695761471332819,3.5142836720934656,0.7871348411405819,-2.956925455654455,-1.2258746933377367,29.36438411927969,-24.36897204103827,109.870827,108.65100624331983,0.0,109.87082700000002,0.5600393475131337,0.25350583,0.23584628,0.75264019,1.0,0.0,0.0,0.0,111.8829621425234
4.6871,84435.5752,3.540493336638371,-2.060619638250977,2.948025331482796,3.7137501038581577,1.7262775318816685,-2.966998982806799,-1.3301793060811864,29.70610390836478,-23.862206363580235,109.350899,104.12793478961294,0.0,109.35089900000003,0.5730053927890292,0.2820397,0.20768742,0.74093479,1.0,0.0,0.0,0.0,110.07986406785639
4.7015,84435.5951,3.4349482066857897,-1.59649335936122,2.987793473799476,3.688658226771581,2.444747341614367,-2.751228311615821,-1.5650164171970538,29.720511970608975,-23.702330999765877,109.060051,99.2082242351389,0.0,109.06005099999999,0.5832888079493616,0.31738529,0.18423848,0.72463572,1.0,0.0,0.0,0.0,108.6356121879787
4.723,84435.6151,3.269308705577341,-1.3203289286036997,2.903317921674855,3.476149491273649,2.8811974123347364,-2.3278472990565025,-2.046092515286567,29.551011287077543,-23.730123009556074,109.510094,94.01970402787283,0.0,109.51009399999998,0.5886489283307954,0.35843948,0.16544726,0.70543659,1.0,0.0,0.0,0.0,107.877618869493
4.7463,84435.6352,3.0820360402350815,-1.3674864908791742,2.7233583440107445,3.165790003781409,3.005047702898481,-1.750777055711175,-2.6555135560821075,29.264962694526265,-23.86372761337662,110.732292,88.42179434667409,0.0,110.73229200000003,0.5895678485471243,0.40230444,0.15077576,0.68397921,1.0,0.0,0.0,0.0,107.74730516307528
4.7627,84435.6551,2.833053812925142,-1.5951952108468561,2.410933661549876,2.862856927533452,2.8809286675305357,-1.1409640567552102,-3.235224048507229,28.570605056028384,-24.445104017155344,112.188957,83.31498412882209,0.0,112.18895700000002,0.588089741112235,0.4388485,0.14280392,0.66420591,1.0,0.0,0.0,0.0,107.95686540395634
4.7832,84435.6751,2.581613862695498,-1.839939211446735,1.9160738412661544,2.635126003726395,2.6959161710440878,-0.623248396003218,-3.7137241129530683,27.47942475163251,-25.408717575180056,113.896713,79.66123411432949,0.0,113.89671299999998,0.5839104537315154,0.46513665,0.14097722,0.65024757,1.0,0.0,0.0,0.0,108.54788839575613
4.8034,84435.6961,2.4733718325930987,-2.044302804705936,1.2534560963981356,2.514236358923288,2.6512771548915537,-0.2676446234113379,-3.881940139904991,26.480389246528876,-26.236255439349137,116.353142,77.32605186356876,0.0,116.35314199999999,0.5753838297831803,0.48669708,0.13881373,0.64248747,1.0,0.0,0.0,0.0,109.7469670765558
4.824,84435.7162,2.6554593884344686,-2.0495352573951435,0.4834166030875231,2.475634694152178,2.9008168662613247,-0.12044069429898041,-3.7200061348175897,25.73660587136234,-26.840870563043417,119.468643,75.71424735770232,0.0,119.46864299999999,0.5632602991182405,0.50674188,0.13570392,0.63838464,1.0,0.0,0.0,0.0,111.43685922878764
4.8442,84435.7362,3.158039984217761,-1.8608008704387302,-0.4394506093280999,2.495766319378694,3.508618658101904,-0.1551026833646021,-3.358724150608502,25.276321828252005,-27.24526338979218,123.002411,73.44480928929806,0.0,123.002411,0.549766256696731,0.52931321,0.13301532,0.63236976,1.0,0.0,0.0,0.0,113.29804263840182
4.8717,84435.7561,3.729689043368943,-1.5952672603517095,-1.6709525881659584,2.586590932698109,4.429476706613634,-0.279234499857159,-2.847806606510389,24.999369091896256,-27.54905403367289,126.66758,69.41831520017136,0.0,126.66757999999999,0.5374434733941189,0.555839,0.13133425,0.62044245,1.0,0.0,0.0,0.0,114.98045199998477
4.8906,84435.7771,4.035696500164873,-1.2505252962644842,-3.3599820491101173,2.7442212151339587,5.536357587656782,-0.4589332833656852,-2.687980749229533,24.603182158284614,-27.921232230534198,131.082306,62.32579417541785,0.0,131.08230600000002,0.5262398861309291,0.58815134,0.13728854,0.59858286,1.0,0.0,0.0,0.0,116.49650132148786
4.9041,84435.7972,3.604882404317976,-0.7781237305142235,-5.349382933883916,2.9308928983501117,6.651891449463874,-0.5797461170001377,-2.7484109803994112,24.186210659796078,-28.19723879467451,137.071655,52.51236396663823,0.0,137.07165499999996,0.5129018225167772,0.62487477,0.14738877,0.56985945,1.0,0.0,0.0,0.0,118.28537454677694
4.9263,84435.8182,2.3139492398861097,-0.10247050474281338,-7.26609178406135,3.160616070824539,7.565450964731994,-0.5102145602687922,-3.0117199285778042,24.165001839513785,-27.94091871458215,146.166916,38.62447573953829,0.0,146.16691600000001,0.4928646885569974,0.67253405,0.15614083,0.52953035,1.0,0.0,0.0,0.0,120.94191242802769
4.947,84435.8382,0.3103332309077106,0.9203642437726748,-8.574054552946745,3.3667381528721307,8.142323124392309,-0.2448484758397549,-3.3290352342059357,24.289815386650243,-27.352102547535523,157.951202,23.370638220439467,0.0,157.95120199999997,0.4645339293501872,0.72459108,0.16511388,0.48157388,1.0,0.0,0.0,0.0,124.6398741424979
4.9652,84435.8581,-1.9717346477435473,2.109355992893571,-8.956157760027075,3.43442782308551,8.365899558478057,0.05938915204035844,-4.631601504490755,24.413459506188325,-26.474508272829134,173.575089,6.402214160171726,0.0,173.575089,0.4218997708398277,0.78137028,0.18571104,0.42068097,1.0,0.0,0.0,0.0,130.09082763023682
4.9843,84435.8781,-4.120516804521987,3.134736661181096,-8.5344426689985,3.4631271740944807,8.260681656257532,0.31393124953376406,-5.72560913109522,24.237971581927365,-25.86325209644787,-172.896652,-6.838323216626579,0.0,172.896652,0.375404299172131,0.82851189,0.20986789,0.35860163,1.0,0.0,0.0,0.0,135.90139361252741
5.0077,84435.8982,-5.866628696625511,3.879100427506664,-7.726273999197887,3.582624975570872,7.918947783574231,0.4585770508893958,-6.270298174395717,23.99134642844129,-25.565556235853947,-163.171036,-15.938262216455842,0.0,163.171036,0.3285628790700636,0.86655283,0.23069037,0.29650393,1.0,0.0,0.0,0.0,141.63685740460957
5.028,84435.9181,-7.249408169016391,4.401279992310519,-6.812083978138315,3.766546787853713,7.509936968326282,0.4870373609287202,-6.302515319386616,23.847874715260378,-25.495258874268128,-156.806595,-21.983741468437554,0.0,156.806595,0.2807312601119482,0.89642882,0.24678046,0.23812756,1.0,0.0,0.0,0.0,147.39229313024424
5.0462,84435.9381,-8.314839905191626,4.745218826513492,-5.5570270154145565,3.9133090901035876,7.202322575723455,0.3976887359551309,-6.601076723071245,24.047491484402656,-25.19183355699061,-152.05571,-26.813713770965208,0.0,152.05571,0.2238698732756575,0.92188543,0.26222655,0.17676756,1.0,0.0,0.0,0.0,154.12713689467384
5.065,84435.9582,-8.958834706176305,4.87198875534374,-3.7187162655559742,3.938266045111891,7.085493863321053,0.29357330007741433,-7.1765617056360504,24.67029193486844,-24.455425928795062,-148.872543,-30.41342119810718,0.0,148.872543,0.1554457163315148,0.94207901,0.27507862,0.11249676,1.0,0.0,0.0,0.0,162.1147055092297
5.0844,84435.9781,-9.005117284806184,4.723788001108817,-1.440693864945196,3.84302492936407,7.13336512622786,0.2898006886258472,-7.490430170410653,25.389365797244576,-23.65442457597279,-147.556137,-32.157075176310876,0.0,147.556137,0.0838530406768575,0.95501167,0.28019392,0.0491197,1.0,0.0,0.0,0.0,170.37985305668306
5.1102,84435.9981,-8.41351234714422,4.089855881262217,0.957765737959523,3.5809189837302795,7.298690271440901,0.46052515677969796,-7.814853210931869,25.80719882609946,-23.11248292178826,-147.032333,-32.963262639224,0.0,147.032333,0.0156615706103497,0.95875317,0.28350016,-0.01321868,1.0,0.0,0.0,0.0,178.20524283075486
5.138,84436.0191,-6.989997178759339,3.045455924672242,3.2547376826126886,3.2576816463310454,7.427296267816207,0.7406876163483688,-8.55780421481199,25.767324377240076,-22.86909199254064,-147.225418,-33.083352031782404,0.0,147.225418,0.0461157875388064,-0.95367444,-0.28523922,0.08376744,1.0,0.0,0.0,0.0,174.71364516156058
5.1572,84436.0392,-5.015782576373677,1.6567045444403794,5.096281685904451,2.9283175701959654,7.367871725419077,1.1574293147388797,-9.339108441520175,25.398040213574397,-22.871588003215074,-148.000763,-32.8702493487437,0.0,148.000763,0.0999024973546822,-0.94028753,-0.28711855,0.15310712,1.0,0.0,0.0,0.0,168.5328882577338
5.1656,84436.0592,-2.633024408217033,-0.06641536398897063,6.394418037858095,2.5899731770914585,7.002560655164956,1.6259034883583001,-10.157468619050615,24.921473169066395,-22.84985116169105,-149.085144,-32.69577931610718,0.0,149.085144,0.1490535011185777,-0.91877317,-0.29169816,0.22034314,1.0,0.0,0.0,0.0,162.8558408845164
5.1853,84436.0791,-0.10809945929778131,-1.9406925967235873,7.060013681806804,2.1382102194038977,6.3098585824674,2.012952227105173,-11.003390985595983,24.266875087652295,-22.934696424208532,-149.860794,-33.361637624995,0.0,149.860794,0.1904722404228054,-0.88968641,-0.30324388,0.28323412,1.0,0.0,0.0,0.0,158.03931022898942
5.2093,84436.0992,2.2043121370026566,-3.6366873670089825,7.135136257838553,1.5608094750034893,5.308741188598997,2.266232065363117,-11.461274146257326,23.539295212379294,-23.33814166960075,-150.398972,-34.8199726999965,0.0,150.398972,0.2224828197609561,-0.85765761,-0.31855997,0.33681503,1.0,0.0,0.0,0.0,154.29019415086933
5.2243,84436.1192,4.084978997482601,-4.822476903375765,6.777212313205137,0.8954925162281737,4.085326714935348,2.406822736405516,-11.38307394484286,22.902361020539217,-24.094261367063524,-151.103836,-36.5386609505222,0.0,151.103836,0.2464481654601441,-0.82707071,-0.33261442,0.38024333,1.0,0.0,0.0,0.0,151.4651360710036
5.2438,84436.1391,5.433758440607621,-5.089347325304891,6.206723691303651,0.15948195544616128,2.81614438152373,2.496296169203346,-11.015186941050622,22.120711540584804,-25.297455710375665,-151.864029,-38.99620820497321,0.0,151.864029,0.258297483960959,-0.80066317,-0.34450698,0.41657633,1.0,0.0,0.0,0.0,150.0618703659003
5.2735,84436.1592,5.932557191816755,-4.450655120386515,5.695512955808626,-0.6101653986214195,1.6823997573872786,2.6513715268947524,-9.912865987631028,21.192305602939552,-26.94442508445117,-152.000031,-42.23436200686907,0.0,152.000031,0.2558643942087535,-0.78480226,-0.35333228,0.44019896,1.0,0.0,0.0,0.0,150.35037880789014
5.2856,84436.1801,5.749994746105193,-3.1754808886767725,5.314114771697142,-1.3881263774445758,0.8251033983351943,2.9202599906663607,-8.362292873663305,20.172490476676813,-28.60702501352255,-150.835831,-46.96861752141733,0.0,150.835831,0.2400273508960568,-0.77726239,-0.36319384,0.45424694,1.0,0.0,0.0,0.0,152.22369072069532
5.3142,84436.2002,5.254032483811292,-1.6535980283875142,4.90014183036465,-2.1112919994751387,0.2596633163248183,3.286108050907148,-7.0101816459811985,19.44844452598332,-29.711099673516607,-148.751541,-53.108259465654825,0.0,148.751541,0.217825253618453,-0.77082014,-0.37632757,0.46558139,1.0,0.0,0.0,0.0,154.83733657463344
5.3254,84436.2201,4.531362537693433,0.10886946772640993,4.2855199072854475,-2.7448955014962904,-0.03564486514666321,3.6601132390200477,-6.090265543854919,18.801575529626394,-30.42797023940128,-146.36937,-60.396827662245485,0.0,146.36937,0.1867370174605984,-0.76385403,-0.38984948,0.47924283,1.0,0.0,0.0,0.0,158.4751576475201
5.3478,84436.2401,3.601614554915464,2.077756314296244,3.227565498669861,-3.25321055372374,-0.12630032912875455,3.951536736424915,-5.799524319439072,17.7592145271857,-31.09690372318158,-144.058716,-68.99485835820161,0.0,144.058716,0.1418779784291637,-0.75412464,-0.40093496,0.50041765,1.0,0.0,0.0,0.0,163.6869372670024
5.3669,84436.2602,2.4107061439763275,3.4508475519244985,1.8197798536243432,-3.667843570059601,-0.24103032704700755,4.046011281094836,-5.671277921692358,17.19770041115726,-31.36846599559079,-141.033173,-77.14502728130347,0.0,141.033173,0.0948106236677256,-0.74157172,-0.41449678,0.5189169,1.0,0.0,0.0,0.0,169.11915969987714
5.3864,84436.2801,1.1869112432343805,3.9405605427075807,0.44851958199973296,-3.993260776223905,-0.5183356348111356,3.9107556992746106,-5.552720609576539,17.202273272825014,-31.307809071589833,-137.421921,-83.75247505739998,0.0,137.421921,0.0482359312914645,-0.72740537,-0.43018949,0.53243941,1.0,0.0,0.0,0.0,174.47042373477097
5.4055,84436.3001,0.1464725154844153,3.700956918188654,-0.4514936938303755,-4.233662682185249,-0.9278064392813885,3.568955965978385,-4.991186935345558,17.419254950883055,-31.233059270282517,-134.528275,-87.24153842564473,0.0,134.528275,0.0021619804868108,-0.71769547,-0.43805709,0.54130816,1.0,0.0,0.0,0.0,179.75225509243208
5.4293,84436.3202,-0.7934491316693517,2.9667756749966534,-0.5216650215333125,-4.366394919853773,-1.5648322814350857,3.066327703854226,-4.02684898401295,17.88195439778331,-31.12231197201714,-131.977005,-88.38456142584414,0.0,131.977005,0.0432403133344745,0.71249741,0.44086251,-0.54416722,1.0,0.0,0.0,0.0,175.04347970846572
5.4503,84436.3402,-1.6512174504693125,2.2231083057923855,0.18533366965953846,-4.280903235150079,-2.517800085271449,2.5793142642644744,-3.6434317572117703,18.063602100972524,-31.14296806383331,-129.222198,-89.65346168059267,0.0,129.222198,0.0932533557864324,0.7024911,0.4424589,-0.54958183,1.0,0.0,0.0,0.0,169.298403671322
5.4682,84436.3612,-2.5772555096719993,1.775250555479897,1.1766592008595431,-4.053052165200185,-3.751080410086736,2.123297827276566,-3.1042814905485114,18.302886940710906,-31.183040992768195,-126.412544,-89.18588346315467,0.0,126.412544,0.1445489008128816,0.69612622,0.44083652,-0.54788417,1.0,0.0,0.0,0.0,163.37768417364327
5.4882,84436.3811,-3.5153877588803386,1.7031760319601204,1.7292409576507488,-3.793165526792815,-5.134396128649299,1.7474235923704744,-2.1100340003279543,19.046429557655756,-30.930482930923382,-124.165382,-86.481157869259,0.0,124.165382,0.1892745537137472,0.6993565,0.43482879,-0.53478926,1.0,0.0,0.0,0.0,158.179097962665
5.5093,84436.4012,-4.47694866466445,2.1119812379370613,1.3024180351109944,-3.604865593803466,-6.4776947256053585,1.612945094178647,-0.5113459126291104,19.58265837664013,-30.696150839368286,-122.614044,-81.33975866801498,0.0,122.614044,0.2378127639604059,0.71227765,0.41835383,-0.51096547,1.0,0.0,0.0,0.0,152.48503240907974
5.5336,84436.4222,-5.502266445526442,2.4129838004941004,-0.15756189978855772,-3.619729698136346,-7.650967623559281,1.5957648780694509,2.037805268112038,20.36554899004324,-30.036596615898713,-122.017258,-73.18588813557614,0.0,122.017258,0.2865498618682531,0.73877615,0.39145201,-0.46782935,1.0,0.0,0.0,0.0,146.69697285527997
5.551,84436.4421,-6.158249913737611,2.070279907942666,-2.170189337391438,-3.5030110531191205,-8.701040766160014,1.836191356227558,3.3963852032498316,21.090091500294854,-29.239803589719294,-120.558556,-65.83009350879438,0.0,120.558556,0.3391253917967364,0.7576946,0.36905965,-0.41795674,1.0,0.0,0.0,0.0,140.35280564350956
5.5694,84436.4621,-6.287070589372848,0.9892341664176147,-4.321206866272502,-3.1342080491935866,-9.578924617322693,2.465928464953183,3.3421937811818463,21.269955943324227,-28.955305056681944,-117.890884,-59.71536443422779,0.0,117.890884,0.3984331694079192,0.76351643,0.34956273,-0.36891675,1.0,0.0,0.0,0.0,133.0394703786034
5.5894,84436.4822,-5.7808142022068125,-0.7167079198285017,-6.346657794330613,-2.5823503904917415,-10.224383682954455,3.3313807429066475,2.7467835937477254,21.194668134312604,-29.010882041500288,-114.547081,-53.60279353942492,0.0,114.547081,0.4587618916037279,0.76254237,0.32965529,-0.31526822,1.0,0.0,0.0,0.0,125.38551310371774
5.6115,84436.5022,-4.465549329060883,-2.7728549200564814,-8.077061201907938,-1.941087651789478,-10.610265903694206,4.187787973380853,2.1475067542626682,21.4279186182821,-28.958049995857692,-111.118988,-46.810053141754274,0.0,111.118988,0.5130285665509107,0.76051039,0.31025523,-0.24933377,1.0,0.0,0.0,0.0,118.26845511837169
5.6319,84436.5221,-2.1859212904260508,-4.867967738604286,-9.276656209651472,-1.1718744130963974,-10.714656434174925,4.8930518677631385,1.4368440884549987,22.16845789702652,-28.611320493824405,-107.433746,-39.30307288732175,0.0,107.433746,0.5596373621343328,0.75653392,0.29614335,-0.16358963,1.0,0.0,0.0,0.0,111.93855474426175
5.65,84436.5422,0.8596462391026112,-6.553738476614122,-9.391981413923675,-0.4621134032179186,-10.366829358246543,5.677636142148668,1.0969135952350815,22.574277534239933,-28.52282977840156,-102.532242,-29.885711580333883,0.0,102.532242,0.6071630712811047,0.74190402,0.27896014,-0.05579131,1.0,0.0,0.0,0.0,105.23068796992682
5.6684,84436.5622,3.814244119884574,-7.545869702800505,-8.21571148058877,-0.04688997785634719,-9.715218737312306,6.438977643158967,1.1935313566641863,23.01321508513037,-28.37304646373645,-98.400749,-18.585188695044682,0.0,98.400749,0.6429921975895567,0.71958238,0.2552388,0.06012809,1.0,0.0,0.0,0.0,99.96939254016628
5.6891,84436.5821,6.006210456873486,-7.703449697798634,-5.905670285303587,0.19186382743088082,-8.57136438354802,7.724881858920654,1.0435882162887853,21.98072679310854,-29.344783545571765,-67.540405,-6.806665853492208,0.0,67.540405,0.681355052251998,0.67329931,0.23740153,0.16144301,1.0,0.0,0.0,0.0,94.10075486802107
5.7157,84436.6021,7.576234984423885,-7.116255510935182,-3.6995409150293135,0.35491326857963346,-7.528258054309426,8.89793244521077,0.4394946260581798,21.43107454003311,-29.86179402826254,43.657845,5.736554421750799,0.0,43.65784500000001,0.6979692205251127,0.62619209,0.22971399,0.26067972,1.0,0.0,0.0,0.0,91.47139899393846
5.7317,84436.6222,8.882260797335714,-5.5934340182625615,-1.7085461155795585,0.45315651186232486,-6.586392637715059,10.02796357376101,-0.6492707441650412,20.96323636260202,-30.215235918716317,72.311363,21.14732763300321,0.0,72.311363,0.6954753678673112,0.57250333,0.23395607,0.36581212,1.0,0.0,0.0,0.0,91.86978000579595
5.7885,84436.6421,9.629187613788993,-3.1327025264184907,0.23122211051877528,0.2900996611942701,-5.775782092130955,10.958446707177167,-1.6352135278559832,20.529930253801083,-30.4177831804842,86.295006,42.37209315109746,0.0,86.295006,0.674074054021939,0.51126617,0.24159867,0.47524852,1.0,0.0,0.0,0.0,95.23542720200598
5.7941,84436.6621,9.232929114549403,-0.09581144047555334,2.0761963308046134,-0.115935616738434,-5.104666442310815,11.487885690219647,-2.3628316605455773,20.171435869387732,-30.4642673336902,97.809166,69.11939415883283,0.0,97.809166,0.6342779458498798,0.44319448,0.24939252,0.58230019,1.0,0.0,0.0,0.0,101.26709677802818
5.7973,84436.6822,7.431665553772136,2.6114903651062535,3.407988908547839,-0.5423542040874416,-4.624271990166445,11.4300656197031,-3.052503018765073,20.126049219379382,-30.21642806422638,109.131218,95.64561540074358,0.0,109.13121799999999,0.5757253194112987,0.37316602,0.25645187,0.68082297,1.0,0.0,0.0,0.0,109.69911481152275
5.8121,84436.7022,4.724762607412017,4.127103649208585,3.735683573331233,-0.7581829646526046,-4.1504872847845915,10.77812671521717,-3.796950021740429,20.168001383448125,-29.87038058350494,119.722511,116.61737093442534,0.0,119.722511,0.505266764852922,0.30279201,0.26529083,0.76331073,1.0,0.0,0.0,0.0,119.30187518285716
5.827,84436.7221,2.2321081275261565,4.081984495961386,2.8785509638700546,-0.5661521259826241,-3.503594897214824,9.614266052731665,-4.746120958683402,20.23079625821375,-29.534771175118948,129.666611,132.0812301581009,0.0,129.666611,0.4284562054092339,0.23632811,0.27772471,0.82670629,1.0,0.0,0.0,0.0,129.26074621699735
5.8481,84436.7422,0.8636220984182783,2.7179465047890017,1.1663157408793232,-0.031142320289558878,-2.6238673540276802,8.081215023012572,-5.604894368525365,20.682790137788203,-29.077868453411998,138.775238,143.1940349458039,0.0,138.775238,0.3528526022543418,0.17720693,0.28573662,0.8731823,1.0,0.0,0.0,0.0,138.67621479259378
5.8696,84436.7622,0.9197323541447566,1.0083701556830875,-1.0284892641280852,0.7241743627936232,-1.4228883836401953,6.464690724199289,-5.868349086834783,21.705145985473806,-28.47401710322407,145.472244,150.03349100614415,0.0,145.472244,0.2946479548795563,0.13202046,0.28552255,0.90234697,1.0,0.0,0.0,0.0,145.72714317589814
5.8936,84436.7821,1.8309736973892066,-0.05624978739789732,-3.430282740004297,1.7217046016952464,0.051210169944125195,5.037146340424494,-6.1578492250219785,23.11721223272025,-27.60200633759857,151.029541,154.97049106649166,0.0,151.029541,0.2491002405105108,0.10829474,0.28013286,0.92073172,1.0,0.0,0.0,0.0,151.1514490951882
5.9108,84436.8031,2.5592137661351315,0.07690114491594502,-5.7776984833741,2.7843007057169022,1.656173476022617,3.9609283340616535,-6.603024424418148,24.68068296781209,-26.386682353437685,156.368744,159.3095497506018,0.0,156.368744,0.2099965813351511,0.10512933,0.26816669,0.93431038,1.0,0.0,0.0,0.0,155.75569619512302
5.9321,84436.8241,2.2963550905174355,1.4843668766263125,-7.595279684775355,3.6884297426444395,3.213210940285406,3.3276246974787798,-7.147672776545454,26.259016532957986,-24.703616681058172,162.098267,163.81419990628163,0.0,162.09826699999996,0.1705183439858255,0.11745479,0.2452836,0.94708174,1.0,0.0,0.0,0.0,160.3640839412188
5.9527,84436.8442,0.8084669482064542,3.734902511485305,-8.239997925928108,4.3501504390921255,4.531362721623557,3.0687808098260057,-7.995209651748002,27.633531967740137,-22.518393432246576,168.470535,169.01745526404486,0.0,168.47053500000004,0.1269058958506261,0.15050106,0.21234509,0.95715928,1.0,0.0,0.0,0.0,165.41833557528494
5.973,84436.8651,-1.561280496925634,5.971958679268592,-7.157413468794648,4.737730175516103,5.469707643353294,3.0097599328155935,-8.898872667314578,28.387412412641492,-20.419925401070223,174.841446,174.73599932201373,0.0,174.84144600000002,0.0803189460662117,0.20086373,0.17611702,0.96030486,1.0,0.0,0.0,0.0,170.78620201034278
5.9929,84436.8852,-3.9720053360549983,7.164177991097662,-4.186371578431795,4.873494357258904,5.916821480187931,3.0859245290287403,-9.75406361033545,28.819302263313627,-18.312419180408078,-179.211166,-179.11448395036427,0.0,179.211166,0.0293052811919432,0.26403537,0.13114545,0.95510596,1.0,0.0,0.0,0.0,176.6413812934749
6.0152,84436.9051,-5.647617373846456,6.511925235068226,-0.0892415495427965,4.73765723258794,5.942663876866828,3.2626904309685907,-10.32638832254964,29.034903041971205,-16.516287935400218,-174.238953,-172.77613886773693,0.0,174.238953,0.025500586252308,-0.32685748,-0.07876472,-0.9414404,1.0,0.0,0.0,0.0,177.07753126977792
6.0332,84436.9251,-6.485627904665078,4.0508522531630975,3.5722558935854707,4.290835409450784,5.7585053705785425,3.4693222810108715,-10.411978397323342,29.020119595541725,-15.667109780476366,-170.20462,-166.3993818784708,0.0,170.20462,0.0804679209189585,-0.37674651,-0.02877528,-0.92236596,1.0,0.0,0.0,0.0,170.76907531416748
6.0574,84436.9452,-6.745865670395104,0.7056669627399876,5.715128064657369,3.6235672465172017,5.545509648635801,3.594364525572673,-10.049005619702028,28.89450232841296,-15.86189385160494,-166.851501,-160.01479283970755,0.0,166.851501,0.1309020235097184,-0.41569623,0.01213179,-0.89995229,1.0,0.0,0.0,0.0,164.95656019731226
6.084,84436.9662,-6.448254372307152,-2.310847944556291,6.391902596483458,2.8896773225139327,5.473451431595308,3.439138432742336,-9.976036778821772,28.406010961027654,-17.054531761350326,-163.668823,-152.12426658754129,0.0,163.668823,0.1760357274599277,-0.45813203,0.03533924,-0.87056166,1.0,0.0,0.0,0.0,159.72212665488306
6.0937,84436.9862,-5.763226499545523,-4.513996184149629,6.168605641188668,2.2179873302362374,5.494241056765386,3.0328029637339844,-10.374388919850688,27.70170750857477,-18.645740833080005,-160.872604,-141.4431660303307,0.0,160.872604,0.2161993348040838,-0.50693733,0.04671178,-0.83312088,1.0,0.0,0.0,0.0,155.0282017026944
6.1169,84437.0061,-5.150764496755656,-5.750181689542652,5.52501030387263,1.6579351553894914,5.559468311053447,2.4132172624420516,-10.69775662155877,26.98200348341349,-20.436174232042756,-159.132339,-128.0834934779506,0.0,159.132339,0.2463428836330512,-0.55576497,0.05168805,-0.79231864,1.0,0.0,0.0,0.0,151.47758426553716
6.1337,84437.0262,-4.668737840412461,-6.317782185746284,4.847461685858988,1.114493162286168,5.711156301094436,1.6860992208437342,-11.01520398309377,26.4439660575185,-22.034694281425764,-158.548538,-110.66216444171816,0.0,158.548538,0.2684682102630876,-0.60413831,0.05621295,-0.74818569,1.0,0.0,0.0,0.0,148.85372649539391
6.1517,84437.0462,-4.519553309365355,-6.592026149165173,4.299678811820847,0.5174079865471457,6.044511655163328,1.1507534037384841,-10.738766486619596,26.60156703608062,-23.090926954193286,-159.927216,-91.14958202340226,0.0,159.927216,0.2809720837888534,-0.64653295,0.07158162,-0.70563865,1.0,0.0,0.0,0.0,147.36353946878438
6.1721,84437.0661,-4.906185330002623,-6.673014361271469,3.9776096493351503,-0.1476865454354086,6.717272021900296,1.0807182747764736,-9.210879341800997,27.390481987076228,-23.81845922620686,-162.984863,-73.3456098975204,0.0,162.984863,0.283805508168642,-0.67601234,0.09695768,-0.67309803,1.0,0.0,0.0,0.0,147.02507741100885
6.1923,84437.0862,-5.05470189144903,-6.444526520636325,4.1187683925761736,-0.8781792373656963,7.745658149959333,1.4955330911465148,-7.798761123839167,27.893679533500435,-24.401471411914105,-166.910507,-50.44359688982811,0.0,166.910507,0.28057008202791,-0.70671386,0.11954381,-0.63839269,1.0,0.0,0.0,0.0,147.411536155751
6.2124,84437.1062,-3.9685013014034234,-5.735009561300899,4.794211331897033,-1.6023621934162697,8.90327374039334,2.1825352036757533,-8.427572661159456,27.26807310429419,-25.044915867918437,-171.547562,-22.624128053555207,0.0,171.547562,0.2701618022532875,-0.75733775,0.12657417,-0.58088821,1.0,0.0,0.0,0.0,148.6522094964629
6.2382,84437.1261,-1.7322440461617994,-4.631519261981972,5.352880998244572,-2.132615428061118,9.864784581706575,2.9157756219406914,-10.873058136562548,25.655921487710305,-25.381864612972855,-175.974854,-7.084989874696276,0.0,175.974854,0.253079815048068,-0.8215937,0.11700089,-0.49723756,1.0,0.0,0.0,0.0,150.68033016929053
6.2587,84437.1471,1.1750543156126194,-3.4642114653836438,5.190788870111678,-2.248256125854167,10.409597540269406,3.5375033099442863,-14.249699276081659,23.668228705350167,-24.7626527061213,-179.93634,-0.0814939698269166,0.0,179.93634,0.229947332486794,-0.88804972,0.09928093,-0.38553238,1.0,0.0,0.0,0.0,153.41205797698666
6.2852,84437.1671,3.449042392897368,-2.8592214642015192,4.311994673031775,-1.9584354210294204,10.473633152730164,3.996085902175607,-16.17143492671525,22.477701616939704,-23.589433079850302,177.357941,2.832383565176193,0.0,177.35794099999998,0.2099837605991763,-0.93522954,0.08335551,-0.27258831,1.0,0.0,0.0,0.0,155.7571988471312
6.3029,84437.1881,4.906321209120027,-2.750483084876333,3.2602265763856337,-1.563317745230239,10.162373891807817,4.198705476115788,-16.500554317487463,22.01511385700872,-22.827429271862847,176.119537,3.8060966831857286,0.0,176.11953700000004,0.1938286931021218,-0.96408081,0.06622357,-0.16909485,1.0,0.0,0.0,0.0,157.6473855448368
6.3144,84437.2082,5.680057446854163,-2.878364395712011,2.2977880789674074,-1.2477687939191788,9.61170731721759,4.238363206784436,-15.624237559943454,22.179627364675216,-22.735451141169435,175.930908,3.8458159093244193,0.0,175.930908,0.1820623112255786,-0.97899646,0.04826673,-0.07803569,1.0,0.0,0.0,0.0,159.02018659533567
6.3336,84437.2282,6.038111678113766,-2.852971642272644,1.420137394597683,-1.0956175887926691,8.935499645963326,4.134166828363721,-14.446940935448417,22.494643577018408,-23.157069951451106,176.531296,3.268755202442739,0.0,176.531296,0.1700209271480013,-0.98502141,0.02750958,0.00830236,1.0,0.0,0.0,0.0,160.4219283857779
6.3542,84437.2481,5.89144263499759,-2.573825843727486,0.7580231315828811,-1.2876179359080107,8.123239058765941,3.9257358131844753,-13.064450442508234,22.68796376986228,-24.134963003930995,178.79599,1.1604214109683526,0.0,178.79598999999996,0.1567467877461044,-0.98423558,-0.00288607,0.08186842,1.0,0.0,0.0,0.0,161.9637634249676
6.3746,84437.2682,5.7663009086392005,-2.1944466563226332,0.11699211792063835,-1.5417735954735978,7.16381338183548,3.708317153829742,-12.043476114824943,22.848547312569757,-25.110987564611406,-178.583374,-1.4302595626757009,0.0,178.583374,0.1401748357686547,-0.97721285,-0.03444941,0.15562551,1.0,0.0,0.0,0.0,163.8840732751216
6.395,84437.2882,5.718889230807664,-1.7998296564478777,-0.5242773809256818,-1.6527063728977764,6.166570737143045,3.52676025737673,-10.691149284352148,23.010978241617252,-26.301101039182814,-176.748657,-3.5090699411748116,0.0,176.748657,0.1185134321145814,-0.96605539,-0.05571168,0.22268309,1.0,0.0,0.0,0.0,166.38736742536022
6.4142,84437.3081,5.284619979663683,-1.3886854764279497,-0.9952702280346664,-1.724352558676379,5.261976839581384,3.431322984236557,-7.829290627236372,23.270800931248097,-27.854879102281803,-175.251434,-5.4112581193501175,0.0,175.251434,0.0954317559260196,-0.95774651,-0.06833506,0.26257327,1.0,0.0,0.0,0.0,169.0476589791109
6.4338,84437.3282,4.444265594234809,-0.8362351298805484,-1.375582339922797,-1.80837704359068,4.528836031160112,3.457116611647491,-4.8585833477700096,23.565360696987035,-29.06399403048779,-173.11644,-8.210924731551138,0.0,173.11644,0.0723539370358947,-0.95014292,-0.08415335,0.29139587,1.0,0.0,0.0,0.0,171.70159830173844
6.4541,84437.3482,3.0447032736635946,-0.26622388201623204,-1.5365910210874034,-1.9752630464119418,3.957532891054429,3.481111314877257,-2.576025593636369,24.04114329155761,-29.657545828273072,-169.575623,-12.942770753134493,0.0,169.575623,0.0489862941963784,-0.94129723,-0.11122707,0.31494191,1.0,0.0,0.0,0.0,174.38433670390486
6.4738,84437.3681,1.339666215849706,0.013807636274724921,-1.37163416226052,-2.204217884192243,3.470023882265165,3.3581901982581703,-1.3606368652498348,24.640699197618186,-29.738615580763874,-164.988037,-19.424502970174064,0.0,164.988037,0.0237589810464158,-0.9289211,-0.14665088,0.33916754,1.0,0.0,0.0,0.0,177.2771651115626
6.4956,84437.3882,-0.13011233920971543,-0.07749555185533685,-0.8370188107558665,-2.410695865314228,2.9945201282193237,3.0356564695423436,-0.7393615732856,24.9925829671487,-29.698630226807552,-160.911819,-25.910988722420598,0.0,160.911819,0.0039100413025322,0.91325122,0.17612402,-0.36733806,1.0,0.0,0.0,0.0,179.5519411295956
6.515,84437.4082,-0.9727445147303486,-0.28195875886370536,-0.03804266451486704,-2.5819491115827162,2.426889228949767,2.6169351963571774,-0.3004196165989308,24.980568175494994,-29.696635456184296,-158.003281,-31.634137448830387,0.0,158.003281,0.0318555541031661,0.89528096,0.19394831,-0.39980155,1.0,0.0,0.0,0.0,176.3490047234461
6.535,84437.4292,-1.5041943147696788,-0.3619222890337255,0.7321397914410088,-2.807995807734888,1.696977133123087,2.1962120875074884,0.8548329402656929,24.83542726663996,-29.60739602069095,-156.074783,-35.84076130218772,0.0,156.074783,0.0585191803545331,0.88128608,0.20144273,-0.42347512,1.0,0.0,0.0,0.0,173.2903626486718
6.5554,84437.4491,-2.148996467935578,-0.26708826185362033,1.2237021054755743,-3.1137528368414897,0.7894656473624264,1.8374563114065496,2.5595736309186883,24.716534164202393,-29.314849853398265,-154.528687,-38.68942534337435,0.0,154.528687,0.0848213438439021,0.87246096,0.20397469,-0.43590313,1.0,0.0,0.0,0.0,170.2684969512411
6.5792,84437.4692,-3.033626887223263,-0.12537346487162915,1.3537777839936478,-3.4520662852630695,-0.3322747513668143,1.5546343236915903,3.9055375937083525,24.65931994084157,-28.886983773845706,-152.266632,-41.65909189192293,0.0,152.266632,0.1157284464319388,0.86493117,0.20998903,-0.44091451,1.0,0.0,0.0,0.0,166.7087150090275
6.6027,84437.4892,-3.9215258942205256,-0.09509801845883958,1.1017322861390557,-3.697571850483479,-1.6576304462561753,1.360273724019564,4.686429593931502,24.612404285692584,-28.470149403059978,-149.489319,-44.476084482625325,0.0,149.489319,0.1518536354711606,0.85724378,0.21722497,-0.44145995,1.0,0.0,0.0,0.0,162.5312744944476
6.6255,84437.5091,-4.41997708523317,-0.10849056065302132,0.47007403052913865,-3.7740371095142797,-3.069662428009088,1.3329156972184821,5.425229370954444,24.235394651065057,-28.29838262706436,-147.32959,-45.62408960074525,0.0,147.32959,0.1927740472273915,0.85107625,0.21465547,-0.43866891,1.0,0.0,0.0,0.0,157.77056224924516
6.637,84437.5291,-4.379924245303275,-0.19960898890135698,-0.4429223400545812,-3.6844452551520357,-4.464850341519528,1.5286668797140757,6.549478398109114,23.69353857356427,-28.110393638715724,-145.920074,-44.38989408673092,0.0,145.920074,0.2371625324850739,0.84982431,0.2021175,-0.42508951,1.0,0.0,0.0,0.0,152.56173795195608
6.655,84437.5492,-3.915759647159501,-0.4033624827935679,-1.3091574484639956,-3.4645917375037003,-5.750231543953387,1.9332115411039863,7.977344114555109,23.406284108060248,-27.520205929038553,-144.929337,-41.05077107508945,0.0,144.929337,0.283010628667398,0.85467893,0.18617655,-0.39340463,1.0,0.0,0.0,0.0,147.12005816251576
6.6777,84437.5691,-3.2942179767627193,-0.6383028791304131,-1.7593686832898072,-3.132248865683636,-6.883476699305714,2.4824643256223085,8.960792349238243,23.747244292256525,-26.424934026702985,-143.812607,-37.07064612366917,0.0,143.812607,0.3270451848336506,0.8622421,0.17650802,-0.34412923,1.0,0.0,0.0,0.0,141.82094394391578
6.696,84437.5891,-2.8006185658598053,-0.7349359028009605,-1.761049320801142,-2.7097701349242307,-7.836494732329817,3.154521087507612,8.90028389437833,24.484719201153286,-25.280363259106664,-142.272583,-33.61894537087868,0.0,142.272583,0.368448073327424,0.86716181,0.17617333,-0.28502521,1.0,0.0,0.0,0.0,136.7601245136229
6.7197,84437.6092,-2.6913209161335043,-0.6339598630852514,-1.637154943110808,-2.3457442454069066,-8.55715914079333,3.956468495438928,8.385755148829242,24.983093688552692,-24.52751483922214,-141.072357,-29.929358702390022,0.0,141.072357,0.4103197205259793,0.86780524,0.17674457,-0.21751586,1.0,0.0,0.0,0.0,131.55015854875745
6.7394,84437.6302,-2.9252491074528932,-0.44360363116514945,-1.6969975237324686,-2.1536518960365907,-9.021501165035986,4.886498325061316,7.898337858255941,25.001121727856628,-24.29369875131605,-140.778778,-25.630400767973654,0.0,140.778778,0.453431079428771,0.86221981,0.17452295,-0.14324453,1.0,0.0,0.0,0.0,126.07193505044921
6.7567,84437.6502,-3.3092886406099735,-0.40296052684048544,-2.0918286680789038,-2.061902501824961,-9.296539654738446,5.771596885717985,7.296549862975393,24.952254579214483,-24.23189749121574,-141.484604,-21.01654043497293,0.0,141.484604,0.4939834564771719,0.84930986,0.17703649,-0.05754292,1.0,0.0,0.0,0.0,120.7945187542058
6.7767,84437.6701,-3.480104275963983,-0.6702003064298834,-2.7021725823511042,-1.9554583766071612,-9.447481579655593,6.3946968025552575,6.1617018782548065,25.188237058989994,-24.109873155968835,-143.612091,-16.7147333518183,0.0,143.612091,0.5247622176956606,0.82901591,0.19000629,0.0354238,1.0,0.0,0.0,0.0,116.695525508611
6.7981,84437.6902,-3.313713273833981,-1.212838611294098,-3.3318584887199965,-1.8179686652231157,-9.443594442879128,6.659503155172652,4.678014947909708,25.569800031437957,-23.99376375229617,-149.855804,-11.72698674521041,0.0,149.855804,0.5477109045311255,0.79758418,0.21003404,0.14056295,1.0,0.0,0.0,0.0,113.57977449848795
6.82,84437.7102,-2.7050109687022172,-1.7823402474968955,-3.6633940172279384,-1.8053242507567238,-9.152391743104808,6.669515290685862,3.4580959139390495,25.653330195587678,-24.236519220109628,-165.31041,-4.882238256611194,0.0,165.31041,0.5672495746755223,0.75472945,0.22516593,0.24064846,1.0,0.0,0.0,0.0,110.88269586242247
6.8462,84437.7301,-1.8236109887222305,-2.172380273473278,-3.504443780961701,-1.8705301880786993,-8.545005008650683,6.576925816366656,2.638080642484309,25.299570781361513,-25.001177262899567,164.006927,4.839317619758656,0.0,164.00692700000002,0.5876098549936898,0.70077932,0.23526935,0.3290461,1.0,0.0,0.0,0.0,108.02484183582806
6.8609,84437.7501,-0.9940796266903835,-2.1926162501052415,-2.9236348361134104,-1.9591875580693656,-7.746790803417941,6.401818732200393,2.1144329191364832,24.73104106586827,-26.03869117011726,129.534927,17.864936119758827,0.0,129.53492700000004,0.6060267983265669,0.64073259,0.2425438,0.40418532,1.0,0.0,0.0,0.0,105.39446848365321
6.8832,84437.7702,-0.4739449299484757,-1.7992464979335927,-2.25728879499718,-1.9683671069430617,-6.995423195795043,6.034924297880642,1.40721865095703,24.390465185284338,-26.90189945949358,112.57209,33.69662879028178,0.0,112.57209,0.6143350603797536,0.58124179,0.25085148,0.4709819,1.0,0.0,0.0,0.0,104.19275906337778
6.8972,84437.7901,-0.31216488411741494,-1.063922634668165,-1.8002867971883036,-1.8089778803658914,-6.397799979965737,5.453404500057411,0.040374524311538096,24.15349324845729,-27.633205671466076,107.169868,52.369025801091695,0.0,107.16986800000001,0.6095938712136619,0.52196288,0.26582932,0.53412062,1.0,0.0,0.0,0.0,104.87971400019735
6.9167,84437.8102,-0.5214398232401978,-0.27353287543138183,-1.6447287097454808,-1.6999412956494453,-5.943419990241867,4.583539382090858,-0.9787672920713373,23.925508828716897,-28.20042584339064,105.400597,71.29662688693499,0.0,105.400597,0.6013611960765409,0.46377018,0.27557829,0.58935434,1.0,0.0,0.0,0.0,106.06510307212268
6.9374,84437.8302,-0.9148392537275423,0.24148917576441886,-1.7496781421543233,-1.5997707088968465,-5.628613153302849,3.4041196987829903,-1.3336775359739512,23.89368872099385,-28.45002474635794,105.145142,86.07111126362553,0.0,105.14514200000002,0.5936157732894265,0.40732804,0.27480289,0.63732845,1.0,0.0,0.0,0.0,107.17196700067782
6.9603,84437.8512,-1.2023590242247302,0.4664186703331996,-2.0874886900376914,-1.4188794765204873,-5.368284236130457,2.0929067831339805,-1.1518866221100517,23.85772411371957,-28.547396454141747,104.463333,94.60149931969157,0.0,104.46333300000003,0.5918524766292113,0.35391048,0.26707312,0.67314929,1.0,0.0,0.0,0.0,107.42284789386144
6.9804,84437.8711,-1.1988869539016997,0.5009496633989053,-2.632047787345548,-1.1267635102172782,-5.159504357246093,0.8281816592389213,-0.6674315382363538,23.84560431210394,-28.464150571237827,103.071762,98.25037388768466,0.0,103.07176200000004,0.5974227408284437,0.30677778,0.25429317,0.69592273,1.0,0.0,0.0,0.0,106.62892561601278
7.0009,84437.8921,-0.8977078459715191,0.45513921188286666,-3.2894353331737403,-0.7499284926460389,-5.030713528351739,-0.22976473903252814,-0.057369955064494604,23.94879808014464,-28.154935188662044,101.259758,98.98020233992253,0.0,101.25975800000003,0.6089530568246743,0.26625431,0.23610979,0.70889843,1.0,0.0,0.0,0.0,104.97231880852131
7.021,84437.9121,-0.3393939906951342,0.3757887392872038,-3.93618216289961,-0.43432825141689063,-4.989236571074711,-0.9731694620174589,0.6723354634679328,24.279362841212503,-27.576269488333647,98.723938,97.19152040548443,0.0,98.72393799999998,0.6279985779241997,0.23577067,0.21160154,0.71081275,1.0,0.0,0.0,0.0,102.19476975976394
7.0479,84437.9331,0.3639850345962383,0.2550723139209779,-4.53383345347998,-0.21302619172246454,-5.029255379328266,-1.4090212751569209,1.2655631510058996,24.92611071155053,-26.696791062823177,96.35408,94.66747181726211,0.0,96.35408000000001,0.6486310646956537,0.21181157,0.17983267,0.70857167,1.0,0.0,0.0,0.0,99.12306128048053
7.069,84437.9541,1.175229437516847,0.21298248984497312,-5.073110746025792,-0.09007717632014611,-5.128712784044367,-1.579184212816625,1.804160839322618,25.531294459998467,-25.874719704107623,93.984337,92.20990562021643,0.0,93.98433699999998,0.6697819145805209,0.18490911,0.14263736,0.7048797,1.0,0.0,0.0,0.0,95.89952980486886
7.0832,84437.9742,2.166885128253229,0.40644630124945885,-5.443284210805261,0.02819241313161497,-5.258184264867252,-1.5549434988890252,1.9468100840753344,25.628685975680533,-25.630228436883883,91.966835,90.72281815190266,0.0,91.966835,0.6872827283723144,0.14746712,0.10767479,0.70306617,1.0,0.0,0.0,0.0,93.16920739290772
7.1168,84437.9952,3.3683784898630167,0.769625062375321,-5.441872633658136,0.22662681645847027,-5.324561340123813,-1.5396452987605669,1.39165053449217,25.54300352235881,-25.654219353407097,91.043518,90.31549003374896,0.0,91.043518,0.6969827672489315,0.10748124,0.07352955,0.70516396,1.0,0.0,0.0,0.0,91.62914106456671
7.1423,84438.0152,4.580431076731944,1.022256084662214,-4.841464909275127,0.47407791209552635,-5.254535344675483,-1.610055962152495,0.946038406743829,25.456012454478746,-25.66224545150427,90.162041,89.77018145329963,0.0,90.16204099999999,0.7053554219269167,0.06677882,0.03276633,0.7049402,1.0,0.0,0.0,0.0,90.28346959145969
7.1447,84438.0362,5.527858533592473,0.7743116889536439,-3.639559945806206,0.6811253455357889,-5.0081255315872495,-1.7447560395704649,1.04015555808718,25.661268212329187,-25.346867310513943,88.207497,88.13348434330287,0.0,88.20749699999999,0.7178726282462072,0.03068871,-0.01719739,0.69528508,1.0,0.0,0.0,0.0,88.24176230305406
7.1625,84438.0561,5.9078810947070775,0.11861866878884308,-2.13315234882253,0.8556390186682403,-4.6184824088273,-1.7840874758743683,1.4879455142648608,25.912667302605843,-25.00091705280011,85.403831,85.9727434996276,0.0,85.40383099999997,0.731352086425858,-0.00510821,-0.07054409,0.67832261,1.0,0.0,0.0,0.0,86.00027138963318
7.1829,84438.076,5.827544321408927,-0.5111307060468647,-0.7970176459484186,0.9889448533621001,-4.144138759488562,-1.6933537895215318,1.4460699313677745,26.109700431407997,-24.848254886472915,82.708191,84.15887354764953,0.0,82.708191,0.7405012875741315,-0.03585545,-0.11718228,0.66078782,1.0,0.0,0.0,0.0,84.45172979695283
7.204,84438.0962,5.57466369885301,-0.8569368200248354,0.21761689490210578,1.0801221383901725,-3.6487718863519913,-1.5281399281939758,0.6976039129712479,26.248530061162242,-24.94382092302689,80.742889,83.18943061869203,0.0,80.74288899999999,0.7434951414308709,-0.06005858,-0.15548019,0.64763713,1.0,0.0,0.0,0.0,83.9399893979867
7.2247,84438.1161,5.26393568947548,-1.0425823259863516,1.0923519519466698,1.090214596501233,-3.200310552018378,-1.321299028147495,-0.10940411843362696,26.18577622173024,-25.357142692676955,78.943031,82.37559110680762,0.0,78.94303100000002,0.7445509260940112,-0.08300509,-0.1872189,0.63537639,1.0,0.0,0.0,0.0,83.75891725636752
7.2433,84438.1361,4.840164688569805,-1.4261063728033374,2.043346672681732,1.0022937630887574,-2.799368827997859,-1.1268409486259459,-0.5696322560610376,26.242069710076,-25.68666719397171,76.680275,81.3701393816895,0.0,76.680275,0.7457883600538178,-0.10303939,-0.21916267,0.62060481,1.0,0.0,0.0,0.0,83.54628431440968
7.2636,84438.1561,4.327100173520145,-2.0714926778659093,3.1188238459663786,0.8084094523425477,-2.423186911790802,-0.9564204289999422,-1.008402492968715,26.51099627329765,-25.782993537062975,74.123108,80.41045505798304,0.0,74.123108,0.7469120330537067,-0.11647442,-0.24979192,0.60511166,1.0,0.0,0.0,0.0,83.35281598299855
7.2898,84438.1762,3.6694464370151607,-2.6852955635380935,4.330036211179692,0.5343868126481404,-2.0560086298224407,-0.7836528551243138,-1.4425618497736465,26.692983997895475,-25.929626941715334,71.596184,79.42977764773595,0.0,71.596184,0.7478355680495713,-0.12848793,-0.27538818,0.59024924,1.0,0.0,0.0,0.0,83.19353128788194
7.3033,84438.1972,2.86377893528814,-2.7984110610729562,5.693697498744189,0.28269713759865245,-1.6703052117425194,-0.5891482075126739,-2.0783504446610905,26.308036695538483,-26.609891408424822,70.259674,78.89395073363929,0.0,70.25967400000002,0.7453824291575805,-0.14560622,-0.2911886,0.58173281,1.0,0.0,0.0,0.0,83.61608556409477
7.3226,84438.2171,1.9749092635236734,-2.525033642651448,7.095005665152907,0.13795762401971962,-1.2182910682040657,-0.4016787276549636,-3.0375851579456814,25.576743188647118,-27.550088624989918,70.113014,78.83479251260933,0.0,70.11301400000002,0.7405583597906441,-0.16324288,-0.29860839,0.57944638,1.0,0.0,0.0,0.0,84.44199800288963
7.3423,84438.2372,0.920323780386811,-2.404295250455521,8.311532907417966,0.10357515019942629,-0.6577428585064794,-0.23195415322415738,-3.7171777870329805,25.20337314448523,-28.125413607461553,69.322693,78.17497981026122,0.0,69.32269300000002,0.7391648406311824,-0.1764532,-0.30551898,0.57372272,1.0,0.0,0.0,0.0,84.67935735499545
7.3657,84438.2572,-0.044785417090238866,-2.6707777275117417,9.105236125284943,0.15393708425329872,0.017546731560506543,-0.045887686269487866,-4.426060443393487,25.529656657001865,-27.99565034831744,67.985008,77.73885736315724,0.0,67.985008,0.7399338361436065,-0.17750444,-0.31542823,0.5670054,1.0,0.0,0.0,0.0,84.54844053891783
7.3829,84438.2771,-0.4873130582773726,-2.9014681556435318,9.44348352827733,0.27355711266041516,0.7710408515612155,0.19205720604411586,-5.4095171753571165,26.075747152140046,-27.493206101235334,66.985146,77.47357843228711,0.0,66.98514599999999,0.743384538983172,-0.16844226,-0.31973404,0.56282926,1.0,0.0,0.0,0.0,83.95893983706515
7.4025,84438.2972,-0.34504564307958496,-2.545150224240353,9.50059943069785,0.5286487077233977,1.5750795651305254,0.4439794413115632,-6.551636945189463,26.158868137750634,-27.24750964627468,67.297379,77.37072553523251,0.0,67.297379,0.7473574480243359,-0.15807444,-0.3121258,0.56484228,1.0,0.0,0.0,0.0,83.27602509429974
