AppTimestamp(s),SensorTimestamp(s),acc_x,acc_y,acc_z,gyro_x,gyro_y,gyro_z,mag_x,mag_y,mag_z
55.0177,84485.9107,0.10402366191001533,-0.014570108544112802,0.00431775682773336,0.05713112741364044,-0.005436364589225453,-0.07509959905689954,-0.5983508574240964,0.7336600905381567,0.5072311504542155
55.0359,84485.9307,0.06129269278691953,-0.018524386757208702,-0.01527640850581934,-0.023609886444821367,-0.015098932058236364,-0.0033219418715713916,-0.6201143708346347,0.4227353800840245,0.51445430163936
55.0586,84485.9507,0.02975748705742673,-0.006695068217960901,-0.03224049652999904,-0.061066752759555316,0.03889588688883048,0.10191335160335376,-0.3138543910559123,0.19808967157581647,0.7383719883788932
55.0799,84485.9707,0.007984159117349135,-0.002019611203085206,-0.04287929238807904,-0.020499501188353815,0.035152386439915764,0.027782150990198796,-0.5095134349684349,0.0911351126936795,0.030503172234569442
55.1017,84485.9907,-0.00338413980430656,-0.013005052448257903,-0.042766956392222444,0.04984681806632796,0.029373438081435256,-0.07539093282136711,-0.28794347617300975,0.0106865530378441,0.2255282542335149
55.1196,84486.0107,0.00037098065296363447,-0.029470557630920102,-0.028360543150062742,0.07871293494629128,-0.03987973816998283,-0.11231327396277255,0.003510266529767493,-0.10687165916294765,0.030503172234571687
55.1389,84486.0307,0.021176515309847932,-0.04612264592175851,0.00013811756568676142,0.024542832353276818,-0.04507828028626441,-0.022669152320985354,-0.24930002495034842,-0.034640147311485965,-0.11395985146835175
55.1583,84486.0508,0.05802431754886103,-0.0574747744451765,0.036502191325894356,-0.02601937087838084,-0.003584793648647949,0.05867195703347633,-0.1884472181137703,-0.24059809212193742,0.17496619593749205
55.1819,84486.0718,0.10162753849734693,-0.06432002740440651,0.06914385369195676,-0.03947307739302883,0.029324836784108622,0.0644059352159515,-0.4354822495887158,-0.4443023688433808,-0.366770142948469
55.1991,84486.0928,0.13675152550932593,-0.0785379981210236,0.08541356685855396,-0.020263273836876993,0.007256321482350955,0.02484232845784431,-0.7364128115656483,-0.02403649399283121,-0.6268035856137323
55.2237,84486.1127,0.15246312428771064,-0.09531772838789551,0.07739720505101216,0.019130482990315195,-0.015436180468275384,-0.041487868875352794,-0.29038526397221576,-0.32290150759095365,-0.6845887950948989
55.24,84486.1327,0.14754635736752114,-0.09764404136500429,0.04568789429506927,0.04800118262737938,0.004592191063991994,-0.08708521459011875,-0.10050148006486363,0.05998883986408994,-0.5762415273177063
55.26,84486.1528,0.12604446890259102,-0.08416935762614611,-0.00106344085780374,0.0029408632473681352,-0.010372003398861938,-0.05502285033778583,0.1658552770214182,0.24102976641086565,-0.453447957170223
55.2848,84486.1727,0.09973941668687633,-0.050691938096878206,-0.04995146520240454,-0.031184994563957392,0.023023955975802493,0.04675134986092345,0.7056038226689241,-0.03318410377413704,-0.16452190976437703
55.2994,84486.1927,0.07203856563540903,-0.018378228959534202,-0.08875808832807573,-0.056947200728883735,0.00551030059435288,0.04756756594484496,0.36891743947191086,0.29444057713929545,-0.03450518843174481
55.3206,84486.2128,0.051440086686321336,0.005619075893584596,-0.10919596318254124,-0.055769572030337757,0.06966240668048261,0.05727307342061968,0.22337461165203557,0.6445956708021195,-0.3523238405781765
55.3387,84486.2327,0.03389612058715363,0.002740559165504794,-0.10810054208805814,-0.014997788190722103,0.006093325583449557,0.021380031323097588,-0.05119919323862047,0.40590247219944847,-0.48956371309595265
55.3578,84486.2527,0.02173273698401733,-0.0223644280399903,-0.08692929439092884,0.07258957817057589,-0.05758735051977843,-0.08127418946166866,-0.206586927395675,0.47601325338717626,-0.9301759353898689
55.3824,84486.2727,0.01739390121614043,-0.05671240044021961,-0.05041614608525064,0.08001917294354198,-0.08275437759776874,-0.1170143415257718,0.16504134775501458,0.1298337462012665,-0.7568203069463606
55.4016,84486.2927,0.032323209921326534,-0.0760590903156565,-0.00510049933311754,-0.02653023645811634,-0.03450740348300922,0.00983984344629576,0.2407003916675356,-0.18321169491659853,-0.5473489225771235
55.4217,84486.3127,0.05821144306147243,-0.0826625970969687,0.04130011275431056,-0.09393778042738643,0.04182903765106794,0.08352802412009508,0.9814373990293571,-0.15485083987711698,-0.08506724672776753
55.4466,84486.3327,0.08374145744994434,-0.0862916365890073,0.08123383605449247,-0.05737078102860983,0.039581323537131764,0.08183299130864745,0.4482780426534196,-0.04537673805542167,0.030503172234569175
55.4631,84486.3528,0.09688034778316894,-0.10177027793523141,0.10883428648960887,0.008173287032527033,-0.026789838766050195,-0.025456084819920913,-0.267807821295279,0.09921922307277971,0.10995783527117806
55.4958,84486.3727,0.09271576183772773,-0.1296468040000303,0.12094528088824856,0.0733912613139754,-0.056243545703606866,-0.12260385668454409,-0.5012963871640607,0.14878738474957484,0.04494947460486229
55.505,84486.3927,0.09705960225684404,-0.1204492136184715,0.11749880548730486,-0.005067767058373341,-0.06812668045436437,-0.10414990926502653,-0.9822658267111709,0.4662072246201775,-0.20063766569010774
55.5238,84486.4128,0.09916718128655684,-0.0913440106410714,0.09940494078817257,-0.04044685723921942,0.01494163102587736,0.036095998004302014,-0.614784953032844,0.6183555464263679,-0.020058886061451703
55.5461,84486.4327,0.09843922881867453,-0.046085693875035104,0.06842169849450927,-0.041679968694687215,0.058399662870296735,0.051094871440258004,-0.1901528317869244,0.5913177974989643,-0.40288589887419984
55.5677,84486.4527,0.08455211002665704,-0.008523336764313702,0.027241320866753762,-0.012377973670398395,0.05029195000621422,-0.001703956006098653,-0.17534659471098238,0.48423030119155047,-0.9807379936858938
55.5804,84486.4737,0.05522848349001473,0.015606215468135398,-0.01975694190297424,0.027056227820271277,-0.01080353613397712,-0.10252831182396122,-0.4745715430147573,0.07258028642120086,-0.6629193415394626
55.605,84486.4938,0.01964106679732594,0.013939391394465594,-0.06665321425709594,0.008830766541188344,-0.033964832911382,-0.12407978724337562,-0.5937576137483567,-0.2362236933691991,-0.8579444235384079
55.6207,84486.5137,-0.012730311274746359,0.0133333693353088,-0.10736445999996194,-0.023500265895730652,0.021086890642023428,-0.0640638279045271,-0.505366033496072,-0.40719271629842224,-0.47511741072566066
55.6399,84486.5337,-0.03393963052150116,0.009772620654522196,-0.13694920104815883,-0.06912460546985762,0.028018130520345418,0.010356298756033704,-0.5686606281318568,-0.534822832116772,-0.1789682121346679
55.6643,84486.5538,-0.04170663684569258,0.005660050423417197,-0.15305935045073926,-0.07802750249578043,0.01013895824203765,0.036018951058327114,-0.4465869273956733,-0.36398674661282315,-0.431778503614783
55.6826,84486.5748,-0.04188699228432406,-0.007538679794503303,-0.15589404687232805,-0.05297821397428788,0.0006305900930397799,0.016605528389715983,-0.38654804982549884,-0.6811407116328737,-0.44622480598507663
55.7158,84486.5947,-0.03315899811495225,-0.020277436329643402,-0.14699893624316104,-0.017338991959252793,-0.02107490191125596,-0.018550752286921195,-0.22420303933384728,-0.33323928605906017,-0.4317785036147842
55.7254,84486.6167,-0.014390873219880668,-0.0251382608710876,-0.12825263845078705,-0.01819499044181416,-0.007741759487667,-0.010386183730644327,0.24936328167529015,-0.5971153777759564,-0.39566274768905285
55.7524,84486.6377,0.008758878166335332,-0.010258260906225704,-0.10190530425279204,-0.045454760766755066,-0.0180146822519696,0.03851575365132597,0.7056038226689241,-0.03318410377413704,-0.16452190976437703
55.7737,84486.6578,0.028775949201691034,0.006436296011612198,-0.07094692760124824,-0.06711853237880785,0.002834966780045483,0.0894064653262732,1.0841893741542057,0.03864859580149652,0.08106523053059125
55.7952,84486.6777,0.03591006358066473,0.010267251858531695,-0.03906879909047574,-0.05481819661859222,0.0032448708485553084,0.08330771800894811,0.5526578763110733,0.37051473804239116,-0.19341451450496275
55.8048,84486.6977,0.02704352679835194,-0.011825738233230403,-0.00976780526878324,-0.02326855248148107,-0.02828074176204788,0.00851198748675972,0.3536653601925901,0.873084028361958,-0.09229039791291496
55.8328,84486.7178,-0.0004084449912170607,-0.0486803298624366,0.014602753235955463,0.010141537612996833,-0.039835053217612985,-0.05317853906851184,0.14978926847569163,0.7084771974239301,-0.31620808465244526
55.8548,84486.7377,-0.029097717853551155,-0.0841694816332633,0.033802898526079955,-0.0349598624943673,-0.03192465318693752,0.0043273752334983834,0.19457606676654834,0.9699666836265413,-0.38843959650390736
55.8691,84486.7577,-0.05092296255252386,-0.116564285735924,0.04899840226237376,-0.06094220825002347,-0.003725411542464336,0.09433987758572802,0.19502190896992624,0.49841072871129233,-0.2511997239861304
55.8864,84486.7787,-0.06126257292561248,-0.1435303148118905,0.06192570303188927,-0.03334707932708535,0.036300265908124775,0.09397149687528557,0.0848668153071042,0.35845504118638344,-0.12840615383864626
55.9082,84486.7997,-0.06398544448408187,-0.1767383422003575,0.07429426959003936,0.045242744138653715,0.017420316346485037,-0.009868524562375507,0.01290933066356744,0.6447286082273939,-0.4823405619108088
55.9266,84486.8196,-0.05884687971817497,-0.2108919503253166,0.08800547863517676,0.11563781820349166,-0.05304827624346867,-0.1112069279729143,-0.558893476935032,0.799529410398424,-0.5256794690216832
55.9497,84486.8398,-0.05037986450763955,-0.23495824063452658,0.10378510076295566,0.1173932901283485,-0.1062555539362849,-0.08252861005082236,-0.18852497325412207,0.8137098379181645,-0.7929360628720923
55.9684,84486.8597,-0.027580389132352265,-0.2234742186934589,0.11990233813570238,0.07943029032312009,-0.011718982563362497,0.02608711817875118,-0.4458507532696266,0.80151720363688,-0.5979109808731461
55.9904,84486.8797,-0.0022732493019251704,-0.18009556780242558,0.13004191551136135,-0.020861298119266406,0.06754718556303366,0.12198889646393664,-0.07503640738534109,0.34414167624136605,0.2688671613443926
56.0086,84486.8998,0.010785493537151442,-0.1280273043323876,0.12634264862692396,-0.035002556366520166,0.09828754506224902,0.1341960219668336,-0.046237862499853864,0.018770663416944326,0.30498291727012344
56.0282,84486.9197,0.005230783464685834,-0.076951438917052,0.10428499373488627,0.05534652583760699,0.0265749501467841,-0.016639024939919173,-0.12063713494259383,-0.028543830170843817,0.5361237551948002
56.0488,84486.9397,-0.010253484727694467,-0.024680276829986702,0.06544854672142546,0.14404545151192652,-0.015347600045878616,-0.13826966774659522,0.0742079797035243,-0.03278529149830622,0.44222278978789914
56.0662,84486.9598,-0.014538303241366068,0.0448103685458393,0.01727651651208906,0.0833116883643383,0.00427061799628944,-0.060241577069053906,-0.07133484811635336,0.31736980216451394,0.12440413764146963
56.0906,84486.9797,0.0033247198642558373,0.12267826636125082,-0.030085994715747542,0.017890276449417878,0.08056530711483813,0.06830402913886872,0.3742468572737031,0.4900607434816409,-0.07062094435747697
56.109,84486.9997,0.03939137469551844,0.1858470514745352,-0.06726429647818025,0.005379926480158539,0.08518683567748365,0.08742009875035801,0.053180640419036,0.821793948297262,-0.21508396806040042
56.126,84487.0198,0.08173846341081524,0.2083427052159857,-0.08815068842203454,0.02917753598039481,-0.0034710527511552748,-0.003621702645754952,0.5365918677653494,0.837962169055458,-0.5545720737622696
56.1484,84487.0397,0.11692986781811374,0.1810532439247469,-0.09162606077898854,0.07110925669053172,-0.06955583009690867,-0.08848891363709879,0.42769654557230924,0.3376465468248977,-0.4895637130959534
56.1668,84487.0597,0.14542996731358113,0.1268837435901089,-0.08186453614971244,0.06257487511927477,-0.04836029250512098,-0.06928977778698034,0.08694051604328691,0.10929112669033043,-0.38121644531876087
56.1969,84487.0798,0.16023456419577392,0.06662874435674448,-0.06579728584457444,-0.025755981172909028,0.0052428092926458236,0.018225921972250436,0.7561658809649461,-0.04763040614442904,-0.13562930502379303
56.2073,84487.0997,0.15512094672355764,0.0044992685818658965,-0.051038026036168735,-0.05838876689408256,0.04214360521298112,0.06205239178812472,0.37839425874606336,-0.008267085510463122,-0.07784409554262252
56.2357,84487.1197,0.12839320997966444,-0.0460864540510834,-0.04429749009990564,-0.02857892052450848,0.010146506250245662,0.043373322823336766,0.7779293943754844,0.26329430430970324,-0.14285245620893733
56.2574,84487.1398,0.07594908584910423,-0.09846246433088271,-0.049292223444094535,0.04992990924977489,-0.014118873685263869,-0.04906254675150939,0.4165918677653514,0.4179621690554569,-0.056174641987184984
56.2722,84487.1607,0.01230822146885463,-0.1333920564103076,-0.06540640008937423,0.07285478345654521,-0.021355980601483963,-0.08899934965418246,-0.0117418127495533,0.47177179205971487,-0.02728203724659847
56.2861,84487.1807,-0.05130970228675007,-0.1446034535830383,-0.08787240837478354,0.03895288638828986,0.009268847132303281,-0.02958050414663936,-0.14492019129269243,0.3812513287863242,0.16051989356719962
56.3142,84487.2007,-0.10474683970638886,-0.1233749889717643,-0.10997147673949374,-0.010506554754250332,0.023662973173029053,0.08065922924106121,-0.5679244540058074,0.6306811181329318,0.15329674238205312
56.3302,84487.2207,-0.14125544348510866,-0.09544822820018731,-0.12571468318488305,-0.05801929280484249,0.026416612616055383,0.13220604381532586,-0.10590865300700567,0.9186766035618438,0.485561696898776
56.3477,84487.2408,-0.15623718400247139,-0.0670918777372009,-0.13000194182987795,-0.024698813057391425,0.06314361840249794,0.11890220319081751,-0.013001584219332401,0.832131726765367,0.5289006040096537
56.3662,84487.2607,-0.1474605445909259,-0.0476059263322982,-0.11859099517175394,0.06003490874001144,0.037976840746097126,0.02145587441054164,0.09922721017966973,0.7229234997942205,0.6516941741571395
56.3858,84487.2807,-0.11294181034985055,-0.0316121561329237,-0.08830650244441944,0.1308557895584662,0.01565230336939576,-0.03626673442702296,0.4462043419172375,0.20378717644063318,1.2801083272648535
56.4056,84487.3008,-0.05152431678613616,-0.006597887064840501,-0.03921322946655954,0.10195575114154953,-0.02923911422577091,0.0806604330995921,0.23699883239855116,-0.15643982083974386,1.092306396451053
56.4256,84487.3207,0.031035536419542736,0.030492547508324204,0.022578011373605458,0.0294091356071313,-0.02064008121593713,0.11551815686057654,0.2867469614281722,-0.2820821434196342,1.3162240831905838
56.4454,84487.3406,0.11953468175344503,0.06831243045620738,0.08472971553508306,-0.012371343449339501,-0.00337994434265976,0.09831140687902755,0.2637236765478554,-0.23264691916811758,0.8828350120818154
56.4682,84487.3616,0.19204601826591355,0.0940429170878215,0.13248454278637575,-0.024651985230701903,-0.021865475262270496,0.07249466068478434,0.025273779940304986,0.2040530512911828,0.521677452824509
56.4876,84487.3817,0.23404482911515795,0.10114887829998251,0.15442263600797024,0.03169750460194657,-0.027668186643027202,-0.04804047085881121,0.04622336408444119,0.403781741535718,0.7094793836383066
56.5067,84487.4016,0.23910499926936402,0.1013231354772717,0.14697357188682156,0.04295008912712756,-0.019621782221650345,-0.09922010858116428,-0.5958313144845363,0.012940221126851467,0.3916607314918771
56.5265,84487.4216,0.21150511925388374,0.1054914098710896,0.11588154113976236,0.001153639172947055,0.006105774908115513,-0.05634468700466758,-0.31836987959130175,0.1136655254430699,0.5794626623056757
56.5463,84487.4416,0.15936620038898425,0.11362186694570992,0.07350048935852817,-0.07927512034531789,0.056141134770476935,0.04344796205224994,-0.6718584454600838,-0.25676631288013335,0.5144543016393611
56.568,84487.4616,0.09213743650477463,0.1126888122130994,0.033501724505136166,-0.0951273219274475,0.052813192365371096,0.07587991087355615,-0.3865480498254961,-0.6811407116328729,0.052172625790007525
56.5865,84487.4816,0.016312497262932935,0.08232214261182219,0.005851884370439861,-0.08883102394737,0.01915853579963467,0.04167949387041998,0.3434523667923884,0.01028774076201781,0.11718098645632499
56.6066,84487.5016,-0.05287866436283466,0.025501848878842194,-0.006066360184325541,-0.06004550902279977,-0.01620161132167111,-0.02384171053004076,0.06969249116813596,-0.11720943763105414,0.28331346371468635
56.6271,84487.5216,-0.10331907448702217,-0.0423266961712127,-0.00465173005666304,-0.035764765925368674,-0.03326468077807999,-0.07613130581784461,0.4371733648464626,0.034938884175139386,-0.03450518843174393
56.6464,84487.5416,-0.12733004751298166,-0.0976033229387474,0.004186425842373661,-0.037410332659607,-0.0034688045682976145,-0.031710129887726625,0.13009945580133667,0.14838857247374676,0.434999638602754
56.6665,84487.5616,-0.12544222233215818,-0.12430445228880421,0.013128332859455662,-0.06256528765300626,-0.0038702459987549707,0.0628637924379228,0.21397554751823483,-0.10700459658822381,0.6589173253422855
56.6865,84487.5816,-0.10530771319544448,-0.1194287475467962,0.01510185642504076,-0.02706912768525829,-0.011486291703825816,0.055291522278827915,0.08982814604587108,-0.028676767596122307,0.16774304475234736
56.7065,84487.6016,-0.07664772839756435,-0.09045945029642771,0.005339366188049959,-0.014107434543029543,-0.012308204030176885,-0.012222067990202307,-0.0038928520082030676,-0.05332791100924389,0.3194292196404163
56.7264,84487.6216,-0.047758083025213074,-0.050427408247499306,-0.01650322328050884,-0.011194533767545775,-0.03216617568031511,0.009549713540359054,0.18599093189915117,0.3295624364457986,-0.07062094435747655
56.7589,84487.6416,-0.027863230402868464,-0.021238034565584003,-0.04525620927559244,0.012618069203985532,-0.04822406224360976,-0.04141804508056305,-0.12271083567877683,0.22062008432520572,-0.7062582486503373
56.7698,84487.6616,-0.013772721600741361,0.016674947526581795,-0.07105082290516744,0.03114698521481733,0.010891961753295435,-0.10517318901625557,-0.216431833732851,0.19596894091208414,-0.5545720737622684
56.7904,84487.6816,-0.013904805420214161,0.0352891646980873,-0.08272872155847273,0.05486762119062148,-0.005749648525505754,-0.10047212145325628,-0.3265869273956726,0.05601325338717865,-0.43177850361478337
56.8079,84487.7017,-0.020877072058039167,0.042639395455225,-0.07209720362580344,-0.010147674332081264,-0.05279242123330496,0.02278132265301595,-0.4009861998384152,0.008698759799389763,-0.6990350974651909
56.8373,84487.7216,-0.029869187292786578,0.04085934268837799,-0.03763930669382614,-0.04734392823193936,-0.0210549201190598,0.14052109468795992,-0.36974586715372476,0.016915807603765064,-0.25119972398613044
56.8613,84487.7416,-0.03624211723853256,0.007950738023761297,0.014998698285262863,-0.0537628792827091,0.06115906589544584,0.0621980586703585,0.07420797970352459,-0.03278529149830782,-0.05617464198718329
56.8696,84487.7617,-0.042783932951373574,-0.0494347336471199,0.07459123975004556,-0.009825332193879176,0.018755481012923007,-0.04222824187183028,-0.07296270664915575,0.09497776174531534,-0.4823405619108066
56.888,84487.7816,-0.04621242480023856,-0.10658952109406569,0.12827761038657756,-0.006459939619506496,-0.06397034543689775,-0.07679222415128548,0.031049039945474546,-0.07188273728172252,-0.37399329413361576
56.9092,84487.8016,-0.04191752005542536,-0.139491883471637,0.16450954171250134,-0.008476046172093951,-0.06252145785044419,0.004836607392051194,0.11862669093135557,-0.3540477804205448,-0.2945386310970059
56.9317,84487.8226,-0.023685597081329876,-0.1319950041479952,0.17458864403596236,-0.02232470885886708,0.018575302917205265,0.04933121869255149,-0.23982320567619592,-0.3373478099612445,-0.15729875857922943
56.9546,84487.8427,0.005688275464527839,-0.0875174302909637,0.15394962724275454,-0.011524635269905572,0.07395671046321627,0.030211537505469618,-0.08073391225015415,-0.4342304652258278,0.13885044001176294
56.9748,84487.8626,0.034812450761555036,-0.022514948950263302,0.10454076084466916,-0.00554379005026217,0.012825040400461006,-0.005753736103903928,-0.3984666568988576,-0.7120211096119129,0.18218934712263848
56.9926,84487.8826,0.056001206357399635,0.0484384093530966,0.03632325222044666,0.031105028749700676,-0.022173193542385523,-0.051856702401630095,-0.5974591730173416,-0.2094518192923463,-0.2150839680604009
57.0164,84487.9027,0.06595162293167614,0.10415224890123512,-0.03441421322593974,0.06409454970337852,-0.0033273423862934743,-0.07987650970734286,-0.4724978422785767,-0.176583628074851,-0.41733220124449183
57.0367,84487.9226,0.06862479747600424,0.1441513425593996,-0.09004247774203633,0.08168967469046456,0.04819976476025337,-0.07730386402689998,-0.36026904787957226,-0.2857918550459935,-0.2945386310970081
57.0534,84487.9426,0.06275512172730183,0.1572776784009843,-0.11725134803189073,-0.004197505818574868,0.023343244905693207,-0.010451192091310643,-0.2447845364149598,0.04978399882126035,-0.45344795717022135
57.073,84487.9647,0.046953835897869736,0.13640403418487632,-0.11185627620363883,-0.06905246572331748,0.02154466202133395,0.05645926505375987,0.12521588020292665,-0.5187875487838498,-0.38843959650390775
57.0938,84487.9846,0.019793564022444032,0.0829314654316497,-0.08049711065895675,-0.08596131349009252,-0.03375566718815889,0.035577134977502346,0.01668864507290723,-0.4363511958895617,-0.1572987585792298
57.1196,84488.0046,-0.015993206903189866,0.009118159177974296,-0.037936447589416236,-0.04660462624656761,-0.002497577829166013,0.0229306011108423,0.11329727312956521,-0.5496679467628898,-0.25842287517127677
57.1339,84488.0247,-0.05191773937615125,-0.0642979426647366,-0.0006308000732903399,-0.003967778838837498,-0.026029534231374607,-0.039360650851327256,0.2337431153329434,-0.6012239016781403,-0.12118300265350106
57.1521,84488.0446,-0.08084183485453526,-0.11053327864331691,0.02014573880671666,-0.005103526930608892,-0.03565074906229707,-0.06627290830865096,-0.2969744532437871,-0.15816173922764698,-0.09229039791291462
57.1708,84488.0646,-0.09756274249115567,-0.11499986505704321,0.02177970003365286,-0.023398711510995988,0.018010732246384952,-0.008692354777727557,-0.2715093805642646,0.12599109714963067,-0.24397657280098442
57.1947,84488.0846,-0.10146634657533556,-0.0803479986239948,0.00907875546183596,-0.018295213247752472,0.006076875599743949,0.015720692369535584,-0.2111024159310609,0.3915891072544307,-0.09229039791291505
57.2221,84488.1046,-0.09569127471855947,-0.022208519398415203,-0.00934139030356634,-0.0054022495731167,-0.00014111402158055718,0.010358706473095423,-0.41416457838155574,0.338178296526002,-0.012835734876307793
57.2337,84488.1246,-0.08122239615394415,0.039067824054952204,-0.02464356266249354,0.012274770673497647,-0.0028302626634703703,0.00343531606213284,0.11773500652459996,0.589064129409958,-0.07062094435747657
57.2596,84488.1447,-0.06595696942020828,0.091773779402645,-0.03064296184723304,0.004631625526165424,-0.033372221192804016,-0.014948807562594974,-0.11693557567360884,-0.05531570424769663,-0.10673670028320702
57.279,84488.1646,-0.049717708460268975,0.1287769453131018,-0.02473078688892884,0.029513549434107906,0.01554437197635527,0.004031226034907398,0.12521588020292665,-0.5187875487838498,-0.38843959650390775
57.2936,84488.1846,-0.036955342331845456,0.1452351779878864,-0.00791086373240184,0.023413296916192892,-0.032108413018526155,0.004835403533520338,0.5596929077860204,-0.2657809852361633,-0.15007560739408457
57.3145,84488.2047,-0.03425454778302926,0.1383849119641824,0.016204579562058962,0.021492883170510155,-0.022999723376902516,0.005129145015049615,0.29008043363413316,-0.8916059926213397,0.008833718679129923
57.3356,84488.2256,-0.03908099499438726,0.1135692054920667,0.042521105954790556,-0.01571647241631323,-0.01612562178066726,-0.0239825619781511,0.6986465463343292,-0.4511963105356795,-0.23675342161583876
57.3521,84488.2456,-0.04950222386659496,0.0786337416784306,0.06528818135169526,-0.020607828087819177,0.020441908411191582,0.007928116099293742,0.38579737728403884,-0.06181083366416725,-0.3667701429484685
57.3707,84488.2656,-0.06197235630298796,0.0441076684323626,0.07873189847851776,-0.038459548398281695,0.010090971357038013,0.046681526066133704,0.1543825121514342,-0.2614065864834266,-0.18619136331981592
57.3912,84488.2856,-0.07244130956929985,0.0173148026077901,0.07789449787672896,-0.023060113833556422,0.021493990052830793,0.060944841939735636,0.2550607865401037,0.1812567636912409,-0.2656460263564223
57.4107,84488.3056,-0.07836107089969786,0.002682525556521799,0.06002934312653356,-0.007510113992755416,0.004391132955459076,-0.009063143205231721,-0.38617996276247474,-0.09838873650802113,0.2183051030483701
57.4357,84488.3256,-0.07903164605919226,0.004139105376436095,0.026317064839243957,0.029208709132585282,0.02253004063393316,-0.03634137365593616,-0.37137372568652915,-0.205476232815434,0.6372478717868475
57.4522,84488.3456,-0.07171081322502716,0.026598792454660396,-0.01725346028967314,0.026768725194391666,-0.028959963955154377,-0.027372627601046348,-0.7803856805901005,-0.1743299599858429,0.24719770778895456
57.4726,84488.3657,-0.06138671897412466,0.0593091732270264,-0.06090738935225894,0.01801362195950689,-0.031262791602330156,-0.0056020499290158525,-0.6249979464330473,-0.2444407411735744,0.18941249830778273
57.4931,84488.3867,-0.052072658802624364,0.0909392269913151,-0.09333687700972763,0.03786150813134688,0.04457924092000128,-0.010015395303140147,-0.6093777800907001,-0.240332217271387,-0.08506724672776822
57.5128,84488.4066,-0.04962030789078366,0.1088183655591656,-0.10494831219183513,0.032581883229786196,0.03866341946330434,-0.02148937096074481,-0.5950173852181346,0.12413624133645167,-0.30176178228215117
57.5356,84488.4266,-0.05621369833376787,0.1053517042744398,-0.09109594176534573,-0.002177505330829235,-0.015112469519376977,0.009918094250801509,0.12684373873572927,-0.29639550836465284,-0.2800923287267139
57.5611,84488.4466,-0.06674408650343948,0.08159834235578758,-0.05424514694454334,-0.021844978847641142,-0.029034619943145004,0.03102053043820599,-0.09346644858991435,-0.5763068834144672,-0.034505188431744875
57.5743,84488.4666,-0.07222157679142006,0.0414374895523734,-0.00379669680149234,-0.0070848510373754635,0.014389629253921947,0.011680543139977169,-0.03179971248693232,-0.6710688080153211,0.05939577697515398
57.5932,84488.4866,-0.06720315875690895,0.0037926467119688972,0.04645117696659726,-0.033800485138399144,0.01216266756850014,0.007853476870380557,0.10471213826216753,-1.1900721939436358,0.05939577697515318
57.6243,84488.5067,-0.05178922459624587,-0.014838041848444602,0.08290517481094116,-0.0003674589101015035,0.014746088646129387,0.02167979209728116,-0.02891208248435038,-0.8090367023017713,0.10995783527117897
57.6346,84488.5266,-0.023936763621861354,-0.005923381415648903,0.09652434180209116,0.03700895751141358,-0.00648860176001778,0.01667535218450574,-0.019067176147172165,-0.5289923898266817,0.23275140541866177
57.6573,84488.5466,0.006124820063844932,0.0325087203274975,0.08523094953637246,0.02234936565477268,-0.01967157551526324,0.004027614459314828,0.4458362548542137,-0.37896479868422095,0.11718098645632416
57.6738,84488.5667,0.034735489878330736,0.0870828297748795,0.05461305064639896,-0.0027497434059850856,0.010452455644953266,0.007192558536939692,0.6632588121772737,0.03891447065204802,0.31942921964041643
57.7058,84488.5866,0.049934881051580234,0.1333543031968172,0.015924487783394257,0.023580768969767883,0.050140880680452415,-0.0164873387650311,0.3434523667923876,0.010287740762015997,0.6155784182314066
57.7123,84488.6066,0.043288314416443534,0.1698426732346466,-0.01816548896450594,0.034987663374042605,0.010491767993516784,-0.04487311906412462,0.5157200387615677,-0.4160744512291784,0.7239256860086013
57.7333,84488.6276,0.013654831117005842,0.1763085730535024,-0.03743100519651124,-0.015209485055419674,-0.03294476102663685,-0.025678798648129587,0.6978326170679269,-0.5623923307452791,0.9550665239332758
57.7595,84488.6476,-0.029878440349552657,0.1630370651263259,-0.038148334936970035,-0.06305657304140164,-0.020669878744927716,0.038814310566978684,0.19221203410769655,-0.41792930704235604,0.6661404765274299
57.7763,84488.6676,-0.07761212570296656,0.12781112092855731,-0.02293311481895964,-0.05757805895175282,0.02794768865802976,0.037047046243679584,0.4413207663188248,-0.4633889448169657,0.9550665239332763
57.7976,84488.6876,-0.11846003274328197,0.0847639266714234,0.0007160040999104611,-0.05064972288669397,0.025529592639441517,0.04528986560446221,0.3418245082595831,-0.21210429965718153,0.5072311504542157
57.8171,84488.7076,-0.14897794797093328,0.0371397639653474,0.02440088214672906,-0.004272078072157362,0.002417408406716775,0.002038840166337914,-0.05526883957062898,-0.15007762884854944,0.4855616968987773
57.84,84488.7276,-0.16581421097586768,-0.006043759546325002,0.042075404052297954,0.049339267769866975,-0.007485833262433038,-0.06502209929508981,0.18029342703433512,-0.448809705021396,0.7961571978600609
57.855,84488.7476,-0.15956226330943035,-0.023576742129652405,0.05156969155973286,0.048226471873721706,-0.045919320149248675,-0.06833632183054103,0.04748313555422029,0.04342180683006591,0.1532967423820545
57.8782,84488.7676,-0.13482111937689034,-0.0157644437167357,0.05261365313432097,0.026131461595455773,-0.0339321743554584,-0.02494324108577553,0.2674252358168402,-0.2594187932449688,0.7383719883788907
57.9003,84488.7877,-0.09157569902295155,0.021901916693680197,0.04490614312241806,-0.021229528586914344,0.010673822839504483,0.0421971530386888,0.4889951946122656,-0.3398673529008058,0.43499963860275365
57.9155,84488.8076,-0.045747474021964954,0.07019779192630499,0.027314654456285257,-0.0346928604197409,0.057976203363169214,0.07418728577917025,0.5136463380253872,-0.16691053673312653,0.4783385457136305
57.9349,84488.8286,-0.011139675349308861,0.1177312574481518,0.00021640229744165906,0.012746017299486236,0.028359381157675743,0.008071375264465809,0.643568999502916,-0.5211741542981362,0.5722395111205315
57.9554,84488.8486,0.0027176435294662404,0.1530547157324417,-0.032322071223928536,0.08316076928137102,-0.017234833694291338,-0.07326371479734156,0.5066890616907923,-0.584922743494669,0.40610703386216884
57.9787,84488.8696,-0.002220252467402359,0.17757501679477,-0.062478130210409835,0.07834685199866778,-0.051555143042090405,-0.0984881625944028,0.19347180557747537,-0.7782892417480066,0.6083552670462602
58.0015,84488.8916,-0.015436960679312259,0.2006299196088706,-0.08098269150895364,-0.002154569197009489,-0.0009747369861826164,-0.03127312924102529,0.11085548533035898,-0.8832560073916874,0.32665237082556065
58.0224,84488.9127,-0.03313460749486617,0.2124731698009773,-0.08029847621634353,-0.08872647719554974,0.038677236727686026,0.07536586328087992,0.24529363534327916,-1.15309547882395,0.5794626623056762
58.0452,84488.9326,-0.05515868285915847,0.1974791025118947,-0.058079375808936934,-0.08078073426239196,0.022968453032498094,0.10816017351997431,-0.001373309068642785,-0.7740477804205442,0.7022562324531612
58.0615,84488.9526,-0.08186367234946758,0.1436888365925073,-0.01874902788960314,-0.02031562460889128,-0.010278721154216394,0.0009445327617882698,0.030680952882446797,-0.654634712406571,0.955066523933278
58.0886,84488.9726,-0.10846091610985335,0.0674049337218155,0.02741950393994946,0.03690581546669769,-0.05341484689009895,-0.10047212145325626,-0.03712913028872399,-0.8666889743576647,1.0923063964510558
58.1015,84488.9926,-0.11403621691684986,0.0092933632419296,0.06860443104847046,0.0039188408075753,-0.07705999698749255,-0.06090129154396394,-0.030985783220530843,-0.5598727878057209,0.8611655585263769
58.1277,84489.0126,-0.10320135571124046,-0.014862093545662203,0.09435881371509866,-0.04025215941765969,-0.03415828263742542,0.02896072849190848,0.015060786540104638,-0.6587432363087603,0.7311488371937451
58.1402,84489.0327,-0.07644128977703175,-0.006595261392544002,0.09790861403787167,-0.04044178344194897,0.03160875279808581,0.058375807834885315,0.27771598435739653,-0.4509304356851298,0.500007999269068
58.1624,84489.0526,-0.045716239595015765,0.028962725677407604,0.07763795334697766,0.013417370213865984,0.0615947088964244,0.03491501278553063,0.3179872941128624,-0.2738650956152624,0.26886716134439226
58.1788,84489.0726,-0.025535864093275865,0.07283799736966229,0.03824115628354366,0.03356995131803264,0.0005096857238053429,-0.05245020465734294,0.30606868703950396,-0.30474549359430314,0.39888388267702496
58.1997,84489.0927,-0.020891117359244357,0.1139546426557875,-0.01047230791696304,0.041011831836735985,-0.034249422995824175,-0.0803195296466985,0.32294862485162895,-0.660996904397765,0.06661892816029961
58.2279,84489.1126,-0.02871248014881196,0.1491380985812067,-0.05690854629075824,0.011083546517782724,-0.035915627190408965,-0.06428894944979749,0.4635301219327404,-0.6240201892780842,0.08828838171573934
58.2544,84489.1326,-0.04080929005196905,0.1800037620381579,-0.09107013892127803,-0.034689583411127524,0.020973838503565392,0.013814984315187854,0.34841369753115226,-0.3768440680204871,0.41333018504731694
58.2638,84489.1536,-0.06174919376313397,0.1851417215809743,-0.10635996660294454,-0.037844250199729146,0.05093231472888014,0.05080353767579044,0.44583625485421335,-0.3789647986842194,0.6155784182314067
58.2823,84489.1736,-0.08383682455425408,0.1659656591741738,-0.10099860125465003,-0.028353742335645162,0.008517883910570432,-0.0009671945852137472,0.7084914526715062,-0.17115199806058867,0.8828350120818167
58.3008,84489.1936,-0.10595664159856226,0.1224671455425431,-0.07760372704808724,0.0037482938355943825,-0.029364126424069437,-0.043109466316418106,0.10670808385799607,-0.3849281783995857,0.8322729537857908
58.3195,84489.2136,-0.12146946343387606,0.0698524905249712,-0.04236308659338284,0.00732052762940801,-0.03972619322230189,-0.05200838857651816,0.1794794977679338,-0.5600057252309978,0.9911822798590066
58.3388,84489.2336,-0.12451091087515835,0.0271928749935796,-0.0036798873150338408,0.00231939969212724,0.0035869861883497454,-0.00891145703034365,-0.06962923444319445,-0.5145460874563881,0.7022562324531603
58.3594,84489.2536,-0.11348823226398576,0.0088212437025973,0.02897498181540396,-0.028622841556772693,0.009293340830892581,0.02653495355223023,-0.19459056518195908,-0.547414278673885,0.40610703386216873
58.3841,84489.2736,-0.09187555437498306,0.020130418454602297,0.04663639350061477,-0.040333323963130066,-0.012145092767291026,0.032488033987321516,0.09641733531743997,-0.19341653595942626,0.5722395111205311
58.4032,84489.2936,-0.06821321775504498,0.0531905742564834,0.04344032586200626,0.00021404363787293906,0.014052802203850974,0.003806104489637006,0.204944570447457,-0.2758528888537183,0.34109867319585524
58.4227,84489.3137,-0.04858681229605767,0.10394118159295909,0.019393611810924662,0.0354512899082053,0.029813588983756013,-0.013180339380765018,0.3685493524088874,-0.2883113979855553,0.29775976608497795
58.4457,84489.3336,-0.037495418038360054,0.1632295291635752,-0.01861697391091784,0.06160466936757761,-0.012735948004636077,-0.045979465053982836,0.3574446746019296,-0.207995775754996,0.7311488371937465
58.4605,84489.3536,-0.03135190455578486,0.227911910020466,-0.05867165081407834,0.016213334127291534,-0.05038128079312576,-0.04752160783201155,0.4696734690009341,-0.3172040027261385,0.8539424073412302
58.4822,84489.3737,-0.03257588190467166,0.2776688200296305,-0.08738496578858333,-0.022044826324813374,0.024863907907475634,-0.0038347856057167696,0.5687238848567986,-0.09693269297067195,0.666140476527432
58.5,84489.3936,-0.04237266210782596,0.2931117689486204,-0.09452308085266184,-0.058101036347686666,0.03770139648543944,0.07454964719695842,0.5485882299790635,-0.1854653630056038,0.781710895489771
58.5198,84489.4136,-0.06076589117787086,0.2642901077872074,-0.07700914972414964,-0.047950521472226386,0.009578392235307924,0.04145798390074218,0.3023671277705186,-0.27797361951744715,0.5433469063799458
58.5434,84489.4337,-0.08583197114042086,0.195780469505131,-0.04043403009744374,-0.012704098686279645,-0.03313201427496257,-0.03649065211376252,-0.07044316370959808,-0.6257421076659873,0.39888388267702274
58.5653,84489.4536,-0.10953768091291406,0.11281155482109051,0.002946482252360459,-0.016120017029156723,-0.054927466176997695,-0.05156536863716254,-0.32117975445352853,-0.8026745103105779,0.5000079992690689
58.58,84489.4736,-0.12284804017914826,0.04533785499135149,0.03915437748283436,-0.05189492067354137,-0.04767606513574493,-0.01957764361374281,-0.3174781951845457,-0.8294463843874296,0.35554497556614717
58.6004,84489.4937,-0.12506223528509886,0.012988191285539498,0.05707290895970736,-0.06369754058415046,-0.0005010308755709124,0.0474869074232775,-0.03712913028872456,-0.8666889743576666,0.09551153290088611
58.6212,84489.5136,-0.12080831981641456,0.013216663181346795,0.05186081571045886,-0.01991908043129479,0.03333512336647033,0.04234643149651516,0.04504134775501354,-0.2901662537987337,-0.25842287517127766
58.6448,84489.5336,-0.11741360022631266,0.034798706399071004,0.026530199042344656,0.025624303380547515,0.010285585134515383,-0.031123850783198924,-0.05238120956804536,-0.28804552313500403,0.03772632341971596
58.6601,84489.5537,-0.11532387716745567,0.07589641211331119,-0.00917338582602224,0.04434941691571604,-0.01303873301838991,-0.07046715143015915,-0.15350532616009233,-0.2591529183944192,-0.02005888606145375
58.6867,84489.5736,-0.11454866144908678,0.1254512121448391,-0.04291897262260834,0.0020829541886365965,-0.018509743667795783,-0.006857674376700429,-0.07910605371734965,-0.21183842480663032,0.24719770778895378
58.6997,84489.5936,-0.10940562857129248,0.17238245944737732,-0.06446332725663934,-0.03730569091211412,0.010117012075275844,0.056096903635971716,0.3225027826482519,-0.18944094948251583,0.42777648741760976
58.7221,84489.6137,-0.10042108457772216,0.2097808605126604,-0.06901824717230894,-0.0679134402774426,0.035962083322512564,0.10227330530408021,0.39897575582717426,-0.3912903703907791,0.4422227897879009
58.7408,84489.6346,-0.09441847941766397,0.2124558889308964,-0.05682448492387934,-0.02118892283792466,0.01746364976836457,0.05565508755514694,0.3566307453355287,-0.3191917959645944,0.9261739191926931
58.7605,84489.6546,-0.09347383001877656,0.1842516175922816,-0.03222575064730454,0.04555857653628826,-0.020632778624267687,-0.05862479506211204,0.21893687825699867,-0.49413640537072867,0.9550665239332775
58.7833,84489.6746,-0.09581892485512038,0.1413539864852445,-0.0010331976924610395,0.018450759787230923,-0.08566768812453701,-0.07796839393593344,0.10056473678980303,-0.6917443649515296,1.0634137917104696
58.8042,84489.6956,-0.09268133992010517,0.10865587899875381,0.03111876472801896,-0.01743516876785866,-0.04539599425165428,-0.005166253140845371,-0.09265251932351336,-0.46511086320487033,0.7672645931194771
58.8375,84489.7166,-0.08093112868310036,0.103866093332077,0.05873571267214227,-0.0565505615556146,0.0431912608305617,0.08220257587762075,-0.13869908908414677,-0.36624041470183205,0.39888388267702357
58.8456,84489.7366,-0.07450443447860057,0.0863917728645763,0.07653627518812386,-0.0818152129564466,0.028069732659370846,0.10109954323649395,0.21849103605362347,-0.022580450455477487,0.31942921964041593
58.8628,84489.7567,-0.07021195018376196,0.07978730575483209,0.07947852730650426,-0.022767910354628513,-0.009226639512577182,-0.00692629431295932,0.16630111922479346,-0.23052618850438555,0.18218934712263854
58.8855,84489.7766,-0.07336395345675008,0.0771641564009381,0.06544362169865546,0.05343146780068842,-0.023930747556953447,-0.10069483528146494,0.7023481056033143,-0.4779681846125339,0.11718098645632291
58.9085,84489.7966,-0.07867367182861128,0.09307490179934119,0.036137122882852465,0.03927944503234895,-0.02652016962314217,-0.05693457768478784,0.6711077729186236,-0.4861852324169076,0.16774304475234492
58.9261,84489.8167,-0.08007489973296937,0.1344453098323429,-0.0031575550621631386,-0.00838447795089782,-0.011940477342214522,0.026166572841787777,0.47382087047329724,-0.8155318317182418,-0.15007560739408243
58.9446,84489.8366,-0.08107808425452066,0.18574321159368182,-0.04504255820569534,-0.04424123892563974,0.03879431150771174,0.057196026474644786,0.4516115148593811,-0.6549005872571252,-0.28009232872671513
58.9628,84489.8566,-0.08747682454406745,0.22482792946429792,-0.08142826341454944,-0.029726505559452908,0.05419581626022979,0.043296275877361866,0.02697939361346112,-0.6278628383297185,-0.3956627476890533
58.9828,84489.8767,-0.10254202919722825,0.2357186996409676,-0.10510273308429584,-0.00083567523983348,-0.004581563831090049,-0.020162718859739644,0.2181229489905994,-0.6053324255803301,-0.3451006893930309
59.0034,84489.8966,-0.12383297412738416,0.2156208349162076,-0.11143252853839224,0.017863879663127667,-0.0575771509462218,-0.06289608512959513,-0.185559588111184,-0.3785659864083913,0.22552825423351494
59.0254,84489.9166,-0.14399226850046898,0.1753486955871602,-0.09956976813086253,0.0021633688827184844,-0.023852719294676323,-0.028692056550866388,-0.6361026242400044,-0.16412511894301335,0.1244041376414696
59.0533,84489.9376,-0.15685209116098858,0.132748179068916,-0.07280364917160384,-0.014255361258911251,-0.01121879639706783,0.013958243480359922,-0.6710445161936825,-0.14557029267053656,-0.17896821213466793
59.0734,84489.9576,-0.15765219038064676,0.09805647354467789,-0.03791047643664474,-0.04817869202817528,-0.01138784474870668,0.03646197099768275,-1.0528857847445743,-0.6621870730845638,-0.6412498879840226
59.0902,84489.9776,-0.14921788468321068,0.07650934424058259,-0.003970523616524941,-0.06603932335005495,-0.03839766437102677,0.06308048697347718,-0.2952688395706287,-0.990077628848551,-0.5112331666513936
59.1053,84489.9987,-0.13429243054310247,0.0725108033891548,0.02065171508722056,-0.04131105481098048,0.005678544617809094,0.07102113784301453,0.35011931120431145,-1.2087599576413892,-0.5040100154662436
59.1254,84490.0186,-0.11671166498956466,0.08779879903787,0.03159470081785906,-0.009846898819731527,0.004627357191737965,0.004032429893438251,0.15075870802280167,-1.2889426424466723,-0.07062094435747478
59.1447,84490.0386,-0.09975503944741705,0.11802017143885041,0.03031234797367516,0.02036016537499537,-0.020758946863898294,-0.05898956419696192,0.720041972681844,-0.723023575206398,0.0882883817157398
59.1677,84490.0585,-0.08669738530346986,0.1583503662203295,0.02280120822119616,0.0037917308661574406,-0.04517225128994459,-0.038401175602233675,0.5535495607178295,-0.5725971717881082,-0.4173322012444912
59.1853,84490.0786,-0.07721282872858455,0.2001499324054699,0.016253156506344662,-0.017640014183959288,-0.02963032413276839,0.018296949625571043,0.5194215980305549,-0.4428463253060323,-0.4173322012444912
59.2067,84490.0986,-0.07625453267568887,0.2278824177893899,0.015604687538701357,-0.036285443739103855,0.020554084311558626,0.05697572036349783,1.0817475863550023,-0.2949394648273005,-0.3306543870227383
59.2304,84490.1196,-0.08758232454218005,0.22608685141271,0.02203808940808476,-0.05973632563806462,0.025682907711261704,0.049846470143758564,0.9292474822005271,-0.36279657792602504,-0.22230711924554497
59.2498,84490.1397,-0.11299080998807486,0.1893807338646273,0.03309811838038186,-0.0394288146527352,-0.024619238284546704,-0.009575986939377104,0.5880456104681271,-0.1195960431453384,0.24719770778895386
59.2647,84490.1596,-0.14593821595793866,0.1341568109940792,0.044086098653018366,-0.044218619015030644,-0.049610722752462276,-0.06951008389812731,0.40800673289795236,-0.22244207812528619,0.2616440101592488
59.2863,84490.1796,-0.17507941104387548,0.0813847931869964,0.05032204534458286,-0.039810849360737824,-0.01229437122511738,-0.023033921455835243,-0.03838890175850339,-0.506329039652016,0.1532967423820558
59.3064,84490.1996,-0.1926615899456613,0.0471127415657604,0.04820889825801626,-0.03384515602205186,0.02797971639240092,0.038662624392090617,0.01668864507290723,-0.4363511958895617,-0.1572987585792298
59.327,84490.2196,-0.19550072890848536,0.0378164556733244,0.035793133107485955,-0.00840951157670881,0.022799532265160044,0.029625258400941924,-0.03920283102490513,-0.6175250598616147,-0.15007560739408465
59.3448,84490.2396,-0.1835039454034535,0.055046639642712496,0.01345081113013796,0.011228831943436338,-0.026272851597738563,-0.03943288236317872,-0.2167999207958766,-0.3867830342127655,0.27609031252953986
59.369,84490.2596,-0.15993020042456396,0.09713837925288271,-0.01560367756119514,0.007119035425752936,-0.040630052592686164,-0.04068609909380157,0.14246390507807546,-0.2922869844624657,0.4422227897878992
59.3913,84490.2796,-0.12761236155557715,0.15900948615726002,-0.04554403734191924,0.00023313982751189393,0.011514489006811271,0.01645865764895135,-0.4095713347058153,-0.6317054873813536,0.6155784182314069
59.4112,84490.3007,-0.09728737905385106,0.22258047170086498,-0.06912754218595105,-0.01773660582890255,0.03899584490864397,0.048958022547985605,0.104266296058788,-0.7185162390283824,0.42055333623246244
59.4286,84490.3206,-0.08077665693415416,0.2655700859875208,-0.07919403970052113,-0.004141356107075028,0.009804344988121822,0.005503545018146351,0.15401442508841118,-0.8441585616082738,0.14607359119690771
59.453,84490.3406,-0.08529334900481046,0.2718939583162176,-0.07101888465331974,0.013177331478551317,-0.0260424228934857,-0.04906134289297853,0.444208396321411,-0.601356839103418,0.00883371867913036
59.4702,84490.3607,-0.10431187821995667,0.24467031076864731,-0.04471144235298914,-0.0008826484357189496,-0.0495138572036942,-0.03619209519810981,0.8170186878015259,-0.2535883509548784,0.15329674238205637
59.4916,84490.3806,-0.13025000588873287,0.1946378931231447,-0.005828998193708241,-0.03254897027817928,-0.012363479534419821,0.006088620264143186,0.38868500728662,-0.19977872795061916,0.18218934712263812
59.5118,84490.4006,-0.15450296829145665,0.1382705904791735,0.03568526820953906,-0.07703451232694764,0.03158381819379971,0.03866984754327576,0.5765728455981457,-0.6220323960396283,0.016056869864276357
59.5286,84490.4207,-0.17496252444921706,0.08518321194844738,0.06804184929770336,-0.08023426087259516,0.022548032063984716,0.05117312224476374,0.1765918677653496,-0.422037830944545,0.44222278978789836
59.5479,84490.4406,-0.18739943812158538,0.048555698033792095,0.08129375664854176,-0.05105068327581099,-0.028804418677953615,0.013736733510682109,-0.1559471139592985,-0.5927409790232169,0.5650163599353837
59.5713,84490.4606,-0.1891310351458499,0.0328385267865293,0.07138492115506527,0.0163102607872859,-0.042730402695981294,-0.04259903029933444,0.16385933142558753,-0.5641142491331849,0.26886716134439353
59.6121,84490.4807,-0.17885690989116065,0.0338666997393089,0.04227752209358836,0.0602862973412738,-0.003200698854263557,-0.07568226658583467,0.19754145190948424,-0.22230914070001184,0.13162728882661656
59.6171,84490.5006,-0.14953759578349618,0.0857907090254946,0.004405707768244258,0.019113107385501125,0.02043878399024292,-0.019719698920384006,0.3044408285066986,-0.5271375340135009,-0.207860816875253
59.6365,84490.5206,-0.11806740443025936,0.1495990308524771,-0.02990594694345624,-0.025998592033088012,0.03794641239555411,0.014692597184183115,0.5120184794925818,-0.3893025771523243,-0.12840615383864748
59.6515,84490.5407,-0.09887607960644416,0.20094120189637651,-0.05093706397122394,-0.054649804205104166,-0.00037324126958414067,0.07484940797114199,0.5387433236418839,-0.46550967548069694,0.16051989356720017
59.6718,84490.5616,-0.09998937555680766,0.2227754567324497,-0.05489274574923174,-0.027443314726408846,-0.05169080969206851,0.02822276321249272,0.7825226380512275,-0.7065894795976501,-0.012835734876307155
59.6935,84490.5816,-0.12065447558765167,0.2089402672280451,-0.044441872740909535,0.03237234365361555,-0.02776814065778977,-0.0708271051308856,1.108472430504303,-0.3711465631556727,-0.04172833961689151
59.7084,84490.6026,-0.1517996429946032,0.1810193453820762,-0.02687363553184044,0.006687702109357287,-0.0017611002165731206,-0.07885082223905214,0.6435689995029159,-0.5211741542981345,-0.4245553524296372
59.7295,84490.6226,-0.18562789455369477,0.1574017487048556,-0.01010558440453474,-0.054430433257603286,-0.0031502043974415334,0.022344322006314605,0.3558168160691245,-0.4303878161741954,-0.373993294133614
59.7514,84490.6426,-0.2128592929914998,0.1499107698204585,2.375708588256073e-05,-0.06224464730778862,0.008075285331182847,0.08603084600574822,0.02653355141008593,-0.15630688341446883,-0.034505188431746145
59.7721,84490.6627,-0.22802454701669456,0.1504019852974037,0.0015182700753052607,-0.034982890548335484,0.018353354828481952,0.026973158057462435,-0.7483314186390096,-0.05491689197187107,-0.4967868642811013
59.7896,84490.6826,-0.22855357690434858,0.15005914287187191,-0.0032447744994001416,0.007593353007203233,0.008372999526899462,-0.025902716334869118,0.045409434818039725,0.29258572132611776,-0.09229039791291628
59.8178,84490.7026,-0.21887196597078795,0.1402800306610839,-0.00850479937260384,0.029605478155173896,-0.014937607658235012,-0.0545027834524553,0.05651411262499491,0.21227009909555625,-0.02728203724660016
59.8318,84490.7227,-0.19421040667355838,0.1387446857736197,-0.00807177067088274,0.03521187082946953,-0.0411437198508909,-0.049506770549395875,-0.2924589647084006,-0.07373759309489955,0.06661892816030121
59.8506,84490.7426,-0.16707849802979596,0.138044476230619,0.0009983083448137607,-0.008464702999124558,-0.06026184161414974,0.01101360551388201,0.05370423776276601,-0.7040699366580904,0.39166073149187847
59.8715,84490.7626,-0.14027075175748044,0.1413971378810096,0.01666896564616326,-0.03657348743318622,-0.019063617490132127,0.05035931387790396,-0.4210440995757967,-1.1341418402756434,0.3844375803067295
59.8911,84490.7827,-0.12155826020270606,0.1416433690134492,0.033099828648895366,-0.07495727726126256,0.03919603674646112,0.05786296410073995,-0.3071874466439892,-1.0209580268275906,0.11718098645632449
59.9085,84490.8026,-0.12028367310245015,0.1356524849001365,0.04403267617989756,-0.03027558231030677,0.054615552474759466,0.00895621128464621,-0.2105788185873291,-1.1342747777009212,0.5144543016393609
59.9286,84490.8226,-0.13742349812528687,0.1267311761292508,0.04608069613830257,0.04356021853273702,0.010485323662461238,-0.044656424528570236,-0.12426093907122769,-1.0560798861340932,0.15329674238205326
59.9553,84490.8427,-0.16716503269761357,0.12014147031814659,0.039430456703627256,0.07225198915574373,-0.021796610801254966,-0.08436449431038034,0.04341348922221124,-0.5125582942179339,0.13162728882661484
59.9797,84490.8626,-0.19119908962429527,0.1339936539841075,0.02616027267084146,-1.4146055406524859e-05,-0.022446286455212038,-0.030532756244547803,-0.06674160444061032,-0.6525139817428394,0.2544208589740998
60.0001,84490.8826,-0.19928885804778196,0.1629948242946339,0.00805758172908366,-0.06338062332007632,0.021052707048979335,0.03742024238824548,0.10544831238821721,-0.024568243693933636,-0.10673670028320827
60.0127,84490.9027,-0.19408772154850046,0.1900350271422454,-0.01428030830565594,-0.043822226554118285,0.03693459368727704,0.049178328659132554,-0.27602486909965324,0.041566951016884346,0.09551153290088518
60.03,84490.9226,-0.17693549894777566,0.2114045417732483,-0.04004600213912274,0.0005694191309123319,-0.00280159079416028,-0.020464887350984926,-0.4301528317869254,-0.24868220250103582,-0.4028858988741981
60.0526,84490.9426,-0.15691620199113115,0.2209248488138048,-0.06645950956992924,0.046085991665617144,-0.02924775437550451,-0.08796523517617572,-0.4881180086209202,-0.18069215197703742,-0.6412498879840207
60.0736,84490.9626,-0.13284863263679236,0.2324147241035482,-0.08872843782874704,0.04794942027575124,-0.11660444826411427,-0.10319404559152551,-0.49426135568911195,-0.4875083385289841,-0.41010905005934584
60.0897,84490.9826,-0.10279563804394685,0.2522595479518928,-0.10157647591346634,0.016881729873722665,-0.06715796529210608,-0.026635866180161446,-0.2003658251871296,-0.2714784901009784,-0.19341451450496241
60.1118,84491.0026,-0.07761235401031207,0.2726601611387409,-0.10167199677407604,-0.05445269266834252,0.004191869719912533,0.0691864574419874,-0.1868193595809658,-0.01820605170273989,0.2833134637146829
60.1313,84491.0226,-0.06599311932669168,0.275720808873276,-0.08839503390105984,-0.08280002317341026,0.013688249864217603,0.04741226819436431,-0.08036582518712845,0.14852150989902022,0.30498291727012344
60.1489,84491.0426,-0.07732387220940028,0.2523874302577476,-0.06413004198305554,-0.032420215955768716,-0.031247409340822832,-0.02008807963082647,-0.17616052397738505,0.37303428098195,0.2110819518632246
60.1731,84491.0626,-0.11135821568722197,0.208016450394556,-0.03314503929968624,0.0015171375513539462,-0.00848522462857217,-0.02876549192124871,-0.22383495227082323,0.24951268906579244,0.23275140541866257
60.1979,84491.0826,-0.15936052068129836,0.1589758405339275,-0.0001655183788126409,-0.039742682483222144,-0.018778133190121858,-0.012439966384287552,0.22670808385799443,0.03507182160041372,-0.16452190976437622
60.2371,84491.1027,-0.2056788038677403,0.1293195201809344,0.030589266915940962,-0.08580762019205349,-0.03964815098759862,0.031095169667119164,0.5152741965581895,0.05548150368607365,0.08828838171573804
60.2674,84491.1226,-0.23747435883642148,0.1136471807323412,0.05582898156355587,-0.09681396269606042,-0.025590624557882347,0.0294747760845847,0.43265787631107305,-0.049485261957607184,-0.19341451450496142
60.2719,84491.1426,-0.2587953187765544,0.1013584144082037,0.07214827311893947,-0.060090369552307635,0.053279777401045426,0.038887745937361,0.5514758599816463,-0.3234332572920587,-0.16452190976437744
60.2764,84491.1627,-0.255096689970516,0.11931612545881451,0.07726188059558237,-0.0230538061831963,0.03815218786701362,-0.013180339380765032,0.042153717752432915,-0.15219835951227992,0.18941249830778537
60.2935,84491.1826,-0.2239966512550325,0.1672352195653225,0.06986312799587686,-0.019766547858037407,-0.010698457368746068,-0.025602955560685557,-0.2406371349425973,-0.44854383017084637,0.03772632341971637
60.3106,84491.2026,-0.17636359020255038,0.2422827377949186,0.04857194065603747,0.0007015078739279946,-0.0120893304350219,-0.013918304660180791,-0.34338911006744605,-0.6420432658494583,0.36999127793644
60.33,84491.2227,-0.12286798974251727,0.3326059725881086,0.012469420649015562,-0.039644405452590965,-0.02665049805601648,0.02402972394951537,-0.1275944112771892,-0.4465560369323897,0.4638922433433376
60.3479,84491.2425,-0.07350862344364527,0.4163176795541267,-0.03730955674126144,-0.07454095620800237,-0.04600719784018465,-0.010823184377345668,0.4314758599816461,-0.7434332572920586,0.8322729537857926
60.3719,84491.2626,-0.03547435821227736,0.47656991614485766,-0.09545468934020804,-0.10016435545164991,-0.0431376551991425,0.0202098808311039,0.3237625541180308,-0.549800884188168,1.3667861414866087
60.3882,84491.2826,-0.022076863938459854,0.49130108283354623,-0.15043857894604054,-0.1222870973669664,0.0513202710623765,0.13279713835397697,0.6670381265866132,-1.042165333464906,1.1428684547470778
60.408,84491.3026,-0.033419585802386256,0.4727213083653392,-0.18773569999225775,-0.15672533936780825,0.1001669116340456,0.19339817293882236,0.22922762679755515,-0.6856480478108897,0.7167025348234548
60.4306,84491.3226,-0.07364686205482075,0.4334610952783286,-0.19316505894962244,-0.23752525528547705,0.16365831618195095,0.4248977607056948,-0.09139274785373196,-0.8254707979105186,0.21108195186322296
60.4521,84491.3436,-0.13986236284935966,0.3569832619972379,-0.15816154784168804,-0.24145372186374356,0.0668707352043128,0.6561060147080997,0.4841116190138507,-1.007043474158402,-0.38843959650390675
60.4731,84491.3646,-0.21460961956684438,0.2397896161932328,-0.08718281615389484,-0.18522289617095647,0.06668764214923077,0.6806731557473126,0.3307198304526255,-0.1317886774266223,-0.5545720737622669
60.5068,84491.3846,-0.26370927235805786,0.1561830778300402,0.0026841048123991615,-0.35319895702424225,0.20753080239302676,0.42724769255792894,0.3886850072866194,-0.19977872795062102,-0.8146055164275314
60.5164,84491.4046,-0.3342140263810261,-0.0333614565089813,0.09088145822808447,-0.2899720869057631,0.02444455378774698,0.18574644811669086,0.08775444530968832,0.22048714689993223,-0.5762415273177067
60.539,84491.4246,-0.3680995412579309,-0.1431652332922055,0.16041701712216044,-0.20062092329854322,0.04456136418568417,0.12823812609761887,-0.5872461796171394,0.6533444683075973,-0.42455535242964004
60.5543,84491.4446,-0.38457035921503846,-0.19742139721470608,0.20500400340675115,-0.07924501292223649,0.0380682469353108,0.17391011104129803,-0.5083314186390078,0.7850831080281293,0.0016105674939841399
60.5719,84491.4646,-0.3707592851760166,-0.1745767837736655,0.22749075904127036,0.010251271949600604,-0.03584783445664264,0.12875217369029515,-0.3817422293674379,1.0403433396648256,-0.0922903979129151
60.593,84491.4846,-0.3315059985102991,-0.09340925176262971,0.23254481928284326,0.029783778143824352,-0.06743140765499228,0.061023092744241406,-0.502188071570816,1.091899294580076,-0.2295302704306908
60.6131,84491.5046,-0.27244343069765087,0.017675911499528497,0.22402294456025024,0.05663290569496807,-0.10189972981246191,-0.06281783432508936,-0.31023058692727984,1.2256257275390636,-0.37399329413361676
60.6376,84491.5246,-0.21479432942679355,0.12901386126001452,0.20345648833961155,0.06485193887029166,-0.06838088214826865,-0.08708521459011873,-0.7858706086725971,1.7386657337520137,-1.1540936221294005
60.655,84491.5446,-0.16853161888509877,0.2262590613893014,0.17175752956373994,0.03748359493352863,-0.044499926737764935,-0.09069197474856838,-0.9905606296558991,1.4628628826043852,-0.6845887950948994
60.6735,84491.5646,-0.1536335700386215,0.28349181433343723,0.13054663070974654,-0.02405694394656995,-0.016626915629165337,-0.17709892080087924,-0.8454636440393963,1.584263743856813,-0.5040100154662452
60.6917,84491.5846,-0.17601430044387217,0.301279125395291,0.08278324497848297,-0.05678472661423708,0.04962673656159669,-0.19960625989379463,-0.993448259658481,1.6008307768908352,-0.7351508533909245
60.7113,84491.6046,-0.2297147453374529,0.2918166427142148,0.031910729562103154,-0.02134797457476189,0.0662862359788895,-0.21269220212421777,-0.6686804835348283,1.242325697998363,-0.23675342161583854
60.7365,84491.6246,-0.2938617382934688,0.2724885230342095,-0.01904122873698624,-0.061462123768017844,0.18003027860553406,0.04124249322371864,-0.6773433735425795,1.6562293808577235,-0.38843959650390664
60.7517,84491.6446,-0.37410929546332417,0.2436274618286437,-0.06877799792236934,-0.1043267718629989,0.18965732091838577,0.14897940472576607,-0.8997272616044069,1.6254819203039568,-0.8868370282789935
60.7738,84491.6646,-0.4249362439594541,0.2086931476811066,-0.11358875258660804,-0.04777662798077816,0.07628727980917986,-0.16650857730492413,-1.1340297567395943,1.5638540617711538,-0.7568203069463612
60.793,84491.6846,-0.4446152588791254,0.185802217211851,-0.14931309155212336,0.020573800976531706,0.10160858582137705,-0.26586061413954776,-0.8010449328115653,1.263001254934576,-0.7423740045760678
60.8175,84491.7046,-0.4185197551954715,0.1865382169946232,-0.16815858253166016,0.08518426800526806,0.015782738098880943,-0.14782710062307444,-0.5235834979183308,1.3637265592507946,-0.5545720737622692
60.8343,84491.7246,-0.3421715218783268,0.2442468645420518,-0.16435381990691045,0.10177047654796093,-0.08747475005617415,-0.04708581104384104,-0.13470719789248994,1.2440476163862662,-0.547348922577122
60.8559,84491.7446,-0.2332177772316636,0.32975330910777273,-0.13757588783556665,0.08297258754786697,-0.03140678177043304,0.011310958571003874,0.5316305370265828,1.2250939778379606,-0.35232384057817695
60.8735,84491.7646,-0.10642923323604626,0.4178265286101665,-0.09418480717624954,0.09675085021025545,-0.05716057110254403,-0.010456007525434057,0.20975039090551653,1.4456311624439788,-0.80015921405724
60.892,84491.7846,0.0026770161746759308,0.4790152633803202,-0.044796976312529144,0.09770718528626822,-0.11651095255283339,-0.10142557740969553,0.10248292724527941,1.1677075806326191,-0.6268035856137293
60.9118,84491.8046,0.06889740368363723,0.5004792285569405,0.00015712678664496146,0.06224665261140228,-0.08290651464572883,-0.14687605238369686,0.1493434262723137,1.180033152339179,-0.45344795717022224
60.9383,84491.8256,0.07943630035649184,0.48137976439953367,0.032931034794495856,0.02794264687360053,0.0018503441365002357,-0.10281964558842878,-0.16757538910998518,1.013438528162695,-0.6051341320582908
60.9524,84491.8456,0.03964676147342694,0.4490735233897683,0.04797599789936416,-0.017619833127880718,0.02743819556549488,-0.03693487591164902,-0.3245909817998467,0.861157268931228,-0.15729875857922992
60.9773,84491.8656,-0.030359467560088962,0.4050999366664248,0.04379394920909627,-0.08311609559042325,-0.030468586588064395,-0.002002512921751368,-0.43556000472906753,0.6100055611967196,-0.3378775382078846
60.9935,84491.8866,-0.12222238894086566,0.3484409906351465,0.020294735494919957,-0.1177065761541666,0.09093869357300512,0.03550369960712001,-0.5798430610791685,0.5998007201538903,-0.21508396806039837
61.0142,84491.9066,-0.2061428225459559,0.2958618922564871,-0.020787918656583842,-0.06481663168630354,0.09101442372504426,0.025427403703841146,0.03593261554388723,0.5952933839758764,-0.048951490802038596
61.0374,84491.9266,-0.2676224257517111,0.2604515389588737,-0.07331141108819124,0.0018774918459911452,-0.0027396115698970825,-0.08487733804452574,0.44783220045004213,0.4261792168598306,-0.10673670028320693
61.0598,84491.9466,-0.2917918830561221,0.2610448795969053,-0.12626742661164045,0.023983456291197944,-0.035061315697099034,-0.08516987566752415,0.6204679594822476,0.5825689999934874,-0.330654387022738
61.073,84491.9666,-0.27116189859788326,0.2995938499340423,-0.16631590446319666,0.0013301927464637626,0.03581675960139646,0.045732885543817846,0.24639789653235214,0.5951604465505979,-0.41733220124449133
61.0938,84491.9866,-0.21372409760964767,0.3621011375086321,-0.18362170786858364,-0.01265044489581195,0.09400265607061808,0.1538249353124683,-0.5716260132747927,0.6574529922097812,-0.6990350974651918
61.1133,84492.0066,-0.14156801547821457,0.4269547411557794,-0.17655642858399634,0.027480817128094907,0.036198009778073276,0.003960198381586793,-0.6238159301036221,0.44950725416087656,-0.8362749699829684
61.1367,84492.0266,-0.07771714499808687,0.4901126768989602,-0.15417604838080995,-0.00155100625297907,-0.043470040684477025,0.04410888038569083,-0.644765514247756,0.2497785639163452,-1.024076900796768
61.1538,84492.0466,-0.031721571341770075,0.5544843050336643,-0.13400236586073774,-0.03112545371084097,-0.017917341410802198,0.08073025689438182,-0.0022649934754008475,0.16906412940995783,-1.0674158079076448
61.1728,84492.0666,-0.009382043135166468,0.6286776041626455,-0.13650365622360444,-0.049342134173316336,0.008930281578476484,0.10065652329713833,0.6508943629005361,0.4795900275882591,-0.6845887950949013
61.1932,84492.0866,-0.009644800629240363,0.6972360485475523,-0.17437184913618234,-0.04696082744933757,0.0524927653716254,0.1309588463773573,0.44738635824666384,0.8977351717750828,-0.7423740045760703
61.2134,84492.1066,-0.034133567060128864,0.7341686014954347,-0.24510520898377294,-0.09275689351206753,0.0952444985324054,0.14368001947293052,0.5969988323985526,1.1035601791602545,-0.402885898874201
61.2442,84492.1276,-0.07636497615823516,0.7186208253973413,-0.32933831046470796,0.008369610788729203,0.005178354446463478,-0.4347824316139065,0.4654483123882145,1.235431756306067,-0.6051341320582916
61.2699,84492.1476,-0.12173700491279986,0.7017451204185783,-0.40087527251377597,-0.016834278695739162,-0.23929910570083127,-0.29218659249234374,0.4206615140973621,0.9739422701034521,-0.5329026202068315
61.2738,84492.1676,-0.1267324654366463,0.6983319810868878,-0.4271791119809619,-0.06871322563451435,-0.13231654943260981,0.05124414989808435,0.5887817845941767,1.0459079071043638,0.08106523053059246
61.3081,84492.1886,-0.09429855094737856,0.7316973111021792,-0.38708862354874174,-0.10246622490796152,-0.010975692497339182,0.24582500809914398,0.870758708022803,1.2310573575533277,-0.07062094435747694
61.3198,84492.2086,-0.02474017275507885,0.6922052119675642,-0.268191149501172,-0.11050148284698337,0.08888009548523847,0.3897450916046502,0.8818633858297581,1.1507417353227662,-0.005612583691160786
61.3349,84492.2286,0.05163730438075023,0.6366578071973996,-0.09490908250655204,-0.046118329428272556,0.06429348022274968,0.29142476153097163,0.4288785619017336,1.0315945421593453,-0.020058886061454114
61.3584,84492.2486,0.09713358266898084,0.5955953829200283,0.09229974187103286,-0.1461209152913784,-0.36397720953064866,0.10132105320617175,0.24965361359795898,1.0399445273889956,-0.6990350974651929
61.3737,84492.2685,0.12185571719120523,0.5314584919973961,0.24983676700178142,-0.19272495301053744,-0.3236946273251747,0.2588399226762465,-0.47420345595173297,0.6553322615460518,-0.49678686428109825
61.3951,84492.2886,0.10653097979433043,0.48358057683840516,0.33795754465377936,-0.11191309330578485,0.15037198418775316,0.3176748967963236,-0.9559868247652441,0.8615560812070561,-0.5473489225771216
61.414,84492.3086,0.04191821720182433,0.4359631711907506,0.34432475159945325,0.0296255957972627,0.21020378730116818,-0.10054074138951516,-1.259359174541382,0.9482338954288098,-0.720704551020629
61.434,84492.3286,-0.07610718589433026,0.408119604744413,0.28167794047120875,0.0984778218548328,0.015038865570433881,-0.23615058945651074,-1.2704638523483398,1.028549517659369,-0.2873154799118606
61.456,84492.3486,-0.22492423339582795,0.4221309068173383,0.17826953821188246,-0.00048398797429077145,-0.08104347447838797,0.0589656985150056,-0.8495332903714076,1.028283642808816,-1.0240769007967683
61.4748,84492.3686,-0.3610261839029289,0.46556097094627935,0.06269309755621326,-0.10631546265625634,0.04789123257360219,0.34796999672535744,-0.7241261174292655,0.5895958791110605,-0.5906878296880006
61.4949,84492.3886,-0.45069726977607744,0.5111178178924978,-0.04819260029928414,-0.05878335012198562,0.15587491470666767,0.28833686439932166,-0.753738591581151,0.8037708717258861,-0.9301759353898694
61.516,84492.4086,-0.48686202751222213,0.5363370169306719,-0.15149794644598724,0.12794941766088055,0.16064412391156307,0.12757961548123978,-0.8363549118282674,0.6988041060822053,-1.2118788316105689
61.5387,84492.4286,-0.48065163866333044,0.5540527016000952,-0.25342952852901124,0.2825406128700805,0.05102235385179168,0.11175971052723885,-1.2231575111179251,0.5693191344506775,-0.9735148425007445
61.5552,84492.4484,-0.4349321754365589,0.5968239156316788,-0.36030514351013726,0.30119515518135953,0.06864105604856909,0.236342214451578,-1.0793202969712063,1.0510799304087595,-1.2335482851660056
61.5771,84492.4684,-0.3796902698405544,0.6827431718455599,-0.47603025587037695,0.21476026073645532,0.17528816874711314,0.4510816837518497,-0.8972077186648463,0.9047620508926549,-1.0024074472413311
61.5969,84492.4886,-0.3337703510518722,0.7942556735891352,-0.5972662397502616,0.17627973423972987,0.21403117631760613,0.38430846647929684,-0.9514713362298555,0.9459802273398025,-0.8868370282789912
61.6176,84492.5086,-0.3313803693965879,0.9153925462490752,-0.7152418679566351,0.19314256075221542,0.30067179731403876,0.3486321189173292,-0.5609671776712125,1.0486933248944759,-0.7712666093166539
61.6391,84492.5296,-0.390932936203392,1.032095620170811,-0.8131361754855905,0.28353452949569047,0.3060798062444745,0.40754413998338124,-0.895579860132043,1.1271540913118554,-0.8940601794641364
61.6578,84492.5496,-0.5000583048783581,1.1360852924021014,-0.867702283845908,0.31153025494104575,0.1787067418315159,0.29613184838662526,-0.8844751823250835,1.0468384690812966,-1.3274492505729079
61.677,84492.5696,-0.6241494813623912,1.2223117212841677,-0.8537493122637797,0.197874235315987,0.1663241760101041,0.2072232843071921,-1.083835785506593,0.966655784276012,-1.3924576112392215
61.7143,84492.5896,-0.729897971462242,1.273968690758988,-0.749936988808244,0.18452698305380524,0.1817405337992989,0.19133596327546315,-1.3814328752775633,0.7773978099248599,-0.9662916913155994
61.7161,84492.6096,-0.770071565541378,1.2678638011066248,-0.5456427034225281,0.24395180984741305,0.21092915471541093,0.2110443312841344,-1.1845140598952628,0.5239924341013461,-0.8146055164275325
61.7354,84492.6296,-0.7566358846657157,1.1995547815816296,-0.25870505909218605,0.2091531373481018,0.23369734685807128,0.28965990492473426,-1.2293008581861191,0.2625029478987318,-0.24397657280098414
61.7548,84492.6496,-0.708833398104243,1.0717739535845592,0.06837322531315956,0.08940946409855174,0.2081298249293713,0.32532060232580085,-1.158157302808984,-0.13496663935187728,-0.19341451450496214
61.7787,84492.6696,-0.6633138622639557,0.9196824617120312,0.36977606370094135,-0.12827660654018014,0.0887272736832947,0.3903313707091779,-1.2942233113547057,-0.08751920833881305,-0.5545720737622668
61.81,84492.6906,-0.644884763108464,0.7907953761496429,0.5754897911510569,-0.30697200010019265,-0.09104118529955885,0.2782617723545736,-1.4795916067266743,-0.38598540966110845,-0.5040100154662452
61.8207,84492.7106,-0.6992872416401786,0.6089385569649909,0.6390019799001171,-0.3139170441245072,0.12492025585024531,0.186556644907958,-1.7398050167447603,-0.2602101496559395,-0.35954699176332316
61.8391,84492.7306,-0.7905936075163312,0.524971993063684,0.5418421967849271,-0.31203018293449997,0.2149697240816718,0.1052167394120272,-1.6744367213727955,-0.38174394833364517,-0.410109050059346
61.8579,84492.7506,-0.9124893291241643,0.5397497515423089,0.32573768646110157,-0.19628533801293982,0.23015833981836892,-0.02376707130112759,-1.5277118772234903,-0.03795104666201707,-0.6195804344285842
61.8769,84492.7706,-1.0275934479560234,0.65035107050287,0.07363450310428386,-0.09219845694723232,0.1555620880853096,0.047265397453599665,-1.1787387998900944,0.24805664552844212,-0.7134813998354848
61.9042,84492.7906,-1.0873720219203744,0.8179079428263674,-0.11630677169525844,0.0698513016005982,-0.0032235572140705293,0.02807589247172809,-0.719610628893877,0.6740200252438068,-0.9301759353898702
61.9204,84492.8106,-1.0460713057661675,0.991828746913523,-0.16369583991484926,0.18280082502009637,-0.03340342104821286,0.03351853688973574,-0.6768975313392022,1.1846734259424727,-1.2479945875362992
61.9466,84492.8316,-0.9288042632217481,1.105353481390816,-0.03624925496390384,0.23495342270090713,-0.17222130609987307,0.08594898362564996,-0.3989902542425872,0.813842775343438,-0.9229527842047229
61.9579,84492.8516,-0.7030953255031122,1.1441345258374211,0.24778374248646895,0.2812641344910177,-0.18885865232561896,0.10316054904132238,-0.5634089654704185,0.7151052642656766,-0.6845887950948989
61.9795,84492.8716,-0.5089305206087863,1.087121577470476,0.6111718844484512,0.23520251171997078,-0.25746390296246274,0.1266225479492079,-0.9407347454859237,0.28291262998439015,-0.4895637130959523
61.9982,84492.8916,-0.3517415888759094,0.9630623118608655,0.9622145751341746,0.1380043920422344,-0.36862444019739515,0.04705472221069963,-1.2079054318386024,-0.009324316771986115,0.08106523053059139
62.0201,84492.9116,-0.2793257932706116,0.811547431516801,1.2105240468891092,0.04547355658094484,-0.42289991577988384,-0.11245773698647546,-1.7188554326006265,-0.06048145941140819,-0.1717450609495234
62.0388,84492.9316,-0.2614674068910633,0.6971042337431117,1.299929570869484,-0.0296046588105366,-0.4330475685251749,-0.2728478090526458,-2.2141852670202984,-0.10753007814864327,-0.6990350974651903
62.0619,84492.9516,-0.2977807157627374,0.6482039378099665,1.2247544644252744,0.050249436222394264,-0.16543730996315514,-0.34094165913354935,-2.2729643731206974,-0.15073604783424582,-0.7423740045760688
62.0815,84492.9726,-0.3623552695175542,0.6951739062804878,1.0262747134197456,0.09211105399402661,-0.0891692007550501,-0.2961557140685816,-2.1644371379906784,-0.2331724007285339,-0.9735148425007468
62.1022,84492.9926,-0.4449149959939534,0.7809360351112632,0.7769346630510762,0.06582054417216521,-0.3424133408059468,-0.3970583206909499,-2.3383326684926624,-0.02920224915654017,-0.691811946280046
62.1193,84493.0126,-0.5090304272808995,0.8524040422522131,0.5507058119710974,-0.002896957949025231,-0.4867483401998924,-0.4745663444831606,-2.5430226894759596,-0.3050051003041691,-0.22230711924554633
62.1521,84493.0326,-0.5748737590756321,0.7720546898412506,0.4055265242057918,-0.07704205596431728,-0.4523040264812375,-0.49883131703112826,-2.63222819899465,-0.24523209758454395,-0.4101090500593458
62.1597,84493.0536,-0.5580558592640482,0.6557313132716037,0.35585387564940885,-0.1474390406053254,-0.4033063165838066,-0.47420037148977995,-2.9014725860835107,-0.2883051298448705,-0.5834646785028523
62.1803,84493.0736,-0.5416593471113889,0.409084009095239,0.39423049597112236,-0.27951961640521683,-0.38493758064098055,-0.3099844370125439,-2.85705387485568,-0.6095676187671074,-0.8218286676126749
62.2008,84493.0946,-0.5276555088372015,0.1086200203405571,0.48199268462594713,-0.4096004486317832,-0.4406273428619615,-0.08987816638170862,-2.8315888021761575,-0.3254147823898282,-0.4751174107256623
62.2208,84493.1146,-0.5197096635312467,-0.1965187970966669,0.5653303199831542,-0.4246708826223946,-0.5748100760075011,-0.055753592466016445,-3.1365890104851,-0.46112900858727185,-0.7568203069463606
62.258,84493.1346,-0.5488427522249378,-0.4487084279059271,0.5840154389910898,-0.31608676117318935,-0.5126312535644169,-0.2540182577715006,-3.134515309748917,-0.7102929230833249,-1.0096305984264753
62.2698,84493.1546,-0.47624530641361434,-0.5904451930954423,0.5053637478130854,-0.1914962225674531,-0.4052899788803415,-0.41838106298950134,-3.801666973934394,-0.8025353047446169,-1.0096305984264755
62.2871,84493.1746,-0.36786282319094926,-0.6022312830998301,0.31700046255128994,-0.1270085478817408,-0.25301788593340224,-0.372634438816909,-4.200388180297411,-0.9629006743551827,-1.6380447515341918
62.3002,84493.1946,-0.2216210901538816,-0.4730150173768807,0.04723262415243576,0.004226882259369283,-0.099582294545148,-0.32896085903445366,-4.546919469831601,-0.9153203059168425,-1.6308216003490463
62.3199,84493.2146,-0.07173667139103017,-0.2899950576629202,-0.2576596943609759,0.02176575009493054,-0.1751905424981655,-0.3644807049874098,-4.592152110325833,-0.705253837204204,-1.1974325292402768
62.34,84493.2346,0.06333111073981443,-0.1042772288100016,-0.5418532000536799,0.007395685227852518,-0.18094480967900037,-0.42720775373774983,-4.535446704961617,-0.41288395302255176,-0.9012833306492846
62.3622,84493.2546,0.16932837327411954,0.0265616075654461,-0.7596983055106569,-0.0722776524206809,-0.18043528463656225,-0.4118332764401663,-4.058178824683495,-0.7035319188163025,-0.5112331666513916
62.3844,84493.2746,0.24286404087589575,0.09341107082582151,-0.8849587842596253,-0.13800954136996185,-0.16750045922248197,-0.39815503581256123,-3.246298261944542,-1.0726406510274324,0.0016105674939838118
62.4038,84493.2946,0.2816438816585831,0.11244303432918559,-0.9141779015180321,-0.1929470853832676,-0.10511401807582318,-0.2682875929377569,-2.943739841434808,-1.2705144854587853,-0.12840615383864623
62.4247,84493.3146,0.29026840007385735,0.1015054905220715,-0.8641912874565881,-0.2223553165080088,-0.029520237754468524,-0.0712063205681058,-2.6991465977590634,-1.40039826936614,-0.4967868642811003
62.4435,84493.3356,0.27159523920062123,0.0867995766838042,-0.7671050247784325,-0.22167922481140973,-0.055894835382068256,-0.052599483115169335,-3.238449301203194,-1.597740354096387,-1.1468704709442534
62.4637,84493.3556,0.23420392465820533,0.0923997679806079,-0.6615695925049997,-0.22499407550128733,-0.1141120208992461,-0.14819548133351693,-3.9269963917361825,-1.418155471086961,-1.4719122742758304
62.4835,84493.3756,0.18226904673706346,0.1389203191786481,-0.5817616452840858,-0.17818952300488794,-0.07242332161250309,-0.1559928730378822,-4.657074563494423,-1.0552759934417513,-1.5080280302015623
62.5043,84493.3956,0.12101560620956603,0.2387554056771592,-0.5491836530565609,-0.2011912471800748,-0.09795997184816395,-0.11708657303762332,-4.47866354445705,-1.1748219988810018,-1.6308216003490463
62.5254,84493.4166,0.053733291021054536,0.3912110643594585,-0.5696796360420552,-0.20097002272290537,-0.08406603597878383,-0.09657161981327739,-4.193798991025843,-1.12764044271849,-1.2335482851660091
62.5481,84493.4376,-0.01764812039989476,0.5823839679264564,-0.6348346289080665,-0.16119179560514402,-0.03320124372671562,-0.05068655190963645,-3.924554603936979,-1.0845674104581657,-1.5585900884975832
62.5668,84493.4576,-0.09911247409550726,0.7895514992881639,-0.7254443529842883,-0.1410644948391451,-0.010681901088429589,-0.0505396811688718,-3.8242444166113336,-1.2246560354083493,-1.804177228792554
62.5954,84493.4786,-0.18441874800255448,0.9936414567136924,-0.8159606788026251,-0.10359122761597771,-0.0027999774379059805,-0.024645888028653702,-4.060620612482704,-1.0371199794450994,-1.421350215979807
62.612,84493.4986,-0.2724606002329469,1.1706557233921873,-0.8779608539979334,-0.052421662155313936,-0.07606413899809562,-0.07598202736001826,-3.985407410773558,-0.8786094656477131,-1.8475161359034316
62.6383,84493.5196,-0.35047530495727836,1.296288776827837,-0.8836682219327708,-0.012215230088610361,-0.12848026244572522,-0.09517514391748243,-4.202461881033592,-0.7137367598591308,-1.8836318918291626
62.647,84493.5396,-0.3958712284234999,1.3783181830469895,-0.8149056378529805,0.023307962383813118,-0.024224031723560503,-0.0925242474325338,-3.9956981593141117,-0.6870978232075529,-1.6091521467936074
62.669,84493.5596,-0.4095272913086266,1.3894010310635143,-0.659425768602551,0.056155155425276077,0.07678962740745007,-0.06016814169867161,-4.116957930783892,-0.7467378885019044,-2.0497643690875242
62.6849,84493.5796,-0.39138327366484676,1.3410173020187193,-0.42530597898644895,-0.022961782466457702,0.0017373239479454418,0.09911438051910963,-4.020349302727234,-0.8600546393752357,-1.652491053904485
62.7051,84493.5996,-0.3514753067507487,1.247171861482245,-0.13897241566957586,-0.06143625808498816,-0.06571854016104586,0.2253148703089215,-3.951279448086283,-1.0083603121297922,-1.3491187041283454
62.7255,84493.6196,-0.2965395905673209,1.1174041197239448,0.15711446566552575,-0.027503247661078034,-0.0918265431393059,0.1833218770355435,-3.9549810073552663,-0.9815884380529406,-1.2046556804254238
62.749,84493.6396,-0.23283358775531637,0.9817199333856439,0.40869371119335096,-0.008614091143122112,0.005233697855563846,0.12015301220437866,-3.8637017971004,-1.290525355268614,-1.2696640410917386
62.7679,84493.6596,-0.17049880600782596,0.8711047098236816,0.5676625043425646,-0.0019674598855927805,0.10019751749626975,0.04182877232824634,-4.391085893471168,-1.4569870420198237,-1.5513669373124392
62.7913,84493.6796,-0.12270835203652976,0.8273538165232218,0.608137556851812,-0.002884346861873322,0.1866794852037785,0.04227540384319455,-4.473702213718284,-1.5619538076635042,-1.8330698335331388
62.812,84493.7016,-0.11400670968610956,0.8608675518071447,0.5398038528868395,0.014060858911841643,0.23576514069700277,0.05491952999279289,-4.705117078850888,-1.7615495604827618,-2.150888485679568
62.8299,84493.7216,-0.14562996799943867,0.9595399642719384,0.40630480775833006,0.05337068674699417,0.18989233274410205,-0.02538746488366203,-4.708004708853469,-1.6235816661963085,-2.201450543975592
62.848,84493.7416,-0.19693821164742709,1.0914244872321393,0.27406758884945337,0.07472446840191183,0.1808269665569827,-0.10282084944695961,-4.530853461285877,-1.3827677369299074,-1.7680614728668211
62.8697,84493.7616,-0.24224806893140816,1.2126309151974817,0.21385205233615606,0.0863235650522043,0.2745500817997563,-0.0623025828738823,-4.468372795916493,-1.3663336413211595,-1.869185589458868
62.8941,84493.7826,-0.2683802630106581,1.2794511951148475,0.27905950581079797,0.12202123636093787,0.2833707471401181,0.0699208111458106,-4.200756267360438,-1.545652649480034,-1.804177228792553
62.9254,84493.8036,-0.2719171093690291,1.2443496277808908,0.4906688029427412,0.09366766196498993,0.1499346255389604,0.18221793876274697,-3.8184691566061657,-1.5005918239812535,-1.7030531122005061
62.9334,84493.8246,-0.25963209474438637,1.0528966399295407,0.829807484036282,0.08966720770235762,0.058487612471141065,0.1409617069102539,-3.690620195864818,-1.6056915270502115,-2.353136718863663
62.9548,84493.8456,-0.24865035624584175,0.7297455913170775,1.2285563691525319,0.12178043532988243,0.06579669029184827,0.06050784129303432,-3.7650194683075604,-1.6530060206379968,-2.6203933127140697
62.9745,84493.8656,-0.2425221597775939,0.3239726667638343,1.5906354133418539,0.07481271558845941,-0.040336818353459446,0.12514541353184555,-3.889166869779923,-1.5746781916458947,-2.6131701615289207
62.993,84493.8856,-0.24459018501297497,-0.0760682674898377,1.8109533928117387,0.005342243587400513,-0.05041525492458548,0.1922135761444584,-4.1912794480862825,-1.8483603121297918,-2.8443109994535978
63.0131,84493.9056,-0.25320663649132397,-0.3820587207867995,1.8037673478710357,-0.04859229558737521,0.08341604198249329,0.21398415381648886,-4.169884021738769,-2.120187576800509,-2.519269196122024
63.0336,84493.9256,-0.2715066013367767,-0.5479353685791963,1.5256431337138177,0.00534728520687393,0.25466616175556495,0.1417731075600519,-4.186318117347516,-2.235492120912296,-2.0497643690875216
63.0527,84493.9456,-0.314553406768888,-0.5608549425972996,0.992775755175476,0.16360070994548884,0.2985523261159607,0.04661290612987483,-4.533663336148107,-2.299107772683558,-1.8475161359034304
63.0786,84493.9656,-0.3763020794212173,-0.45280852883035777,0.2861820387026289,0.33344808802627185,0.2680873609500227,-0.12885549403528807,-4.388566350531607,-2.177706911431126,-1.666937356274777
63.0967,84493.9866,-0.4533733786433642,-0.20808149393990719,-0.46257480821802577,0.4550353223230541,0.23508815115094203,-0.27946903097236303,-4.54846957322405,-2.192020276376144,-1.7680614728668236
63.1165,84494.0066,-0.5173702303893557,0.07181691668849549,-1.113489971314342,0.4326161855622813,0.2684650473683058,-0.2197468131150438,-4.307577888817298,-2.2951321862066467,-1.9919791596063534
63.1394,84494.0276,-0.5564122238154056,0.29759020851897533,-1.5524015692757636,0.3225976246149896,0.3525160647818177,-0.03847581483114683,-3.507615933151704,-2.6951213163968157,-2.345913567678514
63.1603,84494.0476,-0.5789197612292767,0.3962604300961561,-1.720339789987623,0.24310859355664238,0.37793864508420255,0.09558587116516576,-3.4730421282610515,-3.296428117794144,-2.208673695160738
63.1827,84494.0686,-0.5947967300489634,0.3164598328415014,-1.6207154781314423,0.20429497646243555,0.26885396425397595,0.13434409656612917,-3.050037865547936,-3.545857907140748,-2.2014505439755907
63.2037,84494.0886,-0.6180604356505573,0.07524749389493271,-1.3163336640493044,0.1133378334930414,0.11612600510237424,0.10551409246914913,-2.6784095903972465,-3.8920374143266576,-2.028094915532082
63.2149,84494.1086,-0.6473476625255683,-0.258415565788468,-0.9094038179187399,0.013080347752055325,-0.038493284685915424,0.059036726168326205,-3.027382667730641,-4.178045106517117,-1.9341939501251846
63.2356,84494.1286,-0.6806067179372028,-0.5658525822547985,-0.5131704678487965,-0.11043763049233724,-0.06533100518751755,0.10448840500085835,-2.830463852348339,-4.431450482340631,-1.782507775237113
63.2636,84494.1486,-0.6871806010633037,-0.7458198951089637,-0.21972695650398835,-0.14942376547316072,0.07836503337843202,0.1747865200517624,-2.8789522099081815,-4.66616809446639,-1.5658132396827311
63.2786,84494.1696,-0.6821289183457441,-0.7795131875904759,-0.08876035057307853,-0.0564601197474832,0.23445542031395275,0.16625477464357397,-2.9155219603946616,-4.870005308613111,-1.4791354254609752
63.2946,84494.1896,-0.6557966741933569,-0.6325115591697467,-0.12129312645231834,0.036506487109087174,0.29279924692636117,0.09617696570381686,-2.4781573028089845,-4.754966639351877,-1.1902093780551308
63.3147,84494.2096,-0.6143063257207196,-0.336261281663391,-0.27373385838600034,0.0905537909167233,0.17481716012417944,-0.014285481512092378,-2.8325375530845225,-4.182286567844581,-1.0313000519819169
63.3347,84494.2296,-0.5647683686199331,0.054109322353138596,-0.47587450526220454,0.11074151496658066,0.08126066753850592,-0.012661476353965343,-2.6808513781964534,-4.225625474955459,-1.4430196695352457
63.3581,84494.2496,-0.49860908533347353,0.46458777531805473,-0.6567053258213152,0.0837107979738208,0.05861801525072302,0.08294174501556739,-2.5455992989171294,-4.384268926178121,-1.8836318918291612
63.377,84494.2706,-0.4174577284605748,0.8183555143788885,-0.7644615011425787,0.0459539536416149,0.15771282791706753,0.1148536269515431,-2.715347427946751,-4.678626603598229,-2.107549578568691
63.398,84494.2906,-0.3352347283113269,1.0578875612482437,-0.7733339578773978,-0.006513404360233245,0.20578493020330987,0.10764492206876722,-2.577207718664846,-4.975237949107344,-2.497599742566582
63.4201,84494.3116,-0.2772174834235649,1.1570593417554815,-0.6825509030525899,-0.029181189818913572,0.07411715462007569,0.06499101046194834,-2.641762084770412,-4.742508130220039,-2.1436653344944205
63.4387,84494.3316,-0.2594744292197427,1.123085555318722,-0.5108962794531935,-0.024043101777044273,-0.09655801339188695,0.030282565158790232,-2.91389410186186,-4.647613268193913,-1.8691855894588685
63.4581,84494.3516,-0.28210205773101477,0.9939525516165024,-0.28974984756553984,-0.08313767500611803,-0.23300242104072302,-0.008100056380545579,-2.7248242472209063,-4.375918940948469,-2.064210671457815
63.4777,84494.3714,-0.33251438873173617,0.8163310397493442,-0.052193046547793845,-0.1336922581459498,-0.1796411115721997,0.0004979012468400565,-2.4888938935529166,-4.091899041996469,-2.085880125013253
63.4978,84494.3916,-0.40001815273545066,0.6378966344849193,0.17441850370705414,-0.13733914674466624,-0.037664857686852106,-0.008396205579136591,-2.291975078170615,-4.345304417819981,-2.432591381900268
63.5186,84494.4116,-0.4847008969616164,0.5008903051973282,0.3720372050209769,-0.1351623437287587,-0.033133944262825704,-0.03531689004617629,-2.488079964286513,-3.980703021786869,-2.7793026387872843
63.5398,84494.4316,-0.5905511153170849,0.4368384541493559,0.531658345085969,-0.17207086038924257,-0.13691293950268746,-0.0314838044839254,-2.6368785091720004,-4.075332008962445,-2.815418394713014
63.5655,84494.4516,-0.7132550482640299,0.4627987755129413,0.6514667308962016,-0.17964270394411752,-0.282399555629866,-0.07068745754130613,-2.8111421267370083,-4.454113832515299,-2.699847975750677
63.5899,84494.4716,-0.8237235049483304,0.5660823051210895,0.7380918964261697,-0.1620502706207829,-0.35601453657939025,-0.14716979386522616,-3.216084435308573,-3.8669874586377104,-2.5698312544180455
63.5982,84494.4916,-0.8828851318932911,0.7303936416552878,0.8059491185071918,-0.13933674185636252,-0.3271641162263675,-0.23718109235892496,-3.0988943101707993,-4.363327494391357,-2.6492859174546526
63.6181,84494.5116,-0.9255144324602029,0.8938900396136488,0.8711240369255401,-0.08758382668554388,-0.21157780627517284,-0.2813771467437725,-3.0475183226083757,-4.26657777655205,-2.317020962937928
63.6402,84494.5316,-0.9403598400656226,1.0128688767118184,0.9528650389216526,-0.06770798403166123,-0.299288047033425,-0.2877058310404914,-3.065212189686905,-4.0215223859581855,-2.288128358197345
63.6602,84494.5516,-0.9042055919239798,1.0512227076946483,1.0623531861275686,-0.15597391862263582,-0.5453792085788608,-0.31844033933328825,-2.930328197470605,-4.762917812305699,-2.396475625974538
63.6937,84494.5726,-0.8155803159726716,0.9769383792256865,1.1932882037162484,-0.293770526437754,-0.510724463488827,-0.28196342584830025,-3.0557353704127497,-4.324230048607945,-2.331467265308221
63.7032,84494.5926,-0.6399007745581863,0.7819205147610624,1.3222971724493127,-0.3931395028683277,-0.322453327365806,-0.1750391188545818,-3.6270923358079727,-4.6409852013521675,-2.7359637316764065
63.7201,84494.6126,-0.4379624272810864,0.5091110238197655,1.3997922903669144,-0.4264443534260985,-0.3128505129207287,-0.13606419891806404,-4.073119883401402,-4.342120187754043,-2.678178522195237
63.7388,84494.6326,-0.2638639480706891,0.1996786018275592,1.3735749307121952,-0.3396731988151244,-0.4493465570952927,-0.07201290578378047,-4.214961151952295,-4.0187369681680725,-2.642062766269509
63.763,84494.6526,-0.1601902501292904,-0.0947649314090813,1.2000626682226978,-0.17946318289221982,-0.5233079902161225,-0.15974530007856563,-4.682752212956265,-4.030796665024083,-2.577054405603193
63.7792,84494.6725,-0.08210778460082525,-0.3185462225360185,0.8637706596820928,-0.19739073479417318,-0.3972358325298501,-0.2721086399146992,-4.550833605882905,-3.579916267045042,-2.707071126935822
63.8036,84494.6926,-0.028371394090031157,-0.4481037230852078,0.38945790994383783,-0.27717915639121044,-0.02161914064498235,-0.4089692969952559,-4.536027368806963,-3.687003763352456,-3.284923221747516
63.8235,84494.7126,-0.017798041424410063,-0.4528561515765612,-0.15348883214591236,-0.27752171811077625,0.3110515912748936,-0.32829873684248195,-5.050310841774943,-3.128637056790175,-3.2271380122663476
63.8402,84494.7326,-0.06438330389321047,-0.36207276901972807,-0.6729810391222893,-0.16796248127363983,0.2505975236071403,-0.2559299851185027,-4.612132254922861,-2.9024023673193406,-3.1332370468594473
63.8589,84494.7526,-0.13259195470278495,-0.2347220161216441,-1.0836822864776943,0.04752447046805778,-0.0825430340333447,-0.36830175196435216,-4.579264063705366,-2.6717932790957657,-3.0754518373782775
63.8842,84494.7726,-0.1903880288426016,-0.1283146397087761,-1.3299238068189536,0.17806491540925143,-0.2578060183022572,-0.4814066686554941,-4.345775497836581,-2.721361440772562,-3.01044347671196
63.9009,84494.7934,-0.17161648125025508,-0.022491621244467703,-1.3936987267034089,0.0921744196169375,-0.27672587664731035,-0.4128673909181731,-3.6522670765648244,-3.2880781325644945,-3.386047338339562
63.9216,84494.8136,-0.10003195068954866,0.028135036417837093,-1.2977209222943207,0.07632736099744207,-0.15377814561316877,-0.27799550813059326,-3.603332876801607,-3.5249164753539843,-3.465502001376169
63.9449,84494.8336,-0.006081577567150262,0.027655302047973798,-1.089479878324134,0.08020144272569271,-0.19372074039266896,-0.23497080809627016,-3.4911040824026,-3.6341247023251313,-3.3427084312286843
63.9626,84494.8536,0.08085248302871614,-0.0030309375307388045,-0.8285564477630664,0.05981942597629477,-0.273934449892841,-0.21276563749460006,-3.513681525079541,-4.056245432988861,-3.1404601980445905
63.9819,84494.8736,0.12382172561724904,-0.0544799734410019,-0.5752266284042519,-0.05424810006146278,-0.28218944245348165,-0.043918459249154475,-3.607402523133615,-4.080896576401983,-2.9887740231565214
64.0002,84494.8936,0.12214468930435664,-0.09994451233521282,-0.38198691013765174,-0.15046301056817335,-0.1668223251658501,0.050211239278608454,-3.699049820451509,-4.354711634311154,-3.089898139748568
64.0193,84494.9136,0.07962801853431423,-0.1109091799261013,-0.28589498368993016,-0.22273615256205875,0.01021285826097431,0.014035290426334791,-3.9349801741194965,-4.638731533263158,-3.068228686193129
64.0427,84494.9336,0.010106916058074941,-0.060382649666442106,-0.30198720463206624,-0.2183452936482094,0.08453261285701735,0.009246341190582884,-3.9526740411980263,-4.393676142669294,-3.0393360814525456
64.0625,84494.9536,-0.08866877357970605,0.0645376380054907,-0.42049609536176635,-0.15299731205393025,0.05171890383008045,-0.06443220861496957,-4.2354648938930515,-4.690021613327857,-3.191022256340615
64.0826,84494.9736,-0.1921095182380751,0.2710403066148429,-0.6083444766298775,-0.07980029295894966,0.10402118408865743,-0.1346653153052073,-4.37441853244136,-4.504606288028341,-3.104344442118861
64.1022,84494.9936,-0.2820904331283037,0.5431438822147503,-0.8164438710056902,0.005436826043046908,0.05497772151665841,-0.12186829912219004,-4.189050237069394,-4.206140086706045,-3.154906500414884
64.1219,84495.0146,-0.34620499699550805,0.8416477341214171,-0.9905076536852312,0.08154994706378255,0.07188540122501967,-0.06775004272601334,-4.245387555370584,-3.915757995762849,-3.284923221747516
64.1421,84495.0346,-0.38126145119949817,1.114824009717556,-1.0830040508044154,0.08971770188917914,0.0008688998463349145,-0.04524270363309793,-4.222810112693643,-3.4936372650991174,-2.9887740231565227
64.1614,84495.0546,-0.38991924594437377,1.3116197775611644,-1.0623715491723933,0.05125776157055146,-0.1261896886340572,-0.09473332783665764,-3.9975385946292326,-3.600857698831806,-3.4366093966355846
64.1858,84495.0746,-0.38542526555258827,1.3939436195943185,-0.9178792960090457,-0.004621478199853702,-0.023662762985369987,0.10631826996776206,-3.8647283031491195,-4.093089210683266,-3.790543804707744
64.2116,84495.0946,-0.38227682609041647,1.3456081047649289,-0.659901431630148,0.045460188448178014,0.03612247511519238,0.1462538690119043,-4.016414478037189,-4.04975030357239,-3.877221618929498
64.2253,84495.1146,-0.3775779493724374,1.1796490828719404,-0.3188413184226401,0.06394621484413769,-0.04036496099793896,0.01983909240359976,-4.002422170227645,-4.268033820089402,-3.761651199967161
64.243,84495.1346,-0.3784890214879085,0.960842903426752,0.053568895136281866,0.04464760210747514,-0.2595667859303211,0.04042988871538973,-4.283585164389869,-4.341987250328766,-3.306592675302951
64.2738,84495.1556,-0.3747334919516372,0.7810015789548684,0.3974355928602141,0.04065807618147483,-0.2558069213800353,0.07338070056349563,-4.285658865126052,-4.0928233358327155,-2.555384952047755
64.2816,84495.1756,-0.294403724363089,0.645230955488135,0.6646269646280772,-0.017428640235450706,0.037939283310514875,0.2787734122301882,-3.9460848519264564,-4.558415911032598,-2.136442183309275
64.3037,84495.1956,-0.1609722904115094,0.6345103105407214,0.8100094706876569,0.1364426366444445,0.39846034705911626,0.211335665048602,-3.9691081368067738,-4.508980686781079,-2.0714338226429607
64.3213,84495.2156,-0.022889638707721274,0.7069562906003259,0.8242909860356439,0.28593688091464947,0.3578419915533434,-0.005900606844668537,-3.8692437916845086,-4.1775133568160125,-1.9558634036806233
64.3423,84495.2356,0.07908388884477444,0.8195039099289004,0.732241422576232,0.3990538068768687,0.2585042984212808,-0.12032736020269216,-3.965852419741164,-4.064196605942683,-2.3531367188636607
64.3728,84495.2556,0.11609991616873283,0.895729218119502,0.5876651172969859,0.29752191749402646,-0.010849447469335765,-0.659596992958926,-3.984360216086094,-3.9303372355584187,-2.6276164638992134
64.3819,84495.2756,0.13626495706951694,1.1125032001730693,0.42813929551157426,0.06622427208337571,-0.18440297735200695,-0.6168636266890707,-4.314011567808159,-4.23900827792354,-2.9526582672307935
64.402,84495.2956,0.12698675117220692,1.2502504391320934,0.32094123762051663,0.08946956481171146,0.16238408186846853,-0.31417506855845945,-4.093623625342161,-5.013404832913827,-3.227138012266345
64.4211,84495.3156,0.09220254016236773,1.3254157487857081,0.29679533322777385,0.13233296635862654,0.49851168142649277,-0.11201471704711984,-3.8856001321529017,-5.3471258309679,-3.010443476711959
64.4417,84495.3356,0.03183361425754114,1.2753670841248999,0.3738365093339269,0.016447707372985645,0.3556060411366759,0.05484248304681799,-3.818158136044755,-5.717823544141661,-2.8154183947130154
64.4637,84495.3556,-0.053240196024960065,1.0757594207632089,0.5394979289414509,-0.05235651982268087,0.18327153462115203,-0.05553569407193122,-3.1250955569763748,-5.81298428101834,-2.8298646970833063
64.4846,84495.3756,-0.1523568586197106,0.7628281495053522,0.7481021929520894,-0.0837277942096636,-0.17864238698256718,-0.19172700580933105,-2.591122271334036,-5.8112623626304325,-2.6420627662695066
64.5007,84495.3956,-0.2441834968747233,0.4088902674134977,0.9336809983605594,-0.22206943312379332,-0.22350620443567296,0.02285114644780566,-2.620734745485924,-5.5970873700156085,-2.4831534401962907
64.5226,84495.4156,-0.31603920517821765,0.11632950061729319,1.026061217795162,-0.3421122435066985,-0.07881825861198577,0.22156003555117632,-2.4480989864537186,-5.440697586881952,-2.707071126935822
64.5426,84495.4356,-0.37842009510555347,-0.0766797688923756,0.971811713607524,-0.2203632157812944,0.058577733466470217,0.23068287549801592,-2.33424233352191,-5.327513773433898,-2.475930289011147
64.5623,84495.4556,-0.45072199893298986,-0.1417162084453989,0.753063714140744,0.0276079583057055,0.12465168372732739,0.026388082811465596,-2.7847853696507303,-5.11307290596852,-2.5770544056031928
64.5856,84495.4756,-0.5394233488275713,-0.0863404349971877,0.40326696212555657,0.08550177671106829,0.19467202132579514,-0.05767133910567274,-2.7297078228193166,-5.043095062206066,-2.8876499065644765
64.6069,84495.4956,-0.6402613669462323,0.052486535337436795,-0.001271824795658339,0.036086598308821716,0.15512207229786557,-0.016346487316920767,-2.772866762577369,-5.08219250798948,-2.7070711269358236
64.6217,84495.5156,-0.7283970042633552,0.214841170158039,-0.3684874334533477,0.07566627521649028,0.09180359318138888,-0.11598263476482676,-2.867847532101224,-4.746483716696951,-2.497599742566582
64.6425,84495.5356,-0.7779532039614596,0.3090008038760535,-0.6220936650965426,0.19116866099455554,0.09676434010194167,-0.08223607242782394,-2.7132737272105714,-4.927790518094281,-2.360359870048807
64.6618,84495.5556,-0.7804839998956731,0.3056719521016135,-0.7277292211054237,0.2514201095617012,0.09848964051132862,0.01615889687476781,-2.4419556393855255,-5.133881400330009,-2.9382119648605007
64.6828,84495.5756,-0.7473404904245304,0.20776488434865412,-0.7012173607007081,0.24408459772280378,0.007298358179585027,0.14324061110916753,-2.5200564710972553,-5.154424019840942,-3.0610055350079843
64.7017,84495.5956,-0.6932752935540506,0.059011225685984596,-0.5997939404175411,0.18397211483208947,-0.10625093242306803,0.12824173767321154,-2.349862499864254,-5.331622297336086,-3.696642839300846
64.7273,84495.6156,-0.6562277174257594,-0.0762266557894078,-0.5029864438399086,0.08063477492095288,-0.08597740673417185,0.05535893835655597,-2.424707614510374,-4.907380836008622,-4.1011393056690295
64.7459,84495.6356,-0.6417766607909035,-0.1521025478335169,-0.47964220578646344,-0.019674132059746094,0.03396370954602784,0.12596283347429788,-2.276722998891293,-4.923947869042646,-3.3716010359692703
64.7617,84495.6556,-0.6731847365281148,-0.1294991905919528,-0.5662084857796738,-0.018712919525296308,0.17601907739332792,0.0938222184174592,-2.508583706227272,-4.651987666946653,-3.3282621288583925
64.7843,84495.6756,-0.735701583180061,-0.000716548607925506,-0.7497830430655464,0.0367519382741775,0.2838234037363354,0.030351185095049117,-2.183815930103619,-5.010492745839126,-2.8298646970833063
64.8042,84495.6956,-0.8232791099551179,0.2097627559494813,-0.9787387918648738,0.08956755754630495,0.2559075125157275,0.07367203432796317,-2.4390680093829413,-5.2718492946164615,-2.389252474789392
64.8227,84495.7156,-0.8986308305074788,0.4586839628580605,-1.1786275901193066,0.008103089098349793,0.12149593207228612,0.11603100059472192,-2.4920718554781724,-5.590991052874968,-2.331467265308223
64.8468,84495.7356,-0.9242659546450711,0.6980232167213825,-1.2771548278442901,0.08133002597055665,0.20938966439451276,0.15235983948041448,-2.0349396300777824,-5.9701716887036484,-2.3242441141230756
64.8653,84495.7556,-0.8799317832680575,0.8812688644461768,-1.2242475986282402,0.16464287214535914,0.1372459940588549,0.13919805416254738,-1.9864512725179408,-5.735454076577889,-2.540938649677462
64.8865,84495.7756,-0.766914539147662,0.9852790579366724,-1.0060921869936175,0.07845541891751158,0.0453652664096685,0.24788601390397239,-1.4413733090686425,-5.814047780420546,-2.7865257899724307
64.9038,84495.7956,-0.6041173782927205,0.9895492203219491,-0.6475863100707001,0.11675309698020256,0.14865878696318535,0.3898185269750326,-1.521101999313177,-6.056982440350677,-3.017666627897105
64.9228,84495.8156,-0.4323094632189282,0.9107576604301636,-0.21444641118181085,0.22723783075621243,0.07913029159861111,0.25685837153445473,-1.7360827688370306,-6.14127364905815,-2.8081952435278663
64.9462,84495.8356,-0.29410223749696507,0.787418589444946,0.20076065162088955,0.25186879934558026,0.00821287200164889,0.17067413931035258,-2.083427987637625,-6.204889300829412,-2.605947010343777
64.9649,84495.8576,-0.1869194283826181,0.6680246355134143,0.49972338357746626,0.12167290255846472,-0.1491897289163181,0.19295274528240505,-2.00369929739309,-5.961954640899274,-2.3748061724191007
64.9866,84495.8776,-0.12355432220881298,0.6236751774328364,0.6007033147309181,0.04006463534716652,-0.02263736685594719,0.20875940779256652,-2.303002000837219,-5.319296725629524,-2.526492347307169
65.0081,84495.8976,-0.09672028470059986,0.6948108464198547,0.47214617775628304,0.044908280415750804,0.0591401631244573,0.06484293586265284,-2.2039515849813545,-5.099025415874057,-2.7142942781209674
65.0295,84495.9186,-0.11603800748910635,0.8918619470054104,0.15034961755442924,0.07030013675367335,0.03644106131362229,-0.10002910151390064,-2.5438936852439733,-5.216184815799022,-2.8009720923427235
65.0507,84495.9386,-0.18245443284994917,1.1832516189331213,-0.2602726328306753,0.11073881085847699,-0.19048855985917876,-0.18150865459941093,-3.1041459728322387,-5.613255590773805,-2.642062766269509
65.0654,84495.9586,-0.24870830402596328,1.5124226626903494,-0.6153628611995517,0.15688818402452795,-0.548114095049479,-0.27997585541385406,-3.1974211286829353,-6.1094626891021795,-2.353136718863664
65.085,84495.9786,-0.32128568914069017,1.7390300152045257,-0.7678780621748337,0.18887828127263764,-0.639981265691796,-0.3679369828295022,-3.510638384796251,-6.302829187355519,-2.1508884856795674
65.1064,84495.9996,-0.36979847872651056,1.7697185791398609,-0.6258848357278647,0.12638294098553007,-0.4490725970383368,-0.2290911630315612,-3.6364136448014195,-6.4468933987826125,-2.252012602271614
65.1311,84496.0196,-0.392602467125715,1.5567810614674713,-0.17671589473748725,-0.125204944766251,-0.23983605825211365,0.20545240840830045,-3.4399406716224936,-6.228742819690876,-2.2375662999013217
65.1473,84496.0396,-0.3891143072551075,1.06492182028758,0.5227123544129403,-0.35104894555202754,-0.22635634374189179,0.5617536023521281,-3.4111421267370092,-6.554113832515296,-2.2014505439755925
65.1715,84496.0596,-0.3873309326679811,0.48068447178906437,1.3257367096986938,-0.5068206511148702,-0.2941629992953653,0.6900764947318421,-3.5776345387010235,-6.403687429097009,-2.208673695160737
65.1905,84496.0796,-0.3851135138770049,-0.17722711082991618,2.0550320682204557,-0.557088886006116,-0.43365921789786654,0.6486770037141769,-3.7955029382274583,-6.350010743518025,-2.0497643690875216
65.2062,84496.0996,-0.3527371375137438,-0.7487510143553919,2.508064496148318,-0.5222277373531042,-0.47957383179872703,0.5177802617954891,-4.376336722896836,-6.364058233612491,-1.9125244965697445
65.2305,84496.1196,-0.2694354482770422,-1.0424472960348306,2.553439417155781,-0.3112687159379475,-0.21843640934591463,0.24619338880958644,-4.903798574407958,-5.4762119903236,-2.165334788049863
65.2507,84496.1396,-0.11530190145964807,-1.076446885520917,2.170952222538169,-0.07352883861333788,0.09324076856133978,-0.06729979963547258,-5.2092446249202755,-5.140370261605794,-2.085880125013254
65.2688,84496.1595,0.05748376821317813,-0.8396558501244488,1.4740527553435163,0.01541742331742342,0.22115326515255085,-0.30108431089391297,-5.383140155422263,-4.936400110033796,-1.8041772287925542
65.2843,84496.1795,0.18930680624542612,-0.41755421549305577,0.6566129568201832,0.008180786643861602,0.14835087563071137,-0.34131003984399183,-5.309186725182897,-4.417529661530758,-1.6741605074599235
65.3042,84496.1996,0.25710630058783396,0.018686991226479994,-0.08536275457637094,-0.027082255202532445,0.07919174472968107,-0.34462305852091224,-5.449768222264006,-4.45450637665044,-1.6958299610153615
65.3262,84496.2195,0.24622593763867534,0.34963007550691033,-0.6150311736936301,-0.1010460612075785,0.041938546445408544,-0.2883667493739323,-5.385213856158442,-4.687236195537747,-1.5513669373124386
65.3513,84496.2395,0.16521562611973284,0.5062198814164507,-0.8875341130064845,-0.26012069221443146,-0.012614416124062038,-0.1679050532007191,-5.158314479561229,-4.5720645888512355,-1.8908550430143056
65.3676,84496.2596,0.011174199700345042,0.4914825855777428,-0.9408553944479755,-0.34985387173781346,-0.046672079117381464,-0.05707783684995997,-5.544303149584486,-4.590353540273162,-2.3459135676785143
65.3862,84496.2795,-0.1779192722312385,0.3724346377264703,-0.866425207395208,-0.3255278951666524,-0.06767235813771322,-0.040393561470803196,-5.166531527365604,-4.629716860907128,-2.403698777159685
65.4063,84496.2995,-0.3745993978658207,0.24453993661068052,-0.7693873569343753,-0.25751278380264453,-0.02435381852742975,-0.06671833596506835,-5.162016038830215,-4.545292714774383,-3.2415843146366368
65.4269,84496.3196,-0.5494228671760466,0.1926856737419641,-0.7320723172449738,-0.17580694142312428,0.018880226506993034,-0.03458012862529138,-5.28742321177236,-4.106604951076626,-3.674973385745406
65.4476,84496.3396,-0.6765511465422593,0.2651058800783316,-0.7911607305538108,-0.0755565283582732,0.010220108488464157,-0.024064424358249435,-4.980349302727235,-4.220054639375236,-3.6460807810048226
65.4675,84496.3595,-0.7412785035307583,0.4614783208141368,-0.9340168033570677,0.010326157350869575,0.02913791257156622,0.003807308348167865,-5.010775706145523,-4.117075666970007,-3.292146372932659
65.4982,84496.3805,-0.745684408596428,0.733302962620144,-1.1102487556399152,0.13110288579552948,0.10327741873023483,-0.013175523946641584,-5.1632758102999965,-4.184932780068731,-3.183799105155469
65.5111,84496.4015,-0.6980369886753279,1.0412212615132004,-1.255083607063005,0.1832830949783896,0.08706021610656049,-0.006046273726902314,-5.003372587607552,-4.170619415123715,-2.5842775567883387
65.5364,84496.4215,-0.6362026926532686,1.2981173779141557,-1.3082697369944822,0.31423237286425687,0.20681613671059842,0.07837550960802421,-4.916240778825048,-3.9812285033472885,-2.642062766269506
65.548,84496.4415,-0.5568635180291464,1.470945274620321,-1.2346826646274935,0.32380947014793915,0.19238268034383207,0.20155070290979069,-5.112345664940948,-3.6166271073141716,-2.988774023156523
65.5676,84496.4613,-0.49115940793370766,1.5273913026001602,-1.0313658309559395,0.2581537098760292,0.15590432613580632,0.2855415048906701,-5.292016455448101,-3.1367211671692705,-2.80819524352787
65.5896,84496.4815,-0.4280776652763835,1.47157921705505,-0.7226797501582228,0.13140566653423183,0.1344366242334627,0.319000345038798,-5.382403981296213,-3.770896159784096,-2.967104569601085
65.6147,84496.5016,-0.35975746411453036,1.3340960221386913,-0.35496565357348675,0.05697628583517198,0.10892216157605124,0.24494378365455616,-5.537791715453267,-3.7007853785963674,-2.909319360119914
65.6283,84496.5215,-0.2705628130888725,1.1498892789828885,0.016315288280596456,0.1433774447715239,0.024023259022807837,0.14897820086723526,-5.440737245193231,-4.2856580843849486,-2.873203604194185
65.6505,84496.5425,-0.17991428557496308,1.0038663408797543,0.33066144328476815,0.2392956569994099,-0.06656194447087387,0.10073597796017497,-5.4259310081172885,-4.392745580692362,-2.9526582672307917
65.6854,84496.5625,-0.11751998245163316,0.930273108410576,0.5504753902964056,0.3774449547406801,0.07626682760304891,0.07374065426422212,-5.431706268122456,-4.116809792119458,-2.5553849520477527
65.688,84496.5826,0.01710305136320013,1.0090938986562894,0.6613131386908934,0.41944029353745865,0.05144244508968361,-0.0058295791913479155,-5.1398066832163,-4.7059239592355,-2.6131701615289225
65.7087,84496.6025,0.08489360646248684,1.139344645858274,0.6906722666811175,0.3177331311902586,0.07780020576031221,-0.06583470380341874,-5.263140155422262,-4.516400110033799,-2.302574660567638
65.728,84496.6225,0.11101801266725353,1.2898366198708784,0.6893644302070109,0.18460994438793277,0.21339683056097675,-0.14055097966257057,-5.139360841012924,-5.177479914150752,-1.9775328572360609
65.7498,84496.6426,0.08799648015512504,1.3720832391090845,0.7265930694193693,0.11026868677747503,0.319548618449679,-0.20981618409399877,-5.107674666124853,-5.640818821261627,-1.890855043014309
65.7695,84496.6626,0.010418584145355542,1.33438821953165,0.8554141587458447,0.13297895732512247,0.3591356840074939,-0.16761131171918978,-5.040678512220081,-5.5399605795201365,-1.8330698335331392
65.7879,84496.6825,-0.10042276712344896,1.14514401233025,1.0884189049708495,0.18549415216175766,0.3071270569113125,-0.010235701414287087,-4.669864166335795,-5.997336106915643,-1.464689123090686
65.8103,84496.7026,-0.21402033488836908,0.8238109630266087,1.380529238084847,0.0853286710001796,0.10056005152890621,0.14294686962763822,-4.441705018268801,-6.242524434934785,-1.3635650064986393
65.8316,84496.7226,-0.3101633556256287,0.4350861855822725,1.6367726869024897,0.04387187235368551,0.0690362797136188,0.2593551741274536,-4.319185475329243,-6.543244304346092,-1.4791354254609763
65.8547,84496.7445,-0.37783156119959127,0.0707201687225757,1.74230109185665,0.042589823135184675,0.09977400806176188,0.2998108400569263,-4.2304258080139325,-6.131461352150463,-1.4285733671649545
65.8706,84496.7646,-0.42610435306838484,-0.2068391280647936,1.6071868259209237,0.10646011819215959,0.21713249518834052,0.2517841078268896,-3.7626347470099653,-6.119401655294453,-1.4935817278312673
65.8915,84496.7845,-0.46696882152577807,-0.3157996141639805,1.2119421774030281,0.13615814517749095,0.37663305890681725,0.15905449677051411,-3.898700755555688,-6.071954224281394,-1.3563418553134912
65.9113,84496.8045,-0.5305573616767465,-0.2566630708970141,0.6273370193731812,0.1987382677851074,0.48066730959035553,0.08124671220411979,-4.047945142644551,-5.695027256541715,-1.529697483756999
65.9441,84496.8246,-0.5831592446172811,-0.094365388627472,-0.0021634073787328394,0.2304014646811286,0.4793863961914922,-0.010315156077323693,-4.114495454345943,-6.267441453198458,-1.4502428207203908
65.9596,84496.8445,-0.678096523976613,0.1392200874239561,-0.5215547775240931,0.26490259405455413,0.5040032163705135,0.006304110941166773,-4.297790048981728,-6.815071569016807,-1.652491053904484
65.9762,84496.8645,-0.7248280961694343,0.3166947784104667,-0.8099482775682886,0.2559916500016059,0.46239491467135596,0.22817644203677026,-4.332731940935407,-6.7965167427443305,-1.9558634036806215
65.9914,84496.8846,-0.7014379370285803,0.3670060017441241,-0.8279470783146151,0.1831353069387255,0.3491652984036074,0.37643643554601847,-4.040018426762848,-7.27443488965077,-1.2118788316105675
66.0131,84496.9056,-0.6072220176345573,0.2828033486158376,-0.6218272756860638,0.11253775079946553,0.35319031444339594,0.32186552834223925,-3.9648052250537016,-7.115924375853384,-1.139647319759105
66.037,84496.9256,-0.49023594612368343,0.08589779039857778,-0.30343259177932486,0.06987222581508697,0.16824903586750412,0.21906202909964662,-3.987460422870996,-6.483737176477017,-0.9085064818344325
66.0522,84496.9455,-0.37715216566388315,-0.1601466546789402,-0.00922068746664444,0.006879954979522341,-0.22486745817947743,0.04520920708289476,-3.4341654116173257,-6.504678608263782,-0.6412498879840236
66.0714,84496.9656,-0.2919202146990536,-0.3533394940548005,0.14274694341315464,0.04139784303121715,-0.2361211404799617,-0.1223101152030148,-3.237692438438403,-6.286528029172044,-0.6268035856137328
66.0932,84496.9856,-0.21397191956355888,-0.41421362053915567,0.09301565166907556,0.06801243505892622,0.17933897608355004,-0.11084095497953358,-2.996800754031645,-6.389639939002546,-0.3523238405781768
66.1129,84497.0055,-0.1530282396357341,-0.3071612813566695,-0.14846712111729576,0.04343758400326121,0.525131790670883,0.03528580121303481,-3.131606991107591,-6.7025524426951355,-0.7712666093166537
66.1361,84497.0256,-0.12336918447273097,-0.0673766397355052,-0.513935899722254,-0.009794456723682933,0.4083009451642955,-0.003549471133903506,-3.5533514823509256,-6.813482588054182,-0.8362749699829688
66.1525,84497.0456,-0.16516262209158417,0.2440283807622538,-0.9063053321323958,0.0064932825818371865,0.16061444821986118,-0.09245442363774406,-3.5093786133264717,-6.663189122061167,-1.2118788316105678
66.1718,84497.0655,-0.23712685317960197,0.562423131978189,-1.2293241123154761,0.05605383530854587,-0.11560570970205558,-0.22849766077584838,-3.3441459728322394,-6.453255590773806,-1.6452679027193384
66.1938,84497.0856,-0.312825810167721,0.8506175059574158,-1.4147465375485557,0.043074317413448776,-0.16478584744631355,-0.2988824536409742,-3.4169173867421767,-6.2781780439423915,-1.8041772287925533
66.214,84497.1056,-0.3720022266804421,1.1015122943119706,-1.434384110560458,0.1038623637224018,0.08933328217969987,-0.17798255296252877,-2.863622375488507,-6.299119475729154,-2.0353180667172306
66.24,84497.1253,-0.4118740409541019,1.2921307436149343,-1.2933762467582974,0.05159029498383947,0.2456410161050034,-0.04641766955921506,-2.4212963871640607,-6.571212615250429,-2.4470376842705606
66.2629,84497.1455,-0.4572369015311257,1.4140400494430705,-1.0248010254848017,-0.01789875127598619,0.24402931503638214,-0.0055274107001026945,-2.350966761053326,-7.079878222710633,-2.201450543975591
66.2736,84497.1656,-0.5271395357487741,1.449429232294143,-0.674599187827395,-0.05388408971712593,0.07157798316242209,-0.037666821898410495,-1.6936600032050282,-7.267680153524433,-1.8258466823479922
66.2962,84497.1855,-0.6057265247849262,1.3998718322307946,-0.29514245824299745,-0.04627371817180782,-0.16228926585052594,-0.10576428355490669,-1.652128921979782,-7.450974748160222,-1.6163752979787551
66.3147,84497.2055,-0.6832538291482296,1.3003470341772023,0.05991877000116656,0.004587897757210456,-0.27744687040167404,-0.14959797652196613,-1.90782684346248,-7.2407753420223075,-1.3130029482026129
66.3309,84497.2256,-0.7452026440889622,1.1984316743466967,0.35131070726663977,0.04258791925199283,-0.052771162257326136,-0.07076209677021929,-2.1425751808010434,-6.83084724563986,-1.3202260993877604
66.3507,84497.2455,-0.789044724155349,1.1341820810134586,0.5636318008489508,0.03059099360137673,0.12458081649999274,0.04270879291430332,-2.415521127158895,-6.847148403823335,-1.349118704128346
66.3703,84497.2655,-0.8169639886724331,1.127935776375096,0.7075813533240841,-0.054834809927665505,0.16905676036543338,0.09646709560975354,-2.5589902542425897,-6.746157224656561,-1.4213502159798066
66.3944,84497.2856,-0.8273540447883672,1.1683108212662918,0.8136243911045203,-0.18444817602137847,0.10756629353506567,0.08830613862906923,-2.628874038149941,-6.709047572111603,-1.5296974837569994
66.4174,84497.3075,-0.8307210299564143,1.198217828190182,0.9181572887800142,-0.1874744962854385,0.12231238503908282,0.01344419588768366,-2.269978299339014,-7.197303497486152,-1.0313000519819138
66.4439,84497.3285,-0.8085739169228987,1.165097309941398,1.0468344030869743,-0.07878811160480532,0.11699484655890191,0.05653390428267305,-2.1384277793286808,-7.329175074631964,-0.8290518187978217
66.4623,84497.3486,-0.7430959371628831,1.0244157531024731,1.2011013476147847,-0.03654027385550611,-0.04674024994089787,0.05168476212037827,-2.1852882783557184,-7.341500646338527,-1.0024074472413314
66.4812,84497.3686,-0.6151123330997984,0.7721793793572884,1.3537606710656827,-0.07186780377493149,0.06458190146465224,0.10448118184967321,-2.3184666568988566,-7.432021109611915,-1.3130029482026149
66.5029,84497.3885,-0.4356691032019872,0.4391102709820815,1.4569470641796196,-0.21543322527543451,0.23388487903622454,0.2868657492746135,-2.4105597964201264,-7.234280212605838,-2.049764369087524
66.5211,84497.4085,-0.2672685287572,0.032363368427627597,1.4579606108047154,-0.43857382966276093,0.13365790886117493,0.3088554291992601,-2.5478855764356294,-6.8264728468871185,-2.35313671886366
66.5356,84497.4286,-0.1677040880285729,-0.4050126701271841,1.3107760625997287,-0.5821241050336805,-0.07612629817570518,0.1316956077982421,-2.4504630191125707,-6.828593577550855,-2.150888485679568
66.5631,84497.4496,-0.13414318998950325,-0.7692748077068022,0.9968542294821888,-0.470050533577796,-0.21443874716310077,-0.1970312064962901,-2.251916345197462,-6.859606912955169,-1.8908550430143076
66.5776,84497.4695,-0.1882556276004907,-0.9913554821008564,0.5394393409528907,-0.19747449660383645,-0.055743329155660645,-0.5363375295599997,-2.0011797544535295,-6.682674510310581,-1.4935817278312704
66.5957,84497.4895,-0.26533048235286466,-1.0193411150481655,0.010593510931741459,-0.0009116773398488634,0.20103872248320007,-0.5667144918691318,-2.014726220059693,-6.9359469487088194,-1.9703097060509158
66.617,84497.5096,-0.3350916824643835,-0.8533483495607797,-0.49371379314593594,-0.005040873826029613,0.23328420719353743,-0.39874733420974323,-2.071877467627287,-6.756760877975219,-2.403698777159684
66.6361,84497.5295,-0.3960293740380701,-0.5438561142879346,-0.8941268029804695,0.008056991985718265,0.17430195981875232,-0.20378846442999426,-1.9617223739644674,-6.616805190450311,-3.0248897790822524
66.6595,84497.5495,-0.4262794255511551,-0.2053977324712007,-1.1554229989828106,-0.0006916233217793839,0.04686870704946593,-0.17481881274343478,-1.3175939946593054,-6.475127584537502,-3.4582788501910238
66.6783,84497.5696,-0.4190450444590383,0.1010802002397484,-1.2835968761010308,0.03675214096049911,-0.07378808274547079,-0.2068089454839162,-0.9077681104893303,-6.395077837157495,-3.2632537681920755
66.6979,84497.5895,-0.3705775964919791,0.3487506968484987,-1.3153562436295638,0.03544120572765419,-0.1715935298218008,-0.18364189191609076,-0.5316243468032541,-6.656833198210657,-2.9309888136753517
66.7166,84497.6095,-0.2932551863465462,0.5603306265498329,-1.299572168379514,0.03392032887214365,-0.05447756500594065,-0.018402677687625688,-0.5020118726513664,-6.87100819082548,-2.591500707973485
66.7376,84497.6305,-0.21556756048869358,0.7627954622057072,-1.2778405382996636,0.10198995493548672,0.050422541833104184,0.09507543514808209,-0.9282718524300888,-7.066362482317278,-2.815418394713014
66.7619,84497.6506,-0.1687018908482123,0.9656506536363214,-1.2711891993329585,0.09595092592634198,0.005897978692859824,0.12904711903035532,-0.9361208131714368,-6.5412627792483224,-2.663732219824946
66.7833,84497.6706,-0.16684619665649275,1.1495917516346548,-1.2770809801508045,0.08796923982258166,-0.06512582527749439,0.09734832005434141,-0.9567023102525498,-6.158239494368004,-2.6854016733803836
66.7976,84497.6905,-0.20602995590462087,1.295957116945794,-1.278810375300816,0.06622919381847184,-0.16660295499060584,-0.013031060922938665,-0.7758495034159697,-5.944197439178449,-2.894873057749621
66.8196,84497.7106,-0.29372125153019557,1.3858556781543798,-1.255160737903292,0.06998247633118895,-0.0995167499942393,-0.052010796293579874,-1.0615279861135791,-6.102575015550564,-2.5987238591586306
66.8393,84497.7306,-0.40006387191359555,1.4146703107865632,-1.1874836478067292,-0.0032414365922494508,-0.0026756320161140583,0.06999785809178549,-1.2855397327082128,-6.355714516523524,-2.7070711269358223
66.8565,84497.7505,-0.503813790993859,1.3763419578456288,-1.0623906566245205,-0.10997758509113642,-0.006741018159289214,0.1875113047229282,-1.676411978329877,-7.0411795892030495,-2.988774023156522
66.8765,84497.7706,-0.5802863242325333,1.28436181578481,-0.8769167775145482,-0.1785408685624013,-0.050758651453213524,0.14089067925693327,-1.988815305176792,-7.123350067246788,-2.4831534401962903
66.8968,84497.7906,-0.6108396535014755,1.1528438612167844,-0.637310705468959,-0.1450748754687803,-0.026987506622819527,0.1284548206331733,-1.8996097956581064,-7.183123069966413,-2.295351509382489
66.9177,84497.8105,-0.5902184293720386,1.0123043842585,-0.36181061445271984,-0.11508291807220802,-0.03774378016469732,0.10610157543220765,-1.9994741407803747,-7.514590399931479,-2.4109219283448287
66.9407,84497.8305,-0.5294353055450922,0.9000776457726004,-0.07665748822076054,-0.023032571842361012,-0.007312450516082183,0.0896255675788893,-2.0060633300519437,-7.349850631568174,-2.31702096293793
66.9597,84497.8506,-0.4420147924578823,0.8471815623774601,0.19010954484895504,0.07478294987340736,-0.07706117100630172,0.07639155074917071,-2.0147262200596927,-6.935946948708814,-2.9671045696010836
66.9805,84497.8705,-0.35194850212085826,0.8785215887259988,0.41231832647952704,0.1252120681437942,-0.001933776226412244,0.06756967543504554,-1.861412186638822,-6.7568938154004945,-3.270476919377223
66.9995,84497.8905,-0.27464411360593965,0.9960519188265149,0.5737958760387355,0.10588801973482571,0.09495738046186447,0.10036639339120164,-1.7496292344431956,-6.394546087456388,-3.2849232217475164
67.0204,84497.9106,-0.22694314036589935,1.1783684033019968,0.6744027790484904,0.08917942089560374,0.15495983727307072,0.04543312476963429,-1.6596097956581055,-6.343123069966412,-3.29214637293266
67.0502,84497.9316,-0.21401618809994216,1.3746424994691129,0.7357876268466336,0.10074797074326293,0.10828739445945383,-0.015903467377565112,-1.8375749724921018,-6.695133019442417,-3.0321129302674006
