AppTimestamp(s),SensorTimestamp(s),acc_x,acc_y,acc_z,gyro_x,gyro_y,gyro_z,mag_x,mag_y,mag_z,PitchX,RollY,YawZ,Quat_w,Quat_x,Quat_y,Quat_z
0.0587,88966.0218,-3.3447,8.78193,6.26563,-0.08186,-0.41905,0.08919,18.36,-22.38,-13.2,48.834343,15.770756,97.388252,0.5527561385124456,0.17644112,0.39004934,0.71497601
0.0627,88966.0417,-6.60081,8.13071,6.71813,-0.06597,-0.69822,0.40317,18.18,-22.68,-13.2,48.758156,15.660141,97.155571,0.5548245278723449,0.17749681,0.38873002,0.71383023
0.0654,88966.0618,-8.62631,9.34696,8.80587,0.39584,-1.3042,1.18141,17.22,-22.44,-14.16,48.850704,14.817216,97.454842,0.5555167556159878,0.1822511,0.38563401,0.71377313
0.0681,88966.0818,-7.31668,12.27747,9.57202,0.94134,-1.61696,1.69393,16.92,-22.68,-14.58,49.680172,12.75884,98.671768,0.5522697964518423,0.19555794,0.38238549,0.71451837
0.0723,88966.1017,-3.72777,12.71082,10.79546,1.17042,-0.46976,1.40988,16.68,-22.8,-15.12,51.177616,9.367891,100.980103,0.5446832842832622,0.2170465,0.37896839,0.71595663
0.0967,88966.1218,-2.39181,13.40514,7.32865,0.93951,0.71471,0.91019,16.14,-23.34,-14.94,52.68219,7.671639,102.795288,0.5346799931562178,0.22936642,0.38338795,0.71730191
0.1274,88966.1418,-2.01352,12.88559,3.33273,0.43738,0.5962,0.54489,15.72,-24.36,-14.58,53.853035,7.985496,103.548096,0.5255731298975236,0.23075595,0.39329672,0.7182216
0.1301,88966.1618,-2.82276,11.38204,3.56257,0.02749,-0.33475,0.41783,14.94,-25.26,-14.28,54.57663,8.539291,103.593422,0.521278337395767,0.23076068,0.4001942,0.71753955
0.1518,88966.1818,-2.22661,7.74285,4.94403,-0.39095,-0.53023,0.46426,14.4,-25.44,-13.92,54.798958,8.032107,103.675011,0.5218900446882526,0.23476225,0.39936274,0.71625894
0.1705,88966.2018,-3.49314,5.50666,12.01889,-0.92118,-0.78252,0.40073,13.86,-25.5,-13.86,54.161983,7.22073,103.914177,0.5250219407694474,0.2358357,0.39237142,0.71748042
0.1912,88966.2218,-1.1564,3.61524,10.41238,-0.96028,0.86865,0.69028,13.38,-25.32,-13.44,52.650795,6.592617,104.541397,0.5273930540341959,0.23016274,0.3817004,0.72331631
0.2108,88966.2418,-1.70707,2.36787,11.73638,-0.43066,1.79961,0.73915,13.02,-24.9,-13.92,51.011379,7.055477,105.66423,0.5231266552756221,0.21540147,0.37603363,0.73385245
0.2307,88966.2618,-1.96085,1.86508,8.54969,0.39523,2.75195,0.89003,13.14,-25.08,-14.28,49.984177,8.733076,106.894432,0.5123912092348466,0.19545643,0.37950563,0.7451359
0.2564,88966.2818,-1.45089,1.22104,5.30076,0.83322,2.28219,0.95539,13.08,-25.2,-14.28,49.769051,10.904703,108.222923,0.4969868678886804,0.1757232,0.38989413,0.75505495
0.2849,88966.3018,-1.24259,0.98402,4.53222,1.07085,1.8607,0.83261,13.38,-25.32,-14.16,49.895649,12.52849,109.479477,0.48272046148290637,0.16126107,0.39946651,0.76249743
0.3037,88966.3218,-1.66876,0.10534,3.53384,1.11361,1.60963,0.78191,13.56,-25.8,-13.08,50.106319,14.001569,110.327599,0.4712670154041361,0.14946216,0.40805182,0.76750386
0.3235,88966.3418,-2.29843,-0.76614,2.78206,0.91324,1.14904,0.95661,13.38,-26.28,-12.0,50.336914,15.328874,111.063507,0.46088050109872836,0.13902004,0.41580147,0.77160335
0.3363,88966.3618,-1.74298,-0.95529,4.03902,0.4948,1.00304,1.62001,13.44,-26.52,-11.16,50.934845,15.495459,112.574188,0.44830491207549955,0.13524026,0.4219735,0.77631897
0.3552,88966.3818,1.91776,0.87149,5.01106,0.08186,1.36223,2.22111,13.02,-27.06,-10.08,51.649036,14.373955,115.745857,0.4287747493809818,0.13447104,0.42589995,0.78528911
0.3782,88966.4018,5.68384,2.13802,6.41646,-0.27245,1.76662,2.28403,12.48,-27.42,-9.18,51.327599,11.810566,120.766449,0.40434395336423345,0.13227656,0.42033783,0.8014518
0.3931,88966.4217,7.86016,3.12683,7.78594,-0.42761,2.43124,2.10871,11.52,-27.78,-8.4,50.303604,8.533178,126.786865,0.3760024404636745,0.12960994,0.40911713,0.82124698
0.4138,88966.4417,10.42914,5.21218,6.41167,-0.52534,2.88939,1.70737,10.32,-28.44,-7.8,49.398682,5.943053,132.726883,0.3439193201597036,0.12416162,0.40116945,0.83986098
0.4314,88966.4618,11.76271,7.30471,3.7589,-0.82467,2.2321,0.98105,9.42,-29.16,-7.38,48.665634,4.024546,137.94664,0.31322289666395586,0.11788464,0.39584267,0.85516268
0.452,88966.4817,10.93432,7.53455,2.90896,-1.27365,1.18813,0.4331,8.22,-29.88,-7.38,47.737095,2.146595,141.903748,0.2912334010540114,0.11584438,0.38800678,0.86672598
0.4724,88966.5017,10.45069,8.20493,4.0055,-1.89002,0.20525,0.22602,7.68,-29.88,-7.62,46.340298,-0.175716,144.87558,0.2779775744455768,0.12006783,0.37469777,0.87630689
0.4905,88966.5218,10.79785,9.16979,8.53294,-2.16246,-0.54917,0.11973,7.56,-29.58,-8.1,44.202469,-2.872012,147.092285,0.2713905827979232,0.12880322,0.35414636,0.88562816
0.5144,88966.5417,10.6111,10.73081,12.1386,-1.59863,-1.17469,0.02138,7.26,-29.16,-8.76,41.834053,-4.237685,147.548523,0.27350347924291984,0.13285017,0.3329106,0.89259017
0.5346,88966.5618,9.56723,14.0803,12.47379,-0.77824,-1.59191,-0.12706,7.26,-28.68,-10.26,40.226143,-5.567194,147.470688,0.27871558942880814,0.13997383,0.31694996,0.89569396
0.5537,88966.5818,9.0836,17.76258,11.83693,-0.15516,-2.40559,-0.63286,6.9,-28.2,-11.58,39.560822,-7.298582,147.154709,0.286160586279511,0.15293328,0.30701825,0.89468616
0.5731,88966.6018,8.57842,17.77695,14.08748,0.18021,-3.45505,-1.51861,6.3,-28.32,-12.3,39.626076,-9.613123,145.978561,0.3014237381043799,0.17419483,0.29992074,0.88817084
0.5943,88966.6218,6.66546,14.68843,17.0108,0.68906,-3.43306,-2.19606,6.0,-28.62,-12.9,40.296185,-12.106234,143.677856,0.32549690591676156,0.2008279,0.29460761,0.87574327
0.6131,88966.6418,3.3016,10.97263,16.05073,1.5235,-2.94742,-2.58579,5.7,-28.26,-13.08,41.871521,-13.840767,140.658997,0.3526386043263008,0.22537005,0.29613715,0.85857856
0.6307,88966.6618,0.52672,8.20972,12.65336,2.26264,-2.68048,-2.66765,6.06,-28.5,-13.26,44.504375,-14.871166,137.461868,0.3785776995730656,0.24782735,0.30647546,0.83745646
0.6517,88966.6817,-0.50039,5.84664,8.20493,2.55281,-2.66337,-2.64077,6.78,-28.14,-13.2,47.920601,-15.603354,134.352814,0.4019982545228819,0.27040213,0.32272515,0.81309813
0.6744,88966.7018,-0.78769,4.23295,4.82432,2.28708,-2.65238,-2.63039,7.14,-27.3,-12.48,51.049316,-16.040394,131.033539,0.4250350578685116,0.29141346,0.33614013,0.78831035
0.6898,88966.7217,-2.31759,2.48997,4.0462,1.59558,-2.38299,-2.45873,8.16,-27.42,-11.82,53.649151,-15.762554,127.120514,0.4489951452317221,0.30859518,0.34575918,0.7639522
0.7111,88966.7418,-3.61046,2.78924,3.67271,1.05558,-1.91262,-2.40681,9.24,-27.12,-10.68,55.399113,-14.219555,122.462929,0.4732725635738624,0.31805241,0.35158709,0.74245691
0.7317,88966.7618,-3.42131,2.25773,3.3447,0.88637,-2.6933,-2.17346,10.32,-27.24,-10.2,56.475262,-11.73959,117.232399,0.49769476271959595,0.32201505,0.35487199,0.72296065
0.7518,88966.7818,-1.97282,2.83234,4.32632,1.18141,-3.52042,-2.30052,11.82,-27.3,-10.56,57.312176,-10.159671,112.005386,0.5239412359846599,0.33150661,0.35257158,0.70091528
0.7731,88966.8018,-0.33758,3.00472,2.74854,1.3494,-4.45809,-3.14901,13.02,-26.82,-10.56,58.538124,-9.118671,106.364464,0.5522232574880468,0.34757602,0.348602,0.6728425
0.7952,88966.8218,-2.41575,-0.61052,1.34075,1.00365,-5.41043,-3.46422,13.74,-26.82,-11.16,60.595711,-8.467462,99.581451,0.5843264975975087,0.37348312,0.34307688,0.6335386
0.8122,88966.8418,-4.61602,-0.17478,2.31998,0.17837,-6.10621,-3.13618,14.76,-26.22,-11.64,62.113995,-8.062469,91.987068,0.6197650209054844,0.40083891,0.32830259,0.58943778
0.831,88966.8618,-5.10204,-0.07661,8.61673,-0.55589,-2.5186,-2.48317,15.84,-25.38,-12.36,60.970024,-4.233484,81.853249,0.6629343181430772,0.40388972,0.30806082,0.54999065
0.8541,88966.8818,-6.03818,-0.79248,7.56807,-0.97494,-0.74892,-2.08672,16.14,-25.08,-13.68,58.648304,1.307816,73.771339,0.6939460017915845,0.3857213,0.30189729,0.5277462
0.8753,88966.9018,-9.61511,0.2059,5.95438,-1.43981,0.4722,-1.27121,16.74,-23.82,-14.34,55.649189,7.280643,67.420471,0.7177442189076033,0.35633457,0.3052395,0.51448786
0.8963,88966.9228,-9.87129,2.78924,4.41251,-1.90468,0.94012,-0.35552,17.04,-22.62,-15.36,52.36829,12.156199,63.82766,0.7327547269051865,0.32222253,0.31261218,0.51138711
0.9121,88966.9427,-9.16261,5.33428,4.51307,-2.18995,0.58399,-0.24435,17.4,-21.78,-16.14,48.978893,15.457534,62.499615,0.7420162226012365,0.28767452,0.31771886,0.51547068
0.9318,88966.9628,-10.85771,6.8115,4.81953,-2.43308,0.08735,-0.6463,18.06,-20.88,-16.62,45.709755,17.989759,61.601566,0.7506896775636541,0.25574061,0.32018623,0.51821089
0.9519,88966.9828,-12.26071,6.4811,7.19458,-1.9621,-1.01037,-0.16921,18.54,-20.16,-17.58,42.425648,19.588533,60.843578,0.7610084558605229,0.22716756,0.31729901,0.51824933
0.9797,88967.0027,-12.31338,6.49068,11.4778,-1.29565,-1.14476,0.42455,18.84,-19.2,-18.24,39.963196,19.499115,60.877037,0.7692537602411519,0.20973884,0.30783188,0.51913178
0.9938,88967.0228,-10.36929,9.23444,13.86243,-1.16187,0.3708,0.6017,19.08,-18.78,-19.14,38.863331,17.745962,62.535564,0.7697827854711043,0.20545894,0.29493931,0.52747691
1.015,88967.0428,-9.1674,11.3557,14.78898,-1.7092,1.99997,0.71899,19.02,-17.94,-19.74,37.674274,17.702627,64.284309,0.7654045948926296,0.19265784,0.293042,0.53959721
1.0416,88967.0628,-8.23845,11.78905,11.08276,-2.61511,3.86311,1.53694,19.2,-17.34,-20.22,35.96957,19.301382,66.611061,0.7552461489732132,0.16684483,0.30040511,0.5581423
1.0629,88967.0828,-6.60321,9.3302,9.57441,-3.33899,4.02927,2.51615,19.56,-17.22,-20.82,33.619686,21.771309,70.592598,0.7356843974864659,0.12733196,0.31164029,0.5877375
1.0762,88967.1028,-3.28724,9.89763,11.38922,-3.53386,4.42205,2.8674,19.44,-16.44,-20.64,31.185806,23.700745,75.957047,0.7090814744033432,0.08564546,0.31779838,0.62359643
1.0957,88967.1228,-2.38941,11.4802,13.00291,-2.90955,4.49902,2.38421,20.22,-15.96,-19.98,28.952217,26.239637,81.471977,0.6774896015681449,0.04104505,0.32540411,0.65835804
1.1114,88967.1428,-5.14993,10.9415,11.36288,-1.70309,3.14657,1.5571,20.7,-15.18,-19.5,27.416792,29.223289,85.782982,0.6480655258624343,0.00120261,0.33563173,0.68363804
1.1323,88967.1628,-5.85143,7.69736,10.39802,-0.61025,0.58215,1.5632,21.3,-14.76,-18.66,26.882729,30.943304,88.494347,0.6282006413924641,-0.02055722,0.3421725,0.69846928
1.1509,88967.1828,-4.6232,4.98233,16.54633,-0.04459,0.28772,2.1307,21.78,-14.64,-17.7,27.407503,30.168077,90.816711,0.6146610677414295,-0.01945943,0.34038919,0.71130043
1.1736,88967.2027,-1.69988,4.36702,14.89672,0.71777,0.75075,2.57296,21.66,-14.64,-17.46,28.863245,29.410284,93.356468,0.5966561000247657,-0.01345715,0.3440409,0.72488362
1.1907,88967.2228,-1.68312,4.41251,13.40753,1.32252,1.2199,2.79471,21.42,-15.66,-17.22,31.21109,29.159191,95.797012,0.5746943511860542,-0.00533334,0.35571566,0.73699683
1.2113,88967.2428,-0.3711,4.51068,10.82419,1.63406,1.84603,2.96392,20.16,-16.44,-16.5,34.05629,28.972939,98.387985,0.549536729692574,0.00424207,0.37091953,0.74860543
1.2307,88967.2627,-0.84515,2.7653,6.21774,1.12277,2.43369,2.93093,19.68,-17.58,-16.14,36.810787,28.983454,101.279144,0.5215208984905553,0.01028782,0.38693634,0.76038831
1.2516,88967.2827,-0.80924,3.47399,2.98557,-0.03054,2.86068,3.29684,19.02,-19.02,-14.76,38.970497,29.215336,104.858803,0.48955921450012335,0.00836747,0.40080598,0.77434897
1.2727,88967.3027,0.0838,1.72143,3.90973,-0.686,1.87902,3.24736,18.36,-20.64,-13.14,40.094902,28.425243,109.728569,0.4552670115207231,0.00262786,0.40449601,0.7931633
1.2952,88967.3227,-0.83079,-0.35195,5.37977,-0.3934,1.00487,3.26019,17.94,-22.2,-12.18,40.420856,26.382156,115.011436,0.4243435101904121,7.137e-05,0.39873999,0.81298155
1.3405,88967.3427,-0.94092,-2.0662,6.41646,0.25351,0.59315,3.73116,17.22,-23.82,-11.22,40.64793,23.444462,120.257133,0.39611694995359065,0.00417334,0.38979113,0.83134639
1.3451,88967.3628,1.22344,-2.42054,5.7413,0.61942,0.80146,4.25895,16.14,-25.26,-11.04,41.186825,19.72876,126.170479,0.3637438289377614,0.01386514,0.38159135,0.84963888
1.3571,88967.3826,4.56335,-1.69749,3.92649,0.3708,1.31825,4.41839,14.34,-26.4,-10.56,41.846928,15.249832,133.216278,0.3240677666867388,0.02677803,0.37407646,0.86852163
1.3738,88967.4037,6.79714,-0.15083,2.19548,-0.2981,1.4618,4.03904,12.36,-27.54,-10.02,42.590462,11.225228,140.516403,0.27977828234177193,0.0363171,0.37096924,0.88475251
1.3918,88967.4237,6.89051,0.76375,2.25294,-1.26022,1.03725,3.33777,9.9,-28.56,-9.96,42.035759,6.770772,148.109787,0.23562670039692005,0.04535549,0.35940132,0.90180576
1.4116,88967.4438,5.58807,0.73502,4.67588,-1.62063,0.50335,2.95964,7.44,-29.28,-9.78,39.753906,1.833261,154.909119,0.1989377635861742,0.05915829,0.33510885,0.91903543
1.4353,88967.4638,6.80672,1.84832,7.43878,-1.50762,0.15516,2.7324,5.46,-29.58,-10.26,36.986767,-2.60739,160.575333,0.16706142692628947,0.07476512,0.3089278,0.93330824
1.454,88967.4837,9.663,3.24175,9.84975,-1.15576,0.55711,2.23577,3.72,-29.94,-10.92,34.369007,-6.407592,165.267288,0.13867377179632123,0.09077344,0.28570759,0.94387549
1.4732,88967.5047,9.98622,3.6751,7.74285,-0.96089,1.06779,1.70126,1.86,-29.94,-11.4,32.180923,-8.915866,169.059067,0.11276529870762304,0.10068402,0.26793811,0.95150191
1.499,88967.5248,10.17775,4.44124,5.63116,-1.23945,0.68967,1.42026,0.66,-30.06,-12.12,30.374416,-10.616538,171.962234,0.0915241348002227,0.10734545,0.25395131,0.95687461
1.5133,88967.5448,10.46506,5.4899,7.24007,-1.46241,-0.02993,1.24189,-0.42,-30.24,-12.48,28.396017,-12.533634,174.266418,0.0749370397991932,0.11788568,0.23821019,0.96111566
1.5365,88967.5647,10.28549,6.21056,9.66539,-1.1527,-0.67134,1.04153,-1.44,-30.0,-13.14,26.420971,-14.784577,176.040787,0.06273451439736404,0.13301122,0.22216751,0.96385372
1.5586,88967.5847,10.38365,6.89051,11.20486,-0.39462,-1.2651,0.76664,-2.04,-29.7,-13.8,25.016993,-17.425003,177.443359,0.05432672779927551,0.15262024,0.21073283,0.96402663
1.5773,88967.6048,11.40837,8.10198,10.29986,0.02199,-1.62612,0.38057,-3.36,-29.52,-14.4,24.496893,-19.315708,178.128784,0.05131777792617298,0.16733864,0.20643948,0.962677
1.5939,88967.6247,12.8425,9.56244,9.94073,-0.1631,-1.72264,-0.15699,-4.56,-28.86,-15.06,24.400057,-21.364754,178.417145,0.05243492871522427,0.18402915,0.20514062,0.95984435
1.6144,88967.6447,12.9646,10.63983,9.59835,-0.69272,-1.47707,-0.90347,-5.82,-28.44,-15.06,24.242155,-23.046434,177.87001,0.05974389064517005,0.19910182,0.20208016,0.9570542
1.6336,88967.6648,11.36049,10.46027,11.24557,-0.93096,-1.81916,-1.61635,-6.42,-28.38,-15.18,23.908928,-24.124605,176.267242,0.07442193023659699,0.21093172,0.19579503,0.954795
1.6569,88967.6858,9.88805,9.67976,14.05875,-0.48014,-2.07328,-2.17651,-6.54,-28.14,-15.18,23.861519,-25.378033,173.741943,0.09744301847300199,0.2256024,0.18964875,0.95060074
1.6744,88967.7057,8.1331,8.49223,13.69962,0.19303,-2.18873,-2.54609,-6.36,-28.02,-15.3,24.668142,-26.658319,171.06781,0.12312003949010604,0.24072549,0.18968791,0.94388092
1.695,88967.7257,6.80193,7.69736,12.48576,0.70677,-2.56991,-2.71102,-5.52,-28.2,-15.78,26.361961,-28.073151,168.439529,0.15015661750340825,0.25723034,0.1963107,0.93420964
1.7152,88967.7458,6.3183,7.49625,11.97101,1.10933,-2.94987,-2.85946,-5.16,-28.38,-15.96,28.682667,-29.931057,165.90329,0.1783321296864114,0.27766308,0.20678796,0.92105353
1.74,88967.7657,5.79636,6.88572,10.93432,1.40682,-3.21804,-3.12396,-4.2,-28.44,-16.2,31.575592,-32.143684,163.446838,0.20764446279127743,0.30125913,0.22036977,0.90419239
1.7633,88967.7857,4.65433,5.48751,9.55765,1.52472,-3.26996,-3.36648,-3.06,-28.86,-15.78,34.953194,-34.441441,160.873734,0.23903556607366097,0.32611942,0.23595282,0.88364834
1.7754,88967.8058,4.37181,5.27921,9.32302,1.65483,-3.50759,-3.69512,-2.16,-29.52,-15.0,38.371662,-36.406857,157.972977,0.27217122970545843,0.34924701,0.25007153,0.86105376
1.7967,88967.8257,4.34548,4.52744,9.07881,1.98837,-3.65542,-4.20275,-1.2,-30.0,-14.04,42.026535,-38.111492,154.641968,0.30788309691536264,0.37173602,0.26377445,0.83513075
1.8224,88967.8457,2.97839,2.09014,7.64947,2.2205,-3.50026,-4.65174,-0.12,-30.42,-12.72,46.127502,-39.295258,150.812332,0.34579992676735455,0.39233977,0.27909508,0.80535573
1.8408,88967.8658,1.98479,0.91219,5.31752,2.23638,-3.43245,-4.75131,1.2,-31.08,-11.46,50.42651,-39.569096,146.377609,0.384247026453947,0.40908012,0.29514313,0.77323878
1.858,88967.8868,0.5794,-0.48123,4.80516,2.16368,-3.38236,-4.84355,3.0,-30.66,-10.38,54.469875,-38.943783,141.171799,0.42251743360486144,0.42295274,0.30841503,0.73991227
1.8757,88967.9068,0.86191,0.47645,4.2928,1.89979,-2.71285,-4.90158,5.04,-30.12,-9.3,58.48621,-36.868641,134.56218,0.4621891562465566,0.43349752,0.32092816,0.7038936
1.8986,88967.9267,-1.91776,0.33279,2.60729,1.36345,-2.11237,-4.5259,7.98,-29.58,-8.4,61.751755,-32.106949,126.305511,0.4991116327447463,0.43448302,0.33282343,0.67181891
1.9154,88967.9468,-2.65278,-0.36392,0.84276,0.5058,-2.40742,-3.90404,10.56,-28.2,-7.92,65.401993,-27.09096,118.202347,0.528689092859681,0.43883821,0.34947217,0.63700712
1.9363,88967.9668,-2.11408,-0.39744,0.84994,-0.26878,-3.14718,-3.70612,13.08,-27.6,-7.74,67.543282,-21.146252,108.650291,0.5594052661626471,0.44258368,0.35494784,0.6043157
1.9583,88967.9867,-3.3016,0.61292,1.99198,-0.8717,-3.44589,-3.64015,15.54,-26.52,-8.04,68.376999,-14.548914,97.651222,0.5937581744544493,0.445802,0.35059926,0.57078189
1.9758,88968.0067,-7.53455,-0.14844,5.08768,-1.10139,-2.50333,-3.33471,16.68,-25.56,-8.64,68.082855,-7.590786,86.230469,0.6288851380097974,0.44522959,0.34172115,0.53805274
1.9955,88968.0268,-10.71405,-1.07739,4.93206,-0.85827,-2.45934,-2.43491,18.42,-24.42,-9.6,65.467651,4.359601,71.368324,0.6707619383477718,0.4202297,0.34118065,0.50703174
2.0157,88968.0467,-11.83454,0.07183,5.62159,-0.71838,-2.28341,-1.06046,19.14,-22.62,-10.86,62.609905,11.324331,61.760933,0.703402987630586,0.40049344,0.33772779,0.48038441
2.0357,88968.0667,-9.79707,2.43011,4.46279,-1.23517,-1.24494,-0.22907,19.8,-21.3,-12.18,60.015076,14.648379,56.65147,0.7258025170595875,0.38425961,0.33253682,0.46365345
2.0773,88968.0868,-8.92798,3.89537,3.19626,-2.38604,-0.77641,0.14539,20.4,-20.22,-13.74,57.06089,16.680696,54.234093,0.7421399192654284,0.36253998,0.32883385,0.45788798
2.0818,88968.1067,-9.18895,4.58011,6.15789,-3.54363,-0.46487,0.30421,19.68,-19.62,-14.88,53.081284,17.357714,53.829754,0.7580575254125705,0.33276209,0.32032156,0.46044791
2.1033,88968.1267,-11.13304,4.956,10.22803,-3.96146,0.25168,0.37935,20.04,-19.2,-16.2,48.164425,17.478378,54.707485,0.772978779747297,0.2944783,0.30851641,0.46968496
2.1151,88968.1468,-12.56716,4.92727,11.08515,-3.93275,1.16187,0.66462,19.8,-18.72,-17.58,43.119732,18.119553,56.201649,0.7829115524163165,0.25113103,0.30011395,0.4836469
2.137,88968.1667,-14.44182,5.55215,10.72842,-4.00667,1.4789,1.39461,19.74,-17.58,-18.66,39.052826,17.731956,59.444523,0.7831724564136373,0.21478078,0.28988469,0.50643557
2.1612,88968.1867,-13.53921,6.31351,13.18726,-3.88388,1.08306,2.54364,20.28,-15.84,-20.22,35.236687,16.979731,63.711651,0.7770826742974589,0.18000448,0.2775121,0.53546983
2.1799,88968.2077,-6.84981,8.71968,18.80406,-2.96209,1.08795,3.46483,20.34,-14.28,-21.66,31.921848,15.206864,69.375725,0.7629083316540374,0.151721,0.25972193,0.57227278
2.196,88968.2278,-1.45089,10.93192,19.4888,-1.93461,1.80694,3.45994,20.46,-12.78,-22.38,29.898085,13.809414,74.99649,0.7420837556253532,0.13246922,0.24804075,0.608473
2.2164,88968.2478,-0.13168,12.11466,16.91504,-1.33841,2.80326,3.07265,20.1,-12.3,-22.68,28.860207,13.7714,79.973152,0.7174726823579837,0.11494647,0.24794258,0.64073765
2.2406,88968.2677,-0.62968,12.5528,14.54478,-1.29259,3.42329,2.72507,19.62,-12.66,-22.68,28.260033,15.163653,84.186737,0.6917191685099097,0.09379856,0.25716066,0.6682775
2.2632,88968.2878,-0.89783,11.72919,12.27747,-1.25105,3.5137,2.38421,19.02,-13.08,-21.96,27.676554,17.414623,87.936562,0.6656411852900673,0.06810988,0.2699351,0.6924001
2.2776,88968.3078,-3.45244,9.80665,11.60948,-0.7422,2.35672,2.32007,19.14,-14.22,-21.6,27.265188,19.633469,91.263046,0.6408927452402959,0.04395379,0.28188613,0.71264631
2.2996,88968.3277,-5.88974,6.96473,11.81778,0.53084,0.91141,2.71774,19.56,-14.7,-21.12,27.689959,20.49711,94.359077,0.6181978275396464,0.03334544,0.29013845,0.72975284
2.317,88968.3478,-4.18028,5.22894,10.51294,1.59253,0.09407,3.43123,20.22,-15.24,-20.1,29.740562,19.730276,97.516556,0.5946761927638683,0.04216526,0.29928115,0.74499202
2.3412,88968.3678,-0.08619,6.74447,10.76194,1.93033,0.24435,3.48071,20.46,-16.44,-19.38,32.889751,17.860323,101.135315,0.5678575342851033,0.06263994,0.31056714,0.75971186
2.3608,88968.3877,0.43574,6.26563,9.28232,1.85153,1.01709,3.02073,20.04,-17.46,-18.42,36.049358,16.114693,104.718575,0.5406604556323042,0.08156108,0.32400092,0.77204758
2.379,88968.4077,-2.0638,4.17309,7.88889,1.72569,1.42393,2.95598,19.08,-18.9,-17.22,38.741405,15.176583,108.08503,0.5136408839827216,0.09221065,0.33927783,0.78266263
2.3983,88968.4278,-1.74777,2.37984,5.76763,1.78922,1.73852,3.29806,17.64,-20.64,-16.26,41.106033,14.397542,111.732666,0.48485198249797073,0.09832143,0.35414404,0.79362047
2.4202,88968.4477,-0.60094,1.27372,3.42371,1.64934,1.59741,3.47155,16.14,-22.08,-14.88,43.405712,13.344949,116.02787,0.4523860975440047,0.1029907,0.36871171,0.80547589
2.4366,88968.4677,0.78051,0.49081,2.11647,1.16614,1.35307,3.4972,14.58,-23.4,-13.2,45.274403,11.493878,120.85788,0.41967296262128445,0.10860958,0.3786872,0.81772524
2.4577,88968.4878,1.87945,-0.33519,1.97282,0.51924,1.05069,3.47277,13.32,-24.96,-11.82,46.697231,8.90075,126.251717,0.3863322343970437,0.11506395,0.38465965,0.83038825
2.4773,88968.5077,2.97839,-0.68953,3.73974,-0.03848,0.75931,3.50942,11.88,-26.28,-10.8,47.632416,5.766768,131.949081,0.35344809164732793,0.1221649,0.38709006,0.84279978
2.4956,88968.5277,3.95522,-0.9098,5.54018,-0.20464,1.06963,3.49781,10.14,-27.66,-10.02,47.409454,1.933597,138.130798,0.32077424673930244,0.12919375,0.38095191,0.85748965
2.5162,88968.5478,3.61046,-1.39582,4.79559,-0.07758,1.54243,3.47827,8.16,-28.56,-9.54,46.575897,-1.598754,144.448746,0.2856431211257945,0.13288836,0.37252909,0.87290937
2.5378,88968.5677,3.35428,-1.85311,2.77249,-0.08491,1.45386,3.62487,6.24,-29.1,-9.36,46.224308,-4.089707,150.357162,0.2486660778432889,0.13207464,0.37083507,0.88498747
2.5556,88968.5877,6.09324,-0.63686,3.32076,-0.43555,1.09467,3.66519,3.96,-29.58,-8.94,44.935074,-7.701933,156.984482,0.209091816267473,0.13688503,0.36125034,0.89835477
2.5926,88968.6078,9.73482,1.66397,4.65912,-1.01831,1.49906,3.14351,2.22,-29.7,-8.88,42.306065,-12.570173,164.148605,0.16695244660696662,0.1505833,0.34118658,0.91271204
2.5958,88968.6277,9.69173,2.15957,3.10289,-1.74158,2.26142,2.33656,0.66,-30.0,-9.06,39.239735,-15.634841,169.694244,0.12929964635302998,0.15747918,0.31980637,0.92531389
2.6209,88968.6477,6.87615,1.43652,1.88903,-2.64382,1.788,1.90956,-1.2,-30.24,-9.18,35.642231,-16.826698,173.406708,0.09886097129629795,0.15647231,0.29424146,0.93763793
2.6406,88968.6687,6.79953,1.07978,4.90572,-3.00607,0.59865,2.00669,-2.76,-29.94,-9.96,31.314814,-17.93565,175.968155,0.07550178447769769,0.15938038,0.26114067,0.9490537
2.657,88968.6887,9.21289,2.31519,8.70292,-2.71163,-0.12034,1.96943,-4.2,-29.76,-11.1,26.575005,-19.741976,178.128998,0.05505057574883252,0.17051564,0.22368082,0.95805049
2.6796,88968.7098,11.79384,4.49631,10.37647,-2.22538,-0.5846,1.6585,-5.52,-29.4,-12.78,22.652494,-21.813147,179.843689,0.0384715116217737,0.18578611,0.1925946,0.96276206
2.6981,88968.7298,13.40274,6.06691,11.50175,-1.8216,-0.99754,1.05619,-6.66,-28.02,-14.88,19.457577,-24.103374,-178.961121,0.0265403097736627,0.20428459,0.16711898,0.96417564
2.7196,88968.7497,13.02446,7.30471,11.75553,-1.62063,-1.05619,0.29749,-7.26,-27.42,-16.56,17.202915,-25.342159,-178.857407,0.023186623239217198,0.21542089,0.14807333,0.96495104
2.7443,88968.7697,12.45464,7.89847,12.44506,-1.68477,-1.14293,-0.26756,-8.22,-26.46,-17.88,15.445118,-26.380228,-179.570145,0.027041830406179534,0.22562097,0.13167855,0.9648962
2.7584,88968.7898,12.86644,7.77158,13.41471,-1.69454,-1.25655,-0.77946,-8.88,-25.5,-18.66,13.904885,-27.374256,179.095154,0.03625425554979945,0.23580132,0.11574975,0.96420193
2.7827,88968.8097,12.47379,8.01339,15.4019,-1.35062,-1.53877,-1.42515,-9.48,-24.96,-19.2,12.733945,-28.485765,177.200684,0.050804553629447545,0.2470679,0.10148264,0.96232927
2.8002,88968.8297,12.27028,8.34619,16.05312,-0.66829,-1.30236,-2.13681,-9.96,-24.24,-19.68,12.431117,-29.696283,174.906555,0.07041517071345761,0.25915021,0.09323105,0.95874441
2.8184,88968.8498,11.59272,7.62793,13.6278,-0.14355,-1.20951,-3.03234,-10.14,-23.64,-20.46,13.275344,-30.554323,172.247665,0.09516106008294037,0.26866147,0.09355802,0.95394564
2.8395,88968.8697,9.77792,5.56412,11.86806,0.0226,-1.32924,-3.69818,-10.26,-23.34,-20.7,15.07661,-31.164679,168.954422,0.126979960460269,0.27722692,0.1001513,0.94709611
2.8584,88968.8897,8.03255,3.77087,11.22162,0.3262,-1.36712,-4.0085,-9.54,-23.64,-21.3,17.412212,-31.615133,165.226883,0.1631663075951874,0.28575811,0.10981523,0.93790174
2.8816,88968.9098,6.95516,3.2226,10.31422,0.79962,-1.62368,-4.16182,-8.58,-23.88,-21.12,20.278913,-31.992992,161.398407,0.2008092210863226,0.29505852,0.12316046,0.92598468
2.9019,88968.9308,6.24168,3.06937,8.77236,1.23945,-1.88941,-4.26017,-7.08,-23.82,-20.64,23.708851,-32.49062,157.674805,0.23828076330999368,0.30678588,0.14048962,0.91069609
2.9189,88968.9507,7.03177,2.91853,8.40125,1.48501,-2.30541,-4.4416,-5.16,-24.24,-20.28,27.436699,-33.442764,153.927017,0.27634381550629106,0.32353848,0.15821815,0.89102411
2.939,88968.9707,6.92403,2.6025,7.64708,1.55587,-2.07877,-4.81117,-3.24,-24.9,-19.26,31.158382,-34.401985,150.171844,0.31357312374964663,0.3412939,0.17460065,0.86873758
2.9615,88968.9908,5.49709,1.403,6.51941,1.43492,-1.48868,-5.19969,-1.8,-25.68,-18.36,34.934998,-34.47123,145.914154,0.3520521708134541,0.35425073,0.19125801,0.84497696
2.9799,88969.0108,3.72059,0.30646,5.9879,1.20951,-1.20463,-5.27604,0.18,-26.82,-17.7,38.580574,-33.186676,140.813934,0.39220821003323086,0.3601034,0.20787747,0.82053959
3.0013,88969.0318,1.86269,0.43814,5.97832,0.95173,-1.05252,-4.88937,1.92,-27.12,-17.7,41.791035,-30.816401,134.88327,0.43302595899324775,0.36113599,0.22231434,0.79539025
3.0199,88969.0517,1.26414,0.09337,5.34386,0.79168,-1.13682,-4.44343,3.96,-26.94,-17.22,43.974598,-28.105776,129.097855,0.46864627683053944,0.35938558,0.23118989,0.77315193
3.0408,88969.0718,1.01035,-0.47405,5.6575,0.56994,-0.94134,-4.0702,6.42,-26.34,-17.1,45.386143,-25.285521,123.334305,0.5015598279901805,0.35639361,0.23551147,0.75230026
3.0606,88969.0918,-1.1995,-0.50757,4.68066,0.30665,-0.35797,-3.50576,8.58,-25.8,-16.92,46.063801,-21.86289,117.45639,0.5324655212798526,0.34857193,0.2377416,0.7337963
3.0814,88969.1117,-3.19387,0.12929,2.4373,-0.18937,0.99693,-2.34939,10.8,-25.5,-16.56,47.263912,-18.189749,112.455734,0.555542825514266,0.34041041,0.2485268,0.71674776
3.1035,88969.1317,-0.71826,2.70066,2.0662,-0.58704,2.68842,-1.91812,12.72,-25.08,-16.44,47.629948,-13.943427,108.899078,0.5678569884403645,0.3233785,0.26152804,0.71032941
3.1227,88969.1518,-2.99275,4.56335,1.27132,-0.65118,2.0745,-3.74827,14.52,-24.18,-16.5,47.390335,-7.738208,104.932579,0.5781002203909021,0.29327095,0.28031164,0.70796728
3.1475,88969.1717,-9.05966,5.95199,7.52737,0.12278,-0.15638,-3.55157,16.62,-22.92,-15.84,46.667751,0.53425,97.159195,0.6060786274749025,0.25883082,0.2998459,0.68975919
3.1628,88969.1917,-7.20894,3.60088,6.12916,0.73609,0.11545,-2.85824,18.24,-21.06,-14.94,46.2882,6.218379,90.380562,0.6319571539555731,0.24120948,0.31358451,0.66641796
3.1812,88969.2127,-7.37893,1.01035,4.01268,0.54978,-0.146,-2.74767,20.04,-19.32,-14.34,45.875122,11.957739,83.977654,0.6536239472602277,0.22392642,0.33060312,0.64291078
3.2014,88969.2328,-7.59201,-0.53151,2.15718,0.98777,0.14111,-2.18323,21.54,-18.24,-13.68,44.970013,17.367395,78.069862,0.6731203039764054,0.20580333,0.34645838,0.62009728
3.2275,88969.2527,-8.011,-0.249,2.27449,1.25227,0.29932,-1.13438,22.68,-17.16,-13.68,44.313801,22.317097,73.079659,0.6865904973048804,0.19057319,0.36430383,0.59963161
3.2434,88969.2727,-3.66552,9.0836,-16.63491,-0.57666,-4.82339,-2.1759,23.82,-16.74,-13.2,45.984875,27.386499,68.663223,0.6864276594715133,0.19049087,0.39398867,0.58077812
3.2635,88969.2937,-1.652,0.91459,2.3535,-1.96393,-6.64744,-3.4239,24.6,-16.26,-13.38,43.463715,23.785378,64.329086,0.7288583653732343,0.20479886,0.35493174,0.54849464
3.2843,88969.3147,-17.60217,1.55863,9.42837,-2.6029,-0.54734,-2.31946,24.54,-14.94,-14.22,39.485977,22.077,59.048664,0.7719714451524992,0.19969063,0.32019863,0.51152378
3.304,88969.3348,-12.39239,-0.23224,8.69335,-2.88878,0.59682,0.27428,24.06,-13.08,-15.54,35.214302,24.418606,57.26437,0.7870189794754466,0.16290131,0.3185958,0.50255448
3.3251,88969.3548,-8.45153,2.02549,7.11078,-2.95842,0.7367,0.53267,23.82,-11.34,-17.52,31.715818,25.765421,58.773621,0.7871729465796725,0.1268577,0.31758496,0.51323062
3.3464,88969.3747,-10.01495,2.57377,7.93199,-3.27363,-0.34453,0.67623,23.46,-9.48,-19.44,28.249601,26.704638,60.595997,0.7862433968487541,0.0920219,0.31315368,0.52467901
3.3662,88969.3947,-9.74679,3.37104,19.96285,-2.86007,0.48564,1.35062,23.52,-8.28,-20.46,24.746222,25.623579,63.139416,0.7866191161349679,0.06462256,0.29393151,0.53912759
3.3856,88969.4148,-9.3326,5.46117,17.33641,-1.47463,-0.96822,1.79472,23.58,-7.38,-21.06,22.76696,24.251411,66.296242,0.7798061928038998,0.04896602,0.27793035,0.55880171
3.4112,88969.4358,-6.98867,7.87214,16.86476,-0.20464,-0.62858,1.84665,23.22,-6.78,-21.3,22.451754,22.131256,69.124863,0.7715375131962022,0.05053662,0.26342246,0.57687479
3.4309,88969.4557,-4.86981,9.69412,18.55506,0.16738,0.00672,1.73486,22.5,-6.3,-21.48,23.087093,20.707157,71.293777,0.7622632720715822,0.05734715,0.25781685,0.59092849
3.4446,88969.4757,-5.43723,10.1155,17.46091,0.59254,0.967,1.86192,21.96,-6.42,-21.78,24.078045,20.232937,73.197403,0.7511230571187044,0.06242912,0.26033756,0.60344106
3.4644,88969.4958,-6.07888,9.87848,15.2367,0.93523,1.09284,1.92667,21.12,-7.32,-22.08,25.55122,20.616299,75.02282,0.7370134074966753,0.06631504,0.2709077,0.61564809
3.4843,88969.5157,-5.86819,8.56885,14.77462,1.45386,0.70921,2.02929,21.0,-7.92,-22.14,27.454832,20.945503,76.679611,0.7224913987009386,0.07349274,0.28324899,0.62639844
3.5047,88969.5357,-4.8722,7.48667,12.81856,1.8497,0.72693,2.30296,21.06,-9.3,-21.72,29.990463,20.885225,78.288513,0.7071363921293791,0.08682073,0.29641369,0.63604969
3.5377,88969.5558,-3.85227,7.32386,8.94713,1.63773,0.44838,2.33228,21.3,-10.92,-21.6,32.914078,20.613413,80.118973,0.6895559343027968,0.10289893,0.31071171,0.64605159
3.5496,88969.5758,-4.16591,5.40371,7.85298,0.96883,0.10079,2.34572,21.42,-12.42,-20.7,35.400726,19.739529,82.174278,0.673152653591096,0.11844783,0.31993601,0.65610713
3.5675,88969.5957,-3.39498,3.33273,8.69335,0.54367,0.35736,2.5412,21.12,-14.1,-20.4,36.811859,18.443771,84.628304,0.6585033601711089,0.12810017,0.32225516,0.66791862
3.5883,88969.6157,-3.58412,2.6432,8.59758,0.6353,0.6298,2.77333,20.82,-15.6,-20.28,37.758076,17.197592,87.620354,0.6416496572823416,0.13293998,0.32357216,0.68257874
3.6049,88969.6358,-2.31759,1.83635,7.83383,1.07329,0.68295,3.01034,20.22,-16.68,-19.26,38.80357,15.916871,90.951088,0.6222323088846906,0.1375872,0.32612762,0.69823885
3.6298,88969.6557,-0.10295,1.35033,5.76284,1.44042,0.60109,3.047,19.44,-17.94,-18.78,40.202534,14.394112,94.553413,0.6004800207310923,0.14490488,0.33031291,0.71366638
3.6464,88969.6767,1.40779,1.3216,5.83706,1.72203,0.37507,2.91199,18.42,-19.62,-17.88,41.871174,12.235702,98.549828,0.5770286626868583,0.15636265,0.3341926,0.72863156
3.6691,88969.6968,1.44131,0.85712,5.78439,2.11848,0.54917,2.9181,17.22,-20.82,-16.8,43.46883,9.80283,102.494888,0.5546585539783173,0.16905239,0.33740932,0.74157274
3.6895,88969.7168,0.86431,0.19872,4.65912,2.62855,0.76969,3.30967,15.72,-22.32,-16.14,45.267662,7.230905,106.823685,0.5295717376070846,0.18219745,0.34308141,0.75409085
3.7095,88969.7378,0.94571,-1.17555,2.09253,2.7941,1.07573,3.8399,14.46,-23.88,-15.3,47.992676,4.19664,112.115158,0.4974062912534218,0.19917043,0.35583064,0.76570404
3.7282,88969.7577,3.69186,-0.88107,0.5794,2.52226,1.45142,4.04332,12.96,-25.08,-13.92,51.489784,0.165063,119.116791,0.45582730142691125,0.2189565,0.37514293,0.77688307
3.7478,88969.7777,5.88734,1.2402,-3.10289,2.00181,1.02381,3.89976,10.86,-27.06,-12.24,54.113892,-4.334693,126.724022,0.4143729729774346,0.23390299,0.3912029,0.78774661
3.7683,88969.7977,5.60004,1.86508,-3.14359,1.17042,-0.45876,3.75682,8.82,-28.62,-10.32,55.618576,-10.165343,134.637344,0.3778637973496904,0.25149,0.39854139,0.79695451
3.7917,88969.8177,5.533,0.03591,-0.96007,0.76725,-0.67867,3.92909,6.36,-29.88,-8.4,55.759251,-17.439528,142.561539,0.3475436579567887,0.27525479,0.39475444,0.80474663
3.8112,88969.8377,7.36217,0.45969,-0.11253,0.51007,-0.58338,3.94497,3.9,-30.9,-7.14,54.890087,-24.719357,150.507843,0.31605807034052796,0.29829696,0.38703579,0.81322169
3.8267,88969.8578,7.86256,0.60573,-0.03112,0.24984,-0.09957,3.9468,1.56,-31.56,-6.3,52.399628,-34.25412,160.270081,0.27500386491679807,0.33261544,0.37041509,0.82251596
3.8477,88969.8777,8.23127,-0.17478,-0.43096,-0.28039,0.41905,4.30293,-0.78,-31.68,-5.7,48.582272,-42.120743,168.777908,0.2302847208683502,0.3635028,0.35003024,0.83205378
3.8721,88969.8977,10.50336,0.10056,-0.0838,-0.97494,0.60598,4.55217,-3.48,-31.62,-5.4,43.519455,-47.673317,175.371994,0.1839953332263755,0.3887201,0.32366255,0.84278405
3.8859,88969.9178,13.71878,1.45567,0.35913,-1.54427,0.76786,4.43061,-6.18,-31.38,-5.64,37.670891,-51.20451,179.986633,0.13960992765954267,0.40901491,0.29110464,0.85350686
3.9059,88969.9378,18.25339,4.30717,0.21308,-2.07205,0.51801,3.70123,-8.58,-30.36,-6.12,31.858315,-53.254429,-177.145935,0.10155716274914413,0.42473066,0.25599781,0.86241239
3.9286,88969.9577,19.79526,5.20021,3.28245,-2.42575,-0.06597,2.36283,-10.98,-29.4,-7.14,26.996954,-53.764629,-176.464874,0.07874088225509832,0.43303806,0.22165805,0.87014115
3.9501,88969.9778,19.3643,4.96797,7.2664,-2.16185,-0.44532,1.29503,-13.02,-28.38,-8.46,23.436909,-53.584904,-177.367249,0.07144515428781086,0.43708345,0.19139028,0.8759129
3.9672,88969.9978,19.33557,4.58011,8.70053,-1.4282,-0.41966,0.61025,-14.88,-26.88,-9.6,21.022972,-53.690533,-178.521973,0.07106135536830104,0.44186792,0.16848496,0.87824589
3.9873,88970.0177,19.19431,5.09965,7.71172,-1.08795,-0.06109,-0.07575,-16.02,-25.86,-10.68,19.698223,-53.762863,-179.464005,0.07323073889199787,0.4447633,0.1546527,0.87915039
4.0077,88970.0378,18.32283,6.16986,6.46674,-1.01648,0.05253,-0.77091,-16.86,-24.78,-11.46,19.187832,-53.360458,179.354675,0.07979411571898923,0.44356233,0.14642316,0.8805939
4.0274,88970.0578,17.21431,6.22253,5.57131,-0.9279,-0.33598,-1.41904,-17.22,-24.42,-12.36,19.347048,-52.833698,177.767731,0.09194019738608503,0.44142076,0.14191645,0.88122326
4.0486,88970.0777,16.8049,6.62476,6.0286,-0.82222,-1.05741,-2.19606,-16.92,-24.48,-13.08,20.147041,-52.704273,175.79686,0.10994255159380006,0.44249761,0.1406031,0.87882835
4.069,88970.0978,14.99728,6.63194,6.21535,-0.64507,-1.55404,-2.98774,-16.8,-24.6,-13.5,21.805216,-53.174118,173.324341,0.1356338110554043,0.44858107,0.14326474,0.87169588
4.0893,88970.1178,14.85602,6.11958,6.39491,-0.5901,-1.82038,-3.6542,-16.38,-25.62,-14.1,24.272467,-53.871086,170.43219,0.1675916311343469,0.45695224,0.14984283,0.86061305
4.1078,88970.1377,14.66448,5.04698,6.71813,-0.51679,-1.94438,-4.55217,-15.0,-26.22,-14.28,27.457527,-54.487839,167.01619,0.20559423706190624,0.46570539,0.15936618,0.84584391
4.1358,88970.1577,12.13381,4.26168,6.43801,-0.43982,-1.98653,-5.42204,-14.22,-26.82,-14.22,31.598589,-54.658295,162.852463,0.25104077097200667,0.47288051,0.17331734,0.82663393
4.1487,88970.1778,8.56885,3.05021,7.185,-0.3262,-2.27486,-6.06711,-12.66,-27.78,-14.46,36.546566,-54.202614,157.908386,0.30215220462527975,0.47805595,0.19106986,0.80228353
4.1678,88970.1977,5.1188,1.7358,8.03255,-0.08125,-2.53876,-6.03107,-10.26,-28.38,-14.1,40.994808,-53.525311,152.392853,0.35267201774496715,0.48420277,0.20298968,0.77457428
4.1913,88970.2187,3.25133,1.07021,7.48188,0.14539,-2.14353,-5.48313,-8.04,-28.8,-13.8,45.430084,-52.329342,146.386505,0.4023869644292631,0.48958826,0.21416606,0.74331754
4.2087,88970.2387,2.51631,1.69988,4.97515,0.01405,-1.34879,-5.02131,-4.74,-29.82,-13.74,48.945549,-50.287498,140.788071,0.4422753341903833,0.49013048,0.22350238,0.7170853
4.2289,88970.2588,1.07978,1.77889,3.72777,-0.53939,-0.78557,-5.07263,-1.38,-29.82,-13.38,51.772621,-46.615944,134.449783,0.4791276035723926,0.48343429,0.2318932,0.69494861
4.2478,88970.2787,-1.39582,1.14682,4.5011,-0.86926,-0.25412,-5.06224,1.74,-29.58,-13.5,53.839268,-40.434696,126.15744,0.5183357317028616,0.46709886,0.23929195,0.67519337
4.2681,88970.2987,-3.1795,0.38307,5.74608,-0.82222,0.19059,-4.73421,4.74,-29.4,-14.04,54.932789,-32.033665,116.307167,0.5580995527353709,0.44188201,0.2474111,0.65730733
4.2904,88970.3188,-3.37343,0.72784,6.16746,-0.52351,0.60415,-4.21802,7.5,-27.72,-14.34,55.130508,-22.755159,106.186119,0.5948841604217795,0.41226953,0.25773713,0.64009237
4.3119,88970.3398,-4.53462,0.47645,4.88417,-0.1741,0.94806,-3.89549,10.44,-26.82,-15.0,54.948692,-13.657987,96.854401,0.6255949154921908,0.38289043,0.27269036,0.62262821
4.3389,88970.3608,-6.57927,1.50595,2.70545,-0.06414,0.71044,-3.30906,13.08,-25.68,-14.94,54.748928,-4.57418,87.883232,0.6516403486799486,0.35540813,0.2932983,0.60251641
4.3604,88970.3806,-7.26161,2.03028,0.96247,-0.27611,0.50457,-2.73057,15.6,-24.24,-14.7,54.075203,3.46337,79.934029,0.6735161814670914,0.33094424,0.31249043,0.58241016
4.3723,88970.4007,-9.1267,2.56898,0.01676,-0.81062,0.08919,-2.3219,17.58,-23.52,-14.88,52.579937,11.380376,72.37574,0.6941094665009246,0.30322221,0.33196813,0.56219703
4.3951,88970.4207,-9.22486,2.99275,0.71826,-1.1472,-0.7813,-1.6921,19.02,-21.9,-14.34,50.421021,17.420509,66.414543,0.7129411867733336,0.27723804,0.34522489,0.54375887
4.4246,88970.4408,-6.8139,4.14436,2.68869,-1.21929,-2.50516,-1.23273,20.22,-20.76,-14.58,48.080788,20.511528,62.536171,0.7304872674293539,0.25824854,0.34705079,0.5284428
4.4322,88970.4607,-6.94797,4.96557,6.66067,-0.94012,-3.93764,-1.22356,21.0,-19.44,-14.82,45.834564,20.389568,59.86512,0.7512166176867795,0.25078681,0.33251533,0.5120675
4.4564,88970.4807,-10.68772,4.21619,9.71806,-0.68783,-4.25773,-0.63469,21.12,-17.88,-15.48,43.825798,18.64237,57.468788,0.7737056565438749,0.25067869,0.30880785,0.49313027
4.4691,88970.5008,-14.65012,4.51786,8.83939,-0.42822,-3.2608,0.69089,20.88,-16.86,-17.1,42.381344,16.400997,55.956146,0.7908048059260063,0.25357097,0.28529456,0.47847313
4.4901,88970.5207,-9.59117,5.66229,9.36612,-0.6524,-2.5693,2.00669,20.1,-16.32,-18.9,41.59993,13.760526,56.676739,0.7966781245790568,0.25714165,0.2659139,0.47798738
4.5091,88970.5407,-4.57293,6.09803,12.81377,-0.74037,-0.82772,2.28219,18.48,-16.08,-20.58,40.753204,10.596835,59.225964,0.7956105392768656,0.25864145,0.2465765,0.48919168
4.5294,88970.5607,-5.25048,5.83467,10.61589,-1.0794,1.35184,2.6255,16.86,-16.08,-21.78,39.769501,9.430178,62.18383,0.7881202916586828,0.25036186,0.24124762,0.50792217
4.549,88970.5807,-6.30633,7.40527,9.59596,-1.52105,1.99936,3.26813,15.72,-16.68,-22.26,38.527142,9.818172,65.885246,0.7739697906935664,0.23192351,0.24654381,0.53516203
4.5698,88970.6007,-2.71502,9.87129,10.99657,-1.55771,1.76662,3.78675,14.46,-16.8,-22.86,37.225212,9.79333,70.743118,0.7541763743634878,0.21247655,0.25004703,0.56881297
4.5913,88970.6207,2.93769,12.33972,13.31416,-1.02442,1.72875,3.55829,13.74,-17.16,-23.46,36.266994,8.601998,76.486298,0.7298335289778105,0.19963352,0.24808601,0.60493207
4.6135,88970.6407,7.06289,14.121,14.13058,-0.24984,1.69576,3.00301,13.44,-17.82,-23.82,35.848431,7.609602,81.617546,0.7052247597736307,0.19116542,0.24847622,0.6359036
4.6399,88970.6607,7.97509,14.93982,13.74272,0.52718,2.27792,1.94255,12.72,-18.12,-24.12,36.20433,7.37477,85.630844,0.6822148688895544,0.18590434,0.25557622,0.65932029
4.6546,88970.6807,3.69904,13.52485,12.49294,1.08917,2.64382,1.34451,12.72,-18.72,-24.24,37.216694,8.720539,88.026741,0.6627511647035647,0.17875917,0.27289441,0.67404354
4.6698,88970.7007,1.80523,11.81539,11.23838,1.70554,2.55891,1.34818,13.14,-19.86,-23.7,38.858425,10.742485,89.592171,0.6443304287560577,0.17281322,0.2959893,0.68364042
4.6898,88970.7207,1.72861,10.05086,8.76038,2.10749,2.27059,1.28526,13.2,-20.7,-22.5,41.204548,12.712937,90.936668,0.624644643350039,0.17138039,0.32197759,0.69049132
4.7152,88970.7407,1.51314,8.97826,8.18338,2.31029,1.63345,1.18019,13.08,-21.66,-21.24,43.942596,14.411068,91.932175,0.6057722711449076,0.17438108,0.34770885,0.69406754
4.7309,88970.7607,1.92973,8.14507,8.54969,2.74095,1.16492,0.96517,12.96,-22.14,-19.08,46.963654,14.974578,92.964378,0.5885200304184682,0.18536334,0.3687782,0.69518864
4.7506,88970.7807,1.72622,6.84502,7.00304,3.04455,1.2425,0.73059,12.66,-22.86,-17.4,50.270493,14.935909,93.91922,0.5722950972805317,0.20144543,0.38811716,0.69373131
4.7701,88970.8007,-0.4118,5.7796,4.43406,2.90344,1.80755,0.67134,12.66,-23.64,-16.14,53.661552,15.534687,94.442062,0.5557205762685492,0.21521778,0.41015574,0.69038266
4.7995,88970.8207,-3.20344,4.42927,2.00395,2.38299,2.61084,1.06168,12.96,-24.42,-14.28,56.733727,17.149332,94.740952,0.5371520931001773,0.22165126,0.43451047,0.6881417
4.8135,88970.8407,-4.76207,3.7158,-0.63207,1.48318,2.96209,2.14841,12.9,-25.5,-12.84,59.447357,19.210184,95.82225,0.512536373086724,0.22014588,0.45991662,0.69088274
4.8306,88970.8607,-1.10373,4.18746,-0.42617,0.60048,2.40864,2.83991,13.08,-26.64,-10.68,61.691967,18.873768,99.815727,0.4811256399324977,0.21805099,0.47759429,0.70205098
4.8492,88970.8807,0.87628,3.80439,2.05422,0.25534,1.52411,2.83319,12.78,-27.84,-8.46,63.162086,15.677009,106.072304,0.45040233418450776,0.21913451,0.48439988,0.71726882
4.8698,88970.9007,-0.53391,1.22583,3.89537,0.43005,1.05863,3.07143,11.82,-28.98,-7.14,64.107513,11.013145,112.979851,0.42329674501176645,0.22383396,0.4853633,0.73153311
4.8911,88970.9207,-1.7741,-0.2083,3.2609,0.60109,1.16981,3.76232,10.8,-30.12,-6.06,65.146942,4.705983,121.306358,0.3933884983113403,0.23347731,0.4858503,0.74477065
4.9121,88970.9407,-1.45807,-1.80523,0.97205,0.45632,1.31031,4.77452,8.52,-30.6,-5.7,65.861336,-3.952605,132.347351,0.356008156020062,0.24595308,0.48530433,0.7597664
4.9318,88970.9607,2.86586,-3.75411,0.00479,-0.16982,1.44409,5.67799,6.3,-31.08,-5.22,65.290543,-14.986695,146.131882,0.3104613730572979,0.26082858,0.47965518,0.77814722
4.9493,88970.9807,9.23922,-1.39343,1.19231,-0.71471,1.17775,5.57537,4.02,-31.56,-4.86,62.619537,-25.774446,159.889679,0.25953395701537973,0.27607173,0.46552408,0.79982114
4.9753,88971.0007,7.27119,-2.13084,1.74298,-0.63347,0.70372,5.1441,1.02,-31.56,-4.68,58.821156,-33.525761,170.067825,0.21330262009837836,0.29100204,0.44668353,0.81871462
4.9964,88971.0207,6.53617,-4.40533,2.25773,-1.0287,1.11788,5.81849,-2.1,-31.68,-4.8,53.745407,-40.136261,178.604797,0.16529102486072708,0.31122944,0.42080805,0.83590412
5.0178,88971.0407,14.43464,-0.88585,5.17148,-1.89735,2.31029,5.75679,-5.52,-31.68,-4.86,46.023232,-45.29628,-173.739044,0.10391741189583587,0.33419839,0.37958986,0.85640186
5.0342,88971.0607,18.7466,2.13323,6.75404,-1.65239,2.25898,3.98406,-9.18,-30.96,-5.58,38.493382,-46.387444,-169.18515,0.04746619435383194,0.34162053,0.33668616,0.87617624
5.0513,88971.0807,15.32289,0.71826,6.83784,-0.53817,0.36835,2.7996,-12.66,-29.76,-6.42,33.068531,-46.620583,-166.472672,0.008136313630218574,0.34592623,0.30421767,0.88753617
5.0716,88971.1007,14.99967,0.73502,5.15472,0.2474,-1.0177,2.14597,-15.6,-28.26,-7.38,29.484879,-48.799385,-163.847321,0.019648075561078022,-0.36297917,-0.28557438,-0.88673973
5.0913,88971.1207,12.61026,1.66397,3.01669,0.21075,-1.42393,2.15513,-17.52,-26.46,-8.58,26.918781,-51.948036,-161.430969,0.040453527422601616,-0.38659576,-0.27522388,-0.87929463
5.109,88971.1407,16.82884,2.61686,1.51074,-0.22358,-1.15087,2.32617,-18.96,-25.08,-8.64,24.547695,-54.814568,-159.400513,0.058822311772849294,-0.40879983,-0.26610383,-0.870983
5.1397,88971.1607,20.96842,2.88501,0.30885,-1.03053,-0.58399,0.88453,-19.86,-24.48,-8.7,22.351719,-56.372898,-158.451706,0.07170889501059981,-0.42328063,-0.25444958,-0.86657184
5.1622,88971.1807,19.42655,1.403,2.41814,-2.06106,0.53695,-0.71166,-21.18,-23.82,-8.28,21.044647,-56.470989,-159.551498,0.06872632031887722,-0.42919677,-0.24089721,-0.8677761
5.1738,88971.2007,15.69878,1.1995,4.41012,-2.56991,2.215,-1.67133,-22.2,-23.22,-8.34,20.541265,-54.335472,-162.507736,0.05264768184273564,-0.41993612,-0.22509849,-0.87761754
5.1935,88971.2207,13.24472,1.47004,5.15711,-2.77394,2.69086,-1.93705,-22.5,-22.98,-9.42,20.287254,-50.259998,-166.227432,0.03260085102731614,-0.3959024,-0.20841822,-0.89373392
5.2158,88971.2407,16.07228,4.14676,6.63194,-2.58579,2.0916,-2.39581,-21.9,-22.44,-10.62,19.871731,-45.830719,-170.189407,0.01063544476766421,-0.36853629,-0.19114187,-0.90968823
5.2374,88971.2607,19.05306,6.96234,8.85615,-1.934,1.01587,-3.72994,-20.34,-22.5,-13.08,19.928995,-42.233364,-174.327103,0.01679834241055631,0.34641132,0.17877948,0.92073607
5.2539,88971.2807,16.78335,5.37977,8.1331,-1.35734,-0.6127,-5.41899,-18.84,-22.86,-14.88,21.526438,-39.544868,-179.298538,0.05751387839396601,0.33125186,0.1777716,0.92485762
5.269,88971.3007,15.40669,2.9712,11.63103,-0.97494,-2.22538,-6.44646,-16.86,-23.28,-16.92,24.468086,-38.264149,174.448441,0.1140836194554653,0.32962319,0.18445459,0.91886342
5.2901,88971.3207,15.42584,1.74058,13.5847,-0.24801,-2.41964,-7.50753,-14.94,-24.42,-18.24,28.454731,-37.648335,167.303223,0.1802640054296519,0.33657247,0.1966145,0.90308726
5.3091,88971.3407,11.35809,-0.56024,14.31972,0.34392,-2.34328,-8.27356,-12.3,-25.32,-17.88,33.687412,-36.121403,159.182297,0.25275464640613265,0.34161308,0.217342,0.87873662
5.3356,88971.3607,4.48434,-3.553,13.43147,0.9279,-2.04823,-8.28883,-9.54,-26.04,-18.3,39.589386,-33.119205,149.971802,0.3268643916757406,0.34310806,0.24405174,0.84609413
5.3577,88971.3807,-1.45567,-3.77805,11.93988,1.51617,-1.94622,-7.56007,-6.54,-27.24,-17.58,44.625431,-28.835142,140.203949,0.3938349386346975,0.3417398,0.26735571,0.8103264
5.3732,88971.4007,-3.74932,-1.88184,10.05804,1.93217,-1.41721,-6.44585,-3.12,-27.48,-16.86,47.904335,-23.773411,130.5755,0.4498303973081809,0.33708274,0.28219047,0.77742934
5.3914,88971.4207,-3.49314,-0.55545,6.85221,1.92606,-0.24679,-5.60896,0.66,-27.78,-16.8,50.38718,-17.810499,121.352623,0.495265998539582,0.32808691,0.29805985,0.74714851
5.4084,88971.4407,-3.37343,0.9074,3.47638,1.62185,0.40561,-4.96267,4.44,-27.6,-15.84,51.851501,-10.495027,112.260574,0.532319857235611,0.31093267,0.31565303,0.72133183
5.4297,88971.4607,-5.17626,1.18034,1.08218,1.10628,0.20342,-4.39762,7.92,-26.88,-14.82,52.180634,-2.289883,103.03183,0.5656535885511209,0.2876713,0.33302096,0.69740826
5.4484,88971.4807,-7.33344,0.22266,1.54187,0.65546,-0.25901,-3.9523,11.16,-26.1,-14.22,51.979568,5.385966,94.194344,0.5961562234903105,0.26704982,0.34938923,0.67172116
5.4686,88971.5007,-9.38766,-0.21308,2.00634,0.37874,-0.1686,-3.16245,13.74,-25.32,-13.32,50.314873,13.144083,85.351173,0.6281111526386483,0.24026431,0.36242771,0.64528722
5.4985,88971.5207,-10.63265,0.2083,1.31202,0.21564,0.10079,-2.0409,16.32,-24.54,-12.18,48.339306,19.766134,78.316559,0.6525556850264783,0.21388796,0.37613189,0.6220513
5.5154,88971.5407,-9.39485,1.1971,-0.17957,-0.02993,0.19303,-0.90775,18.3,-23.76,-11.46,46.566792,24.994366,73.565704,0.667037364495,0.19006285,0.39027506,0.60549372
5.5305,88971.5607,-8.23366,2.24337,-0.0814,-0.21014,0.04459,-0.75381,19.98,-23.22,-11.1,45.049908,28.886724,70.631836,0.6746703757847622,0.16952191,0.40245381,0.59507406
5.5503,88971.5807,-9.22725,2.9305,-1.68791,-0.6182,0.18509,-0.51985,20.76,-22.02,-10.68,43.640827,32.455002,68.112679,0.6803176798118877,0.1503959,0.41479579,0.58522934
5.5694,88971.6007,-9.93594,2.7246,-1.75734,-1.41049,0.16738,0.21747,21.12,-21.54,-11.1,42.06496,35.392605,66.747131,0.6825691122025688,0.12946028,0.42502075,0.58025581
5.5891,88971.6207,-10.74278,2.88501,-2.50194,-2.44285,0.87904,0.9163,21.48,-20.7,-11.7,40.350277,37.409348,67.139183,0.6796262687392746,0.10574536,0.43144387,0.58376557
5.6098,88971.6407,-8.02776,4.91769,-2.3104,-4.13311,1.17103,1.41476,21.42,-19.86,-11.58,38.369072,38.845242,69.668015,0.6686920613908911,0.0749832,0.43481022,0.59847182
5.6427,88971.6617,-9.1267,4.60166,2.29125,-5.70059,1.74646,1.22662,21.3,-19.86,-12.78,34.952572,39.291004,74.57032,0.653567405066646,0.03076537,0.42647713,0.62451613
5.6572,88971.6816,-9.46907,3.92888,10.98939,-6.35789,1.40927,1.72814,21.42,-18.84,-13.86,30.342413,39.249924,80.773331,0.6354874585321156,-0.02227681,0.40662569,0.65598398
5.6806,88971.7017,-8.01339,5.6144,20.89659,-5.251,0.70616,2.21133,21.12,-17.76,-15.12,25.788397,37.879551,88.001213,0.6129171328981661,-0.06795553,0.37421247,0.6925891
5.6976,88971.7217,-5.9041,8.52575,25.08884,-2.77822,-0.24984,2.58763,21.06,-16.98,-17.04,23.064106,35.998272,94.415329,0.5877226530663489,-0.09300996,0.34520435,0.72578591
5.719,88971.7417,-2.55222,11.44189,25.88371,-0.43188,-1.07879,2.72568,21.12,-15.72,-18.12,22.711937,33.850651,99.143761,0.5646223686538538,-0.09511171,0.32849157,0.75116485
5.7309,88971.7617,-0.79009,11.22881,24.83745,1.74341,-0.51068,2.58518,20.46,-15.36,-19.2,24.466116,31.58593,102.151031,0.5459862961456942,-0.07882422,0.32573694,0.76784188
5.7571,88971.7817,-0.16041,10.57519,17.22149,2.88939,0.53145,2.64016,19.38,-16.2,-20.1,28.079399,30.64846,103.771248,0.5270626559356905,-0.05730625,0.34233224,0.77571231
5.7713,88971.8017,0.79487,10.82179,11.64779,2.97797,0.98044,2.48072,17.94,-17.1,-20.1,32.508064,30.916025,104.765511,0.5056969561763356,-0.03801901,0.36987197,0.77847278
5.7944,88971.8217,0.88107,10.65659,8.19775,2.77027,1.13682,2.204,16.62,-19.08,-19.92,36.821552,31.671558,105.363106,0.48484440833505793,-0.0217068,0.3986035,0.77818376
5.811,88971.8417,1.13725,10.3214,5.99748,2.45568,1.06352,1.98714,15.84,-21.12,-18.96,40.764458,32.595665,105.743576,0.4651471858597916,-0.00795914,0.42530501,0.77633137
5.834,88971.8617,0.85952,10.14423,3.95762,2.0464,0.84299,1.71348,15.3,-22.5,-17.16,44.399361,32.480633,106.730576,0.4456390771284383,0.00867769,0.44560796,0.77637881
5.8617,88971.8817,-0.50039,9.55526,4.37181,1.41537,0.9389,1.46424,14.4,-23.88,-15.6,47.559803,31.869682,107.97123,0.42784912879142695,0.02476417,0.46134669,0.77684689
5.8727,88971.9017,-1.35512,6.95037,6.17465,0.7367,1.43676,1.52961,13.92,-24.78,-14.1,49.784241,31.229139,109.659874,0.4106003257520767,0.03391182,0.47201112,0.77939904
5.8944,88971.9217,-2.26731,4.96318,8.47069,0.62919,1.83748,1.82221,13.32,-25.8,-12.78,51.226162,30.553713,112.232056,0.3904062523825764,0.0352506,0.47865412,0.78564024
5.9165,88971.9417,-2.73418,3.29442,9.14824,1.18508,1.86436,2.46484,12.54,-26.52,-12.24,52.577209,29.717445,115.546448,0.36605293319239657,0.03378982,0.48474112,0.79365581
5.9349,88971.9617,-1.28808,2.61686,7.08205,1.97432,1.56565,3.0189,12.12,-27.24,-11.88,54.684956,28.195044,119.606476,0.3366277373940505,0.03706012,0.4938485,0.80088824
5.951,88971.9817,0.30646,2.37265,3.51469,2.39765,0.90469,3.27485,10.98,-28.02,-10.44,57.601334,25.634054,124.207458,0.3053266886847158,0.04798033,0.50612497,0.80517763
5.9719,88972.0017,1.87945,3.74214,0.81642,2.4343,-0.21686,3.10992,9.6,-29.04,-9.0,60.921314,21.234682,129.749176,0.2751640429814191,0.06777389,0.518556,0.80671626
5.9944,88972.0217,2.20267,3.44047,-0.04549,2.09893,-0.82711,2.82159,7.5,-30.0,-6.78,64.264793,15.102373,135.820984,0.2509245956831325,0.09516642,0.53041065,0.80414224
6.0124,88972.0417,0.87388,1.18513,0.65601,1.40255,-0.57116,2.96392,5.64,-30.72,-4.68,67.098953,8.148118,142.386307,0.2308266841678282,0.12166559,0.54091704,0.79957819
6.0313,88972.0617,-0.01197,-0.38068,1.41737,0.78069,0.24312,3.58944,3.78,-31.2,-3.06,68.760506,-0.803217,151.569946,0.20649590587242694,0.14426869,0.54595864,0.7990464
6.0501,88972.0817,2.05183,-0.71108,1.15161,0.27917,0.91447,4.14533,1.8,-30.9,-2.1,69.043915,-11.602909,163.744965,0.17259467470214987,0.16215639,0.54638213,0.8033573
6.0746,88972.1017,7.23767,-0.30646,0.78769,-0.14233,1.22295,4.20947,-0.06,-31.02,-1.68,67.831253,-22.302465,176.520645,0.1325793831799857,0.17703973,0.54231244,0.81054109
6.0903,88972.1217,10.29746,0.30646,1.48441,-0.39828,0.82833,3.54791,-2.22,-30.66,-1.32,65.235558,-31.108356,-172.556168,0.09156178474939759,0.19167267,0.53285736,0.81910992
6.1138,88972.1417,8.12592,0.07901,2.36068,-0.15577,0.40989,2.93643,-4.74,-30.54,-1.5,60.900642,-39.612221,-162.963043,0.049680655247483926,0.21825005,0.5148201,0.82756209
6.1311,88972.1617,5.97832,-0.87149,1.63763,-0.20769,0.54184,2.94009,-7.08,-30.78,-1.32,56.646168,-45.608669,-156.274704,0.01314381103135233,0.24399342,0.4981533,0.83194816
6.1505,88972.1817,6.40688,-1.66636,1.31442,-0.77946,0.99021,3.52836,-8.94,-30.18,-1.44,51.813026,-49.85178,-151.097504,0.025262206331219388,-0.26822323,-0.4782773,-0.83586419
6.1738,88972.2017,10.51773,-0.4142,1.69749,-1.22601,1.08062,3.68168,-11.04,-30.0,-1.32,46.159969,-52.483204,-147.202271,0.06667499600844912,-0.29095042,-0.45214909,-0.84051383
6.197,88972.2217,16.51281,2.09253,1.95606,-1.33902,0.80023,3.01462,-13.08,-29.34,-1.68,40.571449,-54.122482,-144.44751,0.1048141871042152,-0.31209135,-0.42428389,-0.84356159
6.2152,88972.2417,18.33958,2.67672,2.18591,-1.53022,0.27,1.66827,-14.94,-28.2,-2.7,35.963501,-55.193665,-143.044724,0.13151873460769137,-0.33119401,-0.39913467,-0.84481055
6.2348,88972.2617,15.13614,2.11887,4.20661,-1.78006,0.12339,0.77152,-16.5,-27.54,-3.48,32.580803,-55.741493,-143.285889,0.14277096358515345,-0.34778187,-0.37666571,-0.84663284
6.2519,88972.2817,13.23515,1.86748,6.32788,-1.75685,0.31215,0.60781,-17.7,-25.38,-2.82,29.809544,-55.73811,-144.429855,0.14644671667464465,-0.36068344,-0.35449255,-0.85017401
6.2733,88972.3017,13.16811,2.33435,6.88094,-1.52472,0.41905,0.51801,-18.66,-24.66,-3.78,27.472612,-55.278133,-145.660309,0.14879301644715387,-0.36845061,-0.33401138,-0.85471702
6.2908,88972.3217,14.32451,3.20584,6.43561,-1.3494,0.26389,0.29871,-19.44,-24.06,-4.38,25.881168,-54.447731,-146.880219,0.14881167547054397,-0.37060058,-0.31794909,-0.85989457
6.3107,88972.3417,16.86476,5.43963,6.44759,-1.17714,-0.32193,-0.25534,-20.1,-23.28,-5.88,24.8146,-53.753643,-148.147766,0.14563670751974908,-0.37198022,-0.30544531,-0.86436325
6.3371,88972.3617,17.45134,6.83305,6.28239,-0.8717,-1.12888,-1.13865,-20.4,-22.86,-6.72,24.454037,-53.708836,-149.631104,0.13605086301920016,-0.37657499,-0.29798475,-0.86653709
6.3519,88972.3817,15.28698,5.95438,5.17148,-0.85888,-1.62734,-1.83321,-20.4,-22.14,-7.44,25.112759,-54.402569,-151.506805,0.11732225152781642,-0.38487822,-0.29721463,-0.86589128
6.3735,88972.4017,12.86405,5.26246,5.98072,-1.22234,-1.82343,-2.08427,-20.34,-22.26,-7.74,26.292099,-55.283161,-153.917145,0.09186825298109805,-0.39466387,-0.29822648,-0.86421156
6.3899,88972.4217,13.15135,5.75566,8.37252,-1.18264,-1.8497,-2.18445,-20.04,-22.44,-7.5,27.469872,-56.113518,-156.756256,0.06330758796548973,-0.40531927,-0.2972751,-0.86216933
6.4132,88972.4417,16.8073,7.513,9.32063,-0.79901,-2.0354,-2.81548,-19.26,-23.34,-7.68,28.947765,-56.926941,-159.53653,0.03397491091776558,-0.41510332,-0.29820335,-0.85884207
6.4362,88972.4617,17.49683,7.61596,9.35654,-0.35003,-2.23088,-4.06958,-18.72,-24.54,-7.92,31.48497,-57.818638,-162.503159,0.0015067159378328978,0.42375508,0.30551049,0.85269731
6.4519,88972.4817,13.46978,5.59285,7.86016,-0.15211,-2.16124,-5.1667,-17.7,-25.14,-7.98,35.577728,-58.463631,-165.991379,0.04675362429429308,0.42901498,0.32131761,0.84292066
6.4743,88972.5017,9.30147,3.94325,6.32788,-0.27184,-2.00181,-5.5998,-16.44,-26.04,-7.98,40.62923,-58.254074,-170.211899,0.09848094098003422,0.42893475,0.34110954,0.83063877
6.4894,88972.5217,8.76517,3.77566,6.52659,-0.32865,-2.17224,-5.78856,-14.34,-27.06,-7.44,45.92046,-57.046478,-175.317154,0.1530677232438358,0.42531484,0.36042085,0.81594998
6.5126,88972.5417,9.1243,3.2633,7.75721,-0.0336,-2.61695,-6.24671,-11.52,-27.54,-6.6,50.699898,-55.146973,178.772095,0.20675430909390938,0.42235699,0.37501201,0.798895
6.5383,88972.5617,6.56251,1.38145,6.84502,0.25595,-2.41414,-6.62056,-8.16,-28.68,-6.72,55.015114,-52.512283,171.853592,0.26030666041308465,0.42080399,0.38529587,0.7789169
6.5556,88972.5817,3.06218,0.36152,4.35984,0.01283,-1.40255,-6.63094,-4.56,-29.34,-6.6,59.263279,-47.855503,163.390106,0.3131884342929755,0.41412336,0.39626905,0.75722235
6.5896,88972.6017,0.03591,-0.59616,2.65517,-0.54,-0.62247,-6.1508,-1.14,-29.64,-6.42,62.394417,-39.686932,152.431656,0.3624750584710069,0.39809066,0.40401354,0.73953277
6.5923,88972.6217,-1.85551,-0.38786,2.17394,-0.8998,-0.32987,-5.47396,2.34,-29.58,-6.3,63.569828,-28.919386,139.692627,0.40706377339923944,0.37498742,0.40568861,0.72739279
6.6142,88972.6417,-2.81798,0.96965,1.42694,-0.94745,-0.27733,-5.02986,5.88,-28.38,-6.12,64.989464,-16.634644,125.781509,0.4494784284079087,0.35083547,0.417575,0.70747066
6.6311,88972.6617,-4.6256,1.01514,1.13006,-1.1863,-0.27794,-4.83255,9.3,-27.36,-6.18,64.923553,-4.47781,112.122673,0.4881062680187779,0.3267808,0.42655307,0.68776381
6.6512,88972.6816,-7.82904,0.2083,0.64165,-1.55587,0.10079,-4.23696,12.24,-25.74,-6.96,63.375011,6.449002,99.854347,0.5243154481188788,0.30099693,0.43213916,0.66914117
6.6724,88972.7017,-9.88326,0.56503,-0.04788,-2.02624,0.82955,-3.26141,14.7,-23.82,-7.38,60.666142,14.562463,91.080177,0.5539677388027636,0.27279705,0.43416828,0.65589589
6.6909,88972.7217,-11.88961,0.87867,-1.04387,-2.65971,1.69088,-2.29197,16.68,-21.9,-7.8,56.278572,24.431265,82.593452,0.5816432456263736,0.22316736,0.44437978,0.64375001
6.7194,88972.7417,-12.52646,1.14203,-0.9481,-3.29562,2.61817,-1.48379,19.2,-20.22,-8.58,51.357567,31.353769,78.533791,0.5976780560848152,0.16886812,0.45260245,0.63985586
6.7347,88972.7617,-13.75708,0.06464,-2.73897,-3.99872,3.32433,-0.62919,20.94,-17.52,-7.74,46.27652,37.046844,77.507576,0.6018159829970775,0.10769442,0.46105543,0.6431542
6.7524,88972.7817,-13.23036,0.35913,-3.27527,-4.78063,2.72079,0.12401,22.8,-16.02,-8.34,41.299919,41.427807,79.080482,0.5955745759108513,0.04367489,0.4652386,0.65340376
6.7714,88972.8017,-11.89679,1.66636,1.38385,-5.35668,1.19668,0.21502,24.24,-14.88,-8.46,36.350235,43.424717,82.609138,0.5869268538833224,-0.01430943,0.45532379,0.66932231
6.7959,88972.8217,-13.27585,1.93451,6.49786,-5.28337,1.27365,0.23335,24.66,-13.32,-8.46,31.192579,43.724945,86.831329,0.5805141371996463,-0.06525922,0.43202493,0.68709463
6.8127,88972.8417,-16.1848,0.23703,9.55526,-5.42876,1.06901,0.87598,25.74,-11.64,-8.82,26.220573,44.136169,91.300392,0.5699990487074663,-0.11471719,0.40610543,0.70499605
6.8343,88972.8617,-17.18797,0.45729,14.63336,-5.06774,-0.00672,2.04457,25.8,-10.32,-9.12,22.616808,42.817223,96.955978,0.5515968640826444,-0.14696234,0.37395757,0.73095739
6.8521,88972.8817,-14.33409,1.64482,18.48803,-3.60533,-1.49784,3.99323,25.8,-8.94,-10.02,20.515028,40.094955,103.121483,0.5268688422870724,-0.16021444,0.34073392,0.761998
6.8706,88972.9017,-5.26246,2.46603,19.40261,-2.15819,-3.17955,4.19848,25.62,-8.28,-11.22,20.491585,35.58559,109.451302,0.49672741203301285,-0.14768663,0.31192109,0.79633898
6.892,88972.9217,-3.00233,1.94409,20.30283,-0.71532,-2.84419,3.7892,23.82,-8.7,-12.54,21.254292,29.894236,114.728287,0.47205706780868834,-0.11738849,0.28675953,0.82531875
6.9101,88972.9417,-3.5099,2.7246,18.80406,0.68722,-1.67744,3.69512,22.86,-9.12,-14.52,22.819576,25.389334,118.778534,0.44952297409769615,-0.08712348,0.2757839,0.84515196
6.9331,88972.9617,-3.07894,1.78129,14.85363,1.65422,-1.32741,4.36036,21.3,-10.56,-16.02,25.56636,22.040804,122.392548,0.42414078324754606,-0.05871512,0.28013059,0.85917634
6.9541,88972.9827,3.97437,2.26491,11.96622,1.65606,-2.71774,4.4978,18.9,-12.12,-17.22,29.179928,18.102745,126.723183,0.3930747863271672,-0.02455143,0.29061905,0.87202638
6.9839,88973.0027,5.62637,1.47962,12.2631,1.40927,-4.07447,3.75499,17.28,-13.86,-17.64,31.748104,11.422054,131.76709,0.36621729569818123,0.02384298,0.28751948,0.88467449
6.9997,88973.0227,2.99036,0.47166,10.26394,1.32375,-3.35915,3.42023,14.46,-15.42,-17.82,32.80986,4.084814,136.140732,0.34869901928815555,0.07369468,0.27459049,0.89307231
7.015,88973.0427,3.52905,0.76136,5.06613,0.72143,-2.33045,3.77942,11.52,-17.28,-18.24,33.158802,-2.179784,140.63266,0.3278751743115138,0.11325908,0.26248115,0.90042984
7.0327,88973.0627,6.77799,4.86502,4.07493,0.75442,-2.93948,3.58272,8.64,-18.78,-18.42,32.755894,-8.268579,145.881958,0.300154890145949,0.14862892,0.24857365,0.90886062
7.0639,88973.0827,9.46189,5.92565,4.04381,1.43553,-3.43062,1.96882,5.46,-19.98,-18.36,32.547573,-15.067307,150.671967,0.2764534690102549,0.19208334,0.23689921,0.91134858
7.079,88973.1027,13.4219,6.1124,-0.2897,1.47035,-3.79836,-0.06048,2.52,-21.48,-17.7,33.464264,-21.792498,153.856003,0.2657053167176059,0.2402781,0.23443721,0.90371805
7.0959,88973.1227,12.06917,6.05494,-0.74939,0.6127,-5.76535,-2.1533,-0.3,-21.78,-16.98,35.025219,-28.242666,154.69339,0.2742186165706904,0.2909413,0.23376878,0.88628972
7.1159,88973.1427,6.67264,3.7996,1.0319,-0.19426,-7.5674,-2.89,-2.4,-22.38,-16.62,36.690777,-35.35265,152.847626,0.3051870497034298,0.3505488,0.22385201,0.85666019
7.1322,88973.1627,2.14281,5.9065,3.49314,-0.15394,-7.70545,-2.48683,-3.66,-22.92,-16.08,38.40107,-42.966698,149.84787,0.34486564039983775,0.41355243,0.20553525,0.81718868
7.151,88973.1827,4.73573,8.95671,2.77249,0.53634,-7.79892,-1.85337,-4.98,-22.74,-15.3,40.408512,-50.763306,147.684219,0.3781450274646552,0.47321334,0.18775891,0.77318954
7.1714,88973.2027,10.70208,9.51456,-1.38385,0.72754,-8.37557,-2.12276,-6.18,-23.58,-14.46,42.59837,-59.962784,147.159912,0.4022408234343929,0.53553659,0.17018956,0.722799
7.1966,88973.2227,11.44189,4.81474,-3.30879,0.51862,-7.41896,-3.12885,-7.98,-24.18,-13.08,45.071476,-69.900223,147.031143,0.4253510092076322,0.59650958,0.1510869,0.66364568
7.2152,88973.2427,10.65659,3.24175,-6.04296,-0.32926,-6.58513,-3.82402,-9.84,-24.48,-12.0,48.255672,-78.355598,146.70546,0.45008469601742557,0.64315236,0.13842964,0.60383445
7.2387,88973.2637,11.54723,6.12197,-3.72298,-1.26449,-7.3597,-4.10196,-10.74,-25.62,-10.8,51.715267,-85.453773,145.253891,0.47980487446528874,0.67838329,0.12345643,0.54253286
7.2591,88973.2837,13.92468,10.00776,0.10056,-1.47157,-7.42201,-4.91685,-10.68,-26.04,-9.18,55.797623,-92.38002,142.371201,0.5169323694288753,0.70815581,0.10093062,0.47022259
7.2731,88973.3037,10.20409,7.72609,-0.25857,-1.43798,-7.76898,-5.99686,-9.78,-26.4,-8.16,60.69537,-98.817482,139.94429,0.5527685685736546,0.7282753,0.0844309,0.39614823
7.2951,88973.3237,2.19309,5.07571,2.76051,-1.01709,-9.73719,-6.18379,-8.4,-26.82,-6.9,66.786186,-106.955292,138.610184,0.5893558187367026,0.74341834,0.06930527,0.30852175
7.3233,88973.3437,2.30801,6.57687,6.22971,0.3262,-11.33155,-5.6389,-6.84,-27.48,-6.36,72.744316,-120.039459,140.451721,0.6195097390977891,0.75657558,0.04290752,0.20484145
7.3382,88973.3637,0.10534,6.2369,4.77404,1.53572,-11.66447,-5.4312,-5.28,-28.08,-6.72,76.99334,-144.922195,152.820007,0.6323328662082698,0.76944458,0.00698022,0.08978564
7.3538,88973.3837,-2.78685,7.15866,2.87304,1.54427,-10.32484,-4.60226,-3.84,-28.14,-6.18,78.147148,178.494385,176.910126,0.6297590327716895,0.77576494,-0.02920759,-0.02718888
7.3735,88973.4037,-6.5673,7.69736,2.39181,1.03847,-7.93147,-3.182,-2.64,-28.74,-6.06,76.49633,147.523148,-163.09848,0.6201917524317169,0.77126098,-0.0604253,-0.12987484
7.3925,88973.4237,-8.06128,8.60237,0.52912,1.08856,-4.419,-1.69149,-1.56,-28.68,-5.7,74.103722,129.79216,-153.605804,0.6085148186943172,0.76197797,-0.08388807,-0.20509042
7.4149,88973.4437,-6.18183,8.14268,-3.59609,0.90591,-1.49723,-0.3879,-0.54,-28.74,-4.2,72.149994,123.765282,-151.944901,0.5961915440799667,0.75886804,-0.09644509,-0.24366634
7.4355,88973.4637,-4.77404,8.31985,-4.9943,0.00733,-0.62186,-0.08674,-0.06,-29.22,-3.48,71.206635,123.019173,-152.831757,0.5884477007626949,0.75983667,-0.10209281,-0.25681627
7.4515,88973.4837,-5.17148,8.56645,-2.05662,-0.45204,-0.21686,-0.09163,0.42,-29.16,-2.64,70.864281,120.961243,-151.550995,0.5876638722595707,0.75748378,-0.10266463,-0.26519704
7.472,88973.5037,-6.93361,7.61117,-0.09577,-0.34636,1.64139,0.60476,0.84,-29.22,-2.22,70.64637,118.691589,-149.338669,0.5896766661787949,0.75485331,-0.09873036,-0.26968542
7.496,88973.5237,-7.27837,7.60159,-1.30963,-0.7648,4.3176,1.73913,0.78,-28.86,-2.46,71.114395,120.155434,-148.460892,0.5953186599700374,0.75738871,-0.08753415,-0.25356618
7.5131,88973.5437,-4.64475,8.6694,-0.15802,-1.6078,6.07505,2.35611,0.84,-28.62,-2.94,73.01239,124.410789,-147.544662,0.6100473914923135,0.76024878,-0.06764834,-0.21280901
7.533,88973.5637,-3.53863,8.31746,2.55461,-1.49418,8.04204,2.80631,1.08,-28.74,-3.24,75.991875,129.361343,-145.40126,0.6315150866180254,0.75841641,-0.03953386,-0.15630201
7.5557,88973.5837,-3.20584,7.82425,1.05824,-1.1527,10.56797,3.87227,0.66,-28.62,-3.84,79.282959,140.832901,-147.298553,0.6494280933223027,0.75636435,-0.00094874,-0.07845522
7.5757,88973.6036,0.21069,8.62391,0.3735,-1.40316,12.37124,4.96206,0.36,-28.8,-4.32,82.599678,171.568588,-165.991592,0.6600360389162303,0.74955845,0.04320754,0.02544928
7.5999,88973.6247,4.62799,8.42041,1.14922,-1.94683,14.88312,5.40494,-0.12,-28.68,-4.98,82.403915,-125.014633,145.781952,0.6606492808428078,0.72734839,0.09427902,0.16005722
7.6181,88973.6456,9.84735,8.85376,2.85149,-2.66398,16.2594,4.74826,-0.72,-28.5,-6.3,76.723763,-83.469734,122.383446,0.6439705331886901,0.68054152,0.15428746,0.31362489
7.6385,88973.6667,7.90565,8.26478,9.11951,-2.77088,16.95212,3.36953,-0.54,-28.14,-7.62,70.506874,-58.852646,116.481728,0.6154858691750255,0.60574085,0.21628211,0.45549667
7.6607,88973.6867,6.67264,5.66468,11.14501,-1.58825,17.19891,2.88756,0.54,-27.66,-9.54,64.910217,-39.026478,117.213722,0.5673129427706989,0.50407791,0.2849516,0.58554596
7.6795,88973.7067,8.8777,4.53222,9.48822,-0.56444,16.46587,2.29136,2.4,-27.18,-10.62,61.068195,-24.301615,122.585449,0.4982498711671832,0.39758033,0.34853786,0.68716687
7.6959,88973.7267,6.42364,4.23774,5.38456,0.27061,13.90024,1.50823,4.8,-25.98,-11.04,59.197842,-11.894656,128.93013,0.41897091903619327,0.29305905,0.40444559,0.75828987
7.7167,88973.7467,-1.52511,6.81869,1.77889,1.24983,9.20207,1.13377,7.68,-25.5,-9.9,59.279984,-1.888757,133.718719,0.34901547306263264,0.20749855,0.44906729,0.79590899
7.7378,88973.7667,-2.41336,10.63265,-1.44849,1.63529,5.7513,0.98227,9.66,-25.62,-6.84,61.203342,4.078951,137.306046,0.2962453527823056,0.15666038,0.48499098,0.80776232
7.7574,88973.7867,-2.99275,12.1817,-2.74615,0.6689,4.24674,0.51862,10.98,-26.46,-3.72,63.699512,8.169414,139.361176,0.25897060193971616,0.12603696,0.51460987,0.80760485
7.7771,88973.8067,-3.66792,11.14022,-0.7015,0.17165,2.21378,0.31765,11.88,-27.6,-0.6,65.16214,12.008168,140.031479,0.23346486786732457,0.10019515,0.53341424,0.80679882
7.7971,88973.8267,-1.59693,12.44985,-0.94571,0.28222,-1.62124,-0.26634,11.94,-28.08,2.04,66.259979,13.586367,140.083176,0.2230753513355969,0.0921381,0.54392064,0.80367798
7.8187,88973.8467,-1.21625,13.13698,-2.13084,0.39889,-5.71953,-1.10078,12.3,-28.5,3.18,67.453636,12.51082,137.817123,0.2410637568836048,0.11406435,0.54756379,0.79312766
7.8461,88973.8677,-3.27048,12.02847,-1.0726,0.27611,-8.51974,-0.74709,12.6,-28.14,3.18,68.593727,8.810871,133.227798,0.28721529645716537,0.16475405,0.54085129,0.77320331
7.8595,88973.8877,-1.43413,12.21761,-0.51954,0.08369,-9.39083,0.37813,12.96,-27.9,2.1,69.722229,1.079306,130.801727,0.3366536999879572,0.23089625,0.52290702,0.74827766
7.888,88973.9087,2.13563,11.16895,-2.94966,0.17715,-9.60525,1.05741,13.08,-27.54,0.42,70.804214,-12.292824,132.920639,0.38053412295682737,0.31004816,0.49319434,0.71820837
7.9006,88973.9287,6.1938,9.6199,-5.80115,-0.23335,-9.77812,0.64813,12.36,-27.0,-1.56,71.673187,-27.999132,137.746948,0.41563238033904454,0.38769037,0.45921627,0.6826905
7.9198,88973.9487,11.1905,7.38372,-4.80037,-1.14965,-10.59363,0.36591,11.04,-27.18,-3.54,71.527802,-43.704288,141.880295,0.4515510295343092,0.46260875,0.41408598,0.64080232
7.9416,88973.9687,16.25663,8.28633,-1.0319,-1.64445,-10.81659,-0.52473,8.7,-26.52,-5.16,70.145973,-56.8876,142.386169,0.49106978797310175,0.53188288,0.3526116,0.59297228
7.9634,88973.9887,17.84877,10.46745,1.26893,-1.46485,-10.48672,-1.76845,6.0,-26.76,-7.02,69.643738,-64.763779,137.617371,0.5357462055674698,0.58424592,0.29069266,0.53584558
7.9807,88974.0087,11.04445,10.80024,2.93529,-1.04336,-9.65289,-2.58457,3.18,-26.76,-8.34,71.046295,-70.452469,131.044235,0.5804932366550031,0.62391865,0.23746072,0.46622476
8.0107,88974.0297,4.58729,7.99903,2.71981,-0.44838,-6.78183,-2.25837,1.62,-26.28,-9.6,72.472145,-76.199959,125.960983,0.6132827905412694,0.65469438,0.18829669,0.39975473
8.0231,88974.0497,5.12359,8.21451,-2.1069,-0.07819,-5.40921,-1.934,-0.3,-26.34,-10.38,73.954735,-81.606949,123.726105,0.6317793666959536,0.67505866,0.15531889,0.34788889
8.0405,88974.0707,6.71813,11.14261,-3.4261,-0.2138,-6.48189,-2.02013,-1.5,-26.4,-10.86,75.253273,-88.158745,123.348549,0.6438152961376036,0.6930908,0.12464277,0.29931787
8.0613,88974.0907,10.14663,12.07396,-2.84431,-0.34575,-8.09519,-3.05433,-2.4,-26.28,-11.28,76.740341,-95.765869,122.930649,0.6556873772002795,0.70978254,0.0879211,0.24197663
8.0831,88974.1107,8.98304,11.30063,-0.66798,-0.23457,-9.69443,-4.36952,-3.6,-26.4,-11.04,79.444321,-106.37326,123.737686,0.6684946406142424,0.72358608,0.04736506,0.16521093
8.1049,88974.1307,5.99987,9.5792,2.75812,0.03543,-10.77994,-5.06102,-4.02,-26.7,-10.68,83.176476,-126.719711,132.712143,0.6779998170492281,0.73177743,0.00452561,0.06926442
8.1281,88974.1507,5.80833,8.75081,8.98783,0.98105,-10.57713,-5.56987,-4.62,-26.76,-10.14,85.893486,-178.363998,172.123779,0.6803575961025917,0.7308529,-0.0405633,-0.03636205
8.1406,88974.1707,4.53462,9.23922,10.00297,2.44041,-9.97054,-6.24915,-4.38,-26.94,-9.78,82.975578,123.41581,-141.507156,0.667757156367031,0.72624511,-0.07900638,-0.142921
8.1612,88974.1917,-1.19231,7.73567,9.23683,3.14229,-8.61687,-6.13064,-4.14,-27.42,-8.64,76.601601,105.51329,-135.540787,0.6364057279489824,0.72020549,-0.1108708,-0.25298116
8.1858,88974.2117,-3.32315,7.62553,9.10515,3.26385,-6.46112,-5.4367,-3.12,-27.96,-7.44,70.548225,98.175377,-138.200424,0.5984345521608831,0.71128696,-0.13322404,-0.3437998
8.2027,88974.2317,-0.38307,7.51779,10.19212,3.67313,-4.69389,-5.40616,-1.38,-28.32,-5.58,65.255867,94.086342,-142.155289,0.5593947307866914,0.70221227,-0.14768679,-0.41492659
8.2209,88974.2517,1.36469,4.89614,7.21134,4.75803,-3.17222,-6.11476,0.9,-28.98,-3.24,59.958488,92.692001,-147.411423,0.5147778944029546,0.69832438,-0.15524019,-0.47249049
8.2413,88974.2717,0.19632,1.68552,1.92254,5.29559,-2.49355,-7.04022,4.2,-29.7,-1.2,53.84309,93.639374,-154.091431,0.45853549432602375,0.70308596,-0.15619093,-0.52059555
8.2662,88974.2917,-1.60651,-0.50518,-0.65841,4.8747,-2.77272,-7.56923,7.8,-29.16,1.14,46.616203,94.185814,-160.402802,0.39199642072823493,0.70871454,-0.15096983,-0.56680739
8.2952,88974.3117,-4.16352,-5.5737,3.29203,4.19848,-2.42269,-7.82579,12.06,-27.78,3.3,37.486427,95.167656,-166.860229,0.30874827706616914,0.7193206,-0.13532625,-0.60740364
8.3098,88974.3317,-9.48343,-9.48104,5.65032,4.554,-0.37874,-7.42018,16.32,-25.8,5.52,26.983601,93.357216,-170.864792,0.222324062615998,0.71793997,-0.10322357,-0.65152061
8.3228,88974.3517,-7.40527,-7.01022,2.76051,5.11355,0.14966,-5.83071,20.46,-22.32,7.2,16.85096,93.313332,-175.739136,0.1317257504760123,0.72264612,-0.07375573,-0.67453021
8.3644,88974.3716,-0.44053,-6.69658,-1.46046,5.19602,0.18387,-5.81055,26.16,-14.58,11.28,7.930772,93.61898,178.602005,0.04208416595922763,0.72670507,-0.05620032,-0.68335217
8.3666,88974.3816,1.14443,-9.16261,-1.51792,5.2455,1.37811,-6.3646,26.16,-14.58,11.28,-4.757648,93.796463,172.574387,0.07445006527014629,-0.72981745,0.01893814,0.67931217
8.3676,88974.3916,1.18752,-9.27753,-1.64482,5.24733,1.71836,-6.43241,26.16,-14.58,11.28,-4.757648,93.796463,172.574387,0.07445006527014629,-0.72981745,0.01893814,0.67931217
8.3824,88974.4117,-1.13485,-9.73243,-6.32788,4.8576,3.43734,-6.16241,27.84,-9.66,12.96,-15.068161,95.885239,166.981323,0.17200729265909812,-0.74127644,-0.00382093,0.64877433
8.3993,88974.4316,1.06063,-7.39569,-9.54568,3.54485,4.24063,-5.71892,28.5,-4.92,15.42,-24.477467,99.70108,162.687332,0.2550277082829375,-0.75905621,-0.0226998,0.59856433
8.4196,88974.4516,0.22745,-10.61589,-10.72363,2.22294,5.2565,-6.04329,28.86,-0.48,17.22,-33.236015,105.150986,160.766266,0.3212120865420676,-0.77932578,-0.04422845,0.53620702
8.4395,88974.4717,-0.13408,-10.5273,-10.68532,1.27182,5.39516,-5.76779,28.02,4.44,18.78,-41.521362,113.042473,161.83522,0.3733722313720728,-0.80101943,-0.06996556,0.46267253
8.4641,88974.4916,1.74058,-10.97502,-10.51055,0.93585,5.86247,-5.38722,26.22,9.0,21.42,-48.566315,122.926163,165.706497,0.41265273399549646,-0.81900334,-0.09531001,0.38712692
8.4801,88974.5116,4.32632,-12.00932,-13.19923,0.42089,6.93332,-5.51978,22.8,13.26,24.0,-54.232277,135.88533,172.339554,0.4438200341732209,-0.83452928,-0.11567852,0.30529189
8.5023,88974.5317,5.08528,-11.66455,-15.3181,-0.10324,5.73847,-6.22166,18.72,16.98,26.82,-58.335976,151.250336,-178.454987,0.4691475554843802,-0.8441487,-0.13239019,0.22312862
8.525,88974.5516,3.7589,-12.70363,-15.63653,-0.3372,5.47763,-6.21739,14.28,19.38,29.52,-60.623714,169.205597,-164.894455,0.48743628732632743,-0.84576756,-0.16002803,0.14654054
8.544,88974.5716,5.02543,-15.43542,-17.65005,-1.10628,5.90462,-6.08239,9.18,20.88,31.2,-60.242188,-171.83725,-150.416718,0.499685280004768,-0.84330022,-0.18573709,0.0682722
8.5619,88974.5917,4.72855,-15.16966,-17.32444,-1.85275,5.57415,-5.91867,4.38,22.02,32.7,-56.803303,-154.862061,-138.398148,0.5019685451839693,-0.83935171,-0.20812993,-0.01407902
8.5818,88974.6116,5.11162,-12.6749,-16.63731,-2.09344,4.91319,-5.68532,-1.02,22.56,33.72,-51.429306,-142.272156,-130.42038,0.4948903416887752,-0.83283204,-0.23011784,-0.09230451
8.6018,88974.6316,7.35259,-12.34929,-16.55112,-2.63466,4.08486,-5.8417,-6.3,21.36,34.2,-45.188576,-133.322296,-125.51741,0.4810636064031296,-0.82335663,-0.25270107,-0.16371877
8.6247,88974.6517,8.83939,-10.82658,-13.34767,-2.96697,3.20277,-6.00664,-10.74,19.86,34.26,-38.00106,-127.17527,-122.731995,0.4574830245852438,-0.81265408,-0.27869278,-0.22941875
8.6439,88974.6716,9.90002,-9.4954,-13.18487,-2.90711,2.62733,-6.23388,-14.7,16.8,33.54,-30.38121,-122.830009,-121.01545,0.42759621536787307,-0.79934031,-0.30806708,-0.28863683
8.6665,88974.6916,6.49786,-11.45865,-14.05157,-3.3225,2.57541,-5.76596,-17.64,12.78,32.7,-22.570166,-119.502205,-119.896095,0.393718361293419,-0.78263104,-0.33890808,-0.34295163
8.6836,88974.7117,7.35259,-11.28148,-10.60871,-4.18687,2.77699,-5.19052,-19.8,9.12,31.8,-15.012966,-116.664383,-120.193108,0.3558715736371023,-0.76566488,-0.36122066,-0.39576805
8.7025,88974.7316,11.32697,-7.32865,-6.19619,-4.05431,2.2712,-5.22045,-21.66,4.86,30.54,-7.606934,-113.912178,-121.794022,0.3132148823587101,-0.74840045,-0.3752082,-0.44834363
8.7241,88974.7516,13.65413,-4.05817,-5.16429,-3.17039,1.83565,-5.80566,-22.74,0.36,28.86,-0.27409,-111.573708,-123.215797,0.26910175613991205,-0.72811842,-0.3920337,-0.49369767
8.7449,88974.7717,11.4395,-2.62644,-8.93516,-2.48317,1.69393,-6.14836,-23.04,-3.66,27.18,7.262945,-109.49617,-123.661469,0.22632579922287743,-0.70119554,-0.41696271,-0.5322063
8.7635,88974.7916,8.72926,-3.60088,-11.07797,-3.61999,1.29198,-5.93639,-22.68,-8.16,25.56,14.922359,-107.526802,-124.028305,0.18254626831447582,-0.67021352,-0.44307083,-0.56672651
8.7886,88974.8116,8.40125,-3.52426,-4.65193,-4.48681,2.82464,-5.70731,-21.6,-12.42,24.06,20.897373,-106.12838,-125.787155,0.14022855368302808,-0.65005994,-0.45517135,-0.59209549
8.8052,88974.8326,6.81629,-2.1452,-1.0319,-4.41289,3.62487,-5.41104,-19.68,-16.08,22.26,26.516722,-102.152145,-128.81395,0.10325324667369574,-0.62070274,-0.45706677,-0.62861502
8.8235,88974.8526,5.51145,0.79248,2.59771,-3.30173,3.9187,-4.97672,-17.58,-19.62,19.32,31.640633,-96.41713,-132.673126,0.07117524339361271,-0.58410001,-0.4543165,-0.6688481
8.8504,88974.8727,6.10282,4.28323,-1.70707,-2.3445,3.52164,-4.34692,-15.24,-23.64,14.4,35.649925,-91.075386,-135.413101,0.050811865434637976,-0.54732651,-0.45613489,-0.69985199
8.8655,88974.8926,7.12275,5.84185,-1.74777,-2.54792,1.57298,-4.56194,-12.48,-26.16,10.8,39.32159,-86.666451,-138.005875,0.029882377279888173,-0.51563221,-0.46003422,-0.7222181
8.8852,88974.9126,5.60004,5.39653,0.91937,-2.47156,0.74159,-4.65968,-10.2,-27.72,7.62,43.267948,-83.455826,-141.737457,0.004474010521874572,0.49436191,0.46272302,0.73584896
8.9081,88974.9327,5.76524,4.04859,0.1221,-2.22905,2.33534,-5.3243,-7.32,-30.36,3.66,47.310593,-79.83506,-146.010529,0.04088393280806732,0.47215503,0.46609011,0.74709982
8.9217,88974.9526,1.02232,4.16831,-0.18196,-2.42025,2.67864,-5.20091,-4.02,-31.02,1.38,51.956902,-73.896072,-151.092758,0.07564577934793917,0.43587774,0.47385877,0.76141065
8.9411,88974.9726,-3.304,6.11479,5.80115,-2.04029,3.4465,-4.28827,-0.9,-31.68,-0.48,56.333294,-64.256149,-159.223694,0.11230073392146611,0.38906914,0.4777365,0.77960348
8.9612,88974.9927,-4.05578,7.35259,4.15394,-1.00487,2.98713,-2.92482,2.16,-31.5,-2.1,59.350605,-53.499962,-167.289444,0.13558509830278515,0.33972481,0.48267132,0.79575884
8.9862,88975.0126,-5.03979,6.8139,1.59454,-1.46608,0.12339,-2.04579,5.28,-30.9,-2.88,61.588421,-44.561462,-174.414627,0.1551469775396859,0.3022218,0.48903781,0.80338871
9.0015,88975.0326,-6.53378,5.20021,8.04212,-1.91751,-1.21012,-1.10017,7.5,-30.78,-3.3,62.109295,-36.656948,176.628143,0.18607310183535852,0.28368419,0.48154789,0.8080914
9.0206,88975.0527,-6.27281,5.05416,15.9382,-0.50274,-0.29444,0.07208,8.88,-30.06,-4.32,60.820663,-30.614151,169.159485,0.21160677268802117,0.27277327,0.46454296,0.81548584
9.0431,88975.0726,-4.47716,4.92966,13.30697,1.56259,-0.55711,1.27732,10.5,-31.14,-6.36,60.019913,-27.830763,166.429657,0.218743590287791,0.26414692,0.45746791,0.82042718
9.0649,88975.0926,-2.44687,3.53384,8.75081,2.50577,-1.50334,2.20645,10.44,-31.08,-7.02,60.322552,-29.441517,168.054794,0.21399219895029062,0.26907697,0.46044472,0.8184104
9.0845,88975.1127,0.9912,5.23851,6.58166,2.61511,-2.26631,2.85702,10.32,-30.66,-7.38,60.681484,-34.831673,172.591049,0.20408011143764737,0.28891221,0.46428797,0.81198382
9.1036,88975.1326,6.29436,5.71257,4.07733,2.29074,-2.52654,3.047,9.84,-31.2,-5.88,60.178871,-42.757374,179.023865,0.18961360659889742,0.31937304,0.46415019,0.80412197
9.1209,88975.1526,2.57856,4.54898,6.14831,2.39154,-2.63527,3.06899,8.22,-32.16,-4.98,58.887508,-50.255356,-175.309891,0.17630269589325923,0.3512702,0.4598068,0.79630667
9.1443,88975.1727,1.26174,4.80516,6.43083,3.90526,-3.06777,3.86678,6.66,-32.88,-3.36,57.280151,-57.885307,-169.393646,0.15997319682178465,0.38413832,0.45690271,0.78618461
9.1633,88975.1926,-0.58179,2.72221,4.71658,6.12148,-2.97125,4.59187,4.56,-33.48,-1.5,55.343517,-68.003548,-160.580612,0.13215614308925644,0.4232291,0.46301454,0.76748252
9.1812,88975.2126,0.46448,-0.08859,-3.16753,7.76532,-3.30173,5.44709,2.04,-33.3,0.78,51.886211,-83.227226,-146.254059,0.08288775051447286,0.47653884,0.48632845,0.72768468
9.2028,88975.2327,5.06374,0.22505,-11.84172,7.1459,-3.9297,5.70915,-0.6,-32.64,4.62,45.438519,-97.319702,-133.220383,0.024267230450818904,0.53436238,0.5090732,0.67432368
9.2274,88975.2526,5.92804,-0.22266,-16.1872,4.98222,-4.77147,5.18258,-3.42,-31.38,8.52,36.891048,-109.545296,-124.126869,0.028013423965002504,-0.59909707,-0.52427709,-0.60450929
9.2449,88975.2726,1.97522,-2.23858,-11.89918,3.3286,-3.53508,5.26016,-6.0,-29.34,12.9,28.775631,-118.273018,-120.612656,0.06085879952245552,-0.65914166,-0.5226112,-0.5373137
9.2654,88975.2927,6.17465,-1.41976,-8.19056,3.07937,-2.42758,6.09521,-7.86,-26.94,16.5,20.7323,-123.410591,-120.46769,0.0939504585575084,-0.70952439,-0.50404793,-0.48340887
9.2842,88975.3127,9.95509,-1.03908,-7.98466,2.8503,-1.27793,5.55582,-9.72,-23.94,19.68,12.476521,-126.339714,-121.723953,0.13377220341778265,-0.7509253,-0.47476327,-0.43910822
9.3021,88975.3326,5.41568,-2.51152,-9.25838,2.42636,-0.821,5.43609,-11.28,-21.12,22.5,5.13734,-128.166351,-123.210617,0.17217431148880208,-0.78111166,-0.44451877,-0.40326622
9.3239,88975.3526,3.33273,-2.97599,-10.21606,2.34145,-1.68538,5.67616,-12.54,-18.66,24.3,-1.76868,-130.069443,-125.3134,0.20627066692889068,-0.80816984,-0.41056779,-0.36843997
9.3444,88975.3727,1.96564,-6.40928,-11.74356,2.33045,-2.53387,5.94372,-14.1,-15.54,25.74,-8.811617,-133.434448,-128.028137,0.23610607674532988,-0.83656412,-0.37398568,-0.32334054
9.3694,88975.3926,2.30801,-9.10036,-12.16015,2.16185,-3.34327,6.41714,-14.64,-12.54,26.64,-15.87393,-138.108017,-131.689301,0.26255390920238897,-0.86418027,-0.33346865,-0.27028978
9.3857,88975.4126,4.40054,-10.0317,-11.51611,2.26753,-4.0537,6.66882,-15.06,-9.72,28.14,-22.776497,-144.267715,-136.672195,0.2856863473024354,-0.88949543,-0.28814155,-0.21013243
9.4046,88975.4327,5.55455,-10.41478,-11.79623,2.4905,-4.60776,6.48983,-14.58,-6.12,29.16,-29.165112,-151.717865,-142.704178,0.30693002729697144,-0.90885967,-0.24179205,-0.14596117
9.4206,88975.4526,4.25689,-10.72124,-12.78743,2.72812,-5.11294,6.18562,-13.32,-2.82,30.48,-34.80735,-160.587234,-149.536697,0.3267306048538755,-0.92076933,-0.19844954,-0.0777736
9.4408,88975.4726,2.90417,-11.23599,-14.57829,2.70308,-5.2681,6.03779,-10.86,0.12,31.44,-39.585068,-171.111145,-157.516861,0.3453343497382657,-0.92521256,-0.15714131,-0.00570214
9.4638,88975.4926,1.66158,-11.50414,-14.75786,2.43613,-5.11661,5.78673,-7.38,3.0,31.32,-42.957813,177.0121,-166.77594,0.3608058889796732,-0.92294961,-0.11659546,0.06624671
9.4838,88975.5126,-0.13886,-11.24317,-15.84962,1.97859,-4.91869,5.40127,-3.54,5.16,31.8,-44.593674,164.573685,-176.698837,0.3722394411582457,-0.91501242,-0.07730957,0.13495666
9.5059,88975.5326,-1.04148,-10.40281,-15.57668,1.42698,-4.83317,5.20579,0.84,6.6,31.56,-44.314514,152.577408,173.853592,0.3776441443994351,-0.90325785,-0.04102946,0.19956638
9.5282,88975.5527,-0.0407,-9.39964,-16.30691,0.73487,-4.6047,4.86615,4.74,7.62,30.96,-42.356335,141.647766,165.594818,0.37693299776097744,-0.88865089,-0.0073075,0.26108947
9.5425,88975.5726,1.75734,-7.23767,-16.47211,-0.30971,-4.04515,4.26262,8.7,8.34,29.94,-39.08989,132.697266,159.421829,0.3690434120784162,-0.87331331,0.02213261,0.31723961
9.5645,88975.5926,1.46525,-5.94959,-14.52083,-1.3158,-3.50514,3.48926,12.12,8.1,28.8,-35.113605,126.375404,156.015015,0.35270338344043456,-0.86061627,0.04371033,0.36473191
9.5829,88975.6127,0.00718,-8.04212,-12.54322,-2.48805,-1.74524,2.84908,15.3,7.68,27.24,-30.952993,122.295403,154.805466,0.3295195283896825,-0.85187107,0.0584308,0.40288758
9.6024,88975.6326,-0.55545,-5.67665,-9.00938,-3.35243,-0.9279,2.45934,18.3,5.82,26.76,-26.571741,121.212196,155.629623,0.2965382125354449,-0.85265076,0.06872607,0.42465103
9.6328,88975.6526,-1.66158,-3.19626,-8.53054,-3.21621,-1.54182,1.87719,20.58,3.12,26.58,-22.989141,123.042763,158.173111,0.26045957026583977,-0.86377704,0.06977675,0.4256539
9.6583,88975.6736,-5.48751,-3.07416,-11.09952,-3.3451,-2.76111,1.94683,22.38,0.84,25.38,-19.591469,123.436295,160.727432,0.22586865919982022,-0.86903805,0.06578707,0.43523359
9.6643,88975.6946,-4.95839,-8.88488,-9.02135,-4.08974,-0.73059,1.77029,23.58,-2.52,24.84,-16.366301,122.773399,163.192352,0.19289017571590658,-0.86956561,0.05956075,0.45066789
9.685,88975.7147,-3.60088,-5.37977,-5.29119,-5.24978,0.09468,2.06228,24.3,-4.8,23.58,-12.594615,124.520279,166.66066,0.15015867156058962,-0.87970561,0.05146672,0.44824278
9.7056,88975.7347,-1.50116,-0.40462,-3.08373,-4.51674,-0.63469,1.23456,24.6,-7.56,22.02,-8.355971,126.536697,170.378281,0.10246316580226834,-0.89035988,0.0420486,0.44157955
9.7296,88975.7546,-3.62003,2.94966,-8.16183,-3.60655,-2.2993,0.35369,24.42,-10.86,20.82,-5.121124,127.044289,173.669113,0.06452222165941003,-0.89394861,0.02948963,0.44251907
9.7552,88975.7756,-5.78918,-1.17555,-12.95981,-4.02682,-4.284,-0.0898,24.72,-12.54,19.2,-2.92886,125.437439,176.947327,0.0349080420839246,-0.88847351,0.0119561,0.45744213
9.7652,88975.7956,-8.81784,-7.06289,-10.18972,-5.64867,-4.46298,0.75808,24.96,-14.94,17.28,-0.818885,121.41684,-178.691071,0.0004347435659143178,-0.87202215,-0.01345763,0.48928118
9.7869,88975.8166,-6.90248,-9.28471,-3.72538,-6.72563,-2.69758,1.65789,26.04,-16.74,15.0,2.513013,117.349327,-173.146545,0.04976608209871143,0.85317808,0.03966658,-0.51772296
9.812,88975.8376,-3.73974,-5.26724,-1.50835,-6.55519,-0.62247,0.46181,27.12,-18.06,11.52,5.732478,115.406448,-167.142838,0.10175076223686105,0.84191751,0.06797476,-0.5255484
9.8305,88975.8597,-4.0462,-2.65517,-0.79966,-6.0775,-1.35062,-0.51618,27.48,-19.86,7.62,7.667343,114.305046,-160.078705,0.14893444121177052,0.8318755,0.10927269,-0.52331746
9.8565,88975.8796,-4.31435,-2.57856,0.0814,-5.56071,-3.00057,-1.31397,27.48,-20.88,3.84,7.909008,111.701569,-153.200531,0.18529870922956862,0.81210411,0.15367,-0.53154194
9.8729,88975.8996,-6.57687,-1.901,2.26252,-5.05124,-3.93458,-1.51372,27.24,-21.42,0.0,6.892869,107.062843,-146.825974,0.21570380037040407,0.77952516,0.19491127,-0.55481708
9.8954,88975.9206,-9.97664,-3.15795,3.37343,-4.60837,-4.17038,-0.87537,26.64,-20.88,-4.02,5.341079,101.195442,-140.758896,0.24682682119882635,0.73698324,0.23132743,-0.58516651
9.9144,88975.9407,-10.88644,-2.66953,5.75566,-3.91748,-3.32005,0.20464,26.94,-19.74,-7.86,4.346667,95.397232,-135.625107,0.27995020821687855,0.6939947,0.25547251,-0.61215442
9.9319,88975.9606,-10.50576,-1.46046,4.13479,-3.33532,-0.94318,0.74831,26.94,-18.3,-12.0,4.071098,91.332779,-131.467285,0.31018689478626776,0.66187388,0.27115172,-0.6262458
9.9511,88975.9806,-11.29584,-0.91698,2.44687,-3.57112,0.61942,2.12948,26.1,-16.14,-15.54,4.548673,89.812279,-127.687172,0.3371193267777038,0.64554524,0.28572425,-0.62288326
9.9691,88976.0007,-12.22001,-0.55306,1.23301,-4.06714,1.25044,3.04516,25.68,-14.94,-18.06,6.573399,89.876335,-123.490356,0.37022101246624084,0.6403718,0.29808033,-0.60333115
9.9889,88976.0206,-11.49696,-1.79565,2.52109,-4.63769,-0.60048,3.11786,24.66,-14.1,-19.38,9.348023,89.676186,-118.475945,0.41085313243530314,0.63343585,0.30979148,-0.57791692
10.0095,88976.0406,-10.80264,-0.06225,5.59525,-4.24796,-1.62612,3.2101,23.7,-13.8,-20.28,12.023267,87.010925,-112.916595,0.45865413062201915,0.61260682,0.31497943,-0.56137085
10.0297,88976.0607,-11.33176,1.93212,6.76601,-3.50148,-1.64078,3.69879,22.86,-13.2,-21.84,14.734686,83.229301,-107.650764,0.5063860518920177,0.58825064,0.31137067,-0.54825419
10.05,88976.0806,-13.72596,1.46286,7.50582,-2.89856,-0.11484,4.92968,21.54,-12.66,-22.92,17.928682,79.679253,-102.831337,0.5510587017025115,0.56928474,0.30114043,-0.5306257
10.0728,88976.1016,-12.97657,-0.10534,6.01184,-2.71896,3.22476,6.98952,20.46,-12.6,-24.6,22.481472,78.085983,-98.000725,0.5924352099524075,0.5656026,0.29106092,-0.49436602
10.0922,88976.1216,-5.70059,-1.10612,2.5594,-3.60105,4.70488,7.47943,19.32,-12.66,-25.5,29.104097,79.4748,-92.038017,0.6324449872736083,0.57941431,0.29064944,-0.42404634
10.1119,88976.1417,-3.37822,1.55384,3.29203,-4.66273,2.43735,6.21067,18.48,-13.38,-25.8,35.204529,79.656502,-84.532112,0.671979438838737,0.58247048,0.29559001,-0.34899616
10.132,88976.1615,-4.86262,4.07014,11.77947,-4.15694,1.25594,4.64441,18.0,-13.98,-26.1,39.429771,75.281075,-75.214302,0.7162683418779623,0.56245422,0.29243815,-0.29169306
10.1529,88976.1814,-8.94953,1.80044,12.49534,-2.72079,2.27669,4.82278,17.34,-14.22,-25.74,41.939907,70.362549,-66.675018,0.7509332672867257,0.54004455,0.28872246,-0.24716483
10.1721,88976.2016,-9.49062,0.64643,11.01333,-2.29197,4.73665,6.06284,16.92,-14.28,-25.8,44.908287,67.365974,-58.969208,0.7736913906799425,0.52893305,0.28974032,-0.19411854
10.1906,88976.2217,-6.54096,1.06542,9.30147,-2.21194,7.41163,7.08909,16.92,-13.98,-26.04,49.010349,66.097923,-50.044476,0.7867939510610245,0.52492726,0.30260488,-0.11763051
10.211,88976.2416,-3.84988,2.78924,3.4668,-2.96453,7.64315,6.87651,17.28,-14.1,-25.5,53.803974,65.760895,-39.483051,0.7878768422417974,0.52118057,0.32733321,-0.02176843
10.2323,88976.2616,-4.22098,4.05817,1.9393,-4.22291,5.2791,5.93517,17.7,-14.64,-24.84,57.59029,62.611198,-26.398254,0.7861263334677545,0.50465196,0.34935123,0.07270148
10.2504,88976.2817,-6.25844,4.99909,10.73799,-4.46176,4.85271,5.29376,18.72,-15.12,-23.34,59.068016,54.105171,-10.43089,0.7920405838231225,0.47316033,0.35416728,0.15282851
10.27,88976.3016,-7.98706,3.08613,14.38197,-3.25286,4.9981,5.57659,19.32,-16.14,-22.38,58.875965,45.774525,5.305284,0.7926186857337252,0.43662709,0.35929754,0.22807385
10.2948,88976.3216,-5.43484,2.727,12.30859,-2.19178,5.6841,6.65232,19.74,-16.98,-21.06,59.103577,38.635971,20.033297,0.7800396506813229,0.40829229,0.36434516,0.3034603
10.3257,88976.3417,-1.71904,2.90417,10.68053,-1.88146,6.67248,7.45866,19.92,-18.0,-20.46,59.838825,31.125645,36.162437,0.7521858728529213,0.38459468,0.37018371,0.38635135
10.3423,88976.3616,0.96965,4.01029,7.79313,-2.01952,7.35421,7.9889,19.5,-19.26,-19.56,60.205864,22.993725,54.189617,0.7091971282721065,0.35901588,0.37736502,0.47512385
10.3617,88976.3826,3.35667,5.60961,8.65025,-2.36649,7.76898,7.65903,19.14,-21.12,-18.06,59.360638,14.410398,73.670326,0.6526336231262309,0.32785082,0.38172567,0.56645274
10.3873,88976.4026,2.24097,5.00388,10.24239,-2.37932,7.88994,7.15629,18.3,-23.34,-16.98,56.930542,7.748872,92.097878,0.5855577050289849,0.28727829,0.38358161,0.65380311
10.3918,88976.4227,1.94409,3.32794,12.70842,-2.11726,8.04937,6.96875,16.74,-25.32,-15.66,53.795921,4.115868,107.085327,0.5165287971471234,0.2428976,0.38266283,0.72647637
10.4159,88976.4426,1.80762,2.1452,12.469,-1.63834,7.73844,6.9602,15.36,-27.54,-14.88,50.59288,2.177776,120.792717,0.4394864184327139,0.19610922,0.37994349,0.78995937
10.4353,88976.4626,3.38301,2.08535,12.35887,-1.21868,6.80565,6.67248,13.14,-28.5,-13.74,47.744152,0.952942,133.410965,0.3585229854697178,0.15304999,0.3747012,0.84121102
10.453,88976.4827,3.04303,3.68946,11.65497,-0.15333,4.45932,5.73419,10.92,-29.94,-12.66,45.45063,-0.434875,144.603958,0.28179444408722853,0.12077329,0.36696336,0.87826169
10.4704,88976.5026,2.3535,4.29041,7.81228,0.72143,1.08306,4.44832,8.64,-30.42,-11.76,44.28754,-2.883848,153.732635,0.2196343929876365,0.10831878,0.36166015,0.89957196
10.4912,88976.5226,-0.96965,3.36146,4.96318,1.41721,-1.46302,3.89732,6.18,-31.14,-10.98,43.991257,-7.26619,160.498245,0.18011138167725835,0.12121149,0.35843229,0.90796143
10.5137,88976.5427,-0.56982,1.17076,4.42209,1.47219,-2.08794,4.48436,3.72,-31.98,-10.44,43.845318,-13.455198,166.78125,0.14948858836290668,0.15063278,0.35581079,0.91014373
10.5313,88976.5627,2.19548,1.47243,4.48195,1.19241,-2.59129,5.20335,0.78,-32.52,-9.54,42.856651,-20.702271,173.973541,0.11368876129402149,0.18592055,0.35010201,0.91100878
10.5545,88976.5826,6.90009,2.83952,3.77805,1.17958,-3.39519,5.07018,-2.52,-32.7,-8.88,40.732536,-29.015785,-178.19397,0.07286904910809569,0.22951399,0.34058231,0.90885484
10.5745,88976.6026,12.6366,5.18345,0.91937,1.35979,-5.31819,3.88083,-5.94,-32.52,-7.56,38.33493,-38.383972,-170.984299,0.03748707222417652,0.28517881,0.33352804,0.89778996
10.5989,88976.6227,11.29106,5.19302,0.60094,1.36528,-5.63034,3.11175,-9.42,-31.8,-5.88,36.299667,-48.629478,-165.581894,0.01857492515715155,0.3525463,0.33072731,0.87520599
10.6118,88976.6426,7.74045,4.46279,0.11732,1.17042,-4.52346,3.3903,-12.3,-30.84,-4.14,34.111629,-57.736622,-161.322388,0.003860561020345044,0.41376644,0.32834959,0.84909892
10.6456,88976.6626,4.90811,3.19626,0.48363,0.36896,-2.43552,4.20275,-15.18,-29.64,-1.92,31.04376,-64.715042,-157.752899,0.016488942307785193,-0.46238163,-0.32129493,-0.82625717
10.6516,88976.6826,3.10528,-1.9417,-1.23541,-0.72754,-0.34636,5.40555,-18.0,-27.72,-0.06,26.230576,-68.550087,-155.212921,0.04791579641537809,-0.49545112,-0.30085391,-0.81346124
10.6739,88976.7026,9.9503,-3.53145,-4.89854,-1.58947,-0.58215,6.13797,-20.7,-26.76,1.5,19.289194,-70.374313,-153.474167,0.09088024806054906,-0.52153879,-0.26360533,-0.80638099
10.6972,88976.7226,16.85757,0.10295,-4.53941,-1.91201,-3.19971,5.07812,-23.22,-24.9,2.4,11.825367,-72.99688,-152.872757,0.12796191266859305,-0.55571508,-0.2192532,-0.79166567
10.7142,88976.7427,14.93742,-1.00556,-3.71341,-2.04518,-4.21253,3.65297,-25.38,-22.74,3.12,5.804195,-77.886559,-153.530518,0.14685666344886436,-0.60205662,-0.1820488,-0.76342595
10.7315,88976.7626,11.59272,-2.88501,-1.75734,-2.08061,-4.81179,3.46544,-27.66,-20.52,4.14,1.187586,-83.474167,-155.231689,0.15328858546400542,-0.64852995,-0.15031807,-0.73028487
10.7606,88976.7826,11.4395,-4.68545,0.02155,-2.03724,-4.0421,3.57845,-29.28,-17.7,5.1,-3.216656,-89.241188,-157.427109,0.15858241076656057,-0.69246352,-0.11782627,-0.69387525
10.7723,88976.8027,10.38844,-5.35104,-1.16598,-1.66583,-3.74644,3.76293,-30.3,-15.3,6.54,-7.515921,-93.976334,-159.946579,0.16570468306829428,-0.72628075,-0.08300929,-0.66194236
10.7922,88976.8226,11.16416,-3.4692,-6.87615,-1.27182,-5.5943,3.52347,-31.08,-13.68,8.46,-11.645617,-99.192978,-162.363693,0.17519268803216112,-0.7586956,-0.05115387,-0.62535733
10.8112,88976.8426,9.19134,-3.31358,-9.61033,-1.37872,-6.96081,3.38358,-31.08,-11.76,10.26,-15.193581,-106.809555,-164.928406,0.1827199241671775,-0.79928297,-0.02623656,-0.57190192
10.8423,88976.8627,8.70532,-5.16669,-8.9615,-1.60841,-7.06954,3.4972,-30.3,-10.02,12.9,-18.147095,-115.879555,-168.191727,0.18685973307809048,-0.84105718,-0.00281983,-0.50763994
10.8658,88976.8826,9.43794,-7.01741,-9.05966,-1.72264,-6.41531,4.01644,-29.4,-8.7,16.02,-20.740585,-125.179909,-172.293808,0.1898682881160909,-0.87682837,0.02400089,-0.44107369
10.8747,88976.9026,9.66539,-6.59603,-10.73799,-1.75502,-5.60286,4.31515,-27.36,-7.26,19.32,-23.069876,-133.964417,-177.285065,0.1930691708265329,-0.90339375,0.0568043,-0.37865195
10.8926,88976.9227,10.99896,-4.93924,-13.43387,-2.02441,-5.30475,3.98528,-25.02,-6.3,22.32,-24.809574,-142.51767,177.03569,0.1952427364300323,-0.92277712,0.09291859,-0.31894952
10.9183,88976.9426,9.10515,-4.55856,-13.7092,-2.35672,-5.42143,3.3225,-22.74,-4.86,24.6,-25.179285,-150.96138,171.363571,0.1919831685971254,-0.93799073,0.1256289,-0.25987157
10.9369,88976.9626,5.60243,-6.48589,-14.02044,-2.41964,-5.61629,3.03417,-19.92,-4.2,26.7,-24.299139,-159.256195,166.284439,0.1845279923387356,-0.95022315,0.15244377,-0.19946499
10.9572,88976.9827,3.90734,-6.2369,-12.24155,-2.38299,-5.67005,3.05738,-17.52,-4.02,28.02,-22.608303,-167.537216,161.634003,0.1753753224188553,-0.9589178,0.17657152,-0.13617139
10.9725,88977.0026,2.56419,-5.43963,-13.72835,-2.35366,-5.07385,3.15451,-14.64,-4.02,29.34,-20.477922,-175.436844,157.282089,0.16641804918635128,-0.96264082,0.20060275,-0.07339088
10.9926,88977.0226,4.06775,-3.74693,-14.87278,-2.84419,-4.52285,2.98591,-11.64,-5.16,30.6,-17.75732,177.650742,153.24144,0.15480823625987558,-0.96173245,0.22549729,-0.0160024
11.0132,88977.0427,5.68862,-1.63045,-13.15853,-3.12396,-4.09035,2.16124,-8.46,-6.12,31.08,-14.097149,171.744644,150.076965,0.13668512301764338,-0.95859152,0.24702136,0.03741554
11.0332,88977.0627,4.458,-3.82833,-13.59428,-3.30356,-3.51981,1.54549,-5.4,-7.5,31.62,-10.151869,166.747345,148.290466,0.1159424538691007,-0.95457333,0.26048949,0.08655825
11.0566,88977.0826,3.15316,-2.76051,-9.94312,-3.97551,-2.12337,1.30298,-2.64,-8.82,31.92,-6.298862,164.432541,147.743561,0.08985620048297993,-0.95242089,0.26766476,0.11478627
11.0749,88977.1027,5.65032,-0.34716,-8.011,-3.86067,-1.25777,0.72876,-0.18,-10.68,31.5,-2.021969,163.868561,147.664871,0.05584085353993725,-0.95149177,0.27327248,0.12987441
11.0942,88977.1227,5.39653,1.83875,-8.59518,-3.48926,-0.79779,-0.16554,1.2,-13.08,31.02,1.884046,164.220932,148.230881,0.021900658833870393,-0.95196468,0.27324322,0.13646154
11.1129,88977.1426,1.45567,2.90177,-10.20409,-3.37075,-0.11057,-0.57971,2.7,-14.82,29.76,5.342621,164.855392,149.523087,0.009975855271435019,0.95377272,-0.26618731,-0.13914883
11.1346,88977.1626,-1.56581,-0.96726,-13.91749,-3.93336,0.06903,-0.70127,3.54,-17.52,28.08,8.504533,165.782333,151.19754,0.040570988257946194,0.9562043,-0.2550073,-0.13783544
11.1544,88977.1844,-1.16598,-0.44293,-11.20486,-4.83255,-0.35247,-1.00854,4.02,-19.32,26.64,12.53319,166.267105,153.277557,0.07797592784655284,0.95716661,-0.24075787,-0.14066799
11.1741,88977.2046,1.16598,2.27928,-5.71496,-4.88509,-1.17653,-1.52533,4.74,-21.18,24.9,17.339417,165.836929,156.024673,0.12101272879394064,0.95577884,-0.22193956,-0.15028493
11.1971,88977.2247,-0.36392,3.99832,-5.52582,-4.01827,-1.33352,-1.82282,4.74,-23.52,22.62,21.541063,164.234924,159.265991,0.1578439958629107,0.9526037,-0.20032252,-0.16583833
11.2256,88977.2446,-3.60327,3.28006,-8.80109,-3.96024,-1.74891,-1.21745,5.52,-24.96,20.16,24.772472,161.928146,162.652161,0.18628188450374644,0.94848967,-0.1787754,-0.18359129
11.2398,88977.2646,-4.31914,1.86508,-8.71729,-4.32737,-1.923,-0.41294,7.08,-26.94,17.34,28.05954,159.05983,165.516357,0.2142638339515234,0.94085288,-0.1639636,-0.20494586
11.2531,88977.2847,-2.07098,2.09732,-5.97593,-4.54239,-1.08917,-0.61942,8.28,-28.74,14.1,31.804329,156.228989,168.083786,0.2461123222027076,0.93017113,-0.15381503,-0.22483623
11.2729,88977.3046,-2.11169,3.59849,-4.956,-4.36219,-0.12523,-1.77212,9.78,-29.4,10.92,35.326946,153.802811,171.737259,0.2792054750217075,0.92069769,-0.13544697,-0.23667316
11.2967,88977.3246,-1.77171,5.78439,-2.17872,-4.28339,-0.98227,-2.26264,10.86,-30.6,8.04,38.357155,150.861786,176.967438,0.31155223500185997,0.91162205,-0.10679655,-0.24591653
11.3186,88977.3456,0.56982,5.61919,-0.8691,-3.50576,-2.32679,-3.4801,11.7,-31.26,4.92,41.018227,145.819595,-176.628723,0.34283720038414717,0.89789993,-0.07658244,-0.26528004
11.3405,88977.3666,-3.2226,3.50751,-1.35033,-2.75073,-3.5699,-4.39518,13.08,-31.32,2.52,41.497383,138.289978,-169.106186,0.36116603885204684,0.88190269,-0.04260084,-0.29998651
11.3713,88977.3866,-8.22648,2.5594,-2.25055,-2.5583,-4.69511,-4.21925,15.06,-30.54,-0.36,39.758183,128.600647,-161.09346,0.36921910944004477,0.86009765,-0.00627824,-0.35195151
11.3966,88977.4266,-8.43956,1.71904,-0.06225,-3.64809,-2.70308,-2.53692,17.16,-29.28,-3.36,36.016979,111.218018,-148.356628,0.39190801575245726,0.80265516,0.0459567,-0.44725919
11.4195,88977.4466,-7.49146,2.65996,2.63362,-3.6487,-1.61024,-2.02074,18.84,-27.3,-7.14,34.397533,104.680557,-142.194901,0.41053740682314077,0.77399552,0.07408197,-0.47634214
11.4351,88977.4667,-6.82587,2.34153,5.12838,-2.90344,-1.1753,-2.38421,19.62,-24.6,-10.92,32.627598,99.281273,-136.361923,0.4297092658081613,0.74653739,0.10294095,-0.49742842
11.4559,88977.4866,-8.0517,1.85072,5.27682,-1.60596,-1.96882,-2.79471,20.46,-22.08,-14.16,29.844648,94.586983,-131.776657,0.4404469527230381,0.7194531,0.13065386,-0.52088702
11.4764,88977.5066,-8.81306,2.07338,5.53061,-0.77885,-1.56992,-2.77455,20.94,-19.8,-17.28,26.360174,90.298988,-129.172531,0.4406972365811915,0.69248921,0.15098543,-0.55086118
11.4956,88977.5267,-14.1641,2.23379,3.06218,-0.49052,0.97555,-1.42881,21.24,-17.88,-18.96,23.030025,87.941422,-127.950249,0.4339626655666786,0.67437094,0.16939513,-0.57289225
11.5182,88977.5466,-15.50006,0.62968,-3.60327,-1.65361,3.70307,0.83017,22.02,-16.74,-19.98,21.462601,89.385124,-126.924561,0.42922153645893263,0.67734009,0.19030707,-0.56635898
11.5363,88977.5666,-14.00847,1.30005,-5.42766,-3.41046,4.5204,2.10626,22.02,-15.72,-20.58,22.263046,93.020187,-124.232071,0.43961949032056524,0.69133985,0.21547456,-0.53137052
11.5569,88977.5867,-14.9901,2.77249,-2.23858,-4.24307,3.75193,2.49111,22.86,-14.7,-20.04,24.443865,96.274071,-119.632019,0.4642097701003552,0.70020759,0.24383157,-0.48452532
11.5819,88977.6077,-16.54872,2.40617,3.41413,-3.87961,3.84967,3.6603,23.94,-14.4,-18.96,27.551975,97.92041,-114.384705,0.4964758392486553,0.70042348,0.26550329,-0.43866467
11.6061,88977.6276,-14.29338,1.92015,3.67989,-3.37931,5.84598,5.30048,25.38,-13.86,-18.36,32.490334,100.531532,-109.739166,0.5290939971373732,0.70672715,0.27860582,-0.37812045
11.6221,88977.6487,-7.86974,3.56497,2.21942,-3.29745,7.3481,5.90646,26.4,-13.8,-17.28,38.448917,104.787018,-105.938385,0.5552595791308245,0.71818167,0.29009858,-0.30289388
11.6402,88977.6697,-4.8291,5.74848,-2.8922,-3.84967,5.64806,4.55095,26.76,-14.52,-15.78,45.527946,110.708336,-102.320213,0.5767062257109954,0.72883075,0.30441552,-0.20867884
11.6598,88977.6896,-5.31034,4.47955,-4.00311,-4.10868,4.19054,3.20093,26.58,-15.84,-14.4,50.527935,112.989098,-97.675919,0.5964976494154998,0.72277474,0.31895974,-0.14160478
11.6794,88977.7096,-4.42927,7.9703,1.98,-3.86556,2.92482,2.52287,25.92,-17.4,-12.24,54.787247,112.024712,-91.405846,0.619674168350913,0.70653129,0.33004624,-0.08880845
11.7018,88977.7297,-7.21612,7.72609,4.52025,-2.1197,3.90954,2.26753,25.26,-18.9,-10.56,58.128834,109.546906,-84.633751,0.6399640167628003,0.68789113,0.33931747,-0.04599462
11.7232,88977.7507,-9.65103,5.54258,2.55222,-0.94379,5.55704,3.3732,24.66,-20.64,-10.14,60.611465,110.412239,-80.634949,0.6437513336079463,0.67828125,0.35427529,-0.00279021
11.7524,88977.7717,-3.93846,5.30555,-4.74291,-1.98348,8.15566,3.85212,24.24,-21.36,-9.18,64.096367,117.122688,-80.072197,0.6297175914970481,0.67710185,0.37565216,0.06224383
11.7633,88977.7936,0.84515,9.15303,-7.513,-3.97673,7.2247,2.87534,23.64,-22.44,-7.8,68.944946,126.327179,-78.805305,0.6081664330845435,0.66438347,0.40621185,0.1540134
11.7832,88977.8136,-1.80762,10.35732,-1.8148,-4.05676,6.1844,1.55038,23.16,-23.64,-6.24,73.773674,127.635475,-71.439018,0.6009904436400272,0.63405961,0.42811692,0.23128943
11.803,88977.8337,-5.67186,7.76918,2.6408,-3.04577,6.62483,1.46485,22.44,-24.36,-4.32,77.148903,122.392105,-58.762505,0.5962967744317573,0.59789139,0.44955716,0.29129779
11.8259,88977.8536,-5.33428,5.93283,0.0407,-2.54914,7.40491,2.14414,21.9,-25.26,-3.0,79.573112,118.113998,-46.511818,0.5797229716692488,0.56253386,0.47560194,0.34825239
11.8451,88977.8736,-1.67355,6.34703,-1.86987,-2.71163,8.01028,2.27608,21.66,-26.28,-1.98,82.318398,115.484856,-35.12122,0.5510337349028291,0.52699995,0.50102699,0.40939569
11.8692,88977.8937,-2.41336,7.70215,-0.93134,-2.77333,8.2143,1.83748,21.06,-27.3,-0.9,86.066467,90.057098,4.350077,0.49791246897189284,0.46233144,0.53505498,0.5020448
11.8877,88977.9136,-1.62087,10.13226,-2.71024,-2.52959,8.08053,2.15269,19.86,-28.14,0.66,86.386215,78.172005,21.012236,0.4777151381394508,0.43855718,0.54882401,0.52749223
11.9042,88977.9336,2.49955,11.93031,-2.39181,-2.85946,7.08482,1.09406,18.0,-28.8,2.16,86.624321,33.315357,74.864769,0.43402179528326723,0.39507449,0.56507736,0.5798524
11.9243,88977.9537,-3.3854,9.22725,-1.27372,-2.46851,6.79038,0.73059,16.02,-29.4,2.82,84.523071,20.066868,96.130959,0.3998572725317448,0.34663704,0.57880682,0.620435
11.9443,88977.9736,-2.94247,7.79791,-3.19387,-2.73118,6.42203,1.2199,14.34,-29.94,3.18,82.70771,18.259396,105.651016,0.36429432969088316,0.29926914,0.59175003,0.65388036
11.9654,88977.9936,-2.13563,7.82425,-2.25055,-3.047,6.15569,1.31886,13.38,-30.48,3.12,80.725975,15.187244,116.101479,0.32704978648895805,0.25426155,0.59798586,0.68615043
11.9842,88978.0137,-2.41336,5.97832,-4.46758,-3.65358,6.06956,1.47524,12.36,-31.14,2.76,78.634018,14.096673,124.372963,0.2894884703788946,0.20944077,0.60047007,0.7153787
12.0181,88978.0336,-0.84036,7.79313,-4.27604,-4.58332,5.09523,1.10567,11.52,-32.04,2.46,75.960899,13.038611,132.399216,0.25210240974295983,0.16485454,0.59553176,0.74472094
12.0274,88978.0536,0.39025,9.13627,-2.84671,-5.34446,3.733,0.40989,10.56,-32.64,1.92,72.342102,12.622515,138.504166,0.22357127503677798,0.12482801,0.58001482,0.77331537
12.0443,88978.0746,1.41258,7.32865,-0.23224,-6.04451,2.14902,-0.85827,9.66,-32.76,0.72,67.39193,13.335264,142.011414,0.2080519863964642,0.08800458,0.55247182,0.80233687
12.0643,88978.0947,1.57299,6.53617,8.31027,-5.17036,0.54489,-1.49784,9.24,-32.94,-1.5,61.39616,14.104906,143.290909,0.20922960425173492,0.05934057,0.51412076,0.8296876
12.086,88978.1146,4.27365,3.49075,1.35991,-4.74031,-0.69211,-2.23516,8.88,-32.22,-4.62,56.572922,14.109086,143.336014,0.2196226658217422,0.04525748,0.48044053,0.84787649
12.1065,88978.1357,3.23217,-1.71664,5.41329,-5.13127,-0.82406,-2.98224,9.12,-31.08,-8.52,50.224823,14.820821,141.178452,0.2467856049873759,0.0297184,0.43574178,0.86506808
12.1257,88978.1556,-2.22182,-2.75812,5.5761,-5.34813,0.33048,-2.32373,10.02,-29.52,-12.24,43.67194,15.911213,138.990326,0.2738065035739792,0.00869966,0.39003512,0.87910575
12.1444,88978.1756,-2.69587,-1.12288,3.48596,-5.91318,0.22602,-2.12154,11.16,-27.72,-16.14,36.955242,16.994085,138.19548,0.2909201153612768,-0.01908545,0.34282583,0.8930127
12.1827,88978.1966,-2.09493,-1.35991,5.92565,-6.16424,-1.5125,-2.33778,12.6,-25.08,-19.2,29.314594,16.957811,137.897751,0.3088937850346878,-0.04322901,0.28480715,0.90642196
12.1947,88978.2176,-1.2402,-3.3447,10.31662,-5.8301,-2.09649,-2.26998,13.92,-22.26,-21.9,20.798176,14.993782,137.399811,0.33228984846606996,-0.05455531,0.2133518,0.9171086
12.2079,88978.2376,-1.54187,-5.53061,12.61984,-5.1838,-1.17836,-1.62185,14.76,-18.78,-24.42,12.462946,12.751407,136.714111,0.353170477049733,-0.06282254,0.1409837,0.92273915
12.2348,88978.2576,-0.98881,-7.50582,13.57034,-4.6047,-0.48686,-0.52595,15.12,-15.0,-26.4,5.359699,11.435804,136.572723,0.36339671472467494,-0.07524823,0.08004133,0.92513454
12.248,88978.2786,1.72143,-8.29112,13.19923,-3.77393,0.40195,-0.7025,14.94,-11.58,-28.56,-0.69711,10.740232,137.110886,0.36451932577965457,-0.08932276,0.0285782,0.92646122
12.2714,88978.2986,0.71587,-8.00621,13.65653,-2.79104,0.74526,-1.62734,14.28,-8.04,-29.88,-6.014407,10.960197,136.876343,0.3699810154509452,-0.10788651,-0.01351893,0.92265475
12.2923,88978.3187,-1.83875,-7.91762,14.30296,-1.87841,0.38546,-1.63345,13.92,-4.98,-31.08,-10.0342,11.237103,135.624115,0.3823198056530797,-0.12317557,-0.04375631,0.91473752
12.308,88978.3387,-1.83156,-7.55371,13.28303,-1.23334,0.12462,-1.44714,14.16,-2.4,-31.32,-12.708049,11.155063,134.33049,0.39377815560534457,-0.13177063,-0.06402868,0.90745556
12.331,88978.3586,-2.24097,-7.51779,13.10825,-0.94012,-0.31643,-1.32191,14.1,-0.36,-31.56,-14.480009,10.813865,133.060394,0.4042252102367234,-0.13571256,-0.07785656,0.90117836
12.3715,88978.3987,-0.39504,-8.32703,15.32528,-0.07269,-0.68111,-0.8094,14.4,1.26,-31.26,-16.190977,8.964804,130.839462,0.42057122156436466,-0.12876116,-0.09548497,0.89298546
12.3867,88978.4186,-0.88346,-7.75243,17.43218,0.38668,-0.44043,-0.67378,14.16,2.94,-30.9,-16.322346,7.953422,129.901382,0.4270200626192557,-0.12215191,-0.09923078,0.89044148
12.4065,88978.4386,-2.19069,-7.73327,19.72343,1.39766,-0.47647,-0.46853,13.5,3.96,-30.78,-15.746873,7.271476,128.967117,0.4336897977430447,-0.11557876,-0.09631625,0.88841313
12.4264,88978.4587,-4.63757,-8.52815,20.87265,2.85702,-0.84971,-0.23396,13.56,4.62,-30.9,-13.813289,6.399093,128.041245,0.44022449513082673,-0.10240362,-0.0836606,0.88809729
12.4464,88978.4786,-5.71017,-8.50899,16.91025,4.06409,-1.04763,0.41844,13.08,5.1,-31.14,-10.198294,5.29404,127.250641,0.4456864188281213,-0.0806534,-0.05910786,0.88958693
12.467,88978.4986,-4.19464,-7.762,14.45619,4.55889,-0.79107,1.0965,12.72,3.54,-31.08,-5.328789,4.149482,127.020401,0.44677045988760217,-0.0530881,-0.02544752,0.89270949
12.4876,88978.5187,-0.75657,-6.39731,10.01973,4.6212,-0.82772,1.4111,12.18,1.5,-31.5,0.01537,3.356662,127.475525,0.4422867789422274,-0.02620571,0.01307969,0.89639533
12.5071,88978.5386,2.47321,-4.0869,8.89685,4.85332,-1.49051,0.70555,11.94,-1.44,-31.08,5.2406,2.209809,128.059174,0.4365751611275591,0.00269833,0.04952813,0.8982994
12.5319,88978.5586,0.85234,-6.46674,4.69024,4.88753,-3.00485,-0.29322,11.34,-4.68,-30.78,9.12149,0.352904,127.764198,0.43860386953725583,0.0322479,0.07274771,0.89515054
12.5468,88978.5785,-0.94571,-3.01191,9.32063,5.08179,-4.20031,-0.37263,10.44,-7.86,-30.78,12.917279,-3.112389,126.920425,0.44655250324275586,0.0743838,0.08853811,0.88725358
12.5673,88978.5986,-2.95444,-1.93212,9.18176,6.24365,-4.77574,-0.35125,9.3,-11.22,-29.94,17.203354,-7.41297,126.461655,0.4530319450403034,0.12429033,0.10446735,0.87658459
12.5918,88978.6186,-4.13479,-1.37427,2.90896,6.89972,-6.31757,0.1686,6.96,-14.16,-29.1,22.681583,-12.340499,126.779297,0.4555278392336189,0.18179224,0.12759192,0.86207092
12.6129,88978.6396,-2.7653,2.7653,-1.58975,5.66578,-6.68409,0.57299,4.62,-17.76,-27.72,28.608912,-19.310719,128.406006,0.4530278845981475,0.25232443,0.14857349,0.84203565
12.6292,88978.6597,-0.08619,5.83228,0.07422,4.33348,-6.07383,0.64019,2.1,-20.94,-25.44,33.868584,-28.681324,131.809448,0.4442421788027654,0.33151022,0.16087532,0.81662047
12.6487,88978.6796,0.09577,6.12437,-0.56503,3.79897,-6.34567,0.69455,-0.42,-24.12,-22.92,37.492111,-38.023735,135.617844,0.435088009213587,0.40039411,0.1648248,0.78944016
12.671,88978.7006,-0.44053,3.77087,0.10774,3.69879,-6.49472,1.09834,-3.48,-26.64,-19.8,40.030273,-48.222439,140.033234,0.4244929289105028,0.46749032,0.16242239,0.75820678
12.6906,88978.7206,1.64003,3.00712,-0.25379,3.82463,-6.43913,1.6359,-6.12,-28.32,-16.8,41.477058,-59.853458,145.81311,0.4070897269793632,0.5361613,0.15619424,0.722781
12.7108,88978.7407,4.07493,2.91853,-1.59933,3.92237,-6.44768,1.99997,-8.7,-29.4,-13.32,41.473286,-71.536583,152.116028,0.3836921084016245,0.59975851,0.14711909,0.68660474
12.732,88978.7607,6.37097,3.33512,-3.56975,4.13922,-6.47273,2.15086,-10.92,-29.58,-9.66,40.152485,-83.233665,158.647217,0.3541215299710869,0.66053557,0.13662294,0.64778459
12.7501,88978.7806,7.29274,3.53624,-4.9943,3.97062,-5.7458,1.83993,-13.02,-29.94,-5.76,37.865273,-94.746056,164.857727,0.3210480520548975,0.71885663,0.12611412,0.60354662
12.7727,88978.8006,7.93917,3.99592,-6.8115,3.43612,-4.4361,1.67866,-14.52,-29.04,-1.68,34.938446,-104.766724,170.210052,0.2866003572175817,0.76845813,0.11808919,0.55981004
12.7985,88978.8207,5.03022,2.75812,-6.50744,2.91199,-3.35365,1.89124,-15.78,-28.44,2.04,31.737396,-112.280571,174.020889,0.25470206567610615,0.80561662,0.11048111,0.52335709
12.8153,88978.8406,3.50032,0.47405,-7.35738,2.68231,-2.76966,2.57724,-16.5,-27.48,5.76,27.963263,-117.93541,176.571915,0.22190118496024416,0.83484387,0.09962895,0.4938316
12.8312,88978.8606,6.608,1.72622,-9.47625,2.44041,-3.33532,2.6933,-16.98,-26.16,9.12,23.521841,-122.496277,178.019135,0.18681163207756318,0.85987258,0.08319408,0.46775988
12.85,88978.8807,6.60321,1.81002,-10.59434,2.28769,-4.4416,2.23882,-17.1,-24.84,12.42,19.26585,-127.515137,178.83049,0.1545292484890811,0.88499355,0.06496217,0.43438122
12.8732,88978.9006,5.04698,1.27132,-10.78827,2.09527,-5.14959,1.88696,-17.16,-23.04,15.48,15.539289,-133.514771,179.374146,0.12635295295168142,0.91068453,0.04837654,0.39031824
12.8909,88978.9206,1.73819,-0.62489,-11.01812,1.83382,-5.18808,2.02441,-17.4,-21.42,18.06,12.149656,-140.087402,179.537933,0.10083977826451171,0.93481302,0.03235001,0.33898294
12.9106,88978.9406,1.42934,-1.0343,-12.22958,1.64017,-5.18258,2.57846,-16.56,-19.86,20.16,8.806121,-146.465073,178.774292,0.0765798426037513,0.95483994,0.01193549,0.28683403
12.9311,88978.9606,2.53546,-0.33758,-13.6661,1.35918,-5.12088,2.82953,-15.24,-18.3,22.26,5.538212,-152.634766,176.96965,0.053169392632858116,0.97044933,-0.01423771,0.2349434
12.9508,88978.9806,3.055,-0.2897,-14.79617,0.90225,-4.83683,2.83808,-13.74,-17.1,24.24,2.817945,-158.458313,174.433624,0.033196467572085206,0.98115021,-0.04309705,0.18543167
12.9773,88979.0007,3.49553,-0.19872,-15.47133,0.30055,-4.53445,2.631,-11.88,-15.36,26.28,0.939523,-163.846222,171.524078,0.018477701632259428,0.98742521,-0.07201473,0.13951311
12.9901,88979.0206,3.19865,-0.01915,-15.3612,-0.16799,-4.28522,2.29441,-10.02,-14.1,27.9,0.039616,-168.949799,168.602219,0.009903991869897976,0.99043781,-0.09880597,0.09577179
13.0101,88979.0406,1.40061,-1.13485,-15.59583,-0.83811,-3.48865,2.0635,-8.46,-13.26,29.22,-0.003376,-173.583603,165.973114,0.006809496024260913,0.99096179,-0.12191246,0.0555492
13.0367,88979.0607,0.60334,-2.75812,-15.2367,-1.65667,-2.86801,2.27547,-6.36,-12.78,30.06,0.991083,-177.406158,163.344849,0.011831736122041756,0.9891941,-0.14459622,0.0211418
13.0555,88979.0806,3.0143,-1.61369,-12.9646,-2.24126,-2.48439,2.36222,-4.38,-13.26,29.7,2.892756,179.668839,160.545609,0.024390277212260707,0.98529291,-0.16897459,-0.00711223
13.0704,88979.1006,4.98952,0.4549,-11.03248,-2.31884,-2.30296,1.79961,-3.24,-14.04,29.76,5.249577,177.733932,157.950363,0.041161139073502565,0.98014987,-0.19188507,-0.0281445
13.0892,88979.1207,4.52983,1.5682,-11.32218,-2.16368,-2.40253,1.17408,-1.92,-14.7,29.04,7.664557,176.092789,156.093658,0.05830425768879176,0.97509038,-0.20875801,-0.04711112
13.1103,88979.1406,3.30639,1.97522,-12.55041,-2.18751,-2.58091,0.53267,-0.42,-15.9,28.38,9.915409,174.29155,155.030716,0.07354774533518112,0.97056425,-0.21930362,-0.06709462
13.1324,88979.1606,-0.65841,1.41258,-13.8313,-2.79837,-1.69637,-0.02993,0.78,-16.8,28.14,12.201345,172.291534,154.959625,0.08902383831969733,0.96694708,-0.22204214,-0.08823485
13.1498,88979.1805,-2.33195,-0.56264,-14.57351,-3.7104,-1.17714,0.1295,1.68,-18.12,27.48,15.083087,171.035767,155.539398,0.11146187403044312,0.9637146,-0.21939069,-0.10343184
13.1715,88979.2007,-1.55144,0.44053,-12.56477,-4.1997,-1.65056,0.49052,2.28,-20.22,26.46,18.764841,169.987793,156.029327,0.14098198545506233,0.95847905,-0.2180175,-0.11794219
13.1893,88979.2206,0.73263,2.11647,-11.19768,-4.22841,-2.22721,0.55833,2.7,-21.96,25.02,22.89007,168.419022,156.266724,0.17286232162557913,0.95015842,-0.22010881,-0.13736705
13.2094,88979.2406,2.30083,3.4261,-11.08755,-4.21619,-2.72873,0.13256,3.0,-24.12,23.34,26.967358,166.33638,156.614639,0.20326535587582328,0.93987453,-0.22283778,-0.16019484
13.2321,88979.2616,1.2809,3.26809,-10.30943,-4.42144,-2.84663,-0.46365,4.38,-26.16,20.7,30.857811,163.423599,157.768311,0.23153439170140697,0.92860395,-0.22153541,-0.18710583
13.2513,88979.2817,-0.34716,2.7653,-9.37091,-4.80384,-1.83748,-0.83811,5.64,-28.02,18.06,34.876122,159.801483,160.080109,0.2616496557841592,0.91601449,-0.21421103,-0.2158021
13.2698,88979.3016,-1.60412,2.6432,-9.64624,-5.39455,-0.60048,-0.93218,6.24,-29.46,15.66,38.735508,156.987259,163.344238,0.2942817748694765,0.90512007,-0.19935004,-0.23327121
13.2899,88979.3216,-1.02232,3.27048,-9.1243,-5.98892,-0.38912,-1.13804,7.08,-30.78,12.18,42.974457,154.579788,167.43602,0.33277047394874554,0.89342934,-0.17942959,-0.24259606
13.3144,88979.3417,-2.63123,2.37265,-5.46596,-6.32979,-0.38362,-1.3268,7.68,-31.68,9.3,47.346546,150.941711,172.996628,0.3739207326039249,0.87875372,-0.15469176,-0.25307241
13.3328,88979.3616,-4.96079,2.60968,-1.90818,-6.0384,-0.23824,-1.37689,8.34,-32.34,5.76,51.38245,145.634399,-179.784775,0.4146707629841361,0.86116189,-0.1264542,-0.26543868
13.3638,88979.3826,-5.62398,4.42927,-0.27054,-5.73114,-0.1295,-1.06474,9.54,-32.64,1.62,54.722691,138.739273,-171.084198,0.45314862424455565,0.84124494,-0.09684052,-0.27854118
13.3853,88979.4026,-4.4987,4.9943,0.56024,-5.3353,-0.5736,-0.99938,10.62,-31.86,-1.98,57.668365,130.197556,-160.889862,0.49260022501341255,0.81726444,-0.06835099,-0.29112196
13.4021,88979.4227,-4.70939,5.14035,1.92015,-5.13371,0.14661,-0.89736,11.64,-30.84,-6.24,59.583176,120.206825,-149.734283,0.5287168792578877,0.79091287,-0.04265097,-0.30511668
13.4209,88979.4437,-4.79559,4.06057,3.63679,-4.78491,1.32741,-1.14293,12.18,-29.22,-9.9,60.622913,109.498116,-136.810913,0.5666027292026392,0.76271766,-0.01138334,-0.31159836
13.4342,88979.4637,-5.85622,4.65433,3.86185,-4.04943,1.18935,-1.36712,12.78,-27.6,-13.14,60.049866,100.118767,-124.33358,0.5987830672727296,0.73701227,0.02586409,-0.31241447
13.4548,88979.4836,-6.57208,4.76446,3.71101,-3.42512,0.45571,-1.30542,13.26,-25.8,-16.2,58.323666,92.238724,-114.082191,0.6240023786676137,0.71187925,0.05902789,-0.31680384
13.4729,88979.5036,-7.11796,4.79798,4.71658,-3.07693,0.95539,-1.28098,14.4,-24.0,-18.24,56.05283,85.583664,-105.805809,0.6453179745027887,0.68628466,0.08667751,-0.32413745
13.4933,88979.5237,-6.96473,4.69024,5.07092,-2.58885,1.0006,-1.23334,15.36,-22.26,-19.98,53.467941,81.012047,-99.087044,0.6629491317334194,0.66333246,0.11615194,-0.3271043
13.5177,88979.5436,-9.09078,5.81552,4.39097,-1.99631,0.76297,-0.67501,16.26,-20.22,-22.02,50.996586,77.900436,-94.140472,0.6762410834249477,0.64347619,0.14134085,-0.32963488
13.5344,88979.5636,-10.48182,6.16268,3.16274,-1.62246,1.89429,-0.01894,17.1,-18.42,-22.98,49.204853,76.043472,-90.483604,0.6864228326917078,0.62860441,0.16145094,-0.3280454
13.5525,88979.5837,-12.60308,4.65193,3.28245,-1.44836,3.42573,1.23334,17.46,-17.1,-23.58,48.147469,76.202454,-87.263031,0.6937074048728041,0.62107736,0.18627973,-0.31358063
13.5759,88979.6036,-13.70202,4.37181,2.18351,-1.52289,5.25039,3.45261,18.42,-15.96,-24.18,48.615005,78.036507,-83.859184,0.6999487508625314,0.62132674,0.2131485,-0.28034362
13.5949,88979.6236,-9.34218,3.63679,-0.16041,-2.27914,6.10132,5.24672,19.38,-15.72,-23.16,51.546719,80.931145,-79.342239,0.7074900780998943,0.62771505,0.23866998,-0.22015505
13.6273,88979.6436,-10.6518,3.81636,-0.65841,-3.31639,5.15631,6.08361,20.52,-16.38,-22.08,55.989586,82.521896,-72.769737,0.7179891858750419,0.62949795,0.2594876,-0.14453389
13.6386,88979.6636,-5.06134,6.4811,2.04944,-3.80813,4.19298,5.6615,21.06,-17.16,-20.52,60.9398,79.780693,-62.933792,0.7338171390010415,0.62039626,0.26836613,-0.06782704
13.6536,88979.6836,-0.91459,7.20176,4.40294,-3.30906,3.58761,4.7,21.48,-18.3,-18.72,64.920021,72.815247,-49.967491,0.750076803871529,0.60305125,0.27149633,0.00192898
13.676,88979.7037,-5.29119,8.97826,15.78018,-1.40988,5.79833,4.28033,21.48,-19.5,-17.82,67.354256,63.635941,-35.334816,0.7624964361366797,0.58211464,0.27504772,0.06395688
13.6922,88979.7236,-6.79714,5.76524,4.96079,0.35858,7.63459,5.19541,20.64,-20.46,-17.04,69.984688,61.03154,-24.755335,0.7517706945314901,0.57172042,0.3004162,0.13314162
13.7124,88979.7436,2.55222,7.50582,-4.10606,-1.5852,5.64562,4.67312,20.28,-21.06,-16.14,74.381134,58.771347,-13.756928,0.7246586371904464,0.56971914,0.32500237,0.21133722
13.7379,88979.7637,2.7653,11.60709,4.75967,-1.49112,4.85394,3.29256,19.68,-22.56,-14.28,76.618462,45.778061,6.07172,0.7091069984375598,0.554129,0.33501539,0.27905735
13.7555,88979.7836,-0.64643,9.51935,3.60088,-0.46304,4.85943,2.6481,19.08,-23.64,-12.36,77.384178,34.716377,23.020779,0.692771899459376,0.53819859,0.34724149,0.3314102
13.773,88979.8036,-4.09169,7.21852,1.65439,-0.74526,5.86919,3.33594,18.96,-25.14,-10.62,77.972023,27.477489,36.468216,0.670393576756177,0.52267998,0.36655787,0.37817115
13.7964,88979.8237,-1.76213,7.89608,2.21224,-1.4844,7.95469,4.31821,18.18,-26.46,-9.06,78.07563,16.27211,55.439823,0.6392042393810144,0.50080454,0.38732794,0.43656594
13.8138,88979.8436,2.04465,7.11557,2.04225,-2.1704,9.42809,4.56072,17.22,-27.18,-7.62,76.778542,2.72729,79.227219,0.594223549273235,0.46636665,0.41021162,0.51100582
13.8395,88979.8636,3.94564,7.71412,3.0957,-2.45934,10.23199,4.10013,16.44,-28.26,-6.3,73.940681,-5.76155,99.428192,0.5390044680016406,0.4190062,0.43222266,0.58914477
13.8576,88979.8837,4.81713,10.76194,2.27689,-2.43308,10.03529,3.20765,14.52,-29.4,-4.44,70.692619,-7.803369,113.885132,0.4768928888363286,0.36135527,0.45347011,0.66057581
13.8729,88979.9036,2.20267,11.8082,3.13162,-2.43918,9.65656,2.10199,12.48,-31.14,-3.36,67.715836,-5.294147,123.246239,0.41689162128894797,0.29825041,0.47143969,0.71762991
13.9004,88979.9236,-1.20907,8.32943,3.33991,-1.87108,9.18863,1.88513,10.62,-32.46,-2.88,65.269745,0.236463,129.083832,0.3609820296506646,0.23024179,0.48766491,0.76083088
13.9168,88979.9437,-1.95606,5.68862,2.60968,-1.85825,9.17581,2.36649,9.0,-33.12,-1.74,63.558823,5.578454,134.930634,0.30173057678043663,0.16338755,0.50171655,0.7940678
13.9396,88979.9646,-0.71347,6.50505,3.23217,-1.67438,8.20575,2.2883,7.74,-33.42,-1.56,62.02565,10.065631,142.209763,0.23371138139830785,0.09507273,0.50993437,0.82237893
13.9568,88979.9847,-0.08619,8.30309,1.77889,-1.49295,6.63094,1.46363,6.6,-33.06,-1.32,61.168606,13.692961,148.425919,0.1741770939447547,0.03868574,0.51404238,0.83900309
13.9745,88980.0046,0.29928,8.88967,0.9912,-1.79228,4.91075,0.33292,5.7,-32.82,-1.32,60.48806,17.306837,152.492401,0.12944162075053062,-0.00786331,0.51457459,0.84758246
13.9982,88980.0246,-0.99599,8.48266,4.05338,-2.0409,3.74521,-0.41966,4.26,-32.7,-2.34,59.044239,20.73801,154.607376,0.10160245016792381,-0.04625728,0.50728256,0.85451835
14.0193,88980.0447,-2.82037,7.79313,5.03501,-1.8387,2.98774,-0.58032,4.02,-33.06,-3.12,57.129986,23.970251,155.628387,0.08429157828154757,-0.0795411,0.49569079,0.86073154
14.0386,88980.0646,-1.93691,7.04853,3.76847,-1.93095,2.43857,-0.5565,4.74,-33.42,-3.96,55.36525,26.591251,156.529892,0.07066969931093624,-0.10743925,0.48409113,0.86551625
