AppTimestamp(s),SensorTimestamp(s),acc_x,acc_y,acc_z,gyro_x,gyro_y,gyro_z,mag_x,mag_y,mag_z
50.0042,89016.0332,0.10739084756776239,-0.32074519387911316,0.009854293060746144,0.01405,0.00672,-0.00305,14.28,-26.22,-15.24
50.0229,89016.0533,0.11579838762785814,-0.3183775930246154,0.048707483380155736,0.00672,-0.03054,0.00305,14.16,-25.92,-15.54
50.0448,89016.0733,0.12362511525569103,-0.30852993035915044,0.07535987431853286,0.01466,-0.05437,0.00305,13.8,-26.04,-15.36
50.0622,89016.0932,0.13495843027673415,-0.2866169032550218,0.08137862065527024,0.00672,0.00489,-0.01466,13.44,-26.04,-15.6
50.0847,89016.1133,0.14716967387666524,-0.25470653693397777,0.06489980097360615,-0.00428,0.04948,-0.00672,13.62,-26.34,-15.96
50.1034,89016.1333,0.15310688428098185,-0.21738987480194671,0.031359482306630326,0.04032,0.011,0.00183,13.8,-26.4,-15.66
50.1245,89016.1532,0.151004683506567,-0.18316287905072254,-0.008549662303263261,0.06903,-0.04398,0.02505,13.92,-26.7,-15.78
50.1436,89016.1743,0.1455557615418682,-0.15513823676628022,-0.042443126866434255,0.04093,-0.0171,0.02993,14.04,-27.12,-15.96
50.1672,89016.1943,0.14039729533449002,-0.13970519196817122,-0.06056047907723894,0.01405,0.02566,-0.00977,13.98,-27.06,-15.84
50.1859,89016.2152,0.1342981830621249,-0.13982701009292914,-0.05891627067623695,-0.011,0.02016,-0.02749,14.04,-27.54,-16.08
50.2099,89016.2362,0.12571269778572705,-0.15645526609746557,-0.0406893725026638,-0.02077,-0.00428,-0.01038,13.92,-27.48,-16.14
50.2332,89016.2563,0.11460868947023765,-0.18550756724000983,-0.01484246244609011,0.01038,-0.04581,0.00977,14.22,-27.42,-16.14
50.2463,89016.2763,0.11034488097014783,-0.2126426444249481,0.007570488349115223,0.05131,-0.05131,0.02016,14.34,-27.48,-16.2
50.2675,89016.2962,0.11138179643384442,-0.23050713368488798,0.017688442097362866,0.01161,-0.02321,-0.00855,14.16,-27.0,-16.38
50.2852,89016.3163,0.11778165437031285,-0.23151495511000564,0.011840030778259347,-0.02138,0.03176,-0.02871,14.16,-26.82,-16.08
50.3113,89016.3373,0.12529956247570603,-0.21678960211514356,-0.007862818082680079,-0.01894,0.0055,0.00061,14.16,-26.22,-15.84
50.3307,89016.3573,0.12781193576707242,-0.19586237133885545,-0.034793380625881554,-0.00794,-0.00244,0.00733,13.92,-25.98,-15.9
50.3527,89016.3783,0.12609223509813114,-0.1742496785205509,-0.0599825549641082,-0.00611,0.00672,-0.01038,14.16,-26.46,-15.18
50.3675,89016.3983,0.11994830688518501,-0.15770464073615648,-0.07481767801694339,-0.01222,0.03421,-0.00489,14.16,-26.16,-15.06
50.3869,89016.4182,0.10995134075039585,-0.14945434893647916,-0.07349346600668838,0.00855,-0.02077,0.02077,13.62,-26.16,-14.88
50.4059,89016.4382,0.09959627408214246,-0.14923574055518563,-0.054718955648539236,0.02749,-0.0733,0.01772,13.62,-26.34,-14.4
50.4289,89016.4583,0.09236332471002148,-0.15483413932888318,-0.02202819878264073,-0.03238,-0.0336,0.00305,13.74,-25.86,-14.76
50.4479,89016.4782,0.09176396528909272,-0.16723272562259525,0.01732192924900211,-0.06231,0.03971,0.00489,13.68,-26.1,-15.06
50.4674,89016.4983,0.09489354974125684,-0.18383231285524093,0.054685661771241456,-0.03176,0.05192,-0.00122,13.92,-26.22,-15.6
50.4953,89016.5183,0.09960833878305612,-0.19907809261639797,0.08225879836812489,-0.00794,-0.00367,-0.00672,13.74,-26.4,-15.78
50.5085,89016.5382,0.10391311491618503,-0.20914718728537385,0.09473303757022578,-0.00061,-0.02016,0.00428,13.56,-26.4,-15.84
50.5328,89016.5583,0.10932006809255952,-0.2067507704720187,0.09035792962690614,0.00122,-0.01466,0.01222,13.86,-26.64,-16.08
50.5512,89016.5783,0.11902416912604895,-0.18987574299596077,0.0710993424729427,0.00977,0.01588,0.02077,14.16,-26.34,-16.02
50.5929,89016.5982,0.12673683385617823,-0.16553416172873317,0.042299722877251256,0.01161,-0.00183,0.01955,14.1,-26.22,-15.78
50.5947,89016.6192,0.13649505107884505,-0.13623803587080885,0.011430361722579718,0.0055,0.0226,0.01833,14.1,-26.76,-15.78
50.6081,89016.6393,0.14232383587777064,-0.11300645206496411,-0.013877386571143902,-0.01344,-0.00122,0.00794,14.04,-26.76,-15.54
50.6287,89016.6593,0.1466557467447303,-0.0992184392089218,-0.027933174325267984,-0.0281,0.02749,-0.02749,13.62,-27.24,-15.36
50.6496,89016.6792,0.14879048020005617,-0.09908620983891507,-0.02852989193070954,-0.02688,0.02993,-0.0281,13.5,-27.12,-15.36
50.6681,89016.6993,0.14918868692282605,-0.11417544555633083,-0.017492614250967264,-0.04093,0.00794,0.00244,13.5,-26.64,-15.42
50.6876,89016.7193,0.15021220068522226,-0.13999811656587982,9.876087947269241e-05,-0.01649,-0.00428,0.01649,13.32,-26.76,-15.3
50.7076,89016.7392,0.15272005748196618,-0.1690550693140924,0.01785254976192263,0.01588,-0.00489,0.00244,13.56,-26.34,-15.54
50.7275,89016.7593,0.15519431424577312,-0.19211543897879832,0.03037207922258034,-0.01405,0.01466,-0.01955,13.5,-26.52,-16.08
50.7493,89016.7793,0.15503967252800072,-0.20214466733263856,0.03491912814692455,-0.0672,0.03115,-0.01038,13.2,-26.7,-16.2
50.7702,89016.7993,0.15024990331816934,-0.1994848312952915,0.032057870165662194,-0.05681,-0.00122,-0.01649,13.14,-26.46,-16.02
50.7875,89016.8193,0.1410646883246473,-0.18883202156398426,0.02560997869865922,-0.03971,0.02016,-0.02138,12.96,-26.94,-15.9
50.8092,89016.8393,0.13206364235588142,-0.17095815517635454,0.021775284253038762,-0.03054,0.0281,-0.0171,13.26,-26.82,-15.96
50.8391,89016.8603,0.12277264518156031,-0.1521439001014062,0.02690439705508041,-0.00428,0.00916,0.01772,13.44,-26.88,-15.78
50.8592,89016.8803,0.11858179333378197,-0.1369550865086487,0.044653765245946886,0.00489,-0.04948,0.03604,13.38,-26.82,-16.02
50.8711,89016.9013,0.12278149973734055,-0.13014679164066617,0.07391259930890293,-0.00794,-0.05253,0.00855,13.56,-26.34,-15.9
50.8898,89016.9212,0.12746581715310712,-0.13492545999312458,0.10876531184305627,-0.01588,-0.03115,-0.01405,13.56,-26.46,-15.36
50.91,89016.9413,0.12899526277179665,-0.15412975999211354,0.1402505342520275,-0.02016,-0.02688,-0.02566,13.68,-26.4,-15.24
50.93,89016.9613,0.11925896074397377,-0.18715314503244898,0.15953187280627645,0.00061,-0.00733,-0.00305,13.68,-26.64,-15.54
50.9565,89016.9812,0.09270929184761935,-0.22873844129064527,0.16053588972040167,0.01772,-0.01405,-0.01161,14.28,-27.18,-15.6
50.9704,89017.0013,0.05454058136201414,-0.26257511339238615,0.14159894488584612,0.04154,-0.0452,-0.01405,14.46,-27.36,-15.72
50.9906,89017.0213,0.011792912443619234,-0.28147229501469295,0.1053751631657942,0.00916,-0.0336,-0.00916,14.4,-27.36,-15.78
51.0138,89017.0412,-0.02219217507557808,-0.2781046296891721,0.05833805003802972,-0.03115,-0.00061,-0.00977,14.52,-27.36,-15.48
51.0349,89017.0613,-0.04181448484120891,-0.25515642571057234,0.00955301224725602,0.01283,0.0562,-0.01833,14.1,-27.12,-15.66
51.0598,89017.0813,-0.04624631361851848,-0.22061193528154754,-0.03060185970196372,0.03604,0.03054,0.01038,13.92,-26.88,-15.6
51.0724,89017.1012,-0.03272120813375823,-0.1735380324075707,-0.05252537565862525,0.06781,-0.00672,0.06048,13.5,-26.76,-15.42
51.0901,89017.1213,-0.004865839215925574,-0.1299233720615345,-0.05153888257204464,0.05864,-0.05498,0.08308,13.38,-26.46,-15.24
51.1109,89017.1413,0.037294285779714845,-0.09405261775967615,-0.030185918130969824,0.01955,-0.03726,0.07086,13.5,-26.4,-14.94
51.1341,89017.1613,0.09028803902172847,-0.06928731526867622,0.0012724172501563658,-0.00244,0.01161,0.04826,13.5,-26.46,-15.12
51.163,89017.1812,0.14209666874984095,-0.057017474415261206,0.028409512800253722,-0.01894,0.04093,0.02382,13.92,-26.82,-15.24
51.1743,89017.2022,0.17941332435348437,-0.05602628361841234,0.03826339401932266,-0.00916,0.00428,0.01649,13.98,-27.36,-15.48
51.2037,89017.2223,0.1898247074654539,-0.05847815308694151,0.024416007031417664,0.02993,-0.03421,0.02749,14.1,-27.3,-15.54
51.2132,89017.2423,0.1882640857523099,-0.0536860940123682,-0.011031648229195667,0.03115,-0.03176,0.03787,14.28,-27.3,-15.54
51.2337,89017.2622,0.17046131211064128,-0.04645248549811967,-0.05727934410399094,-0.01894,0.00794,0.03115,13.98,-26.94,-15.72
51.2575,89017.2823,0.14526293679791927,-0.04209590612695845,-0.098706178613444,-0.02016,0.03787,0.00916,14.16,-26.34,-15.48
51.2741,89017.3023,0.1129943061436393,-0.048490730738939614,-0.1196080302128788,0.02566,0.00428,-0.01283,13.98,-26.46,-15.72
51.2966,89017.3233,0.07584828230650952,-0.06773511439145043,-0.10981954637163405,-0.01527,-0.0507,0.00183,13.86,-26.46,-15.66
51.3199,89017.3432,0.03994008728439282,-0.099920810191954,-0.06864401008093601,-0.07269,-0.05192,0.02199,13.86,-26.76,-15.54
51.339,89017.3633,0.015606042132162254,-0.14393393320740666,-0.005419765719846481,-0.06903,-0.02443,0.03482,13.68,-27.06,-15.96
51.3618,89017.3833,0.003202337420642704,-0.18856443644905163,0.06388560537642896,-0.00183,0.01649,0.02932,13.32,-27.06,-15.66
51.3757,89017.4032,0.001092014534414959,-0.2265890150595894,0.12208182707621695,0.00061,0.02077,0.02382,12.9,-27.18,-15.78
51.3914,89017.4232,0.002981556784076922,-0.24644572613761034,0.1563327268162027,-0.06353,0.03054,0.011,12.96,-27.06,-15.66
51.413,89017.4433,0.007115263542135777,-0.2450459556259188,0.16115963465475325,-0.0507,0.01038,0.01588,12.6,-26.58,-15.3
51.4311,89017.4632,0.015116892338380193,-0.22658024843174016,0.1390505291147619,0.02688,-0.01344,0.03238,13.02,-26.52,-15.18
51.451,89017.4832,0.027994025644876065,-0.1924766811278964,0.09896366459395267,0.03604,0.06353,0.03054,13.14,-26.16,-15.18
51.471,89017.5032,0.044136968925358164,-0.14563484285335523,0.052707932346217845,0.01222,0.02138,0.05253,13.26,-26.28,-15.42
51.491,89017.5232,0.06071283774261927,-0.09396414536175784,0.01104051492641922,-0.01283,-0.03299,0.06231,13.74,-26.52,-15.72
51.511,89017.5431,0.0758264408278023,-0.04976792239179535,-0.018685358511504546,0.00244,-0.01588,0.06109,13.68,-26.34,-16.02
51.5318,89017.5631,0.08733663596558477,-0.024694514975862426,-0.03273643433185214,0.04887,-0.00855,0.02688,13.74,-26.76,-16.2
51.5567,89017.5832,0.09153584750829954,-0.026219689027190435,-0.030184119133570775,0.02505,0.00611,0.01222,13.92,-26.52,-15.72
51.5759,89017.6032,0.08558831153149062,-0.05302837695270319,-0.012467676453010057,-0.01588,0.01038,0.02993,13.74,-27.24,-15.48
51.5925,89017.6232,0.06988432907262261,-0.10139692471691696,0.01632299913601365,0.011,0.00183,0.02932,13.5,-27.18,-15.3
51.6126,89017.6432,0.04902058481160199,-0.1596295599318169,0.049378105206177025,-0.0171,-0.02321,0.03238,13.56,-27.0,-14.64
51.6429,89017.6632,0.03135574212346947,-0.20980525746834866,0.07835045841998323,-0.02688,-0.03543,0.02199,13.44,-26.88,-15.12
51.6548,89017.6832,0.026284554296781643,-0.24713740718791158,0.09543023076713375,-0.03299,0.011,0.00305,13.74,-26.28,-15.48
51.6721,89017.7032,0.02964472422261013,-0.2563871008208841,0.09655963995812833,0.00489,0.04093,0.01161,14.1,-26.4,-15.9
51.692,89017.7232,0.03597269052426197,-0.23633576838846798,0.08227253674469814,0.06292,-0.00733,0.03543,14.1,-26.22,-16.44
51.714,89017.7432,0.042773355400968716,-0.18904391584661726,0.05692313776246749,0.07391,-0.06536,0.05986,14.28,-26.7,-16.5
51.7347,89017.7632,0.05497727620399716,-0.12088156203248175,0.026020189504027513,0.01833,-0.0391,0.06231,14.34,-27.0,-16.56
51.756,89017.7832,0.07107699273158614,-0.04864803983452956,-0.005879738299185533,0.0,0.02077,0.02443,13.98,-27.48,-15.96
51.776,89017.8041,0.0830986393905778,0.009035697855404515,-0.035234270674351365,0.02016,0.04643,0.00122,14.28,-27.9,-15.54
51.8,89017.8242,0.08101666078191223,0.03765863106052736,-0.058877038257294956,0.03299,0.01222,0.03421,13.92,-27.54,-15.6
51.8178,89017.8441,0.06637659748482712,0.03856020744220431,-0.07405945846006468,0.05253,-0.04032,0.05131,13.86,-27.42,-15.12
51.8337,89017.8642,0.047960109458018096,0.01721982660657394,-0.07887088752284299,0.03848,-0.05925,0.03176,13.68,-27.12,-15.3
51.8574,89017.8842,0.03309563311497346,-0.017428094198243815,-0.07283161921876946,0.00916,-0.01833,0.00916,13.38,-26.94,-15.42
51.8744,89017.9042,0.02966320188268513,-0.0531188281460409,-0.05747183722447602,-0.01772,0.03665,0.00977,13.68,-27.18,-14.82
51.8951,89017.9242,0.033013001951744496,-0.08181707921554912,-0.0364788568003096,-0.01894,0.02871,0.02749,13.2,-27.12,-14.82
51.9147,89017.9442,0.038004125910729186,-0.09936262069203253,-0.015278240401141119,-0.00061,-0.00855,0.0452,13.56,-26.94,-14.88
51.9362,89017.9642,0.04237215712993028,-0.1034903860849338,0.00026289964587888903,0.03115,-0.03971,0.04704,13.38,-27.12,-15.06
51.9576,89017.9842,0.048922224483820165,-0.09488391532362325,0.005657477092373853,0.00489,-0.03726,0.0336,13.44,-27.3,-15.54
51.9742,89018.0042,0.056209135489527814,-0.07711026851295082,-0.0005020258154591062,0.01527,0.05803,0.00611,13.56,-27.36,-15.36
51.9987,89018.0252,0.061251210739261444,-0.05892628633949668,-0.016063520988154778,0.02382,0.06353,-0.011,13.38,-27.36,-15.36
52.0181,89018.0452,0.057780551166791635,-0.04805077090809637,-0.03635142777420164,-0.01772,0.02382,0.00672,13.5,-26.94,-15.06
52.0367,89018.0652,0.05110571665932204,-0.04999955082367015,-0.056236163567845665,-0.02749,0.00428,0.01588,13.2,-26.7,-15.42
52.0612,89018.0852,0.04916893124512864,-0.06502361995300684,-0.07146387981874014,0.02688,0.01955,0.00733,13.44,-26.64,-15.66
52.0843,89018.1051,0.05878693954179009,-0.08598418937458605,-0.07884558378566986,0.03604,0.02932,0.00489,13.44,-26.88,-15.72
52.0959,89018.1262,0.07865782808483128,-0.10129581113248703,-0.07602643603106962,0.00672,0.04581,0.02382,13.56,-27.42,-15.84
52.1162,89018.1462,0.10760787406570259,-0.1066797381951876,-0.06205195838045974,-0.00794,0.05742,0.01405,13.44,-27.72,-15.42
52.1387,89018.1662,0.13809576688254266,-0.09811658936788739,-0.03826915249084806,-0.01038,0.04826,-0.00244,13.14,-27.72,-15.24
52.1575,89018.1862,0.16249956938619245,-0.0766431930318749,-0.009062883236875763,-0.01588,0.0507,-0.00916,13.32,-27.54,-15.12
52.1779,89018.2062,0.17836372833372516,-0.04159654868733749,0.018652211229669646,0.00916,0.04948,-0.0055,13.68,-27.3,-15.0
52.1999,89018.2262,0.18296622928631287,0.0064349755053749996,0.037309714732082,0.02321,0.0672,-0.01527,13.92,-26.82,-14.94
52.2237,89018.2462,0.17349644905809627,0.06341653040996273,0.04124154695212745,0.00977,0.09468,-0.0281,14.22,-26.88,-15.12
52.238,89018.2662,0.13803165836325584,0.11917476748066734,0.02909251205838359,0.0,0.10018,-0.02993,14.4,-27.0,-15.24
52.257,89018.2862,0.08829760579138422,0.1587834659675611,0.004291024600059146,-0.00122,0.07636,-0.04032,14.52,-26.94,-15.3
52.2771,89018.3062,0.02792737135402,0.1707539924124459,-0.02531246755560268,0.0171,0.05559,-0.04398,14.52,-27.36,-15.66
52.3026,89018.3262,-0.02836980458369519,0.15267287118903783,-0.0503863377177769,-0.00489,0.0617,-0.05131,14.34,-27.12,-15.72
52.319,89018.3462,-0.07962133889257274,0.10865805629204191,-0.0634107423890562,-0.04154,0.05803,-0.06048,14.34,-27.12,-15.36
52.3555,89018.3662,-0.09701433395634453,0.0660131353168617,-0.06138060382169286,-0.06964,0.05192,-0.0562,14.16,-27.36,-15.42
52.358,89018.3862,-0.10724435839180585,0.00046973468106480224,-0.046757071674022654,-0.07941,0.00916,-0.02505,14.16,-27.48,-14.7
52.3775,89018.4062,-0.09171279132941171,-0.03790834356601267,-0.025796811887817128,-0.06597,0.00367,0.00977,14.04,-27.66,-14.46
52.3953,89018.4262,-0.06611636067623036,-0.05683741336469151,-0.005239186817123098,-0.01833,0.04826,0.04459,13.86,-27.6,-14.46
52.4157,89018.4461,-0.044887794124805334,-0.05567321205787858,0.010888388775953217,-0.01222,-0.0336,0.03848,13.56,-27.18,-14.28
52.434,89018.4662,-0.037598119534307674,-0.04158660862499699,0.022689240245274078,-0.011,0.00428,0.01527,13.62,-26.88,-14.4
52.4559,89018.4862,-0.04909460045765425,-0.02507976061354824,0.033500796980336034,-0.02566,0.03604,0.00122,13.74,-26.7,-14.76
52.4765,89018.5061,-0.07804053534237522,-0.022229873725201094,0.04761994694943006,-0.10507,0.05803,-0.01955,13.86,-26.58,-15.24
52.4949,89018.5262,-0.12000786675909957,-0.04498575804994224,0.06778446495439105,-0.09224,0.09285,-0.03971,14.22,-26.46,-15.06
52.5179,89018.5462,-0.16165574005464528,-0.08824676185593477,0.09358343421418347,-0.03054,0.05559,-0.01344,13.98,-26.64,-15.42
52.5349,89018.5662,-0.1909442722586659,-0.1437255160854378,0.1213559887589657,-0.02382,-0.01344,0.02627,14.16,-26.7,-15.12
52.5545,89018.5862,-0.19073946907607128,-0.18999547545028186,0.14605491143286287,-0.00428,-0.01161,0.06964,13.98,-26.64,-14.76
52.5762,89018.6062,-0.14948185995648428,-0.21420840989288462,0.16305578997010883,-0.01955,0.011,0.07575,13.56,-27.06,-15.18
52.5976,89018.6262,-0.06708717638440037,-0.21451853469311308,0.16961232760101552,-0.00489,0.06781,0.05498,13.56,-26.7,-14.94
52.6175,89018.6462,0.04154471258524272,-0.19653602116142252,0.1657359772067224,0.03665,0.0507,0.07514,13.38,-26.52,-15.12
52.6358,89018.6661,0.15742440317021877,-0.16655157738564905,0.15387097176005504,0.06597,0.01344,0.09224,13.26,-26.52,-15.24
52.6558,89018.6862,0.26297925944049994,-0.13089652355317855,0.13669336610562688,0.07636,-0.04154,0.10446,13.68,-26.22,-15.12
52.6744,89018.7062,0.35068495746676065,-0.08947974916273829,0.11476448706171105,0.05009,-0.02749,0.08491,13.56,-26.76,-15.24
52.698,89018.7262,0.4088165720890794,-0.04717051333068677,0.08652097324425156,0.03971,0.04704,0.07575,13.86,-26.88,-15.24
52.719,89018.7462,0.43016760448501506,-0.00256960286294031,0.05024175508535933,0.05131,0.09285,0.02749,14.34,-27.24,-15.18
52.7381,89018.7662,0.4035393396273314,0.04126363138462448,0.006667802170225556,0.06231,0.10812,-0.01405,14.4,-27.66,-15.3
52.7565,89018.7872,0.33042164703786137,0.08144168561983199,-0.04090060526081274,0.0617,0.0617,-0.04093,14.4,-27.3,-15.3
52.7785,89018.8072,0.22917642377692982,0.11396172356528658,-0.0875952788092178,0.02627,0.03787,-0.05315,14.4,-27.42,-15.12
52.7969,89018.8272,0.11861675627394204,0.14137075038882277,-0.1277866182377636,0.03482,0.03115,-0.07269,14.4,-27.36,-14.7
52.8186,89018.8472,0.02622623124035878,0.16210643764957755,-0.15626278471313348,0.03543,0.07819,-0.09102,14.16,-27.18,-14.82
52.8412,89018.8672,-0.04025638905855994,0.17688824581138468,-0.16895797967320014,-0.01955,0.10446,-0.0843,14.52,-27.3,-14.4
52.8598,89018.8882,-0.08661685430805723,0.1804309224384379,-0.16420778106217604,-0.06842,0.08491,-0.05559,14.1,-27.12,-14.52
52.8767,89018.9082,-0.11340964020855594,0.17026420458367503,-0.14316631354841647,-0.03238,0.00428,-0.02932,13.68,-27.24,-14.52
52.9013,89018.9282,-0.12417230175691725,0.14851026518282517,-0.10941746025138244,0.02932,-0.03971,-0.01405,13.68,-27.3,-14.4
52.9313,89018.9492,-0.12652626084566748,0.1197801794873837,-0.06793361352239558,-0.02016,0.00428,-0.01466,13.74,-27.18,-14.46
52.9436,89018.9692,-0.13263480805218894,0.08509357896702431,-0.02380954748461228,-0.04765,0.05986,0.0,13.86,-27.3,-14.28
52.9593,89018.9892,-0.14826577265107538,0.04919015210653136,0.018588565458447448,-0.05376,0.02443,0.00855,14.22,-26.88,-14.34
52.9787,89019.0092,-0.17370869644316536,0.01263586532327941,0.05602155726728064,-0.06781,-0.03299,0.0171,14.52,-27.36,-14.22
53.0008,89019.0292,-0.1992245851058214,-0.025243367125649393,0.08651089174228233,-0.06231,-0.02688,0.01649,14.64,-27.18,-14.52
53.0195,89019.0492,-0.2125280736121276,-0.06264383767056027,0.10918921977432028,-0.02505,0.04704,0.01405,14.88,-27.3,-14.7
53.0412,89019.0702,-0.2085965784069926,-0.08948991894892308,0.12369395157656982,-0.00367,0.07208,0.03421,14.88,-27.54,-15.06
53.0653,89019.0902,-0.1890048620113031,-0.09892630638668715,0.12929108035288195,-0.03482,0.03054,0.06658,14.58,-27.36,-15.18
53.087,89019.1102,-0.15385706165329063,-0.08920841979447747,0.124510718598696,-0.03848,0.00733,0.08552,14.22,-27.48,-15.0
53.11,89019.1302,-0.10542706892824999,-0.061745985799595615,0.10786138382153432,0.00672,0.02627,0.06597,14.22,-27.24,-15.0
53.1247,89019.1502,-0.049268786868114145,-0.02107128609491176,0.07983153837877133,0.01344,0.06903,0.04765,14.28,-27.06,-14.76
53.1397,89019.1702,0.0009894085614071265,0.025572219455244963,0.04468874302387782,0.03238,0.11606,0.03482,14.76,-26.82,-14.82
53.163,89019.1902,0.03709886220188158,0.06377463151893602,0.01036071920957049,0.05742,0.06414,0.04032,14.88,-26.82,-14.82
53.1813,89019.2102,0.05512288188827006,0.09054626764813846,-0.014469965600516943,0.04704,0.01466,0.03848,15.06,-26.94,-14.64
53.1994,89019.2302,0.06308519661408446,0.0972673916497115,-0.02416254556934838,0.03238,0.0055,0.01894,15.06,-27.06,-14.58
53.2195,89019.2511,0.07039964678998772,0.08329759466043471,-0.018922494456212746,-0.00428,0.07453,0.01772,14.28,-26.88,-14.16
53.24,89019.2712,0.08072889042681519,0.05512601745763716,-0.005316779508719449,-0.02077,0.07697,-0.01038,14.58,-27.0,-14.22
53.2622,89019.2912,0.09141469630496103,0.025611402803434914,0.005744317979374358,-0.0226,0.06842,-0.00183,14.34,-27.18,-14.1
53.2834,89019.3112,0.09692990271395963,0.011368915623777601,0.0033260802901615705,-0.03421,0.00489,0.00977,14.34,-27.06,-14.1
53.3091,89019.3312,0.09691510893387187,0.030397383824989698,-0.017957439885082138,-0.00061,0.01894,0.00122,14.7,-26.88,-14.28
53.3244,89019.3522,0.09379055450157839,0.0884005609713832,-0.05306350696571016,-0.00428,0.00244,0.00244,14.58,-26.82,-14.46
53.3432,89019.3732,0.08896191043634777,0.17693369988061639,-0.08521619436517369,-0.01283,0.04093,-0.02016,14.76,-26.82,-14.64
53.3689,89019.3942,0.08259352259270634,0.2660009107293953,-0.09020095018246543,0.02443,0.03482,-0.02932,15.0,-26.82,-14.52
53.3879,89019.4142,0.06331194067450353,0.32111265696750807,-0.04631039860896102,0.04093,0.01588,-0.01772,15.06,-27.12,-14.52
53.4033,89019.4342,0.032222224232740605,0.3120389560790849,0.05374793293331237,0.03543,-0.04215,0.00489,14.7,-27.48,-14.34
53.4221,89019.4541,-0.00994751094108963,0.2248228228272219,0.19580489428838277,0.02627,-0.08858,-0.00977,14.58,-27.6,-14.52
53.4434,89019.4741,-0.05541308091640976,0.07403374359931258,0.3461255203873712,-0.0452,-0.13256,-0.0391,14.16,-27.72,-15.06
53.4648,89019.4942,-0.09535654302634332,-0.10981216890965267,0.4627303169443202,-0.07575,-0.08063,-0.12401,14.1,-27.6,-15.06
53.483,89019.5142,-0.13313893869993654,-0.28704954306277,0.5100964698814732,0.00733,0.05437,-0.13439,14.64,-27.48,-15.06
53.5031,89019.5342,-0.16775387248158946,-0.41508709358378376,0.47241368125249217,0.08613,0.05315,-0.0843,14.58,-27.06,-14.58
53.5253,89019.5542,-0.19764127584544297,-0.4658754476805326,0.35904394195610223,0.11851,0.00428,-0.0281,14.64,-27.18,-14.22
53.5485,89019.5742,-0.21202500362109847,-0.42935404234370905,0.20030469767747938,0.13073,-0.04337,-0.01222,14.76,-27.36,-14.52
53.566,89019.5952,-0.20016536959025533,-0.3117389495185291,0.03551557082596979,0.14844,0.02382,-0.05192,14.82,-27.18,-14.76
53.5842,89019.6152,-0.1610181052629214,-0.15761057789890365,-0.10144863353458966,0.12095,0.07147,-0.03665,15.06,-27.48,-15.18
53.6042,89019.6352,-0.10621074215610182,-0.008905381424535166,-0.18955684455166022,0.09285,0.08491,-0.00122,15.0,-27.42,-15.0
53.626,89019.6552,-0.052310472521211154,0.10084867422981882,-0.2239185121638041,0.11301,0.04154,0.01344,14.94,-27.24,-14.4
53.647,89019.6751,-0.009693403594954275,0.15936648704061343,-0.21398805390663256,0.12156,-0.00977,0.01222,14.76,-27.42,-14.1
53.6658,89019.6952,0.021168564128187715,0.175511513148103,-0.17830621974875882,0.10751,-0.03054,0.01466,14.28,-27.24,-13.44
53.6846,89019.7152,0.04133167043971255,0.1689467435492372,-0.1373116130580989,0.06903,0.00367,-0.0055,14.46,-26.76,-13.26
53.7083,89019.7352,0.05240796272792296,0.1639746834290951,-0.10721001323369883,-0.00122,0.05437,-0.03176,14.4,-26.82,-12.96
53.7246,89019.7552,0.04407189057431393,0.17306613495902623,-0.09620921239723224,-0.03971,0.07208,-0.03176,14.4,-26.46,-12.72
53.7447,89019.7752,0.018555979353946563,0.19798415983042572,-0.10371489902574105,-0.01344,0.05192,0.00367,14.64,-26.4,-13.14
53.7659,89019.7952,-0.024431452405665025,0.2279524622233104,-0.12124796085368139,0.04398,-0.011,0.00855,14.7,-26.76,-13.32
53.787,89019.8162,-0.07725517769225428,0.2517508578588192,-0.13575058294660636,0.06536,-0.01466,0.00489,14.82,-26.76,-13.44
53.8073,89019.8362,-0.1304531772953355,0.2573028852629779,-0.13416705286307717,0.011,0.00367,-0.00244,14.7,-26.94,-13.74
53.8298,89019.8562,-0.1762933486410718,0.23239371144870516,-0.10816392883618065,-0.08674,0.04826,-0.02566,14.76,-27.12,-13.44
53.8468,89019.8762,-0.2132320982073637,0.1610297555811229,-0.05741746744719478,-0.12095,0.04826,-0.04032,14.64,-27.18,-13.62
53.8653,89019.8962,-0.23362722733822106,0.05462611827721914,0.009164542015000166,-0.10079,0.04643,-0.01466,14.52,-27.36,-13.86
53.8977,89019.9162,-0.22859798984171736,-0.05854009215888901,0.07664532511783406,-0.0391,0.02077,-0.02016,14.58,-27.24,-13.74
53.908,89019.9362,-0.20348448133016783,-0.15817099336516063,0.12909608332996214,0.01222,0.04643,-0.01527,14.52,-27.42,-14.1
53.9323,89019.9562,-0.14891689504965722,-0.2061988143506797,0.15622408729407944,-0.02016,0.04581,0.04215,14.52,-27.42,-14.28
53.9454,89019.9762,-0.0756764002868543,-0.18748036842061294,0.1557556491571095,0.01405,0.1069,0.04398,14.46,-26.94,-14.28
53.971,89019.9962,0.010411832684548209,-0.11160506732529228,0.13336787487942736,0.02749,0.09224,0.03604,14.28,-27.36,-14.4
53.9875,89020.0162,0.09122519331638745,0.000630363323958464,0.0998202147753453,-0.0055,0.10446,0.06781,14.52,-27.54,-13.8
54.007,89020.0362,0.15675017722208023,0.11897810296432856,0.06685319228939868,0.04154,0.04276,0.05009,14.52,-27.54,-13.32
54.0294,89020.0562,0.1972645471344901,0.2186533700401503,0.043353168870782,0.07208,0.05253,0.02688,15.0,-28.2,-13.5
54.047,89020.0771,0.20682746886231307,0.28586050102712446,0.03312601740294596,0.01772,0.0391,0.02932,15.42,-28.02,-12.84
54.0666,89020.0972,0.18435633674400795,0.3102130797115812,0.03531131388376885,-0.02566,0.011,0.00244,15.18,-27.84,-13.32
54.0869,89020.1172,0.13490887188754366,0.293388036975116,0.045995818218877105,0.00244,0.00183,-0.02688,15.36,-27.96,-13.32
54.1076,89020.1372,0.06896986009423706,0.24525875924994747,0.06051801956255076,0.00794,0.00916,-0.03054,15.3,-27.6,-13.38
54.1273,89020.1582,-0.0020115389027865935,0.17981201676792508,0.0750906886234155,-0.04032,0.05498,-0.03421,15.3,-27.42,-13.68
54.1563,89020.1782,-0.062176310617432486,0.11289297411028656,0.08696256734796393,-0.02688,0.05864,-0.04459,15.78,-27.3,-13.38
54.1699,89020.1982,-0.11688589504440403,0.053725837356898065,0.09354374100584018,0.0171,0.01405,-0.02627,15.78,-27.18,-13.32
54.1966,89020.2182,-0.15211451255719852,0.012933073910621236,0.09183015534384786,0.02749,-0.01527,-0.00672,15.54,-27.36,-12.96
54.2074,89020.2382,-0.16305853479170726,0.007449430654967697,0.07880473529986887,0.04704,-0.04459,0.02077,14.88,-27.54,-13.44
54.2319,89020.2592,-0.15458361446330823,0.030448512379283678,0.052618584386474154,0.02138,0.00305,0.00061,14.52,-27.48,-13.62
54.2485,89020.2792,-0.13383604891341294,0.08326721984136891,0.014381290461020768,0.03787,0.07025,0.00611,14.4,-27.24,-13.74
54.2689,89020.2992,-0.1122473376403591,0.14708544283242903,-0.030671041183833125,0.03176,0.04154,-0.01161,14.64,-27.24,-13.68
54.2892,89020.3192,-0.10212929106097611,0.20486091167899506,-0.07383723434855227,0.0733,0.01527,-0.03421,15.36,-27.42,-13.2
54.309,89020.3392,-0.10710465192880739,0.24114141238556952,-0.10564014922952047,0.04581,0.00489,-0.01283,15.24,-27.78,-13.2
54.3292,89020.3592,-0.12256856296689143,0.2468590589127291,-0.11945793066769284,0.02688,0.02932,-0.01772,15.36,-27.9,-12.96
54.3489,89020.3792,-0.14049615081621902,0.2225718215707771,-0.11408120017173573,0.00122,0.01344,-0.04276,15.12,-27.84,-13.02
54.3733,89020.3992,-0.15014621908406117,0.17835255119283908,-0.0938893488439767,-0.03115,0.0507,-0.04704,14.82,-27.6,-12.96
54.3911,89020.4192,-0.15417793887304637,0.12096085448909853,-0.06685914000391335,-0.05925,0.03787,-0.05009,15.06,-27.42,-12.48
54.4141,89020.4392,-0.14513368418766048,0.06818618347803419,-0.04119931416731859,-0.04337,0.04887,-0.04643,14.46,-27.42,-12.84
54.4298,89020.4592,-0.13016546011858596,0.028276987812822868,-0.022192418267708902,-0.00061,-0.0055,-0.01833,14.7,-27.48,-12.9
54.4484,89020.4802,-0.10906475517020348,0.011477764259697798,-0.010471221509229522,0.0672,-0.01161,0.01405,14.64,-27.54,-13.02
54.4685,89020.5002,-0.08616204272496245,0.021242747993876543,-0.003059933718979835,0.04337,-0.03543,0.03238,14.64,-27.18,-13.14
54.4879,89020.5202,-0.06592625157660234,0.05252306348242506,0.004064230803143332,-0.03665,0.01649,0.02321,15.48,-27.0,-12.84
54.5078,89020.54,-0.05505691598749228,0.09117143212836418,0.013652919460632518,-0.06048,0.01772,0.00489,15.12,-26.7,-12.48
54.5289,89020.5612,-0.058716377347801385,0.1229412461765313,0.02645304702307527,-0.0226,-0.01283,-0.00855,15.36,-26.28,-12.54
54.552,89020.5812,-0.07783081649152221,0.1396545256534101,0.041756268120893836,-0.01772,-0.03299,-0.00244,15.24,-26.64,-12.66
54.5757,89020.6022,-0.1080549587001427,0.14001499671018847,0.058524475233246775,-0.03421,-0.00183,0.0055,14.82,-26.28,-12.84
54.5899,89020.6221,-0.13982322079441167,0.12928267073165825,0.07635058826594054,0.00122,0.00367,0.01466,14.88,-26.64,-12.96
54.61,89020.6421,-0.16629845037969773,0.11312869858336715,0.09560680724558956,0.03238,-0.01405,0.01527,14.58,-26.64,-12.96
54.6299,89020.6622,-0.17808497406274992,0.09823347402955734,0.1166047577660887,-0.00489,-0.02016,0.0,14.7,-26.64,-12.9
54.6529,89020.6821,-0.17064187530099004,0.08964243027285042,0.13801224198426532,-0.02077,-0.02443,0.00733,14.64,-27.0,-12.9
54.6745,89020.7022,-0.14525251082161383,0.09028309845347188,0.15573521882788555,0.00244,0.01161,0.01894,14.64,-26.52,-12.84
54.6957,89020.7222,-0.11039663457130738,0.10327557119527704,0.16324864922956195,0.02077,-0.01955,0.03848,14.7,-27.18,-12.72
54.7216,89020.7422,-0.07953087927898311,0.13016159115667297,0.15373286052433244,0.02382,-0.01405,0.04276,14.64,-27.18,-12.72
54.7347,89020.7622,-0.05051104785201678,0.17864247803288633,0.12308928320179646,0.04215,-0.04887,0.05803,14.7,-27.36,-12.66
54.7548,89020.7822,-0.03861486282341413,0.23568428706332337,0.07271523039065642,0.02382,-0.00916,0.02932,14.76,-27.96,-12.66
54.7709,89020.8022,-0.04565126846619191,0.28997905192562595,0.010521554705299252,0.00855,0.07697,-0.00916,14.7,-27.72,-12.66
54.7923,89020.8221,-0.07285244673845113,0.3217325514240676,-0.050711901348041266,0.00244,0.05315,-0.02199,14.52,-27.78,-12.42
54.8108,89020.8422,-0.12281529197483652,0.318020952066554,-0.09807450098058546,0.04337,-0.01527,-0.01955,14.52,-27.54,-12.42
54.8337,89020.862,-0.18576398980081715,0.27481048232050703,-0.12345538436509251,0.05498,-0.05559,0.00244,14.34,-27.12,-12.6
54.8579,89020.8832,-0.24365969809329213,0.20607993003008834,-0.12645061071850527,-0.01161,-0.05009,0.01527,14.34,-26.88,-12.3
54.8765,89020.9031,-0.27764256242912505,0.12910367971565154,-0.11331055359126374,-0.05009,0.00489,0.00794,14.22,-26.7,-12.6
54.897,89020.9232,-0.2824383030821968,0.06326642497872434,-0.0943176435434605,-0.08308,0.06903,-0.05437,14.16,-26.88,-12.78
54.9167,89020.9432,-0.2654949961272313,0.01839907769300008,-0.07958024659098406,-0.10079,0.09835,-0.05437,14.34,-26.64,-12.78
54.9377,89020.9631,-0.2367199546655132,0.0017665379761935916,-0.07498046995692498,-0.05376,0.04887,0.00611,14.28,-26.76,-13.14
54.9588,89020.9832,-0.20369141191795995,0.015038552809798413,-0.0801330821290076,0.01588,-0.0226,0.04459,14.34,-26.94,-13.02
54.9751,89021.0032,-0.16528263907212998,0.06159446162661388,-0.08929458645902777,0.03971,-0.04887,0.05009,14.46,-27.06,-12.36
54.9982,89021.0232,-0.13095705713382452,0.1346306056614281,-0.0948195274729251,0.00305,-0.01527,0.02993,14.34,-27.06,-12.12
55.0137,89021.0432,-0.10227390194931901,0.21880584580055504,-0.08984611933103004,-0.05498,0.00916,0.02199,14.34,-27.18,-11.88
55.0353,89021.0631,-0.09147893130292409,0.29729992788297205,-0.07031036671116553,-0.11179,-0.01772,0.01772,14.4,-26.88,-12.0
55.0542,89021.0832,-0.09734172411012686,0.34205329349126645,-0.03452098917408897,-0.06353,-0.05437,0.01894,14.16,-27.06,-12.78
55.072,89021.1032,-0.11495780067527953,0.34367776614248047,0.0160328841103059,-0.00489,-0.01222,0.01894,14.28,-27.54,-13.02
55.092,89021.1232,-0.13768126889613086,0.3061684785941146,0.0764633577981968,-0.03848,0.0171,0.0391,14.58,-27.24,-12.9
55.113,89021.1432,-0.15757585581092823,0.2433338063533159,0.13825613020827987,-0.08858,-0.04887,0.03665,14.94,-27.54,-12.6
55.1342,89021.1632,-0.16652885535664616,0.17293967133223515,0.18963952627704295,-0.10873,-0.09652,0.02871,15.0,-27.24,-12.36
55.1562,89021.1832,-0.15936015492204114,0.11284741971488364,0.2175334262742723,-0.11118,-0.10018,0.01344,14.82,-27.3,-12.9
55.1955,89021.2032,-0.14618378126620554,0.08737270269954069,0.2115604902203767,-0.07636,-0.03482,0.01466,15.0,-27.84,-13.08
55.2029,89021.2242,-0.10967786176982998,0.08424307341950361,0.17002122093890648,0.00367,-0.02199,0.04398,14.76,-27.78,-13.56
55.2177,89021.2439,-0.08146929569334735,0.11988686675663189,0.1006033732117757,0.04948,-0.05253,0.06292,14.58,-27.78,-13.74
55.2375,89021.2642,-0.06638928621523642,0.1821747717291708,0.019602557385452357,0.02749,-0.09285,0.06353,14.64,-27.48,-13.5
55.2543,89021.2842,-0.05612494877357377,0.2554067619682397,-0.054425380119122124,-0.00367,-0.06109,0.03238,14.46,-27.24,-13.86
55.2749,89021.3041,-0.05139363831570804,0.31704731360853017,-0.10612814828757067,-0.05986,-0.00794,-0.02077,14.7,-27.3,-13.8
55.2968,89021.3242,-0.052588495041654686,0.3459254349429192,-0.12628516182504157,-0.10079,0.04459,-0.03238,15.18,-27.36,-13.86
55.3166,89021.3452,-0.0659777648736418,0.3298777990479225,-0.11290578786067407,-0.03665,-0.01894,-0.02443,15.24,-27.78,-13.86
55.3384,89021.3672,-0.09256080476478379,0.277156228841262,-0.0712899803475775,0.02077,-0.05681,0.00061,15.3,-27.9,-13.92
55.3683,89021.3872,-0.13110320230478495,0.2067791325362745,-0.012373696916123222,-0.0226,-0.08858,0.0226,15.3,-28.02,-13.98
55.3832,89021.4092,-0.16099343314984477,0.13834892071959454,0.04998872385846198,-0.04765,-0.06536,-0.00061,15.3,-28.02,-14.28
55.4041,89021.429,-0.18847430379926255,0.09344040551937417,0.10120484013512687,-0.05742,-0.02566,-0.0507,15.3,-27.66,-14.16
55.439,89021.4492,-0.2108801887580592,0.08958786217636028,0.1297763185356473,-0.06536,-0.0055,-0.05559,15.12,-27.54,-14.22
55.4454,89021.4692,-0.24267564338187073,0.098798926639561,0.1302670884829169,-0.06048,-0.00367,-0.02199,14.82,-27.24,-13.74
55.4638,89021.4891,-0.2741253432072879,0.1422817613513823,0.10537239267489085,-0.01833,-0.02749,0.01405,15.12,-27.06,-12.96
55.4813,89021.5092,-0.29930926912265376,0.2060669368889287,0.06575892319134624,0.02443,-0.04032,0.02199,15.06,-26.94,-12.66
55.4995,89021.5292,-0.31152594750986745,0.27788820031821665,0.02690168118973091,0.01955,0.00244,0.01588,15.0,-26.88,-12.36
55.5212,89021.5492,-0.3080827233059268,0.3426109802517603,0.004307587940580504,-0.03482,0.02382,0.02077,14.76,-26.94,-12.42
55.5373,89021.5691,-0.29117526361048096,0.3798948296556907,0.008773147664140168,-0.07025,0.01772,0.02321,14.1,-27.06,-13.2
55.5579,89021.5892,-0.2661978811512374,0.382068638188624,0.042293744960469226,-0.04032,0.02321,0.02321,14.16,-27.12,-13.2
55.5777,89021.6092,-0.23729366584491732,0.3464440169680069,0.0972326165535069,-0.00977,-0.02627,0.02993,13.98,-26.76,-13.44
55.5997,89021.6292,-0.20769349322060882,0.2865115831438844,0.15760454511264577,0.01466,-0.06842,0.03482,14.46,-26.82,-13.68
55.6269,89021.6492,-0.1785701258331358,0.2224080986362667,0.2038978177767703,0.01344,-0.03848,0.03238,14.7,-26.76,-13.44
55.6389,89021.6692,-0.14843427683610685,0.17855084648479697,0.21892364278992815,0.01955,0.00916,0.01588,14.7,-27.06,-13.74
55.6601,89021.6892,-0.12938325456959818,0.1633129921232708,0.19305725291656017,0.00611,0.04032,-0.01222,14.88,-27.54,-14.04
55.687,89021.7092,-0.12967052431966924,0.1810945608127684,0.12707006535528542,0.00489,0.07147,-0.00305,15.0,-27.72,-13.92
55.703,89021.7292,-0.1554026407495979,0.23141941894571083,0.031947792801931385,0.0171,0.02016,0.00611,15.12,-27.84,-13.62
55.7245,89021.7492,-0.19381809334850728,0.30532702868783695,-0.07351150134103612,0.03176,-0.04704,0.0,15.06,-28.14,-13.44
55.7458,89021.7701,-0.23037755480743966,0.39244669963532586,-0.16721326930259295,0.04948,0.00367,-0.02382,14.7,-27.84,-13.02
55.7621,89021.7902,-0.25524735188332454,0.47486248405535325,-0.22864967386592383,0.01038,0.0507,0.00428,14.46,-27.54,-13.32
55.7787,89021.8102,-0.26441774116343586,0.5293708880811322,-0.243712050062026,-0.02016,0.03115,0.05437,14.16,-27.24,-13.68
55.7987,89021.8301,-0.2621583702492461,0.5403999896838434,-0.2089968009894072,0.00183,-0.0171,0.08919,14.1,-26.64,-13.92
55.8238,89021.8502,-0.25545606715763614,0.5095247713516371,-0.1334516208434735,-0.01894,-0.06964,0.08735,14.46,-26.88,-13.92
55.8423,89021.8712,-0.2325485395560628,0.4403865774984925,-0.034922425378425714,-0.12523,-0.09041,0.05986,14.76,-27.0,-13.86
55.8661,89021.8912,-0.2063919383167802,0.35798770391249646,0.06274912511631037,-0.16493,-0.05009,0.02199,15.0,-27.36,-13.68
55.8825,89021.9112,-0.1770082885299502,0.2638014267715705,0.13918140407872492,-0.07269,0.01344,0.00489,15.18,-27.54,-13.86
55.9057,89021.9312,-0.15585899281745907,0.18574734026629014,0.18055191458137365,0.03176,-0.02443,0.0336,14.94,-27.6,-13.86
55.9235,89021.9522,-0.13839979782288148,0.14484165253019235,0.18362862120407542,0.05437,-0.0788,0.06842,14.76,-27.66,-14.16
55.9427,89021.9722,-0.12072320111334481,0.15398001788655422,0.15267454877482578,0.02443,-0.14355,0.07758,14.46,-27.84,-14.34
55.9685,89021.9932,-0.0994283765414417,0.21337909600225427,0.09516110166027936,-0.01894,-0.15821,0.04459,14.34,-27.84,-13.92
55.9856,89022.0132,-0.05290337333049962,0.29589016967135356,0.02037341648574298,-0.06781,-0.12034,0.01894,14.82,-27.6,-13.98
56.008,89022.0331,-0.007076093240806212,0.3713586358944896,-0.06003493531374815,-0.02138,-0.04643,0.01344,14.7,-27.6,-13.92
56.0231,89022.0532,0.026170890360969225,0.41385891093126836,-0.13072835206821942,0.06475,-0.09163,0.04215,14.52,-27.42,-14.04
56.044,89022.0732,0.021218487974402317,0.406965962173955,-0.17634413692139006,0.10324,-0.12828,0.07086,14.22,-27.48,-14.28
56.0658,89022.0931,-0.018907286761672023,0.3650539607071232,-0.1890081676258717,-0.00367,-0.22113,0.07208,14.22,-27.72,-13.98
56.0845,89022.1132,-0.07086511602447089,0.30603160639701665,-0.17185115022892283,-0.17226,-0.23579,0.02321,14.34,-27.78,-13.74
56.1051,89022.1332,-0.12047586742466514,0.2574862971440934,-0.13870902953802045,-0.18754,-0.16677,-0.01466,14.52,-28.08,-13.92
56.1235,89022.1531,-0.15033976026308557,0.2369215896566235,-0.10699465294147892,-0.10812,-0.05803,-0.03665,14.52,-27.6,-14.16
56.1431,89022.1732,-0.16073002788884813,0.26707530109744254,-0.08841371333680925,-0.01405,-0.02871,0.02077,14.22,-27.78,-14.52
56.1623,89022.1932,-0.15545473407001364,0.35091946502011745,-0.08156481011262251,0.05437,-0.09835,0.11362,13.98,-27.6,-14.58
56.1882,89022.2142,-0.1506301413507934,0.46662995663619583,-0.07416433097339947,0.04337,-0.20647,0.15272,14.34,-27.48,-14.34
56.2046,89022.2341,-0.11474592365815789,0.5858602137115251,-0.05195525706112569,-0.02016,-0.18082,0.10079,14.52,-28.2,-14.22
56.2375,89022.2552,-0.08878422284790277,0.6747725965716456,-0.00904450789893474,-0.07453,-0.08308,-0.00305,14.46,-28.08,-14.04
56.2492,89022.2751,-0.07456269820444779,0.6657635332930247,0.05368615257409992,-0.15638,0.01772,-0.08735,14.46,-27.78,-13.98
56.2649,89022.2952,-0.09442285484007276,0.5817472795294995,0.12068446918859088,-0.18082,-0.02871,-0.10385,13.86,-27.48,-14.52
56.2853,89022.3152,-0.14974473823419038,0.44525851515173853,0.17222991455111547,-0.11484,-0.09713,-0.09224,13.62,-27.0,-14.4
56.3129,89022.3362,-0.2288787325011685,0.2979689691676353,0.18928079312277823,-0.04765,-0.14783,-0.08369,13.38,-26.64,-14.22
56.3281,89022.3561,-0.3011843655885336,0.17710289563552273,0.1619098541388979,-0.03726,-0.12278,-0.07086,13.56,-26.88,-14.16
56.3538,89022.3762,-0.3525514768879392,0.1258121146255949,0.09339428557702512,-0.06109,-0.07147,-0.05925,13.8,-26.82,-14.04
56.3665,89022.3972,-0.3801735585525852,0.13470872944461285,0.0009218700296464988,-0.08186,-0.0226,-0.03665,14.1,-27.06,-14.04
56.3854,89022.4172,-0.39234123625556067,0.19342194592544754,-0.09044212285274611,-0.01038,-0.04337,-0.00733,14.04,-27.3,-14.46
56.4055,89022.4372,-0.3977432104708676,0.27089591554282755,-0.15494777235494972,0.02443,-0.10507,0.02077,13.98,-27.36,-14.4
56.4253,89022.4572,-0.39695057562300057,0.3402936933277954,-0.17442490024424906,-0.04398,-0.14355,0.03176,13.98,-27.24,-14.22
56.4453,89022.4772,-0.3895667573606961,0.38074313520654457,-0.14389533017280343,-0.05437,-0.10507,0.01649,14.04,-27.36,-14.28
56.4671,89022.4972,-0.3795098156363743,0.3809818498040369,-0.0722532983576123,-0.04398,-0.06292,0.00122,14.46,-27.12,-14.82
56.4944,89022.5172,-0.3756360215183421,0.3435369308341606,0.021282269129494935,-0.0672,-0.0507,0.02993,14.28,-27.12,-15.18
56.5086,89022.5372,-0.36710531085825787,0.27758043450970604,0.1141097794755197,-0.03604,-0.09713,0.0452,14.34,-27.6,-14.94
56.5257,89022.5572,-0.3610107380316455,0.21553554191127713,0.1844403936686092,-0.01894,-0.11484,0.0281,13.92,-27.18,-14.94
56.5469,89022.5782,-0.35018747580184223,0.18134544399124794,0.21874383715600665,-0.07514,-0.03726,0.01649,13.62,-27.12,-14.58
56.5686,89022.5981,-0.3314543209867157,0.17996416600691056,0.21397382255257824,-0.07453,0.03299,0.0,13.8,-27.24,-14.52
56.5893,89022.6182,-0.31527336653802673,0.20251158116530446,0.177346559234687,-0.00428,0.03665,0.00794,13.5,-26.58,-14.82
56.6069,89022.6382,-0.3122504317917271,0.2390749957964629,0.12375780437417028,0.09346,0.01466,0.03848,13.5,-26.64,-15.24
56.627,89022.6581,-0.3264489461017925,0.27646378879178357,0.0703974226597861,0.10507,-0.03421,0.07086,13.74,-26.94,-14.88
56.6494,89022.6781,-0.35134224722493024,0.3088009135050649,0.03080169083546025,0.02016,0.011,0.06597,13.56,-26.52,-15.06
56.6676,89022.6982,-0.37654915567583425,0.3303300081262241,0.011802581191734163,-0.03971,0.06597,-0.00733,13.68,-26.82,-15.3
56.6919,89022.7181,-0.3925276681915849,0.33785840934374345,0.013749920152241302,-0.04948,0.05986,-0.04398,13.74,-26.82,-14.76
56.7154,89022.7382,-0.3996026493630736,0.326180948495926,0.032625024259768765,-0.00855,0.05925,-0.01405,13.44,-26.34,-15.06
56.7292,89022.7582,-0.3923260604754337,0.3071995002916369,0.062483365838076566,0.03787,0.0281,0.04887,13.5,-26.22,-15.12
56.749,89022.7781,-0.36387713871898675,0.2884130354216409,0.09743589886172543,0.10446,0.0,0.10324,13.44,-26.46,-14.64
56.7666,89022.7982,-0.3073006908219726,0.2879699923788044,0.13072964002463117,0.11912,-0.00977,0.11118,13.62,-26.64,-14.88
56.7878,89022.8182,-0.23286437502768328,0.3062151857047438,0.1536922936319911,0.05131,-0.00244,0.08063,13.8,-26.88,-14.76
56.8066,89022.8381,-0.1554257378632285,0.34207531681070485,0.1559189105701897,-0.01772,0.0452,0.03482,13.68,-27.48,-14.4
56.8281,89022.8582,-0.10068841477333454,0.3850693603665222,0.1282667556844288,0.01894,0.0843,-0.00794,13.44,-27.48,-14.64
56.8483,89022.8782,-0.08961434836860305,0.430277418818777,0.06658335464476295,0.07819,0.0507,0.01161,13.44,-27.12,-14.7
56.8689,89022.8982,-0.12297702952910856,0.4786017556767394,-0.025992602357142403,0.09468,-0.02077,0.0507,13.38,-27.12,-14.7
56.8877,89022.9182,-0.18262923427724312,0.533613314328296,-0.1387766646334665,0.06536,-0.01894,0.0452,13.32,-27.18,-14.7
56.9117,89022.9382,-0.24508762325971506,0.5869628191185631,-0.25428055172210406,0.0055,0.0617,0.00183,13.8,-27.0,-14.88
56.928,89022.9582,-0.2965062174014992,0.6253161249217102,-0.3517254952592097,-0.0391,0.07453,-0.0281,13.56,-27.3,-15.06
56.9469,89022.9782,-0.3249287148048894,0.6362780970688119,-0.41147398893552634,-0.04215,0.00916,-0.00916,13.56,-27.6,-14.88
56.9695,89022.9982,-0.32841953289033793,0.6145771687457209,-0.42027240682649314,-0.02688,-0.07941,0.03848,13.62,-27.48,-14.46
56.9886,89023.0182,-0.3008318949336506,0.5631186010072061,-0.3745489374353905,-0.02138,-0.12889,0.06597,13.62,-27.84,-14.46
57.0167,89023.0382,-0.2596282336963039,0.496450574888101,-0.28302494278660717,-0.01283,-0.1124,0.04276,13.98,-27.96,-13.86
57.037,89023.0582,-0.2002676402038877,0.43107404818265793,-0.1632777737199671,-0.02749,-0.10812,0.03176,13.74,-27.84,-14.04
57.0494,89023.0782,-0.1474475945265414,0.37544353334980646,-0.03884487530329572,-0.05925,-0.08796,0.01894,13.92,-27.66,-14.64
57.0684,89023.0981,-0.1287110996479413,0.3429982689423391,0.06687333395289308,-0.10018,-0.09774,-0.01588,13.92,-27.66,-14.52
57.0914,89023.1182,-0.14747689592997926,0.32791988802233896,0.1375339795856565,-0.12156,-0.08369,-0.04398,13.68,-27.48,-15.18
57.1143,89023.1382,-0.1966226436779157,0.31609470238534637,0.167343748431783,-0.06903,-0.07208,-0.0562,13.56,-27.48,-15.24
57.13,89023.1581,-0.2648465511579794,0.3021666818323549,0.1617450747323712,-0.00367,-0.03115,-0.06903,13.5,-27.36,-15.3
57.1522,89023.1782,-0.33285130103492166,0.29253453698945636,0.13440417716090458,-0.02016,-0.02932,-0.07391,13.56,-27.24,-15.6
57.1689,89023.1982,-0.38996674038176526,0.28350240018487094,0.10107082883338947,-0.08491,-0.04215,-0.08308,13.44,-27.24,-15.54
57.1889,89023.2181,-0.42323145449163085,0.2784266409794225,0.07295613732208572,-0.14294,-0.04398,-0.05986,13.5,-27.3,-15.48
57.2108,89023.2382,-0.43181204243297405,0.27348006115055334,0.05354233952880705,-0.07819,-0.0391,-0.02871,13.68,-27.36,-15.54
57.2294,89023.2582,-0.4205322573478256,0.2720654090515951,0.03959956342988491,0.01649,-0.0391,-0.00916,13.38,-27.3,-15.42
57.2473,89023.2781,-0.3981891231029668,0.28904045858080196,0.02488864896183962,0.00977,-0.06231,0.01588,13.56,-27.66,-15.24
57.2703,89023.2982,-0.3761797561527677,0.3334805395124214,0.004233468949369268,-0.05559,-0.06842,0.01649,13.92,-27.78,-15.54
57.303,89023.3182,-0.3604224608730237,0.4054207399134634,-0.02389259354312756,-0.08369,-0.07208,-0.00733,13.68,-27.96,-15.42
57.32,89023.3382,-0.34982570687903514,0.4714323079474511,-0.05501664062968459,-0.06597,-0.02443,-0.02382,13.74,-27.84,-15.42
57.3346,89023.3582,-0.3539854615561704,0.5246944572093346,-0.08177685196327289,-0.01833,-0.01283,-0.00305,13.56,-27.42,-15.72
57.35,89023.3782,-0.37525722379318904,0.5556891743705784,-0.09462833566129447,-0.00855,-0.04643,0.00733,13.74,-27.06,-15.78
57.3712,89023.3982,-0.4139345159160009,0.5594059349720287,-0.08593589710742222,-0.05681,-0.08613,-0.00183,13.62,-27.18,-15.72
57.387,89023.4182,-0.45703364186245127,0.5299588112466644,-0.052229562981978006,-0.07208,-0.08125,-0.00305,13.44,-26.94,-15.9
57.41,89023.4382,-0.498775331227664,0.47800663707770275,0.0030038478410556735,-0.05803,-0.05498,-0.01649,13.74,-27.0,-15.78
57.4267,89023.4582,-0.5281373401438029,0.40503339628668256,0.07237252881986578,-0.06658,-0.0281,-0.04154,13.56,-26.88,-15.54
57.4465,89023.4781,-0.5396149198092428,0.33136468792470175,0.14490495073245846,-0.08308,0.03238,-0.0391,13.44,-26.58,-15.6
57.466,89023.4982,-0.5312309228042905,0.26437552885936844,0.2097790565628479,-0.08247,0.01466,-0.00305,13.86,-26.46,-15.42
57.4883,89023.5181,-0.5005613557052028,0.21159792020228274,0.2574758357976954,-0.01833,-0.02566,0.03971,13.86,-26.16,-15.18
57.5113,89023.5392,-0.4455871129705718,0.17900473115642657,0.2807960525438702,0.04948,-0.04032,0.03787,13.8,-26.1,-15.12
57.533,89023.5591,-0.36851586997586133,0.17675092066229436,0.27495958454134595,0.0281,-0.00672,0.03299,13.74,-26.34,-14.7
57.5575,89023.5792,-0.28199470664026327,0.2091449375654454,0.23782861732667904,-0.011,0.04215,0.05192,13.26,-26.76,-14.88
57.57,89023.6002,-0.19795721232012797,0.2663813453916849,0.17142092378089657,-0.03787,0.0391,0.06292,12.96,-27.0,-14.82
57.59,89023.6202,-0.13270179279519195,0.33735673784997366,0.08322018886301663,0.00611,0.02077,0.0507,12.78,-27.66,-15.12
57.6105,89023.6401,-0.09320397872598224,0.40306284711565915,-0.0124108854582623,0.06964,0.03971,0.03054,13.08,-27.66,-15.6
57.6293,89023.6602,-0.08282499686997341,0.45369936558741103,-0.09699217932570647,0.1014,0.06781,0.02321,13.2,-27.3,-15.12
57.6494,89023.6801,-0.09822181432793838,0.4812200724866911,-0.15315817889257133,0.09713,0.03054,0.0452,13.14,-27.6,-15.18
57.6694,89023.7001,-0.12790643608029992,0.4860266487147544,-0.17142167672323616,0.03604,-0.01833,0.0391,13.26,-27.36,-15.18
57.6997,89023.7202,-0.15606585093178896,0.47363461701547993,-0.15383453172882078,-0.03726,-0.00977,-0.01405,13.74,-27.18,-15.0
57.7198,89023.7402,-0.1759147738942104,0.4393457157774168,-0.11242996581046505,-0.09591,0.02382,-0.05681,13.5,-27.24,-15.54
57.7422,89023.7612,-0.18641106616976613,0.3980500438944211,-0.06528172031650392,-0.03787,0.03665,-0.03176,13.44,-27.36,-15.24
57.7588,89023.7822,-0.19538734755117115,0.36575173134724936,-0.02811825042646987,0.0452,-0.00183,-0.00122,13.5,-27.36,-15.24
57.7746,89023.8022,-0.2037181689678089,0.3610398937297039,-0.008324035131273888,0.03421,-0.06964,0.00916,12.84,-27.48,-15.12
57.7944,89023.8221,-0.21271438346741847,0.38911108230450664,-0.0032642731282646054,-0.02688,-0.0733,0.0,13.02,-27.48,-14.76
57.8106,89023.8422,-0.22076901753021802,0.4392832936505535,-0.0031485790409728764,-0.04215,-0.02627,-0.04704,13.5,-27.36,-14.64
57.8312,89023.8622,-0.23271537623790975,0.4919000156748099,0.003521234149760133,-0.05864,0.01466,-0.07147,13.32,-27.42,-14.52
57.8508,89023.8821,-0.2595650857907413,0.5206022754167333,0.024654554577711707,-0.04398,-0.00672,-0.02993,13.5,-27.42,-14.64
57.8779,89023.9022,-0.30850060974305704,0.5133509283178681,0.059530116588979,-0.02077,-0.06048,-0.00977,13.86,-27.66,-14.64
57.8965,89023.9222,-0.37297437443412784,0.4644858700449403,0.0980687717175357,-0.02077,-0.08919,-0.00244,13.62,-27.6,-14.88
57.9152,89023.9421,-0.4450860179152077,0.3869787505731549,0.1228040638022776,-0.03238,-0.10568,-0.01649,13.8,-27.24,-15.18
57.9355,89023.9622,-0.5135192884479134,0.30204414119826895,0.11622697121748615,-0.04581,-0.08552,-0.03299,13.8,-27.6,-15.36
57.9588,89023.9822,-0.5682170387747497,0.23674608614169523,0.0686975284594542,-0.0055,-0.03115,-0.07147,13.62,-27.6,-15.54
57.9766,89024.0032,-0.6066622047642011,0.21506818888241885,-0.016026349471427892,0.03604,-0.00061,-0.05376,13.38,-27.54,-15.42
57.9975,89024.0232,-0.6219603703057915,0.24850298842085197,-0.11949882962174918,-0.00611,-0.01772,0.00916,13.14,-27.54,-15.06
58.0147,89024.0431,-0.6051745567628775,0.33005258553037764,-0.213618323785278,0.00428,-0.07391,0.09163,13.26,-26.88,-14.82
58.0374,89024.0632,-0.5612096843671722,0.4326599966543451,-0.2700261237956916,0.09468,-0.0788,0.07941,13.02,-26.82,-14.4
58.0588,89024.0832,-0.49214329475457547,0.533980144612458,-0.26904512005221015,0.10079,-0.03971,0.0672,13.14,-26.76,-14.88
58.0797,89024.1031,-0.41678963396989355,0.6095855117641088,-0.20736799350718904,-0.01222,-0.02566,0.09041,13.02,-27.06,-14.76
58.1004,89024.1232,-0.35410400614546894,0.6402328988559441,-0.09848541608311301,-0.09652,-0.03421,0.08613,12.6,-27.48,-15.0
58.1129,89024.1432,-0.31397447852099875,0.6073195375152229,0.032459841653562194,-0.10201,-0.00916,0.03238,12.96,-27.66,-15.54
58.1325,89024.1631,-0.3037891265244157,0.5328850820570145,0.15405173216296575,-0.08369,0.00367,-0.03115,13.08,-27.66,-15.66
58.1585,89024.1832,-0.3178775114646496,0.43373078891103733,0.24110811991848102,-0.0391,0.01649,-0.03482,13.26,-27.6,-15.96
58.1771,89024.2032,-0.3500204629251166,0.3354917126122416,0.279796250932252,0.00183,-0.00122,-0.00916,13.38,-27.42,-16.14
58.1943,89024.2231,-0.38147680496373265,0.2684734998800527,0.2702921162487488,0.0171,-0.04215,0.02627,13.02,-27.0,-15.72
58.2135,89024.2441,-0.39578122878779387,0.2467084400171326,0.22420935922048812,0.00367,-0.03115,0.03176,12.84,-26.64,-15.3
58.2347,89024.2642,-0.3840050328002732,0.26988759966678505,0.15845154954468477,0.00367,0.01344,0.00977,12.9,-26.7,-14.94
58.2607,89024.2842,-0.3514124663808136,0.3249009507588141,0.089276527876196,-0.00672,0.03115,0.01038,13.02,-26.7,-14.58
58.2736,89024.3041,-0.3087822491502699,0.3950005079383597,0.028801280585133426,0.00305,-0.00305,0.04215,13.14,-26.88,-14.94
58.2924,89024.3241,-0.27282946797204594,0.46201023234591315,-0.016386099818786803,0.06842,-0.0562,0.06109,13.08,-26.94,-15.0
58.3224,89024.3442,-0.2568105788730281,0.511217477568586,-0.044715539294129414,0.05925,-0.05131,0.05803,13.02,-26.7,-15.06
58.3436,89024.3641,-0.2505821708736563,0.5456591085026564,-0.058642220649682386,0.01038,0.02016,0.04948,13.02,-27.24,-15.18
58.359,89024.3842,-0.2622291886866171,0.5554400469555895,-0.06235349637045928,-0.01649,0.00672,0.01588,13.02,-27.12,-15.24
58.3879,89024.4042,-0.29257704799710704,0.5419486032168991,-0.06076519418382276,-0.02505,-0.01772,-0.01222,13.08,-27.54,-15.54
58.3996,89024.425,-0.33921241392123,0.5049155546353968,-0.05799703405476109,-0.00122,-0.0226,-0.03726,13.08,-27.96,-15.9
58.4157,89024.4452,-0.38929599243845137,0.46085509420484383,-0.05740059885415327,0.00672,-0.02321,-0.02138,13.02,-27.36,-15.84
58.4348,89024.4651,-0.431614928186893,0.42390583751517674,-0.06024764080225253,0.00489,-0.00305,-0.00489,13.02,-27.12,-15.78
58.4559,89024.4852,-0.4562267808705563,0.40716713098744156,-0.065769680058823,0.01955,-0.0171,-0.00489,13.32,-26.64,-15.6
58.476,89024.5052,-0.45805223098040604,0.41586982608135215,-0.07154666578608548,-0.02138,-0.01527,0.00244,13.26,-26.22,-15.24
58.4933,89024.5251,-0.4405565316895242,0.4434274908020489,-0.07432825765992668,-0.0562,0.02077,-0.011,12.96,-26.34,-15.12
58.5146,89024.5451,-0.4123740615036518,0.4797307597782793,-0.07092291249814053,-0.0281,0.03971,-0.00428,12.54,-26.22,-14.76
58.533,89024.5652,-0.3851383268994619,0.5100724520350938,-0.05881686922185381,0.00855,0.00244,0.01527,12.36,-26.34,-14.64
58.5532,89024.5851,-0.36604964391484807,0.5271753122929885,-0.037480370010339215,0.03787,-0.05131,0.02505,12.42,-26.7,-15.36
58.5783,89024.6052,-0.357495839209018,0.5290539621621985,-0.009110953221897589,0.03543,-0.02688,0.00305,12.42,-26.7,-15.54
58.5985,89024.6251,-0.3565773222326221,0.5198872103225728,0.02142792222882406,-0.01527,0.02505,-0.00305,12.48,-27.0,-15.84
58.6158,89024.6451,-0.36377941394954316,0.49974693312557383,0.04790933628695626,-0.04704,0.01894,-0.02566,12.12,-27.6,-15.9
58.6342,89024.6652,-0.3757037652966083,0.4741746150220428,0.06413666975902466,-0.0391,0.00183,-0.02932,12.06,-27.3,-15.36
58.6638,89024.6852,-0.3840782382171803,0.45357934568435615,0.06593263804782268,0.0,0.01283,-0.03848,11.64,-27.42,-15.24
58.6784,89024.7061,-0.3944739646032201,0.441348840197329,0.05253409391072772,-0.01833,0.01833,-0.02993,11.94,-27.42,-15.36
58.6979,89024.7261,-0.3996289583872922,0.44477188074165847,0.027557333127720796,-0.01161,0.00977,-0.01344,11.88,-27.18,-15.24
58.7184,89024.7472,-0.40375275487782003,0.46023227347851314,-0.0023099381971842803,0.02199,0.00305,-0.0171,12.0,-27.54,-15.3
58.7358,89024.7671,-0.4100176344596183,0.47973113203792167,-0.02911987822710138,-0.00122,-0.01466,-0.00794,12.42,-27.3,-15.42
58.7563,89024.7872,-0.41928415572109906,0.49424073587221895,-0.0456908680684478,-0.011,-0.03848,-0.0226,12.3,-27.36,-15.66
58.7779,89024.8072,-0.42999379363772,0.49813891800415183,-0.04701896163600772,-0.0171,0.00305,-0.04093,12.84,-27.18,-15.66
58.7982,89024.8271,-0.4411424895297816,0.4875494956256735,-0.030956282821030356,-0.03482,0.03604,-0.04276,12.72,-26.82,-15.84
58.8331,89024.8472,-0.44583927154511205,0.46792723506702005,0.0011051981806797784,-0.05315,0.01038,-0.01772,12.84,-26.88,-15.48
58.8419,89024.8672,-0.45085142427843017,0.4292606633130614,0.043921895751172,-0.02871,0.00061,-0.00428,12.9,-27.3,-15.12
58.8561,89024.8871,-0.44547237867322076,0.3921753083213844,0.08762931633300042,0.01772,-0.01649,0.00672,12.54,-27.42,-15.18
58.8798,89024.9071,-0.4312242597950466,0.369188182187619,0.11959111589402127,0.02688,-0.02932,0.0226,12.3,-27.3,-15.24
58.8968,89024.9272,-0.405123473725346,0.37474349961091785,0.12736380741421982,-0.01527,-0.01283,0.01161,12.54,-27.54,-15.48
58.919,89024.9471,-0.3749768670319554,0.4124285253519145,0.10246173573574069,-0.02749,0.01038,0.00183,12.48,-27.06,-15.54
58.938,89024.9672,-0.34944528111712336,0.4727513477395365,0.04528074186704778,0.00367,0.02749,-0.00855,12.54,-26.94,-15.54
58.9574,89024.9872,-0.33589456274057633,0.5419392621675646,-0.032562638005606104,0.04643,0.011,-0.00489,12.48,-27.54,-15.36
58.9773,89025.0071,-0.33735186634199565,0.605734563627499,-0.11015616779021364,0.08613,-0.00794,-0.00855,12.24,-27.72,-15.18
58.9987,89025.0272,-0.35157051055569355,0.6521670418338418,-0.16406407431018266,0.04337,-0.01466,-0.00489,12.18,-27.84,-14.82
59.0163,89025.0472,-0.37203412950663856,0.6727215843676642,-0.17707028694895044,-0.02016,-0.01833,0.01833,12.24,-27.96,-14.82
59.0367,89025.0671,-0.3939527768425014,0.6610142596942555,-0.14478099135613043,-0.0507,0.0,0.02016,12.12,-27.72,-14.82
59.0578,89025.0872,-0.413260335894709,0.6179404528840522,-0.07740366365051443,-0.04581,-0.00244,-0.01588,12.18,-27.48,-14.82
59.0871,89025.1072,-0.42841710233204394,0.5560681373342339,0.003984807095365639,-0.0507,-0.05864,-0.03665,12.48,-27.72,-15.0
59.0967,89025.1271,-0.43629542597192755,0.49225100909941344,0.07586916372225261,0.00122,-0.06781,-0.01955,12.66,-27.78,-14.76
59.12,89025.1472,-0.4378601349666072,0.4486335477938001,0.11986251849944374,0.04765,0.00061,-0.02016,13.08,-27.78,-14.88
59.1425,89025.1672,-0.4331085424001589,0.4401653650276632,0.1281031938224384,0.01038,-0.00794,-0.00855,13.08,-27.78,-15.0
59.1564,89025.1872,-0.42693722890900404,0.4616561640192593,0.10351750831901185,-0.05681,-0.00794,-0.02016,13.38,-27.66,-14.64
59.1775,89025.2072,-0.4220133678529003,0.49897896014175425,0.05671131049354017,0.00305,0.0,-0.0336,13.38,-27.48,-14.76
59.1986,89025.2281,-0.4238891835338191,0.5357638607146087,0.001631466719029362,0.02749,0.01344,-0.04398,13.74,-27.42,-14.94
59.2186,89025.2491,-0.43469729859963047,0.5656044231307562,-0.048450818654018235,0.0171,0.01161,-0.04887,13.68,-27.36,-14.94
59.2388,89025.2692,-0.45114523452798105,0.5877118892288538,-0.08347236324071972,-0.02077,-0.00733,-0.05009,13.68,-27.48,-15.36
59.2595,89025.2902,-0.4664683850738672,0.601524607967539,-0.09775197392683133,-0.09529,0.00611,-0.03482,13.68,-27.3,-15.72
59.2816,89025.3102,-0.4733186114276259,0.6049618567283948,-0.08991696771568591,-0.07025,0.02688,-0.01955,13.62,-27.42,-15.54
59.302,89025.3301,-0.46960560792257555,0.5954530843774932,-0.06222243762902657,-0.00855,0.00672,-0.03115,13.86,-27.48,-15.54
59.3227,89025.3502,-0.45716122543027876,0.5782928041597427,-0.02005274092402587,0.00916,-0.0226,-0.01955,13.5,-27.54,-15.6
59.3456,89025.3712,-0.4420929530916462,0.5602993113900895,0.028699450307994923,-0.00855,-0.02627,0.01161,13.62,-27.6,-15.12
59.3652,89025.3912,-0.42679603286665724,0.5481755411957675,0.07408425892193549,-0.00672,-0.04093,0.01955,13.56,-27.12,-15.06
59.3828,89025.4122,-0.4135849520918683,0.5437894761382526,0.10532328365834331,-0.01772,-0.05009,-0.00489,13.56,-27.06,-15.24
59.403,89025.4322,-0.404552122788672,0.5479906141331548,0.1137027555263348,-0.04765,-0.00794,-0.03115,13.5,-27.0,-14.94
59.4215,89025.4521,-0.40431444336215283,0.5555646040847058,0.09665484690276749,-0.03482,0.05742,-0.04398,13.56,-27.06,-15.78
59.4437,89025.4722,-0.4146396734915869,0.5624745056088085,0.05977848105762895,0.0055,0.0391,-0.04826,13.32,-27.36,-15.3
59.4608,89025.4922,-0.43833370853607945,0.5675190669464001,0.015103789344864893,0.04826,-0.0336,-0.04032,13.14,-27.48,-15.12
59.4818,89025.5121,-0.4653526024907897,0.5676917827970372,-0.02288182493583868,0.03299,-0.04948,-0.01955,13.14,-27.54,-15.12
59.5011,89025.5321,-0.48648801593248303,0.5636538516141832,-0.04385929059470328,-0.011,-0.00183,-0.00977,12.78,-27.78,-14.76
59.5199,89025.5521,-0.5002838131812871,0.550868546878287,-0.04531228015042821,-0.05192,0.0507,-0.03543,12.42,-27.78,-14.82
59.5405,89025.5721,-0.512838768132933,0.526827088306701,-0.03309608109776718,-0.05315,0.05803,-0.0507,12.72,-27.66,-14.88
59.5598,89025.592,-0.5339323401303995,0.49292678094225845,-0.018133110646145312,-0.01222,0.00489,-0.04398,12.84,-27.06,-15.24
59.5798,89025.6121,-0.5605625072950404,0.4618103875876594,-0.01106195194257964,0.03054,-0.05376,-0.00305,12.78,-26.82,-15.36
59.6006,89025.632,-0.5793124508101719,0.44997319059696733,-0.017456009818189955,0.03238,-0.04337,0.00855,13.44,-27.18,-15.54
59.62,89025.6521,-0.5758430219196081,0.46780894891045816,-0.03570791948511243,-0.00183,0.02993,0.00367,13.02,-27.18,-15.54
59.6414,89025.6721,-0.5465001389315653,0.5115892577932907,-0.0581904312817656,-0.04826,0.09285,0.00794,13.08,-28.08,-15.48
59.6617,89025.6921,-0.49976333859036576,0.5656210732629068,-0.07436155279739687,-0.02443,0.04581,0.03421,13.38,-27.84,-15.12
59.6814,89025.7121,-0.4451034979693243,0.6147965442313171,-0.0747645723156154,0.03115,-0.04154,0.07086,13.14,-27.54,-15.42
59.7189,89025.7321,-0.40551268894057835,0.6449649192839035,-0.05553881597782251,0.05376,-0.05986,0.07086,13.68,-27.66,-15.54
59.7256,89025.7531,-0.3462911600181283,0.6667669199177739,-0.019265466660113972,-0.00305,-0.03299,0.05864,13.8,-27.24,-15.24
59.7424,89025.7731,-0.31069280217600387,0.669982180763937,0.023378861279908847,-0.03238,-0.00122,0.0226,13.86,-27.42,-15.42
59.7624,89025.7931,-0.3028757392425298,0.657374684567538,0.059917568051675474,-0.03176,0.01527,-0.01161,13.68,-27.42,-15.0
59.7849,89025.8131,-0.328978563525248,0.6311869761630635,0.07921478980626873,-0.03543,0.01588,-0.03054,13.56,-27.36,-14.94
59.8077,89025.8341,-0.38486600989393943,0.5969845387782858,0.07462749949754865,-0.02382,-0.01588,-0.02443,13.38,-27.36,-15.24
59.8253,89025.8541,-0.4530795052191206,0.566443173769125,0.04549385299532638,0.00367,-0.0507,-0.02688,13.56,-27.66,-15.36
59.8489,89025.8741,-0.5117190540829403,0.5506407251324473,-0.0025026637024971876,0.01649,-0.02871,-0.03604,13.62,-27.96,-15.66
59.8745,89025.8951,-0.5476270046710034,0.5560048236764953,-0.05904269662594608,0.00061,0.04276,-0.02993,13.62,-27.84,-16.02
59.8875,89025.915,-0.5615679208620286,0.5780102915925697,-0.11180497697406366,-0.02077,0.0336,-0.00428,13.92,-27.54,-16.02
59.9066,89025.9351,-0.5552245616380319,0.6080503422753257,-0.14915335440482025,-0.01038,-0.06597,0.01649,13.62,-27.06,-16.02
59.9261,89025.9551,-0.5363522019267651,0.6339773517446341,-0.16305349708463268,0.01283,-0.08002,0.0171,13.5,-26.64,-15.72
59.9452,89025.9751,-0.5132136156460395,0.647314824207907,-0.1508183566399932,0.01833,-0.01283,0.0171,13.8,-26.52,-15.48
59.9643,89025.9951,-0.49543906115878644,0.6439380494590088,-0.11555237970971888,-0.01344,0.011,0.04154,13.14,-26.58,-15.48
59.9844,89026.0151,-0.4898693017629411,0.6246106289220354,-0.06514243402149056,-0.05009,-0.01772,0.01222,13.5,-26.82,-15.54
60.0141,89026.0351,-0.49599662885496876,0.6000915719804175,-0.010662236878262732,-0.04581,-0.0281,-0.03238,13.86,-26.76,-15.6
60.0243,89026.0551,-0.5115205225739828,0.5618778948476899,0.037438471633938875,-0.0617,0.00611,-0.0226,13.62,-27.06,-15.78
60.0441,89026.0749,-0.5246968648661285,0.5384503450677548,0.06899946685439318,-0.05437,0.02382,0.01833,14.04,-27.06,-15.6
60.0644,89026.0951,-0.5290090011417721,0.5318877703411626,0.07975637018706294,-0.02382,-0.02566,0.02993,13.56,-26.88,-15.42
60.0888,89026.1151,-0.522174804888829,0.5453760336993173,0.07106090804464316,0.02505,-0.01466,0.03299,13.14,-27.06,-15.54
60.1068,89026.1361,-0.501241156851581,0.5791074516806592,0.049727135841306946,0.03971,0.00061,0.03665,13.32,-27.0,-15.24
60.1283,89026.1561,-0.4757372713179268,0.6223873786250781,0.025094369441662323,-0.00489,-0.00428,0.04154,13.32,-27.06,-15.18
60.1467,89026.1761,-0.45263401832449635,0.6607287060170973,0.006091350665847983,-0.03176,0.01344,0.02566,13.44,-27.06,-15.3
60.1649,89026.1961,-0.44122297515928566,0.6805064676324702,-0.001834573939264672,-0.02688,0.02138,-0.01161,13.8,-26.94,-14.82
60.1847,89026.2161,-0.44620696162778,0.6767093153925603,0.0019954794866752223,-0.00489,0.0226,-0.00489,13.86,-27.06,-14.94
60.2046,89026.2361,-0.46574965958268294,0.6533480682807493,0.013774116943499948,-0.00916,-0.00061,0.01833,13.8,-27.54,-15.24
60.2273,89026.2561,-0.49054431871632015,0.6215376607452325,0.026748989947995128,-0.01588,-0.01161,0.02077,13.56,-27.6,-15.54
60.2473,89026.2761,-0.507008815825659,0.5947256654911095,0.03358611199901773,-0.01283,-0.00489,0.00916,13.38,-27.36,-15.9
60.2699,89026.2971,-0.5062102466503222,0.5869156834948622,0.02839343044537479,0.03787,0.02077,-0.0055,13.38,-26.94,-15.42
60.2892,89026.3171,-0.4861539920279587,0.6101316453101127,0.008411245316748861,0.03115,0.02932,0.0055,13.38,-26.7,-15.36
60.3088,89026.3371,-0.4495779702426377,0.6654776785869996,-0.024872051466513057,-0.02932,-0.00733,0.02749,13.62,-26.82,-15.24
60.332,89026.3581,-0.4032479693350092,0.7426576040339188,-0.066027344044711,-0.03604,-0.01649,0.01588,13.74,-27.24,-15.54
60.3496,89026.3781,-0.3565045570626561,0.8188097631336468,-0.10614930894899821,-0.0171,0.03971,-0.00061,13.74,-27.78,-16.02
60.3708,89026.3991,-0.3236197936224027,0.875920361663138,-0.13538028063167573,-0.08186,0.06903,-0.00367,13.62,-27.6,-15.54
60.3965,89026.4191,-0.3171571155687422,0.9040803109667702,-0.1450834765823199,-0.15944,0.09102,-0.04154,13.74,-27.36,-15.72
60.4126,89026.4391,-0.3626372859535308,0.8710781458824377,-0.12830012771684096,-0.23946,0.18143,-0.0788,13.32,-27.42,-15.54
60.4294,89026.4601,-0.4453408727704308,0.7967554140719603,-0.0879514971641111,-0.33537,0.11179,-0.0843,13.26,-27.06,-15.36
60.4499,89026.4801,-0.5412474244706453,0.7062032692342549,-0.033850188641070034,-0.44715,0.0843,-0.13195,13.26,-27.12,-15.84
60.4697,89026.5011,-0.6361412128140347,0.6007959948779185,0.020663565459933864,-0.36224,0.2248,-0.17043,13.44,-27.06,-15.6
60.4966,89026.5211,-0.7027061910934818,0.522813756922187,0.06030319538809792,-0.27978,0.22785,-0.04704,13.74,-26.58,-15.6
60.5093,89026.541,-0.7773700366269876,0.4191008836863942,0.07593693117259015,-0.25229,0.12095,0.02566,13.68,-26.46,-15.78
60.5291,89026.5611,-0.8448117912577955,0.34380049817772235,0.0649687313638907,-0.16921,-0.20281,0.00489,14.1,-26.22,-15.84
60.5492,89026.5811,-0.9080130008205058,0.27182161243186476,0.036982287133755065,-0.0281,-0.52168,-0.01527,14.16,-25.86,-15.9
60.5791,89026.6011,-0.9925455855723758,0.19481925859316532,0.006087272050718795,0.12095,-0.77702,-0.02566,14.22,-25.74,-16.2
60.6038,89026.6211,-0.9986208311235455,0.13551794696766495,0.00299994176084617,0.20525,-0.63591,0.05131,14.22,-25.68,-16.08
60.6196,89026.6411,-0.910415820963701,0.11544813735011016,0.04887205838138442,0.11301,-0.3207,0.14539,14.1,-25.8,-16.2
60.6321,89026.6621,-0.7803075814322428,0.12793340323061914,0.14575944520433204,0.03604,0.02749,0.26267,13.92,-26.04,-16.44
60.6527,89026.6821,-0.66950035547469,0.1599041152989593,0.27607724681544,0.05498,-0.08369,0.29688,13.5,-26.28,-16.44
60.674,89026.7021,-0.5868538247189985,0.21279781392302868,0.40458635781682517,0.1405,-0.02077,0.28222,13.14,-26.58,-16.8
60.6912,89026.7221,-0.5294804188780465,0.2891487536110946,0.48241252556696956,0.16799,-0.12462,0.24984,12.84,-26.7,-16.74
60.711,89026.7421,-0.5052573711514077,0.37850057943138254,0.46535632932439697,0.11668,0.07636,0.10079,12.48,-27.06,-16.74
60.7306,89026.7621,-0.4988724597660565,0.4784344127424926,0.33647426168959527,0.24435,0.04581,-0.0226,12.6,-27.36,-16.44
60.7512,89026.7821,-0.4932362775346292,0.5896421456840224,0.11665857220844522,0.65363,-0.26328,-0.11423,13.26,-27.12,-16.44
60.7718,89026.8021,-0.4673593264522399,0.730180221564928,-0.14164583205851144,0.59987,-0.05315,-0.03176,12.84,-27.12,-16.26
60.7949,89026.8221,-0.412592392784032,0.8859051869564128,-0.37286868646313387,0.22907,0.0171,0.00244,12.78,-27.18,-16.26
60.8118,89026.8421,-0.3360094445986377,1.0431511516282634,-0.5243428584539718,0.1631,-0.0055,0.01527,13.02,-27.24,-16.14
60.8307,89026.8621,-0.2599317320735903,1.1381871040199671,-0.5662137177221886,0.19059,-0.22602,0.05253,12.3,-27.78,-15.72
60.8546,89026.8821,-0.20584703592119277,1.1508026202386534,-0.5045180373111666,0.19548,-0.25412,0.14783,12.48,-27.48,-15.66
60.8739,89026.9021,-0.15447934707086597,1.117189889809301,-0.3772334758512397,0.19975,-0.28466,0.06414,12.42,-27.9,-15.12
60.8937,89026.9221,-0.11893729886652311,1.0614658426006949,-0.2314015738015467,0.1069,0.16066,0.00977,12.06,-28.02,-14.94
60.9197,89026.9421,-0.10522622928469769,1.0022784464911345,-0.10638493065833643,-0.05986,0.33353,-0.00183,12.12,-27.84,-14.58
60.9324,89026.9621,-0.15726033419069022,0.9332705152456218,-0.023637718737870017,-0.01588,0.14844,-0.0171,12.36,-28.38,-14.16
60.9533,89026.9821,-0.24658363232814598,0.8545552990852459,0.011118070936451119,0.05559,-0.01161,-0.03421,12.54,-27.66,-14.46
60.9716,89027.0021,-0.36078527735271254,0.7760244834688729,0.002351089171330756,0.02199,0.05009,-0.00672,12.42,-27.9,-14.88
60.9961,89027.0221,-0.46546431455935966,0.7166766515376253,-0.039259511527470536,0.0226,0.08186,0.00428,12.54,-28.2,-15.24
61.0117,89027.0421,-0.5426203840730026,0.6882608936874154,-0.10029876971484164,-0.02932,0.13011,0.01833,12.3,-27.96,-15.66
61.0311,89027.0621,-0.5784620630885602,0.6908861024946482,-0.16619318145309236,-0.10446,0.1686,0.02749,12.42,-28.26,-15.54
61.0508,89027.0821,-0.579658938905882,0.7108474350654621,-0.2227589526600937,0.06475,0.08063,0.02627,12.42,-27.66,-14.94
61.0709,89027.1021,-0.5573770429406026,0.7384875465980411,-0.25774391733056135,0.13073,-0.00367,0.01588,12.48,-27.78,-15.0
61.0961,89027.1221,-0.5283282120706088,0.7669696936893166,-0.2639108864499544,0.06353,-0.06353,0.03726,12.48,-28.02,-14.64
61.1131,89027.1421,-0.48101228161066234,0.8089191593632074,-0.2425028564636449,0.05253,-0.18937,0.07697,12.18,-27.84,-14.64
61.1391,89027.1621,-0.43513084598219276,0.8574564744239116,-0.20431425109687318,-0.08125,-0.06109,0.09285,12.06,-28.5,-15.12
61.1536,89027.1821,-0.3985189437377575,0.8760857312886063,-0.1611417586890802,-0.18631,0.34392,0.06231,12.06,-28.5,-14.88
61.1741,89027.2021,-0.38382140145524346,0.8684367721061592,-0.12516312601815116,-0.13806,0.34453,-0.01772,12.18,-28.26,-15.0
61.1988,89027.2231,-0.41231100524671166,0.8162389311111194,-0.09905980409990356,-0.04704,0.11729,-0.1014,12.48,-28.38,-15.12
61.2125,89027.2431,-0.4898030206541976,0.7387354264168597,-0.08269912106802302,0.02993,-0.11118,-0.07208,12.48,-27.84,-15.06
61.2431,89027.2631,-0.5737038985379319,0.6793473797711364,-0.07536105590501663,-0.01466,-0.09957,0.02321,12.54,-27.72,-15.0
61.2563,89027.2831,-0.5943801462840164,0.6816089320050215,-0.07709005905308608,-0.09041,0.03971,0.0452,12.78,-27.72,-15.12
61.272,89027.3031,-0.5396779900006966,0.7586045068458539,-0.09228630016943384,-0.08552,0.18448,0.03238,12.54,-28.02,-14.94
61.2965,89027.3231,-0.419004835201486,0.8779381560923013,-0.12256991387049254,-0.11729,0.21319,0.01466,13.02,-28.26,-15.0
61.3126,89027.3431,-0.30545195800583386,0.975640759968768,-0.16152326386420235,-0.05986,0.23702,0.05498,13.02,-27.96,-15.36
61.3324,89027.3631,-0.23521186098111002,1.0162421867597846,-0.1949818422132541,0.89186,-0.37263,-0.13561,12.84,-28.14,-15.24
61.3561,89027.3831,-0.21667571350764728,1.0288544370585042,-0.216244182831538,0.51618,-0.55833,0.01466,13.14,-27.9,-14.88
61.3714,89027.4031,-0.22565471225310427,1.0760153311249683,-0.22874692031583876,-0.15577,0.19242,-0.02749,12.66,-27.96,-14.94
61.4018,89027.4231,-0.20721164845984,1.1599165146810837,-0.23371327636882988,-0.52657,0.58582,-0.21869,12.6,-28.14,-14.34
61.4208,89027.4431,-0.28333679487509067,1.143399073268483,-0.2197318324027595,-0.41111,0.69211,-0.26206,12.36,-28.08,-14.52
61.4348,89027.4631,-0.42622554940680335,1.040261007092437,-0.19140876290283693,-0.05498,0.18692,-0.24374,12.06,-27.78,-14.64
61.4549,89027.4831,-0.5740954601211323,0.9170597623688382,-0.16001456619525278,-0.15088,-0.3769,-0.05315,12.66,-27.48,-14.34
61.4725,89027.5031,-0.6774689413309577,0.8156413201468588,-0.13188879411394794,-0.27,-0.17471,0.04032,12.6,-27.78,-14.52
61.4927,89027.5231,-0.6984834327632045,0.7755817202779018,-0.110223130105366,-0.30971,0.01405,0.0281,13.08,-27.78,-14.34
61.5113,89027.543,-0.6407935144164446,0.7811548526910224,-0.09310906504109973,-0.25534,0.10629,0.02627,13.14,-28.02,-14.7
61.5316,89027.563,-0.5478987577815744,0.8225709810251824,-0.07718324930180565,-0.11973,0.10629,0.04276,12.96,-28.14,-14.52
61.5522,89027.5831,-0.46213664937724397,0.8850162001778327,-0.053473690769489934,-0.04398,0.00733,0.07819,13.32,-27.72,-14.7
61.5731,89027.6031,-0.4014821451032665,0.9615541874617574,-0.012938236880374987,-0.1069,0.03238,0.08858,13.2,-27.54,-15.06
61.5947,89027.6231,-0.36556331688745514,1.036652221977872,0.04672815544185127,-0.16921,0.09957,0.12462,13.14,-27.78,-14.94
61.6191,89027.6441,-0.34989299835574,1.085794300836861,0.11706399595873052,-0.19364,0.09346,0.13867,13.14,-27.48,-15.36
61.634,89027.6641,-0.35445725027739555,1.05186192745559,0.18354186541685458,-0.19426,0.15516,0.09774,12.9,-27.36,-15.42
61.6557,89027.6841,-0.379957209867897,0.9519308369975646,0.2198453244776033,-0.11545,0.18021,0.02932,12.6,-27.42,-15.36
61.6753,89027.7041,-0.43441516548595627,0.7819334156692477,0.20465884118803324,-0.05742,0.18692,0.02199,12.6,-27.24,-15.36
61.6959,89027.7241,-0.5139895492486326,0.5818836675403876,0.12098214328435652,-0.0171,0.13378,0.04093,12.72,-27.54,-15.3
61.7201,89027.7441,-0.6110586910310537,0.40581951424957075,-0.03789205329418621,-0.02505,0.08919,0.06292,12.72,-27.24,-15.42
61.7404,89027.7651,-0.7174154574147701,0.3078628125630833,-0.26655909441280556,0.03238,0.12462,0.12828,12.96,-27.18,-15.36
61.7628,89027.7851,-0.8241586147847271,0.32777694130819535,-0.5453775380529624,0.04887,0.09896,0.16677,13.14,-27.42,-15.48
61.7791,89027.8049,-0.9156121322365897,0.4902734523912507,-0.8370663442850663,0.16554,0.07636,0.24435,13.02,-27.12,-15.3
61.8025,89027.8251,-1.000121455694564,0.7573355829842509,-1.0873191535947253,0.35308,0.13989,0.35247,13.44,-27.48,-15.18
61.8175,89027.8451,-1.056964947061568,1.137285282288835,-1.2372599545606846,0.41783,0.19792,0.3207,13.32,-27.78,-14.82
61.8379,89027.8651,-1.1044429748611906,1.52148817170584,-1.2372549607109509,0.36469,0.2926,0.3262,13.38,-27.9,-14.52
61.8557,89027.8861,-1.1360831503566124,1.8629181942270172,-1.0745560372653706,0.1405,0.27794,0.3488,13.02,-28.32,-14.22
61.8778,89027.9061,-1.1604158393739306,2.0899660045288235,-0.7728068644737096,-0.08674,0.23335,0.2926,12.6,-28.86,-14.04
61.8953,89027.9261,-1.166812530511767,2.164680003350781,-0.38802600693059475,-0.11179,0.19609,0.23763,12.54,-28.8,-14.04
61.9207,89027.9461,-1.1735751902554186,2.105488898230913,-0.00578875443495086,-0.13073,0.10812,0.19792,12.18,-28.5,-13.98
61.9497,89027.9671,-1.1831571131797225,1.957592193746501,0.2914037104107319,-0.1069,0.08674,0.11179,12.42,-28.62,-14.28
61.961,89027.9871,-1.1980351323346778,1.7660445296119893,0.4470830240613406,-0.13073,0.04704,0.01894,12.36,-28.2,-14.22
61.9765,89028.0071,-1.2317531827422175,1.6272895729098904,0.4338682372357461,-0.20769,-0.03115,-0.02321,12.24,-28.08,-14.16
61.9993,89028.0271,-1.2657880197443225,1.5939448471569906,0.27754697472338563,-0.21014,0.00611,-0.04032,12.36,-28.14,-14.16
62.0245,89028.0481,-1.2782071762471203,1.6711075482194941,0.0412166089654864,-0.11912,0.18448,-0.02627,12.48,-28.02,-14.22
62.0394,89028.0691,-1.2743915012571496,1.8292592595493005,-0.19840581543475544,-0.10263,0.4215,0.09102,12.48,-27.96,-14.4
62.0644,89028.0901,-1.2347446296600653,2.0569677887613147,-0.37363007850254526,-0.12462,0.45815,0.22113,12.54,-27.84,-14.52
62.0842,89028.1101,-1.1698689105497133,2.276320609650266,-0.43246874398731094,-0.13806,0.30482,0.32926,12.72,-27.78,-14.82
62.1049,89028.1311,-1.0802244458824037,2.4301716476692445,-0.3554486162037769,-0.04398,0.20953,0.33292,12.54,-27.42,-14.64
62.1254,89028.1511,-0.9701530074334688,2.475645837646129,-0.15445528835679667,0.0,0.08308,0.29871,12.9,-27.66,-14.52
62.1401,89028.1711,-0.8433539515898821,2.4019378659739776,0.13270128140464799,-0.05681,0.08063,0.26878,12.66,-27.54,-14.58
62.1625,89028.1911,-0.7510563910664263,2.2409518123009855,0.4480975693432754,-0.18204,0.01038,0.22541,12.42,-27.54,-14.34
62.1818,89028.2111,-0.6865170559731314,2.025106336043674,0.7421099605103016,-0.24435,-0.03299,0.2022,12.66,-28.08,-14.4
62.2038,89028.2311,-0.6664342584653399,1.8187120119139069,0.9639823702786643,-0.25229,-0.07758,0.14966,12.06,-28.5,-14.22
62.2251,89028.2511,-0.6795387278034551,1.6653024083651096,1.0822335569460542,-0.20708,0.0336,0.05437,12.06,-29.04,-14.34
62.2442,89028.2711,-0.7249650035254572,1.5990937911696372,1.086830671478534,-0.12401,0.11179,0.01588,12.06,-29.46,-14.46
62.2646,89028.2911,-0.801768255075786,1.630916092808511,0.9975230247438418,-0.07941,0.16127,-0.03421,11.7,-29.46,-14.52
62.284,89028.3111,-0.9026344694036862,1.7252222249703526,0.8642398642786322,0.0171,0.07391,-0.09713,11.58,-29.34,-15.06
62.2995,89028.3311,-1.0044527984599156,1.8251519626210095,0.7513828213034817,0.09774,-0.01955,-0.12706,11.76,-28.74,-15.24
62.3194,89028.3511,-1.0631857613470204,1.8541669452595664,0.7200580498259868,0.11606,-0.1069,-0.13134,11.16,-28.56,-15.06
62.3511,89028.3711,-1.0531073760471752,1.7545999263236132,0.8004662507202678,0.03238,-0.10568,-0.12584,11.04,-28.56,-15.36
62.3633,89028.3911,-0.9803171217371875,1.501867978914883,0.9785055233593702,-0.09346,-0.12828,-0.12828,11.34,-28.32,-15.24
62.3857,89028.4111,-0.8565387079567076,1.1240839417406738,1.1991120663904464,-0.2419,-0.15577,-0.12584,11.1,-28.86,-15.12
62.4059,89028.4311,-0.6982939317118828,0.6482098054594942,1.3847184673258077,-0.41844,-0.28527,-0.1912,11.7,-28.62,-15.42
62.4292,89028.4511,-0.5216956000544316,0.16838166778255712,1.4470167301024937,-0.44654,-0.22969,-0.3207,11.76,-28.32,-14.94
62.4412,89028.4711,-0.3656843145866072,-0.2953246985108219,1.31806513978084,-0.32559,-0.01344,-0.40256,11.88,-27.96,-15.06
62.4636,89028.4921,-0.21379366575225045,-0.5796227295027009,0.9760579025932152,-0.24984,0.0672,-0.41356,12.24,-27.18,-15.24
62.4822,89028.5121,-0.11771697399965815,-0.6921955479907788,0.4496175707091634,-0.15211,-0.04154,-0.3653,12.06,-26.94,-15.36
62.5013,89028.5321,-0.06581230284096776,-0.617017012063113,-0.18561704497308895,0.10201,-0.09224,-0.23213,12.36,-26.88,-16.2
62.5206,89028.5521,-0.04953880757179658,-0.3855054382248229,-0.8318467014264037,0.28588,-0.03543,-0.11668,12.42,-26.88,-16.5
62.5421,89028.5721,-0.06586661909533298,-0.06211188578520692,-1.394506230259994,0.32498,-0.03604,-0.07391,12.66,-27.24,-16.44
62.5636,89028.5921,-0.1193381179840262,0.28809617335014764,-1.803255422955095,0.27978,-0.13378,-0.05315,12.24,-26.94,-16.14
62.584,89028.6121,-0.20293115042129092,0.6060360494138018,-2.023695722721717,0.24618,-0.25717,-0.03482,11.82,-27.12,-15.3
62.6132,89028.6321,-0.3092855564334106,0.8421357668414798,-2.0546902370909432,0.19487,-0.4948,-0.0507,11.64,-27.66,-14.94
62.622,89028.6521,-0.3455145140552841,1.0397679003360807,-1.925281692062562,0.12584,-0.56261,-0.02077,10.68,-27.18,-15.06
62.6421,89028.6721,-0.3530780763517416,1.1780104888918599,-1.6780853625140946,0.06903,-0.54917,0.02016,11.04,-27.12,-15.24
62.668,89028.6931,-0.3118434682006356,1.2915482514054757,-1.3670519995909363,0.08613,-0.55161,0.12645,11.16,-27.12,-15.78
62.6886,89028.7131,-0.1800857274000007,1.4175169974205544,-1.0490518999806948,0.12523,-0.58032,0.19364,10.92,-26.76,-15.9
62.7027,89028.7331,0.026042655773967357,1.5617696905373928,-0.7790508668386078,0.04765,-0.47892,0.16677,10.92,-27.24,-15.6
62.7266,89028.7531,0.21981482376677777,1.7073772003298633,-0.6011770924827236,-0.12278,-0.20342,0.03299,10.62,-27.6,-15.48
62.7424,89028.7731,0.3702067656032099,1.8197726655718875,-0.5372867741926921,-0.19181,-0.1124,-0.13195,10.08,-27.84,-15.24
62.7657,89028.7931,0.41201000772008484,1.8887080375726302,-0.584617011549069,-0.17043,-0.2248,-0.24557,9.78,-27.72,-15.24
62.7817,89028.8131,0.31170040117697845,1.892644602988095,-0.7073589356039385,-0.18509,-0.3769,-0.26145,10.38,-27.78,-15.96
62.8047,89028.8331,0.09322677594076924,1.8699644061316145,-0.8597827670621925,-0.25473,-0.38668,-0.30299,10.14,-27.78,-16.38
62.8246,89028.8531,-0.20510861115364726,1.839563845455754,-0.9801841959757223,-0.23702,-0.25168,-0.33964,10.44,-27.42,-16.74
62.8454,89028.8731,-0.5345998593013616,1.829713332410224,-1.0125265809230974,-0.23946,-0.09407,-0.35369,10.62,-27.42,-16.92
62.8683,89028.8931,-0.857704352665356,1.852371131040015,-0.9184191022936652,-0.32254,-0.10446,-0.30238,10.32,-27.12,-16.56
62.888,89028.9131,-1.1530163485644302,1.8838973320549686,-0.6860055421224853,-0.35369,-0.23152,-0.24129,10.32,-26.88,-16.68
62.9072,89028.9331,-1.3862487525836573,1.9096076047300006,-0.33583896498752,-0.20342,-0.16738,-0.15149,10.74,-26.76,-16.86
62.9283,89028.9531,-1.5336493449589703,1.9083473489394238,0.09132377692496085,-0.04948,0.05376,-0.03115,10.74,-26.34,-16.98
62.945,89028.9731,-1.5975466678884958,1.8641859221726196,0.5443310011032736,0.04948,0.30299,0.0336,10.68,-26.4,-17.22
62.9653,89028.9931,-1.5869194918891028,1.7749325417624078,0.9776989161265615,0.09407,0.35858,-0.03665,11.28,-26.28,-17.16
62.985,89029.0131,-1.5442541795592268,1.6582900485568133,1.3571589922354974,0.16982,0.39095,-0.11606,11.04,-26.4,-17.22
63.0059,89029.0331,-1.4907931920390696,1.52988259750538,1.6735413413528235,0.22419,0.33781,-0.10934,11.28,-26.4,-17.04
63.0217,89029.0531,-1.4575064621115157,1.415552682675364,1.9291256548692086,0.24312,0.39523,-0.11912,11.46,-26.58,-16.62
63.0441,89029.0731,-1.3863649294778098,1.2723788245086838,2.146362901758005,0.24251,0.551,-0.09468,11.46,-26.58,-16.74
63.0624,89029.0931,-1.3240207488482798,1.1128267352540169,2.3153830082116063,0.3036,0.59743,-0.05925,11.58,-26.22,-16.32
63.0819,89029.113,-1.2573620970897226,0.899129718909116,2.419693180124062,0.41539,0.62308,0.02138,11.76,-26.16,-16.14
63.1015,89029.1331,-1.2154544672330572,0.6349461933771862,2.4173975984124976,0.29688,0.48503,0.08125,11.88,-25.86,-16.32
63.1222,89029.1531,-1.2098511096925368,0.3258529948364398,2.265457119031362,-0.02382,0.26145,0.07697,11.94,-26.22,-15.84
63.1429,89029.1731,-1.2300514383819812,-0.016633613190499347,1.9380509085947413,-0.10324,0.04276,-0.00916,12.3,-26.7,-16.02
63.1645,89029.1931,-1.2432531585499529,-0.3637300304480623,1.4445326949976458,0.05192,0.08369,-0.03482,12.72,-26.76,-15.84
63.1889,89029.2131,-1.2177812027185992,-0.6607866285389109,0.8381466817325052,0.21564,0.41783,-0.02871,12.72,-27.06,-15.96
63.2046,89029.2331,-1.1914840929384114,-0.8298933267911903,0.20300165750728638,0.17043,0.61209,0.07453,12.96,-27.18,-15.96
63.2268,89029.2531,-1.1164763424512893,-0.8766688200021496,-0.36371624072425845,0.01527,0.50457,0.23457,13.08,-27.24,-15.42
63.2458,89029.2731,-1.018962450806832,-0.820004725055005,-0.8022438078524949,-0.04765,0.28344,0.31154,12.96,-27.54,-15.54
63.2659,89029.2931,-0.8913150390016661,-0.7079028066792404,-1.098726032039604,0.12462,0.24618,0.33842,13.02,-27.66,-14.88
63.282,89029.3131,-0.7478149234865359,-0.5616646391072524,-1.2834971402742266,0.21319,0.25779,0.39584,12.96,-27.66,-15.24
63.3021,89029.3331,-0.6265092844579293,-0.3970505070334949,-1.4104735866253577,0.12828,0.24679,0.3824,12.78,-27.42,-15.36
63.3253,89029.3531,-0.553003035119738,-0.20593482246818404,-1.5231970043830874,0.08735,0.29566,0.31154,12.66,-27.54,-15.3
63.3453,89029.3731,-0.5381709283252261,0.02470477672318497,-1.6349959731000627,0.14416,0.3543,0.26328,12.48,-27.72,-15.18
63.3651,89029.3931,-0.5671080016868154,0.2925380793364725,-1.7240590910411484,0.16127,0.39523,0.24862,12.42,-27.84,-14.46
63.3857,89029.413,-0.6073874582923641,0.591873975858515,-1.7462708031078122,0.17226,0.40867,0.30299,12.36,-28.08,-14.22
63.4056,89029.4331,-0.6190740778398375,0.9101251061608171,-1.6575022989639265,0.17165,0.24618,0.48869,12.24,-27.96,-13.86
63.4255,89029.4531,-0.5686377509532068,1.2215438401992984,-1.43294668461877,0.2865,0.0171,0.61087,12.3,-27.9,-13.56
63.4572,89029.4731,-0.49960773313299023,1.4532278743257105,-1.075856128295749,0.35797,-0.15027,0.58093,12.3,-27.84,-13.62
63.4677,89029.4931,-0.28560212590256484,1.7000663441968484,-0.6417964608007747,0.39034,-0.29566,0.48319,11.94,-28.2,-13.14
63.4872,89029.5131,-0.12230637898070917,1.8240412250018334,-0.18885230943936548,0.3262,-0.51252,0.36713,11.64,-28.32,-12.72
63.5031,89029.5331,-0.0055130125480905125,1.860129680129455,0.199738617528201,0.20403,-0.66523,0.26817,10.98,-28.56,-12.96
63.5223,89029.5531,-0.008051757980166626,1.785815786541988,0.4628806564127821,0.2138,-0.57971,0.10385,10.74,-28.5,-12.72
63.5422,89029.5731,-0.12565022003380155,1.6350902665203146,0.5621515293220565,0.23824,-0.32926,-0.06781,10.56,-28.56,-12.6
63.5624,89029.5931,-0.34993969586921375,1.444589752337582,0.502657338644811,0.12034,0.0,-0.24618,10.2,-28.86,-12.72
63.5816,89029.6131,-0.6716666808971852,1.2483407738872125,0.3286621570450432,-0.10812,0.14111,-0.34941,10.32,-29.16,-12.54
63.6042,89029.6331,-1.0454981966676533,1.0884094471936352,0.10434454109712732,-0.14478,0.15699,-0.38729,9.72,-29.34,-12.42
63.6309,89029.6531,-1.4218787227741052,1.013506476292483,-0.108114730929044,-0.07636,0.00061,-0.32498,9.84,-29.16,-12.84
63.6456,89029.6731,-1.7420455664844208,1.0370893307452957,-0.25530063654840873,-0.09285,-0.15699,-0.14478,9.96,-29.34,-12.96
63.6731,89029.6931,-1.910467936173989,1.1893235847551291,-0.28799656425609577,-0.0898,-0.11118,0.03665,9.78,-29.28,-13.08
63.6824,89029.7131,-1.8617744076030889,1.4179315485195836,-0.15834747429717133,0.08735,0.04948,0.15211,9.9,-29.46,-12.96
63.7059,89029.733,-1.6456782617542456,1.600291053750674,0.15229803657690866,0.18815,-0.01772,0.28344,9.84,-29.4,-12.72
63.724,89029.7531,-1.2733001227195877,1.6717833066600452,0.6279864312311023,0.11057,-0.20769,0.38485,10.32,-29.22,-12.6
63.7449,89029.7731,-0.8483349310430534,1.563411373662145,1.1937268911324228,-0.07269,-0.43494,0.33659,10.32,-29.16,-12.12
63.766,89029.7931,-0.43515662864542587,1.289235678809224,1.7290444054429628,-0.43921,-0.41722,0.25962,10.14,-29.28,-12.0
63.7821,89029.8131,-0.05535977550798996,0.8600255205985747,2.0924454835640702,-0.83444,-0.36163,0.16127,10.14,-29.4,-11.64
63.8016,89029.8331,0.22695161816821308,0.4075676735699449,2.145953172957512,-0.71532,-0.11851,-0.07941,9.36,-29.16,-12.0
63.8242,89029.8531,0.4170145450267899,0.0029792655445839643,1.8286799543597478,-0.33109,0.09041,-0.33903,9.3,-28.68,-12.24
63.8413,89029.8731,0.45190433650703576,-0.2958308482184891,1.1885262666152077,0.06658,0.23396,-0.47647,9.54,-28.32,-13.14
63.8636,89029.8931,0.36969495338583547,-0.4229550653423929,0.3753005923280437,0.20586,0.11973,-0.4612,9.36,-28.32,-13.92
63.8841,89029.9131,0.18085634731291234,-0.37763073150365656,-0.41286158868839706,0.22969,-0.30055,-0.37874,9.78,-28.56,-14.22
63.904,89029.9331,-0.028382452256792312,-0.2232914481183727,-1.012363092891782,0.39218,-0.47098,-0.34453,10.32,-28.8,-14.4
63.9241,89029.9531,-0.19674215232228365,-0.03896617451391488,-1.3409496909336927,0.4105,-0.39584,-0.36469,10.74,-28.38,-14.22
63.9443,89029.9731,-0.30917725895009474,0.12106590674935555,-1.4085220719211957,0.22785,-0.26756,-0.44838,11.16,-28.08,-13.92
63.9715,89029.9931,-0.37334235111872055,0.2262850933153458,-1.2934015348677281,0.0843,-0.19792,-0.51435,11.58,-28.14,-13.5
63.9856,89030.0131,-0.46450282461323944,0.30656241540492835,-1.1052635071216539,0.07269,-0.24374,-0.44043,11.58,-27.96,-13.68
64.0041,89030.0331,-0.5661706780514776,0.3677128892788076,-0.9388762687378396,0.10751,-0.28222,-0.3598,11.58,-28.02,-13.14
64.0272,89030.0541,-0.6772432206794081,0.44090715603516656,-0.8566743717020042,0.07941,-0.34208,-0.26512,11.34,-27.96,-13.14
64.0453,89030.0741,-0.7668076271771086,0.555557469517804,-0.8783755344646131,0.00977,-0.32376,-0.16249,11.04,-28.14,-12.96
64.0649,89030.0951,-0.8118715631776694,0.7119259577140823,-0.9862467779782484,0.03848,-0.1295,-0.13806,10.62,-27.96,-12.96
64.0853,89030.1161,-0.8096379853227252,0.8974074855334583,-1.1379691129372667,0.01894,0.02627,-0.10934,10.74,-27.96,-13.2
64.1072,89030.1361,-0.7758036445521034,1.0910020772024442,-1.2800464577860584,0.00855,0.02321,-0.05925,11.34,-27.96,-13.2
64.1263,89030.1561,-0.7248239252301601,1.274908759870552,-1.3602569821172938,0.02932,-0.05986,0.01588,11.34,-27.6,-13.92
64.1462,89030.1761,-0.6580539419982572,1.4340398266658463,-1.3383032533255808,0.00122,-0.12401,0.09529,12.3,-27.54,-13.86
64.1679,89030.1961,-0.5727109066134296,1.5565363917875508,-1.1944239245860349,-0.06048,-0.0788,0.09713,12.54,-27.24,-13.62
64.1888,89030.2161,-0.4711097576618166,1.6265484255086144,-0.9312375027299922,-0.09835,0.0507,0.07575,12.3,-27.36,-13.62
64.2064,89030.2361,-0.36960988966422453,1.6322909085171329,-0.5740098735713559,-0.04093,0.00061,0.06414,12.24,-27.36,-13.5
64.2266,89030.2561,-0.29264107298936887,1.5794325276038674,-0.16890796037099953,0.07025,-0.20647,0.09102,11.76,-27.0,-13.5
64.246,89030.2761,-0.23672310907776722,1.496030206948839,0.22348537291921922,0.11118,-0.3317,0.12095,11.4,-26.88,-13.44
64.2645,89030.2961,-0.1855811968863057,1.421546875563094,0.5394719909151107,0.04398,-0.07758,0.12156,11.22,-26.88,-13.5
64.2865,89030.3161,-0.13185735891081177,1.3842730807067694,0.7293415479353644,-0.00367,0.33842,0.04643,10.92,-27.06,-13.2
64.3069,89030.3361,-0.10966695303366773,1.3943484685713343,0.7728935805557473,0.09835,0.55528,-0.09224,11.1,-27.78,-13.02
64.3272,89030.3581,-0.16970887255307654,1.4543959819348902,0.6882394174449349,0.2303,0.42089,-0.15149,10.98,-28.44,-13.32
64.349,89030.3781,-0.3323656626508999,1.5711119561433373,0.5272031054213802,0.30116,0.20403,-0.15944,11.1,-28.38,-13.14
64.3695,89030.3981,-0.5786914749262064,1.7612975446805987,0.357755709031629,0.30238,0.14111,-0.14966,11.88,-28.14,-12.84
64.3878,89030.4181,-0.8527120009237104,2.0004593999366906,0.25021519707997797,0.22174,0.42699,-0.18509,11.82,-28.08,-13.02
64.4074,89030.4381,-1.0861866893791152,2.2082783635461927,0.2616901653300854,0.07941,0.66951,-0.19426,12.0,-27.6,-13.02
64.4303,89030.4581,-1.228560153613102,2.2888685821920305,0.4129678857820771,0.00367,0.81123,-0.17349,12.42,-27.54,-12.66
64.4481,89030.4791,-1.3111509622859299,2.1669138476865455,0.6679296369322234,-0.02505,0.73609,-0.10263,11.94,-27.48,-12.96
64.4716,89030.4991,-1.3001600944918719,1.8315882692969723,0.9560041973213167,-0.10996,0.53023,-0.00122,11.94,-27.24,-12.54
64.4896,89030.519,-1.2447059949940187,1.3140183475845002,1.1837847669682073,-0.43371,0.08858,0.11057,12.06,-27.24,-11.94
64.5071,89030.5391,-1.163493231506774,0.7238680337996981,1.2645556270912923,-0.58032,-0.09835,0.02749,11.46,-27.06,-12.36
64.5272,89030.5591,-1.0845089030141233,0.20306778513988177,1.14210329688966,-0.5791,0.16554,-0.07208,12.24,-26.94,-12.24
64.5503,89030.579,-1.0211210274027926,-0.14891084752145903,0.8156114578267779,-0.51557,0.49114,-0.07269,12.36,-26.88,-12.12
64.5689,89030.5991,-1.0170312939288129,-0.31487312711535453,0.3431806368457533,-0.37018,0.66951,-0.02749,12.3,-26.64,-12.66
64.5867,89030.619,-1.0506967465812624,-0.26683091957637184,-0.15565858984280467,-0.05864,0.7532,0.02138,12.84,-26.52,-12.42
64.6084,89030.639,-1.0601039184291887,-0.05779048430407475,-0.5436501428355385,0.09163,0.77885,0.10324,12.54,-26.28,-12.54
64.6278,89030.6591,-1.0304308373531261,0.22144968738661772,-0.7301388793509194,-0.06048,0.64507,0.23885,12.96,-26.34,-12.84
64.6485,89030.679,-0.9324367127356692,0.47372957289354833,-0.6977083516066926,-0.0672,0.30971,0.3372,13.5,-26.52,-12.9
64.6701,89030.699,-0.7895559889839344,0.6342821892205294,-0.5086700718512436,0.01038,-0.09529,0.39889,13.74,-26.82,-12.78
64.6876,89030.7191,-0.6210843543710226,0.6948789882787728,-0.27449682104072615,0.03299,-0.27978,0.44288,13.8,-27.0,-12.06
64.7072,89030.739,-0.4954864741543425,0.6894610314366934,-0.11674371158345842,0.05681,-0.19059,0.38607,13.62,-27.0,-12.06
64.7279,89030.759,-0.43622037686087617,0.676949763669919,-0.11088661135792854,0.12095,0.04215,0.22785,13.68,-27.24,-11.82
64.7517,89030.7791,-0.4572936278717627,0.6977670409800196,-0.2574216721334057,0.12217,0.27184,0.11301,13.44,-27.36,-12.12
64.7727,89030.7991,-0.5640161100956249,0.7639356570483361,-0.4893610586479866,0.05376,0.28344,0.07575,13.68,-27.6,-12.54
64.7891,89030.819,-0.7204629077463109,0.8589019689393436,-0.710290582859125,0.04337,0.11484,0.10996,13.44,-27.66,-12.3
64.8113,89030.84,-0.8720480259465458,0.9564750974639519,-0.8398475105599275,0.08308,-0.12889,0.2248,13.5,-27.48,-12.36
64.8295,89030.8601,-0.9524955245462473,1.0564780641610438,-0.8418571956416692,0.14294,-0.29383,0.28466,13.14,-27.3,-11.94
64.8556,89030.8801,-0.9842094252949887,1.135559704744098,-0.7320305274010366,0.13989,-0.21319,0.30788,12.78,-27.36,-11.94
64.8694,89030.9,-0.931241032009521,1.2311962802641245,-0.5588331062953031,0.19242,-0.18204,0.27184,12.72,-27.36,-12.12
64.8897,89030.9201,-0.9010212579601884,1.290781227803234,-0.3822413095863624,0.28283,-0.25107,0.23457,12.24,-27.54,-12.0
64.9079,89030.9401,-0.9071857339686966,1.3288366809665533,-0.24588767827675007,0.30543,-0.2419,0.18143,12.12,-27.24,-12.36
64.9281,89030.96,-0.9659034392895833,1.3333334327065787,-0.16264109827185536,0.29383,-0.15333,0.11057,12.06,-27.3,-11.82
64.9524,89030.9801,-1.0561586407244088,1.314550624996931,-0.11686395897311819,0.2529,-0.06842,0.04398,11.82,-27.48,-11.52
64.971,89031.0001,-1.156736549729539,1.3160714212690987,-0.07981517363516488,0.14111,0.08308,-0.03299,11.88,-27.66,-11.46
64.994,89031.0211,-1.2490651425355928,1.3475174835208368,-0.0167504250859416,0.1014,0.0672,-0.01772,12.3,-28.08,-11.4
65.0159,89031.041,-1.323448280532697,1.4384661498936213,0.09186112743859987,0.11057,-0.23213,0.0391,12.0,-27.78,-11.82
65.0307,89031.061,-1.3476450717488329,1.6085304520664558,0.25337571031944073,0.18265,-0.4777,0.05131,12.24,-27.42,-11.82
65.05,89031.0811,-1.3324608709524257,1.8139320775159613,0.46364582849623304,0.2138,-0.42455,0.05498,11.94,-27.24,-12.0
65.073,89031.101,-1.2750234194216263,1.9936146568931232,0.7105392350180768,0.24496,-0.17837,0.05376,11.58,-27.24,-12.06
65.0953,89031.121,-1.1782457044936578,2.079860749540464,0.969785347667468,0.15577,-0.11057,-0.01405,11.46,-27.36,-11.76
65.1101,89031.1411,-1.0642057015048798,1.980313688824025,1.2124836374978898,-0.17898,0.05986,-0.06414,11.64,-27.72,-12.06
65.1334,89031.1611,-0.9251498766526887,1.682150373460932,1.4022588923580663,-0.48503,0.18326,-0.17532,12.06,-27.78,-12.0
65.1534,89031.181,-0.7976762575129869,1.1501654494654299,1.512737595754464,-0.68722,0.21441,-0.30238,12.3,-28.08,-11.22
65.1736,89031.2011,-0.70262849248909,0.47852612375318454,1.503979002840886,-0.76908,-0.04643,-0.42944,12.3,-28.08,-11.1
65.2025,89031.2211,-0.6592474662069414,-0.1484348268884499,1.3346543668850472,-0.67012,-0.23091,-0.38362,12.0,-27.96,-10.92
65.2173,89031.241,-0.6504668777400997,-0.713212682743538,0.9762295041253406,-0.27122,-0.34025,-0.24618,12.06,-27.84,-11.04
65.2308,89031.2611,-0.6184980371904397,-0.9709797588418286,0.4493550864829885,0.16066,-0.32254,-0.11545,12.54,-27.18,-11.76
65.2532,89031.2811,-0.5238161783500738,-0.8823777474406471,-0.16256736869244648,0.38607,-0.04459,0.011,12.84,-26.94,-12.12
65.2705,89031.301,-0.36558110788101267,-0.4424227814154861,-0.7357431160599202,0.36896,0.29444,0.15211,13.56,-26.58,-12.36
65.2904,89031.322,-0.178305730452017,0.18811527695238722,-1.1667151722125713,0.30238,0.19853,0.28161,13.56,-26.46,-12.6
65.3106,89031.342,-0.0037580799622026284,0.8413241419603376,-1.3960365377743997,0.3317,-0.18754,0.3317,13.26,-27.0,-12.72
65.3388,89031.3621,0.10005628250553297,1.3447340248387214,-1.4211109829219417,0.34208,-0.54917,0.30238,13.2,-27.06,-13.02
65.3614,89031.382,0.17350037241496735,1.6737052645591246,-1.3090718708490119,0.29077,-0.64691,0.24984,13.14,-27.36,-12.78
65.3713,89031.402,0.2194822270754894,1.8522422637835079,-1.158742342155211,0.20342,-0.48503,0.12645,13.14,-27.54,-12.42
65.3933,89031.4221,0.16739339275021656,1.8704970648326686,-1.0345517468102514,0.07697,-0.22052,-0.05131,13.08,-27.54,-12.24
65.4114,89031.442,0.050872970137892444,1.8101106306577375,-0.9788830958621482,-0.04337,-0.01527,-0.19853,13.5,-27.72,-11.76
65.4339,89031.462,-0.10427053833477287,1.7126399285782825,-0.9861903409825246,-0.09652,-0.00305,-0.29138,13.14,-27.78,-12.0
65.4627,89031.4821,-0.2705349179352845,1.6078518329650142,-1.027954379174279,-0.07758,-0.20953,-0.30604,13.14,-27.78,-11.7
65.4722,89031.502,-0.42472073643037184,1.5230285552149059,-1.0733492854896625,-0.00244,-0.41111,-0.22846,13.32,-27.6,-11.58
65.4954,89031.522,-0.514546851058584,1.4794467967110305,-1.0953658034747402,0.02871,-0.39156,-0.17226,13.02,-27.72,-11.4
65.5142,89031.5421,-0.5327902481836482,1.4856311316456332,-1.0735415667644688,-0.03054,-0.1741,-0.15577,13.32,-27.96,-11.04
65.5305,89031.5621,-0.5101059176133786,1.5152685303303015,-0.9888321336397166,-0.10873,-0.03726,-0.18143,13.32,-28.14,-11.04
65.5507,89031.582,-0.48788134495592195,1.5308996696822175,-0.8230337077490564,-0.11423,-0.06842,-0.16738,13.32,-28.14,-10.92
65.5731,89031.6021,-0.5067507001661431,1.4913345460918912,-0.5605689295348899,0.00611,-0.1967,-0.10385,13.74,-27.84,-11.58
65.5998,89031.6221,-0.579937684416191,1.3858977975290985,-0.19988245273713723,0.1124,-0.12278,-0.04032,13.5,-27.66,-11.64
65.6159,89031.642,-0.6924355286167362,1.255548953477481,0.23676891848406711,0.05681,0.01772,0.00489,13.38,-27.42,-12.12
65.6353,89031.6621,-0.8234009513680309,1.1442344650649519,0.707089068726038,-0.04704,0.05376,0.03054,13.5,-27.48,-12.54
65.6521,89031.682,-0.9479311174101229,1.1048502774173379,1.1510998185398176,-0.00855,0.00916,0.05376,13.38,-27.66,-12.24
65.6724,89031.702,-1.0424204432131243,1.1702883188456554,1.5073322458951246,0.11545,-0.05009,0.08674,13.56,-27.66,-12.66
65.6919,89031.7221,-1.0727631760291634,1.348503127152111,1.733560516007275,0.23457,-0.03176,0.08735,13.5,-27.84,-12.6
65.7164,89031.7421,-1.0174807043097207,1.5904629200762443,1.8211387262125722,0.40073,0.17532,0.06475,13.02,-27.48,-12.48
65.7307,89031.762,-0.90192065545683,1.8993956280042747,1.772296004611583,0.39034,0.34086,0.03971,12.66,-27.54,-12.3
65.7562,89031.7821,-0.7328273070847733,2.103988795342149,1.623142386459497,0.18815,0.45265,0.00367,12.54,-27.72,-11.76
65.773,89031.8021,-0.6190943338256423,2.15028755626612,1.3848981604600148,-0.03421,0.44288,-0.06781,12.78,-27.78,-11.34
65.7914,89031.822,-0.5813622526116984,1.9669926010292684,1.0802557830623378,-0.18387,0.12767,-0.25412,13.14,-28.08,-10.86
65.8115,89031.8421,-0.6504359489981499,1.5784240205400928,0.7223137237978143,-0.2926,-0.18631,-0.39706,13.8,-28.2,-10.56
65.8367,89031.8621,-0.8150674625425552,1.091246543722547,0.32613538207636594,-0.32254,-0.19914,-0.46609,13.74,-28.2,-10.68
65.8574,89031.882,-1.0784065968502743,0.6122384517485296,-0.08030863373797281,-0.17226,0.18082,-0.47342,14.28,-28.5,-10.8
65.8812,89031.902,-1.3599005309299506,0.27002618773306036,-0.4515944125956324,-0.12401,0.5003,-0.34331,14.76,-28.68,-11.28
65.8994,89031.9221,-1.6404579363116925,0.08249652978913394,-0.7416779736233305,-0.30727,0.49236,-0.16127,15.06,-28.26,-11.7
65.9192,89031.942,-1.828871248416731,0.03237681098092159,-0.9093461226061788,-0.38362,0.45998,-0.02443,15.36,-27.96,-11.76
65.9318,89031.962,-1.9069545780042405,0.037325448160695565,-0.9498517294664559,-0.20892,0.54795,0.0843,15.36,-27.42,-11.22
65.9563,89031.9821,-1.8309401033095971,0.0668609451695739,-0.8799022116509487,-0.04337,0.43188,0.12706,15.78,-27.06,-11.28
65.9756,89032.0031,-1.6558518217775755,0.08909982193755887,-0.75730269060284,-0.09224,0.13256,0.16616,15.9,-27.18,-11.04
65.9963,89032.0231,-1.4232413151954275,0.12089654262746471,-0.6442615793365949,-0.17776,-0.07941,0.2248,16.08,-27.24,-10.56
66.015,89032.0441,-1.1668352847370644,0.17993373755292194,-0.5941881162970919,-0.12156,-0.1069,0.27184,16.14,-27.06,-10.98
66.038,89032.0651,-0.9325182857946201,0.282568537734273,-0.638395925067563,0.05376,0.05437,0.28894,15.84,-27.3,-10.62
66.0542,89032.085,-0.7358398162262981,0.44739532289092104,-0.7689376973537776,0.18815,0.19731,0.28527,15.72,-27.72,-10.62
66.0745,89032.106,-0.6168628688967246,0.6547253972852767,-0.944661298668942,0.22235,0.20036,0.22358,16.2,-27.42,-10.98
66.0944,89032.126,-0.5794032139566482,0.8927359552323094,-1.105079567460482,0.15516,0.0672,0.12156,15.84,-27.9,-10.74
66.119,89032.1461,-0.6090447393457195,1.1261814448575604,-1.195027659041445,0.01527,-0.0336,0.0733,15.96,-27.96,-10.38
66.1373,89032.166,-0.673163651050393,1.3210768536068296,-1.1815465980319946,-0.05376,-0.06781,0.06475,15.84,-27.66,-10.2
66.1586,89032.186,-0.759093000052974,1.4509057037866524,-1.060691787995701,-0.05009,-0.10018,0.05681,15.6,-27.84,-10.44
66.1744,89032.2061,-0.8499456665093836,1.506885694718648,-0.8517813176452123,0.06048,-0.18509,0.08247,16.2,-27.6,-10.08
66.196,89032.226,-0.9627031284237706,1.4870535957549995,-0.5881292456447369,0.19426,-0.28527,0.14233,15.66,-28.08,-10.2
66.2179,89032.246,-1.0743749899616266,1.421918278338458,-0.3019072507741516,0.16493,-0.31643,0.13928,15.78,-28.02,-10.32
66.2359,89032.2661,-1.159253491807852,1.3465295693818629,-0.013700778197133445,0.00244,-0.07575,0.07941,15.96,-28.5,-10.08
66.2601,89032.2861,-1.214003609697093,1.2928512737748852,0.2650447971551557,-0.11668,0.13073,-0.00733,15.54,-28.44,-10.44
66.2764,89032.306,-1.2549002214590674,1.2865094389807685,0.5248342743393728,-0.09041,0.11545,-0.01527,15.66,-28.2,-10.56
66.2967,89032.327,-1.2981570934170976,1.375378570481597,0.7501945819227984,0.01894,-0.14111,0.06231,15.66,-28.26,-10.56
66.3183,89032.3491,-1.347490734132698,1.5728394726804558,0.9277301247470984,0.07208,-0.49541,0.22541,15.42,-28.32,-9.96
66.3381,89032.369,-1.3575395497917695,1.8572166900236302,1.0550681932582027,0.20097,-0.40623,0.29322,15.18,-28.74,-10.02
66.3581,89032.389,-1.300570290367681,2.1391895608289895,1.1401563909934715,0.28283,-0.14844,0.2022,15.54,-28.8,-9.54
66.3881,89032.4091,-1.1719008960203676,2.271769517904199,1.198536893189054,0.16921,0.00428,0.1124,15.42,-29.16,-9.48
66.4064,89032.429,-0.9845596267674638,2.182534306302939,1.2272782787962484,-0.02932,0.1857,-0.02016,15.3,-28.68,-9.66
66.4272,89032.449,-0.784530369634514,1.7913419903509873,1.2289622375178855,-0.35186,0.15577,-0.19426,15.54,-28.56,-9.78
66.4381,89032.4691,-0.6371638002913945,1.040488514320529,1.2031859868049413,-0.72998,-0.29077,-0.34453,15.12,-28.02,-10.44
66.4586,89032.489,-0.5755340849550417,0.19804723124298604,1.099135782756795,-0.84666,-0.83505,-0.47281,15.0,-27.54,-10.02
66.4776,89032.509,-0.5882904076106279,-0.6174853693844403,0.8740735184166333,-0.53084,-0.89614,-0.54734,14.88,-27.66,-10.44
66.4968,89032.5291,-0.6123694155776915,-1.1684068340763034,0.49362646259761256,-0.05192,-0.45937,-0.49358,14.52,-27.48,-10.56
66.5204,89032.5491,-0.5817984583162855,-1.3071068971075939,-0.006434904871456482,0.08369,-0.00489,-0.27428,14.7,-27.66,-10.86
66.5384,89032.569,-0.5209429507734585,-1.0174016188820623,-0.5243730266324214,0.13989,0.40073,0.01527,15.24,-27.66,-11.22
66.5577,89032.589,-0.4547041809592621,-0.44590116154823917,-0.9392178887116458,0.22663,0.29383,0.20159,15.84,-27.78,-11.16
66.5882,89032.609,-0.4406939914809323,0.17816475497345974,-1.164131788013199,0.28405,-0.10629,0.3427,16.32,-27.96,-11.04
66.5979,89032.629,-0.3735589161290136,0.7300904127815235,-1.177646288151438,0.17654,-0.49786,0.2926,16.62,-27.84,-10.44
66.62,89032.649,-0.36730808559271094,1.0591504052810872,-1.0420713846617957,-0.0452,-0.57055,0.21075,16.5,-27.6,-10.26
66.6391,89032.669,-0.3428502906142461,1.1833348878930054,-0.8536514689453387,-0.11362,-0.36041,0.10079,15.9,-27.54,-10.32
66.6619,89032.689,-0.31030096481044533,1.1729388766194413,-0.708055339244309,-0.05009,-0.01283,-0.011,15.48,-27.54,-10.62
66.6796,89032.709,-0.2753061967440148,1.1120701744040864,-0.6608246105371336,-0.01649,0.13134,-0.03299,14.64,-27.96,-10.68
66.6977,89032.729,-0.24408525969424827,1.0798509480252467,-0.7179574667860695,-0.01527,-0.06597,0.05437,14.16,-28.44,-11.28
66.7181,89032.749,-0.2147947186624616,1.1120628090177302,-0.8418292194547519,0.05131,-0.25534,0.10446,14.4,-28.5,-11.34
66.7407,89032.769,-0.17641723209944896,1.2087282068257768,-0.9740571838815804,0.1014,-0.30665,0.09957,14.46,-28.44,-10.92
66.7601,89032.789,-0.12197438207570506,1.3480185707123649,-1.0602105072017594,0.07575,-0.15516,0.00916,15.06,-28.08,-11.1
66.7817,89032.809,-0.08575475616346384,1.4838878024105226,-1.063106877995029,-0.11423,0.02871,-0.08613,15.12,-28.08,-10.98
66.8027,89032.8298,-0.10378134122067754,1.569950974854135,-0.9662922519879373,-0.20403,0.02382,-0.1179,14.76,-28.26,-11.04
66.824,89032.85,-0.19303619912506248,1.5815869413024113,-0.7744123374629783,-0.16616,-0.10996,-0.11912,14.76,-28.2,-11.04
66.841,89032.87,-0.33954203154159884,1.526779043232996,-0.5113240151244209,-0.02016,-0.25595,-0.12645,14.82,-28.44,-10.92
66.8594,89032.89,-0.5064191274786857,1.4503535504105778,-0.21368865597884934,0.01038,-0.14478,-0.1295,15.06,-28.02,-11.28
66.8796,89032.91,-0.6606917251481447,1.39513919861764,0.08369790088068463,0.00977,0.11057,-0.05681,15.42,-27.9,-11.64
66.9085,89032.93,-0.7829661459800336,1.3800786426408558,0.35683928023666667,0.11851,0.13989,-0.00794,15.72,-27.96,-11.7
66.9221,89032.951,-0.8890268448355808,1.4521947120947074,0.5875199779426037,0.22052,0.12339,0.05253,15.66,-27.66,-12.24
66.9397,89032.971,-0.9664445605862572,1.5817499690003016,0.7835192645662072,0.29688,0.02016,0.06231,15.54,-27.9,-11.58
66.963,89032.991,-1.0123619181735382,1.7433266998457873,0.9619813191747859,0.32803,0.03238,0.01833,14.94,-27.66,-11.1
66.9797,89033.011,-1.0296775782225391,1.9406461094637486,1.1360520432514498,0.32193,0.0898,-0.02627,15.36,-27.9,-10.74
67.0049,89033.031,-1.0235053339718359,2.0567878343823445,1.3286204076464774,0.32742,0.10996,0.00244,15.66,-28.08,-10.02
67.0221,89033.051,-1.0180514615452732,2.0894383286286766,1.5200071515699545,0.34453,0.10873,0.03115,15.48,-28.44,-10.02
67.0497,89033.071,-1.0154748968777145,1.9376150287412643,1.6866013449980297,0.2584,0.09346,0.03054,15.72,-28.44,-9.66
67.0596,89033.091,-1.055825652367144,1.6614515591969559,1.759855072361331,0.07391,0.20159,-0.05131,15.54,-28.32,-9.3
67.0803,89033.111,-1.117024832053931,1.275073654827767,1.6943213205143977,-0.16677,0.20097,-0.19914,15.78,-28.92,-9.42
67.1075,89033.131,-1.2024101023714528,0.8625354785028533,1.460676176911317,-0.33842,-0.0733,-0.32009,15.96,-28.74,-9.24
67.1242,89033.151,-1.356956028604259,0.45188739027776925,1.0673249619851273,-0.15394,-0.01833,-0.37996,16.44,-28.74,-9.0
67.1428,89033.171,-1.5041895661264333,0.16162213832156747,0.5697863144900452,0.14111,0.16982,-0.30421,16.5,-28.2,-9.42
67.1638,89033.192,-1.6022521792168285,0.0401625730647315,0.06032308484049054,0.29566,0.32376,-0.06414,16.38,-27.3,-9.12
67.1881,89033.212,-1.6216713270601242,0.08021960152829853,-0.36253702530272847,0.21014,0.24862,0.17959,16.74,-27.24,-9.0
67.2058,89033.232,-1.5484597820784594,0.2432058841871803,-0.6328727126849607,0.12889,0.24618,0.32742,16.62,-27.06,-9.12
67.2206,89033.252,-1.3861698191696075,0.4209853572609344,-0.7431107339527383,0.11545,0.25045,0.34147,16.02,-27.24,-8.82
67.2427,89033.272,-1.1880075345639094,0.5358053383906972,-0.7483796109276728,0.04398,0.14539,0.26512,16.56,-27.72,-8.82
67.2626,89033.292,-0.9916277658680162,0.571267114052999,-0.7342867191894289,-0.05192,0.011,0.21197,16.74,-27.72,-8.34
67.2819,89033.3121,-0.8429945958484436,0.5519686713135386,-0.7857185879703952,-0.04032,0.00367,0.146,17.22,-28.14,-8.22
67.309,89033.332,-0.7672912130366344,0.5280510874354026,-0.9510783580594904,0.0843,0.09407,0.13256,18.06,-28.44,-8.04
67.3238,89033.353,-0.7487057803760943,0.5591302902800577,-1.2246910066132433,0.1014,0.18509,0.13744,17.52,-28.5,-8.34
67.3423,89033.373,-0.7707615874665097,0.661262605682853,-1.5522518178230769,0.05498,0.21991,0.17349,18.06,-28.44,-8.58
67.3625,89033.393,-0.8061282545026331,0.8278822001226006,-1.8524924665848808,0.12095,0.23518,0.19303,17.64,-28.26,-8.58
67.3833,89033.413,-0.8340776023374951,1.0331704996983022,-2.0463713334254674,0.14783,0.14966,0.18937,17.46,-28.26,-8.46
67.4058,89033.433,-0.8444461144591184,1.2469447656257224,-2.080325082034415,0.08369,-0.08674,0.2022,17.82,-28.32,-7.8
67.4286,89033.453,-0.8313927137318223,1.4484263775612036,-1.936637941346829,0.01588,-0.25168,0.23946,17.28,-28.5,-7.62
67.445,89033.473,-0.7813688515572301,1.621771835503603,-1.6294017758608224,-0.03421,-0.3091,0.23763,17.64,-28.56,-7.32
67.4666,89033.493,-0.7381944500283466,1.7508983464734802,-1.2001764774053,-0.07086,-0.13683,0.15944,17.58,-28.56,-7.5
67.4832,89033.513,-0.7140950789478376,1.81152068103381,-0.6949950916592069,-0.07941,0.011,0.04032,17.34,-28.74,-7.8
67.5024,89033.533,-0.7511207605645729,1.7897258229408577,-0.16511313880408274,-0.09285,-0.12401,0.0055,16.86,-28.5,-7.8
67.5222,89033.553,-0.8643653649025871,1.685757858461342,0.3408664838112223,-0.1295,-0.36774,0.00244,16.56,-28.5,-7.92
67.5426,89033.573,-1.0397553811145352,1.5363270136786282,0.7757195879398804,-0.1576,-0.36957,-0.06842,16.44,-28.44,-8.16
67.5643,89033.593,-1.240753120407608,1.4069558822814607,1.1010617885021041,-0.23946,-0.16677,-0.13806,16.02,-28.56,-7.92
67.5863,89033.613,-1.4337014424221248,1.3544231868600745,1.2972484175756556,-0.32681,-0.05864,-0.17226,16.08,-28.5,-8.4
67.6047,89033.633,-1.598404929467765,1.3908620651819357,1.370755716208043,-0.26512,-0.17043,-0.17959,15.96,-28.62,-9.12
67.6263,89033.654,-1.6962708991157378,1.5212920262494125,1.356091412799259,-0.12217,-0.29932,-0.10873,16.02,-28.86,-9.0
67.6433,89033.674,-1.6639450165638248,1.6952417038079126,1.317079379850611,0.02138,-0.29016,-0.01894,16.02,-28.08,-9.12
67.667,89033.694,-1.4687094705349197,1.853609943610935,1.311268285984264,0.05437,-0.08308,0.09041,16.26,-27.9,-9.0
67.6916,89033.7138,-1.1075630809186687,1.9545736995643181,1.3591760387577505,-0.25045,0.48075,0.11484,16.5,-27.72,-8.64
67.708,89033.7341,-0.6723246801360591,1.8785041601678982,1.4466214401310733,-0.64263,0.75503,0.12645,16.38,-27.54,-8.82
67.7235,89033.754,-0.26294253956403596,1.5920143386121839,1.5196130003604562,-0.85399,0.37874,0.02016,16.74,-28.2,-8.7
67.744,89033.774,0.022438422916462832,1.1448931000122824,1.5007993854206756,-0.73182,-0.46426,-0.30299,16.86,-28.8,-8.4
67.7639,89033.794,0.12806368364679718,0.5728512341471231,1.3239360233687911,-0.26939,-0.66523,-0.54245,16.74,-28.56,-8.82
67.7846,89033.814,0.07972226702928702,0.04555306273964614,0.9514001148061109,0.04765,-0.38485,-0.58154,16.5,-28.32,-9.48
67.804,89033.834,-0.06722155238459554,-0.2856745299876462,0.42510600205949167,0.24496,0.13744,-0.48686,16.38,-28.26,-10.44
67.8261,89033.854,-0.24308866341046184,-0.38192213925208474,-0.14887417419965487,0.1295,0.27367,-0.46181,16.56,-27.66,-11.1
67.8438,89033.874,-0.44732651489010505,-0.2890187139075836,-0.6577693520682946,0.02077,0.28833,-0.49969,16.74,-27.72,-11.52
67.8636,89033.894,-0.6053547611430246,-0.10797659714729418,-1.0274613352959747,0.11118,0.16066,-0.46487,17.4,-27.48,-10.74
67.8876,89033.915,-0.6925566516506109,0.0852539085513907,-1.2421844147235728,0.13561,-0.17593,-0.40561,17.88,-27.18,-10.32
67.9108,89033.9371,-0.7149405333834404,0.26234861352124683,-1.3384157420494223,0.09041,-0.3372,-0.31765,18.24,-27.06,-10.62
67.929,89033.957,-0.679929088855344,0.43726678027842986,-1.3779012712005212,0.12584,-0.36774,-0.28588,18.72,-27.18,-10.62
67.9572,89033.979,-0.6091904601415534,0.6158871554804763,-1.4163431761495282,0.18937,-0.27,-0.28527,18.84,-26.94,-11.16
67.9746,89033.999,-0.5479256498853028,0.8407282141470847,-1.483204540849247,0.12645,-0.06475,-0.26084,18.96,-26.58,-11.46
67.9895,89034.019,-0.53018543088809,1.0912515072517284,-1.5647012341319648,0.03299,0.17654,-0.26817,18.72,-26.58,-11.58
68.0093,89034.039,-0.5553223706432772,1.3336151912904208,-1.614877860145791,0.00244,0.15394,-0.28588,18.72,-25.8,-11.34
68.0279,89034.0588,-0.6320539982037002,1.532352618785663,-1.5827241130395606,0.0055,-0.12156,-0.25595,19.02,-25.86,-11.34
68.0505,89034.079,-0.7277071136885637,1.6623070438799645,-1.4332750445765257,0.00611,-0.39034,-0.14416,18.66,-25.68,-11.52
68.0766,89034.1,-0.8109534991664878,1.7187621236805035,-1.1645495384174964,-0.00183,-0.37935,-0.04032,19.14,-25.8,-10.98
68.0975,89034.12,-0.8453426895061998,1.711193800029315,-0.805190013196782,-0.03299,-0.22358,0.011,19.26,-26.28,-11.1
68.112,89034.141,-0.8233149716919886,1.6548441199720318,-0.4059142583395392,-0.06536,-0.15699,0.02566,18.78,-26.04,-11.1
68.1405,89034.1611,-0.7870765827073776,1.5812117821855944,-0.02766478076368628,-0.05986,-0.24129,0.05742,19.02,-25.56,-11.22
68.152,89034.181,-0.6972223242732659,1.4885792464200671,0.2929773569171985,-0.02627,-0.25962,0.08491,18.84,-24.96,-11.22
68.1718,89034.201,-0.5911875537944377,1.4069342077293536,0.5295550049397235,0.03971,-0.01038,0.04704,18.54,-24.84,-11.1
68.1927,89034.221,-0.46782489621965445,1.357134206399821,0.6852962293236331,0.13744,0.25045,0.05253,18.72,-25.26,-10.92
68.2179,89034.241,-0.35337883423427324,1.3548907721450345,0.7824589225911964,0.21686,0.23396,0.08919,18.48,-25.38,-10.8
68.2349,89034.261,-0.2730984848287722,1.4474409545698308,0.8482945710035317,0.2645,0.03054,0.11484,18.3,-25.8,-10.98
68.2533,89034.281,-0.23060925503200116,1.616379972851995,0.9145812453935989,0.40317,-0.25717,0.09774,18.48,-25.5,-11.1
68.2716,89034.301,-0.20798809635536838,1.8516031718356434,0.9980972267299197,0.53878,-0.19548,0.03115,18.6,-25.92,-10.86
68.2896,89034.321,-0.19091841557096764,2.106636248916767,1.101351625281426,0.49786,0.06597,-0.00122,18.84,-26.52,-10.26
68.3115,89034.341,-0.17724470194940875,2.2780210055780366,1.217180786929644,0.41478,0.23274,-0.07086,18.72,-26.46,-10.44
68.3347,89034.361,-0.18604025874534316,2.293007154994172,1.3162475425987523,0.33659,0.25595,-0.19487,18.54,-26.88,-10.08
68.3542,89034.381,-0.26950750128054174,2.116551311364369,1.3549230398755387,0.20159,0.26145,-0.26878,18.54,-26.46,-10.26
68.3814,89034.401,-0.4167045039588792,1.7565091963043105,1.2923898030684615,0.00244,0.11545,-0.3317,18.84,-26.28,-10.5
68.3943,89034.421,-0.7066589609409141,1.2686185062570798,1.0950860094776047,-0.29383,-0.2584,-0.42638,19.32,-26.28,-10.2
68.4124,89034.441,-1.0478807007904076,0.8086086509336858,0.7476917917357664,-0.42089,-0.32681,-0.50213,20.04,-25.86,-9.96
68.4366,89034.461,-1.372490478180295,0.48882679166974796,0.2796098842617116,-0.21014,0.11057,-0.59498,20.04,-25.62,-9.96
68.4494,89034.481,-1.7268796506137674,0.3542433641417747,-0.25180857070261453,0.03848,0.64507,-0.50946,20.1,-25.62,-9.96
68.4749,89034.501,-1.9081940373770725,0.39805635020723024,-0.7130218813843552,0.02016,0.91996,-0.31276,20.34,-25.68,-9.84
68.4894,89034.521,-2.0737952598975307,0.5446783291988369,-1.032121353820889,-0.22235,1.04702,-0.14172,19.8,-25.56,-9.9
68.5087,89034.541,-2.0998511546137255,0.6461805553109932,-1.1205608727700085,-0.35186,1.05496,-0.01649,20.52,-25.38,-9.36
68.5338,89034.561,-2.0161284047703454,0.6201882228757924,-0.9868849595341906,-0.3427,0.69272,0.04948,21.18,-24.9,-9.48
68.5553,89034.581,-1.8841300097109188,0.4255499365865112,-0.7067519910859072,-0.42211,0.02077,0.05009,21.6,-24.96,-9.42
68.575,89034.6011,-1.7254304696601621,0.11948618602332611,-0.3933835810401831,-0.48747,-0.33537,0.09652,22.68,-25.44,-9.24
68.5938,89034.621,-1.5525023217468708,-0.18613712734974014,-0.17390723576286504,-0.30788,-0.2474,0.13256,22.56,-25.62,-9.84
68.6104,89034.641,-1.3631950060341336,-0.36865412966384503,-0.1391210513972485,0.03726,0.00977,0.19548,22.32,-25.92,-9.3
68.6309,89034.6611,-1.1749333746889887,-0.34279117158073774,-0.3068692189359883,0.19548,0.29138,0.32681,22.2,-25.92,-9.9
68.6501,89034.681,-1.007226807003533,-0.08186876592288549,-0.6167836676816556,0.14172,0.33231,0.39156,21.96,-25.56,-10.14
68.6735,89034.701,-0.8860890207611831,0.3467467686633225,-0.9694907285835317,0.0617,0.07819,0.37568,22.2,-25.44,-9.84
68.6924,89034.721,-0.7945169414418308,0.8456312880198561,-1.265280852213122,0.04704,-0.04826,0.34575,21.9,-25.68,-10.02
68.7104,89034.741,-0.7327929532832118,1.3064418447476585,-1.4370665211377975,0.0843,-0.10018,0.32865,21.54,-25.62,-9.72
68.7381,89034.761,-0.7312297276172974,1.6534363716492317,-1.4578872837617602,0.14783,-0.13928,0.2645,21.42,-25.86,-9.78
68.7564,89034.782,-0.7567400282272764,1.883969263956822,-1.3361221402446262,0.11484,-0.04398,0.19303,20.7,-26.28,-10.14
68.7742,89034.802,-0.8376264277100363,1.9875229924838145,-1.0993370122740682,0.05559,0.1014,0.146,20.64,-25.8,-10.14
68.7949,89034.822,-0.9678283252162998,1.9751931475444258,-0.7791455352910095,0.0055,0.03604,0.09407,20.64,-25.74,-10.32
68.8124,89034.842,-1.115513227401131,1.8687310888928563,-0.4051955927016131,-0.12156,-0.08674,0.02321,20.16,-25.68,-10.08
68.8311,89034.862,-1.24299215372582,1.7119017013242133,-0.009723151547923692,-0.14783,-0.13195,-0.00672,20.16,-25.44,-10.2
68.8524,89034.882,-1.3165400727780108,1.5694166621424972,0.37109163640445786,-0.1014,-0.13073,-0.01161,20.04,-25.74,-10.5
68.8745,89034.902,-1.3244091522465726,1.5042742087355454,0.7012301279013364,-0.12462,-0.17471,0.01527,19.56,-25.86,-10.26
68.8911,89034.922,-1.2548877285757278,1.5419455220563034,0.9582150606590751,-0.15394,-0.3879,0.10446,19.62,-26.1,-10.44
68.911,89034.942,-1.144249262945267,1.6764272195597165,1.1321902555193333,-0.09591,-0.53634,0.18876,19.32,-26.4,-10.56
68.9308,89034.962,-0.9957140901600863,1.8307209832910658,1.2425099521498453,0.0452,-0.3543,0.19609,19.5,-26.7,-10.74
68.9523,89034.982,-0.841320132885476,1.906095060410103,1.3172927386531637,0.01466,-0.11179,0.09407,19.8,-26.88,-11.34
68.9719,89035.002,-0.7183971880109022,1.8083830006667037,1.3836719813422391,-0.20525,0.06781,-0.01527,20.22,-27.36,-12.0
68.9979,89035.022,-0.6632116165696254,1.5128524991025294,1.4544728023717521,-0.42272,0.03726,-0.15088,20.52,-27.06,-12.12
69.013,89035.042,-0.7352114399355214,0.9296616910087138,1.5387195426619975,-0.64507,-0.22174,-0.3708,20.46,-27.12,-12.18
69.0315,89035.063,-0.8999314093492922,0.2351633381929359,1.5909410872935883,-0.73487,-0.49297,-0.51313,20.4,-27.42,-11.94
69.0528,89035.083,-1.1097523864146581,-0.4332266481342623,1.5488936062603305,-0.54856,-0.54245,-0.49236,19.98,-26.58,-11.94
69.073,89035.103,-1.2805609309764219,-0.9453313655000911,1.3462719123291702,-0.14722,-0.25656,-0.36408,19.86,-26.52,-12.36
69.0927,89035.123,-1.3469429958191625,-1.1675330812801414,0.9585928617772748,0.15272,0.06597,-0.16921,19.86,-25.74,-12.9
69.1155,89035.143,-1.2966546838885846,-1.0593317003628533,0.4235702298037278,0.28405,0.19975,-0.00122,19.86,-25.38,-13.5
69.1324,89035.163,-1.1713710050300872,-0.6339662507844773,-0.17251966020820042,0.35369,0.06842,0.07575,20.1,-25.32,-13.74
69.1558,89035.183,-1.0060618230420808,-0.05639852441168834,-0.7378703965076774,0.45326,-0.07147,0.12584,20.7,-25.56,-13.32
69.1756,89035.203,-0.8131651841266141,0.5834453762762,-1.1953430837310925,0.45265,-0.26878,0.15638,20.4,-25.5,-13.2
69.1944,89035.223,-0.6174095273806218,1.170990851725976,-1.513722913148957,0.28772,-0.32193,0.15394,20.94,-25.68,-13.2
69.2123,89035.243,-0.44419907861595304,1.6477749963729083,-1.6971164659190165,0.18326,-0.22235,0.1405,20.94,-26.22,-13.2
69.2352,89035.263,-0.3254373177656371,1.9877518268752432,-1.7679981565953629,0.16371,-0.12523,0.12095,20.58,-26.28,-13.44
69.2604,89035.283,-0.264801640035712,2.2010956720977384,-1.7547917576410406,0.10934,-0.11057,0.12462,20.64,-26.88,-13.62
69.277,89035.303,-0.25503232973974443,2.3020981637691347,-1.6813442980772315,0.01466,-0.12401,0.05315,19.8,-26.7,-13.38
69.2943,89035.323,-0.3033105768083562,2.2955216385214197,-1.561794720147768,-0.0672,-0.10568,-0.04581,19.68,-26.88,-12.84
69.3159,89035.343,-0.40308271707535326,2.1982116523664503,-1.4072359841512831,-0.13317,-0.15455,-0.11118,19.68,-26.7,-12.24
69.3362,89035.363,-0.5434297186567555,2.0285257055311754,-1.2256764645995144,-0.14294,-0.26512,-0.15272,19.8,-26.88,-11.88
69.3553,89035.383,-0.7047845894256564,1.8216113480347984,-1.028234294445527,-0.18998,-0.2926,-0.18937,19.8,-26.82,-11.82
69.3756,89035.403,-0.8601103532030089,1.6256971086317986,-0.8285697397855873,-0.20097,-0.1741,-0.22969,19.74,-26.34,-12.42
69.3945,89035.4241,-0.9914169637521366,1.4775190459555447,-0.6388299334412473,-0.17959,-0.05925,-0.20097,19.5,-26.4,-13.02
69.4274,89035.444,-1.0753552521489942,1.4254510320191747,-0.4705775319037002,-0.13806,-0.06353,-0.13928,19.5,-25.62,-13.38
69.441,89035.464,-1.1315661666922336,1.441095544331844,-0.323436330844757,-0.04948,-0.11362,-0.06842,19.56,-25.38,-13.68
69.455,89035.484,-1.1423204465460166,1.5431889012391522,-0.19218798033239537,0.04276,-0.10324,0.00244,19.68,-25.38,-13.86
69.4755,89035.504,-1.1142325063775076,1.7088133975248214,-0.05927254584676511,0.09102,0.00305,0.06231,19.44,-25.32,-13.98
69.4929,89035.524,-1.055302628998442,1.9220287263158167,0.09695968013187795,0.10507,0.11606,0.04643,19.32,-25.56,-14.16
69.5137,89035.544,-0.9914640218231228,2.1461460152377505,0.29872060722126115,0.10507,0.15638,0.06231,19.02,-24.9,-14.46
69.5328,89035.5639,-0.9532050696814562,2.3453744528267193,0.5575262856501233,0.1014,0.05437,0.06842,18.96,-25.2,-14.16
69.5529,89035.584,-0.9633937676295173,2.4700785214792136,0.8677273339846465,0.15272,-0.18082,0.07147,18.9,-25.26,-14.1
69.5824,89035.604,-1.050168071002338,2.4638537691312203,1.1962655125460202,0.21136,-0.35125,0.06414,18.78,-25.38,-13.98
69.5994,89035.624,-1.132690674452841,2.3589879587749722,1.4753634796708255,0.20464,-0.34147,0.06048,19.2,-26.46,-13.8
