AppTimestamp(s),SensorTimestamp(s),gyro_x,gyro_y,gyro_z
0.0537,768.3754,0.34991,-0.60473,0.14544
0.058,768.3954,-0.15833,-0.95719,0.29449
0.0637,768.4154,-0.41123,-1.05371,0.23279
0.0685,768.4354,-0.4546,-0.90344,-0.07386
0.0801,768.4554,-0.47537,-1.02683,-0.2785
0.1044,768.4753,-0.36358,-1.70978,-0.1209
0.1415,768.4953,-0.23346,-2.40006,0.17904
0.1428,768.5153,-0.16321,-2.49169,0.57671
0.1617,768.5353,-0.41917,-1.94924,0.73798
0.1784,768.5553,-1.04225,-1.33166,0.50768
0.1972,768.5753,-1.67572,-0.9126,0.40628
0.2181,768.5953,-2.16502,-0.93826,0.73065
0.2431,768.6153,-1.19741,-1.65847,0.80456
0.2615,768.6353,1.07623,-0.63099,0.30426
0.2785,768.6553,1.7604,-0.08793,0.85465
0.301,768.6753,0.81173,0.19917,1.02631
0.318,768.6953,-0.70016,-0.79776,0.36779
0.3389,768.7153,-0.03799,-0.98224,0.07886
0.3597,768.7353,1.1532,-0.79715,-0.04515
0.3777,768.7553,1.09517,-0.11298,-0.15816
0.3992,768.7753,0.78241,0.13992,-0.60654
0.421,768.7953,0.92107,-0.7721,-1.89852
0.4372,768.8153,0.38656,-0.36466,0.42338
0.4593,768.8353,-0.55539,0.16313,0.67139
0.4788,768.8553,-1.06363,0.48567,1.24378
0.5012,768.8753,-0.71177,0.53576,1.01165
0.5299,768.8952,-0.30921,0.17657,0.11429
0.5456,768.9152,-0.42589,0.07883,0.10329
0.5585,768.9352,-0.3257,0.44108,0.13017
0.5778,768.9552,-0.18826,0.32684,0.10451
0.5996,768.9752,-0.24263,0.12831,-0.07508
0.6244,768.9952,-0.45948,-0.46117,-0.26017
0.6459,769.0152,-0.12717,-1.11052,-0.51124
0.6646,769.0352,0.3438,-1.71406,-0.20459
0.6957,769.0552,0.07869,-1.25346,-0.37135
0.7076,769.0752,-0.43444,-1.02622,-0.37929
0.7241,769.0952,-0.24751,-1.88571,-0.65846
0.7418,769.1152,0.94306,-3.13859,-1.01826
0.7623,769.1352,2.02246,-4.67859,-1.13799
0.7827,769.1552,2.57835,-6.15749,-1.29987
0.7983,769.1752,3.50442,-7.87524,-1.59308
0.8174,769.1952,4.17821,-8.87523,-1.36462
0.8448,769.2152,4.63819,-9.63942,-0.54667
0.8578,769.2352,5.4091,-10.8074,0.52357
0.8831,769.2552,6.15497,-10.99371,1.47713
0.9075,769.2752,6.34006,-9.33094,2.68664
0.9208,769.2952,6.02424,-5.87955,3.62432
0.9439,769.3151,5.91245,-2.45015,4.38057
0.9616,769.3351,6.3932,-0.72018,4.82345
0.9776,769.3551,7.11769,-1.02011,4.71838
0.9982,769.3751,7.67785,-1.82523,3.75932
1.0201,769.3951,7.78475,-1.9584,2.75567
1.0479,769.4151,7.8208,-1.35853,2.00614
1.0636,769.4351,7.65342,-0.81975,1.24561
1.08,769.4551,7.14884,-0.86373,0.0477
1.1033,769.4751,6.7078,-1.13923,-1.50878
1.1208,769.4951,6.23377,-1.13373,-3.04877
1.1473,769.5151,5.22278,-0.07205,-3.81602
1.159,769.5351,4.3468,1.06599,-4.32182
1.2076,769.5551,4.44821,1.88333,-4.98827
1.2092,769.5751,4.78418,2.14356,-5.48918
1.2163,769.5951,4.93934,2.28833,-6.1538
1.2372,769.6151,4.8526,2.51863,-7.12874
1.2577,769.6351,4.60276,2.73365,-8.01755
1.2762,769.6551,4.17637,3.05802,-8.6107
1.301,769.6751,3.77259,3.40561,-8.96073
1.3193,769.6951,3.40913,3.38972,-9.31381
1.3375,769.715,2.66448,3.64506,-9.21179
1.3594,769.735,1.79827,4.20523,-8.72127
1.3796,769.755,1.27537,4.28831,-8.32115
1.3979,769.775,0.74514,3.9114,-8.07497
1.4178,769.795,-0.18704,3.67561,-7.70784
1.4384,769.815,-1.2139,3.21929,-7.43601
1.4609,769.835,-1.76307,2.50091,-7.34927
1.4823,769.855,-2.37394,2.08736,-7.02551
1.5204,769.875,-3.29329,1.68968,-6.62722
1.5264,769.895,-3.68546,0.5437,-6.45862
1.5392,769.915,-3.6763,-0.9633,-6.73535
1.5647,769.935,-4.42278,-2.08913,-7.08843
1.5793,769.955,-5.31525,-2.26689,-7.23992
1.5976,769.975,-5.62679,-2.47336,-7.09515
1.6191,769.995,-4.36719,-2.60959,-6.26254
1.6487,770.015,-3.30795,-3.21129,-5.77201
1.6727,770.035,-2.7991,-3.5552,-5.62235
1.6826,770.055,-2.92555,-3.49351,-5.15992
1.7267,770.075,-3.0019,-4.30474,-4.82639
1.7303,770.095,-2.91272,-5.16056,-5.26744
1.7474,770.115,-2.65554,-4.72318,-6.14892
1.7636,770.135,-2.02147,-3.92539,-6.6034
1.779,770.155,-0.62442,-3.65233,-6.51605
1.7991,770.1751,0.44704,-3.27176,-6.69503
1.8203,770.1951,1.0744,-3.46541,-7.04689
1.8442,770.2151,1.27537,-4.17096,-7.86728
1.8653,770.2352,2.03346,-4.6963,-8.84711
1.8794,770.2552,3.06521,-4.68714,-8.99127
1.8981,770.2752,3.39019,-4.02191,-8.4757
1.92,770.2952,2.74512,-2.74031,-7.46716
1.9436,770.3153,2.43785,-2.78002,-6.67793
1.9617,770.3353,2.83369,-3.45991,-6.24055
1.9863,770.3553,3.16845,-3.36095,-5.54782
2.0041,770.3754,3.66386,-2.89303,-4.53684
2.0211,770.3954,4.49891,-2.12761,-3.21921
2.0402,770.4154,4.74326,-0.39642,-1.90218
2.0758,770.4354,4.93201,0.77888,-0.46054
2.0823,770.4555,6.28508,0.47651,0.44965
2.0997,770.4755,8.2258,-0.27364,1.08739
2.1172,770.4955,9.36751,-0.88389,1.65794
2.1392,770.5156,9.01015,-0.23332,2.26453
2.1605,770.5356,8.10424,0.98597,2.82225
2.1786,770.5556,7.91853,0.92122,2.96092
2.1985,770.5756,8.3272,0.54004,2.33112
2.2221,770.5957,8.55628,-0.32067,1.5376
2.2408,770.6157,8.3156,-0.73667,1.15276
2.2586,770.6357,7.93014,-0.57052,0.65551
2.2832,770.6558,7.54957,0.0599,-0.25895
2.3005,770.6758,6.57524,1.51986,-1.5491
2.3222,770.6958,5.51905,2.71411,-2.78488
2.3542,770.7158,5.09511,2.93585,-3.8765
2.3864,770.7358,5.23256,2.72021,-5.16115
2.3936,770.7558,5.56609,3.24739,-6.65593
2.4088,770.7758,5.40238,4.41781,-8.32971
2.4187,770.7958,5.00593,5.57234,-9.74447
2.4424,770.8158,4.39201,6.26934,-10.40115
2.462,770.8358,3.72128,6.5595,-10.43047
2.4794,770.8558,2.84896,6.31393,-10.08411
2.5002,770.8758,1.77812,5.78492,-9.42743
2.5268,770.8958,0.46231,5.1368,-8.55511
2.5406,770.9158,-0.6574,4.45141,-7.45128
2.5699,770.9357,-1.58836,3.63529,-6.83309
2.6042,770.9557,-1.71603,1.97435,-6.62539
2.6082,770.9757,-1.43748,0.4258,-6.25765
2.6224,770.9957,-1.8883,0.47895,-5.33769
2.6437,771.0157,-1.89868,0.69336,-3.8991
2.6687,771.0357,-1.28843,0.5101,-3.0726
2.6804,771.0557,-1.11983,0.17657,-2.93882
2.7032,771.0757,-1.16687,-0.10992,-2.55642
2.7241,771.0958,-0.75209,-0.17529,-1.54238
2.7416,771.1158,-0.44482,-0.193,-0.78857
2.7631,771.1358,-0.6122,-0.30601,-0.90891
2.7771,771.1559,-0.82784,-0.48133,-1.32736
2.7998,771.1759,-0.75636,-0.73301,-1.19969
2.8204,771.1959,-0.41306,-0.84968,-0.76353
2.8381,771.2159,-0.36724,-0.78004,-0.60348
2.8628,771.236,-0.40512,-0.52104,-0.88509
2.8825,771.256,-0.5053,-0.20217,-1.0488
2.9004,771.276,-0.56272,-0.30357,-1.0543
2.9178,771.2961,-0.39901,-0.31273,-0.89425
2.941,771.3161,-0.30188,-0.15452,-0.75803
2.9599,771.3361,-0.29638,0.12831,-0.70916
2.9794,771.3561,-0.34647,0.19978,-0.6493
3.0104,771.3762,-0.34647,0.06417,-0.57049
3.0256,771.3962,-0.39656,-0.03662,-0.53262
3.0427,771.4162,-0.2976,0.08189,-0.47703
3.0664,771.4363,-0.28783,0.19245,-0.46543
3.0801,771.4563,-0.40512,0.27003,-0.47215
3.1005,771.4763,-0.56639,0.32623,-0.50819
3.127,771.4963,-0.78691,0.34945,-0.61448
3.1576,771.5164,-1.15098,0.42336,-0.84844
3.1756,771.5364,-1.60363,0.33173,-1.16548
3.1842,771.5564,-2.01047,-0.16674,-1.55582
3.1996,771.5765,-2.30796,-1.01706,-2.12331
3.2452,771.5965,-2.32201,-2.27666,-2.84658
3.2473,771.6165,-2.13814,-4.01396,-3.62299
3.2582,771.6365,-2.21206,-6.04204,-4.29494
3.2779,771.6566,-2.8608,-9.22831,-5.6419
3.3028,771.6766,-3.83818,-8.77932,-6.87157
3.3191,771.6966,-4.96706,-6.62297,-8.65469
3.3397,771.7166,-1.93045,-4.66026,-8.50258
3.3611,771.7366,1.08295,-4.17462,-8.27045
3.3819,771.7565,2.37371,-4.24731,-7.9473
3.4088,771.7765,2.54658,-4.02252,-7.13119
3.4264,771.7965,2.27536,-3.05063,-6.05484
3.4387,771.8165,2.32484,-2.34936,-5.05363
3.4593,771.8365,3.1489,-2.65784,-4.8435
3.4807,771.8565,3.42379,-2.42999,-4.73537
3.4999,771.8765,3.09942,-1.95229,-4.33037
3.5188,771.8965,3.04749,-1.89732,-3.44645
3.54,771.9165,4.4983,-2.15938,-2.23877
3.5579,771.9365,6.09877,-2.53017,-1.06774
3.5785,771.9565,7.26491,-3.82643,-0.15694
3.6047,771.9765,7.22093,-4.93209,0.95545
3.6228,771.9965,6.22216,-4.01396,2.12037
3.6691,772.0165,6.65649,-2.10501,3.07515
3.6891,772.0365,7.2081,-1.04821,4.01099
3.6941,772.0565,7.6583,-1.1264,4.24435
3.7061,772.0765,8.21969,-1.34143,3.89615
3.7237,772.0965,8.66257,-1.70367,3.18694
3.7392,772.1165,8.7206,-1.47154,2.63655
3.76,772.1365,8.74992,-1.21437,1.93772
3.7836,772.1564,8.62164,-0.92054,0.89986
3.7974,772.1764,7.62226,-0.79837,0.17965
3.818,772.1964,6.50988,-0.7269,-0.66029
3.8394,772.2164,6.20811,-0.35427,-1.60286
3.8621,772.2364,6.05784,0.493,-2.54725
3.8804,772.2564,6.17451,1.18572,-3.36032
3.8998,772.2764,6.32967,1.52109,-4.23752
3.9198,772.2964,6.31562,1.91998,-5.16237
3.9395,772.3164,6.17635,2.34087,-5.95344
3.9598,772.3364,6.07616,2.77458,-6.63211
3.9808,772.3564,5.91612,3.29626,-7.08965
3.9988,772.3764,5.66811,3.80389,-7.43906
4.0214,772.3964,5.39444,4.00731,-7.91248
4.0394,772.4164,4.65102,4.2486,-8.39385
4.0619,772.4364,3.60705,4.95354,-8.72066
4.0838,772.4564,2.51238,5.64992,-8.72249
4.103,772.4764,1.75979,5.66153,-8.52457
4.1224,772.4964,1.06707,4.74768,-7.92226
4.1435,772.5164,0.01516,3.34635,-7.97235
4.1749,772.5364,-1.19802,1.69274,-8.12568
4.186,772.5564,-2.54314,0.96703,-8.01328
4.2042,772.5763,-3.06605,0.81431,-7.84895
4.2197,772.5963,-2.49366,0.25843,-7.95769
4.2388,772.6163,-2.85346,-0.55586,-8.54351
4.2624,772.6363,-4.02022,-1.40862,-8.91675
4.2815,772.6563,-4.85955,-2.56927,-8.94301
4.3031,772.6763,-4.63902,-3.9541,-9.09145
4.3245,772.6963,-3.97257,-5.10925,-8.43233
4.3429,772.7163,-4.43438,-6.71216,-7.58384
4.3656,772.7363,-5.14543,-6.13306,-7.02978
4.3884,772.7563,-4.70194,-3.98648,-6.82637
4.4082,772.7763,-2.02269,-2.03293,-5.98582
4.4236,772.7963,-0.48086,-1.11235,-5.80011
4.4401,772.8163,0.45315,-1.4184,-6.47267
4.4615,772.8363,0.81906,-1.96573,-7.07071
4.4818,772.8563,1.16847,-1.7617,-6.89234
4.5027,772.8763,1.74818,-1.13679,-6.75917
4.5202,772.8963,2.74695,-1.46605,-7.67364
4.5389,772.9163,3.88377,-1.77575,-8.9424
4.5592,772.9363,4.77197,-1.6267,-9.23684
4.5779,772.9563,4.72004,-1.1264,-8.5936
4.6006,772.9763,4.01144,-0.744,-7.60278
4.6209,772.9962,3.39508,-0.53448,-6.72252
4.6436,773.0162,2.92593,0.02263,-5.76529
4.6598,773.0362,2.95403,0.50277,-4.96384
4.6877,773.0562,3.2894,0.45635,-4.34503
4.7044,773.0762,4.16354,-0.05495,-3.50692
4.7216,773.0962,5.24783,-1.10197,-2.98586
4.7411,773.1162,6.30402,-1.54301,-2.39637
4.7586,773.1362,6.74934,-0.10809,-1.18319
4.7794,773.1562,6.73834,2.32804,0.57671
4.7997,773.1762,7.70351,1.51131,2.66892
4.8188,773.1962,8.1586,-1.41046,4.54489
4.8403,773.2162,7.59539,-1.69023,5.56259
4.87,773.2362,7.84951,-0.05556,5.55709
4.8833,773.2562,8.95395,0.71047,5.0232
4.9036,773.2762,9.13232,0.36411,4.35613
4.9196,773.2962,8.83117,-0.77821,3.37692
4.9437,773.3162,8.38707,-2.14472,2.32317
4.9589,773.3362,7.58989,-2.32065,1.48751
4.9911,773.3562,6.78477,-1.2669,0.45759
4.998,773.3762,6.50805,-0.48805,-0.84783
5.0186,773.3962,6.8935,0.19306,-1.7794
5.0401,773.4161,6.64549,1.46611,-2.26565
5.0632,773.4361,6.33273,1.97007,-2.70974
5.085,773.4561,6.28691,1.44961,-3.00235
5.1028,773.4761,6.06089,1.13929,-3.46355
5.1245,773.4961,5.8196,1.36654,-4.21308
5.1478,773.5161,5.89596,2.16799,-5.19902
5.1628,773.5361,6.20017,3.35124,-6.2888
5.2133,773.5561,6.30524,3.89246,-7.18494
5.2159,773.5761,5.90879,4.63711,-8.03649
5.2211,773.5961,5.11405,5.43673,-8.6614
5.2376,773.6161,4.31504,5.57112,-8.93629
5.2591,773.6361,3.58872,4.86924,-9.11161
5.2787,773.6561,2.49283,4.17041,-9.06091
5.3013,773.6761,0.90885,3.23762,-8.39751
5.3195,773.6961,-0.2469,1.68541,-7.90149
5.3418,773.7161,-0.68306,-0.00669,-8.01083
5.3603,773.7361,-0.82967,0.39587,-7.93203
5.3813,773.7561,-1.42771,1.96457,-7.68219
5.4033,773.7761,-1.80583,3.17592,-7.54719
5.425,773.7961,-1.99276,2.69211,-7.62843
5.4483,773.816,-2.31163,1.14113,-7.65531
5.4717,773.836,-3.00618,-0.06472,-7.78481
5.4798,773.856,-3.83818,0.1051,-7.9864
5.4985,773.876,-4.36719,-0.59984,-7.47022
5.5224,773.896,-3.9292,-2.19542,-6.69259
5.5391,773.916,-3.53947,-2.93701,-6.42014
5.558,773.936,-3.4906,-3.73907,-5.6474
5.5803,773.956,-3.38308,-4.747,-4.81845
5.5989,773.976,-2.85224,-3.93638,-4.74698
5.619,773.996,-0.94329,-3.27421,-5.15015
5.6377,774.016,1.55026,-4.30901,-5.68649
5.6594,774.036,3.08781,-4.75128,-6.10432
5.6783,774.056,3.01634,-4.14102,-6.65899
5.7063,774.076,2.72312,-3.31758,-7.10125
5.7278,774.096,2.8117,-3.07262,-7.33705
5.7471,774.116,2.93387,-3.6615,-7.73655
5.76,774.136,3.21426,-3.86736,-8.3126
5.7793,774.156,3.54962,-3.22778,-8.8972
5.7976,774.176,3.83307,-2.97672,-8.63025
5.8204,774.196,3.62293,-3.0262,-8.1104
5.839,774.2159,3.03467,-2.75008,-7.59544
5.8588,774.2359,2.81537,-1.97734,-6.93999
5.8794,774.2559,2.58873,-1.47093,-6.31079
5.898,774.2759,2.40364,-1.19726,-5.7543
5.9183,774.2959,2.64554,-1.04516,-5.05241
5.9443,774.3159,2.46656,-0.75439,-4.5515
5.9631,774.3359,2.0414,-0.38787,-3.87222
5.9895,774.3559,1.6425,-0.14535,-3.22837
6.0123,774.3759,1.92595,0.53515,-2.39454
6.023,774.3959,3.05299,1.58889,-1.59003
6.041,774.4159,4.57771,1.77337,-0.69878
6.0623,774.4359,5.68277,1.95602,0.57732
6.0785,774.4559,6.52026,3.07207,1.95666
6.0984,774.4759,7.60088,4.06656,3.2914
6.1213,774.4959,8.88614,2.69395,4.45876
6.1394,774.5159,9.39072,1.13685,5.62246
6.1648,774.5359,9.39988,1.47222,5.22906
6.1816,774.5559,9.15187,1.61882,3.97984
6.2004,774.5759,9.03703,1.78681,3.01223
6.2189,774.5959,8.72976,1.87355,1.63656
6.2425,774.6158,7.20321,2.53146,-0.06592
6.2588,774.6358,5.17392,3.50518,-0.43427
6.2793,774.6558,3.81779,3.61696,-0.20398
6.3029,774.6758,3.76709,2.62431,-0.17526
6.32,774.6958,4.44088,1.75749,-0.12334
6.3419,774.7158,5.14582,1.5895,-0.2895
6.3611,774.7358,5.58258,1.99451,-0.81056
6.3786,774.7558,5.48118,2.72082,-1.56437
6.3992,774.7758,5.14215,3.36712,-2.26748
6.4241,774.7958,5.01692,3.46119,-2.92782
6.4424,774.8158,4.99127,3.1521,-3.72195
6.4624,774.8358,4.80495,2.96212,-4.19476
6.4836,774.8558,4.65346,2.91997,-4.67551
6.511,774.8758,4.30588,3.02015,-5.50567
6.527,774.8958,4.01205,3.21379,-6.76467
6.5444,774.9158,3.57162,3.24189,-7.8911
6.5637,774.9358,3.21731,3.32619,-8.44149
6.5807,774.9558,2.94426,3.63224,-8.35597
6.599,774.9758,2.5979,3.87108,-7.97479
6.6196,774.9958,2.14647,3.44653,-7.29062
6.6378,775.0158,1.43237,2.58888,-6.77444
6.6655,775.0357,0.61808,1.43556,-6.55697
6.6776,775.0557,-0.1345,1.31828,-6.44457
6.698,775.0757,-0.19987,1.51925,-6.40304
6.7302,775.0957,-0.20231,1.84362,-6.53193
6.7419,775.1157,-0.66229,2.16494,-6.87096
6.7616,775.1357,-1.37395,1.75871,-7.05116
6.7795,775.1557,-1.97504,0.82226,-7.23076
6.7974,775.1757,-2.50161,-0.08977,-7.55391
6.8185,775.1957,-3.24136,-0.16368,-7.71029
6.84,775.2157,-3.74044,-0.72934,-7.30467
6.858,775.2357,-3.74838,-1.78492,-6.79155
6.8781,775.2557,-3.6256,-2.07263,-6.43358
6.9007,775.2757,-3.00801,-2.80567,-5.79339
6.9187,775.2957,-2.39287,-4.10376,-5.18864
6.94,775.3157,-3.21265,-4.94981,-4.79463
6.9608,775.3357,-4.15644,-5.38108,-4.56433
6.9782,775.3557,-4.35986,-4.86612,-5.01515
7.0019,775.3757,-3.77282,-3.52833,-5.95466
7.021,775.3957,-1.67694,-2.47153,-5.93695
7.0411,775.4157,0.76041,-0.98591,-5.69443
7.0607,775.4356,1.18252,-0.61816,-6.2546
7.0847,775.4556,1.42076,-1.18749,-6.81537
7.1019,775.4756,1.39632,-1.48926,-7.03956
7.1168,775.4956,1.59547,-1.07448,-6.76955
7.1399,775.5156,1.86791,-0.94742,-6.72496
7.2018,775.5356,2.20328,-1.52102,-7.07926
7.2038,775.5556,2.58568,-1.94557,-7.63271
7.2059,775.5756,2.99129,-1.75804,-7.87828
7.2174,775.5956,3.21059,-1.22903,-7.60705
7.2369,775.6156,3.04077,-0.86984,-6.9015
7.2587,775.6356,2.49222,-0.95353,-6.52826
7.2802,775.6556,2.69075,-1.53629,-6.73657
7.2998,775.6756,3.27901,-1.78614,-6.79704
7.3189,775.6956,3.83612,-1.6322,-6.36394
7.3369,775.7156,4.23379,-1.40679,-5.39755
7.3591,775.7356,4.38651,-1.12702,-4.52585
7.3824,775.7556,4.37735,-1.40801,-3.92292
7.4007,775.7756,4.85443,-1.59188,-2.86735
7.4195,775.7956,5.2069,-0.99385,-1.83987
7.4416,775.8157,5.36389,0.41542,-0.98527
7.4607,775.8357,5.57525,1.32805,-0.41595
7.4816,775.8557,6.29485,1.95908,0.32381
7.5032,775.8757,7.54957,1.88455,1.13382
7.5211,775.8958,8.80245,0.43924,2.16679
7.5467,775.9158,9.13599,0.24377,2.91449
7.5646,775.9358,9.16959,1.22237,2.91755
7.5789,775.9559,8.99182,2.06781,2.70069
7.6002,775.9759,8.85621,2.47404,2.17168
7.6209,775.9959,9.14271,2.42028,2.14602
7.6419,776.0159,9.51472,1.57179,1.73613
7.6588,776.036,9.98326,0.58096,0.82839
7.681,776.056,9.89651,1.05072,-0.25407
7.7135,776.076,8.58743,2.47648,-1.48985
7.7256,776.0961,6.22644,3.73425,-2.5778
7.7444,776.1161,5.15926,3.64751,-2.82031
7.759,776.1361,4.84466,3.03725,-2.78122
7.7782,776.1561,5.27593,2.25412,-2.79588
7.8013,776.1762,5.73041,2.18265,-2.87712
7.818,776.1962,5.84098,2.36897,-3.07749
7.84,776.2162,5.65467,2.51863,-3.56679
7.8632,776.2363,5.22278,2.72877,-4.20453
7.8859,776.2563,4.7793,2.85216,-4.70178
7.8995,776.2764,4.45493,2.73426,-5.03531
7.9205,776.2965,4.18065,2.57972,-5.36395
7.94,776.3165,3.71883,2.50641,-5.78728
7.9613,776.3366,3.4641,2.69334,-6.04507
7.9905,776.3567,3.48854,2.5284,-6.37127
8.0074,776.3767,3.32849,1.89249,-6.89845
8.0198,776.3967,2.88745,1.2352,-7.52764
8.0409,776.4167,1.96199,1.18328,-7.83674
8.0611,776.4368,0.88625,1.88455,-7.51725
8.0844,776.4568,0.52218,1.34455,-7.33766
8.1009,776.4768,0.7708,0.58219,-7.47938
8.1231,776.4969,-0.005,0.7178,-8.28206
8.1428,776.5169,-1.36112,1.5779,-9.09878
8.1698,776.5369,-2.58713,1.41296,-9.66811
8.181,776.5569,-3.35804,0.58768,-10.15008
8.1998,776.577,-4.18087,0.05073,-10.38649
8.2218,776.597,-4.75814,0.12831,-9.91062
8.2425,776.617,-4.72882,0.00553,-8.5991
8.2637,776.6371,-4.40445,-1.27484,-7.24236
8.2906,776.6571,-4.16805,-2.39823,-6.30957
8.3039,776.6771,-3.88155,-2.8802,-5.97299
8.324,776.6971,-3.51748,-3.92417,-5.42932
8.3415,776.7172,-3.08987,-4.29252,-4.75675
8.36,776.7372,-2.57369,-3.86614,-4.69261
8.3826,776.7572,-1.91884,-3.92172,-4.93146
8.4028,776.7773,-0.12656,-3.95654,-5.09762
8.4207,776.7973,1.1361,-3.1612,-5.45375
8.4409,776.8173,1.73413,-2.59492,-5.99314
8.4616,776.8373,2.10493,-2.52284,-6.56308
8.4808,776.8573,2.81598,-3.02375,-7.01634
8.5007,776.8773,3.84956,-3.30719,-7.78359
8.5221,776.8973,4.72004,-3.02375,-8.49647
8.5464,776.9173,5.0212,-2.79284,-8.92591
8.5708,776.9373,4.95339,-2.67434,-8.86421
8.5904,776.9573,5.06763,-2.83927,-8.62597
8.6057,776.9773,5.13971,-3.3359,-7.61255
8.6202,776.9973,5.16536,-4.05367,-6.491
8.6467,777.0173,5.05846,-4.02924,-5.89357
8.6831,777.0373,4.17698,-3.38599,-5.25155
8.6882,777.0573,3.73716,-2.10196,-4.0732
8.7044,777.0772,4.819,-1.28889,-2.6175
8.721,777.0972,7.01567,-1.30783,-1.20763
8.7505,777.1172,8.38585,-1.0757,0.16987
8.7625,777.1372,8.53429,-0.37321,2.3134
8.7822,777.1572,8.94845,0.69825,3.97556
8.7988,777.1772,8.99915,1.68785,4.75869
8.8202,777.1972,9.57276,1.28957,4.62614
8.8408,777.2172,10.07367,0.19734,3.90898
8.8591,777.2372,10.28686,-0.49599,2.77277
8.8894,777.2572,9.61185,-1.03111,1.13993
8.8989,777.2772,8.00161,-0.67375,-0.3402
8.9266,777.2972,6.4885,0.12159,-1.19174
8.9441,777.3172,5.96438,0.40992,-1.95044
8.9586,777.3372,6.18978,0.70314,-2.42814
8.9788,777.3572,6.07128,1.12341,-2.62422
9.0008,777.3772,5.73469,1.15029,-2.8026
9.0191,777.3972,5.4653,1.20588,-3.23203
9.0409,777.4172,4.4702,1.4826,-3.79647
9.0626,777.4372,3.58383,1.4209,-4.1575
9.0793,777.4572,3.06643,1.04522,-4.48186
9.1018,777.4771,2.61011,0.81615,-4.52035
9.1242,777.4971,2.2326,0.80149,-4.41039
9.1391,777.5171,1.98276,0.68664,-4.29494
9.1593,777.5371,1.71153,0.43252,-4.37557
9.21,777.5571,1.46108,0.22727,-4.60221
9.2127,777.5771,1.14465,0.35494,-5.09151
9.2222,777.5971,0.83555,0.84669,-5.66694
9.2404,777.6171,0.62908,1.42946,-6.27414
9.2582,777.6371,0.29127,2.66768,-6.78238
9.2783,777.6571,-0.0722,4.07633,-7.08171
9.3026,777.6771,-0.49797,5.41902,-7.1996
9.3182,777.6971,-1.0056,6.11113,-7.03834
9.3396,777.7171,-1.34951,6.08364,-6.88684
9.3652,777.7371,-1.83882,6.38602,-6.82148
9.3796,777.7571,-2.60362,6.70672,-6.94121
9.4022,777.7771,-3.80153,6.1435,-6.70725
9.4238,777.7971,-4.61276,4.07206,-6.46962
9.4408,777.8171,-4.41423,1.4264,-6.26681
9.4665,777.8371,-3.97318,-0.35488,-6.15197
9.4888,777.8571,-4.01044,-1.07082,-5.82332
9.5025,777.8771,-4.02144,-2.13983,-5.0683
9.5207,777.897,-4.07947,-3.3921,-4.568
9.541,777.917,-4.61459,-4.11659,-4.32182
9.5604,777.937,-5.05563,-3.93028,-3.96568
9.5844,777.957,-4.60298,-3.21312,-3.58695
9.6056,777.977,-3.45883,-2.7849,-3.63154
9.6279,777.997,-1.82721,-2.27911,-3.53197
9.6456,778.017,-1.11433,-1.36525,-3.77082
9.6715,778.037,-0.9439,-1.21559,-4.13489
9.6791,778.057,-0.97811,-1.72261,-4.27722
9.6977,778.077,-0.53279,-2.24184,-4.47392
9.73,778.097,0.4165,-2.98893,-5.09151
9.7525,778.117,1.23994,-3.37378,-6.1257
9.7597,778.137,2.0921,-4.2687,-7.28696
9.7836,778.1571,3.70662,-5.5564,-8.76403
9.8006,778.1771,5.6394,-5.8655,-9.46225
9.8193,778.1971,7.06149,-5.48004,-8.59421
9.8415,778.2171,6.65771,-6.46292,-7.39142
9.8595,778.2372,5.96132,-6.80623,-6.47756
9.8822,778.2572,5.74202,-6.49835,-5.39389
9.9051,778.2772,6.09632,-5.67857,-3.61627
9.9222,778.2973,6.38709,-4.45562,-2.03474
9.9428,778.3173,6.20994,-2.98527,-0.58577
9.9627,778.3373,6.37488,-1.11968,0.97622
9.9851,778.3573,6.07433,-0.36527,2.08982
10.0087,778.3774,6.9216,0.0037,2.56386
10.0322,778.3974,8.20014,0.21933,2.87723
10.0573,778.4174,7.98939,0.70314,2.84363
10.0622,778.4375,6.80309,1.08737,2.56263
10.0858,778.4575,6.35472,1.11547,2.01591
10.1014,778.4775,5.37245,1.06233,0.66101
10.1203,778.4975,4.72921,1.12402,-0.65846
10.1451,778.5176,4.9595,1.29751,-1.58758
10.1645,778.5376,5.62473,0.9768,-2.35972
10.1852,778.5576,6.49277,0.49911,-3.35726
10.2044,778.5777,6.67298,1.68846,-3.75982
10.22,778.5977,4.96439,4.65482,-3.86978
10.2414,778.6177,3.91187,5.66581,-4.55822
10.2646,778.6377,4.56488,4.79593,-5.39389
10.2797,778.6578,4.93262,4.25898,-5.98215
10.3001,778.6778,4.54289,4.75256,-6.05179
10.3205,778.6978,4.25945,5.00974,-6.11349
10.3467,778.7178,4.11406,4.99996,-6.58019
10.3648,778.7378,3.76404,5.20827,-7.02367
10.3862,778.7578,2.95464,5.59006,-6.87585
10.4089,778.7778,2.28452,5.4349,-6.38654
10.4268,778.7978,1.82943,4.80388,-6.1422
10.4428,778.8178,1.17275,4.2822,-6.18862
10.4608,778.8378,0.15627,3.88636,-6.39754
10.4808,778.8578,-0.71421,3.124,-6.74634
10.5056,778.8778,-1.46008,2.21381,-7.30773
10.5263,778.8978,-2.51382,1.32683,-7.93875
10.5479,778.9178,-3.47349,0.96031,-8.13239
10.5703,778.9378,-3.94936,0.76239,-8.07436
10.5801,778.9578,-4.26823,0.0489,-8.04077
10.601,778.9778,-4.29511,-1.51614,-7.728
10.6313,778.9978,-4.2102,-2.42999,-7.03223
10.6522,779.0178,-4.13567,-2.74764,-6.54537
10.6723,779.0378,-3.64331,-3.46846,-6.21489
10.6815,779.0578,-3.592,-4.67064,-5.63029
10.7047,779.0778,-4.11979,-4.95897,-5.06463
10.7184,779.0978,-4.54495,-4.16851,-5.17703
10.7431,779.1178,-4.25968,-3.41287,-5.71276
10.7701,779.1377,-2.65432,-2.83438,-5.524
10.7845,779.1577,-0.81317,-1.49964,-5.02798
10.8007,779.1777,0.21613,-0.12886,-5.15504
10.8198,779.1977,0.85632,-0.12275,-5.73841
10.8413,779.2177,1.80011,-1.44405,-6.65838
10.8678,779.2377,2.77932,-2.65357,-7.88316
10.8806,779.2577,3.80985,-3.17586,-9.21363
10.904,779.2777,4.69255,-3.25222,-10.06212
10.9252,779.2977,5.29975,-3.07629,-9.96805
10.9454,779.3177,4.57099,-2.59309,-8.94118
10.9599,779.3377,3.84101,-2.40739,-8.14461
10.981,779.3577,3.24664,-2.41105,-7.13119
11.0007,779.3777,2.58873,-2.08913,-6.19534
11.0342,779.3977,1.96932,-1.59127,-5.35968
11.0448,779.4177,1.52216,-0.87595,-4.8887
11.0644,779.4377,1.38227,-0.83991,-4.827
11.0825,779.4577,1.64189,-0.71957,-4.61992
11.104,779.4777,1.94671,-0.43674,-4.1013
11.1325,779.4977,2.50138,-0.11481,-3.50876
11.1479,779.5177,3.19044,0.58952,-2.59124
11.1648,779.5376,3.88194,1.37081,-1.55765
11.1844,779.5576,4.59298,2.73732,-0.6493
11.2014,779.5776,5.43903,3.61086,0.09291
11.2214,779.5976,6.52454,3.54244,0.88886
11.2413,779.6176,7.46405,3.39522,1.67321
11.2617,779.6376,8.06392,3.61819,2.31096
11.2853,779.6576,8.22274,4.28342,2.61211
11.3443,779.6776,8.58377,5.27913,2.81431
11.3468,779.6976,8.4677,5.5473,3.16861
11.3481,779.7176,8.08224,5.34755,2.83874
11.3647,779.7376,6.69497,4.84419,1.80455
11.38,779.7576,5.09328,3.96333,1.22728
11.4085,779.7776,4.33459,3.09834,1.30425
11.4431,779.7976,4.40361,2.08125,1.62434
11.4468,779.8176,4.80923,1.24742,1.93344
11.461,779.8376,5.05113,0.96031,2.01163
11.4791,779.8576,5.18247,1.12158,1.71597
11.4992,779.8776,5.21057,1.40624,1.12282
11.5216,779.8976,5.21484,1.77704,0.29755
11.5393,779.9176,5.08901,2.06292,-0.81118
11.5595,779.9376,4.72065,2.24679,-1.86919
11.5819,779.9575,4.21241,2.45143,-2.86979
11.5999,779.9775,3.92164,2.5003,-3.88871
11.62,779.9975,3.79397,2.04399,-4.71888
11.6413,780.0175,3.57589,1.68419,-5.44031
11.6608,780.0375,3.34682,1.75627,-6.31935
11.6799,780.0575,2.88134,2.27795,-7.12813
11.7034,780.0776,2.57041,2.81856,-7.74755
11.7347,780.0976,2.37737,2.89248,-8.05298
11.7423,780.1176,2.15319,2.90042,-8.30527
11.761,780.1376,1.72008,2.95418,-8.44394
11.7792,780.1577,0.86182,3.17714,-8.23013
11.801,780.1777,-0.00928,2.90836,-7.59056
11.8215,780.1977,-0.66168,2.10996,-6.97114
11.8404,780.2177,-1.1858,0.8302,-6.76161
11.8641,780.2378,-1.63173,0.30546,-6.96198
11.8861,780.2579,-2.47351,0.62434,-6.97297
11.9052,780.2779,-3.39897,1.46122,-7.00901
11.9214,780.298,-3.74166,1.50398,-7.312
11.9438,780.3181,-3.48143,0.909,-7.68341
11.9644,780.3381,-4.09352,0.59501,-7.95402
11.9875,780.3582,-4.87726,-0.14535,-7.79459
12.0058,780.3783,-4.87237,-0.63038,-7.43723
12.0217,780.3984,-4.50586,-1.47582,-6.88867
12.0422,780.4185,-3.84184,-2.65723,-6.2772
12.0669,780.4386,-3.56879,-3.20579,-5.75063
12.0818,780.4587,-3.75938,-3.34873,-5.22468
12.102,780.4788,-3.57551,-3.50817,-5.14587
12.1245,780.4989,-2.73557,-4.36399,-5.55882
12.1505,780.519,-1.53461,-4.41775,-6.02552
12.1673,780.5391,0.22713,-3.9651,-6.1648
12.1886,780.5592,1.85203,-3.4648,-6.46473
12.2029,780.5793,2.91371,-3.49229,-7.06216
12.2269,780.5994,3.37064,-3.2797,-7.90454
12.2495,780.6194,3.51358,-2.9083,-8.14461
12.2674,780.6395,3.5539,-2.59004,-8.28206
12.2866,780.6596,3.70845,-2.45626,-8.64125
12.3093,780.6797,3.83429,-2.81361,-8.98883
12.3298,780.6998,3.75549,-2.80262,-8.84589
12.3483,780.7198,3.00351,-2.25773,-8.279
12.3663,780.7399,1.95893,-1.73299,-7.24175
12.3841,780.76,1.11288,-1.57783,-6.35294
12.4061,780.78,0.4336,-0.98285,-5.73841
12.4266,780.8001,-0.31532,-0.18506,-5.39877
12.4488,780.8201,-0.25729,-0.33778,-5.45681
12.4673,780.8402,0.33831,-0.78737,-5.9345
12.4873,780.8602,0.87892,-0.5021,-6.0017
12.5132,780.8802,1.13182,-0.08854,-5.84348
12.5361,780.9002,1.16236,-0.06533,-5.60647
12.5485,780.9203,0.86182,0.21689,-5.0121
12.5684,780.9403,0.78729,0.70497,-4.1636
12.585,780.9603,1.12693,0.98169,-3.45989
12.6044,780.9803,1.34074,0.60845,-3.05244
12.6224,781.0003,1.33279,0.84669,-2.63094
12.6453,781.0203,1.7323,1.19366,-1.72931
12.6727,781.0403,2.96991,2.19059,-0.3738
12.6983,781.0603,4.24845,3.76907,0.63902
12.7056,781.0803,5.26127,4.96331,1.42154
12.7246,781.1003,6.13908,5.87839,2.23216
12.7433,781.1203,6.61617,6.53568,2.94015
12.7646,781.1403,6.99002,6.8124,3.62737
12.7856,781.1603,7.31194,6.23635,3.8485
12.8081,781.1802,7.27041,5.24614,3.77826
12.8218,781.2002,6.69069,5.18689,3.7697
12.8429,781.2202,5.64367,6.48559,3.4264
12.8615,781.2402,5.39261,6.71955,3.05927
12.8824,781.2602,5.37306,4.88818,3.81002
12.9035,781.2802,6.08227,2.70006,4.78007
12.9216,781.3002,6.8373,0.54004,5.2254
12.9422,781.3202,6.47995,0.27309,4.71838
12.9658,781.3402,5.64367,0.76361,3.77642
12.9814,781.3602,4.95584,0.76789,1.9817
13.0023,781.3802,4.54961,0.41664,0.43132
13.0298,781.4002,4.53006,0.1668,-1.07324
13.0431,781.4202,4.68645,0.58768,-2.38171
13.0689,781.4402,4.8636,1.96641,-3.32428
13.0949,781.4602,4.80556,3.75135,-3.7641
13.1069,781.4802,4.79884,5.11419,-3.78609
13.1236,781.5002,4.77502,5.25286,-3.67674
13.1439,781.5202,4.66506,4.97492,-3.9443
13.1615,781.5402,3.86117,5.03417,-4.51119
13.186,781.5602,2.98763,5.10748,-4.99988
13.2057,781.5802,2.62172,4.31824,-5.25889
13.222,781.6001,2.31384,3.6976,-5.70604
13.2604,781.6201,1.69198,3.5571,-6.356
13.2685,781.6401,1.42748,3.34085,-6.85202
13.2974,781.6601,1.59363,3.03847,-7.26802
13.3069,781.6801,1.81049,3.17775,-7.65531
13.3229,781.7001,1.76956,3.44531,-7.99006
13.3408,781.7201,1.54721,3.4276,-8.29183
13.3619,781.7401,0.89297,2.99449,-8.40973
13.3842,781.7601,0.09579,2.84178,-8.01694
13.4024,781.7801,-0.63236,2.2639,-7.80925
13.4233,781.8001,-1.26277,1.75749,-8.03038
13.4435,781.8201,-2.29269,1.48749,-8.19898
13.462,781.8401,-3.27191,0.87112,-8.09269
13.4832,781.8601,-3.84184,0.48567,-8.04565
13.5034,781.8801,-4.09841,0.70558,-7.67364
13.5216,781.9001,-4.00922,0.66893,-6.8563
13.5414,781.9201,-2.97625,0.03302,-6.26742
13.5655,781.9401,-2.31041,-0.68108,-5.71703
13.5831,781.9601,-2.90417,-1.30966,-5.8276
13.6021,781.9801,-3.72395,-0.29502,-5.82821
13.6253,782,-3.14057,-1.13129,-4.98094
13.6444,782.02,-1.82782,-1.64931,-4.99377
13.6607,782.04,-0.7472,-0.7947,-5.72925
13.6826,782.06,0.59059,-1.1203,-6.13792
13.7021,782.08,1.44275,-1.56867,-6.36516
13.7225,782.1,2.32423,-2.06775,-6.43847
13.7427,782.12,2.95098,-2.46114,-6.53987
13.7615,782.14,3.48121,-2.38723,-7.07315
13.7818,782.16,4.49585,-2.74703,-7.9473
13.8059,782.18,5.38772,-2.78613,-8.70661
13.825,782.2,5.68765,-1.84478,-8.74998
13.8421,782.22,5.42254,-1.72811,-8.60582
13.8672,782.24,5.22584,-1.58639,-8.04077
13.8892,782.26,4.85932,-1.23575,-6.34073
13.9166,782.28,5.14948,-1.07509,-4.45132
13.9269,782.3,6.00408,-1.05005,-2.78977
13.9432,782.32,6.64793,-0.1252,-1.30659
13.9635,782.34,7.26796,1.13258,0.1039
13.9864,782.36,8.09813,1.18939,1.56998
14.0057,782.38,8.66257,0.38427,3.06843
14.0276,782.3999,9.06268,-0.22843,4.25106
14.0482,782.4199,9.21174,-0.97369,5.24555
14.0658,782.4399,9.06452,-1.21254,5.78678
14.0944,782.4599,8.61248,-0.37993,4.98533
14.1106,782.4799,6.74934,-0.06777,2.57607
14.1237,782.4999,5.80983,-0.24187,1.79294
14.1457,782.5199,5.78112,-0.72751,1.72208
14.1684,782.5399,5.50562,-1.10441,1.66894
14.1873,782.5599,5.68582,-1.19665,1.70559
14.203,782.5799,5.85503,-0.96208,1.58403
14.2257,782.5999,6.06822,-0.15879,0.95056
14.2431,782.6199,6.31135,0.92794,0.06114
14.2651,782.6399,6.32295,1.82041,-0.98955
14.2854,782.6599,6.20383,2.56261,-1.94738
14.3035,782.6799,6.18368,2.87598,-2.82153
14.323,782.6999,6.17635,2.73915,-3.48249
14.3469,782.7199,6.0444,2.60232,-3.77876
14.3642,782.7399,5.72675,2.6408,-3.93514
14.3834,782.7599,5.39016,2.5058,-3.90887
14.4055,782.7799,5.20629,2.19731,-3.86611
14.4271,782.7999,4.83427,2.10446,-4.07808
14.446,782.8198,4.20569,2.36408,-4.48614
14.4697,782.8398,3.6889,2.50458,-4.80013
14.4841,782.8598,3.40118,2.35736,-4.82151
14.505,782.8798,3.11225,2.57544,-4.94795
14.5266,782.8998,2.6431,3.12583,-5.03836
14.5444,782.9198,2.35599,3.16492,-4.90886
14.5635,782.9398,2.26864,2.8827,-5.05913
14.5896,782.9598,2.05545,3.15332,-5.71031
14.6109,782.9798,1.57225,3.8381,-6.52826
14.6324,782.9998,0.87831,4.29808,-6.76222
14.6621,783.0198,0.10007,4.08611,-6.7439
14.6701,783.0398,-0.44543,3.05558,-6.70664
14.6844,783.0598,-1.07524,1.96641,-7.21365
14.7046,783.0798,-2.16624,1.6341,-8.09696
14.7304,783.0999,-2.96831,1.66158,-8.08475
14.7507,783.1199,-3.3336,1.31583,-7.5985
14.7649,783.1399,-3.91393,0.60906,-7.81841
14.7837,783.16,-3.8785,-0.7721,-7.35232
14.8038,783.18,-3.56757,-1.48132,-6.34439
14.8254,783.2,-3.12408,-1.07815,-5.88258
14.843,783.22,-2.6586,-1.34509,-5.66878
14.8684,783.2401,-2.79543,-1.55768,-4.89847
14.8856,783.2601,-2.85591,-1.50392,-4.25829
14.9051,783.2801,-2.64821,-1.59311,-4.18804
14.9257,783.3002,-2.27925,-1.4129,-4.22102
14.9472,783.3202,-1.50712,-1.81668,-4.12512
14.9629,783.3402,-1.18947,-1.87044,-4.26867
14.983,783.3602,-0.73559,-1.59494,-4.39818
15.0117,783.3803,-0.77164,-0.68719,-4.35053
15.0259,783.4003,-0.59876,-0.19239,-3.99378
15.046,783.4203,0.25279,-0.94376,-4.52157
15.066,783.4404,1.44458,-1.93947,-6.12448
15.0822,783.4604,2.81537,-2.43549,-7.40669
15.1032,783.4804,4.37185,-2.813,-8.33337
15.1271,783.5004,5.46224,-3.06651,-9.36634
15.1433,783.5205,5.80005,-2.95717,-9.82877
15.1634,783.5405,5.36328,-2.3689,-9.42254
15.2106,783.5605,4.73654,-2.08913,-8.82756
15.2153,783.5806,4.59726,-1.94802,-8.21914
15.2273,783.6006,4.08658,-2.0763,-7.45983
15.2436,783.6206,3.46105,-2.16304,-6.8001
15.2612,783.6406,2.69258,-1.87838,-6.00597
15.2825,783.6606,1.98092,-1.12396,-5.39389
15.3054,783.6806,1.64983,-0.84541,-5.02859
15.3231,783.7006,1.54415,-1.03844,-4.59976
15.3455,783.7206,1.18924,-1.0641,-4.21003
15.3649,783.7406,0.973,-0.89244,-3.98096
15.3856,783.7606,1.05302,-0.47156,-3.58023
15.407,783.7806,1.34501,-0.36221,-3.20332
15.4244,783.8006,1.49529,0.16496,-2.88445
15.4422,783.8206,1.74696,0.93099,-2.4147
15.4683,783.8406,2.65349,1.69213,-1.46663
15.4896,783.8606,4.31993,3.03176,-0.14411
15.5107,783.8806,5.35718,4.43919,0.95178
15.534,783.9006,6.00714,5.61022,2.0269
15.5467,783.9206,6.6461,6.06409,2.25415
15.5638,783.9406,7.60638,3.46669,2.44107
15.5829,783.9606,7.42556,1.24986,2.50827
15.6046,783.9806,5.61863,1.21626,2.72696
15.6255,784.0006,4.09513,1.90837,2.74406
15.6489,784.0206,4.18248,1.81552,2.57729
15.6669,784.0405,5.25883,1.39464,2.45756
15.6847,784.0605,5.46285,1.23154,2.50766
15.7025,784.0805,5.08717,1.33355,2.66159
15.7252,784.1005,4.77991,1.46733,2.7239
15.7477,784.1205,5.33763,1.34455,2.85524
15.7616,784.1405,5.90023,1.23826,3.02078
15.7833,784.1605,5.76829,0.95604,3.31827
15.8015,784.1805,5.7744,0.347,3.24619
15.8218,784.2005,5.8086,-0.26325,2.98474
15.8448,784.2205,5.58686,-0.94437,2.56569
15.8635,784.2405,5.41765,-1.4019,1.8076
15.8824,784.2605,5.25272,-1.56378,0.82961
15.9081,784.2805,4.37674,-1.33471,-0.16305
15.9418,784.3005,3.63698,-0.65787,-0.42205
15.9442,784.3205,3.48732,-0.13314,-0.13983
15.9641,784.3405,3.68768,-0.03112,0.51318
15.9837,784.3605,3.95585,-0.14474,1.18147
16.0025,784.3805,3.94669,-0.07327,1.36595
16.0328,784.4005,3.62598,0.00675,1.28104
16.0484,784.4205,3.08781,0.03913,1.10205
16.0647,784.4405,2.57407,0.03913,0.69949
16.0845,784.4604,2.91433,-0.09221,0.33847
16.103,784.4804,3.58261,-0.2156,-0.30416
16.1257,784.5004,3.23564,0.39282,-1.14654
16.1534,784.5204,2.28452,1.27369,-2.0103
16.1695,784.5404,1.43786,1.64143,-2.8759
16.1838,784.5604,0.4,1.42151,-3.69385
16.2069,784.5804,-0.84555,1.26819,-4.10985
16.2235,784.6004,-2.1021,0.85952,-3.97057
16.2458,784.6204,-3.46738,0.10082,-3.62971
16.2737,784.6404,-4.61459,-0.78249,-3.39147
16.2844,784.6604,-5.77645,-1.95352,-3.68713
16.3037,784.6804,-6.5266,-2.81728,-4.32915
16.3253,784.7004,-7.12647,-2.96938,-4.97483
16.3439,784.7204,-7.52781,-2.4642,-5.26805
16.3632,784.7404,-7.49237,-2.11478,-5.37923
16.3854,784.7604,-7.13563,-2.44221,-5.64984
16.4031,784.7804,-7.19916,-2.62913,-6.43297
16.4324,784.8004,-7.91265,-2.28338,-6.61745
16.4499,784.8204,-8.28772,-1.55096,-6.06034
16.4653,784.8404,-7.61027,-1.10319,-5.41832
16.4839,784.8603,-6.61029,-0.87351,-5.60463
16.5078,784.8803,-6.50522,-0.3726,-5.73169
16.5231,784.9003,-7.314,0.03363,-5.33708
16.5433,784.9203,-7.51986,0.07883,-4.79707
16.5682,784.9403,-7.10448,0.01164,-4.54845
16.5876,784.9603,-6.46062,0.15947,-4.12878
16.6035,784.9803,-5.95299,0.30363,-3.6517
16.6288,785.0003,-5.80578,0.1332,-3.27663
16.6481,785.0203,-6.1784,0.82836,-3.38658
16.6814,785.0403,-6.67137,1.18328,-3.28518
16.6843,785.0603,-6.33662,0.79293,-2.88812
16.7069,785.0803,-6.08433,0.3751,-2.82337
16.722,785.1003,-6.08005,0.55286,-2.82214
16.7503,785.1203,-6.44291,1.17839,-2.75189
16.7717,785.1403,-6.55775,0.59562,-2.58879
16.7818,785.1603,-6.2682,0.1613,-2.30963
16.8029,785.1803,-6.35739,0.79538,-1.9822
16.8215,785.2003,-6.26942,0.74712,-1.77512
16.8421,785.2203,-6.26393,0.23277,-1.56559
16.8631,785.2403,-6.50705,0.30241,-1.39516
16.8825,785.2602,-6.01897,0.30119,-0.7
16.9021,785.2802,-4.41361,-0.01219,0.29755
16.9241,785.3002,-2.56514,0.29691,0.57793
16.9472,785.3202,-1.00987,-0.20705,-0.06653
16.9666,785.3402,0.64985,-0.95475,-0.66762
16.9864,785.3602,1.64556,-1.40374,-0.63036
17.0023,785.3802,1.99803,-1.42328,0.02938
17.0355,785.4002,2.52215,-1.13801,0.7337
17.0478,785.4202,4.1104,-0.84418,1.56204
17.0679,785.4402,5.55754,-1.0079,2.03118
17.0828,785.4602,6.70413,-0.83991,2.1558
17.1042,785.4802,7.87272,-0.74278,2.68114
17.1304,785.5002,8.94173,-0.92482,3.18022
17.1439,785.5202,9.43714,-0.59923,3.46855
17.1938,785.5402,9.22579,-0.0128,3.70495
17.2008,785.5602,8.95151,0.25049,3.84362
17.2042,785.5802,8.79574,0.40687,3.85828
17.2232,785.6002,8.78718,0.10388,3.90715
17.2414,785.6202,8.86965,-0.89611,4.05437
17.261,785.6402,8.37913,-1.35304,4.27245
17.2838,785.6602,7.65281,-1.34754,3.80147
17.3032,785.6801,7.6357,-1.10014,3.54246
17.322,785.7001,7.92159,-0.99324,3.67502
17.3463,785.7201,8.12134,-0.51859,4.03115
17.3638,785.7401,7.95335,0.12587,4.30054
17.3832,785.7601,7.65525,0.22544,4.32193
17.4067,785.7801,7.62837,-0.28463,4.37507
17.4248,785.8001,7.75665,-0.42269,4.67867
17.4465,785.8201,7.58134,-0.33411,4.73854
17.4737,785.8401,7.4164,-0.04517,4.6298
17.4847,785.8601,7.19221,0.32929,4.43432
17.5027,785.8801,7.05172,0.74406,4.21075
17.5237,785.9001,6.78293,0.84058,4.1686
17.5422,785.9201,6.61311,0.32929,4.124
17.5621,785.9401,6.48667,-0.33106,3.87783
17.5845,785.9601,6.38893,-0.69513,3.29262
17.6019,785.9801,5.99797,-0.35733,2.56202
17.6221,786.0001,5.56976,0.22727,1.81371
17.642,786.0201,4.84099,0.52354,0.92674
17.6611,786.0401,4.03526,0.59074,0.12345
17.6832,786.0601,3.25458,0.47834,-0.62059
17.7047,786.08,2.2552,0.47895,-1.30353
17.726,786.1,0.77874,0.95665,-1.76962
17.7429,786.12,-0.20109,1.47344,-1.98709
17.7648,786.14,-0.78446,1.65059,-1.96632
17.782,786.16,-1.13632,1.53636,-1.70304
17.803,786.18,-1.57065,0.99391,-1.61752
17.8241,786.2,-2.22672,0.3635,-1.73297
17.8409,786.22,-3.09353,-0.11725,-1.97487
17.8619,786.24,-3.96524,-0.38787,-2.34445
17.885,786.26,-4.68789,-0.75133,-2.83497
17.9058,786.28,-5.40627,-1.35487,-3.42262
17.9268,786.3,-6.13564,-1.91992,-4.28333
17.953,786.32,-6.91633,-2.22108,-5.0237
17.966,786.34,-8.10568,-1.846,-5.38961
17.9879,786.36,-8.82284,-1.60044,-5.59058
18.007,786.38,-9.10995,-1.29195,-5.89541
18.0217,786.4,-8.47587,-1.00912,-6.43908
18.0422,786.42,-8.16555,-1.01706,-7.2332
18.0688,786.44,-8.38729,-0.52531,-7.65042
18.0854,786.46,-8.96395,0.55592,-7.40241
18.1028,786.48,-9.67561,1.48566,-7.447
18.1254,786.4999,-9.84848,2.3036,-7.37004
18.142,786.5199,-9.19425,2.87293,-6.59851
18.1633,786.5399,-8.67318,4.43186,-6.61317
18.2074,786.5599,-8.73793,3.60475,-6.68526
18.2101,786.5799,-8.25962,1.26452,-6.62967
18.2243,786.5999,-7.82408,-0.54303,-6.27231
18.2442,786.6199,-7.48382,-0.21255,-5.09945
18.2622,786.6399,-6.78255,0.84669,-3.96691
18.2842,786.6599,-5.71292,0.49239,-3.02373
18.3047,786.6799,-5.07335,0.21017,-2.46418
18.328,786.6999,-4.9298,0.76972,-1.86675
18.3445,786.7199,-4.41484,0.86868,-1.23878
18.3717,786.7399,-3.78931,1.19244,-0.30049
18.3881,786.7599,-2.4338,1.60661,0.83816
18.4033,786.7799,-0.59387,1.6793,1.71597
18.4254,786.7999,0.9284,1.9438,2.39953
18.443,786.8199,2.31201,1.79353,3.60843
18.4623,786.8399,2.761,2.13745,5.42209
18.4841,786.8599,2.22771,3.5461,7.20399
18.5061,786.8799,1.30408,5.31822,8.58088
18.5241,786.8999,0.59487,6.2223,9.55338
18.5432,786.9198,1.0463,5.77087,9.7232
18.5637,786.9398,2.69869,4.1417,9.66516
18.5852,786.9598,3.48609,2.31643,9.48374
18.612,786.9798,2.66204,1.62554,9.32736
18.6241,786.9998,1.4397,0.85585,9.40494
18.6543,787.0198,0.93085,-0.28341,9.51611
18.6715,787.0398,0.56799,-1.04333,9.6108
18.6831,787.0598,-0.15283,-0.88267,9.77084
18.7036,787.0799,-1.02148,0.06295,9.5265
18.7264,787.0999,-1.59142,1.14357,8.38601
18.7426,787.1199,-2.27742,1.12097,7.07082
18.7642,787.14,-2.71969,0.3018,6.32312
18.7861,787.16,-2.67143,0.08861,6.2993
18.8059,787.18,-2.42586,0.04096,6.95964
18.8239,787.2,-2.46923,-0.68902,8.10807
18.8446,787.2201,-2.86263,-2.42266,9.49901
18.8667,787.2401,-3.1082,-3.73052,9.95899
18.8882,787.2601,-3.4906,-4.27114,9.75007
18.9098,787.2802,-3.79114,-4.34933,9.01093
18.9257,787.3002,-3.74899,-4.4434,7.87411
18.9437,787.3202,-3.74288,-4.55702,6.57174
18.9652,787.3402,-4.08863,-4.73417,5.34329
18.9826,787.3603,-4.69461,-5.09397,4.46487
19.0057,787.3803,-5.80517,-5.72805,3.89982
19.0391,787.4003,-6.36472,-5.14773,3.16189
19.0486,787.4204,-6.78805,-4.16607,2.40992
19.0705,787.4404,-6.92916,-2.73726,1.12099
19.0897,787.4604,-7.69335,-0.63405,-1.25711
19.1063,787.4804,-8.49358,2.17044,-3.88994
19.1238,787.5005,-8.61392,3.82771,-5.36212
19.1467,787.5205,-8.44227,2.37446,-5.40427
19.1984,787.5405,-8.23335,0.07456,-4.62725
19.1998,787.5606,-8.09163,0.83997,-5.09212
19.2084,787.5806,-8.41661,2.76114,-5.61258
19.2218,787.6006,-8.75137,2.6072,-4.60037
19.2428,787.6206,-7.59317,3.58764,-3.66269
19.2641,787.6407,-7.84118,3.4111,-2.06467
19.2859,787.6607,-8.84178,4.26998,-0.40128
19.3056,787.6807,-10.32801,6.0928,0.62069
19.327,787.7007,-10.95659,6.71955,1.46674
19.343,787.7207,-10.32923,7.19175,2.20222
19.3652,787.7406,-9.84848,7.8918,2.67625
19.3874,787.7606,-9.50579,8.4764,2.99085
19.4036,787.7806,-9.55221,9.01946,3.25658
19.4239,787.8006,-9.52228,9.5277,3.63959
19.4477,787.8206,-9.44348,10.27479,4.28527
19.4663,787.8406,-9.97982,11.27416,4.72204
19.4885,787.8606,-9.71348,10.97667,4.16005
19.513,787.8806,-7.3531,8.48984,2.00797
19.5268,787.9006,-3.04528,3.65911,-0.85271
19.5495,787.9206,0.3377,0.56814,-2.69142
19.5662,787.9406,0.6413,0.9823,-2.81848
19.5825,787.9606,-0.44482,0.71047,-2.78244
19.6024,787.9806,-1.55049,-0.41291,-4.24424
19.6297,788.0006,-2.00009,-0.74156,-5.34013
19.648,788.0206,-1.58775,-1.61937,-5.4397
19.6629,788.0406,-1.02881,-2.03843,-5.32791
19.684,788.0606,-0.17299,-3.34995,-5.69688
19.7023,788.0806,0.92657,-3.59552,-6.7048
19.7237,788.1006,2.20694,-3.14592,-7.70235
19.7476,788.1205,3.83551,-3.52039,-8.976
19.7635,788.1405,5.37184,-4.477,-10.52027
19.7815,788.1605,5.99797,-4.21616,-11.61616
19.805,788.1805,5.99736,-3.96387,-11.56363
19.8229,788.2005,5.97476,-3.33896,-10.8709
19.8431,788.2205,5.59114,-2.92357,-9.36573
19.868,788.2405,4.08291,-2.13861,-7.35293
19.8867,788.2605,2.90822,-1.37686,-5.90335
19.9038,788.2805,2.24787,-0.97063,-5.28698
19.9255,788.3005,2.28147,-0.89305,-5.21735
19.9588,788.3205,2.30774,-0.78004,-5.15443
19.9748,788.3405,2.42014,-0.90344,-5.06219
19.9853,788.3605,2.22527,-0.56868,-4.33037
20.0024,788.3805,2.32606,-0.10137,-3.54663
20.0228,788.4005,2.80437,0.0434,-2.59001
20.045,788.4205,3.91859,0.5718,-1.23206
20.0683,788.4405,5.28815,1.86745,0.3177
20.086,788.4605,6.19895,2.90653,1.51683
20.1063,788.4805,7.11341,2.69517,2.95908
20.1256,788.5006,7.49704,0.78194,4.37751
20.1507,788.5206,7.4726,-0.80998,5.01281
20.1745,788.5406,8.00161,-1.67252,4.98044
20.1863,788.5606,7.96191,-1.30661,3.74283
20.2041,788.5807,7.05477,-1.17711,2.37082
20.2278,788.6007,5.85014,-1.43062,1.24316
20.2445,788.6207,4.1556,-2.07691,0.60725
20.2652,788.6408,2.96014,-2.85882,0.30915
20.2891,788.6608,3.3853,-2.95961,0.04098
20.3138,788.6808,4.53495,-2.3292,0.19797
20.3321,788.7008,5.82204,-1.68046,0.33908
20.3478,788.7209,6.63388,-1.46055,0.44904
20.3634,788.7409,6.8709,-2.14838,0.46431
20.384,788.7609,7.05721,-2.86981,0.15216
20.4071,788.781,6.90633,-2.47886,-0.17954
20.427,788.801,6.27225,-1.64442,-0.31088
20.4447,788.821,5.80311,-1.09281,-0.48192
20.4673,788.841,5.24478,-1.02928,-0.60409
20.485,788.8611,4.61803,-0.88328,-0.53201
20.5061,788.8811,4.43416,-1.16122,-0.31576
20.53,788.9011,4.29549,-2.13861,-0.07997
20.552,788.9212,4.17882,-2.70366,-0.64441
20.568,788.9412,4.45371,-1.6322,-1.81422
20.5935,788.9612,4.24907,0.37205,-3.21432
20.611,788.9812,4.04992,1.86073,-4.63947
20.6265,789.0013,4.24174,2.54184,-5.9962
20.6469,789.0213,4.38651,3.37323,-7.04689
20.6724,789.0413,4.33092,4.56014,-7.89233
20.686,789.0613,4.13361,5.11969,-7.99739
20.7058,789.0813,3.88743,4.61084,-8.00534
20.7239,789.1013,3.63209,4.10016,-8.20753
20.7462,789.1213,2.99557,4.43247,-8.27534
20.7685,789.1413,2.69869,4.89856,-8.29611
20.7823,789.1613,3.0255,4.6646,-8.47509
20.8028,789.1813,2.95342,4.54792,-8.53496
20.8277,789.2013,2.23504,4.23883,-7.88133
20.8501,789.2213,1.35906,2.82712,-6.87401
20.8637,789.2413,0.55883,0.51071,-5.70543
20.8854,789.2613,0.37618,-0.85335,-4.9901
20.9041,789.2813,0.07686,-0.43796,-5.16787
20.9256,789.3013,0.08296,1.16678,-5.5857
20.9485,789.3213,0.40794,2.1405,-6.23016
20.9631,789.3413,0.49713,2.85155,-6.53193
20.9846,789.3612,0.07563,3.37628,-6.53804
21.007,789.3812,-0.5896,3.60047,-6.45496
21.024,789.4012,-1.14121,2.43738,-6.08111
21.0475,789.4212,-1.13571,1.80392,-5.81844
21.0711,789.4412,-1.66655,2.38974,-5.98093
21.0889,789.4612,-2.57491,2.27184,-6.37677
21.1139,789.4812,-3.02939,1.30484,-6.12937
21.1301,789.5012,-3.08193,0.50216,-5.37678
21.1518,789.5212,-2.65554,1.3812,-4.51607
21.1657,789.5413,-1.8828,1.52231,-4.11168
21.2056,789.5613,-1.69221,1.15273,-4.40612
21.2096,789.5813,-2.13631,1.1619,-4.23874
21.226,789.6014,-1.97321,1.19855,-3.52525
21.2458,789.6214,-1.40938,1.17839,-2.71463
21.2627,789.6414,-0.87915,0.43252,-2.74762
21.2836,789.6614,-1.10944,-0.18078,-3.16789
21.3062,789.6815,-1.18458,-0.59129,-3.15629
21.3263,789.7015,-0.65679,-0.48194,-2.54725
21.3473,789.7215,-0.23224,-0.5864,-2.71402
21.3695,789.7416,-0.15283,-0.63405,-3.09581
21.3865,789.7616,0.19842,-0.78676,-3.14468
21.4075,789.7816,0.13733,-0.15513,-3.17339
21.4271,789.8016,-0.01844,-0.47156,-2.95959
21.4464,789.8217,0.32487,-0.79043,-2.84169
21.4698,789.8417,1.22223,-0.89611,-3.4886
21.4897,789.8617,2.68708,-1.47338,-4.77936
21.5092,789.8818,3.54046,-1.80141,-5.67183
21.5275,789.9018,3.5765,-2.27727,-6.03591
21.5474,789.9218,3.17883,-2.88203,-6.0298
21.5655,789.9418,3.12507,-3.27298,-5.98765
21.5853,789.9619,3.38897,-2.95717,-5.80378
21.6069,789.9819,3.59727,-2.65357,-5.66572
21.6282,790.0019,3.81779,-2.73176,-5.91434
21.6529,790.022,4.26312,-2.43488,-6.1483
21.6804,790.042,4.47203,-2.0201,-6.13853
21.6861,790.062,4.41644,-1.95535,-5.97543
21.7057,790.082,3.83123,-1.72322,-5.20696
21.7302,790.1021,3.46227,-1.46238,-4.62236
21.751,790.1221,3.00412,-1.42451,-4.25279
21.7698,790.1421,2.95464,-1.5815,-3.86672
21.7849,790.1621,3.22098,-1.94985,-3.70607
21.8031,790.182,3.85567,-2.31759,-3.03656
21.8239,790.202,4.88131,-1.65969,-1.90768
21.8455,790.222,5.03036,-1.24308,-1.14471
21.8638,790.242,4.73959,-1.68535,-0.84722
21.8876,790.262,4.5942,-2.34691,-0.95412
21.9113,790.282,5.02425,-1.79225,-0.76108
21.9262,790.302,5.30525,-0.77577,-0.3683
21.9472,790.322,5.59053,-0.15513,-0.14533
21.9676,790.342,5.71026,-2.07997,-1.01887
21.9889,790.362,5.43598,-3.40982,-1.7403
22.0084,790.382,4.32298,-2.72687,-2.18562
22.0286,790.402,4.0823,-1.29378,-1.7684
22.049,790.422,3.94363,0.18512,-1.16487
22.0683,790.442,4.28816,0.25537,-1.28948
22.0873,790.462,5.75485,-2.49413,-1.00971
22.1059,790.482,6.42863,-2.72565,-0.94007
22.1258,790.502,6.45368,-1.81546,-0.63525
22.1528,790.522,6.25454,-0.58823,-0.21314
22.169,790.542,6.32417,-0.36282,-0.18993
22.1869,790.562,6.12687,-1.96146,-0.3457
22.2069,790.5819,5.82143,-4.05734,-0.37135
22.2244,790.6019,4.93507,-4.65721,-0.12884
22.2463,790.6219,4.03648,-2.9761,0.04587
22.2735,790.6419,3.44517,-0.90833,-0.18931
22.2884,790.6619,3.61438,-0.27486,-0.94007
22.3058,790.6819,4.32848,-1.30233,-1.43426
22.3263,790.7019,4.2283,-2.00788,-1.00726
22.3445,790.7219,3.68035,-2.52406,-0.10807
22.3692,790.7419,3.35781,-3.0604,0.33969
22.393,790.7619,3.24908,-2.91868,-0.21803
22.4175,790.7819,2.76772,-1.48987,-1.42693
22.4265,790.8019,2.12997,0.58157,-2.40737
22.4472,790.8219,1.81965,2.11912,-3.44217
22.4667,790.8419,2.05301,2.94135,-4.68895
22.4864,790.8619,2.18006,3.37934,-5.3102
22.5106,790.8819,2.17396,3.94439,-5.50751
22.5262,790.9019,2.09943,4.20706,-5.69871
22.5449,790.9219,2.03407,4.1588,-5.80011
22.5668,790.9419,1.90273,4.08122,-5.71276
22.5853,790.9619,1.87341,3.64995,-5.48552
22.6067,790.9819,1.76529,3.07085,-5.03958
22.6284,791.0018,1.68954,2.77519,-4.38657
22.6611,791.0218,1.69137,2.37691,-3.86367
22.6836,791.0418,1.80744,1.8424,-3.59061
22.6933,791.0618,1.85203,1.40319,-3.57595
22.7061,791.0818,1.61746,1.75077,-3.72806
22.7263,791.1019,1.17458,2.5565,-3.79892
22.7478,791.1219,1.08662,2.5565,-3.91315
22.7683,791.1419,1.15625,2.11546,-3.94614
22.7903,791.1619,1.12449,2.10019,-3.79831
22.8065,791.182,1.07257,2.13684,-3.54052
22.8255,791.202,1.25338,2.03666,-3.56618
22.846,791.222,1.28454,2.21992,-3.9724
22.8677,791.2421,1.3273,2.44655,-4.30227
22.8889,791.2621,1.49101,2.71166,-4.49836
22.9068,791.2821,1.36945,2.60537,-4.39695
22.9277,791.3021,1.27171,1.86561,-4.16055
22.9483,791.3222,1.11105,1.20405,-3.90338
22.9661,791.3422,0.95284,0.89739,-3.73172
22.9874,791.3622,0.81234,0.97375,-3.85328
23.006,791.3823,0.67245,1.179,-4.03593
23.0423,791.4023,0.6694,1.19488,-4.03899
23.0487,791.4223,0.39023,1.26086,-3.96996
23.0679,791.4423,0.12695,1.14052,-4.0005
23.0862,791.4624,0.03776,1.04766,-4.62481
23.1078,791.4824,-0.45704,1.82896,-5.67183
23.1258,791.5024,-1.60974,2.8882,-6.96686
23.1463,791.5225,-2.08194,2.73671,-7.66081
23.1685,791.5425,-1.92373,2.42211,-7.55696
23.2054,791.5626,-2.23588,2.00856,-6.81598
23.2086,791.5826,-2.02208,1.76421,-5.83737
23.2267,791.6027,-1.55415,1.71901,-4.76897
23.2446,791.6228,-1.09601,1.35004,-3.99134
23.2648,791.6428,-0.77408,1.01529,-3.60649
23.2883,791.6629,-0.76369,0.98658,-3.40491
23.3097,791.6829,-0.92741,0.78194,-3.47394
23.3274,791.703,-1.23956,0.6952,-3.56923
23.3473,791.723,-1.2475,0.3806,-3.54907
23.3662,791.743,-1.20718,-0.14108,-3.52464
23.3861,791.7631,-1.29698,-0.59801,-3.5448
23.4075,791.7831,-1.53522,-0.56685,-3.3255
23.4253,791.8031,-1.54255,-0.46606,-2.87285
23.4505,791.8231,-0.81623,-1.18138,-2.69386
23.4924,791.8432,-0.23957,-1.8399,-2.75251
23.5047,791.8632,-0.12656,-2.15083,-2.35361
23.5101,791.8832,0.06953,-2.18076,-1.84476
23.5299,791.9033,0.25828,-1.87288,-2.02741
23.549,791.9233,0.27722,-1.55218,-2.54298
23.569,791.9433,0.57105,-1.49598,-2.5668
23.5911,791.9633,-0.04898,-0.86556,-2.27847
23.6091,791.9834,-0.55905,-0.71102,-1.99931
23.6272,792.0034,-0.23102,-1.07876,-2.3194
23.6527,792.0234,0.76103,-1.30661,-3.1007
23.6762,792.0435,1.20207,-0.87717,-3.46233
23.6877,792.0635,0.73109,-0.64871,-3.15934
23.7082,792.0835,0.56616,-0.84846,-3.00968
23.7403,792.1036,0.87831,-1.17711,-3.57656
23.7592,792.1236,1.63884,-1.42756,-4.36397
23.7669,792.1436,2.32362,-1.52163,-4.8997
23.7859,792.1636,2.5026,-2.03904,-5.07746
23.8066,792.1836,2.23138,-1.93152,-4.79035
23.8282,792.2036,2.31568,-2.10562,-4.60343
23.8448,792.2236,2.04323,-1.67435,-4.46904
23.866,792.2435,1.59669,-1.25896,-4.21736
23.8869,792.2635,1.90762,-1.39335,-4.08419
23.9053,792.2835,1.89357,-1.21681,-4.13184
23.9267,792.3035,1.9235,-0.96453,-4.25645
23.947,792.3235,2.17151,-0.9743,-4.32365
23.9659,792.3435,2.46595,-1.13129,-4.07075
23.9852,792.3635,2.47633,-1.12396,-3.91559
24.009,792.3835,2.1654,-1.05432,-3.87405
24.0433,792.4035,1.92717,-0.88511,-4.04021
24.0592,792.4235,2.17701,-0.86007,-3.99378
24.0723,792.4435,2.60095,-0.98835,-3.7531
24.0875,792.4635,2.95892,-1.14778,-3.45867
24.1061,792.4835,2.7891,-0.83441,-3.08298
24.128,792.5035,2.40303,-0.35427,-2.76961
24.148,792.5235,2.29552,-0.39764,-2.66637
24.1682,792.5435,2.86546,-0.34633,-2.4037
24.1922,792.5635,3.79519,-0.02379,-1.58758
24.2073,792.5835,4.01144,0.41175,-0.89547
24.2267,792.6035,3.26618,1.74772,-0.48253
24.2485,792.6235,2.5533,1.62493,-0.50696
24.2727,792.6434,3.08781,0.92855,-0.33775
24.2864,792.6634,3.98456,0.04218,-0.36585
24.3079,792.6834,4.0933,-0.65298,-0.6774
24.3292,792.7034,3.55879,-0.10931,-0.82156
24.3488,792.7234,3.30711,0.504,-0.93335
24.3682,792.7434,3.85445,-0.39459,-0.91685
24.3879,792.7634,4.39079,-1.25469,-0.76475
24.4067,792.7834,4.43782,-1.5198,-0.60287
24.4282,792.8034,4.32848,-0.82586,-0.25529
24.4466,792.8234,4.51968,0.09349,-0.03049
24.4657,792.8434,4.81778,0.28347,0.11001
24.4882,792.8634,5.02486,0.0098,0.31587
24.5073,792.8834,5.17758,-0.60228,0.67262
24.5279,792.9034,5.25333,-0.6316,1.09656
24.5498,792.9234,5.38344,-0.16918,1.22911
24.5692,792.9434,5.26982,0.2682,0.78318
24.588,792.9634,4.84588,0.30363,0.4466
24.6189,792.9834,4.37246,-0.35794,0.39895
24.6332,793.0034,4.42194,-1.32371,0.22424
24.6515,793.0234,4.42133,-1.5424,-0.04026
24.6844,793.0433,4.42133,-0.96086,-0.37135
24.688,793.0633,4.47753,-0.19239,-0.72627
24.7051,793.0833,4.52457,0.57669,-1.06957
24.728,793.1033,4.51357,1.32194,-1.30231
24.746,793.1233,4.56305,1.64387,-1.53994
24.7659,793.1433,4.66751,1.57118,-1.98709
24.7884,793.1633,4.43416,1.77826,-2.44341
24.8061,793.1833,4.14949,2.39462,-2.80993
24.8321,793.2033,3.93386,2.90286,-3.08543
24.8477,793.2233,3.77015,2.97067,-3.19538
24.8657,793.2433,3.65103,2.63958,-3.22226
24.89,793.2633,3.25274,2.21869,-3.34871
24.9148,793.2833,2.6993,2.09958,-3.40857
24.9354,793.3033,2.1654,2.09347,-3.39086
24.9523,793.3233,1.86486,1.64326,-3.31389
24.9672,793.3433,1.80377,1.0269,-3.32611
24.9863,793.3633,1.69321,0.72391,-3.5338
25.0054,793.3833,1.4959,0.9652,-3.82641
25.0318,793.4033,1.37739,1.49665,-4.17399
25.0478,793.4233,1.34623,2.08308,-4.59976
25.0671,793.4433,1.47696,2.12951,-4.77508
25.0854,793.4632,1.78178,2.0898,-4.7989
25.1056,793.4832,1.98031,2.16616,-4.81051
25.1253,793.5032,1.90762,2.40318,-4.93452
25.1486,793.5232,1.53377,2.64202,-4.96567
25.1883,793.5432,1.53194,2.57238,-4.7873
25.1896,793.5632,1.56798,2.62981,-4.7708
25.2066,793.5832,1.17886,2.98289,-4.80074
25.2245,793.6032,0.81173,3.10934,-4.61442
25.2443,793.6232,0.68161,3.04947,-4.43971
25.2677,793.6432,0.18192,2.91141,-4.05487
25.2857,793.6632,-0.43749,2.2755,-3.74333
25.3075,793.6832,-0.66046,1.25902,-3.8765
25.3302,793.7032,-0.58715,1.38975,-3.74455
25.3471,793.7232,-0.81134,1.97923,-3.75677
25.3673,793.7432,-1.12349,2.00306,-4.13856
25.3893,793.7632,-1.11494,2.00795,-4.53318
25.4052,793.7832,-1.34218,2.5675,-4.66818
25.4261,793.8032,-1.72642,3.0287,-4.78852
25.4469,793.8232,-2.00558,3.00366,-5.01149
25.4701,793.8432,-2.23099,2.41539,-5.3328
25.4908,793.8632,-2.22244,1.94136,-5.50751
25.5237,793.8831,-2.09233,1.75138,-5.5857
25.5321,793.9031,-1.77162,1.2804,-5.24361
25.5485,793.9231,-1.79361,0.5266,-4.68162
25.572,793.9431,-1.92006,0.7514,-4.15872
25.5881,793.9631,-1.77284,0.74773,-3.63948
25.6074,793.9831,-1.43809,0.43191,-3.56129
25.6301,794.0031,-1.40694,-0.01768,-3.56984
25.6501,794.0231,-1.66472,-0.09649,-3.30717
25.6824,794.0431,-1.51933,-0.08244,-3.01579
25.6895,794.0631,-1.0056,-0.10382,-2.81054
25.706,794.0831,-0.9048,-0.36038,-2.80809
25.7273,794.1031,-0.95123,-0.76416,-2.95837
25.757,794.1232,-1.17053,-0.62366,-2.96875
25.7657,794.1432,-1.01415,-0.55341,-2.83009
25.7864,794.1632,-0.702,-0.55769,-2.93576
25.8079,794.1832,-0.65863,-0.9071,-3.26136
25.8268,794.2033,-0.90419,-0.85823,-3.29129
25.8491,794.2233,-0.3312,-0.5693,-3.13918
25.8695,794.2433,0.10496,-0.27241,-3.30961
25.8853,794.2634,-0.42466,-0.67559,-3.48493
25.9059,794.2834,-0.76858,-0.97491,-3.48188
25.9299,794.3034,-0.51813,-1.02622,-3.71217
25.9478,794.3234,0.22163,-0.99751,-4.3041
25.9676,794.3435,0.74636,-1.0421,-4.80074
25.9883,794.3635,0.88198,-0.99324,-5.14221
26.0065,794.3835,1.10555,-0.90527,-5.37678
26.0276,794.4036,1.44886,-0.89611,-5.53133
26.0491,794.4236,1.95343,-1.21437,-5.97726
26.0686,794.4436,2.8288,-1.61449,-6.56186
26.0908,794.4636,3.71395,-1.63953,-7.12935
26.1086,794.4837,4.07497,-1.32982,-7.31261
26.1299,794.5037,3.82513,-0.87717,-6.88501
26.1507,794.5237,3.3517,-0.78127,-6.42075
26.1693,794.5438,3.11102,-0.80203,-5.95283
26.1873,794.5638,2.78543,-0.70491,-5.27782
26.2071,794.5838,2.45679,-0.57846,-4.64558
26.232,794.6038,2.36088,-0.61022,-4.13062
26.2615,794.6239,2.15013,-0.64199,-3.67858
26.2753,794.6439,1.83615,-0.77332,-3.31511
26.2921,794.6639,1.84531,-0.8228,-3.27907
26.3102,794.6839,2.29918,-0.55769,-3.18378
26.3296,794.7039,2.52643,-0.26997,-3.13857
26.3522,794.7239,3.0139,-0.94131,-3.10925
26.3686,794.7439,3.51236,-1.4184,-2.92721
26.3916,794.7639,3.22342,-1.22964,-2.77633
26.4089,794.7839,3.06887,-0.58212,-2.68042
26.4271,794.8039,2.9974,0.5156,-2.52648
26.4569,794.8239,3.21304,-0.12764,-2.80748
26.4736,794.8439,3.94669,-1.25774,-2.67676
26.4886,794.8639,4.01327,-0.76538,-2.38904
26.5075,794.8839,3.54901,1.42701,-2.25526
26.5301,794.9039,3.50076,3.10078,-2.21067
26.5522,794.9239,3.98456,2.47098,-1.98037
26.5751,794.9439,4.62658,0.65121,-1.31575
26.5925,794.9639,5.01815,-0.08671,-0.75009
26.6189,794.984,5.2234,0.65305,-0.4245
26.6307,795.004,5.24783,1.16129,-0.36647
26.6586,795.024,5.20385,0.45024,-0.54606
26.6746,795.0441,5.15376,-1.72444,-0.48436
26.6868,795.0641,4.94057,-1.4581,-0.2559
26.7098,795.0842,4.72004,-0.28097,-0.57966
26.729,795.1042,4.42744,0.96337,-0.73665
26.7506,795.1243,4.34375,0.88517,-0.74031
26.7719,795.1444,3.91553,-0.00547,-0.17282
26.7877,795.1644,4.16538,-0.90344,0.21997
26.8077,795.1845,4.56427,-0.94864,0.09168
26.8339,795.2046,4.26251,-0.01829,-0.19542
26.8492,795.2246,3.91675,0.66587,-0.56561
26.8703,795.2447,3.62843,0.39526,-0.45015
26.8902,795.2647,3.60705,-0.14963,-0.03843
26.9081,795.2848,4.02427,-0.89305,-0.04149
26.9281,795.3049,4.1947,-0.9743,-0.28278
26.9572,795.3249,3.9363,-0.61878,-0.70183
26.9701,795.345,3.29001,-0.42696,-1.31025
26.9883,795.365,2.58018,-0.60228,-1.96082
27.0099,795.3851,2.25887,-0.1594,-2.9321
27.0283,795.4052,1.90151,1.27552,-3.87833
27.0546,795.4252,1.53133,3.02015,-4.60587
27.0991,795.4453,1.66816,4.16186,-4.94246
27.1046,795.4654,2.19411,4.26692,-5.06768
27.1122,795.4854,2.69625,3.87597,-5.03958
27.1327,795.5055,2.82392,3.44714,-4.8997
27.1575,795.5255,2.7329,3.1466,-4.70239
27.1713,795.5456,2.58018,2.88026,-4.71277
27.2126,795.5656,2.34622,2.59438,-4.77569
27.2162,795.5856,2.12753,2.30727,-4.75248
27.2295,795.6057,1.85142,2.00978,-4.64191
27.2529,795.6257,1.56798,1.61638,-4.51913
27.2668,795.6457,1.25277,1.17228,-4.47881
27.2871,795.6657,1.10922,0.83203,-4.4165
27.3092,795.6857,1.24483,0.63961,-4.31327
27.3279,795.7057,1.42626,0.62739,-4.38657
27.3537,795.7257,1.24666,1.03178,-4.70117
27.3729,795.7457,0.92657,1.21871,-5.0066
27.3953,795.7657,0.59243,1.32927,-5.26194
27.4122,795.7857,0.33037,1.55224,-5.42321
27.4317,795.8057,0.20208,1.74833,-5.37556
27.4483,795.8257,-0.08991,2.01894,-5.08723
27.4739,795.8457,-0.33792,1.9377,-4.86549
27.4995,795.8657,-0.61525,1.97862,-4.75675
27.5123,795.8857,-0.96895,1.99634,-4.5063
27.5294,795.9057,-1.12166,1.65975,-3.95469
27.5498,795.9256,-1.04653,1.10509,-3.27418
27.5687,795.9456,-1.02759,0.58157,-2.78122
27.5897,795.9656,-1.35135,-0.06839,-2.67248
27.6114,795.9856,-1.73192,-0.34877,-2.68348
27.6299,796.0056,-2.07034,0.05501,-2.43302
27.6582,796.0256,-2.32079,0.5101,-2.27053
27.6783,796.0456,-2.35683,0.63472,-2.49594
27.6955,796.0656,-2.32323,0.74162,-2.893
27.7091,796.0856,-2.43197,1.12647,-3.14957
27.7469,796.1056,-2.53704,2.07819,-3.19355
27.7572,796.1256,-2.55719,2.65546,-3.31878
27.7724,796.1456,-2.51199,2.85155,-3.62788
27.7916,796.1656,-2.20167,2.562,-3.88566
27.8076,796.1856,-2.16135,2.15944,-4.10985
27.8277,796.2056,-2.34156,2.09102,-4.33342
27.8522,796.2256,-2.56514,1.98473,-4.45254
27.8725,796.2456,-2.83331,1.76421,-4.80929
27.8888,796.2656,-2.67082,1.62799,-4.96017
27.9163,796.2856,-2.41181,1.42457,-4.75431
27.9329,796.3055,-2.16991,1.07332,-4.16605
27.9584,796.3255,-1.92312,0.99574,-3.58878
27.9727,796.3455,-1.75879,1.33294,-3.33588
27.9878,796.3655,-1.43076,1.12891,-3.0335
28.0103,796.3855,-1.18641,0.97314,-2.73846
28.0349,796.4055,-1.12655,1.19672,-2.67309
28.05,796.4255,-0.79118,1.01223,-2.69875
28.0718,796.4455,-0.38923,0.51194,-2.60956
28.0899,796.4655,-0.49003,0.37205,-2.64072
28.1096,796.4855,-0.65313,-0.08916,-2.98219
28.128,796.5055,-0.60365,-0.48988,-3.36581
28.1511,796.5255,-0.73926,-0.72201,-3.77265
28.1748,796.5455,-0.91458,-0.97247,-3.93575
28.1908,796.5655,-0.54256,-1.25713,-3.71584
28.2116,796.5855,-0.00683,-1.41779,-3.86428
28.2297,796.6055,-0.00683,-0.98835,-4.14467
28.2549,796.6255,0.40917,-1.47276,-4.31327
28.2789,796.6455,1.07379,-1.92114,-4.62297
28.3,796.6655,1.64861,-2.23818,-5.15382
28.3086,796.6855,2.18862,-2.26933,-5.51667
28.3321,796.7055,2.7219,-2.47153,-5.92962
28.3489,796.7255,3.57711,-2.92113,-6.17579
28.3688,796.7454,4.25884,-2.76597,-6.30224
28.3942,796.7654,4.55083,-2.77635,-6.54353
28.4128,796.7854,4.93079,-2.9871,-6.76955
28.439,796.8054,5.07557,-3.09583,-6.52093
28.4516,796.8254,5.07923,-2.6383,-5.81416
28.4682,796.8454,4.77685,-1.98467,-4.74698
28.4901,796.8654,4.29855,-1.80385,-4.35053
28.5097,796.8854,4.38773,-2.41044,-4.38657
28.531,796.9054,5.23195,-2.86309,-4.09152
28.5528,796.9254,5.82632,-2.84477,-3.601
28.5695,796.9454,6.01996,-2.41044,-3.19905
28.5877,796.9654,5.63817,-2.33408,-2.97853
28.6075,796.9854,4.66934,-2.76719,-2.80321
28.6317,797.0054,3.8239,-2.47336,-2.34017
28.6505,797.0254,4.06825,-1.41046,-1.7794
28.6677,797.0454,5.18064,-0.76905,-1.34263
28.6917,797.0654,6.15863,-1.61693,-1.39761
28.7205,797.0854,6.11892,-2.10745,-1.42632
28.7289,797.1054,5.77867,-1.50209,-1.19907
28.7495,797.1253,5.42254,0.24743,-0.91014
28.7669,797.1453,5.75729,1.3366,-0.99321
28.788,797.1653,6.41764,0.16435,-0.7336
28.8102,797.1853,6.45857,-0.9914,-0.1545
28.8281,797.2053,6.37365,-1.32677,-0.07569
28.8498,797.2253,6.27408,-0.43002,-0.53384
28.8698,797.2453,6.27653,0.01836,-1.16853
28.888,797.2653,5.91001,0.07456,-1.57415
28.9077,797.2853,5.14093,-0.0861,-1.6053
28.9292,797.3053,4.63452,-0.485,-1.65722
28.9501,797.3253,4.42744,-0.55586,-1.82643
28.9681,797.3453,4.28755,0.28958,-2.13614
28.9922,797.3653,3.99617,2.00978,-2.62056
29.0092,797.3853,3.51725,4.16919,-3.05
29.0353,797.4053,3.28817,5.50637,-3.42812
29.0533,797.4253,3.77015,5.91504,-3.77632
29.0721,797.4453,4.17393,5.71223,-4.12084
29.0883,797.4653,3.91737,5.92848,-4.38107
29.1097,797.4853,3.45128,6.08486,-4.62175
29.1285,797.5053,3.00107,5.86739,-5.23445
29.1528,797.5253,2.29185,4.6982,-6.15441
29.171,797.5453,1.88685,3.64812,-6.85813
29.2191,797.5653,1.28393,3.64384,-7.00291
29.2205,797.5854,0.76347,4.04518,-6.57958
29.2346,797.6054,0.87831,3.48929,-5.8612
29.2467,797.6254,1.3218,2.47098,-5.13916
29.2673,797.6455,1.20696,1.97618,-4.42628
29.289,797.6655,0.93512,1.32988,-3.88322
29.3094,797.6855,0.72376,0.7575,-3.52281
29.3336,797.7055,0.49774,0.48017,-3.31084
29.3515,797.7256,0.28211,0.59501,-3.06893
29.3689,797.7456,0.21797,0.73979,-2.82764
29.389,797.7656,0.30104,0.69947,-2.54664
29.4114,797.7857,0.35663,0.53087,-2.28397
29.4287,797.8057,0.2253,0.35983,-2.29008
29.4504,797.8257,-0.09358,0.59624,-2.25221
29.4817,797.8457,-0.22369,0.83997,-2.06467
29.4979,797.8658,-0.23652,0.98108,-1.79956
29.5109,797.8858,-0.18337,0.85708,-1.56987
29.531,797.9058,-0.16871,0.54126,-1.39883
29.5492,797.9259,-0.30005,0.48567,-1.3127
29.5734,797.9459,-0.3477,0.62128,-1.22351
29.6068,797.9659,-0.25484,0.85219,-1.13371
29.6247,797.9859,-0.18337,0.90594,-1.14165
29.6379,798.006,-0.12962,0.81981,-1.11294
29.6654,798.0261,-0.06364,0.65977,-1.15387
29.6758,798.0461,-0.14916,0.69214,-1.30598
29.6896,798.0662,-0.42222,0.80882,-1.40188
29.7118,798.0862,-0.56516,0.85891,-1.37928
29.7302,798.1063,-0.55539,0.75995,-1.4086
29.7648,798.1263,-0.57005,0.73124,-1.56132
29.7771,798.1464,-0.59937,0.78194,-1.55582
29.7926,798.1664,-0.65985,0.78011,-1.5546
29.8091,798.1864,-0.72216,0.87174,-1.6163
29.8307,798.2065,-0.72765,0.95237,-1.46297
29.8491,798.2265,-0.56822,0.69947,-1.22962
29.8707,798.2465,-0.37824,0.38549,-1.05674
29.891,798.2665,-0.286,0.34028,-0.95839
29.9103,798.2866,-0.34953,0.5382,-0.9755
29.9314,798.3066,-0.41306,0.70192,-1.08668
29.9549,798.3266,-0.42833,0.72268,-1.15143
29.9756,798.3467,-0.46315,0.57791,-1.06041
29.9953,798.3667,-0.39901,0.49605,-0.94434
30.015,798.3867,-0.33487,0.61823,-0.87593
30.0302,798.4067,-0.37213,0.774,-0.88937
30.0513,798.4268,-0.58593,0.92488,-0.96511
30.0725,798.4468,-0.71666,0.86013,-1.01582
30.0888,798.4668,-0.71483,0.82103,-1.08912
30.1127,798.4869,-0.85288,1.06233,-1.21557
30.1327,798.5069,-0.95001,1.39891,-1.29437
30.1509,798.5269,-0.95673,1.43251,-1.36156
30.171,798.5469,-1.01232,1.31706,-1.45014
30.1933,798.567,-1.07585,1.18816,-1.55949
30.2209,798.587,-1.15954,1.22054,-1.7006
30.236,798.607,-1.21512,1.43129,-2.00603
30.2552,798.627,-1.15831,1.28712,-2.32795
30.2702,798.647,-1.03431,0.79232,-2.32307
30.2899,798.667,-0.96589,0.40809,-2.03168
30.3117,798.687,-0.9549,0.48567,-1.802
30.3297,798.707,-0.97261,0.67931,-1.80017
30.3534,798.727,-1.04775,0.49422,-2.01275
30.3735,798.747,-1.1125,0.10999,-2.2858
30.3953,798.767,-1.08134,-0.17223,-2.4373
30.4111,798.7869,-1.08318,-0.25226,-2.40553
30.4347,798.8069,-1.14854,-1.0531,-3.03839
30.4514,798.8269,-0.99521,-1.7165,-3.79342
30.4713,798.8469,-0.93168,-1.81424,-3.47821
30.4991,798.8669,0.14466,-2.29071,-2.43424
30.514,798.8869,1.91678,-3.24977,-2.33528
30.5335,798.9069,2.58446,-5.04755,-3.26136
30.5567,798.9269,2.42014,-6.31632,-4.66879
30.5718,798.9469,3.16478,-6.29188,-4.56861
30.5907,798.9669,3.84345,-4.63277,-3.27968
30.6147,798.9869,3.35354,-3.2852,-2.10254
30.6398,799.0069,2.53681,-2.66029,-1.47824
30.675,799.0269,2.06034,-2.83683,-1.58209
30.6837,799.0469,2.0188,-2.27239,-1.75008
30.6941,799.0669,2.36455,-1.64564,-1.10683
30.709,799.0869,2.35538,-0.66154,-0.15877
30.7311,799.1069,1.49467,0.08005,0.37085
30.7596,799.1269,0.61442,0.36655,0.4075
30.7794,799.147,0.39328,0.47162,0.41239
30.7903,799.167,0.84838,0.4368,0.48325
30.809,799.187,1.34196,0.73796,0.74775
30.8308,799.207,1.25094,0.98169,0.91452
30.8508,799.2271,0.77752,0.76789,0.67995
30.8697,799.2471,0.5851,0.6732,0.38612
30.8897,799.2671,0.50263,1.40746,0.37085
30.9111,799.2872,0.29982,1.94991,0.47653
30.9301,799.3072,0.2314,1.62432,0.2499
30.9527,799.3272,0.56433,1.23031,-0.11845
30.9734,799.3472,1.85142,2.1686,-0.49291
30.9908,799.3673,2.02307,2.51741,-0.66029
31.0129,799.3873,1.39449,2.53329,-0.20031
31.0395,799.4073,0.88931,2.19426,0.1772
31.0623,799.4274,0.50996,0.89128,0.31343
31.0747,799.4474,0.62969,0.48323,0.33908
31.0921,799.4674,0.74148,0.34456,0.31343
31.1108,799.4874,0.70238,0.16496,0.41666
31.1307,799.5075,0.63824,-0.06167,0.54556
31.1619,799.5275,0.69505,-0.0073,0.60115
31.1774,799.5475,0.71582,0.10815,0.51318
31.1963,799.5676,0.72987,0.31585,0.36474
31.2337,799.5876,0.72926,0.54492,0.25112
31.2353,799.6076,0.42505,0.63533,0.16743
31.2555,799.6276,-0.05815,0.98841,0.08802
31.2713,799.6477,-0.3086,1.2126,0.16438
31.2897,799.6677,-0.38251,1.08493,0.23768
31.3103,799.6877,-0.14916,0.6335,0.2554
31.3313,799.7077,0.1862,0.39465,0.40017
31.3501,799.7277,0.41161,0.41481,0.62436
31.3702,799.7477,0.32303,0.37449,0.63902
31.4129,799.7677,0.0176,0.347,0.49302
31.4495,799.7877,-0.28478,0.32074,0.38307
31.4532,799.8077,-0.32387,0.34578,0.33481
31.4572,799.8277,-0.25179,0.36899,0.37635
31.4705,799.8477,-0.12717,0.31035,0.39162
31.4906,799.8677,-0.03249,0.20589,0.35497
31.5124,799.8877,-0.01538,0.24132,0.38429
31.5323,799.9077,-0.04104,0.16924,0.39773
31.5595,799.9277,-0.03493,0.01164,0.30549
31.5804,799.9477,-0.07586,-0.01585,0.20775
31.5919,799.9677,-0.24568,0.07517,0.20714
31.611,799.9877,-0.40389,0.06173,0.1601
31.6327,800.0076,-0.32265,0.212,0.05076
31.658,800.0276,-0.2298,0.18207,0.0422
31.6801,800.0476,-0.19926,0.30485,0.09962
31.692,800.0676,-0.21514,0.4313,0.16193
31.7143,800.0876,-0.15222,0.53881,0.12895
31.7368,800.1076,-0.05998,0.45574,0.11429
31.7617,800.1276,0.09213,0.30058,0.12834
31.773,800.1476,0.22652,0.18696,0.13689
31.7889,800.1676,0.25645,0.16802,0.13444
31.8121,800.1876,0.21736,0.23277,0.13322
31.831,800.2076,0.18742,0.29508,0.1265
31.8534,800.2276,0.17582,0.35311,0.12589
31.8778,800.2476,0.13183,0.37938,0.08557
31.8907,800.2676,0.09885,0.40015,0.01716
31.91,800.2876,0.11717,0.27553,-0.02866
31.9329,800.3076,0.22224,0.13686,-0.03721
31.9725,800.3276,0.22713,0.12709,-0.00178
31.9778,800.3476,0.15688,0.13625,0.02388
31.9942,800.3676,0.11106,0.06967,-0.0201
32.0121,800.3876,0.15505,0.07395,-0.06531
32.0299,800.4075,0.18437,0.14114,-0.00605
32.0608,800.4275,0.17521,0.19245,0.00861
32.0774,800.4475,0.12511,0.20895,-0.06592
32.0929,800.4675,0.12023,0.19612,-0.15022
32.1148,800.4875,0.13428,0.1723,-0.13067
32.1318,800.5075,0.11534,0.1949,-0.06836
32.155,800.5275,0.0903,0.25598,-0.03843
32.1729,800.5475,-0.01294,0.2627,0.01899
32.1913,800.5675,-0.17665,0.17718,0.00189
32.2128,800.5875,-0.27439,-0.10748,-0.21619
32.2368,800.6075,-0.13023,-0.3109,-0.36952
32.2494,800.6275,0.02066,-0.30907,-0.44527
32.2708,800.6475,0.09701,-0.14291,-0.22352
32.2908,800.6675,0.0683,0.06051,-0.10318
32.3101,800.6875,-0.17299,-0.04639,-0.18198
32.3319,800.7075,-0.52546,-0.20094,-0.34814
32.3537,800.7275,-0.65252,-0.25226,-0.42083
32.3707,800.7475,-0.59204,-0.13802,-0.41045
32.391,800.7675,-0.32509,0.04157,-0.17404
32.4147,800.7875,-0.06059,-0.1252,-0.04149
32.4342,800.8075,0.01455,-0.33106,-0.06042
32.4543,800.8274,-0.14061,-0.46056,-0.27972
32.4788,800.8474,-0.3196,-0.36954,-0.61264
32.502,800.8674,-0.32143,0.10754,-0.75681
32.5126,800.8874,-0.24996,-0.16185,-0.29011
32.5316,800.9074,0.13306,0.22544,-0.17649
32.5496,800.9274,0.55028,0.5156,-0.26995
32.5698,800.9474,0.67062,0.39648,-0.35791
32.5963,800.9674,0.6193,0.09166,-0.66518
32.6157,800.9874,0.557,-0.27608,-0.9981
32.6406,801.0074,0.52584,-0.3671,-0.87898
32.6633,801.0274,0.35908,0.21811,-0.40862
32.6787,801.0474,0.12145,0.00797,-0.01705
32.6903,801.0674,0.02554,0.00064,0.17537
32.712,801.0874,0.19048,-0.08854,0.02938
32.7346,801.1074,0.21552,-0.07938,-0.03782
32.7622,801.1274,-0.18337,0.00919,-0.0201
32.7721,801.1474,-0.66718,0.01836,-0.01155
32.7897,801.1674,-0.78385,-0.02563,0.06603
32.809,801.1874,-0.66535,0.01164,-0.04943
32.8322,801.2074,-0.50408,0.06112,-0.29133
32.8524,801.2273,-0.68184,0.17718,-0.65296
32.8756,801.2473,-0.47292,-0.20888,-0.48864
32.8977,801.2673,-0.15039,-0.1533,-0.419
32.9204,801.2873,0.15077,-0.0018,-0.16121
32.9383,801.3073,0.17459,0.21322,-0.02988
32.954,801.3273,0.04998,0.40626,0.03243
32.9697,801.3473,-0.00744,0.32562,0.06969
32.9909,801.3673,0.12573,0.07089,0.07152
33.0243,801.3873,0.26378,-0.08427,0.04587
33.0409,801.4073,0.24362,-0.02135,0.08252
33.0524,801.4273,0.2595,0.0489,0.05625
33.0795,801.4473,0.32487,0.10754,0.0025
33.0903,801.4673,0.26073,0.14236,0.03609
33.1155,801.4873,0.04204,0.13259,0.02876
33.1506,801.5073,-0.14428,0.22849,0.18209
33.1543,801.5273,-0.00439,0.10693,0.33236
33.171,801.5473,0.10312,-0.00974,0.33725
33.2129,801.5673,0.02677,0.02691,0.28166
33.2154,801.5873,-0.05937,0.11793,0.15827
33.2317,801.6073,-0.08197,0.13748,0.12223
33.251,801.6273,0.07258,0.09166,0.11245
33.2706,801.6472,0.2088,0.06662,0.10696
33.2882,801.6672,0.22896,0.00736,0.1039
33.3105,801.6872,0.17215,-0.05983,0.01594
33.3292,801.7072,0.14222,-0.09526,-0.08241
33.3501,801.7272,0.10007,-0.13192,-0.14045
33.3731,801.7472,0.05914,-0.10992,-0.18076
33.3905,801.7672,0.11106,-0.00547,-0.16183
33.4088,801.7872,0.20514,0.00797,-0.14655
33.4318,801.8072,0.20941,0.00553,-0.13434
33.4498,801.8272,0.13489,0.02752,-0.0421
33.4734,801.8472,0.08541,0.02508,0.05809
33.4956,801.8672,0.09091,0.07028,0.13261
33.525,801.8872,0.02188,0.13137,0.14788
33.5349,801.9072,-0.03738,0.12343,0.11612
33.5559,801.9272,-0.06364,0.06723,0.07275
33.5707,801.9472,-0.03921,0.0599,0.10024
33.5926,801.9672,0.04326,0.06845,0.15705
33.6131,801.9872,0.20025,0.09777,0.13933
33.6392,802.0072,0.27111,0.07883,0.03915
33.6646,802.0272,0.2314,0.0434,-0.00483
33.6789,802.0471,0.19231,0.0153,0.02815
33.691,802.0671,0.19048,-0.0244,0.06053
33.7099,802.0871,0.17582,-0.01463,0.07152
33.7334,802.1071,0.09763,0.00797,0.04404
33.7509,802.1271,0.0231,0.06112,5e-05
33.77,802.1471,-0.04287,0.10693,-0.0201
33.7918,802.1671,-0.0722,0.10327,-0.06225
33.8093,802.1871,-0.15161,-0.02501,-0.11784
33.8291,802.2071,-0.26767,-0.07633,-0.09646
33.8519,802.2271,-0.35686,-0.04334,-0.07264
33.87,802.2471,-0.39595,0.00309,-0.06836
33.894,802.2671,-0.32937,-0.05617,-0.11235
33.9193,802.2871,-0.2353,-0.07816,-0.08486
33.9363,802.3071,-0.16382,-0.06106,-0.03965
33.9545,802.3271,-0.13939,-0.01952,-0.01339
33.9739,802.3471,-0.16016,-0.01891,-0.02194
33.9923,802.3672,-0.22369,-0.01646,-0.0201
34.0125,802.3872,-0.26462,0.00614,-0.01155
34.0366,802.4072,-0.18521,-0.00547,0.00433
34.0532,802.4273,-0.0557,-0.01463,0.0306
34.0718,802.4473,-0.02699,0.01225,0.0251
34.0973,802.4673,-0.11068,0.03302,0.01838
34.1124,802.4873,-0.18398,0.02019,0.0306
34.1328,802.5074,-0.1345,-0.00608,0.05381
34.159,802.5274,-0.0722,-0.01341,0.05014
34.1724,802.5474,-0.09663,-0.03479,0.0251
34.1949,802.5675,-0.1119,-0.08305,0.01471
34.2166,802.5875,-0.08197,-0.12642,0.01716
34.2346,802.6075,-0.08563,-0.12214,-0.02133
34.261,802.6275,-0.12656,-0.13253,-0.06531
34.282,802.6476,-0.08808,-0.1478,-0.08119
34.2938,802.6676,-0.03127,-0.07938,-0.07814
34.3121,802.6876,-0.03554,-0.00913,-0.05737
34.3322,802.7077,-0.07586,0.02996,-0.03354
34.3513,802.7277,-0.08197,0.02508,-0.01461
34.3734,802.7477,-0.03554,0.03302,0.01899
34.399,802.7677,-0.00011,-0.00486,0.0306
34.4203,802.7878,0.00538,-0.02501,0.05992
34.4326,802.8078,0.00905,-0.06044,0.07641
34.4545,802.8278,0.06281,-0.07755,0.07091
34.4721,802.8479,0.08541,-0.04762,0.04587
34.4987,802.8679,0.06158,0.01836,0.01166
34.5164,802.8879,0.03837,0.04157,0.00311
34.5343,802.9079,0.02371,-0.02624,0.00311
34.5581,802.9279,-0.00195,-0.04762,0.02449
34.58,802.9479,-0.03432,-0.04762,0.04037
34.5924,802.9679,-0.01661,-0.03968,0.02082
34.6147,802.9879,-0.01416,-0.03784,0.0141
34.6404,803.0079,-0.03738,-0.0073,0.00189
34.6574,803.0279,-0.05937,-0.00302,-0.0085
34.6797,803.0479,-0.0276,-0.02135,0.00189
34.6922,803.0679,0.00905,-0.02501,-0.014
34.7116,803.0879,0.03287,-0.00913,-0.02927
34.7349,803.1079,0.0286,-0.00302,-0.01094
34.7576,803.1279,-0.00011,-0.00547,0.00922
34.7697,803.1479,-0.02455,0.00125,0.02632
34.7895,803.1679,-0.03005,-0.01158,0.02876
34.8123,803.1879,-0.03554,-0.01219,0.02449
34.8329,803.2079,-0.02333,0.00553,0.02693
34.8499,803.2279,0.00477,0.00736,0.0251
34.8721,803.2479,0.04937,0.00431,0.05137
34.8921,803.2679,0.0738,-0.00119,0.05381
34.91,803.2878,0.03776,-0.00913,0.04587
34.9351,803.3078,0.01149,-0.0018,0.04098
34.9517,803.3278,-0.0221,0.0098,0.04037
34.9706,803.3478,-0.05143,0.01652,0.04037
34.9985,803.3678,-0.03982,0.01408,0.02266
35.0178,803.3878,-0.02516,-0.01219,0.01471
35.0379,803.4078,-0.01172,-0.0128,0.00372
35.0579,803.4278,-0.01233,3e-05,-0.00178
35.0722,803.4478,-0.02455,0.00919,0.00738
35.0921,803.4678,-0.00989,0.01652,0.008
35.1117,803.4878,-0.01355,-0.01035,-0.01339
35.1332,803.5078,-0.03554,-0.02746,-0.01094
35.1531,803.5278,-0.01355,-0.00486,0.00861
35.2001,803.5478,0.01638,0.03607,0.0251
35.2025,803.5678,0.0005,0.02324,0.008
35.2093,803.5878,-0.02699,0.00492,-0.00972
35.231,803.6078,-0.05876,-0.00424,-0.01216
35.2485,803.6278,-0.08625,0.0098,-0.00422
35.2694,803.6478,-0.07525,0.01469,5e-05
35.3033,803.6678,-0.02516,0.01591,0.01227
35.3133,803.6878,0.03287,0.01408,0.01227
35.3307,803.7077,0.01516,0.01652,0.01716
35.3542,803.7277,-0.00133,0.00431,0.0141
35.3715,803.7477,0.01699,0.03424,0.02632
35.3904,803.7677,0.02371,0.00919,0.02204
35.4122,803.7877,-0.0105,0.01836,0.01471
35.4338,803.8078,-0.00744,0.01164,0.01533
35.4602,803.8278,-0.01172,0.01408,0.02082
35.4806,803.8478,-0.03188,-0.00241,0.01716
35.4924,803.8678,-0.05326,0.00247,0.01349
35.5123,803.8879,-0.0502,-0.01829,0.01044
35.5334,803.9079,-0.00683,0.01103,0.03487
35.5525,803.9279,-0.00317,-0.00547,0.03487
35.5753,803.948,-0.04776,-0.02318,0.02082
35.6059,803.968,-0.06853,-0.0073,0.03304
35.6209,803.988,-0.06425,-0.00119,0.03365
35.6401,804.008,-0.10824,-0.02868,-0.01216
35.66,804.0281,-0.16871,-0.05006,-0.04087
35.6805,804.0481,-0.15039,-0.05556,-0.07569
35.6914,804.0681,-0.0386,-0.04945,-0.08547
35.7144,804.0882,0.09091,-0.05006,-0.10196
35.7392,804.1082,0.13183,-0.03296,-0.06348
35.7562,804.1282,-0.04532,-0.05556,-0.06653
35.7785,804.1482,-0.29638,-0.17773,-0.10135
35.7916,804.1683,-0.38374,-0.21072,-0.06958
35.813,804.1883,-0.27134,-0.21499,0.04831
35.833,804.2083,0.20147,-0.4007,-0.04454
35.8548,804.2283,0.4,-0.45995,-0.23208
35.8728,804.2484,0.28822,-0.32251,-0.18809
35.8947,804.2684,0.06586,-0.02257,-0.03965
35.9128,804.2884,-0.19864,0.21261,0.01838
35.9321,804.3085,-0.26401,0.36777,0.02815
35.9537,804.3285,-0.21941,0.36716,0.06603
35.974,804.3485,-0.18398,0.23521,0.07397
35.9962,804.3685,-0.07036,0.10571,-0.0421
36.0152,804.3886,0.03471,0.09838,-0.22841
36.0339,804.4086,0.05364,0.13625,-0.24246
36.0539,804.4286,0.0622,0.12892,-0.17038
36.0839,804.4486,0.00966,0.13442,-0.03721
36.0951,804.4686,-0.04959,0.11426,0.0306
36.112,804.4886,-0.05081,0.07761,0.02754
36.134,804.5085,-0.02088,0.03119,5e-05
36.152,804.5285,0.0567,0.00675,-0.02072
36.1714,804.5485,0.13,0.03668,0.01533
36.1943,804.5685,0.11534,0.08311,0.06847
36.2133,804.5885,0.06036,0.07944,0.0532
36.2384,804.6085,0.02066,0.02813,0.02815
36.2772,804.6285,0.00477,-0.03601,0.008
36.2931,804.6485,0.01272,-0.04578,0.00128
36.2967,804.6685,0.00844,0.00553,0.01533
36.315,804.6885,-0.03249,0.03546,0.02449
36.3325,804.7085,-0.09419,0.05134,0.02632
36.3564,804.7285,-0.11923,0.02141,0.02632
36.3827,804.7485,-0.07647,0.04768,0.01288
36.3949,804.7685,-0.06609,0.06173,0.02754
36.4119,804.7885,-0.04532,0.03302,0.0477
36.438,804.8085,0.03348,0.05929,0.05259
36.4547,804.8285,0.06342,0.06845,0.05686
36.4821,804.8485,0.04937,0.06356,0.05442
36.4978,804.8685,0.02677,0.03607,0.0587
36.5167,804.8885,0.05364,0.07272,0.07091
36.5327,804.9085,0.06525,0.05806,0.06969
36.5543,804.9284,0.03959,0.0434,0.07702
36.5735,804.9484,0.04265,0.0434,0.06481
36.597,804.9684,0.05792,0.02935,0.06725
36.615,804.9884,0.04937,0.02569,0.06175
36.6319,805.0084,0.0121,0.03302,0.0532
36.6571,805.0284,-0.01477,0.04768,0.04281
36.674,805.0484,-0.02516,0.01652,0.05809
36.6916,805.0684,-0.0276,0.02813,0.06542
36.7113,805.0885,-0.0221,0.05562,0.06175
36.7629,805.1085,-0.02333,0.00919,0.06358
36.7656,805.1285,0.00111,-0.10931,0.04526
36.7721,805.1486,0.0738,-0.24065,0.04159
36.7971,805.1686,0.19109,-0.30174,0.04159
36.8102,805.1886,0.20269,-0.21805,0.05503
36.831,805.2086,0.12817,-0.05922,0.0758
36.8553,805.2287,0.0286,0.10571,0.05686
36.8778,805.2487,-0.02455,0.11915,0.0477
36.8992,805.2687,0.00783,0.02996,0.03426
36.9186,805.2888,0.05303,-0.01585,0.00861
36.9323,805.3088,0.04387,0.00797,-0.003
36.9542,805.3288,-0.00317,0.05012,0.00372
36.9729,805.3488,-0.05143,0.08433,0.00861
36.9976,805.3689,-0.08991,0.06845,0.0025
37.0171,805.3889,-0.12778,0.02813,0.02266
37.0416,805.409,-0.14306,0.03302,0.06358
37.0555,805.4291,-0.1174,0.02141,0.09413
37.0742,805.4491,-0.06425,-0.00913,0.11123
37.0957,805.4692,-0.02882,-0.03479,0.11734
37.1128,805.4892,0.0121,0.00553,0.10634
37.1338,805.5093,0.01272,0.0208,0.0813
37.1619,805.5294,-0.00378,0.05195,0.04648
37.2024,805.5494,-0.04104,0.06906,0.02449
37.2062,805.5695,-0.04165,0.06662,0.0251
37.2173,805.5895,-0.00378,0.04524,0.02204
37.2316,805.6096,0.0121,0.02447,0.00494
37.2549,805.6297,0.0005,0.0208,0.01899
37.2753,805.6497,-0.01905,0.03668,0.0251
37.2964,805.6698,-0.00928,0.06478,0.03487
37.3136,805.6898,0.02127,0.04768,0.04098
37.3351,805.7098,0.00844,0.03974,0.05442
37.3535,805.7299,-0.02699,0.05134,0.04831
37.3734,805.7499,-0.01783,0.04951,0.02876
37.3959,805.7699,0.00111,0.00919,0.02754
37.4147,805.7899,-0.01294,-0.02257,0.00861
37.4366,805.81,-0.07403,-0.03662,-0.01339
37.4618,805.83,-0.12229,-0.07266,-0.00728
37.4722,805.85,-0.04104,-0.09282,0.0196
37.4917,805.8701,0.07686,-0.10198,0.07886
37.5154,805.8901,0.15505,-0.06533,0.12223
37.5328,805.9101,0.22469,-0.12642,0.10634
37.5522,805.9301,0.23446,-0.25898,0.07336
37.5786,805.9502,-0.06914,-0.3616,-0.03232
37.5936,805.9702,-0.14122,-0.27303,-0.07203
37.6142,805.9902,-0.09419,-0.08182,-0.07325
37.6422,806.0102,0.05792,0.00431,-0.06958
37.6751,806.0302,0.10373,-0.04029,-0.12884
37.6848,806.0502,0.05914,-0.09526,-0.14106
37.6953,806.0702,0.07686,-0.11848,-0.14289
37.716,806.0902,0.1245,-0.12886,-0.16366
37.7329,806.1102,0.13183,-0.08671,-0.18809
37.7652,806.1302,0.13489,-0.02624,-0.14411
37.7836,806.1502,0.22163,-0.00608,-0.09646
37.8018,806.1701,0.31509,-0.03601,-0.0702
37.8128,806.1901,0.33831,-0.03601,-0.04149
37.8314,806.2101,0.28394,-0.00547,-0.01277
37.8518,806.2301,0.18681,0.03424,0.03732
37.8749,806.2501,0.08785,0.09044,0.09596
37.8917,806.2701,0.01455,0.11976,0.12834
37.9128,806.2901,-0.00256,0.10388,0.15582
37.9384,806.3101,-0.01416,0.088,0.15338
37.9533,806.3301,-0.04837,0.07639,0.12223
37.9805,806.3501,-0.08625,0.07028,0.08924
37.9961,806.3701,-0.11496,0.07456,0.06175
38.013,806.3901,-0.11862,0.077,0.03243
38.036,806.4101,-0.10029,0.066,0.00983
38.054,806.4301,-0.06486,0.05379,-0.00361
38.0771,806.4501,-0.04471,0.04585,-0.00483
38.0925,806.4701,-0.04287,0.03913,-0.01644
38.1143,806.4901,-0.06731,0.0208,-0.02927
38.133,806.5101,-0.06364,0.01408,-0.03232
38.1583,806.5301,-0.03188,0.00553,-0.02805
38.1811,806.5501,-0.016,-0.00302,-0.02316
38.1963,806.57,-0.01355,0.00919,-0.02194
38.2187,806.59,-0.00928,0.02263,-0.02377
38.2376,806.6101,-0.00867,-0.00241,-0.02377
38.2541,806.6301,0.01272,-0.00119,-0.02255
38.2776,806.6501,0.0286,0.02508,-0.01949
38.3045,806.6702,0.01272,0.01164,-0.01766
38.3154,806.6902,0.00661,-0.00974,-0.014
38.3364,806.7102,0.01149,-0.00974,-0.01583
38.3574,806.7302,-0.01294,0.01408,-0.01522
38.3751,806.7503,-0.0441,0.02263,-0.01644
38.3957,806.7703,-0.02943,-0.01524,-0.03232
38.4171,806.7903,0.04143,-0.17468,-0.08669
38.4373,806.8104,0.13733,-0.32067,-0.11479
38.4568,806.8305,0.24118,-0.41352,-0.11235
38.4853,806.8505,0.29371,-0.41047,-0.06775
38.5125,806.8706,0.30349,-0.32189,-0.01644
38.5205,806.8906,0.20575,-0.30907,0.0813
38.5419,806.9107,0.15199,-0.29807,0.16315
38.5601,806.9308,0.13367,-0.1533,0.16621
38.5772,806.9508,0.01943,-0.1985,0.14483
38.5985,806.9709,-0.03432,-0.13375,0.11795
38.6148,806.9909,-0.04348,0.03302,0.07641
38.635,807.011,-0.00561,0.09716,0.00861
38.6732,807.0311,0.05975,0.08494,-0.03599
38.6947,807.0511,0.07991,0.0599,0.00738
38.7017,807.0712,0.06158,0.14725,0.0477
38.7258,807.0913,-0.00928,0.21567,0.01533
38.7344,807.1113,-0.09174,0.19429,-0.00667
38.7644,807.1314,-0.19376,0.1387,-0.01888
38.7785,807.1514,-0.32082,0.05867,-0.03965
38.7955,807.1715,-0.40634,-0.03357,-0.04026
38.8218,807.1916,-0.34342,-0.06777,-0.06164
38.8351,807.2116,-0.22247,-0.04639,-0.06042
38.8531,807.2316,-0.05937,0.02202,-0.03232
38.8733,807.2516,0.0176,0.03546,0.02082
38.8954,807.2717,0.02127,0.0318,0.03609
38.9133,807.2917,-0.01294,0.05379,0.03182
38.9363,807.3117,-0.04287,0.06906,0.01594
38.9759,807.3318,-0.05143,0.03668,0.01349
38.9879,807.3518,-0.06181,0.00186,0.01899
38.9991,807.3718,-0.05815,0.01103,0.02449
39.0186,807.3918,-0.03554,0.02508,0.04037
39.034,807.4118,0.00172,0.02263,0.03487
39.0616,807.4318,0.0341,0.02202,0.02815
39.0808,807.4518,-0.00072,0.01347,0.01471
39.0998,807.4719,-0.07158,0.04279,0.00616
39.1169,807.4919,-0.12534,0.03913,-0.00422
39.1372,807.5119,-0.11129,0.05134,-0.00056
39.165,807.5319,-0.03249,0.03729,-0.00361
39.1771,807.552,0.04509,0.03729,-0.01461
39.2251,807.572,0.07625,0.06234,-0.00178
39.2272,807.592,0.01333,0.00309,0.00433
39.24,807.6121,-0.03371,-0.03845,-0.00483
39.2566,807.6321,-0.02943,-0.01891,-0.02621
39.2752,807.6521,-0.02394,0.01408,-0.0256
39.2952,807.6721,-0.00561,3e-05,-0.02744
39.3183,807.6922,-0.02882,-0.00119,-0.04087
39.3381,807.7122,-0.0557,0.00064,-0.03232
39.3615,807.7322,-0.03554,-0.02501,-0.02133
39.3808,807.7523,-0.04287,-0.00669,-0.01522
39.3966,807.7723,-0.06486,0.00919,-0.01827
39.4171,807.7923,-0.02272,0.02202,-0.00728
39.4398,807.8123,0.02738,-0.01341,0.00372
39.458,807.8324,0.03165,-0.0018,0.00433
39.4776,807.8524,-0.00256,0.00675,-0.00361
39.5009,807.8724,-0.01111,0.01164,0.00128
39.5219,807.8925,-0.00072,-0.00791,0.00738
39.5396,807.9125,0.01577,-0.00302,0.00066
39.5615,807.9325,0.03226,0.01286,0.00311
39.5766,807.9525,0.0567,0.00736,0.00555
39.5986,807.9726,0.03654,-0.00669,0.00738
39.6232,807.9926,-0.00622,-0.00363,-0.00239
39.6397,808.0126,-0.005,-0.00302,-0.01155
39.6646,808.0327,0.02921,-0.03845,-0.01216
39.6834,808.0527,0.04387,-0.03601,-0.00667
39.6976,808.0727,0.01699,-0.01341,-0.00239
39.7149,808.0927,0.02188,-0.01341,0.00372
39.736,808.1127,0.02921,-0.02563,0.01105
39.759,808.1327,0.01882,-0.01829,0.01777
39.7781,808.1527,0.01699,-0.00486,0.01594
39.7989,808.1727,0.02005,-0.01219,0.00983
39.8181,808.1926,0.02127,-0.02013,0.02204
39.8351,808.2126,0.02738,-0.00486,0.0251
39.8568,808.2326,0.01943,0.01347,0.01655
39.8755,808.2526,0.00783,0.00064,0.00555
39.8957,808.2726,0.01455,-0.00913,0.01044
39.9207,808.2926,0.02371,-0.00424,0.02327
39.9368,808.3126,0.03471,-0.00302,0.02571
39.959,808.3326,0.0341,0.00247,0.03365
39.9848,808.3526,0.03471,0.0208,0.03854
39.9966,808.3726,0.05242,0.01408,0.02266
40.0174,808.3926,0.0402,0.0153,0.01716
40.0422,808.4126,0.01943,0.00736,0.008
40.0563,808.4326,0.03715,0.01958,0.00861
40.0795,808.4526,0.04081,0.00614,0.00433
40.1009,808.4726,0.03532,0.04096,0.00983
40.1182,808.4926,0.02188,0.03607,0.01044
40.1362,808.5126,-0.01294,0.01469,0.01166
40.1581,808.5326,-0.02272,-0.01463,0.00555
40.1782,808.5526,-0.02577,-0.00302,0.02082
40.1989,808.5726,-0.03493,0.01103,0.02815
40.222,808.5926,-0.02149,0.01652,0.02693
40.24,808.6125,0.0121,-0.00608,0.02815
40.2681,808.6325,0.02371,-0.01463,0.02815
40.2777,808.6525,0.00233,0.00247,0.03609
40.2963,808.6725,-0.00683,0.02263,0.03671
40.3184,808.6925,-0.0105,0.00125,0.02815
40.3372,808.7125,-0.01294,-0.01035,0.02449
40.3561,808.7325,-0.01416,-0.01158,0.02999
40.3836,808.7525,0.00538,0.01347,0.0306
40.4077,808.7725,0.03348,0.02569,0.02754
40.4225,808.7925,0.04509,0.00553,0.02327
40.4416,808.8125,0.03287,0.0098,0.01471
40.4588,808.8325,0.02371,0.03485,0.00983
40.4773,808.8525,0.03654,0.03241,0.01716
40.4975,808.8725,0.04876,0.00431,0.00922
40.5183,808.8925,-0.00133,-0.01524,5e-05
40.5389,808.9125,-0.04165,-0.01707,-0.00361
40.5596,808.9325,-0.02027,-0.00608,0.00189
40.5778,808.9525,0.00233,-0.00547,0.00372
40.596,808.9725,-0.00439,-0.02074,0.01288
40.616,808.9925,-0.016,-0.02563,0.01349
40.6424,809.0124,-0.01172,-0.00547,0.01594
40.6656,809.0324,0.0005,0.01347,0.02021
40.6855,809.0524,0.02005,0.0208,0.02388
40.7041,809.0724,0.01882,0.00064,0.02449
40.7156,809.0924,-0.00133,-0.01219,0.0251
40.7379,809.1124,-0.02333,-0.00852,0.02938
40.7634,809.1324,-0.02455,-0.01035,0.02999
40.774,809.1524,-0.00683,-0.01524,0.02693
40.7952,809.1725,0.02677,-0.00302,0.03243
40.8171,809.1925,0.0176,0.01225,0.03609
40.8396,809.2125,-0.01355,-0.00119,0.02999
40.8572,809.2326,-0.05143,-0.02074,0.02449
40.8773,809.2526,-0.06609,-0.02807,0.03365
40.8968,809.2726,-0.0441,-0.01219,0.04281
40.9164,809.2926,-0.00133,0.01897,0.04343
40.9377,809.3127,0.00416,0.0153,0.04587
40.9562,809.3327,-0.02638,-0.00424,0.03365
40.9859,809.3527,-0.05204,-0.01096,0.02327
40.9995,809.3728,-0.02943,0.00247,0.02204
41.0239,809.3928,-0.00378,-0.00302,0.02266
41.0373,809.4128,0.00355,-0.0018,0.01288
41.0575,809.4328,-0.00133,0.01775,0.00922
41.0768,809.4529,0.00355,0.00675,0.00433
41.0965,809.4729,0.01699,0.0037,0.00311
41.1235,809.4929,0.02005,0.01164,-0.00056
41.1426,809.513,0.02127,0.02141,0.00983
41.1609,809.533,0.02432,0.01836,0.01105
41.2009,809.553,0.02677,0.01469,0.01471
41.2034,809.573,0.02921,0.00064,0.01899
41.2172,809.5931,0.00966,-0.00241,0.02143
41.2373,809.6131,-0.00561,0.00492,0.02632
41.2605,809.6331,-0.00011,0.01103,0.03304
41.2845,809.6532,0.00477,0.00919,0.03426
41.2973,809.6732,-0.01661,-0.00424,0.03243
41.318,809.6932,-0.05998,-0.01524,0.0306
41.3384,809.7132,-0.09602,-0.00241,0.03671
41.3578,809.7333,-0.10396,0.00431,0.02876
41.3769,809.7533,-0.06975,0.00614,0.01899
41.3971,809.7733,-0.04043,-0.00913,0.0141
41.4217,809.7933,-0.05204,0.00492,0.0141
41.4452,809.8133,-0.04715,0.02141,0.01288
41.4631,809.8332,-0.01172,0.03057,0.00555
41.4882,809.8532,0.00661,0.0098,-0.00422
41.5041,809.8732,-0.03066,-0.01646,-0.01339
41.522,809.8932,-0.07158,-0.00974,-0.02805
41.5401,809.9132,-0.04226,0.00736,-0.03415
41.558,809.9332,0.00477,-0.01768,-0.0256
41.5784,809.9532,0.02188,-0.03173,-0.01155
41.5982,809.9732,0.03776,-0.00302,0.01105
41.6197,809.9932,0.04876,-0.00302,0.01899
41.6367,810.0132,0.04631,-0.01402,0.01349
41.6584,810.0332,0.03043,-0.02074,-0.00056
41.6867,810.0532,0.00783,-0.01829,-0.00422
41.6976,810.0732,-0.00561,-0.01219,-0.003
41.7184,810.0932,-0.02638,-0.01585,0.00922
41.7363,810.1132,-0.0502,0.0098,0.008
41.7658,810.1332,-0.06242,0.01408,0.00922
41.7816,810.1532,-0.08136,0.00309,0.00066
41.7972,810.1732,-0.0893,0.01042,0.00922
41.8157,810.1933,-0.07097,0.00492,0.02327
41.8389,810.2133,-0.03615,0.00858,0.02938
41.8576,810.2333,-0.0386,0.0153,0.03304
41.876,810.2533,-0.04898,0.01164,0.03243
41.8974,810.2734,-0.04348,0.01469,0.02754
41.9157,810.2934,-0.02027,-0.00119,0.0306
41.9438,810.3134,-0.00561,-0.01952,0.02876
41.9649,810.3335,-0.00622,-0.01952,0.0141
41.9805,810.3535,-0.00622,-0.01341,0.00555
41.9976,810.3735,0.01149,-0.01158,0.00128
42.0209,810.3935,0.02188,-0.01402,-0.00483
42.0371,810.4136,0.02432,0.00553,-0.02072
42.0586,810.4336,0.01394,-0.00302,-0.02255
42.0908,810.4536,0.01821,-0.02379,-0.02499
42.1093,810.4737,0.01882,-0.03112,-0.01583
42.1261,810.4937,0.03287,-0.01341,-0.00605
42.1409,810.5137,0.04753,-0.00424,-0.00178
42.16,810.5337,0.02677,-0.0128,-0.00728
42.1771,810.5538,-0.02699,-0.01829,-0.014
42.21,810.5738,-0.05937,-0.0018,-0.00422
42.2231,810.5938,-0.08625,-0.00486,-0.00239
42.2503,810.6139,-0.11801,-0.03296,-0.00178
42.2659,810.6339,-0.10701,0.00125,0.0141
42.2845,810.6539,-0.05387,0.02935,0.03854
42.2993,810.6739,-0.02333,0.02874,0.04831
42.3196,810.694,-0.03493,-0.00974,0.03609
42.3476,810.714,-0.04043,-0.02501,0.02876
42.3708,810.734,-0.03738,-0.02135,0.0306
42.38,810.754,-0.00561,-0.00302,0.02754
42.3969,810.774,0.01943,0.00309,0.02143
42.4169,810.794,0.02371,0.01042,0.01899
42.4395,810.814,0.02677,0.01836,0.02449
42.4613,810.834,0.02738,0.0208,0.02938
42.4861,810.854,0.02921,0.02141,0.0306
42.4997,810.874,0.02249,0.00247,0.02021
42.5179,810.894,-0.005,-0.00058,0.02082
42.5462,810.914,-0.00867,0.00736,0.01533
42.562,810.934,0.01149,0.02202,0.02327
42.5802,810.954,0.03226,0.01775,0.03121
42.599,810.974,0.0286,0.01775,0.02938
42.6188,810.994,0.01699,0.00797,0.00983
42.6417,811.014,0.05181,-0.04945,-0.03293
42.679,811.034,0.05975,-0.13253,-0.01277
42.688,811.0539,-0.01722,-0.19789,0.0196
42.6996,811.074,-0.11251,-0.18323,-0.02255
42.719,811.094,-0.10763,-0.09587,-0.04637
42.7552,811.114,-0.03432,-0.04945,-0.04576
42.7794,811.1341,0.01516,-0.05617,-0.0201
42.7818,811.1541,-0.00561,-0.06533,-0.0085
42.8034,811.1741,-0.04165,-0.03234,-0.01155
42.8187,811.1942,-0.0331,0.01164,-0.02072
42.8362,811.2142,-0.00928,0.00736,-0.00972
42.8599,811.2342,0.00111,-0.00791,0.00066
42.8772,811.2542,0.00355,0.0098,0.00494
42.8967,811.2743,-0.00683,0.02141,-0.00117
42.9211,811.2943,-0.03066,0.00064,-0.00728
42.9424,811.3143,-0.02699,-0.00486,-0.01216
42.9616,811.3343,0.01149,0.00431,-0.00728
42.9842,811.3544,0.03043,-0.00608,-0.01766
42.9967,811.3744,-0.00378,-0.04884,-0.03293
43.0167,811.3944,-0.016,-0.08916,-0.04026
43.0383,811.4145,-0.02699,-0.11725,-0.02988
43.0568,811.4345,-0.06731,-0.12459,-0.0201
43.0776,811.4545,-0.06181,-0.10015,-0.02682
43.1037,811.4745,0.00416,-0.06044,-0.0421
43.1176,811.4946,0.02677,-0.058,-0.02805
43.1373,811.5146,-0.00805,-0.05189,-0.02438
43.167,811.5346,-0.04043,-0.02379,-0.02927
43.1786,811.5547,-0.01355,-0.00424,-0.02744
43.2149,811.5747,0.03532,-0.00302,-0.01827
43.2185,811.5947,0.04265,0.01103,-0.00667
43.2379,811.6147,0.006,0.00858,0.00494
43.2586,811.6348,-0.0221,-0.00791,0.0025
43.2821,811.6548,-0.01966,-0.01158,0.00372
43.2968,811.6748,-0.01416,0.00797,0.01166
43.3175,811.6948,-0.00195,0.01286,0.00677
43.3386,811.7148,0.00661,0.00247,0.0141
43.3586,811.7348,0.01088,0.00919,0.02204
43.379,811.7548,0.0121,0.03119,0.02143
43.406,811.7748,-0.00439,0.01652,0.00677
43.4211,811.7948,0.00477,0.01164,0.00066
43.4391,811.8148,0.01699,0.02813,0.00983
43.4585,811.8348,0.02005,0.0318,0.00922
43.4771,811.8548,0.01149,0.03302,0.00494
43.504,811.8748,0.01943,0.02447,0.00311
43.522,811.8947,0.03471,0.0263,0.00494
43.5397,811.9147,0.03043,0.03241,0.00494
43.559,811.9347,0.03776,0.04646,0.00494
43.5818,811.9547,0.02799,0.03668,0.0025
43.5994,811.9747,0.00477,0.02019,-0.00056
43.619,811.9947,0.00722,0.02996,0.0196
43.6411,812.0147,0.00905,0.02935,0.03243
43.6793,812.0347,-0.00744,0.01591,0.04404
43.6973,812.0547,-0.02394,0.00858,0.05381
43.7058,812.0747,-0.01783,0.00309,0.0758
43.7175,812.0947,-0.00256,-0.00852,0.09046
43.7369,812.1147,0.0176,0.00858,0.08374
43.7595,812.1347,0.01027,3e-05,0.0587
43.7794,812.1547,-0.016,-0.02135,0.04953
43.8042,812.1747,-0.0221,-0.01524,0.02938
43.8179,812.1947,0.01272,0.00186,0.01166
43.8362,812.2147,0.04448,-0.0018,0.00311
43.8582,812.2347,0.04815,-0.00119,0.01533
43.8795,812.2547,0.04387,3e-05,0.00738
43.8969,812.2747,0.04143,-0.0018,-0.00239
43.9195,812.2946,0.04815,-0.00363,-0.00911
43.9413,812.3146,0.02371,0.00858,-0.00544
43.9569,812.3346,-0.00378,0.00064,-0.01033
43.9766,812.3546,0.00355,-0.00974,-0.00789
43.9981,812.3746,0.03165,3e-05,-0.00667
44.0189,812.3946,0.02982,-0.01035,-0.00178
44.0383,812.4146,0.01272,-0.00913,0.00311
44.0588,812.4346,0.0121,-0.00547,0.00128
44.0773,812.4546,0.02371,-0.00241,0.00311
44.105,812.4746,0.0231,-0.00486,-0.00667
44.1241,812.4946,0.02493,0.00492,-0.01339
44.138,812.5146,0.01638,-0.00302,-0.01644
44.1573,812.5346,0.01333,-0.0018,-0.0085
44.1874,812.5546,0.01027,-0.00241,0.00066
44.2065,812.5746,0.01088,-0.0073,0.00433
44.2182,812.5946,0.00783,-0.00608,0.00738
44.2403,812.6146,0.00355,-0.00974,0.01716
44.2605,812.6346,0.00844,-0.01524,0.02449
44.2808,812.6546,0.01699,-0.01341,0.02204
44.2997,812.6746,0.03104,-0.01158,0.01838
44.3189,812.6945,0.02066,-0.00608,0.01716
44.3389,812.7145,0.00477,-0.00119,0.01655
44.3608,812.7345,0.00661,-0.0128,0.01105
44.3788,812.7545,0.00966,-0.01524,0.01288
44.3992,812.7745,0.0176,-0.00791,0.02449
44.4196,812.7945,0.02615,-0.00547,0.03732
44.4378,812.8145,0.02249,-0.02013,0.02876
44.4605,812.8345,0.01027,-0.0073,0.02327
44.4873,812.8545,0.00966,0.01591,0.03182
44.5021,812.8745,0.02127,0.02447,0.02938
44.5257,812.8945,0.0121,0.02263,0.01105
44.5454,812.9145,-0.01538,0.01286,-0.01339
44.5609,812.9345,-0.03371,0.00919,-0.0201
44.5783,812.9545,-0.02027,-0.0018,-0.00483
44.5998,812.9745,0.0231,0.00614,0.00983
44.6179,812.9945,0.05059,0.01225,0.01105
44.6399,813.0145,0.04448,0.01347,0.01227
44.6618,813.0345,0.03532,0.00309,0.01594
44.6765,813.0545,0.03165,-0.00852,0.01716
44.6971,813.0745,0.03104,-0.01402,0.01044
44.7192,813.0945,0.03287,0.00186,0.00861
44.7418,813.1144,0.0286,-0.00852,-0.00483
44.7662,813.1344,0.01943,-0.01158,-0.00361
44.7793,813.1544,-0.00072,-0.00424,-0.00056
44.7978,813.1744,-0.01477,-0.00363,5e-05
44.8173,813.1944,-0.01416,-0.03357,-0.00911
44.8383,813.2144,-0.02027,-0.03845,-0.01094
44.8557,813.2344,-0.02516,-0.01707,-0.01216
44.8767,813.2544,-0.01783,-0.01341,-0.00422
44.9026,813.2744,-0.00439,-0.0244,-0.01216
44.9188,813.2944,-0.01538,-0.02318,-0.01949
44.9395,813.3144,-0.03554,-0.0073,-0.01766
44.9671,813.3344,-0.03493,-0.00974,-0.02377
44.9818,813.3544,-0.0276,-0.02318,-0.02621
45.0054,813.3744,-0.03127,-0.03479,-0.01644
45.0239,813.3944,-0.05692,-0.02624,-0.00972
45.0424,813.4144,-0.07158,-0.04212,-0.00422
45.0613,813.4344,-0.06486,-0.03845,-0.00605
45.0794,813.4544,-0.06303,-0.03173,-0.00483
45.0967,813.4744,-0.0386,-0.01707,-0.00911
45.1173,813.4944,-0.01661,-0.03479,-0.01155
45.1386,813.5144,-0.00133,-0.05617,-0.0201
45.1709,813.5343,0.00294,-0.04273,-0.02438
45.1763,813.5543,0.00111,-0.02074,-0.02438
45.1971,813.5743,0.01272,-0.02746,-0.03843
45.2168,813.5943,0.01821,-0.01768,-0.03721
45.2415,813.6143,0.01699,0.00247,-0.02499
45.2614,813.6343,0.0121,0.00492,-0.02072
45.2775,813.6543,-0.01172,-0.03234,-0.02377
45.2975,813.6743,-0.00989,-0.0354,-0.01216
45.3232,813.6943,0.01882,0.00553,0.00433
45.3421,813.7143,0.0231,0.01469,0.01594
45.3586,813.7343,0.0121,0.00614,0.01838
45.3804,813.7543,0.0231,0.01103,0.01716
45.3965,813.7743,0.02249,0.00492,0.01655
45.4169,813.7943,0.00538,0.00186,0.01838
45.4465,813.8143,-0.00072,0.00064,0.00433
45.463,813.8343,0.00416,0.00492,-0.00117
45.4783,813.8543,0.00783,0.01469,-0.01216
45.5037,813.8743,0.00905,0.01897,-0.01644
45.5174,813.8943,-0.005,0.00553,-0.01094
45.5407,813.9143,-0.01844,-0.00852,-0.01888
45.5593,813.9342,-0.005,0.01347,-0.02072
45.5801,813.9542,0.00416,0.02141,-0.0201
45.5971,813.9742,0.00233,0.01714,5e-05
45.6175,813.9942,0.01027,0.01652,0.00616
45.6357,814.0142,0.02127,0.02263,0.00372
45.6564,814.0342,0.00538,0.01286,0.01227
45.6809,814.0542,-0.005,0.01103,0.01533
45.699,814.0742,-0.00744,0.01286,0.01716
45.717,814.0943,-0.00805,0.01103,0.02266
45.7398,814.1143,-0.01722,0.01652,0.02815
45.7684,814.1343,-0.00989,0.03119,0.03243
45.7776,814.1544,0.006,0.03668,0.03182
45.7997,814.1744,0.00844,0.02935,0.03304
45.817,814.1944,0.00722,0.03241,0.03854
45.8394,814.2144,0.02188,0.03607,0.04159
45.86,814.2345,0.03287,0.02385,0.03609
45.877,814.2545,0.0341,0.00919,0.0306
45.8989,814.2745,0.02615,0.01225,0.02449
45.9203,814.2946,0.00416,0.01164,0.00677
45.9381,814.3146,0.00172,0.0037,-0.00789
45.9646,814.3346,0.01699,-0.01219,-0.01461
46.0034,814.3546,0.02799,0.01469,-0.02438
46.0136,814.3747,0.01577,0.02691,-0.03293
46.0222,814.3947,-0.03188,-0.00547,-0.03477
46.0407,814.4147,-0.03493,-0.00363,-0.02927
46.0586,814.4348,-0.00744,0.01408,-0.01155
46.0784,814.4548,0.01821,0.0098,0.00494
46.1102,814.4748,0.02615,-0.00119,0.02143
46.1186,814.4948,0.00477,0.01103,0.02449
46.1413,814.5149,-0.02516,0.02324,0.01166
46.1625,814.5349,-0.05692,0.05134,0.008
46.1798,814.5549,-0.04348,-0.00913,0.00311
46.199,814.575,-0.00133,-0.02135,-0.01888
46.2194,814.5949,0.01333,0.02141,-0.02988
46.2382,814.6149,-0.00744,0.02752,-0.02133
46.2621,814.6349,-0.00683,0.00431,-0.02377
46.286,814.6549,-0.00256,-0.01096,-0.01888
46.3022,814.6749,-0.00072,-0.02013,-0.02194
46.3228,814.6949,-0.01538,-0.0018,-0.02072
46.3403,814.7149,-0.02699,0.00064,-0.01583
46.3576,814.7349,-0.02577,-0.00424,-0.01522
46.3808,814.7549,-0.01966,-0.00058,-0.01277
46.3995,814.7749,-0.02699,0.00858,-0.00728
46.4179,814.7949,-0.03676,0.00614,-0.00972
46.4415,814.8149,-0.03127,-0.00241,-0.01216
46.466,814.8349,-0.00989,0.00797,-0.00361
46.4824,814.8549,0.006,0.01714,0.00861
46.5031,814.8749,0.0005,0.0098,0.00861
46.5344,814.8949,-0.01172,0.01591,0.00189
46.558,814.9149,-0.005,0.0153,0.0025
46.5623,814.9349,0.01699,0.02385,0.00372
46.5853,814.9549,0.03776,0.02447,5e-05
46.6006,814.9749,0.02615,0.01958,-0.0085
46.6178,814.9949,0.01088,0.03241,-0.01644
46.64,815.0148,0.01027,0.02447,-0.01827
46.6574,815.0348,0.00966,-0.0128,-0.02621
46.6805,815.0548,0.01272,-0.02074,-0.03354
46.7029,815.0748,0.02799,3e-05,-0.03049
46.7163,815.0948,0.03471,0.00675,-0.03354
46.7374,815.1148,0.02554,-0.01707,-0.04759
46.7724,815.1348,0.0286,-0.02318,-0.06225
46.7873,815.1548,0.04326,-0.00302,-0.06775
46.7967,815.1748,0.0341,0.01286,-0.07875
46.8201,815.1948,0.04876,0.01591,-0.09035
46.8384,815.2149,0.04509,0.01775,-0.10074
46.8588,815.2349,0.04387,0.02752,-0.07508
46.8795,815.2549,0.05914,0.01469,-0.0537
46.8993,815.2749,0.05181,0.00492,-0.04332
46.9173,815.2949,0.04815,0.01164,-0.04149
46.9407,815.3149,0.02677,0.01286,-0.03171
46.9659,815.3349,0.00233,0.01775,-0.01949
46.9851,815.3549,-0.00133,0.01897,-0.01339
46.9994,815.3749,0.00416,0.01958,0.00616
47.0174,815.3949,0.00844,0.00675,0.01777
47.0435,815.4149,-0.016,-0.01402,0.01716
47.0611,815.4349,-0.03554,0.00736,0.02449
47.0822,815.4549,-0.03371,0.01347,0.02082
47.1004,815.4749,-0.04348,-0.01402,0.02876
47.1183,815.4949,-0.0502,-0.00913,0.02266
47.1385,815.5149,-0.02088,0.01897,0.02204
47.1843,815.5349,0.01394,-0.00424,0.03671
47.1856,815.5549,0.0341,-0.01096,0.04404
47.1979,815.5748,0.02799,-0.02013,0.03976
47.2167,815.5948,0.00538,-0.01829,0.04343
47.2393,815.6148,0.00233,-0.01707,0.03854
47.2603,815.6348,0.01943,-0.00363,0.03487
47.2803,815.6548,0.02615,-0.00058,0.03915
47.299,815.6748,0.02982,-0.00363,0.03976
47.3202,815.6948,0.0231,-0.00302,0.02571
47.3428,815.7148,-0.00744,-0.00363,0.01533
47.3602,815.7348,-0.01172,0.00064,0.01227
47.3775,815.7548,0.00966,-0.01463,0.00677
47.399,815.7748,-0.00928,-0.0244,0.00922
47.4236,815.7948,-0.04654,-0.00486,0.00433
47.4441,815.8148,-0.03249,0.01286,0.00189
47.466,815.8348,-0.00317,-0.00852,-0.00178
47.4858,815.8548,-0.00867,-0.00241,0.00189
47.5023,815.8748,-0.02455,-0.00119,-0.00422
47.5206,815.8948,-0.01783,0.00919,-0.00117
47.5416,815.9148,0.00966,0.00431,0.01777
47.5578,815.9348,0.01943,0.01469,0.02754
47.5837,815.9548,0.00844,0.01958,0.02938
47.6082,815.9748,-0.00805,0.00553,0.03243
47.6209,815.9947,-0.0386,-0.00913,0.02693
47.641,816.0147,-0.03493,0.01775,0.03365
47.6651,816.0347,-0.00317,0.01836,0.03487
47.6817,816.0547,0.0121,0.00919,0.02693
47.6982,816.0747,0.01088,0.01286,0.02204
47.7178,816.0947,0.00233,0.01958,0.02449
47.7374,816.1147,0.00294,0.01225,0.01838
47.7584,816.1347,0.00722,0.0037,0.01349
47.7818,816.1547,-0.00011,-0.00486,0.01227
47.7963,816.1747,-0.00928,0.01164,0.00433
47.8174,816.1947,0.0005,0.02141,0.00677
47.8417,816.2147,0.00538,0.00797,0.01288
47.8627,816.2347,0.006,-0.00486,0.00311
47.8841,816.2548,-0.02027,-0.01341,-0.00483
47.9015,816.2748,-0.02943,-0.00669,-0.003
47.9186,816.2948,0.00477,3e-05,0.00128
47.9381,816.3149,0.02005,-0.00241,5e-05
47.9676,816.3349,-0.00011,-0.00608,-0.00544
47.9861,816.3549,0.00783,-0.00424,-0.00789
48.006,816.3749,0.02188,-0.02135,-0.00972
48.0218,816.395,0.01638,-0.02563,-0.01277
48.0387,816.415,0.00416,-0.02501,-0.01583
48.0606,816.435,0.02982,0.01836,-0.02927
48.0913,816.4551,0.06708,-0.06777,0.02571
48.1139,816.4751,0.17276,-0.13069,0.04587
48.1248,816.4951,0.3322,0.05073,-0.0201
48.1478,816.5151,0.3548,0.1332,-0.00605
48.1608,816.5352,0.36824,0.04829,0.03854
48.1783,816.5552,0.35419,-0.29868,0.02266
48.2037,816.5752,0.41161,-0.10748,-0.01705
48.2211,816.5953,0.35785,0.06356,-0.06531
48.2393,816.6153,0.28272,-0.05678,-0.03721
48.261,816.6353,0.29799,-0.13192,-0.05065
48.2796,816.6553,0.33403,0.04585,-0.04393
48.3002,816.6754,0.26989,0.13625,0.0025
48.327,816.6954,0.1636,0.09227,-0.04698
48.3427,816.7154,0.06036,0.05318,-0.06409
48.3614,816.7355,-0.00378,0.31951,-0.05309
48.3852,816.7555,-0.05326,0.36777,-0.03232
48.3984,816.7755,-0.03676,0.20956,-0.01461
48.4201,816.7956,0.03226,-0.02074,-0.01033
48.4416,816.8156,-0.00133,0.0715,-0.01522
48.4614,816.8356,-0.04348,0.15214,-0.00605
48.4867,816.8557,-0.00072,0.18085,-0.03538
48.5067,816.8757,0.04753,0.06906,-0.01094
48.5271,816.8957,0.07869,0.00431,0.01166
48.5413,816.9158,0.02982,-0.08916,0.00311
48.5694,816.9358,-0.00867,-0.08671,-0.003
48.5817,816.9558,-0.03982,-0.01768,-0.04149
48.6102,816.9758,-0.08014,-0.058,-0.04026
48.6256,816.9959,-0.09602,-0.05861,-0.01583
48.6461,817.0159,-0.08747,-0.06655,0.00922
48.6601,817.0359,-0.04532,-0.05495,-0.00056
48.6838,817.056,0.01149,-0.05861,-0.02988
48.7016,817.076,-0.02577,-0.05311,-0.02316
48.7217,817.0961,-0.08197,-0.05495,0.02021
48.7427,817.1162,-0.07769,-0.1197,0.02632
48.7631,817.1362,-0.00989,-0.05922,-0.0085
48.7809,817.1563,0.01333,-0.05617,-0.00422
48.8005,817.1764,0.03043,-0.05739,-0.01888
48.8214,817.1964,0.02921,-0.02868,-0.0311
48.8392,817.2165,0.03654,3e-05,-0.00239
48.8612,817.2365,0.03471,-0.03845,0.008
48.8796,817.2566,-0.00928,-0.11848,0.01594
48.9033,817.2767,-0.01233,-0.07327,0.00677
48.9232,817.2967,-0.00744,-0.07144,0.01166
48.94,817.3168,-0.02455,-0.0916,0.0141
48.9622,817.3368,-0.02516,-0.0806,-0.00605
48.9865,817.3569,-0.00805,-0.07572,-0.01766
49.0081,817.377,0.00905,0.00125,-0.04698
49.0285,817.397,-0.05448,-0.03479,-0.05187
49.044,817.417,-0.04837,-0.03112,-0.02866
49.0637,817.4371,-0.01233,-0.03112,-0.00728
49.0789,817.4571,-0.016,-0.03723,0.00861
49.1012,817.4771,-0.0331,-0.07572,0.03487
49.1208,817.4971,-0.02699,-0.03906,0.04343
49.1473,817.5172,-0.03249,0.00797,0.03793
49.1628,817.5372,-0.05876,0.04218,0.00433
49.1848,817.5572,-0.08075,0.06112,-0.00667
49.2116,817.5773,-0.03432,0.03424,-0.00605
49.2207,817.5973,0.02554,-0.00486,-0.00239
49.2384,817.6173,0.02554,0.01225,0.00616
49.261,817.6373,-0.02455,0.01652,0.01777
49.2816,817.6573,-0.03738,0.02385,0.01777
49.3042,817.6773,-0.03432,0.05318,-0.00728
49.3222,817.6973,-0.0667,0.02752,-0.01766
49.3423,817.7173,-0.03676,0.03913,-0.01644
49.3599,817.7373,0.05548,0.07333,-0.03354
49.3805,817.7573,0.07563,0.04157,-0.01644
49.4085,817.7773,0.04815,-0.02929,0.0306
49.4248,817.7973,0.03348,-0.06533,0.02693
49.4421,817.8173,-0.01661,-0.08121,-0.00056
49.4636,817.8373,-0.08258,-0.14108,-0.02377
49.4807,817.8573,-0.04287,-0.10321,-0.03171
49.5004,817.8773,0.04937,-0.02868,-0.04271
49.5252,817.8973,0.10129,0.04524,-0.07081
49.5408,817.9173,0.08296,0.07028,-0.10929
49.5622,817.9373,0.03593,0.04585,-0.09158
49.5816,817.9573,0.02493,0.0037,-0.04698
49.6008,817.9773,0.0286,-0.08488,-0.00056
49.6232,817.9973,0.0231,-0.14108,0.01044
49.6469,818.0173,-0.01111,-0.12825,-0.00422
49.6834,818.0372,-0.02943,-0.08916,-0.04515
49.6981,818.0572,-0.00561,-0.03296,-0.09707
49.7066,818.0772,0.02799,0.03057,-0.12578
49.7205,818.0972,0.08419,0.10999,-0.14472
49.74,818.1173,0.06464,0.15641,-0.13189
49.7617,818.1373,-0.03493,0.13442,-0.12212
49.7811,818.1573,-0.13573,0.09288,-0.09646
49.806,818.1773,-0.19498,0.08555,-0.05431
49.8454,818.1974,-0.19803,0.12159,-0.00483
49.849,818.2174,-0.15344,0.14175,0.05625
49.8614,818.2374,-0.14306,0.08494,0.10879
49.8823,818.2575,-0.13634,0.03546,0.14727
49.9002,818.2775,-0.11557,0.07089,0.18026
49.9199,818.2975,-0.09296,0.12892,0.20592
49.9418,818.3175,-0.07586,0.16191,0.1992
49.9601,818.3376,-0.06731,0.12159,0.20103
49.9797,818.3576,-0.06609,0.05623,0.20897
50.0018,818.3776,-0.05448,0.05012,0.20286
50.0202,818.3977,-0.04226,0.07761,0.18942
50.0435,818.4177,-0.05081,0.07272,0.17904
50.0626,818.4377,-0.02821,0.06906,0.17782
50.0797,818.4577,0.00966,0.00919,0.20042
50.1018,818.4778,0.00416,-0.02624,0.21386
50.1257,818.4978,-0.0105,-0.04395,0.22485
50.1436,818.5178,0.01943,-0.03234,0.22119
50.1634,818.5379,0.05181,-0.07083,0.22546
50.1857,818.5579,0.05853,-0.08244,0.21569
50.2003,818.5779,0.05242,-0.04273,0.19187
50.2251,818.5979,0.02127,-0.00058,0.1772
50.244,818.618,0.02982,0.0037,0.132
50.2607,818.638,0.02799,0.00614,0.09596
50.2814,818.658,0.0286,0.05684,0.07152
50.3064,818.6781,-0.00317,0.05379,0.04404
50.3229,818.6981,-0.05509,-0.03051,0.02143
50.3424,818.7181,-0.05143,-0.03845,-0.003
50.364,818.7381,-0.01844,-0.02501,-0.03965
50.3813,818.7581,-0.01661,-0.06044,-0.08302
50.4059,818.7781,-0.02455,-0.03418,-0.09463
50.4243,818.7981,-0.005,0.077,-0.06592
50.4457,818.8181,0.02493,0.11976,-0.01766
50.4653,818.8381,-0.00317,0.01591,0.05198
50.4833,818.858,-0.05815,-0.01585,0.08802
50.5035,818.878,-0.0893,-0.01096,0.12406
50.5277,818.898,-0.04654,-0.00547,0.17476
50.5428,818.918,0.01272,-0.00913,0.19492
50.562,818.938,0.04143,0.0208,0.17598
50.5804,818.958,0.03104,0.06234,0.13872
50.6032,818.978,0.03532,0.07089,0.09596
50.6218,818.998,0.07563,0.05318,0.09413
50.6499,819.018,0.12084,0.0996,0.0868
50.6785,819.038,0.14222,0.12709,0.0703
50.6921,819.058,0.12389,0.12282,0.05503
50.7131,819.078,0.08052,0.08005,0.02938
50.7297,819.098,0.04326,0.03852,0.00616
50.7405,819.118,0.02799,0.00125,-0.00117
50.763,819.138,0.06769,0.01469,0.02204
50.7853,819.158,0.11473,-0.00119,0.03976
50.8005,819.178,0.10923,-0.04151,0.00677
50.8245,819.198,0.0231,-0.06044,-0.03782
50.8415,819.218,-0.04226,-0.07205,-0.06042
50.8597,819.238,-0.04898,-0.05861,-0.10868
50.8796,819.2579,-0.07097,-0.06472,-0.13067
50.901,819.2779,-0.09358,-0.02624,-0.15755
50.9195,819.2979,-0.08747,0.00125,-0.15999
50.9407,819.3179,-0.03921,0.05379,-0.14411
50.9844,819.3379,-0.01844,0.04157,-0.10135
50.987,819.3579,-0.02577,0.00736,-0.04882
51.0047,819.3779,-0.02149,-0.02624,0.01471
51.0233,819.3979,0.0121,-0.05006,0.07519
51.04,819.4179,0.03776,-0.058,0.08557
51.0618,819.4379,0.04631,-0.04151,0.06358
51.0927,819.4579,0.02799,-0.03723,0.03487
51.1021,819.4779,0.02188,-0.01341,0.00066
51.1206,819.4979,0.0286,0.03363,-0.05065
51.1456,819.5179,0.00722,0.02691,-0.07081
51.1613,819.5379,0.0121,0.05745,-0.0702
51.1818,819.5579,0.02921,0.0941,-0.05248
51.216,819.5779,0.03837,0.07517,-0.00605
51.2209,819.5979,0.04265,0.01591,0.03609
51.2407,819.6179,0.06891,0.00736,0.05198
51.2618,819.6379,0.1074,0.02324,0.04587
51.2795,819.6579,0.13122,-0.01096,0.04037
51.301,819.6778,0.13244,-0.06533,0.0422
51.3211,819.6978,0.11534,-0.07449,0.03243
51.3401,819.7178,0.12511,-0.01952,0.02815
51.361,819.7378,0.1129,-0.02135,0.02815
51.3823,819.7578,0.08419,-0.03784,0.0306
51.4073,819.7778,0.04998,-0.04945,0.04404
51.4325,819.7978,0.02371,-0.03357,0.02876
51.4559,819.8178,-0.02943,-0.02685,0.0025
51.4613,819.8378,-0.07281,-0.00424,-0.03477
51.4796,819.8578,-0.12473,0.04157,-0.07936
51.5057,819.8778,-0.19437,0.07028,-0.09097
51.519,819.8978,-0.22369,0.1106,-0.05553
51.5395,819.9178,-0.15772,0.16985,-0.01766
51.5609,819.9378,-0.01111,0.28836,0.05014
51.5793,819.9578,0.05609,0.32074,0.09962
51.5993,819.9778,0.03471,0.20284,0.10512
51.6253,819.9978,0.00661,0.09349,0.12834
51.6444,820.0178,-0.00561,0.01469,0.11001
51.6735,820.0378,-0.01294,-0.01158,0.05625
51.6825,820.0578,-0.04959,-0.03296,-0.00544
51.7006,820.0778,-0.00133,-0.01158,-0.06653
51.7209,820.0978,0.1526,0.06356,-0.10257
51.7422,820.1178,0.29677,0.13442,-0.10318
51.7608,820.1379,0.32548,0.14481,-0.12151
51.8038,820.1579,0.2595,0.10815,-0.17526
51.8083,820.1779,0.18437,0.06662,-0.18198
51.8281,820.198,0.14344,-0.01096,-0.15327
51.8443,820.218,0.06953,-0.16735,-0.14594
51.8618,820.238,0.00355,-0.17834,-0.16305
51.8813,820.258,-0.00378,-0.06777,-0.18687
51.9003,820.2781,0.01882,-0.08121,-0.21619
51.9245,820.2981,0.0457,-0.11542,-0.23024
51.943,820.3181,0.0512,-0.0861,-0.22108
51.9647,820.3382,0.05486,-0.04578,-0.21803
51.9892,820.3582,0.01394,-0.10992,-0.20642
52.0052,820.3782,-0.02943,-0.15818,-0.17465
52.0257,820.3982,-0.08625,-0.2321,-0.17343
52.0444,820.4183,-0.14367,-0.28036,-0.13067
52.0629,820.4383,-0.1626,-0.26692,-0.08852
52.0817,820.4583,-0.13573,-0.19483,-0.08547
52.1032,820.4784,-0.0722,-0.16124,-0.07508
52.1246,820.4984,-0.03615,-0.17284,-0.04943
52.1465,820.5184,-0.00805,-0.08427,-0.0592
52.1657,820.5384,0.04326,-0.01646,-0.06042
52.1813,820.5585,0.09763,-0.00486,-0.06531
52.2025,820.5785,0.12817,0.03057,-0.08241
52.2261,820.5985,0.11595,0.11487,-0.12884
52.2465,820.6186,0.02127,0.07639,-0.14839
52.274,820.6386,-0.00011,0.02508,-0.13983
52.2961,820.6586,0.04692,0.0263,-0.13006
52.3037,820.6786,0.10373,0.02202,-0.13495
52.3298,820.6986,0.09457,0.01347,-0.12273
52.3453,820.7186,0.01333,0.02691,-0.13983
52.3606,820.7386,-0.0722,0.02813,-0.15877
52.3808,820.7586,-0.11007,0.03302,-0.12151
52.4073,820.7786,-0.08197,0.07761,-0.11173
52.4254,820.7986,-0.08563,0.08067,-0.08913
52.4451,820.8186,-0.11129,0.07578,-0.05798
52.4658,820.8386,-0.12168,0.05806,-0.02316
52.4848,820.8586,-0.09113,0.05806,0.00555
52.5062,820.8786,-0.0667,0.06784,0.03609
52.5292,820.8985,-0.06792,0.08311,0.06297
52.5509,820.9185,-0.08075,0.08128,0.08619
52.5639,820.9385,-0.07158,0.11548,0.09596
52.589,820.9585,-0.03493,0.12037,0.11795
52.6018,820.9785,0.00661,0.14481,0.14605
52.6262,820.9985,0.04692,0.15091,0.16438
52.6513,821.0185,0.07197,0.11365,0.16865
52.6723,821.0385,0.06158,0.07578,0.15644
52.6821,821.0585,0.05425,0.0599,0.13872
52.7031,821.0785,0.02432,0.05257,0.11306
52.721,821.0985,0.0005,0.05867,0.07336
52.7421,821.1186,-0.02149,-0.02379,0.06969
52.7634,821.1386,-0.02516,-0.07694,0.08496
52.7849,821.1586,-0.02149,-0.07999,0.06053
52.8041,821.1787,-0.09052,0.3635,-0.00178
52.8248,821.1987,-0.26645,0.14114,0.10451
52.8421,821.2187,-0.17849,0.21444,0.0532
52.8643,821.2387,-0.10029,0.09227,0.07214
52.8915,821.2588,-0.10824,-0.03296,0.13628
52.908,821.2788,-0.14367,-0.03906,0.1601
52.9267,821.2988,-0.18215,0.00858,0.14483
52.9437,821.3189,-0.30127,-0.07755,0.17537
52.9628,821.3389,-0.29027,-0.09465,0.15949
52.9809,821.3589,-0.17726,-0.11481,0.14483
53.0068,821.3789,-0.00867,-0.12581,0.16071
53.0244,821.399,0.06525,-0.18567,0.16132
53.042,821.419,0.01943,-0.20339,0.18331
53.0657,821.439,0.0231,-0.1533,0.17598
53.0906,821.459,0.08235,-0.12459,0.12223
53.1034,821.4791,0.10557,-0.10321,0.0758
53.1287,821.4991,0.14649,0.06295,0.04648
53.157,821.5191,0.12267,0.00431,0.01655
53.1652,821.5392,0.05914,-0.07511,-0.01155
53.1844,821.5592,-0.03127,-0.05067,-0.0366
53.2045,821.5792,-0.09663,-0.00119,-0.07142
53.2369,821.5992,-0.14306,-0.02135,-0.10502
53.2433,821.6193,-0.11984,-0.09893,-0.09219
53.2627,821.6393,0.01638,-0.08854,-0.06042
53.2893,821.6593,0.08052,-0.06716,-0.03904
53.3026,821.6794,0.03104,3e-05,-0.0983
53.3205,821.6994,-0.06486,0.04707,-0.09463
53.3432,821.7193,-0.23652,-0.01402,-0.05981
53.3647,821.7393,-0.32204,-0.0635,-0.05248
53.3813,821.7593,-0.13084,-0.06777,-0.09585
53.4009,821.7793,0.06769,-0.1423,-0.10807
53.4253,821.7993,0.0567,-0.16735,-0.10379
53.4449,821.8193,-0.0612,-0.11115,-0.10318
53.4637,821.8393,-0.12901,-0.08671,-0.11235
53.4888,821.8593,-0.11862,-0.0806,-0.10868
53.5021,821.8793,-0.09419,-0.07877,-0.09585
53.522,821.8993,-0.07097,-0.0916,-0.07814
53.5439,821.9193,-0.03432,-0.07877,-0.07508
53.5621,821.9393,-0.01538,-0.06716,-0.08791
53.5883,821.9593,-0.02027,-0.04334,-0.11235
53.6056,821.9793,-0.01233,-0.01402,-0.09097
53.6235,821.9993,0.02127,0.01469,-0.0537
53.643,822.0193,0.04387,-0.00058,-0.03293
53.668,822.0393,0.01577,-0.00363,-0.01705
53.6841,822.0593,-0.06975,-0.00547,-0.02194
53.7043,822.0793,-0.09602,-0.03845,-0.01705
53.7243,822.0993,-0.05876,-0.06411,-0.00789
53.7418,822.1193,0.01027,-0.06106,-0.00789
53.7659,822.1393,0.06342,-0.05922,-0.01216
53.7869,822.1594,0.04265,-0.09282,-0.0201
53.803,822.1794,0.01455,-0.12092,-0.03171
53.8219,822.1994,0.0121,-0.1087,-0.04271
53.8477,822.2195,-0.00744,-0.09954,-0.02988
53.8623,822.2395,-0.0386,-0.06839,-0.04698
53.8847,822.2595,-0.0667,-0.02746,-0.07569
53.9063,822.2795,-0.08197,-0.0299,-0.08241
53.9245,822.2996,-0.08502,-0.03906,-0.03843
53.9471,822.3196,-0.10213,-0.01707,0.02632
53.9749,822.3396,-0.13939,-0.01952,0.01105
53.9923,822.3597,-0.17482,-0.0244,-0.02744
54.0078,822.3797,-0.14244,-0.02196,-0.04332
54.031,822.3997,-0.0386,-0.00424,-0.04026
54.0466,822.4197,0.02799,-0.02074,-0.01216
54.0682,822.4398,-0.0105,-0.01646,0.04281
54.0865,822.4598,-0.10579,-0.01829,0.08008
54.1086,822.4798,-0.09235,-0.04639,0.04831
54.1235,822.4999,0.04509,-0.11176,0.00616
54.149,822.5199,0.21125,-0.26447,-0.07264
54.1649,822.5399,0.23874,-0.3109,-0.13434
54.183,822.5599,0.11229,-0.20217,-0.08302
54.2078,822.58,-0.00928,-0.05739,0.00494
54.2296,822.6,-0.03982,-0.04517,0.02021
54.2472,822.62,0.04509,-0.10626,-0.02438
54.2687,822.6401,0.07747,-0.14108,-0.09585
54.2858,822.6601,0.08785,-0.09771,-0.03965
54.3092,822.6801,0.10557,-0.05495,0.03671
54.3261,822.7001,0.14161,-0.02135,0.04526
54.3437,822.7201,0.13183,0.00553,0.02021
54.366,822.7401,0.1636,0.0153,-0.01094
54.3866,822.7601,0.12023,0.01469,-0.0256
54.405,822.7801,0.01699,0.00431,-0.05248
54.4243,822.8001,0.00477,0.02752,-0.05126
54.4509,822.8202,0.00416,0.02874,-0.0085
54.4675,822.8402,-0.02088,0.03119,-0.003
54.4919,822.8602,-0.01844,0.05745,-0.02805
54.5132,822.8803,-0.01294,0.05806,-0.03477
54.5301,822.9003,-0.01416,0.05379,-0.01766
54.5464,822.9203,0.00538,0.0434,-0.01644
54.5727,822.9403,0.02982,0.03241,-0.00605
54.5838,822.9604,0.02554,0.02141,-0.00544
54.6047,822.9804,0.01577,0.00797,-0.00605
54.6252,823.0004,-0.00439,0.00309,0.00433
54.6523,823.0205,-0.00744,0.01469,0.01777
54.6747,823.0405,-0.00439,0.07028,0.01349
54.6863,823.0605,0.03104,0.01286,0.0306
54.7039,823.0805,0.10496,0.00186,0.05686
54.7233,823.1006,0.141,0.00064,0.07336
54.7463,823.1206,0.14649,-0.01646,0.05686
54.764,823.1406,0.04509,0.01714,0.04648
54.819,823.1607,-0.03249,0.03729,0.07214
54.8255,823.1807,-0.01233,-0.00791,0.08374
54.8304,823.2008,-0.00317,0.01042,0.11306
54.8439,823.2208,-0.05815,0.02324,0.14055
54.8679,823.2409,-0.07281,0.02019,0.16132
54.8862,823.2609,-0.03982,0.00858,0.15582
54.9038,823.281,0.02005,0.00614,0.11917
54.9271,823.3011,0.07502,-0.01035,0.07947
54.9435,823.3211,0.05303,-0.00241,0.07091
54.9671,823.3412,-0.00011,0.00614,0.0025
54.9874,823.3612,-0.05448,0.00186,-0.04026
55.0077,823.3813,-0.05692,-0.0018,-0.04026
55.0273,823.4013,-0.01722,-0.0018,-0.03477
55.0474,823.4213,0.03104,0.00614,-0.03354
55.0639,823.4414,0.0622,0.00125,-0.02377
55.0864,823.4614,0.05792,0.00736,-0.00667
55.111,823.4814,0.05181,0.03119,-0.00056
55.131,823.5014,0.04387,0.04646,0.00983
55.1495,823.5215,0.04081,0.04524,0.01838
55.1818,823.5415,0.00355,0.02691,0.00983
55.185,823.5615,-0.03493,0.00614,0.00494
55.2035,823.5816,-0.03127,0.00431,0.00922
55.2248,823.6016,-0.01661,0.01469,0.00677
55.2443,823.6216,-0.00072,0.01591,0.0141
55.265,823.6416,0.03715,0.01469,0.02204
55.2855,823.6617,0.03471,-0.00058,0.02143
55.3042,823.6817,-0.016,-0.0128,0.01655
55.3251,823.7017,-0.09541,-0.01035,0.00922
55.3465,823.7218,-0.09358,-0.00058,0.01227
55.3652,823.7418,-0.02088,-0.00608,0.01716
55.3854,823.7618,0.03898,-0.00119,0.00922
55.4086,823.7818,0.01027,0.00675,0.00066
55.4294,823.8018,-0.05753,0.00797,0.00494
55.4497,823.8218,-0.05998,-0.00486,0.00433
55.4681,823.8418,-0.02577,0.0037,0.01716
55.4867,823.8618,0.0005,0.00919,0.02388
55.5076,823.8818,0.00844,0.00247,0.01044
55.5321,823.9018,0.02921,0.01042,5e-05
55.5536,823.9218,0.0286,-0.00119,0.00861
55.5736,823.9418,0.00966,0.01164,0.01471
55.5938,823.9618,-0.01172,0.03546,0.01716
55.6071,823.9818,-0.01233,0.02385,0.01838
55.6299,824.0018,0.00844,0.02447,0.01166
55.6548,824.0218,0.02554,0.02202,0.01166
55.6892,824.0418,0.05242,0.02324,0.01227
55.6996,824.0618,0.03532,0.0098,0.008
55.708,824.0818,0.0005,0.01225,0.00494
55.7266,824.1018,-0.01477,0.01775,0.00128
55.7458,824.1218,-0.01233,0.00553,-0.00605
55.7666,824.1419,-0.00683,-0.01707,-0.02255
55.7867,824.1619,-0.00133,-0.00791,-0.02316
55.8072,824.1819,0.0121,0.00247,-0.01766
55.8378,824.2019,0.01149,-0.00913,-0.01522
55.8451,824.222,-0.00622,-0.02379,-0.02255
55.8651,824.242,-0.02333,-0.00669,-0.01522
55.8871,824.262,-0.03066,-0.00791,-0.00972
55.9082,824.2821,-0.01661,-0.00913,-0.00178
55.9278,824.3021,-0.00133,-0.00852,0.00494
55.9471,824.3221,0.0121,0.00797,0.00677
55.9711,824.3421,0.00783,-0.00547,0.00616
55.9863,824.3622,-0.02149,-0.0244,0.00066
56.0083,824.3822,-0.02577,-0.01158,-0.00544
56.0277,824.4022,-0.016,0.0153,-0.014
56.0502,824.4223,-0.00072,0.00797,-0.01583
56.0667,824.4423,-0.01172,0.00736,-0.00422
56.0854,824.4623,-0.04776,0.02813,0.00677
56.1055,824.4823,-0.07525,0.01958,0.01166
56.1282,824.5024,-0.03921,-0.00852,0.00494
56.1479,824.5224,-0.01844,0.01652,0.01899
56.1695,824.5424,-0.04043,0.01469,0.01716
56.197,824.5625,-0.0612,0.00492,0.00677
56.212,824.5825,-0.0331,0.00492,-0.00483
56.2274,824.6025,-0.01966,0.02385,-0.00239
56.2484,824.6225,-0.01355,0.04218,-0.00483
56.2678,824.6426,-0.01294,0.04157,-0.00605
56.2862,824.6626,-0.005,0.02508,0.00128
56.3137,824.6826,0.01394,0.01775,0.00311
56.3308,824.7026,0.0341,0.02752,-0.00056
56.3689,824.7226,0.01577,0.01042,-0.00422
56.3722,824.7426,-0.0105,0.00614,-0.00117
56.3867,824.7626,0.00477,0.0153,5e-05
56.4066,824.7826,0.03837,0.0037,0.00372
56.4298,824.8026,0.01882,-0.01096,0.00066
56.4494,824.8226,-0.00378,-0.00486,0.008
56.468,824.8426,0.00172,3e-05,0.00677
56.4944,824.8626,0.0121,-0.0018,0.00128
56.5063,824.8826,-0.01783,0.00186,-0.00422
56.5267,824.9026,-0.05998,0.00309,0.00433
56.5478,824.9226,-0.08441,-0.00974,0.01227
56.5834,824.9426,-0.0667,-0.01891,0.01655
56.5917,824.9626,-0.02333,-0.0073,0.02266
56.6129,824.9825,-0.00317,-0.0073,0.03609
56.631,825.0025,-0.00561,-0.00852,0.02754
56.6515,825.0225,-0.00744,0.00125,0.01899
56.6727,825.0425,0.00538,0.00736,0.02693
56.6871,825.0625,0.02371,0.00797,0.03426
56.7057,825.0825,0.02921,0.02202,0.02815
56.7273,825.1026,0.02432,0.01469,0.02327
56.7477,825.1226,0.02493,-0.01158,0.02082
56.7713,825.1426,0.00416,-0.02257,0.00677
56.787,825.1626,-0.01111,0.00858,0.01044
56.8054,825.1827,-0.02088,-0.00547,0.01044
56.828,825.2027,-0.01294,-0.01646,-0.00239
56.8492,825.2227,0.00111,-0.00669,-0.00911
56.866,825.2428,0.006,0.01347,0.00494
56.8851,825.2628,0.01516,0.00858,0.00738
56.9065,825.2828,0.01088,0.00309,-0.003
56.9258,825.3028,0.00661,0.01042,-0.00117
56.9456,825.3229,-0.00439,0.01225,0.00311
56.9689,825.3429,0.01333,0.00736,0.00494
56.9895,825.3629,0.03165,3e-05,0.02021
57.0075,825.383,0.0231,-0.00363,0.02266
57.0279,825.403,-0.00011,-0.0073,0.01288
57.0454,825.423,-0.00317,-0.01158,0.01166
57.068,825.443,-0.005,-0.0244,0.01288
57.0881,825.4631,-0.01538,0.07944,0.05381
57.1085,825.4831,0.01882,0.13015,0.1039
57.1263,825.5031,0.11412,0.13686,0.16804
57.1492,825.5232,0.16971,0.0208,0.17904
57.1932,825.5432,0.17154,-0.06106,0.09596
57.1963,825.5632,0.10434,-0.12703,0.01288
57.2086,825.5832,0.02799,-0.10931,0.03671
57.2261,825.6033,-0.00195,-0.00791,0.05503
57.2449,825.6233,0.08296,0.12037,0.04892
57.2668,825.6433,0.22957,0.10266,0.02938
57.2848,825.6634,0.3096,0.01652,-0.01277
57.3052,825.6834,0.25523,0.00675,-0.09035
57.3307,825.7034,0.09579,-0.02746,-0.05309
57.3536,825.7234,-0.03066,0.01775,-0.00544
57.3686,825.7434,-0.0276,0.06662,-0.01155
57.3884,825.7634,0.04143,0.0263,-0.01094
57.4066,825.7834,0.03593,0.00919,0.00433
57.4262,825.8034,0.00722,0.03913,0.00372
57.4483,825.8235,-0.00805,0.06173,0.00189
57.4707,825.8435,-0.0276,0.02202,-0.00544
