AppTimestamp(s),SensorTimestamp(s),acc_x,acc_y,acc_z,gyro_x,gyro_y,gyro_z,mag_x,mag_y,mag_z
45.004,813.3744,0.05771520784371115,0.028114152611609072,-0.02811498211487573,-0.041878329448976,-0.03524935522279599,0.017393122817969578,-0.404408976176002,-0.23914946232932777,-0.5675910804935821
45.0219,813.3944,0.06894797271780365,0.029992341460748473,-0.00356916137644403,-0.060764989525617735,-0.03966242340923267,-0.002606934690228938,-0.35836567831540045,-0.3273991165621474,-0.5579987267726234
45.0398,813.4144,0.08047369006398464,0.033575078255137863,0.022643705327932764,-0.0816568700591755,-0.04359798571991365,0.004129583480925804,-0.35836567831540045,-0.3273991165621474,-0.5579987267726234
45.0619,813.4344,0.09232437825900736,0.039024140509542476,0.05072384121587997,-0.07402060819744483,-0.04168415428823075,0.004160470859907293,-0.31342141438228754,-0.3135422891006123,-0.646248381005443
45.0764,813.4544,0.10741190619511284,0.03657943059694038,0.07869463317297176,-0.07016120191067864,-0.03885384967119927,-0.001044340269084794,-0.3899722331997926,-0.3584865530337236,-0.6922916788660429
45.0951,813.4744,0.12087406855601024,0.032647212296342376,0.10339401234636847,-0.0429003546325338,-0.029619640287643568,-0.002322809173014148,-0.34392893533919267,-0.4467362072665401,-0.6826993251450847
45.1186,813.4944,0.12920992948166954,0.026683482717722584,0.12087587733610157,-0.03290749667571292,-0.024345118038216918,0.0236740041873788,-0.2529413735454798,-0.5211290340378252,-0.7613566256569425
45.1394,813.5144,0.13161131265680354,0.01931471312363378,0.12779908430027237,-0.026882913222215924,-0.027985569657419482,0.050397342418597134,-0.29898467140608137,-0.43287937980500557,-0.7709489793779012
45.1693,813.5343,0.12385056393477525,0.012596100860426368,0.12263170322105417,-0.015603031037664385,-0.027981177177809933,0.04091319044761103,-0.17748958865546344,-0.3740782884103593,-0.813155335750121
45.1752,813.5543,0.11364647898812005,0.008211014860359384,0.10589464968069377,-0.0071206673831333694,-0.02575654084899438,0.020664499130965273,-0.17748958865546344,-0.3740782884103593,-0.813155335750121
45.196,813.5743,0.09386751659283174,0.0025947921841664723,0.08063851095036637,0.005215711494688432,-0.03386876703148616,0.0332882284748211,-0.20799710961236692,-0.5072722065762902,-0.8496062798897622
45.2154,813.5943,0.06787910805438785,-0.0038919239412700257,0.05156024295268527,0.013252172226528594,-0.02896948343417981,0.027068162628002764,-0.11700954781865565,-0.5816650333475721,-0.9282635804016203
45.2366,813.6143,0.03754771726970185,-0.011549213091356841,0.024039084170591876,0.015748030420911708,-0.015941544973414108,0.007551943441489397,-0.11700954781865565,-0.5816650333475721,-0.9282635804016203
45.2638,813.6343,0.005668034000116354,-0.019578385172615648,0.0026601551773820648,0.011139781028449227,-0.014031566971194351,0.002728716143517034,-0.11700954781865565,-0.5816650333475721,-0.9282635804016203
45.2756,813.6543,-0.02199418875779715,-0.027489968033989537,-0.01018803463496333,-0.022436536170610158,-0.03259195900633053,0.024935590548759264,-0.07206528388554277,-0.5678082058860372,-1.0165132346344399
45.2959,813.6743,-0.04065895839994165,-0.03529010825199183,-0.014925760983832831,-0.027756577544218786,-0.021947713040247327,0.02736495005212922,-0.07206528388554277,-0.5678082058860372,-1.0165132346344399
45.3178,813.6943,-0.04436749368117855,-0.04236693997617233,-0.014350059514646518,0.005024309948897133,0.011179752597947158,0.0028816182618291116,0.004485534931962253,-0.5228639419529258,-0.97046993677384
45.3403,813.7143,-0.03150958540640585,-0.04621382623235651,-0.012246259628071826,0.007071952688943738,0.024618437346191166,-0.004345069184466618,0.004485534931962253,-0.5228639419529258,-0.97046993677384
45.3591,813.7343,-0.005260823953629548,-0.04289709694216734,-0.011802258217831124,-0.006314828415061755,0.020643101128868357,-0.0020985399430181327,0.004485534931962253,-0.5228639419529258,-0.97046993677384
45.3809,813.7543,0.029254857961576147,-0.03250982501393432,-0.014638276307283121,0.004865264395092495,0.025187923242739378,-0.00123215855494116,0.1720239155431844,-0.5523125047910975,-1.0030839394250994
45.3951,813.7743,0.06668376621335215,-0.014298472658397732,-0.020437001857321335,0.0019330739909422124,0.02352878818402742,0.003937544559432226,0.14151639458627827,-0.6855064229570301,-1.0395348835647424
45.4175,813.7943,0.10159529712105894,0.006341758870824277,-0.02765194535189383,-0.013382657935935405,0.01702977437720952,-0.001415564358085887,0.09657213065316535,-0.6993632504185651,-0.9512852293319226
45.4486,813.8143,0.13081987278322124,0.025628966187704383,-0.03416758388773883,-0.012131494554372855,0.0017200445625479674,-0.0017998340481474842,0.1270796516100715,-0.5661693322526326,-0.9148342851922798
45.4685,813.8343,0.15139509014675745,0.03969093017698366,-0.038044845295533036,-0.003939818717408276,-0.0003473341249674729,-0.0028024268590620687,0.0505288327925638,-0.6111135961857455,-0.9608775830528813
45.479,813.8543,0.15906884780121436,0.04644165846419987,-0.03790401367880192,0.008320809354339325,-0.007042704595817039,-0.008680429372191028,0.08103635374946996,-0.47791967801981294,-0.9244266389132385
45.5043,813.8743,0.15628902563006955,0.04459166509448856,-0.033466868163581326,0.01314899698868383,-0.009678397561644004,-0.0114852336001993,0.08103635374946996,-0.47791967801981294,-0.9244266389132385
45.5156,813.8943,0.13968288970343204,0.036736292070361776,-0.02545887641927594,-0.00617928351011919,-0.013001693272271549,-0.006621142875375655,0.07993731982198295,-0.37581319632546145,-1.0222686468670164
45.5387,813.9143,0.11629120985723476,0.025719527843129475,-0.01612227972967753,-0.019126544791662644,-0.02799610914931326,0.0003513471973146736,0.03499305588887005,-0.38967002378699644,-0.9340189926341969
45.5601,813.9342,0.08937955450569385,0.013003321697982462,-0.00847333633719903,0.0018923255769366914,-0.020532277355795322,-0.012690033227551691,0.03499305588887005,-0.38967002378699644,-0.9340189926341969
45.576,813.9542,0.06200732149330415,0.001137757839380582,-0.0053495890227572285,0.012187486690173686,-0.0147680028228329,-0.015538962282676367,-0.011050241971731505,-0.30142036955417684,-0.9436113463551555
45.5976,813.9742,0.038886182204222755,-0.007252688949851427,-0.00817320133229113,-0.0004102378830416591,0.0016001359424965126,-0.014546153672557164,-0.011050241971731505,-0.30142036955417684,-0.9436113463551555
45.6187,813.9942,0.020579514014763045,-0.010586317136230122,-0.01595664136608893,0.002575997195400358,0.010474852042149313,-0.010929260778532545,0.03499305588887005,-0.38967002378699644,-0.9340189926341969
45.6336,814.0142,0.007937343799997942,-0.008196496717801122,-0.025345438391723235,0.014866138259437911,0.014112081669410673,-0.011022498456700261,-0.011050241971731505,-0.30142036955417684,-0.9436113463551555
45.6594,814.0342,0.00351445260894645,-0.0038463918913643202,-0.03174431322430013,-0.00562554340401034,0.013161971524353153,-0.010536933511345341,-0.04155776292863766,-0.43461428772010935,-0.9800622904947983
45.6791,814.0542,0.005604815541374444,0.0011243108848277839,-0.030833590775536934,-0.01580292334177787,0.010943616405074252,-0.01399478518067647,-0.08760106078923921,-0.34636463348728974,-0.989654644215757
45.6974,814.0742,0.013757579992795851,0.0034622717015604654,-0.02045306775921732,-0.017690875641798075,0.011715524980112977,-0.01690875039402925,0.03499305588887005,-0.38967002378699644,-0.9340189926341969
45.7159,814.0943,0.026925048353379846,0.001886918558433176,-0.0014824235768232247,-0.021512697048893872,0.016041516010379914,-0.016102225293171058,0.03499305588887005,-0.38967002378699644,-0.9340189926341969
45.7382,814.1143,0.04417097915119675,-0.0026466824088516305,0.022290341326028168,-0.028592744097078352,0.01752577285273351,-0.025695921943650512,0.03499305588887005,-0.38967002378699644,-0.9340189926341969
45.7691,814.1343,0.06520154945571824,-0.007957594018429437,0.04532035908015547,-0.018358898707201265,0.02663006918880243,-0.03567772522567994,0.03499305588887005,-0.38967002378699644,-0.9340189926341969
45.778,814.1544,0.08502031725898235,-0.012227357523951432,0.062107671801953174,-0.0034466693902219336,0.03399412966459204,-0.03314783785531434,-0.011050241971731505,-0.30142036955417684,-0.9436113463551555
45.8,814.1744,0.10746489711170676,-0.011885938692369341,0.06871258224360527,-0.005434972191271231,0.03515171003326986,-0.025672708447645794,-0.08760106078923921,-0.34636463348728974,-0.989654644215757
45.8173,814.1944,0.12979493331357586,-0.005975110600654421,0.06389614375919567,-0.007525979086824623,0.039881139916413864,-0.029462455555722085,-0.04155776292863766,-0.43461428772010935,-0.9800622904947983
45.8397,814.2144,0.15335740008261836,0.0026020248396137757,0.049005430869843464,0.003937010427025427,0.04966874334820126,-0.026235012222768375,0.03499305588887005,-0.38967002378699644,-0.9340189926341969
45.8603,814.2345,0.17723495584971333,0.012584500669020976,0.027476873751527464,0.00939013774477614,0.04806108265584573,-0.009863166585985215,0.03499305588887005,-0.38967002378699644,-0.9340189926341969
45.8757,814.2545,0.20030194292405384,0.02344246379782408,0.003510607315966169,0.0062706607761841985,0.04173758017898027,0.00416718550751197,0.03499305588887005,-0.38967002378699644,-0.9340189926341969
45.8968,814.2745,0.21974994900239814,0.030498987390038867,-0.01928737512218484,0.004373410655828372,0.03319647624299561,-0.0016076032795794778,0.11154387470637507,-0.34472575985388515,-0.887975694773597
45.9183,814.2946,0.23129541852290153,0.03262987509993326,-0.03859121333730953,-0.004575402031234843,0.007590867226533447,-0.009494436508951569,0.020556312912660614,-0.27033293308260054,-0.8093183942617359
45.9361,814.3146,0.23050221247819624,0.02645718819194426,-0.053660135471139625,-0.003261869100307028,-0.007543404224411531,-0.0022046313751719337,0.06659961077326217,-0.35858258731542014,-0.7997260405407772
45.9684,814.3346,0.21617501275551337,0.007897106619296962,-0.06490096832752162,0.004379907010387078,-0.008812641769908565,0.019493656435785076,0.14315042959076985,-0.31363832338230724,-0.7536827426801758
46.0,814.3546,0.18784282986004153,-0.01718958993524522,-0.07274938756581284,0.029379945426514092,-0.00876604873415201,0.0017740851012072437,0.051063833869568385,-0.13713901491667113,-0.7728674501220927
46.0113,814.3747,0.14341205899239465,-0.0390197875960718,-0.07714142037172303,0.02945432638672248,-0.02011027890788475,-0.013816367401466637,0.051063833869568385,-0.13713901491667113,-0.7728674501220927
46.0194,814.3947,0.09248346349413175,-0.057924575318010124,-0.07822072848016204,-0.020727894760726128,-0.04763685504194158,-0.00700426148299074,-0.0254869849479393,-0.18208327884978404,-0.8189107479826941
46.0388,814.4147,0.046805422282531345,-0.06846612963569285,-0.07585401823338653,-0.02476810166062387,-0.043898958483804255,-0.010559955160275645,-0.07153028280854085,-0.09383362461696441,-0.8285031017036528
46.06,814.4348,0.01306164055493185,-0.07453754954152073,-0.07011277871573243,-0.00392352480603559,-0.013451897455098453,-0.015231431422382442,0.005020536008966838,-0.0488893606838515,-0.7824598038430514
46.0789,814.4548,-0.001580402442779849,-0.0769511437445102,-0.06087268824174663,0.006195605907104571,0.012035602011382903,-0.0012260194485597448,0.05216286779705699,-0.23924549661102215,-0.675025442168318
46.1111,814.4748,0.006853108630030552,-0.07630953614335931,-0.04773751252681943,-0.0002581735022475297,0.02863367921264109,0.010546676273172642,0.05216286779705699,-0.23924549661102215,-0.675025442168318
46.1167,814.4948,0.036618866106896145,-0.06363577986566091,-0.030171065012665338,-0.012541474427338516,0.023418339319065486,-0.010375014580535562,0.05216286779705699,-0.23924549661102215,-0.675025442168318
46.1392,814.5149,0.08249467980659314,-0.04358058241542531,-0.00917911370674733,-0.024058084757670146,0.00033600911886778775,-0.03370035742964156,0.09820616565765854,-0.3274951508438418,-0.6654330884473593
46.1645,814.5349,0.13164971282411214,-0.020926787408839714,0.012530530274881171,-0.03405610194720771,-0.013274457934518535,-0.07277078152340329,0.05326190172454564,-0.34135197830537684,-0.5771834342145397
46.1807,814.5549,0.17147376526830915,-0.008088576476537934,0.03056002697142847,-0.04869395103310443,-0.019928580519883173,-0.01274893027939838,0.05326190172454564,-0.34135197830537684,-0.5771834342145397
46.1997,814.575,0.19678954384018993,-0.0023075289218590367,0.04050759858806548,-0.011795048754605564,-0.022083976553672672,0.019551786099334084,0.05216286779705699,-0.23924549661102215,-0.675025442168318
46.2173,814.5949,0.20524611005455357,-0.0013139686653010352,0.03943493685209397,0.023710231306505812,-0.01927743000413614,-0.010378659674949522,0.09820616565765854,-0.3274951508438418,-0.6654330884473593
46.2359,814.6149,0.19744444249462223,-0.00041627651100453744,0.02736935122653017,0.006620018797341467,-0.02022035602823781,-0.026154052757363485,0.021655346840150847,-0.3724394147769547,-0.7114763863079608
46.2568,814.6349,0.17539315647409776,0.0028045048170290687,0.007431648050784473,-0.0022211283989484387,-0.02531565723534883,-0.005156390462185289,0.06659961077326217,-0.35858258731542014,-0.7997260405407772
46.281,814.6549,0.14289972775703394,0.008226398190361084,-0.015240940683235338,-0.00806691480341053,-0.021197066626796483,0.009816314460858863,0.18919372745136975,-0.40188797761512374,-0.7440903889592174
46.3,814.6749,0.10621731478549704,0.014092931117546281,-0.03515848600687532,-0.009370843825300417,-0.024341202668174206,0.019049530458504695,0.14424946351825846,-0.4157448050766583,-0.6558407347264009
46.3216,814.6949,0.07118255110048685,0.019934309087689783,-0.04787725179223892,-0.01291663851890674,-0.027313429505428744,-0.003993605344130697,0.18919372745136975,-0.40188797761512374,-0.7440903889592174
46.3381,814.7149,0.040245895894662445,0.023375851089115385,-0.05095918936448793,-0.02295906580903471,-0.027877943866016813,-0.011961589885982104,0.3117878441294791,-0.4451933679148305,-0.6884547373776572
46.3581,814.7349,0.013574787993070145,0.024754597198490658,-0.044081904059096816,-0.024499290016346674,-0.02746751413533555,-0.0071517918832190806,0.23523702531197133,-0.4901376318479434,-0.7344980352382587
46.3818,814.7549,-0.009562606919719746,0.024009814905617266,-0.02869444210746383,-0.019305135724229826,-0.02205214319522616,-0.007803496395021002,0.23523702531197133,-0.4901376318479434,-0.7344980352382587
46.3975,814.7749,-0.030244840703334448,0.01835877883974918,-0.007366259234106026,-0.023327193219826972,-0.019232366328664974,-0.019788758675209836,0.23523702531197133,-0.4901376318479434,-0.7344980352382587
46.4186,814.7949,-0.04671940798110395,0.01166579745536167,0.017067790141147468,-0.030779391790466647,-0.02611481906827226,-0.021899843882118387,0.2657445462688775,-0.35694371368201083,-0.6980470910986158
46.4383,814.8149,-0.05806433206368995,0.001094782426857982,0.04172376143418727,-0.029296029935867968,-0.026985429289586395,-0.011592667961874038,0.2646455123413905,-0.25483723198765934,-0.7958890990523938
46.4669,814.8349,-0.06173800952963675,-0.011907499332972332,0.06417064967641056,-0.012200952243509372,-0.0083926615332737,-0.011729071231786065,0.21860221448078895,-0.1665875777548397,-0.8054814527733525
46.4839,814.8549,-0.057800406972902355,-0.02691391094688103,0.08241647311593728,-0.0015421291293066023,0.010803760831170985,-0.01367747011958716,0.21860221448078895,-0.1665875777548397,-0.8054814527733525
46.4992,814.8749,-0.04503587954387145,-0.03948557467053884,0.09498463474915778,-0.009051333136959907,0.007314735179173155,-0.00973232688123134,0.25020876936518105,-0.1355001412832634,-0.671188500679933
46.5497,814.8949,-0.02043006842571335,-0.04578568451531331,0.10072959709804447,-0.012565639053913677,-0.003261178479998782,-0.020106265583373563,0.25020876936518105,-0.1355001412832634,-0.671188500679933
46.5535,814.9149,0.004763739926720745,-0.04993703263600893,0.09883600310669158,-0.007976448156318882,0.0002128722996111933,-0.016532346434018835,0.20416547150458114,-0.047250487050446904,-0.6807808544008912
46.5648,814.9349,0.03388931946711825,-0.050320611975918944,0.08946185750294097,0.012138083234032596,0.012357520468104193,-0.014069797386774363,0.25020876936518105,-0.1355001412832634,-0.671188500679933
46.5836,814.9549,0.06500446674660446,-0.04909920440010765,0.07402258939780756,0.03000613177029807,0.01853959410692869,-0.004701712895811853,0.25020876936518105,-0.1355001412832634,-0.671188500679933
46.5993,814.9749,0.09368236064941746,-0.0432658040309887,0.05558666912161967,0.022857509166337737,0.005098620764519332,-0.004911785442300847,0.12761465268707614,-0.09219475098355823,-0.7268241522614911
46.6161,814.9949,0.11887221396973896,-0.03448865966241363,0.03797759580289237,0.020590386045654493,-0.00699355992083777,-0.022503394778241093,0.2962520672257826,-0.22374979551608304,-0.6615961469589743
46.6408,815.0148,0.14044562825280674,-0.025754273709739123,0.02481797055100307,0.01739744384542758,-0.009982920703736199,-0.015601696276011438,0.17365795054767605,-0.18044440521637473,-0.7172317985405329
46.6597,815.0348,0.15572244067076374,-0.019638474492587016,0.018533263510778566,0.0038355945329015604,-0.022428542854727992,0.01776971862505441,0.25020876936518105,-0.1355001412832634,-0.671188500679933
46.6789,815.0548,0.16767083332272634,-0.01926822135222142,0.019479273695801977,0.005984448765610193,-0.028622180134086208,0.02688878561342084,0.25020876936518105,-0.1355001412832634,-0.671188500679933
46.7036,815.0748,0.17775986251039755,-0.026298858839578748,0.026203095828561174,0.025604361833202548,-0.016189513513638218,0.015297577224088983,0.25020876936518105,-0.1355001412832634,-0.671188500679933
46.7152,815.0948,0.18275452331987513,-0.03412323386043112,0.03634551402139097,0.03517315197879246,-0.014929694626018898,0.012753876864365202,0.3728028860432903,-0.17880553158297013,-0.6155528490983727
46.7381,815.1148,0.18182959405669052,-0.048122353799233436,0.046722090957737564,0.02391680157377419,-0.034750856349733864,0.03090049978660011,0.2973511011532712,-0.32585627721043403,-0.5637541390051994
46.7731,815.1348,0.17276711484772606,-0.06765488853393822,0.05452411179681907,0.030263109569640824,-0.04715961334181158,0.03910771763025222,0.34229536508638253,-0.31199944974889954,-0.6520037932380159
46.7861,815.1548,0.14973339563384105,-0.08032215377219135,0.05797435415383257,0.053078604599535784,-0.04263097881577692,0.028594114257932846,0.38833866294698405,-0.40024910398171915,-0.6424114395170573
46.796,815.1748,0.11497099396496646,-0.09041692842828972,0.05535197110998467,0.05826846147309649,-0.05425487115676829,0.011417661991035681,0.356732108062592,-0.43133654045329545,-0.7767043916104768
46.8183,815.1948,0.07818373509149354,-0.10275843095745643,0.045650355496057074,0.0762026341135326,-0.05748036871760415,0.016588708034930004,0.4027754059231935,-0.5195861946861151,-0.7671120378895181
46.8386,815.2149,0.03523303810738915,-0.11011757201364894,0.029457333254069865,0.0790040921670158,-0.06804399665344696,0.01427177091716968,0.4027754059231935,-0.5195861946861151,-0.7671120378895181
46.8591,815.2349,-0.008992401601978645,-0.11345405794571464,0.007743021234096176,0.0706465165326771,-0.044593643354297774,0.002626653499926039,0.356732108062592,-0.43133654045329545,-0.7767043916104768
46.8776,815.2549,-0.050410224829096156,-0.11208308759354155,-0.017766424232024236,0.06672542042089559,-0.020640709140049885,0.01892905049576946,0.43328292688009695,-0.38639227652018415,-0.7306610937498769
46.8959,815.2749,-0.08281784162603295,-0.10666039033866045,-0.044952600094343126,0.05194389649737691,-0.016128621619972416,0.023180381664898275,0.38723962901949543,-0.2981426222873645,-0.7402534474708355
46.9161,815.2949,-0.10196929373771176,-0.09699293895128172,-0.07151864809801423,0.05131979871411232,-0.015227434202048612,0.015389280125661346,0.3411963311588955,-0.20989296805454802,-0.7498458011917939
46.9394,815.3149,-0.10650331027173075,-0.0818195404678971,-0.09532406794749504,0.030998519140146605,-0.01603664835194766,0.0035304450675147487,0.38833866294698405,-0.40024910398171915,-0.6424114395170573
46.9634,815.3349,-0.09893630552492835,-0.060667908166779944,-0.11461862836599992,0.008860782528911742,-0.015559319847080836,-0.01321013064630206,0.34229536508638253,-0.31199944974889954,-0.6520037932380159
46.9837,815.3549,-0.08441246185031615,-0.03592903172801401,-0.12797227383737092,0.0037987014106783145,-0.011651997703800099,-0.01655709470661891,0.43328292688009695,-0.38639227652018415,-0.7306610937498769
46.9976,815.3749,-0.06682258515659165,-0.010235705287348129,-0.13388914900294732,-0.0007259633579960623,0.00815277643615912,-0.016442945697339503,0.5098337456976048,-0.34144801258707125,-0.6846177958892753
47.0158,815.3949,-0.04805103024467215,0.014212973029624876,-0.13069044123956233,-0.008561564256840848,0.018544344825611618,-0.004263534177838472,0.4637904478370032,-0.2531983583542516,-0.694210149610234
47.0419,815.4149,-0.03129183615883665,0.036105975314398076,-0.11683606333435453,-0.03632464387779723,0.004143580765778005,0.002871450366884891,0.4177471499764033,-0.1649487041214351,-0.7038025033311923
47.0681,815.4349,-0.017768990381468848,0.05313446443730177,-0.09172400543326964,-0.04504856397902066,0.0047927609597896,-0.02569630563779935,0.3717038521158017,-0.07669904988861548,-0.713394857052151
47.0827,815.4549,-0.0075800510483374495,0.05770133786850948,-0.056588878875852316,-0.03921180043686308,0.0032231308373208986,-0.029893727779016378,0.4482546709333067,-0.031754785955504156,-0.6673515591915511
47.101,815.4749,-0.0026670075850631497,0.05303516188775256,-0.01461362240402822,-0.06270183144067774,0.002029856927965687,-0.010893960916839425,0.35726710913959386,0.04263804081577732,-0.5886942586796897
47.1172,815.4949,-0.001180181301893457,0.03648330959681248,0.02905865645751267,-0.06283963078938835,-0.005696027653672329,-0.017718345048078152,0.3112238112789923,0.13088769504859696,-0.5982866124006484
47.1392,815.5149,-0.001876289417764257,0.012160954533807777,0.06871675735322516,-0.027480124100155132,0.010828251191964003,-0.028957130361701985,0.3112238112789923,0.13088769504859696,-0.5982866124006484
47.184,815.5349,-0.006289703655564555,-0.020448203252615343,0.09935730636838737,-0.01801124444292483,0.03620789851560592,0.0061506924099317736,0.35726710913959386,0.04263804081577732,-0.5886942586796897
47.1848,815.5549,0.00010641233322135346,-0.04246643601241093,0.11832149636687928,-0.008973827638802688,0.050806182974371804,0.020660278495328047,0.35726710913959386,0.04263804081577732,-0.5886942586796897
47.1982,815.5748,0.007211262504870947,-0.05879993642980311,0.12483896476295907,-0.015801818522785015,0.043012332168671265,0.026350079028451802,0.4798612258177015,-0.0006673494839262553,-0.5330586070981299
47.2159,815.5948,0.017893368383125344,-0.06409736957253534,0.11996815989667847,-0.033972773232538056,0.03634416202903126,0.013963856362726904,0.44935370486079534,-0.1338612676498588,-0.5695095512377728
47.2396,815.6148,0.03153778643881755,-0.059681277926774606,0.10532089915055506,-0.03350773592110465,0.03082700718211724,0.011951956093293066,0.40331040700019377,-0.045611613417039176,-0.5791019049587315
47.261,815.6348,0.04851706724664165,-0.04941521309995264,0.08251072871252897,-0.012687247799216674,0.037136071615165286,0.008316645880124207,0.40331040700019377,-0.045611613417039176,-0.5791019049587315
47.2785,815.6548,0.06560588528061176,-0.035524994998578446,0.05336791065546307,-0.008142885873154024,0.04435604459021187,0.0083085883029986,0.4338179279571016,0.08758230474889024,-0.5426509608190881
47.3018,815.6748,0.07844155652740914,-0.02137395086917812,0.020305258375233975,-0.006985134989461118,0.04612118872980047,0.012631478430885766,0.4338179279571016,0.08758230474889024,-0.5426509608190881
47.3187,815.6948,0.08772638655620116,-0.005263483156199733,-0.01325703701709513,-0.005386106654591154,0.030786384421299703,0.010346771621627868,0.40331040700019377,-0.045611613417039176,-0.5791019049587315
47.3374,815.7148,0.09156641284104355,0.008134056208549567,-0.04321412354578652,-0.024259592413519295,0.007815565459245307,-0.002180842337943958,0.44935370486079534,-0.1338612676498588,-0.5695095512377728
47.3631,815.7348,0.08905093470108524,0.01603300000193217,-0.06533104063173192,-0.024207922474430293,0.0037831980759913983,-0.0076262296982576895,0.49539700272139525,-0.2221109218826753,-0.5599171975168145
47.3782,815.7548,0.08293435256680604,0.016533088060648876,-0.07641596812543894,-0.01217196513150057,0.006422613168709423,0.016221129040342865,0.44935370486079534,-0.1338612676498588,-0.5695095512377728
47.3968,815.7748,0.07299223013301304,0.011357707653503385,-0.07521147895744973,-0.03218980559938612,-0.0012815259345099418,0.015887506977927932,0.49539700272139525,-0.2221109218826753,-0.5599171975168145
47.4248,815.7948,0.06062194969630394,0.003907640078724378,-0.06314803104401773,-0.04967901425287557,-0.019635542681988492,-0.018043142145069805,0.4648894817644918,-0.35530484004860624,-0.5963681416564557
47.4379,815.8148,0.047781811664042745,-0.01103153723136463,-0.04444164646286683,-0.029836044172269732,-0.013018735336483015,-0.026977844094919406,0.4648894817644918,-0.35530484004860624,-0.5963681416564557
47.4633,815.8348,0.03294995213013675,-0.02515406308027121,-0.024533674431201136,-0.015310638692392136,-0.006042429172915076,0.005741866294344522,0.41994521783138045,-0.3691616675101408,-0.5081184874236392
47.483,815.8548,0.01590046284746635,-0.0385721102957913,-0.009079629953369833,-0.01846462823252589,-0.004428949220992037,-0.0025346083431729075,0.5109327796250933,-0.4435544942814259,-0.586775787935497
47.5039,815.8748,-0.0020242623639440543,-0.04702784360349463,-0.0019277652135573364,-0.027259332741479264,-0.016789098912164742,-0.010336837012726146,0.38833866294698405,-0.40024910398171915,-0.6424114395170573
47.5198,815.8948,-0.018510054287610753,-0.05089214745364204,-0.004099665167841424,-0.01885422370543409,-0.009638891231251326,-0.01669560829434955,0.4188461839038902,-0.26705518581578663,-0.6059604953774144
47.5391,815.9148,-0.030925503658423753,-0.05054915835161064,-0.013252813994358334,-0.008724284307235205,0.01875455825553414,-0.0015485143806583713,0.37390191997077893,-0.2809120132773211,-0.5177108411445979
47.5611,815.9348,-0.03734760076689005,-0.04701595564525654,-0.024323942633055623,-0.0010784849134884594,0.033205942750852875,-0.007147571247581859,0.41994521783138045,-0.3691616675101408,-0.5081184874236392
47.5852,815.9548,-0.03693572802995665,-0.03880520553872105,-0.03108821468397474,-0.008140842075838307,0.03056796064535675,-0.016699637082912354,0.34339439901387275,-0.4141059314432537,-0.5541617852842408
47.5988,815.9748,-0.02862933767163415,-0.026247594867547325,-0.028558580872401734,-0.028483061766195753,0.023901381718541857,-0.012185667268903695,0.34339439901387275,-0.4141059314432537,-0.5541617852842408
47.623,815.9947,-0.014653720167254747,-0.009884110898089216,-0.014978194437395842,-0.05592578462520524,0.0032857671983100374,-0.012786916000133378,0.37500095389826754,-0.3830184949716758,-0.4198688331908196
47.6377,816.0147,0.005062910636193643,0.00064398445704128,0.007052118896964471,-0.04412946104561455,0.014590313670761213,-0.03546324019647931,0.405508474855171,-0.24982457680574485,-0.38341788905117835
47.6657,816.0347,0.026257878972848744,0.007412085903495069,0.031930007771145866,-0.020104489213081785,0.03002578432507342,-0.021495238402168357,0.3134218791339695,-0.07332526834010873,-0.4026025964930953
47.6801,816.0547,0.046475872461053835,0.00844138613889786,0.05275459829531867,-0.008880730332183206,0.02861107980335114,-0.005610300640261048,0.328957656037666,-0.2947688407388562,-0.42946118691177826
47.6989,816.0747,0.06274062839888725,0.0071637317683188595,0.06409277053582346,-0.005913678570028183,0.02425589725922068,-0.00894172508754994,0.328957656037666,-0.2947688407388562,-0.42946118691177826
47.7166,816.0947,0.07300604269427105,0.006278107478583678,0.06362979544111037,-0.010566579840204577,0.023506458027058773,-0.019043816485240197,0.3594651769945711,-0.16157492257292835,-0.39301024277213664
47.7383,816.1147,0.07654858648060864,0.006015322673930568,0.05259619493739837,-0.010580788892432202,0.017372858710495053,-0.011708159900674378,0.3594651769945711,-0.16157492257292835,-0.39301024277213664
47.7589,816.1347,0.07420688891828464,0.006268446802508459,0.03500947863233547,-0.008895631147940635,0.013796306366886212,-0.001723095218379817,0.3594651769945711,-0.16157492257292835,-0.39301024277213664
47.7822,816.1547,0.06837988613573326,0.006510157699947783,0.016123883432331468,-0.01779230692603895,0.008239101608241317,0.0025731281661630846,0.2673785812733696,0.014924385892707765,-0.41219495021405367
47.7952,816.1747,0.061191756054682744,0.005979511184157182,0.0008092864210874767,-0.013740375612509072,-0.0006029334093576116,-0.01544860231062494,0.3134218791339695,-0.07332526834010873,-0.4026025964930953
47.8195,816.1947,0.05479929923641824,0.004594418258267063,-0.00771653723670393,-0.0029861074136905167,0.00729971920957349,-0.019801612429195918,0.3594651769945711,-0.16157492257292835,-0.39301024277213664
47.8391,816.2147,0.04790452007229354,0.0034275410245307725,-0.008531323257554235,-0.008104182027289197,0.013022695552304292,-0.006280038777058371,0.40440944092768405,-0.14771809511139333,-0.48125989700495625
47.8637,816.2347,0.04078246967994034,0.004297943827796885,-0.0031914247111905353,-0.008897485812258252,0.002901527806828314,0.0062650332662856,0.3583661430670825,-0.05946844087857371,-0.49085225072591493
47.8848,816.2548,0.034717542889439054,0.0077670810951652736,0.004735327408430676,-0.029194282631766634,-0.017097111622447286,0.0024764372406558227,0.43491696188459017,-0.014524176945460805,-0.44480895286531336
47.8987,816.2748,0.031054413249054252,0.012194192275435278,0.01081939038040447,-0.0340286754499941,-0.018667858720844654,-0.007847045680914157,0.48096025974519174,-0.10277383117828043,-0.4352165991443547
47.917,816.2948,0.028294812558679147,0.017868510632568585,0.011632783772117364,-0.006798694026535398,0.0014113435508595095,0.0015588326837089317,0.45045273878828396,-0.23596774934420983,-0.47166754328399796
47.9365,816.3149,0.02400202264936195,0.022827262901506967,0.006485988892069472,0.004367963612497068,0.0068552497427139475,0.010865526110857305,0.41994521783138045,-0.3691616675101408,-0.5081184874236392
47.962,816.3349,0.01478423967832565,0.02406115780176077,-0.0013971106670981337,-0.010186358894910501,-0.007558965451421543,0.005348579791785223,0.465988515691982,-0.4574113217429604,-0.49852613370268056
47.9832,816.3549,0.000666298010920649,0.018916344025225768,-0.005273495044516935,-0.0021531886268464865,-0.005897541798544237,0.007615636670196561,0.41994521783138045,-0.3691616675101408,-0.5081184874236392
48.0031,816.3749,-0.015434748152826958,0.0037996061341337706,0.002915636569063365,0.0017548302089066832,-0.003568744567071148,0.029359775931939752,0.45045273878828396,-0.23596774934420983,-0.47166754328399796
48.0195,816.395,-0.03020139613310245,-0.02136143317409031,0.029167645783961874,-0.0029747587376450614,-0.009325365752846974,0.030897046539260564,0.4964960366488855,-0.32421740357702944,-0.4620751895630393
48.0372,816.415,-0.042279515605536354,-0.05430391698358103,0.07383564746462076,-0.010641689446224687,-0.01743208189473602,0.025016933708312993,0.4964960366488855,-0.32421740357702944,-0.4620751895630393
48.0614,816.435,-0.05322605793328275,-0.09234107914794934,0.12958002415013617,0.03468179716260307,-0.011750431228322549,-0.00015301876133332464,0.542539334509487,-0.4124670578098491,-0.45248283584208066
48.1004,816.4551,-0.06444082401410305,-0.1469237220362102,0.18182042776789517,-0.0008204674353419304,0.04158057591773868,0.08773826513647003,0.5885826323700869,-0.5007167120426655,-0.4428904821211223
48.1174,816.4751,-0.04103351372161985,-0.17617647497200703,0.21553461051876366,0.0425171781755877,0.0981500884967902,0.18998968624869716,0.4975950705763741,-0.4263238852713841,-0.36423318160926105
48.1256,816.4951,0.0023833642049427423,-0.16460193196069275,0.21881134695358748,0.276482450924311,0.13672998239507064,0.10962667339817647,0.6201891872544817,-0.4696292755710877,-0.30859753002770113
48.1496,816.5151,0.058227747048672146,-0.18035939739599663,0.18516535047091517,0.3243793870932908,0.17071418807119274,0.045905243171072294,0.5752449233213704,-0.48348610303262224,-0.22034787579488463
48.1622,816.5352,0.09919077142911556,-0.13229845742462584,0.12542568413666297,0.2759749361207161,0.20433938576862756,0.12274901328844776,0.6517957421388781,-0.43854183909950933,-0.17430457793428308
48.1767,816.5552,0.11883642370206784,-0.07818985693536393,0.05160473432558047,0.1165881092084002,0.13593163735056632,0.4240030210015314,0.5303006593882575,-0.49734293049415723,-0.132098221562065
48.2042,816.5752,0.10826591900882476,-0.06967096652017621,-0.021731342251025326,0.26476081559396775,0.15318895011156178,0.28551686740253235,0.48535639545514464,-0.5111997579556923,-0.04384856732924538
48.2223,816.5953,0.09622657063527285,-0.03463583027380232,-0.08091426616835543,0.32270025997639745,0.11013834837857166,0.11445105177859537,0.4259753885458282,-0.4057194947128324,0.16910168527603398
48.24,816.6153,0.07370138453769595,-0.01110120608589743,-0.12184959001564852,0.19816353588286856,0.08449456955783537,0.1833629046041102,0.33498782675211536,-0.33132666794154736,0.2477589857878918
48.2582,816.6353,0.040364991801115455,-0.0028906991000693383,-0.14576501395213864,0.18226994522942597,0.06908478497693352,0.2579937187180605,0.2134927440014947,-0.39012775933619526,0.2899653421601099
48.2774,816.6553,0.0008946785870575513,-0.0062539819662737195,-0.15708665128215904,0.28666216870891664,0.11584635664124307,0.11706170676729143,0.24509929888588955,-0.3590403228646174,0.42425829425353107
48.3011,816.6754,-0.03496729594986675,-0.018392948377483537,-0.15995066415708392,0.25681418491822444,0.14051999224006992,0.003298118260393157,0.12470325006275913,-0.5199478959536195,0.5643066585795243
48.3283,816.6954,-0.05472046994008395,-0.019221963019399324,-0.15536642714032095,0.17846405610073915,0.042988572473583314,-0.0020828084829157623,0.110266507086554,-0.4006108052492215,0.6890072569519837
48.3453,816.7154,-0.06919779055118835,0.00974926453477687,-0.14183386066003462,0.08974228624604051,-0.023928035304910986,-0.013479867632935414,-0.025665318640273372,-0.34007480593947187,0.8559142116966643
48.3622,816.7355,-0.07056278148159806,0.04294750136673586,-0.11844193613558632,0.1552778864248836,-0.006142935647693466,-0.2791025019082955,-0.20764044222769906,-0.1912891523969053,1.0132288127203835
48.3807,816.7555,-0.06636091479716025,0.06827411528853577,-0.08514649203091612,0.12952745008245448,-0.0033645993247043474,-0.346466340690322,-0.29862800402141026,-0.11689632562562335,1.0918861132322415
48.397,816.7755,-0.07738215267702325,0.07665458086693466,-0.04429777511428473,0.06289774716765371,-0.0022426687380029363,-0.20094822442556268,-0.31306474699761977,0.0024407650787725784,1.2165867116047024
48.4186,816.7956,-0.09205054581579974,0.07053172272791977,-0.0007062030399686281,0.010255829329105518,0.000642673785881074,0.03365926071674778,-0.4489965727244455,0.06297676438852265,1.38349366634938
48.4396,816.8156,-0.10037416434033185,0.05735583696497218,0.03912721003680397,0.028250515605591185,-0.00598797491071643,-0.06273909800202486,-0.4645323496281393,0.2844203367872717,1.4103522567680644
48.4635,816.8356,-0.08334728473648155,0.04422843358116407,0.06823378130522367,0.028005229495856772,-0.0056653432003921245,-0.15419048805982477,-0.6770149941724711,0.3000120721639057,1.5312159136521406
48.4798,816.8557,-0.05782648169933585,0.03237736893417717,0.08048782619127456,0.08714635705993339,-0.008352504364872296,-0.15702541227851688,-0.6465074732155649,0.43320599032983825,1.5676668577917836
48.5039,816.8757,-0.02373622356077075,0.02128123574527338,0.07251860031981157,0.06258595249142326,0.0194107710581054,-0.03849960384331151,-0.6620432501192614,0.6546495627285857,1.5945254482104667
48.5246,816.8957,-0.006477896963802354,0.01679858068649287,0.045467160089767075,0.046931991421772346,0.04438752977493633,0.030821266944864992,-0.7374950350092794,0.5075988171011229,1.6463241583036448
48.5389,816.9158,0.0013845725321549457,0.024433454359271578,0.0048720634923083705,-0.028551095265541816,0.0019259459256217972,0.09162700533494662,-0.6764799930954681,0.7739866534329832,1.719226046582929
48.5702,816.9358,-0.006996487192077447,0.03830690092355818,-0.04058825627827703,-0.05410112546275615,-0.020425662863050715,0.07232891627204785,-0.6920157699991619,0.9954302258317322,1.7460846370016136
48.5797,816.9558,-0.008934887710155145,0.05123744589362217,-0.08143758490723013,-0.02919961478483679,-0.05882772499572948,0.0007597896187530854,-0.6154649511816569,1.0403744897648435,1.7921279348622137
48.6075,816.9758,-0.02256292361168545,0.07227967434466737,-0.10907882880641093,-0.07875276471357173,-0.08145085429898753,0.017659406557263387,-0.5849574302247508,1.173568407930776,1.8285788790018567
48.6238,816.9959,-0.04244072990744475,0.07217027414322238,-0.11921808571218642,-0.10243157241912855,-0.06711313953000358,0.008542641733789984,-0.6310007280853507,1.2618180621635926,1.8189865252808983
48.6421,817.0159,-0.06666701266275275,0.05913352480887388,-0.11109505143870332,-0.11098889808060138,-0.04226409867884736,0.01708348163985703,-0.5095056453347327,1.320619153558239,1.7767801689086786
48.6623,817.0359,-0.08700429313671625,0.034072986600079874,-0.08776409774722244,-0.06900615880201454,-0.030343515629472132,0.02719190399100312,-0.5095056453347327,1.320619153558239,1.7767801689086786
48.6844,817.056,-0.09804370941865526,0.004692494565661981,-0.054325819468728526,-0.013662703759012743,-0.031192637795225575,0.05939151696151668,-0.4645613814016214,1.3344759810197735,1.688530514675862
48.7022,817.076,-0.09893163210428985,-0.019977676780595116,-0.01646619808432584,-0.042807713950326926,-0.041246368261873396,0.036737447025803366,-0.46346234747413284,1.2323694993254224,1.786372522629637
48.7205,817.0961,-0.09610412648171185,-0.034321384842329355,0.02046734172714737,-0.10662522686427753,-0.02848613517680141,0.008324703457249805,-0.4185180835410215,1.2462263267869569,1.6981228683968204
48.7458,817.1162,-0.09816941892416045,-0.03678361558230561,0.05196040886514497,-0.13526350821486116,-0.030142762588182798,0.06685091490908286,-0.3724747856804199,1.1579766725541374,1.707715222117779
48.7633,817.1362,-0.09452449054928905,-0.04114873955177015,0.07438755875998676,-0.04014748591478412,-0.02201847199666377,0.04803493754419947,-0.32753052174730707,1.1718335000156723,1.6194655678849592
48.7811,817.1563,-0.09123823745194065,-0.0439764555408835,0.08625831405077147,-0.022972238883832874,-0.007382695472653663,0.055624024114073016,-0.29592396686291217,1.2029209364872502,1.7537585199783805
48.7997,817.1764,-0.08815491345631045,-0.043347892285323014,0.08805581873930227,-0.003680421419659122,-0.012803678945653367,0.06598031288536867,-0.2049364050691977,1.1285281097159656,1.6751012194665194
48.8206,817.1964,-0.08505920115823315,-0.03756750481430085,0.08212044813324877,0.013915647764529263,-0.02015781154868109,0.04125429454592831,-0.25097970292979926,1.2167777639487853,1.6655088657455608
48.8378,817.2165,-0.08067942330442135,-0.024241940260962852,0.07192478148351297,0.019211290143270516,0.012451373892064846,0.016538827795581017,-0.2354439260261056,0.9953341915500362,1.6386502753268761
48.8675,817.2365,-0.07803795546810136,-0.009310552077919226,0.06066930285706757,-0.004268041250267895,0.015465925729680115,0.04865805684191293,-0.2354439260261056,0.9953341915500362,1.6386502753268761
48.8778,817.2566,-0.057472593403502956,0.009394337943630565,0.05056745137396787,-0.07756747872389053,-0.008387652445876515,0.09826817551011505,-0.3119947448436106,0.9503899276169249,1.5926069774662763
48.899,817.2767,-0.035580009751066954,0.026474801278499965,0.041846437601838274,-0.05536080655984732,-0.011586274093625988,0.05784580508292142,-0.26595144698300904,0.8621402733841053,1.6021993311872351
48.924,817.2967,-0.010588954468479253,0.04001388768364347,0.03317931254204197,-0.05304650875507867,-0.0048195115527658915,0.058013287578889364,-0.26595144698300904,0.8621402733841053,1.6021993311872351
48.9384,817.3168,0.02164373257673745,0.044569428206317485,0.022335718227553272,-0.07632857393146815,-0.013149719964686054,0.06769235617748534,-0.29645896793991683,0.7289463552181759,1.565748387047592
48.9632,817.3368,0.038410833700493044,0.04322075499900438,0.007941618892443172,-0.06257394037470151,-0.02968193428182211,0.059636889369698805,-0.29755800186740544,0.831052836912527,1.4679063790938172
48.9871,817.3569,0.04374724078342075,0.035715428460590476,-0.010250820794255433,-0.04193718831347448,-0.031561542399173914,0.06432198677408935,-0.34250226580051674,0.8171960094509924,1.5561560333266335
49.0037,817.377,0.03586410202407295,0.025070862940646865,-0.030652853924641732,0.019246496586363848,-0.03908527179053071,0.00708210995623685,-0.3885455636611183,0.905445663683812,1.5465636796056748
49.0292,817.397,0.013847456428460553,0.017628924781103478,-0.05031428159732754,-0.0433326340645084,-0.0769477713763589,0.010105044307859716,-0.46509638247862334,0.8605013997507007,1.5005203817450747
49.0448,817.417,-0.01956302143414035,0.008850125983201063,-0.06619277633128692,-0.047692573981858985,-0.053210386534770275,0.007453142198163514,-0.46509638247862334,0.8605013997507007,1.5005203817450747
49.0641,817.4371,-0.057449939060800856,0.0029924495091591674,-0.07558094316248243,-0.029947715962626065,-0.01814469773830004,0.021996301521583144,-0.46509638247862334,0.8605013997507007,1.5005203817450747
49.0775,817.4571,-0.08881499496600145,-0.0020606391440068372,-0.07684966800557963,-0.0428195055695912,-0.006617934324950199,0.02417434135746399,-0.5416472012961311,0.8155571358175878,1.4544770838844734
49.1019,817.4771,-0.11538197176876645,-0.0014852322718440225,-0.06927857360099013,-0.08529971279343355,0.0035374628540809565,0.04774927725038932,-0.6181980201136388,0.7706128718844749,1.4084337860238718
49.1187,817.4971,-0.12025759882551526,0.0028319099944961734,-0.05341751973330014,-0.06808719690267237,0.018917640730122035,0.01738909402940677,-0.6487055410705422,0.637418953718544,1.3719828418842306
49.1457,817.5172,-0.10933625008543435,0.01699716310962618,-0.030939401214150536,-0.048627823227559486,0.018108841186155675,-0.02611952028396804,-0.6037612771374309,0.6512757811800785,1.2837331876514142
49.1635,817.5372,-0.08612993518515735,0.029971273091070283,-0.005069041479416725,-0.03789174255823886,-0.018609480096708823,-0.06518227049475299,-0.6342687980943387,0.518081863014149,1.247282243511771
49.1836,817.5572,-0.060398304731079155,0.042117859269222374,0.020629922115851074,-0.041148061262611016,-0.035575702579995545,-0.09096651729668949,-0.6342687980943387,0.518081863014149,1.247282243511771
49.2101,817.5773,-0.03980390275211325,0.04807909249112227,0.04280908130044857,-0.017972002677598995,-0.017885648201268603,-0.04592657963530086,-0.6658753529787308,0.48699442654257274,1.1129892914183515
49.2196,817.5973,-0.03276957026679175,0.043599869870233066,0.05933419594966107,0.008592925567015594,0.00682990599655344,0.015789473122899734,-0.6658753529787308,0.48699442654257274,1.1129892914183515
49.2376,817.6173,-0.03232652642281405,0.03381351526330467,0.06963763684637436,0.01234618715888973,0.01674615461212802,-0.00013018895947744497,-0.7119186508393307,0.5752440807753892,1.103396937697393
49.2614,817.6373,-0.035928074236434154,0.024711677708639662,0.07421428544610836,-0.02942462479847122,0.005071044197069835,-0.02807520936059706,-0.7424261717962385,0.44205016260945984,1.0669459935577499
49.2818,817.6573,-0.04242300657460945,0.02048025242362156,0.07369872663521387,-0.03595168030646018,0.0003204005873820339,-0.04045126413137774,-0.6974819078631256,0.4559069900709949,0.97869633932493
49.3047,817.6773,-0.05072583995766855,0.02279599300414817,0.06830233108910677,-0.008893226524982142,-0.016346635827117574,-0.06252307819622888,-0.651438610002524,0.3676573358381752,0.9882886930458887
49.3198,817.6973,-0.06273056365240276,0.023218397823184467,0.05814930956392617,-0.04043378546539702,-0.04361556452465571,-0.05379135045111475,-0.651438610002524,0.3676573358381752,0.9882886930458887
49.3399,817.7173,-0.06767166436899286,0.02505873685378457,0.045139394773581074,-0.012858169502700528,-0.027473828453157316,-0.05036879864347676,-0.6053953121419225,0.2794076816053556,0.9978810467668474
49.3605,817.7373,-0.06090300160129395,0.023282334553174078,0.03385781812084987,0.08099664797385475,0.0036311047167784114,-0.03643954995819847,-0.6053953121419225,0.2794076816053556,0.9978810467668474
49.3787,817.7573,-0.03780115084950245,0.02077501255556377,0.03158326440519707,0.07427393580626312,0.023377136371329016,-0.000774027741228179,-0.5593520142813226,0.19115802737253912,1.0074734004878056
49.4032,817.7773,0.0055386306139451474,0.01577583660977866,0.045274265293305874,-0.0002685019414177198,0.042720142054383944,0.0445947358057149,-0.5593520142813226,0.19115802737253912,1.0074734004878056
49.4187,817.7973,0.07113376669353566,0.020519977122653077,0.07739601960457898,-0.026006630751955553,0.027894055607914792,0.06999739877663168,-0.5593520142813226,0.19115802737253912,1.0074734004878056
49.4431,817.8173,0.13959049995087824,0.032723961859413064,0.12152630680553607,-0.05883078242834367,-0.02107882034567465,0.06358529400831975,-0.5288444933244147,0.3243519455384685,1.0439243446274489
49.46,817.8373,0.20968105541762694,0.04511907576853447,0.16134183397576618,-0.12555283898556166,-0.07950737861100686,0.08827198369750418,-0.5737887572575276,0.3104951180769335,1.1321739988602686
49.4786,817.8573,0.25558117787744333,0.058942509069558974,0.176380490377347,-0.07447827823152843,-0.06341945338957052,0.07389726610542457,-0.6503395760750355,0.26555085414382057,1.086130700999667
49.4991,817.8773,0.26637066019998196,0.07421556120877507,0.15007210791016698,0.03469391971975436,-0.02134283279619587,0.05165029566162874,-0.5748877911850163,0.41260159977128813,1.0343319909064903
49.5204,817.8973,0.23905037612768976,0.09667988832144198,0.07930591437646528,0.12060007144798926,-0.012562956941979396,0.013017282897542727,-0.5748877911850163,0.41260159977128813,1.0343319909064903
49.5389,817.9173,0.17360424978437478,0.13400416254800687,-0.021145750882170133,0.1355398110643508,-0.05128995787333906,-0.01382902930837829,-0.5748877911850163,0.41260159977128813,1.0343319909064903
49.5638,817.9373,0.09085147169665064,0.17324874160634987,-0.12329877916544754,0.0804038092445057,-0.060183454385302586,-0.015622607607123126,-0.49833697236751134,0.4575458637043995,1.0803752887670903
49.5842,817.9573,0.0011999085537176546,0.20421313575345026,-0.19546558099980754,0.032503901080945155,-0.031608630405144875,0.01223166912779622,-0.49833697236751134,0.4575458637043995,1.0803752887670903
49.5989,817.9773,-0.06493089793782195,0.20965225154738326,-0.21550105502882094,-0.02587161172729414,-0.001268064189352915,0.08764023128144184,-0.49833697236751134,0.4575458637043995,1.0803752887670903
49.6193,817.9973,-0.09825897708900246,0.18293021854485178,-0.1794471951589559,-0.060405345857332204,-0.0018200737734466441,0.1336489966686473,-0.5443802702281129,0.5457955179372191,1.0707829350461318
49.6433,818.0173,-0.09775364183091295,0.1337397931506173,-0.10464807833352252,-0.07407708444581883,-0.028355074812180605,0.10798139288795763,-0.5443802702281129,0.5457955179372191,1.0707829350461318
49.6854,818.0372,-0.08353440238819455,0.08048497534187526,-0.024622833102171726,-0.051686959867388506,-0.06729281358750537,0.06897562125827518,-0.5443802702281129,0.5457955179372191,1.0707829350461318
49.695,818.0572,-0.06277812273320875,0.025587762324075974,0.022368572390374666,0.015711801754574654,-0.09461877336293475,0.035327179181748054,-0.5443802702281129,0.5457955179372191,1.0707829350461318
49.7073,818.0772,-0.07809165178591655,-0.010688449701389324,0.008588703946635176,0.08320499856974163,-0.09605073392533811,-0.0025133133179123714,-0.49943600629500157,0.5596523453987536,0.982533280813315
49.719,818.0972,-0.14762802859335633,-0.019902876926863627,-0.07189546687578083,0.17064189377565595,-0.07650144973667385,-0.04490806351720948,-0.49943600629500157,0.5596523453987536,0.982533280813315
49.7387,818.1173,-0.2575641878609344,-0.00601726663302693,-0.20007049924501236,0.170631980899069,-0.06753328338988225,-0.09610571672623022,-0.4533927084344,0.47140269116593403,0.9921256345342737
49.7604,818.1373,-0.40489170417169756,0.032740232586810164,-0.3385581286272755,0.08002865676260557,-0.1067094121283273,-0.12348210239877143,-0.4533927084344,0.47140269116593403,0.9921256345342737
49.7786,818.1573,-0.570289378346937,0.07633040325025067,-0.4460672846959219,-0.027619126074286147,-0.13512449502428484,-0.13569623823874233,-0.3768418896168923,0.5163469550990469,1.0381689323948753
49.807,818.1773,-0.7027072333878108,0.12072406151797888,-0.48874568160547466,-0.09567715081819925,-0.1255724475984514,-0.16055136965926678,-0.2858543278231778,0.4419541283277623,0.9595116318830142
49.843,818.1974,-0.7807949305751403,0.14734157795034467,-0.4525327642698726,-0.10459626185206486,-0.07828331811687565,-0.19850716225065315,-0.2093035090056728,0.4868983922608736,1.0055549297436142
49.8476,818.2174,-0.8252310018753939,0.09341634914916608,-0.34788898922337863,-0.08952473446567825,-0.0015462456074500036,-0.20162659568070884,-0.1632602111450729,0.3986487380280571,1.0151472834645725
49.8592,818.2374,-0.8023174420773361,0.035758945785756474,-0.19567586129509584,-0.13130274450878185,0.04161327364183189,-0.15175249543810596,-0.11831594721196156,0.41250556548959166,0.926897629231756
49.8826,818.2575,-0.7276653536040687,-0.0046239068595391175,-0.027781585205665038,-0.1661144122951086,0.07173563689895814,-0.10868359461929988,-0.04176512839445387,0.4574498294227046,0.9729409270923577
49.8994,818.2775,-0.6116438777021369,-0.03343843378748132,0.12561551830572998,-0.14948073847942303,0.1150935954188941,-0.13355177164088486,0.08082898828365537,0.41414443912299786,1.0285765786739178
49.9191,818.2975,-0.4716598436334509,-0.03473058886286792,0.24310909207382037,-0.1179061522154299,0.15594147174624065,-0.17681405431070546,0.20232407103427333,0.47294553051764415,0.986370222301698
49.9423,818.3175,-0.32871176001821545,-0.010088453637746742,0.31487320215481174,-0.08689473990987015,0.16226793149391777,-0.19740960513790107,0.23283159199117948,0.6061394486835767,1.022821166441341
49.9611,818.3376,-0.20686715922250595,0.028151567426780683,0.34252366829975434,-0.09931376446965319,0.16213856190016862,-0.15806618265724087,0.3093824108086845,0.651083712616688,1.068864464301941
49.9804,818.3576,-0.11713925162133325,0.07225156312748157,0.33623747998214104,-0.13141125323689348,0.1606370820373792,-0.10058611330221555,0.400369972602399,0.5766908858454034,0.9902071637900799
50.0003,818.3776,-0.05869146809646005,0.11072987787814997,0.30924272695053046,-0.12245655219921144,0.15961640504848856,-0.08926233973462401,0.4308774935593052,0.7098848040113359,1.0266581079297228
50.0186,818.3977,-0.022953672630283854,0.13293785979556966,0.27371141945691524,-0.0945586447520348,0.15705708244140001,-0.10660646634456353,0.47582175749241656,0.7237416314728705,0.9384084536969063
50.0443,818.4177,-0.006900550384704551,0.13711976232375578,0.23856259841810368,-0.09852221994933043,0.14337643490288332,-0.10523207390342461,0.4308774935593052,0.7098848040113359,1.0266581079297228
50.0655,818.4377,-0.0047766589404310555,0.11865601797268358,0.20857440321830656,-0.08230496672262651,0.15195003288503414,-0.09147932452661195,0.5984158741705258,0.6804362411731638,0.9940441052784666
50.0781,818.4577,-0.008422469377228944,0.08464197077450408,0.1847775400680718,-0.09062908776968685,0.1806187648918998,-0.023375531578550653,0.5984158741705258,0.6804362411731638,0.9940441052784666
50.0994,818.4778,-0.02584834613611675,0.04508407046483348,0.16534849668400867,-0.11695135474861616,0.18509810993484763,0.004069727193707021,0.5984158741705258,0.6804362411731638,0.9940441052784666
50.1264,818.4978,-0.05200732065779885,0.007521980223791275,0.14639221341511477,-0.14119349236469686,0.1857538736990023,0.011894593818041727,0.5218650553530181,0.6354919772400509,0.948000807417865
50.1442,818.5178,-0.061874806160290355,-0.019687528179700237,0.12349393125902107,-0.11137861854828479,0.19758453221754582,0.015780648157476443,0.47582175749241656,0.7237416314728705,0.9384084536969063
50.1595,818.5379,-0.06483031358886805,-0.03053765528538574,0.09348046361007557,-0.10585655942167872,0.21057225222488418,0.06424716641506587,0.42977845963181666,0.811991285705687,0.928816099975948
50.1861,818.5579,-0.08221292908223485,-0.027574264546555344,0.05567969534100157,-0.1014319432387959,0.20336173787435877,0.07852423384626611,0.26224007902059593,0.8414398485438592,0.9614301026272043
50.2007,818.5779,-0.07604543233930555,0.0036239932840954614,0.013585768746185167,-0.07729431751031154,0.18509712189476377,0.042951949307463544,0.23063352413620222,0.8103524120722825,0.8271371505337879
50.2266,818.5979,-0.07157114425798025,0.04683538882029836,-0.026476700603656228,-0.07544133852800788,0.16399141217868177,-0.007180568944381963,0.2012250371067847,0.5750520122119989,0.8885282143479197
50.2417,818.618,-0.041973066665174454,0.09979031570581168,-0.05570279795419414,-0.04616105838978226,0.12853837524708264,-0.0026852082965919634,0.048123399471771966,0.48516348434577466,0.7964416186267184
50.2617,818.638,0.004887006851177753,0.14561159098617188,-0.06591348735823804,-0.029871293785214127,0.0962488264216604,-0.002224007929688274,-0.11941498113944857,0.5146120471839432,0.8290556212779782
50.2793,818.658,0.06993601459753074,0.17766983582259738,-0.052270024689651834,0.0046353900207914455,0.08198018246014972,-0.04434134725937526,-0.16435924507256147,0.5007552197224081,0.9173052755107978
50.307,818.6781,0.14396183935007734,0.19128796506506796,-0.016292059914386925,-0.008402906915397213,0.04302775158784466,-0.0536417097330678,-0.2858543278231778,0.4419541283277623,0.9595116318830142
50.3201,818.6981,0.21077465538178547,0.18036241606042908,0.03278997795270247,-0.07562571689477844,-0.011941862618341327,-0.0009841002877171818,-0.4073494105737985,0.38315303693311437,1.0017179882552323
50.3398,818.7181,0.24983723839228067,0.15132100436613466,0.07929760029139868,-0.065144153815002,-0.03295652518791281,0.01005151897409676,-0.48390022939130345,0.33820877300000307,0.9556746903946325
50.3648,818.7381,0.24425616645082254,0.11058782354381537,0.10515477048194496,-0.016974660948586053,-0.04861055318187672,0.01689604704814951,-0.6053953121419225,0.2794076816053556,0.9978810467668474
50.3796,818.7581,0.18949703672088436,0.06539065032164146,0.09615595950412317,-0.011528555393584758,-0.0909714221622959,0.053165695702465765,-0.6963828739356369,0.35380050837664023,1.0765383472787085
50.4068,818.7781,0.08961250416846406,0.03166134984170338,0.048820243205934075,-0.0004586998172437348,-0.10114697868361618,0.02744917091779924,-0.7729336927531446,0.30885624444352733,1.0304950494181069
50.4282,818.7981,-0.04989779834912135,0.014107696935377084,-0.026662571814363517,0.05125698708663452,-0.05161787858271615,-0.06441929467978795,-0.8483854776431611,0.16180549881606135,1.0822937595112851
50.4466,818.8181,-0.21183184530320684,0.014648402755284062,-0.10896480606021852,0.07116631886898707,0.010348402167774794,-0.09300335768579783,-0.8483854776431611,0.16180549881606135,1.0822937595112851
50.4677,818.8381,-0.36900609302283843,0.029481710605745975,-0.17214258111881503,-0.02908363194339185,0.044785807891501044,-0.020974373595120308,-0.9698805603937801,0.10300440742141391,1.1245001158835002
50.4808,818.858,-0.49264280542685734,0.045728221265816466,-0.19381903471784295,-0.10203957490337402,0.0474796985648002,-0.021717972855569014,-0.9698805603937801,0.10300440742141391,1.1245001158835002
50.4989,818.878,-0.5628652956220788,0.05510384804230328,-0.16202423805538285,-0.14028138500765872,0.06596233459801253,-0.04383295251216448,-0.9843173033699868,0.22234149812581142,1.2492007142559627
50.5262,818.898,-0.5752258943565,0.04695958868219646,-0.07912776169825322,-0.12842476680668966,0.1306838163794885,-0.03385306770087922,-0.9538097824130833,0.35553541629174235,1.2856516583956041
50.5408,818.918,-0.511909313158106,0.014176273199785261,0.04037609724633687,-0.09398804048408428,0.17460175759449487,-0.005271690553911221,-0.9538097824130833,0.35553541629174235,1.2856516583956041
50.5625,818.938,-0.40652885587046694,-0.03302149839366594,0.17095226469979719,-0.04983788159159981,0.17493811971723294,-0.0166489894552657,-0.9077664845524818,0.26728576205892274,1.2952440121165627
50.5789,818.958,-0.27540798290314816,-0.07773144661316991,0.2859363697193811,-0.021965931646064023,0.14314271565495604,-0.054517683474865734,-0.9843173033699868,0.22234149812581142,1.2492007142559627
50.6039,818.978,-0.14470827184153806,-0.11721859256201864,0.36229716283899666,0.0048412921307993025,0.10851553674930133,-0.05599068531225612,-1.0303606012305884,0.31059115235863105,1.2396083605350041
50.6201,818.998,-0.03219790816506735,-0.1409685339066635,0.38679619540363785,0.02858189040443105,0.1225635567248405,-0.021626078106922228,-1.0303606012305884,0.31059115235863105,1.2396083605350041
50.6508,819.018,0.06205162775300274,-0.16922300132496784,0.35648440073111526,0.08742861664275856,0.14284649810137942,-0.041072273111272595,-1.0303606012305884,0.31059115235863105,1.2396083605350041
50.6848,819.038,0.13377599646165445,-0.19214456627544582,0.28003232932112826,0.1237475040081532,0.14170363065103972,-0.05390530761331974,-0.9538097824130833,0.35553541629174235,1.2856516583956041
50.6905,819.058,0.15565565131704454,-0.16535302517884434,0.1754539652964653,0.1148274304322741,0.11939793833814134,-0.05711203146223617,-0.9538097824130833,0.35553541629174235,1.2856516583956041
50.7117,819.078,0.16672066161561006,-0.14083918285783845,0.05719268368017027,0.07421478452817346,0.07134300965433418,-0.0368761938995765,-1.0447973442067946,0.42992824306302435,1.3643089589074622
50.7265,819.098,0.15922095899907446,-0.10307170914994082,-0.05904237309890503,0.0377178503885805,0.028350466755220714,-0.015154500745540353,-1.1673914608849012,0.47323363336273266,1.3086733073259036
50.741,819.118,0.14696933990020786,-0.06167401366902811,-0.16357163017669463,0.012652786920458334,0.009854338402454853,0.01140845333146356,-1.2123357248180142,0.4593768059011976,1.396922961558723
50.7632,819.138,0.13784452107155376,-0.025189724277181108,-0.25026165685855045,0.038397321630173294,0.05004231354216785,0.015600503754596854,-1.303323286611727,0.5337696326724791,1.4755802620705845
50.7855,819.158,0.13500152388716155,0.009530594994964864,-0.31420526411613514,0.059110805308451704,0.08462146982546755,0.04957355108104122,-1.303323286611727,0.5337696326724791,1.4755802620705845
50.8006,819.178,0.13915177919637425,0.051479091843587066,-0.35065150086277674,0.051968667019870206,0.04744890154524875,0.08578794777792476,-1.3787750715017462,0.38671888704501517,1.5273789721637576
50.8247,819.198,0.14151436707931925,0.08513468366993937,-0.35600350796688635,-0.0019417958741444698,-0.033235211241223105,0.06711374540103712,-1.455325890319251,0.3417746231119039,1.4813356743031578
50.8417,819.218,0.13873605711211764,0.10762113757767706,-0.3294849909865688,-0.04678765477940535,-0.08416398167280643,0.049433502716715226,-1.6228642709304717,0.3712231859500724,1.5139496769544174
50.8581,819.238,0.11964468660753094,0.10477641357595166,-0.27541693355684294,-0.0236708651838055,-0.12791116173103945,0.03910790947732663,-1.667808534863583,0.35736635848853787,1.602199331187234
50.8785,819.2579,0.07722880964928894,0.07558668498404858,-0.20344974025576212,-0.03312556356854224,-0.15804715649362738,0.036484400734644484,-1.7138518327241843,0.4456160127213575,1.5926069774662754
50.9,819.2779,0.01074606448111165,0.023473376602133583,-0.12656709805400423,-0.020762712476789374,-0.18659845441948703,-0.005306031180232236,-1.7138518327241843,0.4456160127213575,1.5926069774662754
50.9185,819.2979,-0.07758234383842885,-0.04195966212305244,-0.05717380011049453,-0.0026068228240284878,-0.18219640958727873,-0.02651856219875991,-1.7587960966572973,0.4317591852598225,1.6808566316990952
50.9448,819.3179,-0.16803969728525506,-0.09704939640234853,-0.0029980386090275313,0.05063864290749397,-0.13921188557269676,-0.052187700756044904,-1.712752798796696,0.3435095310270029,1.6904489854200537
50.9808,819.3379,-0.24787677910072214,-0.12722289833437792,0.034440509186077675,0.04135794475807085,-0.09383471411963577,-0.035942090494229556,-1.712752798796696,0.3435095310270029,1.6904489854200537
50.9853,819.3579,-0.3267180209456033,-0.13375944229056583,0.05794737580602797,-0.003815207318943751,-0.055512005972024485,-0.014165720923983948,-1.5901586821185882,0.3002041407272993,1.7460846370016134
51.0031,819.3779,-0.3676274621392652,-0.10354625969590706,0.07480024276953527,-0.04489141208591993,-0.002179280168653463,0.011362793727751794,-1.5901586821185882,0.3002041407272993,1.7460846370016134
51.0247,819.3979,-0.3704557263262713,-0.049046554142998605,0.09064094497110577,-0.057730702260078225,0.06299019266514991,0.04204834958694926,-1.5912577160460752,0.4023106224216508,1.6482426290478356
51.0387,819.4179,-0.33042036642123046,0.018357361766703467,0.10860608436342237,-0.0464356310257255,0.0825829727993072,0.05987439604782973,-1.4991711203248737,0.22581131395601464,1.6674273364897527
51.0625,819.4379,-0.2773182665952587,0.07817147960472906,0.12716042307771258,-0.022354305694712338,0.06930459924819862,0.05136808861515813,-1.4991711203248737,0.22581131395601464,1.6674273364897527
51.0893,819.4579,-0.22494008209657354,0.12119377368490827,0.14326398150158967,-0.02123577038996383,0.03632740658076399,0.041909835999218624,-1.4686635993679702,0.3590052321219456,1.7038782806293937
51.1002,819.4779,-0.18931007902796027,0.14459293146848318,0.15417651463891008,0.0005441104472654261,0.0066918016427412646,0.021357067069618478,-1.4381560784110625,0.49219915028787503,1.740329224769037
51.1185,819.4979,-0.18338119540855305,0.13762518041659216,0.16019976065246697,0.0504549233582122,-0.029050589769906713,-0.012139623971043087,-1.3627042935210476,0.6392498959153405,1.6885305146758618
51.1408,819.5179,-0.19914616760829956,0.10419468499464687,0.16595620447522497,0.04035043260742128,-0.057381982497557445,-0.014119485779048927,-1.3166609956604463,0.5510002416825208,1.6981228683968204
51.1622,819.5379,-0.22399860002548855,0.052146253248964075,0.17848378378843607,0.05753122665393842,-0.05041850442004864,-0.03888253060385218,-1.3166609956604463,0.5510002416825208,1.6981228683968204
51.1827,819.5579,-0.23905514813153375,-0.00864428172941542,0.20384698209991758,0.07894227210420099,-0.022012174866385195,-0.06504778569558516,-1.2256734338667334,0.4766074149112394,1.6194655678849592
51.2191,819.5779,-0.21727649831554036,-0.07375786505455414,0.24333198206174636,0.056068474748669446,0.020455936731716914,-0.048578289897922636,-1.3166609956604463,0.5510002416825208,1.6981228683968204
51.2197,819.5979,-0.17194263514131014,-0.11767699781283605,0.2911922435536092,0.013308233268839176,0.05135639956805824,0.0016468904908673297,-1.2717167317273332,0.5648570691440559,1.6098732141640009
51.2385,819.6179,-0.08708474656209785,-0.1595142019987891,0.33350407396380827,0.022251463693985837,0.07599687458652714,0.019758980939706787,-1.3943108484054396,0.6081624594437642,1.5542375625824423
51.2621,819.6379,0.01592937145023815,-0.19236205607952442,0.3518964890517904,0.061666268468705085,0.09010433210164859,0.02405309400643108,-1.3627042935210476,0.6392498959153405,1.6885305146758618
51.2788,819.6579,0.11383518638806886,-0.19886674636318433,0.32862141809395173,0.06706211662824381,0.091217289795866,0.06572956875910281,-1.4392551123385526,0.5943056319822292,1.642487216815262
51.3016,819.6778,0.17771431487644496,-0.18914394408836624,0.25079068148442407,0.042717247966535254,0.08584662139747407,0.11409709392629196,-1.4392551123385526,0.5943056319822292,1.642487216815262
51.3195,819.6978,0.19934658775675185,-0.14443023449374523,0.11730081397213186,0.030008593573449246,0.06826987565088892,0.115244531278393,-1.4392551123385526,0.5943056319822292,1.642487216815262
51.3407,819.7178,0.17280142750453725,-0.07520233708002014,-0.06055149407333593,0.06416412360438518,0.07650094309159505,0.07164267928685047,-1.4841993762716639,0.5804488045206947,1.7307368710480784
51.3636,819.7378,0.10542490885706474,0.015514297618542061,-0.25856462745917835,0.053994788596791674,0.07075966852281595,0.0676357612905317,-1.4536918553147604,0.7136427226866255,1.7671878151877198
51.383,819.7578,0.009708432032789649,0.11992765718900227,-0.4447052123658561,0.02347767859413058,0.05773329602791638,0.06873408579158144,-1.6067934929497731,0.6237541948204014,1.6751012194665182
51.408,819.7778,-0.10400093316629795,0.21170493524227407,-0.5865808342821264,-0.014116604798437547,0.05260983919700527,0.06193924610980327,-1.6833443117672782,0.57880993088729,1.6290579216059184
51.4301,819.7978,-0.21740311534768064,0.27350875883323267,-0.6589724404115607,-0.020053939876118494,0.029518898095893763,0.03729533831821432,-1.6822452778397896,0.4767034491929354,1.7268999295596965
51.4547,819.8178,-0.32229912577193787,0.28730461849235645,-0.6504058871492464,-0.04562182044124258,-0.016607664154285065,0.009416505157769308,-1.7282885757003912,0.564953103425755,1.717307575838738
51.4618,819.8378,-0.41769895568407195,0.23952373919218306,-0.5666398065982008,-0.05150733045635432,-0.06586210329198755,-0.026935254044398352,-1.7282885757003912,0.564953103425755,1.717307575838738
51.4786,819.8578,-0.5039442884654505,0.15815443045471456,-0.4298202085968163,-0.050132841762603075,-0.12219987328834404,-0.08699087037350102,-1.819276137494104,0.6393459301970364,1.7959648763505993
51.5062,819.8778,-0.5747686334759374,0.08351854657969038,-0.2719414002281818,-0.08519370693030243,-0.15976654838358698,-0.14327822646686234,-1.7887686165372005,0.7725398483629674,1.8324158204902405
51.518,819.8978,-0.6464340364785871,-0.008267367522852925,-0.12897340283804992,-0.10583462455156145,-0.13608145627617385,-0.19575991214497063,-1.8203751714215928,0.7414524118913911,1.6981228683968208
51.54,819.9178,-0.6767793433742231,-0.04726839853073675,-0.022685754910091532,-0.046141169897092875,-0.06480141103057196,-0.22130569303340408,-1.7438243526040877,0.7863966758245025,1.7441661662574208
51.5597,819.9378,-0.6699059584342922,-0.044024471614898836,0.040487307303238865,0.08813607680889758,0.07734636611627971,-0.2648898950941001,-1.7898676504646875,0.874646330057319,1.7345738125364625
51.5779,819.9578,-0.6212010191204865,0.004719281266913067,0.07759605695741227,0.13134895593437845,0.15570168112577465,-0.2672703335934931,-1.7898676504646875,0.874646330057319,1.7345738125364625
51.5998,819.9778,-0.5249001282399601,0.07952033092131588,0.12134979909132257,0.05946072231172311,0.1346091289025307,-0.17359562779024942,-1.7133168316471798,0.9195905939904319,1.780617110397064
51.6207,819.9978,-0.39338193529529947,0.1509016245626439,0.20453635342138138,-0.021887864150086048,0.12731891962099826,-0.09226014211949797,-1.7133168316471798,0.9195905939904319,1.780617110397064
51.6454,820.0178,-0.23137664363194416,0.18402068493069437,0.3444808037814291,-0.05821871769102968,0.09473138890780688,-0.026587627145550817,-1.6828093106902764,1.0527845121563628,1.8170680545367053
51.6742,820.0378,-0.04976932949024295,0.15941384427618807,0.5305989793110133,-0.05088387391572247,0.040353771671801396,-0.0016225673513841766,-1.728852608550878,1.1410341663891825,1.8074757008157467
51.6834,820.0578,0.14593961597063596,0.06247929692822987,0.722865705404039,-0.06014472219103337,-0.03352210246718606,0.0062878630681414815,-1.6073575258002573,1.1998352577838303,1.7652693444435288
51.699,820.0778,0.32110658316451357,-0.07791510713565283,0.8639257168776109,0.014535637262235833,-0.06278112475261867,0.015500551428824467,-1.5757509709158626,1.2309226942554083,1.8995622965369499
51.7196,820.0978,0.4633037599480069,-0.23900123772933093,0.8990210441003132,0.18273543713632492,-0.014991574511289409,0.023521293916141155,-1.5768500048433496,1.3330291759497597,1.801720288583172
51.7408,820.1178,0.5590017728382326,-0.3794482143158835,0.7991293321000204,0.3252271221654773,0.05908519584950193,0.027426724810092187,-1.5452434499589573,1.364116612421336,1.9360132406765913
51.7617,820.1379,0.6017557200074726,-0.4584474511056956,0.5751899298608703,0.36031430776848195,0.057252256777076335,0.03323489498813259,-1.5463424838864461,1.4662230941156906,1.8381712327228132
51.8024,820.1579,0.6362309716629638,-0.5134595064119643,0.268226421154622,0.3180777829548851,-0.024916070663529685,0.04036374042647456,-1.5147359290020512,1.4973105305872687,1.972464184816234
51.8089,820.1779,0.5685986435392162,-0.4225606989803905,-0.03776320334646732,0.24499390958210318,-0.07036781336569777,0.043066098316742976,-1.5147359290020512,1.4973105305872687,1.972464184816234
51.8285,820.198,0.49854121776477267,-0.3277087973501176,-0.294595344248649,0.1655748686650107,-0.07417715160793716,0.08993069350293234,-1.529172671978259,1.6166476212916614,2.0971647831886955
51.8446,820.218,0.4277446164514249,-0.23316948868799273,-0.46134103480642236,0.03533285037881521,-0.12259744989272918,0.1932106067811206,-1.5436094149544641,1.7359847119960594,2.221865381561155
51.8628,820.238,0.3681989895852266,-0.16235881086585555,-0.5335804538028259,-0.012236746219275885,-0.16887405641305456,0.17417112757453887,-1.4670585961369564,1.7809289759291724,2.2679086794217564
51.8793,820.258,0.31963772889213876,-0.11732405767768864,-0.5361766964471097,0.042814464942638256,-0.17786804447338997,0.07550340981246188,-1.5580461579306708,1.855321802700457,2.3465659799336174
51.8995,820.2781,0.26927089706554536,-0.08933188144116663,-0.509793976027219,0.06757433585551263,-0.19544779705639923,0.1005824267688335,-1.6040894557912708,1.9435714569332734,2.336973626212659
51.925,820.2981,0.20403914378314125,-0.06450639959030272,-0.4925523701914904,0.07924484661155515,-0.2005062760054807,0.14449679764460488,-1.5275386369737658,1.9885157208663846,2.383016924073259
51.9415,820.3181,0.10824444833317484,-0.023131137950493347,-0.5036853722756003,0.09241523374767549,-0.18588785134971134,0.12027572080503576,-1.450987818156258,2.0334599847994976,2.4290602219338604
51.9609,820.3382,-0.009249043441365151,0.035435907031880876,-0.5377650289430373,0.11193420034947876,-0.17596420400316765,0.08608607813157215,-1.374436999338753,2.078404248732609,2.47510351979446
51.9906,820.3582,-0.13720305707774494,0.10548206514146666,-0.5672997324551943,0.04643672752104107,-0.1929973810819954,0.1227348166049407,-1.2978861805212454,2.123348512665722,2.5211468176550618
52.002,820.3782,-0.26185268773163595,0.17124404622440226,-0.5558408127291201,-0.023081420104544427,-0.19114009813295652,0.14230763067840768,-1.2518428826606454,2.0350988584329053,2.53073917137602
52.0206,820.3982,-0.36680955307210655,0.21913592283985928,-0.4738147361683011,-0.10036212348990764,-0.22584374997767706,0.18126294652751793,-1.2213353617037377,2.1682927765988347,2.5671901155156633
52.0419,820.4183,-0.43558654684164727,0.23645785724406207,-0.3112930481864039,-0.18569581959423284,-0.2206024991110537,0.19331247757763717,-1.2213353617037377,2.1682927765988347,2.5671901155156633
52.0608,820.4383,-0.45003200777212515,0.21075322944411748,-0.08329907810438952,-0.21355363057201984,-0.19005086140362862,0.16869255067035058,-1.1303477999100249,2.0938999498275535,2.488532815003802
52.0797,820.4583,-0.41463311678227016,0.15182067154753426,0.17209676838001478,-0.16198842627112353,-0.16529333631367993,0.11715264228056609,-1.0088527171594086,2.152701041222199,2.4463264586315856
52.1041,820.4784,-0.34902610954067803,0.08172689012110976,0.4049903969358842,-0.10304281146894557,-0.12291659801785433,0.11576424500299454,-1.0088527171594086,2.152701041222199,2.4463264586315856
52.1266,820.4984,-0.26454761977949814,0.012537533832914671,0.5691945064477484,-0.09246988180271959,-0.08568554654478748,0.14013937504332222,-0.9178651553656941,2.0783082144509146,2.3676691581197247
52.1405,820.5184,-0.17910044355495913,-0.03985280608971911,0.6352658919064418,-0.026653536948461974,-0.0694052075154479,0.0758519959466815,-0.750326774754472,2.0488596516127426,2.3350551554684653
52.164,820.5384,-0.11728251976371865,-0.07254852378954593,0.5981437620181744,0.043663121793743445,-0.03802463677134161,0.039751748259077374,-0.7053825108213606,2.0627164790742776,2.2468055012356487
52.182,820.5585,-0.08558190456615725,-0.08425712811747035,0.47707145851068705,0.0927488538664462,-0.016296456577355248,0.055017595511834015,-0.7369890657057554,2.0316290426026993,2.112512549142228
52.2032,820.5785,-0.08442522207829055,-0.08704203043431882,0.30695838026215877,0.13992463057897717,-0.012751695276372908,0.0394526586700579,-0.6143949490276478,1.988323652302996,2.1681482007237878
52.2273,820.5985,-0.11037844958483956,-0.08254383339755914,0.12700763307774146,0.1898360382117685,-0.04753689323922295,-0.036114561014132386,-0.5838874280707427,2.1215175704689235,2.2045991448634292
52.2476,820.6186,-0.16773824902328285,-0.07034482223977676,-0.03132888609872592,0.10906463492563909,-0.11267503694080823,-0.04387458332731341,-0.5389431641376313,2.1353743979304585,2.1163494906306126
52.2808,820.6386,-0.22851654726823295,-0.0634582104526353,-0.15168449960195274,0.06569586174150883,-0.12183988833789192,-0.009258848301564824,-0.4939989002045184,2.1492312253919934,2.0280998363977933
52.2996,820.6586,-0.31078910562965456,-0.06123544799553263,-0.23302161322016052,0.09774760165038546,-0.09191155649657212,0.010381495942097748,-0.4490546362714055,2.1630880528535283,1.9398501821649734
52.3044,820.6786,-0.39785335876867556,-0.04843878774516605,-0.28338308588129085,0.14156402458965717,-0.07128720046350953,0.04078484475482461,-0.4030113384108056,2.0748383986207117,1.9494425358859317
52.3283,820.6986,-0.45820515854456034,-0.03628355050013862,-0.3126909572063538,0.125082744021127,-0.06580474604049345,0.042940438482998416,-0.2354729577995848,2.0453898357825397,1.9168285332346755
52.346,820.7186,-0.5094486587532481,0.0035304208249474778,-0.32736595582348704,0.07680677182055767,-0.11554579932273554,-0.004685597741560637,-0.28151625566018634,2.133639490015359,1.9072361795137167
52.362,820.7386,-0.5491716382101621,0.062226766051703075,-0.3285650729818516,0.020601777120726018,-0.17053205948139152,-0.043326284388623425,-0.16002117290956575,2.192440581410007,1.8650298231414986
52.3795,820.7586,-0.5747306324228186,0.12697623744575107,-0.31310394732557495,-0.023345976241994432,-0.15399303220284397,-0.06865240037684696,-0.16002117290956575,2.192440581410007,1.8650298231414986
52.4009,820.7786,-0.5824360204262597,0.18490278121770418,-0.27650547460319663,0.013702416602732918,-0.1265541184885714,-0.09600288669434155,-0.12951365195266062,2.325634499575935,1.90148076728114
52.4217,820.7986,-0.5761985931358385,0.22185445837186668,-0.2165464415323891,0.0018701657938696079,-0.10783063777158339,-0.10255638275650042,-0.008018569202041699,2.3844355909705826,1.8592744109089254
52.4414,820.8186,-0.5558031325773991,0.23434673319948968,-0.13454254000460134,-0.03431303610460897,-0.09255116746616614,-0.11304370307962436,0.022488951754861777,2.5176295091365133,1.8957253550485667
52.4686,820.8386,-0.5150119195534817,0.23039779730974977,-0.03593464133678442,-0.06626306606375662,-0.06894777671113311,-0.10552982056292312,0.19002733236608393,2.4881809462983417,1.863111352397307
52.4819,820.8586,-0.4686129523812941,0.19168952023005006,0.06904444112828517,-0.05609582173078687,-0.029880828349325157,-0.09421755781979675,0.2665781511835916,2.5331252102314545,1.9091546502579086
52.5034,820.8786,-0.40934993191937014,0.14514726823200536,0.16874779564938727,-0.04706053084763913,0.009405697457975006,-0.09452950116280233,0.31152241511670464,2.5469820376929895,1.820904996025089
52.5355,820.8985,-0.34497713250073986,0.10325575051566158,0.2503238323840702,-0.05350790019955599,0.034694822049149,-0.11114537627824668,0.3564666790498159,2.560838865154524,1.7326553417922723
52.5522,820.9185,-0.2916843809239996,0.06315682998049668,0.3019838487048426,-0.07484310404704957,0.049166462756845025,-0.11766510725530777,0.3564666790498159,2.560838865154524,1.7326553417922723
52.5609,820.9385,-0.25431751763425264,0.038912809994557485,0.31602122191156323,-0.056950885897340535,0.0666488779699027,-0.14456149154765222,0.4779617618004339,2.6196399565491704,1.6904489854200528
52.587,820.9585,-0.22459134238398115,0.044914394012179976,0.29045431049871984,-0.03682215749394129,0.10320464853005415,-0.13411138955696558,0.6005558784785415,2.576334566249467,1.7460846370016128
52.5999,820.9785,-0.21746364392353965,0.06999941630263787,0.22916014232416265,-0.006976735950725255,0.15005925723889008,-0.13924867051576212,0.6771066972960466,2.621278830182578,1.7921279348622126
52.6275,820.9985,-0.21943910637990666,0.10264618688198168,0.14317070882083388,0.01818276271668338,0.18519771812635685,-0.1278301244934075,0.7220509612291578,2.6351356576441125,1.703878280629396
52.648,821.0185,-0.23362624600303594,0.14393237256174687,0.048235865416171975,0.018646461270343515,0.19506146256517495,-0.08382405071606377,0.7986017800466655,2.6800799215772253,1.7499215784899975
52.6729,821.0385,-0.25018172875548395,0.17542741484048457,-0.03864550994513452,-0.0007056748874856741,0.1743688902010142,-0.054016578916482864,0.8291093010035733,2.813273839743155,1.7863725226296407
52.6802,821.0585,-0.26015109153607296,0.20112542742167847,-0.10289585595288972,-0.005295126638488676,0.15323617272376994,-0.041677742478139504,0.920096862797286,2.7388810129718735,1.7077152221177796
52.7019,821.0785,-0.26720517281051764,0.19374655227870285,-0.13606658607974492,-0.019686491025835345,0.11612378779951774,-0.046528403907753806,0.920096862797286,2.7388810129718735,1.7077152221177796
52.7201,821.0985,-0.27899100781235975,0.15676675341351107,-0.13692548652159664,-0.01690010671758702,0.07122821787537512,-0.059070981939130324,0.8751525988641732,2.7250241855103385,1.795964876350599
52.7406,821.1186,-0.30408393778485576,0.09162688628482268,-0.11111941254429833,-0.06910488278331706,0.04667987200135769,0.003926801123264745,0.8751525988641732,2.7250241855103385,1.795964876350599
52.7637,821.1386,-0.337933554835848,0.010610918519204177,-0.06859639378015514,-0.10283298569768247,0.05114123592055807,0.047676950903333286,0.8291093010035733,2.813273839743155,1.7863725226296407
52.7838,821.1586,-0.36193513964488316,-0.0659481017299692,-0.02021420609457064,-0.09014599302969512,0.030808666640248946,0.05440176640294848,0.7370227052823701,2.989773148208794,1.7671878151877236
52.8,821.1787,-0.37463538788261386,-0.12274992069694543,0.024012334834926277,0.08502387175448009,0.006248925803913216,-0.36278331806382125,0.8135735240998752,3.0347174121419056,1.8132311130483239
52.8235,821.1987,-0.36775283469777226,-0.13783786334005402,0.05772411807202127,-0.1985294703688605,-0.009833001793017375,-0.2577510736078883,0.7686292601667639,3.020860584680371,1.90148076728114
52.8402,821.2187,-0.37428506091092917,-0.14169518260415534,0.07571458527788746,-0.07462640854173604,-0.005423870295005933,-0.2770165486681358,0.7686292601667639,3.020860584680371,1.90148076728114
52.8603,821.2387,-0.38346830307575197,-0.12922384210799195,0.08059845886480707,-0.07839267608832691,0.029508142502626573,-0.13501287895966124,0.6471341774161459,2.9620594932857247,1.94368712365336
52.8894,821.2588,-0.39593470133402686,-0.10469013895443721,0.07918616365439077,-0.17029433915554462,0.0651854967147938,-0.03431081482044336,0.601090879555546,3.0503091475185413,1.9340947699324016
52.906,821.2788,-0.38313806194697525,-0.08568501108421131,0.08149314660628038,-0.21112540791290219,0.06943754516639583,-0.04752562500058466,0.5561466156224347,3.036452320057007,2.0223444241652175
52.924,821.2988,-0.34983390637639733,-0.06127645072714524,0.09631018377925157,-0.2121399040728303,0.04526866280625804,-0.1058204688806682,0.5256390946655269,2.903258401891077,1.9858934800255745
52.9423,821.3189,-0.29816504454326825,-0.04110919089268142,0.12672801306364548,-0.35609935714046126,0.006747614519217539,-0.08758732292787022,0.5256390946655269,2.903258401891077,1.9858934800255745
52.9645,821.3389,-0.24098518551899956,-0.029724969513860916,0.16867289957094947,-0.3480525605028343,-0.004692079036234131,-0.06590860351850396,0.4490882758480193,2.8583141379579646,1.939850182164973
52.9818,821.3589,-0.17109426921507404,-0.055984597843478506,0.21161867314893645,-0.26385329629972143,0.030368497907799417,0.005322296742589776,0.4951315737086208,2.770064483725145,1.9494425358859315
53.0086,821.3789,-0.12070186466162615,-0.09605954902550404,0.24336066120797756,-0.14705181558819277,0.11862982654403613,0.09113088880049865,0.4951315737086208,2.770064483725145,1.9494425358859315
53.025,821.399,-0.05188139122982995,-0.1323631513171218,0.25413063623999155,-0.11764995082560255,0.14409625241573817,0.17793382424512208,0.46462405275171736,2.6368705655592137,1.9129915917462903
53.0401,821.419,0.017864249742137947,-0.1424271034957871,0.23909240888618058,-0.17081458077627773,0.14045345982119892,0.17036526531221136,0.5106673506123173,2.5486209113263976,1.9225839454672486
53.067,821.439,0.061583271329686246,-0.1284231028091409,0.19866922323520458,-0.14211761018839725,0.14257509952776135,0.12855392206622293,0.48015982965541115,2.4154269931604646,1.8861330013276059
53.0916,821.459,0.12001893007864156,-0.09289793353426132,0.13652589361706127,-0.059109479263755045,0.12574868192219715,0.13565399044340204,0.5417389044197091,2.1057337665288975,1.8688667646298815
53.1004,821.4791,0.19666069544613046,-0.03561157669470141,0.05879962892512527,-0.010347392308753613,0.0981730152584444,0.13193119796429803,0.38863726678469374,2.015845238662672,1.7767801689086784
53.1264,821.4991,0.2523311023779051,-0.0023132915009374255,-0.026696809275878225,0.10915648663535767,0.11371391394889785,0.006948968086589949,0.3120864479671886,1.9709009747295607,1.7307368710480786
53.1555,821.5191,0.28197024775706175,0.020530926974549973,-0.10956773153936322,0.07834752427232838,0.06846942514470393,0.05060204324700239,0.2815789270102808,1.837707056563631,1.6942859269084354
53.1617,821.5392,0.28163158751887085,0.056093375718202165,-0.17922158180411663,0.006958221360717491,0.004113089058624784,0.09413406290345634,0.20502810819277578,1.7927627926305199,1.6482426290478354
53.185,821.5592,0.25125022270582265,0.07784602231501017,-0.22791332154028215,-0.039733149712857095,-0.05524094971702391,0.03334098642028637,0.09796976841836172,1.6146246105314745,1.5657483870475912
53.203,821.5792,0.20246549751808324,0.09086407128159826,-0.25167185417562854,-0.05149606678281424,-0.10848869199960602,-0.03707878441016314,0.09687073449087152,1.7167310922258285,1.4679063790938158
53.2361,821.5992,0.14259641510984414,0.11505343953004017,-0.25178358159352554,-0.08062882748753611,-0.16180173398222245,-0.03744252646326189,0.020319915673366495,1.6717868282927173,1.4218630812332158
53.2439,821.6193,0.08155451229752736,0.09713266169850376,-0.2355273668668426,-0.10362884243293469,-0.1507933720035419,0.04048211007139115,0.06636321353396804,1.5835371740598976,1.4314554349541746
53.2629,821.6393,0.026718409222174555,0.07599586010220907,-0.21085435039634665,-0.00930956374738966,-0.06009365615083649,0.09098566056516333,-0.010187605283539649,1.5385929101267848,1.3854121370935732
53.2894,821.6593,-0.00760821693258415,0.047258689029181566,-0.18439347415461133,0.03955515798846202,-0.009436039477885561,0.09959921051243525,-0.08673842410104457,1.4936486461936733,1.3393688392329732
53.3039,821.6794,-0.016884508551283053,0.041790165500801474,-0.15782991703007693,0.05916112208640997,-0.07466080399895243,0.023206472867019285,-0.16328924291855226,1.4487043822605605,1.2933255413723717
53.319,821.6994,-0.010795658842483458,0.05943134439787928,-0.13028860350192123,0.005200879563073062,-0.10800533916255668,-0.06281372651397392,-0.23984006173606007,1.4037601183274475,1.24728224351177
53.344,821.7193,-0.0012243761192103492,0.11607775281944507,-0.10089969896650133,-0.16969498317085835,-0.16289326892252148,-0.09127999541629044,-0.11834497898543936,1.4625612097220955,1.2050758871395522
53.3614,821.7393,-0.008188832135833449,0.15128878353923236,-0.07235898064044893,-0.260774638950876,-0.2017172620108209,-0.08769341436002402,-0.11834497898543936,1.4625612097220955,1.2050758871395522
53.3801,821.7593,-0.03674868806874805,0.16334421288772155,-0.048560702989184024,-0.09635961515960463,-0.15464939094409114,0.008269835193965921,-0.1643882768460409,1.5508108639549152,1.1954835334185934
53.4016,821.7793,-0.08840144792100245,0.14828373308138448,-0.03277788230642703,0.027746256528008155,-0.08653314501201566,0.16662424736103756,-0.08783745802853321,1.595755127888028,1.241526831279195
53.4262,821.7993,-0.15706415312081523,0.12297090305781067,-0.023846188124837825,0.0061041302762858355,-0.09116656969621455,0.18326007457222152,0.0031501037651796887,1.521362301116743,1.1628695307673371
53.4406,821.8193,-0.22455276816681985,0.10909887887684368,-0.014837646640569219,-0.05917147289609505,-0.13582999694915113,0.07932020735803127,0.048094367698292596,1.535219128578278,1.0746198765345176
53.467,821.8393,-0.29112152622639487,0.11433053851137527,0.0036273667015163658,-0.09587403461717658,-0.17101258698374494,0.02740965042046887,0.0930386316314055,1.549075956039813,0.9863702223016978
53.4871,821.8593,-0.34379525426021024,0.10848207743135557,0.038206815818928874,-0.08686409904720853,-0.16225746349285033,0.026449455813000938,0.3066203101032232,1.4313777389688227,0.9633485733713982
53.5002,821.8793,-0.37918788010018195,0.07711770403086027,0.08892885869285946,-0.07324760909563079,-0.13970156923337432,0.034852165825486184,0.3526636079638248,1.343128084736003,0.9729409270923569
53.5252,821.8993,-0.40086975461120183,0.03843207371736007,0.14806122989407489,-0.06939312607993647,-0.11541432834678844,0.05516704438280655,0.3221560870069198,1.2099341665700754,0.9364899829527153
53.5446,821.9193,-0.4024608299552884,-0.010458742975456431,0.20212355152106848,-0.03697982683523638,-0.09446398523246363,0.06042595638678485,0.3671003509400327,1.2237909940316103,0.8482403287198956
53.5658,821.9393,-0.38726910502453504,-0.05217766362579143,0.23654389573253037,-0.011355717593051182,-0.09566519461331857,0.06013147112755143,0.3671003509400327,1.2237909940316103,0.8482403287198956
53.5822,821.9593,-0.35874547636468845,-0.08084943042711404,0.24044486506669507,0.00685965303277095,-0.11613048831281098,0.03920325747331297,0.48859543369064884,1.282592085426256,0.806033972347679
53.6033,821.9793,-0.32117591554469627,-0.0939838273391719,0.21055882605065188,0.016271389149473015,-0.08963131586982327,0.014933451476841395,0.48859543369064884,1.282592085426256,0.806033972347679
53.6208,821.9993,-0.2810004141408621,-0.0948086913419843,0.15239821482008978,0.03773562533470583,-0.0376611018915195,0.0014924535959599018,0.48749639976316184,1.3846985671206076,0.7081919643939012
53.6408,822.0193,-0.23850410746338485,-0.0857439301826445,0.07885207418545317,0.03860992831922928,-0.011290182611856124,0.023381629245963986,0.5335396976237617,1.2964489128877912,0.7177843181148594
53.6689,822.0393,-0.19462525705900646,-0.06607396937984614,0.005719764640472164,0.008416672481286568,-0.010328108922465924,0.01161181123034788,0.5940197384605712,1.0888621679505788,0.6026760734633569
53.6817,822.0593,-0.15165965447054397,-0.04427835937005173,-0.05395431162678632,-0.055625044962431,-0.05333481715534061,-0.025671557365199278,0.6400630363211728,1.000612513717759,0.6122684271843156
53.7048,822.0793,-0.11332352856540814,-0.01898154621242934,-0.09335542098062413,-0.09280908057631379,-0.06539624889539855,-0.009131461844150503,0.6084564814367764,0.9695250772461808,0.47797547509089755
53.7271,822.0993,-0.08121272813235506,-0.00705945891754603,-0.11385466200744493,-0.08003650969417847,-0.04412200975282459,0.029790472614010785,0.6850073002542841,1.0144693411792935,0.5240187729514991
53.7403,822.1193,-0.05388606961818485,-0.00925037186518532,-0.12205464348107914,-0.02582267941449372,-0.012674351122220385,0.058882546673082625,0.6073574475092878,1.0716315589405354,0.3801334671371192
53.7666,822.1393,-0.04508605712737565,-0.01856806526582372,-0.12593209011840104,0.017657104062027994,0.007700230547779683,0.08214035935199306,0.729951564187397,1.0283261686408287,0.43576911871867946
53.7858,822.1594,-0.04689528225987385,-0.017974908123508715,-0.13085914437894583,-0.009687935837762155,-0.013297609644289218,0.10299068309401735,0.8209391259811099,0.9539333418695435,0.3571118182068216
53.8018,822.1794,-0.061172800856856446,-0.004334015051854323,-0.13820091692238692,-0.0384824272090703,-0.04006650118261527,0.11596434150161374,0.8209391259811099,0.9539333418695435,0.3571118182068216
53.8206,822.1994,-0.08995010490835745,0.018381149254765083,-0.1456627496116602,-0.02980097045280681,-0.049181793298786976,0.10510733186608405,0.7443883071636022,0.9089890779364306,0.31106852034622
53.8437,822.2195,-0.12875059938870895,0.046028644895412474,-0.14906177142862254,-0.04654946098898961,-0.04537218643776993,0.08679610415399751,0.7432892732361136,1.0110955596307853,0.21322651239244175
53.8631,822.2395,-0.16846474522102095,0.07086202948893008,-0.14435274698646394,-0.04852915398319746,-0.07015110819887156,0.046599537733395244,0.7893325710967151,0.9228459053979656,0.22281886611340043
53.8834,822.2595,-0.21070763058432554,0.08786330100387077,-0.12884030865594792,-0.03842521602731545,-0.10244532261431205,0.0002947523103610196,0.7588250501398072,0.7896519872320362,0.18636792197375715
53.907,822.2795,-0.25673765057433146,0.09412869146694927,-0.10154698589723543,-0.04811705648448427,-0.11557679507140514,-0.0039381615396235645,0.8803201328904279,0.8484530786266842,0.14416156560153912
53.9253,822.2996,-0.3068613160335004,0.08320968982567548,-0.06305806234556732,-0.07481859343378358,-0.07940468258524815,-0.001477530963123285,0.9263634307510294,0.7602034243938646,0.15375391932249777
53.9485,822.3196,-0.35658394267018806,0.06917407673800258,-0.014822014330958921,-0.10784623025930666,-0.02690587866966225,-0.0349726872271895,0.9263634307510294,0.7602034243938646,0.15375391932249777
53.978,822.3396,-0.39770061482965713,0.06368076394395167,0.040605926766822065,-0.13043938823375711,-0.05746732588529885,-0.048501551068154965,0.8792210989629392,0.9505595603210352,0.04631955764776428
53.9938,822.3597,-0.4190975013208825,0.03484005492706227,0.09868502404466227,-0.1420325580741903,-0.10803458369113522,-0.056816011426407395,0.8487135780060314,0.8173656421551058,0.00986861350812103
54.005,822.3797,-0.42105334322589516,-0.004737193423329039,0.15406353856743427,-0.10883708720085032,-0.10715756953170358,-0.0425372173715374,0.8487135780060314,0.8173656421551058,0.00986861350812103
54.032,822.3997,-0.40350306001264385,-0.039316447603312904,0.20132608816764308,-0.022791518286338318,-0.05533157661785157,-0.010657221627006164,0.9397011397997458,0.7429728153838212,-0.06878868700373994
54.0477,822.4197,-0.36983899147071275,-0.07281606769096574,0.23536954362667228,0.007829701716446985,-0.002891414956523395,0.03186875197119366,1.0162519586172538,0.7879170793169341,-0.022745389143138367
54.0693,822.4398,-0.32490359490690235,-0.08626487241086264,0.25305238475759967,-0.04502109478404643,0.028913445002755646,0.005096684583072848,1.0151529246897635,0.8900235610112882,-0.12058739709691353
54.084,822.4598,-0.2728267035280386,-0.08242424621791924,0.2515921373503088,-0.1359491871778704,0.01872312209091828,-0.040738075507634405,0.9386021058722557,0.8450792970781753,-0.1666306949575151
54.1099,822.4798,-0.23561720372596895,-0.06447068010627063,0.22853678104266997,-0.12366213956368917,-0.007167052502929116,-0.006704212658599165,0.9835463698053685,0.8589361245397104,-0.25488034919033475
54.1217,822.4999,-0.20586522172067784,-0.06078309759474823,0.18295082496204637,-0.028423509465740255,0.008348906476002128,0.11830967198638809,0.9835463698053685,0.8589361245397104,-0.25488034919033475
54.1496,822.5199,-0.22868888662880785,-0.09402590821239912,0.11703456178190777,0.06642106434332652,-0.007673193324709239,0.3371400374226148,1.1050414525559893,0.9177372159343583,-0.2970867055625528
54.1612,822.5399,-0.23932557434045354,-0.10020109876212865,0.04256823526120297,0.09500597747210585,-0.05620177682153621,0.396690136710623,1.0745339315990832,0.7845432977684258,-0.3335376497021957
54.1809,822.5599,-0.2688195528550036,-0.10908928381530145,-0.02833462805415604,0.023445944789781282,-0.05267754751374747,0.2375917415889538,0.997983112781578,0.7395990338353144,-0.3795809475627956
54.2093,822.58,-0.2986128022588528,-0.10550288086862394,-0.08053922109405023,-0.04504626512248614,-0.009629978515234908,0.04541162064859173,1.044026410642178,0.651349379602498,-0.3699885938418373
54.2229,822.6,-0.3108943806600021,-0.10253163697453962,-0.10405035821795983,-0.0699635077200401,-0.008186930203256478,0.019101137321523447,1.0124198557577815,0.6202619431309196,-0.5042815459352553
54.2441,822.62,-0.32233326473592905,-0.11180058278104663,-0.09760764087723803,-0.011889951782791564,-0.017840412416316186,0.11638544582996382,1.0124198557577815,0.6202619431309196,-0.5042815459352553
54.271,822.6401,-0.33460168061828827,-0.13912607941031932,-0.06801214822305524,0.030154755629778845,-0.07118443495707616,0.16887845048546282,0.9830113687283683,0.3849615432706346,-0.4428904821211215
54.2841,822.6601,-0.33000342756266793,-0.15967417602470382,-0.026367552152355117,0.03171672449316912,-0.010913208611907515,0.12999296697144117,0.981912334800878,0.48706802496498874,-0.5407324900748965
54.3074,822.6801,-0.3261337070607083,-0.1845796415039125,0.012307548028659965,0.02934103459907526,0.07036353035177238,0.09309156590106256,0.9064605499108606,0.3400172793375217,-0.488933779981723
54.3238,822.7001,-0.31286536089075145,-0.19146488259708241,0.03783698951374187,0.06809452041534902,0.09876268253724772,0.07921354038465422,0.8299097310933529,0.2950730154044087,-0.5349770778423245
54.3414,822.7201,-0.2982475991975083,-0.18920247332742465,0.04414070067208738,0.08422271459429796,0.0759853103609289,0.05339188340320597,0.8299097310933529,0.2950730154044087,-0.5349770778423245
54.367,822.7401,-0.28444674679050036,-0.18685414194327812,0.032117832937012564,0.12727645160246207,0.0641281477619477,0.06238586609905109,0.7994022101364477,0.16187909723848093,-0.5714280219819662
54.3842,822.7601,-0.27550656010048225,-0.161179244412076,0.009541559221964674,0.10055214893768154,0.03161389453611037,0.044361449763221206,0.7239504252464287,0.014828351611013335,-0.5196293118887894
54.403,822.7801,-0.2705801665880023,-0.12765884892409854,-0.01487275272380073,0.02923230745916016,-0.039946409296723634,0.008565087841497038,0.6329628634527142,0.08922117838229797,-0.4409720113769284
54.4225,822.8001,-0.2687391231289732,-0.09110551356688742,-0.03286613058279522,0.029747632824636876,-0.04114578291388734,-0.017661174619901233,0.5880185995196029,0.07536435092076342,-0.35272235714411193
54.4565,822.8202,-0.26256059344945454,-0.055732681368311415,-0.03960862049563352,0.010140878684641114,-0.003515337478895464,-0.02312037496957315,0.5880185995196029,0.07536435092076342,-0.35272235714411193
54.4691,822.8402,-0.26111070183280055,-0.027936399683645224,-0.03525545036194322,-0.010458693263234347,-0.009576157912134162,-0.03733931273722437,0.5880185995196029,0.07536435092076342,-0.35272235714411193
54.4933,822.8602,-0.24920052502341095,-0.0016378802274165383,-0.023084463389061838,0.014745356538828622,-0.02694725336608818,-0.05698733086386371,0.54307433558649,0.0615075234592284,-0.26447270291129227
54.514,822.8803,-0.23446616834106665,0.02300784937973216,-0.008958391288745732,0.022323921200015848,-0.03032116896669704,-0.05434866620230244,0.5735818565433979,0.19470144162515782,-0.22802175877164904
54.5285,822.9003,-0.22191991159583135,0.04541686276980056,0.0018785116768083726,0.011592872876549561,-0.01636165968005332,-0.05278338592211643,0.55914511356719,0.3140385323295542,-0.10332116039919131
54.5472,822.9203,-0.20898328418262235,0.06355478007484097,0.00692552325173007,0.021319465616940664,-0.007942629099136267,-0.03473441316076088,0.55914511356719,0.3140385323295542,-0.10332116039919131
54.5732,822.9403,-0.19895599049768237,0.07215430775094517,0.007075096494557967,0.030305212481973813,0.010688022742883522,-0.014779439715050876,0.55914511356719,0.3140385323295542,-0.10332116039919131
54.5824,822.9604,-0.19925923094731696,0.07540049138429358,0.006129364571062168,0.021804104286992514,0.007778480116597678,-0.007101144255572418,0.55914511356719,0.3140385323295542,-0.10332116039919131
54.6031,822.9804,-0.20507462795816164,0.06598715467982416,0.008501057553244165,0.008565444332861492,0.000986745028682137,0.0003196924300355107,0.5896526345240961,0.44723245049548677,-0.0668702162595484
54.6278,823.0004,-0.21582969922462794,0.049226295278721466,0.016777096190361176,-0.013839775138614098,0.00041008234901035136,-0.005651739608335588,0.5436093366634962,0.5354821047283033,-0.07646256998050673
54.653,823.0205,-0.23016955057455604,0.02752401406713828,0.029687603773094068,-0.017149259728771786,0.012507427813479256,-0.01858223242418767,0.5436093366634962,0.5354821047283033,-0.07646256998050673
54.6761,823.0405,-0.2505858744459303,-1.4844566381816415e-05,0.041934113011249066,0.012140709714012994,0.017804153048141765,-0.06582534188820605,0.4975660388028947,0.6237317589611229,-0.08605492370146539
54.6847,823.0605,-0.28070787487282084,-0.027779282983061232,0.046384136347783766,0.005577660206713722,0.04087083127046537,-0.00048050171736684793,0.6201601554810039,0.5804263686614162,-0.030419272119905208
54.7027,823.0805,-0.31826765532483076,-0.061160449280404955,0.037049649172645374,0.04512918642577847,0.09574373935059123,0.04074321393967564,0.5741168576204023,0.6686760228942358,-0.04001162584086387
54.7223,823.1006,-0.35927241541267324,-0.09168720310262182,0.012802101218862674,0.06457263736062475,0.12633379172546919,0.056831125906318426,0.6967109742985089,0.6253706325945275,0.015624025740694701
54.7468,823.1206,-0.39692985889930926,-0.11522541027893465,-0.021642811063877943,0.06868695232814283,0.1118705213710596,0.07603233219663552,0.7427542721591088,0.537120978361711,0.025216379461653022
54.765,823.1406,-0.42100764311973093,-0.1176607445608003,-0.05641712144956004,0.010944989046647178,0.06179261766059289,0.0006882306599947337,0.6967109742985089,0.6253706325945275,0.015624025740694701
54.8198,823.1607,-0.43486875278063425,-0.11265236173007273,-0.08189570293885023,-0.051201577240482535,0.05236186971092485,-0.055275863112970294,0.5291725936872894,0.6548191954327007,0.04823802839195577
54.8263,823.1807,-0.4208845113119086,-0.10518117718871031,-0.09016683113963234,-0.061424762016469646,0.06539630719823347,-0.007217403582670442,0.575215891547891,0.5665695411998811,0.05783038211291443
54.8314,823.2008,-0.3819140711041463,-0.09529865141048363,-0.07947023837628342,-0.05967431836657474,0.09792795686926824,-0.02198847723050005,0.6201601554810039,0.5804263686614162,-0.030419272119905208
54.8432,823.2208,-0.32188349012489936,-0.07369056343684474,-0.053854731541321726,-0.10865740649809408,0.09925387578801366,-0.06125362610479723,0.6201601554810039,0.5804263686614162,-0.030419272119905208
54.8693,823.2409,-0.25174487805359613,-0.030170450226065043,-0.021725119619065425,-0.13081374955234729,0.11057186664199894,-0.06730429098490345,0.4526217748697818,0.6098749314995878,0.0021947305313542442
54.8838,823.2609,-0.16799173513666796,0.017329076467900578,0.007307078498139774,-0.10824528208475313,0.11893647066244348,-0.04134124270960828,0.4076775109366689,0.5960181040380529,0.09044438476417387
54.903,823.281,-0.09439122139006725,0.06644389803743478,0.02687964341778877,-0.04663607823276962,0.11316299661280843,-0.00810623107845446,0.4076775109366689,0.5960181040380529,0.09044438476417387
54.9258,823.3011,-0.04284296850041805,0.10608801998541927,0.03635809608182447,0.006311786999302122,0.10054875491800426,0.035564302165730144,0.28618242818604983,0.5372170126434054,0.1326507411363888
54.9423,823.3211,-0.017840897239741554,0.1379153544010951,0.04059541551428697,-0.0030118572055110398,0.08421157297722948,0.01925346389861227,0.24013913032544992,0.6254666668762219,0.12305838741543047
54.9688,823.3412,-0.026017921409855455,0.15323604332594268,0.04677565949339467,-0.008350007692415893,0.0011413614104637923,-0.006197160840909289,0.19409583246484838,0.7137163211090415,0.11346603369447182
54.9881,823.3612,-0.06376075978746046,0.14717704259665676,0.06046207267430977,-0.03220618821463852,-0.061623459255276174,-0.023352126235471504,0.1020092367436469,0.8902156295746776,0.09428132625255484
55.0034,823.3813,-0.12424244246342556,0.11157605819049307,0.08204454113591397,-0.03571898825373759,-0.06322725918033628,-0.021245645358349018,0.1480525346042468,0.8019659753418611,0.10387367997351316
55.0281,823.4013,-0.19219308481024444,0.053016363899154983,0.10587486116664147,-0.007856090235734435,-0.040539480381508994,-0.003493076326971083,0.10310827067113391,0.7881091478803262,0.19212333420633276
55.0457,823.4213,-0.2571515823730701,-0.02052717936124035,0.12226511677964717,0.03208957691819799,-0.016663675759879478,0.011602410723701344,0.026557451853628882,0.7431648839472148,0.14608003634573288
55.0644,823.4414,-0.3055747574941434,-0.09066683155365732,0.12211180219500517,0.049246607354423155,0.005285349237355606,0.029327737470511747,0.07260074971423043,0.6549152297143952,0.15567239006669154
55.0825,823.4614,-0.3304946840886486,-0.14122916152025003,0.10098457542958827,0.040842922901184284,0.019299077772730124,0.020324737962168923,0.10310827067113391,0.7881091478803262,0.19212333420633276
55.112,823.4814,-0.32829737575074847,-0.17187822678391543,0.06078847259048047,0.04406264046741257,0.02524711910412591,-0.004104492953144976,0.057064972810534,0.8763588021131427,0.18253098048537444
55.1297,823.5014,-0.31057805026298674,-0.1709700316260825,0.009730028439384766,0.04006359590817234,0.032963621176003,-0.022232698556235643,0.012120708877422701,0.862501974651608,0.27078063471819097
55.1501,823.5215,-0.28305047920778525,-0.15180107820650543,-0.04168658537878453,0.0332361188652913,0.03896461884152501,-0.023385123932271604,-0.11047340780068388,0.9058073649513164,0.21514498313663238
55.184,823.5415,-0.25372967284360676,-0.12051281831824293,-0.08362838671494424,0.0004117021620302234,0.012133084189442072,-0.02354454885111393,-0.15651670566128378,0.9940570191841329,0.20555262941567407
55.1853,823.5615,-0.23397096748135024,-0.0881919975615775,-0.11066380694739364,-0.03612845927247037,-0.012354939727765135,-0.02246349058676191,-0.1554176717337968,0.8919505374897814,0.30339463736945205
55.2038,823.5816,-0.22042298516866934,-0.054473076719869146,-0.12207963730655774,-0.036119832482159296,-0.007186474409194682,-0.019573889951860365,-0.07996588684377877,1.0390012831172442,0.25159592727627395
55.2241,823.6016,-0.21285218287520824,-0.02960755127681311,-0.12173924734567143,-0.01910420704967105,-0.001321423154797161,-0.021749243928699338,-0.07886685291629175,0.9368948014228927,0.34943793523005195
55.2439,823.6216,-0.20969041038975944,-0.01731222520353834,-0.11459012386613723,-0.009766935652767319,0.012457973334470691,-0.016212729208036496,-0.0328235550556902,0.8486451471900731,0.35903028895101063
55.2665,823.6416,-0.20960120419278455,-0.015460178709162137,-0.10402499068407123,0.015018701563306766,0.03631633533699536,0.0015388805879693386,-0.0317245211282032,0.7465386654957216,0.4568722969047886
55.2843,823.6617,-0.21126960922207824,-0.013882487666220023,-0.09060395096145213,0.006568736598523021,0.03256543485283086,0.013949659679219887,-0.0317245211282032,0.7465386654957216,0.4568722969047886
55.3026,823.6817,-0.21399496670911555,-0.008880571909414825,-0.07322374320318714,-0.035495459740863586,0.003774311169988535,0.001853317942942355,-0.10827533994570825,0.7015944015626102,0.4108289990441886
55.3261,823.7017,-0.21876631925922124,0.0017870169742706665,-0.05105079592329942,-0.0918083567643023,-0.0380451362017539,-0.03616866188911861,-0.07776781898880311,0.8347883197285381,0.4472799431838303
55.3477,823.7218,-0.22576691530061704,0.00515754085286696,-0.02548685814409052,-0.0874207427784252,-0.03317722967468503,-0.0442406275453052,-0.2003619356669097,0.8780937100282463,0.39164429160227165
55.3662,823.7418,-0.23645408212972885,-0.004311661469291239,0.0002700080673883748,-0.036491749279802435,0.0030505327862879942,-0.006382485114798208,-0.2003619356669097,0.8780937100282463,0.39164429160227165
55.3834,823.7618,-0.2516081245481102,-0.019941163623938135,0.022796976377846973,0.015185183220817942,0.023624745493432273,0.017625257778016774,-0.2003619356669097,0.8780937100282463,0.39164429160227165
55.4049,823.7818,-0.27039669067341454,-0.0321290558825619,0.04008902807642417,0.0007173239914683377,0.00426730901635235,-0.0017796901053334711,-0.2308694566238159,0.7448997918623138,0.3551933474626288
55.4302,823.8018,-0.29088050318399383,-0.03237211988163294,0.05224933238533447,-0.05260646429525091,-0.022258763434102418,-0.03448424457571829,-0.10937437387319526,0.8037008832569618,0.3129869910904107
55.4505,823.8218,-0.31052042245167966,-0.02674633856037331,0.06047842243412247,-0.059967444301948454,-0.025676051754598778,-0.02423136137753456,-0.2003619356669097,0.8780937100282463,0.39164429160227165
55.4692,823.8418,-0.3261629274004756,-0.02242198713067514,0.06621651068218827,-0.03583953530732013,0.0022079560056969066,-0.01726481856415123,-0.10937437387319526,0.8037008832569618,0.3129869910904107
55.484,823.8618,-0.33547615081295457,-0.023934075030018015,0.07033923680224896,-0.01635630473026565,0.020705930733009158,-0.010658756403601517,-0.10937437387319526,0.8037008832569618,0.3129869910904107
55.5084,823.8818,-0.3383741255432294,-0.03196194110128445,0.07301125247425708,-0.007110205019996007,0.011482572954992342,0.00021667055107241507,-0.10937437387319526,0.8037008832569618,0.3129869910904107
55.5408,823.9018,-0.33553114695103287,-0.045964739700508433,0.07402494726063696,0.01714636767879898,0.01274997528230195,0.00376066155681775,-0.06443010994008233,0.8175577107184968,0.22473733685759104
55.5502,823.9218,-0.3285969908291376,-0.053006379436132706,0.07348898647510307,0.007520072344510419,0.018421208006355026,0.012904476817784248,0.012120708877422701,0.862501974651608,0.27078063471819097
55.5747,823.9418,-0.3173514583635286,-0.059640554041817534,0.07102550809871157,-0.004020944846403688,0.0170698242889404,-0.007723688012062627,-0.03392258898317885,0.9507516288844278,0.2611882809972323
55.5902,823.9618,-0.30343909166963456,-0.062276354110573445,0.06626844010472097,-0.010809847038303986,0.012923553490082644,-0.03882382539907992,-0.11047340780068388,0.9058073649513164,0.21514498313663238
55.6045,823.9818,-0.28677426912081394,-0.061921529222074806,0.05842001483098027,-0.017056564309624444,0.012117261593446848,-0.028975931374995066,-0.07996588684377877,1.0390012831172442,0.25159592727627395
55.6262,824.0018,-0.26646172723955175,-0.059742093253067535,0.04665852014818607,0.002215804811389361,0.01560772077817039,-0.01931528009554332,-0.15651670566128378,0.9940570191841329,0.20555262941567407
55.6636,824.0218,-0.24238994845618064,-0.06182309707523301,0.030633173270945377,0.014204860362821745,0.022953697637924986,-0.009279759632676519,-0.07996588684377877,1.0390012831172442,0.25159592727627395
55.6907,824.0418,-0.21873078869561144,-0.05902800100687752,0.01160745386217367,0.03504917636400183,0.03574209196899648,0.001961519692914773,-0.048359331959383973,1.0700887195888222,0.3858888793696952
55.6977,824.0618,-0.19695583853797055,-0.044913687825228615,-0.007964500099259725,0.017884526092245567,0.022426004989862653,0.006358462791527735,-0.09440262981998553,1.1583383738216417,0.37629652564873656
55.7097,824.0818,-0.17686389625101906,-0.0307583602676941,-0.025664852149795636,-0.006260409639114603,0.004415465141636324,-0.011542404028376215,-0.13934689375309842,1.1444815463601068,0.4645461798815562
55.7249,824.1018,-0.16165459379470126,-0.01806542414260562,-0.03942234765491354,-0.0137926004545287,-0.004915335795486658,-0.023075866448307898,-0.13934689375309842,1.1444815463601068,0.4645461798815562
55.7464,824.1218,-0.15426084012972005,-0.009459778703455934,-0.048546331949398336,-0.014041975794825814,-0.011980699726583862,-0.010465182705512575,-0.09330359589249689,1.056231892127287,0.47413853360251484
55.767,824.1419,-0.15706189869511816,-0.008820335139159918,-0.05371779694558282,-0.012391940261747173,-0.02720160116498459,0.013594358897395584,-0.04726029803189696,0.9679822378944706,0.4837308873234732
55.7832,824.1619,-0.17011791711740226,-0.015624236073571718,-0.05612587634939692,-0.0037838865335615567,-0.023998704144007017,0.00810158530970032,-0.09330359589249689,1.056231892127287,0.47413853360251484
55.8162,824.1819,-0.19113584722119187,-0.028916690016272034,-0.05664836656213504,0.008629721647553587,-0.01167061982447771,0.004597306648359753,-0.09330359589249689,1.056231892127287,0.47413853360251484
55.8363,824.2019,-0.21826259654330776,-0.0412818557635691,-0.05520496911905384,0.0018257705687271123,-0.011398880256726966,0.01431934899162563,-0.09330359589249689,1.056231892127287,0.47413853360251484
55.8454,824.222,-0.24689718319376974,-0.051364642817355505,-0.051276246087259225,-0.014945234803265525,-0.027858619960407748,0.019805599778790647,-0.04726029803189696,0.9679822378944706,0.4837308873234732
55.8664,824.242,-0.2730016368446334,-0.05587421816974644,-0.04448811241315073,-0.02373258450356076,-0.026710366368175212,-0.003866218886716369,-0.0012170001712954145,0.879732583661651,0.49332324104443187
55.8862,824.262,-0.29232104419509886,-0.05695759165198991,-0.035526688551229924,-0.032424460925201015,-0.025320103226698053,-0.006692126292910748,-0.0012170001712954145,0.879732583661651,0.49332324104443187
55.9063,824.2821,-0.3027281321210564,-0.056125340248060124,-0.026152694113188518,-0.025873228751457016,-0.012167464893040728,9.196995269995266e-05,0.09196862947739624,0.6011267935016607,0.6103499564401239
55.9243,824.3021,-0.30453315826573296,-0.053871960742271546,-0.018688844630605217,-0.016996213242382395,0.0007149220478995859,0.005944456804931166,0.09086959554990605,0.7032332751960149,0.5125079484863488
55.9455,824.3221,-0.30091776354104605,-0.048523299112733925,-0.015200119567615133,-0.000146721503470036,0.010650896214984234,-0.0025998363484754246,0.13581385948301897,0.7170901026575499,0.4242582942535292
55.9722,824.3421,-0.29664382817110657,-0.03776844271765392,-0.01693279952952642,-0.009175086422638193,0.006331095643389866,0.007353381719465552,0.1053063385261128,0.5838961844916173,0.38780735011388623
55.9845,824.3622,-0.2930678974426739,-0.023683958435471025,-0.02420234712584582,-0.03759535428013624,-0.014323390963072204,0.011086725787662611,0.22790045520422042,0.5405907941919138,0.44344300169544615
56.0062,824.3822,-0.29445685105668634,-0.007553114927357718,-0.036467101753546644,-0.032301233519803886,-0.019853789087042568,-0.001612399456439956,0.22790045520422042,0.5405907941919138,0.44344300169544615
56.025,824.4022,-0.30007174621085336,0.0047241830855439815,-0.05226976448475423,-0.008799894079245469,-0.01929218968144619,-0.02001437083472678,0.3188880169979349,0.46619796742062913,0.36478570118358516
56.0514,824.4223,-0.3075816986327309,0.013643038249420258,-0.06888845950329053,0.0004452488406214154,-0.015055380277857713,-0.006334715193267833,0.22790045520422042,0.5405907941919138,0.44344300169544615
56.0651,824.4423,-0.31764138748690285,0.018376481905356873,-0.08266730697314512,-0.013595128120912061,-0.009837991101585212,-0.011974827334117023,0.1053063385261128,0.5838961844916173,0.38780735011388623
56.084,824.4623,-0.3233700987766396,0.021955356209684668,-0.08914962073196323,-0.03690927803871408,-0.013459203759131353,-0.047952484741167305,0.1053063385261128,0.5838961844916173,0.38780735011388623
56.1039,824.4823,-0.32200673730586205,0.020878077036026066,-0.08455510993057003,-0.06404734996331113,-0.022683732570320327,-0.0535335079830954,0.22790045520422042,0.5405907941919138,0.44344300169544615
56.1262,824.5024,-0.31186843606703407,0.01260443764951108,-0.06665395610195604,-0.04599366341045392,-0.016309965129963345,-0.011496744424664454,0.22790045520422042,0.5405907941919138,0.44344300169544615
56.1455,824.5224,-0.2942763800900672,-0.0047993731064035206,-0.03567966982774942,-0.02530909800262089,0.008893784505023377,-0.02537899057671004,0.22680142127673342,0.6426972758862652,0.34560099374166814
56.173,824.5424,-0.27314737759605906,-0.023170857353024016,0.00557673993205067,-0.04212251073971757,-0.0028580077488746755,-0.03371340303070206,0.2728447191373333,0.5544476216534487,0.3551933474626265
56.1882,824.5625,-0.25357595056719173,-0.046175774044218326,0.05156068317716257,-0.05762927174666232,-0.022715882485563867,-0.03365795922619492,0.34939553795484096,0.5993918855865616,0.401236645323228
56.2133,824.5825,-0.23862494267950576,-0.062863169713433,0.09568046127711877,-0.030777469107113258,-0.020323504211366254,-0.01960707949573488,0.3482965040273524,0.7014983672809127,0.30339463736945316
56.2252,824.6025,-0.23337369419201154,-0.07903675293482684,0.13095666092980388,-0.013104546363300872,-0.009506606137006657,-0.030358573240334027,0.34939553795484096,0.5993918855865616,0.401236645323228
56.2518,824.6225,-0.23151714534108445,-0.08502628643309743,0.15289588513696128,0.0009344487131869222,-0.006373846700274933,-0.043487435931135535,0.3799030589117461,0.7325858037524895,0.43768758946286956
56.2686,824.6426,-0.23947691366502075,-0.08483314405408113,0.15942204021201367,0.0016889769318810589,-0.007260859119438695,-0.04255122220796998,0.4564538777292538,0.7775300676856024,0.4837308873234712
56.2845,824.6626,-0.25108595844091774,-0.07847524767797001,0.15198037931701808,-0.00301917090976117,0.0004914242437089155,-0.025046135902592782,0.45535484380176355,0.8796365493799566,0.385888879369696
56.3071,824.6826,-0.2603685408587658,-0.06950826956622982,0.13423781249956626,0.007342547277128459,0.009603131052170453,-0.010032375705622923,0.5013981416623651,0.7913868951471369,0.39548123309065464
56.3281,824.7026,-0.26509249696345366,-0.058595465985566725,0.11067376528579358,0.028856035968486914,0.016778944393733404,-0.00901999869391296,0.5013981416623651,0.7913868951471369,0.39548123309065464
56.3668,824.7226,-0.26048881874600804,-0.04864875521467191,0.08491780039330918,0.008823986448373747,0.002941205973950317,-0.0020179641717620812,0.547441439522965,0.7031372409143204,0.405073586811613
56.3703,824.7426,-0.2539373850613147,-0.03469075625199805,0.05872991398327917,-0.014613848736070781,-0.0067671099225310085,-0.010629020107066544,0.547441439522965,0.7031372409143204,0.405073586811613
56.3845,824.7626,-0.24257609351786874,-0.02216160627517552,0.03188143316585307,0.0006306276397362371,0.002441810357172211,-0.011798903566874644,0.62399225834047,0.7480815048474317,0.4511168846722129
56.4043,824.7826,-0.23164331181616726,-0.010322294852457142,0.003298061263408869,0.019448379114693392,0.01917445336350433,0.01355656502373501,0.5013981416623651,0.7913868951471369,0.39548123309065464
56.4358,824.8026,-0.22619504033297724,0.0011551486797519717,-0.027456231622344035,-0.0006972101421890273,0.005655999439195632,0.01778602562638004,0.5779489604798701,0.8363311590802482,0.44152453095125455
56.4505,824.8226,-0.22697262205906546,0.016340109540478764,-0.05875503992011724,-0.018635673157993787,0.0028213868861547524,0.00129293263856396,0.4564538777292538,0.7775300676856024,0.4837308873234712
56.4692,824.8426,-0.23666338189044256,0.029585790699995368,-0.08689479397026523,-0.011661271053016339,0.004885449518281314,-0.0003721081203200185,0.547441439522965,0.7031372409143204,0.405073586811613
56.4927,824.8626,-0.25473081713484025,0.038468634610740876,-0.10635579602866282,-0.0020099990371881156,0.004452178154610552,0.006548775089351553,0.4564538777292538,0.7775300676856024,0.4837308873234712
56.5042,824.8826,-0.2798552894254511,0.03966906113140217,-0.11154116554044852,-0.02074431766698289,-0.013346211138282788,-0.009934341850594728,0.5790479944073587,0.7342246773858971,0.5393665389050294
56.5251,824.9026,-0.30857935357151167,0.03667896156470238,-0.09866176636399313,-0.05639437531926603,-0.02457443397140676,-0.03124720888904362,0.5330046965467587,0.8224743316187136,0.5297741851840712
56.5461,824.9226,-0.3365577691930782,0.02469375262798887,-0.06782011480689282,-0.08451792726913293,-0.03032512606749523,-0.03193478880376193,0.4564538777292538,0.7775300676856024,0.4837308873234712
56.5848,824.9426,-0.36190926286011327,0.01218617430618607,-0.02334912815787743,-0.07705281940765261,-0.019859082801999165,-0.016098580198757092,0.5024971755898536,0.6892804134527859,0.49332324104442954
56.5928,824.9626,-0.37050845003965466,-0.02404985921995842,0.02636036471451267,-0.04144794574314836,0.006634076007701025,-0.006961479585395264,0.5934847373835666,0.6148875866815008,0.41466594053257166
56.6136,824.9825,-0.36979485468387535,-0.05697980475900641,0.07173951437447047,-0.032198915572217726,0.027546768180083968,0.001032596158577146,0.5934847373835666,0.6148875866815008,0.41466594053257166
56.6293,825.0025,-0.35700697269929826,-0.08120161669682754,0.10389253624086987,-0.03067837360426748,0.01873572940817933,0.0018059317155608209,0.5934847373835666,0.6148875866815008,0.41466594053257166
56.6523,825.0225,-0.3371605952430923,-0.09090426544572364,0.11672596532453677,-0.023751497035281406,0.011721715984289359,-0.006838505610692577,0.6395280352441665,0.5266379324486843,0.42425829425352996
56.6709,825.0425,-0.3124012707351924,-0.08588419189758864,0.10845542605266208,-0.014847425386695605,0.025337245324499907,-0.007089441584032852,0.6395280352441665,0.5266379324486843,0.42425829425352996
56.6902,825.0625,-0.28702559736401534,-0.06950795733010254,0.08189653782087927,-0.003916474020636703,0.04012875520622034,0.00010885249524884066,0.6395280352441665,0.5266379324486843,0.42425829425352996
56.7034,825.0825,-0.264460918685378,-0.044473585107603214,0.04397456415670517,0.009421735596211152,0.039155520107261955,-0.009171749729778527,0.6395280352441665,0.5266379324486843,0.42425829425352996
56.7261,825.1026,-0.24757780950565464,-0.019889794833153313,0.0037871538174692743,0.004630898945335273,0.03163545702144072,-0.004486460478313547,0.5618781824991718,0.5838001502099229,0.2803729884391505
56.746,825.1226,-0.23710342263071085,0.0032643856871877597,-0.02932941124778543,-0.00558093839752181,0.02610731192858346,0.01921260047176099,0.6079214803597717,0.4955504959771064,0.2899653421601088
56.7721,825.1426,-0.23367385561125906,0.01968576905631117,-0.04857147819766064,-0.01995083472275255,0.002850446551942383,0.020695770204095593,0.4392840658210652,0.6271055405096312,0.2247373368575919
56.7854,825.1626,-0.23413224558985735,0.02589851698871598,-0.05109011465318203,-0.019329795572505394,0.003542621513968672,-0.014176848054300265,0.4403830997485539,0.5249990588152766,0.3225793448113702
56.8041,825.1827,-0.24056166862516745,0.021363646248053675,-0.03856221458016992,-0.033123479653578064,-0.0027953173306420388,-0.0062762018355699885,0.3638322809310462,0.4800547948821637,0.27653604695076867
56.8288,825.2027,-0.25223999888560866,0.007193008036909171,-0.016237043222205316,-0.026077364130201983,-0.012072038750446202,0.008308971997147438,0.4403830997485539,0.5249990588152766,0.3225793448113702
56.8457,825.2227,-0.26716171866741634,-0.01469033923416374,0.008802389105804068,-0.007836809883844852,-0.01033393438929737,0.006800670298063924,0.4403830997485539,0.5249990588152766,0.3225793448113702
56.8664,825.2428,-0.28337883357098037,-0.038039766085603915,0.029732514776904168,-0.00150179458416777,0.0070564529529882234,-0.01008666842768355,0.34939553795484096,0.5993918855865616,0.401236645323228
56.8855,825.2628,-0.29819129010001344,-0.05637220771682913,0.04152418349908457,0.0021890294453879872,0.012649040229673022,-0.001787747682459077,0.2728447191373333,0.5544476216534487,0.3551933474626265
56.9054,825.2828,-0.30875148697978555,-0.06525491282755633,0.041690669240151676,0.0012245086280012127,0.0008043717963310085,0.0020821915027244295,0.22680142127673342,0.6426972758862652,0.34560099374166814
56.9245,825.3028,-0.31311070257744045,-0.06335360423506134,0.030359972945724067,0.0004076108599418123,0.0015159258517781935,-0.006528097044282357,0.18075812341613187,0.730946930119085,0.3360086400207095
