AppTimestamp(s),SensorTimestamp(s),acc_x,acc_y,acc_z,gyro_x,gyro_y,gyro_z,mag_x,mag_y,mag_z,PitchX,RollY,YawZ,Quat_w,Quat_x,Quat_y,Quat_z
0.0517,768.3754,-1.65684,6.53158,6.37356,0.34991,-0.60473,0.14544,42.9,5.6,144.7,43.424107,10.73127,148.627243,0.21678723438726716,0.015942,0.378093,0.89988601
0.056,768.3954,-1.45093,6.76861,6.11737,-0.15833,-0.95719,0.29449,42.7,5.6,144.60001,43.721321,9.816657,148.754318,0.21834362858553927,0.023432,0.378665,0.89910501
0.0648,768.4154,-0.93856,7.02001,6.62496,-0.41123,-1.05371,0.23279,42.4,5.6,144.5,43.503223,8.295228,149.170364,0.22039631752844552,0.033485,0.37417299,0.90016598
0.0699,768.4354,-0.51716,7.14452,7.22832,-0.4546,-0.90344,-0.07386,42.2,5.6,144.5,43.077961,6.960155,149.407684,0.22343926607519007,0.042212,0.36837101,0.90144098
0.0781,768.4554,-0.5435,7.21874,7.62577,-0.47537,-1.02683,-0.2785,41.9,5.5,144.2,42.565662,6.040163,149.226028,0.22846214818765698,0.048843,0.36250201,0.90222597
0.1031,768.4753,-0.84997,6.89072,7.6952,-0.36358,-1.70978,-0.1209,41.6,5.6,143.90001,42.031612,5.009748,148.832153,0.23544363096766885,0.056955,0.35607201,0.90251601
0.1406,768.4953,-1.13489,6.62256,7.94181,-0.23346,-2.40006,0.17904,41.4,5.6,143.60001,41.663349,2.900229,148.783096,0.24272783822400745,0.072874,0.348764,0.90229499
0.1431,768.5153,-0.71349,6.52679,8.01364,-0.16321,-2.49169,0.57671,41.1,5.6,143.3,41.486515,-0.1217,149.25621,0.24826301821813795,0.094845,0.34124699,0.90162098
0.1609,768.5353,-0.14126,6.6058,7.59464,-0.41917,-1.94924,0.73798,40.2,5.6,142.3,41.251415,-3.165165,150.219162,0.24981332924249658,0.115466,0.33366099,0.901627
0.1775,768.5553,0.43097,6.52679,7.01044,-1.04225,-1.33166,0.50768,37.7,5.6,140.40001,40.577496,-5.532865,151.246262,0.2488373594735728,0.12985,0.32426101,0.903368
0.1962,768.5753,0.38787,6.11977,6.33046,-1.67572,-0.9126,0.40628,38.7,5.3,140.40001,39.243225,-6.949285,151.829361,0.24855519890953742,0.13694499,0.31121901,0.90697801
0.2164,768.5953,0.35196,5.54514,6.4837,-2.16502,-0.93826,0.73065,38.0,6.1,140.40001,37.255146,-7.857649,152.299377,0.24756536083293187,0.13932399,0.29385701,0.91266
0.241,768.6153,1.43896,5.605,9.49809,-1.19741,-1.65847,0.80456,33.6,7.2,137.0,34.988945,-9.377381,153.122437,0.2448182528155928,0.145457,0.27328601,0.91881502
0.256,768.6353,1.7143,5.20515,10.82691,1.07623,-0.63099,0.30426,36.2,6.3,138.40001,34.297108,-11.152866,154.177917,0.24042455802230245,0.156075,0.26528901,0.92057502
0.2762,768.6553,1.14925,4.92263,9.26345,1.7604,-0.08793,0.85465,33.3,6.7,138.2,35.716267,-12.06345,155.409943,0.23304972841327118,0.162663,0.27667099,0.91797698
0.299,768.6753,1.36713,5.22431,6.79974,0.81173,0.19917,1.02631,35.0,5.1,139.0,37.110355,-12.844409,157.468231,0.21895704397899554,0.165774,0.28941199,0.91696101
0.3164,768.6953,2.28893,5.83485,6.32807,-0.70016,-0.79776,0.36779,34.8,4.9,139.10001,37.247318,-13.55707,159.239227,0.20663584511526495,0.16716,0.29177499,0.918818
0.3443,768.7153,2.41343,5.80372,8.028,-0.03799,-0.98224,0.07886,34.8,5.3,138.8,36.426231,-14.620506,159.710876,0.20510074461751673,0.173581,0.28387699,0.92044401
0.3579,768.7353,2.23865,5.45176,8.38954,1.1532,-0.79715,-0.04515,34.3,5.2,139.0,36.733501,-15.751519,160.35965,0.20288700910427845,0.181375,0.285373,0.91896802
0.3759,768.7553,2.49244,5.30571,7.5683,1.09517,-0.11298,-0.15816,33.4,5.2,138.10001,38.03397,-16.672367,161.14653,0.19981612649513442,0.188023,0.29560199,0.91506302
0.3999,768.7753,3.65845,5.40627,6.99847,0.78241,0.13992,-0.60654,33.3,5.0,137.90001,39.079811,-16.666815,161.707138,0.19608415901046072,0.187454,0.305013,0.91289598
0.422,768.7953,2.95454,5.9809,6.40947,0.92107,-0.7721,-1.89852,33.3,5.1,138.10001,40.099808,-16.186796,161.308075,0.19866430818770472,0.18561999,0.31344101,0.90985298
0.4398,768.8153,-0.06943,6.39511,5.02079,0.38656,-0.36466,0.42338,32.2,5.0,137.3,41.453323,-15.836543,159.920105,0.20950738361709098,0.18798199,0.32270601,0.90367597
0.4569,768.8353,0.63927,6.42384,4.6401,-0.55539,0.16313,0.67139,31.3,4.9,137.5,41.435032,-16.590908,161.215912,0.2013968406166288,0.190265,0.32334501,0.90481299
0.477,768.8553,0.90504,5.9785,5.30332,-1.06363,0.48567,1.24378,30.4,4.6,137.10001,40.492504,-16.765139,162.469971,0.19130554406320718,0.18734699,0.31751901,0.90966201
0.4997,768.8753,2.0088,6.22033,6.3568,-0.71177,0.53576,1.01165,30.3,4.9,137.60001,39.090908,-16.961525,164.278015,0.1763592927885562,0.18292999,0.308779,0.91656399
0.5336,768.8952,2.69595,6.25385,6.92185,-0.30921,0.17657,0.11429,30.3,4.8,137.40001,38.392033,-16.84103,165.472473,0.16588859209963738,0.17831001,0.305161,0.920632
0.5463,768.9152,2.65286,6.09103,7.18043,-0.42589,0.07883,0.10329,30.2,4.5,137.5,38.122334,-16.707123,165.875,0.1620670433278752,0.176001,0.30377799,0.92221302
0.5563,768.9352,2.66962,6.01202,7.51802,-0.3257,0.44108,0.13017,29.9,4.4,137.5,37.702744,-16.49523,166.289032,0.1578204314254635,0.172956,0.30128199,0.92434198
0.5785,768.9552,2.68638,6.03836,7.55633,-0.18826,0.32684,0.10451,29.6,4.3,137.3,37.384342,-16.069363,166.778824,0.1524787418782037,0.168052,0.299986,0.92656201
0.6003,768.9752,2.59061,6.20596,7.08705,-0.24263,0.12831,-0.07508,29.3,4.3,137.10001,37.213093,-15.766612,167.196976,0.14816274045474373,0.164415,0.29958901,0.92804199
0.6217,768.9952,2.92102,6.34722,7.36718,-0.45948,-0.46117,-0.26017,29.0,4.4,136.90001,36.948025,-15.655459,167.354797,0.14637657164669446,0.162962,0.29778701,0.92916101
0.6478,769.0152,2.88989,6.35919,8.55235,-0.12717,-1.11052,-0.51124,28.6,4.5,136.7,36.63063,-16.067986,167.137939,0.14893532453880418,0.16669799,0.29434299,0.92918903
0.6662,769.0352,3.00481,6.69679,8.62178,0.3438,-1.71406,-0.20459,28.2,4.6,136.3,36.831501,-17.203136,166.994095,0.1531933877071712,0.176366,0.294276,0.92672998
0.6963,769.0552,3.6393,7.1493,7.7766,0.07869,-1.25346,-0.37135,28.0,4.7,136.10001,37.25174,-18.976564,167.325256,0.15550337612926535,0.19002999,0.29585001,0.923136
0.7058,769.0752,4.06548,7.46774,7.54675,-0.43444,-1.02622,-0.37929,27.6,4.9,135.8,37.349686,-19.954329,167.309998,0.15825346234562843,0.19798,0.295284,0.92117703
0.7208,769.0952,4.63053,7.47253,9.0743,-0.24751,-1.88571,-0.65846,27.2,5.1,135.40001,37.044773,-20.88274,167.07692,0.1621495390664399,0.205908,0.29109201,0.92009503
0.7422,769.1152,4.59701,7.4007,10.21398,0.94306,-3.13859,-1.01826,26.8,5.3,135.2,37.399307,-22.814558,166.730911,0.17026560879361152,0.222397,0.29052499,0.91495597
0.7608,769.1352,4.20195,7.32409,9.88117,2.02246,-4.67859,-1.13799,26.4,5.3,135.0,39.173847,-26.427965,166.794968,0.18158669162755103,0.25145799,0.29943401,0.90229398
0.7864,769.1552,3.87873,7.25944,9.39992,2.57835,-6.15749,-1.29987,25.0,4.9,135.0,41.844486,-32.026691,167.552078,0.19527370385999115,0.293367,0.31328601,0.88184798
0.7973,769.1752,3.07185,7.06311,9.04796,3.50442,-7.87524,-1.59308,19.5,2.5,136.90001,45.091278,-39.683651,168.954468,0.2131503641507549,0.34673899,0.32881299,0.85218602
0.8163,769.1952,1.41741,6.66806,8.13575,4.17821,-8.87523,-1.36462,18.3,-1.5,140.40001,48.972454,-49.673294,171.675476,0.23358139199131378,0.408548,0.34740299,0.81107301
0.8453,769.2152,-1.18038,6.05512,6.97931,4.63819,-9.63942,-0.54667,14.5,-3.5,146.0,52.560768,-62.125114,176.576172,0.2513039939037978,0.473766,0.365284,0.760894
0.8586,769.2352,-3.76619,5.21234,6.17005,5.4091,-10.8074,0.52357,4.9,-4.3,150.3,54.869762,-77.410309,-175.961853,0.26353058484722147,0.54197502,0.37887999,0.70232803
0.884,769.2552,-5.64809,4.0152,4.8508,6.15497,-10.99371,1.47713,4.6,-7.6,158.8,55.281143,-95.569054,-166.261154,0.2699335837355547,0.614106,0.38795599,0.63205999
0.9055,769.2752,-5.94738,2.60976,2.7582,6.34006,-9.33094,2.68664,-0.6,-5.6,166.3,53.460766,-113.385132,-156.556824,0.26843908083425433,0.68067902,0.393484,0.55658501
0.9188,769.2952,-5.27219,1.07742,1.97288,6.02424,-5.87955,3.62432,1.3,-5.5,175.7,49.946213,-126.643623,-149.463303,0.2567566815749882,0.731493,0.39616999,0.491979
0.9424,769.3151,-3.65606,-0.73983,2.18597,5.91245,-2.45015,4.38057,-0.5,-3.0,180.7,45.708611,-134.041107,-145.009659,0.2328836541284504,0.76354301,0.399654,0.45060399
0.9625,769.3351,-1.30009,-2.92341,2.76299,6.3932,-0.72018,4.82345,-3.3,3.5,186.60001,40.268383,-137.112732,-142.000473,0.19119350692201809,0.785317,0.40349501,0.42885199
0.9759,769.3551,1.84359,-4.94418,2.82524,7.11769,-1.02011,4.71838,-7.5,9.3,190.90001,31.005026,-138.562744,-139.326675,0.11593877721168158,0.81225699,0.401898,0.40654001
0.9963,769.3751,5.32966,-6.65608,1.38389,7.67785,-1.82523,3.75932,-7.0,15.1,192.2,21.294939,-140.672546,-136.219955,0.038164684768763384,0.83556497,0.40272999,0.37173
1.0185,769.3951,7.82688,-8.46137,-0.1652,7.78475,-1.9584,2.75567,-7.4,21.5,195.60001,11.854408,-143.535858,-132.534378,0.03549153826419822,-0.85182297,-0.409798,-0.32435101
1.0421,769.4151,9.48612,-10.35284,-1.47487,7.8208,-1.35853,2.00614,-7.7,26.4,196.5,1.587131,-145.051239,-128.662094,0.11816321484641053,-0.85783303,-0.416888,-0.27634099
1.0617,769.4351,11.23394,-11.74152,-3.11495,7.65342,-0.81975,1.24561,-8.6,33.5,195.10001,-9.109628,-144.600449,-124.351112,0.20837196106069428,-0.85112602,-0.421911,-0.23271599
1.0777,769.4551,13.07992,-12.55558,-4.6425,7.14884,-0.86373,0.0477,-9.5,38.2,195.8,-18.368177,-143.146637,-119.229805,0.2884586924429905,-0.83344299,-0.43020299,-0.192587
1.1008,769.4751,14.96901,-13.24752,-5.76781,6.7078,-1.13923,-1.50878,-9.8,41.7,193.40001,-25.654881,-140.868118,-112.912033,0.35479401307209174,-0.80681998,-0.445705,-0.156556
1.119,769.4951,15.63222,-14.14538,-6.82129,6.23377,-1.13373,-3.04877,-9.6,43.8,192.3,-30.133284,-138.555176,-105.397972,0.4004564971072134,-0.77416402,-0.47414699,-0.124456
1.1494,769.5151,15.18449,-15.11745,-7.67844,5.22278,-0.07205,-3.81602,-10.2,45.7,190.8,-32.615517,-135.017471,-96.804703,0.43776614625226506,-0.73445898,-0.50839001,-0.102325
1.1573,769.5351,14.93788,-15.96024,-6.87396,4.3468,1.06599,-4.32182,-13.1,45.9,190.60001,-33.167244,-130.027405,-88.455116,0.47054027389159797,-0.692321,-0.53840101,-0.096994
1.2067,769.5551,14.96661,-17.07118,-5.24346,4.44821,1.88333,-4.98827,-14.6,44.1,188.3,-32.016354,-123.933975,-80.409447,0.502158191625069,-0.64667898,-0.564331,-0.105707
1.2084,769.5751,15.47899,-17.97861,-4.07266,4.78418,2.14356,-5.48918,-17.2,42.2,186.5,-29.618683,-117.219017,-72.150742,0.5354865893623474,-0.59357202,-0.58863002,-0.120171
1.2153,769.5951,16.79344,-18.40718,-3.46691,4.93934,2.28833,-6.1538,-19.5,39.0,182.2,-25.963486,-110.665863,-63.964733,0.5679976890591882,-0.53287703,-0.61211997,-0.136857
1.2384,769.6151,18.32339,-18.60352,-3.261,4.8526,2.51863,-7.12874,-21.2,34.4,180.90001,-20.695803,-104.684753,-56.262817,0.597056315960412,-0.46397701,-0.63505602,-0.157965
1.2571,769.6351,19.00336,-18.77351,-3.32086,4.60276,2.73365,-8.01755,-21.2,29.9,179.2,-13.595183,-99.510239,-49.458054,0.6204789477605985,-0.38651699,-0.65643102,-0.186303
1.2756,769.6551,18.63704,-18.78787,-3.54832,4.17637,3.05802,-8.6107,-21.2,24.6,176.2,-4.953029,-95.243385,-43.795464,0.6367131755767736,-0.30226901,-0.67391098,-0.221526
1.2956,769.6751,17.88044,-18.32817,-3.62254,3.77259,3.40561,-8.96073,-19.5,18.3,174.10001,4.717419,-91.592323,-39.388237,0.6459311815378783,-0.214362,-0.68402898,-0.26253799
1.3177,769.6951,16.66415,-17.42553,-4.10139,3.40913,3.38972,-9.31381,-16.7,11.9,171.60001,15.089972,-88.405678,-36.021931,0.6475388919432098,-0.124191,-0.6864,-0.30679801
1.336,769.715,14.77507,-16.28107,-4.98727,2.66448,3.64506,-9.21179,-14.5,4.2,171.40001,25.941149,-85.658493,-33.657238,0.639890296707693,-0.034233,-0.68175602,-0.35295501
1.3573,769.735,12.61065,-14.7631,-5.32008,1.79827,4.20523,-8.72127,-26.4,-32.4,6.7,36.590908,-82.337944,-32.798634,0.6272999112757787,0.050236,-0.66629601,-0.40002599
1.378,769.755,10.84846,-12.63459,-5.20515,1.27537,4.28831,-8.32115,-21.6,-37.8,3.3,46.610954,-77.58242,-32.602329,0.6174907621688926,0.13447499,-0.638794,-0.43882099
1.396,769.775,9.43105,-10.56594,-5.54514,0.74514,3.9114,-8.07497,-16.3,-40.9,1.9,56.069843,-71.154579,-34.656643,0.6038655983256531,0.211969,-0.60408503,-0.47486499
1.4161,769.795,7.8628,-8.68882,-6.13413,-0.18704,3.67561,-7.70784,-9.1,-43.1,0.6,64.69693,-61.197514,-40.969799,0.5858721927929671,0.28094399,-0.564013,-0.50962102
1.4405,769.815,6.6082,-6.96495,-5.69837,-1.2139,3.21929,-7.43601,1.3,-46.4,1.5,71.298264,-42.666904,-56.464462,0.5665744999667208,0.33845901,-0.51726401,-0.544864
1.4569,769.835,5.45416,-5.92822,-4.63771,-1.76307,2.50091,-7.34927,5.5,-47.1,0.9,73.901405,-12.538321,-84.308212,0.5448457472663423,0.38440901,-0.465718,-0.58178997
1.4787,769.855,3.51719,-5.53317,-4.04154,-2.37394,2.08736,-7.02551,14.8,-45.7,-0.2,72.823486,7.467582,-103.271645,0.5287352575160464,0.40872201,-0.431905,-0.605676
1.5179,769.875,1.82683,-5.1022,-2.95214,-3.29329,1.68968,-6.62722,19.6,-43.8,-3.6,70.328949,18.851246,-114.076614,0.5179154972311598,0.42144799,-0.40385801,-0.62533498
1.5251,769.895,1.32882,-4.73109,-1.10376,-3.68546,0.5437,-6.45862,19.9,-39.6,-7.8,66.665665,24.942049,-120.172966,0.5096773266967051,0.42395201,-0.37508601,-0.64792299
1.5431,769.915,1.78373,-4.75264,0.15802,-3.6763,-0.9633,-6.73535,28.6,-37.5,-9.0,61.786213,26.179285,-123.240654,0.49958642054065067,0.40869001,-0.34762099,-0.680107
1.5583,769.935,2.44216,-5.56669,0.53871,-4.42278,-2.08913,-7.08843,31.9,-33.2,-11.7,53.728928,24.575808,-125.982414,0.48151919593625725,0.36965999,-0.30715701,-0.73290199
1.5776,769.955,2.82046,-6.53398,1.3384,-5.31525,-2.26689,-7.23992,34.6,-27.3,-16.2,42.443336,23.249815,-130.349976,0.4495495529413859,0.31933999,-0.242926,-0.798069
1.596,769.975,2.9713,-7.96575,3.48128,-5.62679,-2.47336,-7.09515,33.1,-20.8,-19.2,29.920677,21.677845,-135.218079,0.4063329795826074,0.264559,-0.165225,-0.85883802
1.6176,769.995,1.506,-8.24109,8.01364,-4.36719,-2.60959,-6.26254,32.8,-13.5,-24.5,17.749359,19.261284,-140.224884,0.3556368313811151,0.207176,-0.0868,-0.90723002
1.6501,770.015,1.28573,-7.85322,10.14215,-3.30795,-3.21129,-5.77201,32.4,-7.0,-23.9,8.232765,16.019585,-145.31604,0.3039543191129212,0.153853,-0.026424,-0.93980998
1.6698,770.035,1.57304,-7.57309,10.44862,-2.7991,-3.5552,-5.62235,30.2,-1.9,-25.9,0.894306,11.656005,-150.770035,0.25177886571950364,0.100213,0.018108,-0.962412
1.68,770.055,1.96809,-7.64013,10.11581,-2.92555,-3.49351,-5.15992,24.9,3.8,-29.5,-5.08525,6.728336,-156.534439,0.2002505844778485,0.048394,0.055282,-0.97698599
1.7249,770.075,3.49325,-7.83407,10.2882,-3.0019,-4.30474,-4.82639,21.1,7.9,-30.7,-10.315463,1.285517,-162.18251,0.15323021336015932,-0.002883,0.090538,-0.98403001
1.7311,770.095,6.87396,-8.51165,11.31534,-2.91272,-5.16056,-5.26744,12.9,13.8,-37.6,-14.666362,-5.609608,-169.091721,0.10038429997175347,-0.060431,0.122296,-0.98555303
1.748,770.115,9.83329,-10.04638,13.27147,-2.65554,-4.72318,-6.14892,6.1,19.6,-36.8,-17.699886,-13.789071,-178.059067,0.03510810575635887,-0.121183,0.150704,-0.98049498
1.7624,770.135,10.29059,-11.63857,16.46303,-2.02147,-3.92539,-6.6034,0.1,21.7,-37.4,-18.512928,-21.592995,171.798676,0.03930091041437808,0.17310999,-0.17082299,0.96917897
1.7784,770.155,10.73353,-12.53163,18.96026,-0.62442,-3.65233,-6.51605,-4.2,22.2,-38.1,-17.082611,-28.472803,161.915237,0.11458576333558967,0.217548,-0.18039399,0.95236599
1.7983,770.1751,11.72237,-13.06077,19.3218,0.44704,-3.27176,-6.69503,-9.3,23.2,-35.7,-13.47242,-34.354088,153.243347,0.18583458200926797,0.25939801,-0.17688601,0.93106902
1.8167,770.1951,13.66173,-13.30977,18.38564,1.0744,-3.46541,-7.04689,-14.1,20.5,-36.9,-8.261528,-39.219673,145.540421,0.2552116434377153,0.29962099,-0.16396201,0.90455002
1.8455,770.2151,15.68968,-13.37681,18.08156,1.27537,-4.17096,-7.86728,-20.0,17.9,-33.4,-1.795128,-43.881748,138.379852,0.3240279817058702,0.344069,-0.146313,0.86903101
1.8658,770.2352,16.40078,-13.30259,19.31462,2.03346,-4.6963,-8.84711,-24.2,13.5,-35.8,6.125417,-48.667065,131.255508,0.39552026217338043,0.39488101,-0.12545,0.81969202
1.8766,770.2552,15.54603,-12.70163,19.68094,3.06521,-4.68714,-8.99127,-27.5,7.9,-32.5,15.729826,-53.253193,125.093056,0.4626791335670316,0.450358,-0.096127,0.75753897
1.8968,770.2752,13.70483,-11.26506,17.84453,3.39019,-4.02191,-8.4757,-31.0,0.3,-31.4,26.175991,-57.50713,120.429237,0.5187295181791176,0.50526702,-0.060453,0.68700099
1.9183,770.2952,11.39914,-9.45499,14.68648,2.74512,-2.74031,-7.46716,-31.7,-5.7,-27.8,36.215065,-60.664757,116.878059,0.5631266943846647,0.549411,-0.02266,0.61686498
1.939,770.3153,9.83329,-7.47253,13.31696,2.43785,-2.78002,-6.67793,-31.1,-11.3,-27.5,44.924976,-62.620815,113.49292,0.5989856966259205,0.58060598,0.009641,0.55137998
1.9588,770.3353,8.37757,-5.40867,12.93627,2.83369,-3.45991,-6.24055,-30.3,-16.4,-25.2,52.941898,-65.192879,110.804276,0.6258877220141007,0.610192,0.035302,0.484442
1.9809,770.3553,6.63214,-3.58902,12.30178,3.16845,-3.36095,-5.54782,-29.5,-22.9,-21.1,60.663933,-69.902031,110.061226,0.6425400658603942,0.642425,0.055805,0.41390601
2.0052,770.3754,4.24984,-2.15724,12.40474,3.66386,-2.89303,-4.53684,-29.2,-26.7,-15.7,67.552528,-77.459557,112.816376,0.648504455185853,0.67315501,0.073546,0.3477
2.0234,770.3954,2.15006,-1.13728,11.80138,4.49891,-2.12761,-3.21921,-27.2,-29.2,-12.5,72.804001,-91.645874,123.007637,0.6416562931611588,0.70462197,0.088054,0.289882
2.0421,770.4154,0.57941,-0.55068,10.19482,4.74326,-0.39642,-1.90218,-21.7,-33.0,-8.3,74.900826,-114.151756,142.792664,0.6214002635066548,0.73699301,0.10065,0.246115
2.0788,770.4354,0.19872,-0.38548,9.64414,4.93201,0.77888,-0.46054,-20.8,-34.0,-6.2,74.015396,-122.131042,150.594223,0.6075976938137928,0.74989998,0.104302,0.23999199
2.081,770.4555,0.59139,-0.99362,10.04638,6.28508,0.47651,0.44965,-25.2,-32.8,-4.1,71.712563,-125.46627,154.662628,0.5894278848027127,0.761742,0.103823,0.248082
2.0985,770.4755,0.5028,-2.8037,9.34007,8.2258,-0.27364,1.08739,-21.4,-34.3,1.2,67.638847,-130.233887,159.901596,0.5581630656363243,0.78297299,0.099086,0.25610399
2.1162,770.4955,0.19394,-4.95615,6.44539,9.36751,-0.88389,1.65794,-21.2,-32.7,8.8,61.471771,-135.623428,165.411667,0.5106214792340603,0.813945,0.090401,0.26189101
2.1414,770.5156,0.45252,-6.64411,2.65525,9.01015,-0.23332,2.26453,-27.1,-27.7,12.3,53.711914,-138.522385,168.626541,0.4517049523559812,0.84608197,0.076507,0.272497
2.1589,770.5356,1.30727,-7.64013,0.56026,8.10424,0.98597,2.82225,-23.6,-25.0,18.5,44.784004,-137.298431,169.171051,0.3849795771512036,0.87038702,0.056816,0.301644
2.177,770.5556,3.05509,-8.23391,-0.23703,7.91853,0.92122,2.96092,-25.7,-19.0,22.3,33.979954,-134.516342,169.910278,0.30095625899558803,0.88852102,0.034963,0.34457701
2.1971,770.5756,4.82686,-8.62897,-0.93616,8.3272,0.54004,2.33112,-26.8,-15.0,24.7,22.162529,-133.052689,172.858414,0.20030301228638564,0.903162,0.020348,0.379161
2.2242,770.5957,5.08065,-9.57231,-2.23146,8.55628,-0.32067,1.5376,-30.3,-8.3,24.2,10.628938,-132.513062,178.053741,0.0915873853882723,0.911924,0.021809,0.39941299
2.2369,770.6157,5.23867,-10.80057,-3.71352,8.3156,-0.73667,1.15276,-30.6,-0.6,25.8,0.020974,-132.552612,-176.364059,0.012614326176990192,-0.91503298,-0.029117,-0.40212899
2.2573,770.6357,6.26342,-11.92588,-5.23628,7.93014,-0.57052,0.65551,-28.6,4.4,27.1,-9.588755,-132.222473,-170.477814,0.10965937881111247,-0.91079903,-0.041895,-0.39580899
2.2803,770.6558,8.66249,-12.38798,-6.56031,7.54957,0.0599,-0.25895,-32.1,9.4,24.5,-17.833523,-130.833466,-163.904572,0.19710528655025888,-0.89854699,-0.061922,-0.38720599
2.2983,770.6758,11.29379,-12.75909,-8.08786,6.57524,1.51986,-1.5491,-34.2,12.7,23.1,-24.078215,-127.498756,-156.979324,0.26962390444921536,-0.87791002,-0.08463,-0.38654199
2.3181,770.6958,13.58751,-13.34808,-8.4494,5.51905,2.71411,-2.78488,-35.4,14.5,20.8,-27.021568,-121.880219,-149.657288,0.3207023331494485,-0.849998,-0.112906,-0.40237501
2.3649,770.7158,15.75912,-14.0496,-7.22113,5.09511,2.93585,-3.8765,-38.0,13.7,17.6,-26.893774,-115.024223,-142.184448,0.35484957916486237,-0.816589,-0.14767601,-0.430646
2.3838,770.7358,18.17494,-15.12463,-5.12854,5.23256,2.72021,-5.16115,-38.9,12.0,13.0,-24.571579,-108.241791,-134.475754,0.380551008243389,-0.778292,-0.191315,-0.46134701
2.3909,770.7558,21.07201,-16.31938,-3.87394,5.56609,3.24739,-6.65593,-40.4,8.8,12.1,-20.062338,-101.956062,-126.536736,0.39974347947292266,-0.73259503,-0.24617,-0.49285901
2.4096,770.7758,23.59079,-17.38483,-4.23787,5.40238,4.41781,-8.32971,-41.6,3.9,8.4,-13.026081,-95.663757,-118.617134,0.4127297251497642,-0.672113,-0.310386,-0.53064001
2.4172,770.7958,24.56047,-18.60591,-5.27459,5.00593,5.57234,-9.74447,-42.4,-2.1,6.4,-3.313031,-89.248657,-111.908607,0.4151233293616728,-0.59332401,-0.37606001,-0.578116
2.4432,770.8158,23.47347,-19.17814,-6.27539,4.39201,6.26934,-10.40115,-41.0,-10.1,2.4,8.431175,-82.831985,-106.848549,0.4066100439045239,-0.49696201,-0.43739399,-0.62958997
2.4598,770.8358,20.94991,-18.26113,-7.11339,3.72128,6.5595,-10.43047,-38.1,-19.2,-2.5,21.0212,-76.197807,-103.857292,0.3885144899651226,-0.38907501,-0.48710799,-0.67852998
2.4776,770.8558,17.68172,-16.33135,-7.9466,2.84896,6.31393,-10.08411,-31.5,-26.2,-4.7,33.547081,-68.799568,-103.282997,0.36241561749107803,-0.27639201,-0.52240801,-0.72066098
2.4986,770.8758,14.04721,-13.76947,-8.58108,1.77812,5.78492,-9.42743,-26.5,-31.9,-9.4,45.072792,-59.839924,-105.990761,0.3291599918937883,-0.167972,-0.54256803,-0.75436002
2.5253,770.8958,10.4534,-11.28182,-8.42306,0.46231,5.1368,-8.55511,-16.4,-38.2,-9.5,54.559235,-47.506569,-113.532211,0.29141993187988807,-0.069532,-0.54709798,-0.78161597
2.5382,770.9158,7.24508,-8.85163,-7.42465,-0.6574,4.45141,-7.45128,-9.2,-39.7,-10.0,60.724289,-30.313538,-127.221306,0.2517813976477999,0.014755,-0.537314,-0.80478698
2.5682,770.9357,5.23149,-6.34962,-5.12854,-1.58836,3.63529,-6.83309,-3.5,-39.8,-12.4,62.616013,-10.27734,-144.505234,0.21506324290459083,0.084877,-0.51624697,-0.82464099
2.5999,770.9557,3.73507,-4.42462,-1.6736,-1.71603,1.97435,-6.62539,1.5,-39.7,-12.8,60.809685,8.082377,-161.064072,0.17670706794788651,0.14299899,-0.48797399,-0.84273797
2.6073,770.9757,2.67919,-3.22988,0.34717,-1.43748,0.4258,-6.25765,6.3,-38.1,-12.8,57.728561,16.449205,-170.299881,0.1420974864860703,0.16522799,-0.465469,-0.85781503
2.6179,770.9957,0.28013,-2.75102,1.89387,-1.8883,0.47895,-5.33769,10.2,-36.6,-14.3,54.146267,18.089876,-175.150681,0.10869328543852178,0.15887301,-0.44314399,-0.875539
2.6416,771.0157,-1.8412,-1.925,4.11815,-1.89868,0.69336,-3.8991,12.6,-34.2,-17.3,49.028683,17.911621,-178.140793,0.07917243802952437,0.14827099,-0.407511,-0.89759803
2.6667,771.0357,-2.15964,-0.5866,5.92822,-1.28843,0.5101,-3.0726,19.7,-34.9,-16.1,43.999264,18.953468,178.627106,0.05072799056911058,0.148221,-0.37129101,-0.915205
2.6789,771.0557,-2.1333,0.57941,6.19159,-1.11983,0.17657,-2.93882,20.9,-33.2,-16.7,41.51656,22.048378,173.965958,0.01939192642878821,0.160252,-0.35681501,-0.92012298
2.7025,771.0757,-3.40466,1.05348,7.04875,-1.16687,-0.10992,-2.55642,17.4,-30.6,-21.2,38.98177,24.26758,169.79866,0.012139239069228308,-0.168364,0.34252799,0.92421901
2.7234,771.0958,-4.69038,1.4222,8.00406,-0.75209,-0.17529,-1.54238,23.6,-29.5,-16.2,36.735626,25.588518,166.801224,0.03704864150734454,-0.17346001,0.32940999,0.92737699
2.7418,771.1158,-4.35758,2.10457,7.96336,-0.44482,-0.193,-0.78857,24.7,-27.9,-17.9,34.32132,25.905714,164.858597,0.05713835820724849,-0.17442,0.31325501,0.93176401
2.7633,771.1358,-2.94496,2.93059,7.35282,-0.6122,-0.30601,-0.90891,25.0,-27.7,-17.1,32.227184,25.846693,163.505356,0.07289717366111956,-0.17383499,0.298536,0.93559802
2.7766,771.1559,-2.62652,3.36156,7.34803,-0.82784,-0.48133,-1.32736,24.7,-27.1,-18.2,30.096849,25.739056,161.986786,0.0902681883330972,-0.17281701,0.283665,0.93889302
2.7987,771.1759,-3.2203,3.43339,7.9466,-0.75636,-0.73301,-1.19969,25.8,-26.3,-20.0,27.963591,25.477961,160.272598,0.10965076531825804,-0.170443,0.26883799,0.94162202
2.8188,771.1959,-3.56268,3.42381,8.31532,-0.41306,-0.84968,-0.76353,25.2,-26.0,-19.4,26.305443,24.850718,158.731049,0.12737757082100176,-0.16491599,0.25706699,0.94366002
2.8392,771.2159,-2.89228,3.57944,8.33686,-0.36724,-0.78004,-0.60348,23.5,-24.9,-21.3,25.314806,24.063589,157.589783,0.14063032881259646,-0.157867,0.249745,0.94494897
2.8591,771.236,-2.40864,3.62972,8.43742,-0.40512,-0.52104,-0.88509,23.5,-24.1,-21.3,24.46476,23.402302,156.450119,0.15322745212075897,-0.151693,0.24355499,0.94561702
2.8789,771.256,-2.56666,3.4717,8.47573,-0.5053,-0.20217,-1.0488,23.8,-23.0,-22.2,23.51449,23.182468,155.070755,0.16702704158405005,-0.148993,0.237363,0.94528401
2.8992,771.276,-3.03594,3.22748,8.88515,-0.56272,-0.30357,-1.0543,22.1,-22.3,-23.1,22.411573,23.235153,153.599442,0.18131611791078886,-0.14885201,0.230432,0.94438797
2.9181,771.2961,-3.37114,2.9689,9.22993,-0.39901,-0.31273,-0.89425,22.3,-21.6,-23.5,21.381765,23.117504,152.291214,0.19443766915754518,-0.147646,0.223608,0.94360697
2.9419,771.3161,-3.45733,2.76539,9.34246,-0.30188,-0.15452,-0.75803,22.3,-22.0,-23.6,20.573612,23.004536,151.098373,0.20612786636769734,-0.14632601,0.21841501,0.94254702
2.9591,771.3361,-3.42621,2.62891,9.21796,-0.29638,0.12831,-0.70916,22.6,-21.4,-24.9,19.891224,23.082741,150.037735,0.2160902900249326,-0.14662699,0.214412,0.94118702
2.98,771.3561,-3.47649,2.5092,9.0312,-0.34647,0.19978,-0.6493,23.1,-20.5,-23.6,19.211184,23.41823,149.063736,0.22485599219807237,-0.14927299,0.210841,0.93952298
3.0088,771.3762,-3.5148,2.41582,8.86361,-0.34647,0.06417,-0.57049,23.0,-20.1,-24.0,18.51524,23.710514,148.144135,0.23329631395832132,-0.15177301,0.20704199,0.93790799
3.0262,771.3962,-3.46212,2.2985,8.90431,-0.39656,-0.03662,-0.53262,23.4,-20.0,-24.7,17.831738,23.828793,147.364426,0.24088417943368473,-0.153133,0.202841,0.93668598
3.0435,771.4162,-3.31607,2.174,8.97853,-0.2976,0.08189,-0.47703,23.0,-19.3,-24.3,17.159706,23.858471,146.625381,0.2482673180555178,-0.153869,0.19850899,0.93556499
3.0644,771.4363,-3.12692,2.12133,8.70319,-0.28783,0.19245,-0.46543,23.2,-18.9,-24.1,16.595562,24.040714,145.917191,0.25490113399127856,-0.155664,0.19535001,0.93414801
3.0782,771.4563,-2.95214,2.09499,8.28658,-0.40512,0.27003,-0.47215,23.6,-18.1,-24.1,16.012341,24.307436,145.257553,0.26104199681380624,-0.158323,0.192193,0.93265897
3.0984,771.4763,-2.70792,2.07105,7.8604,-0.56639,0.32623,-0.50819,23.3,-18.0,-25.0,15.283718,24.620178,144.666992,0.26685242420918653,-0.161915,0.187923,0.93126702
3.1215,771.4963,-2.23865,2.08302,7.16846,-0.78691,0.34945,-0.61448,23.5,-18.4,-24.4,14.379095,24.955925,144.179138,0.2721759942759088,-0.166398,0.182198,0.93007302
3.1585,771.5164,-1.69275,2.05429,6.3975,-1.15098,0.42336,-0.84844,23.2,-18.1,-24.8,13.176412,25.281261,143.742599,0.27774643603427174,-0.171765,0.174036,0.92901301
3.1742,771.5364,-1.13728,1.94176,5.73668,-1.60363,0.33173,-1.16548,23.2,-17.5,-25.0,11.523438,25.596361,143.322205,0.2841641289982943,-0.17840301,0.16227099,0.92795002
3.1822,771.5564,-0.21548,1.76937,5.3512,-2.01047,-0.16674,-1.55582,23.4,-16.4,-25.3,9.378468,25.572029,142.842896,0.29251634002167987,-0.18367501,0.145844,0.92705297
3.2002,771.5765,1.27615,1.75979,5.49247,-2.30796,-1.01706,-2.12331,24.0,-14.0,-25.7,6.754343,24.777201,142.092056,0.3047445126060512,-0.18386801,0.123981,0.92625701
3.2445,771.5965,3.37114,2.01359,5.54753,-2.32201,-2.27666,-2.84658,24.3,-11.4,-26.5,3.791444,22.729265,140.652359,0.3237463348194076,-0.174529,0.096843,0.924851
3.2478,771.6165,6.09103,1.4222,5.39909,-2.13814,-4.01396,-3.62299,24.3,-7.9,-28.0,0.750198,18.710455,138.09259,0.3518570476964185,-0.149492,0.064163,0.92180902
3.2574,771.6365,8.67925,0.53392,4.82446,-2.21206,-6.04204,-4.29494,22.5,-4.4,-31.1,-2.032984,12.222899,134.16124,0.3889019464913744,-0.104912,0.025207,0.91493899
3.2773,771.6566,12.2539,-1.04151,4.98249,-2.8608,-9.22831,-5.6419,19.4,0.7,-32.1,-4.844172,2.087478,128.614441,0.4337810597383428,-0.034719,-0.030186,0.89984298
3.3033,771.6766,16.7695,-3.60578,5.80372,-3.83818,-8.77932,-6.87157,12.3,6.7,-34.3,-7.413857,-11.04828,120.802811,0.48518668749049587,0.051743,-0.103403,0.866732
3.3173,771.6966,18.54366,-6.61059,11.05437,-4.96706,-6.62297,-8.65469,0.1,12.6,-37.9,-9.361592,-23.452988,110.339149,0.5437502331081062,0.120637,-0.18128,0.81050599
3.3424,771.7166,16.67852,-8.76305,18.21085,-1.93045,-4.66026,-8.50258,-2.0,13.8,-32.9,-8.916531,-32.719723,98.459869,0.6081073974133843,0.163967,-0.239867,0.73877198
3.3597,771.7366,15.62504,-10.02483,21.80945,1.08295,-4.17462,-8.27045,-11.7,14.3,-35.6,-4.331439,-38.902187,89.151955,0.6623534892803381,0.20817,-0.26204401,0.67028803
3.3773,771.7565,14.99055,-10.56594,21.48383,2.37371,-4.24731,-7.9473,-11.9,8.9,-32.5,3.170857,-43.797096,82.435944,0.7044654133583133,0.264972,-0.263524,0.60338497
3.4068,771.7765,14.15495,-9.64174,19.89403,2.54658,-4.02252,-7.13119,-15.3,4.8,-31.0,11.519179,-48.124168,77.650665,0.7334254676636743,0.32572201,-0.25859001,0.53770202
3.4215,771.7965,12.8788,-7.49887,18.47183,2.27536,-3.05063,-6.05484,-18.4,0.9,-29.6,19.385733,-51.706966,74.042885,0.7524491382341665,0.37978801,-0.251964,0.47549501
3.4393,771.8165,12.13897,-5.23628,18.11029,2.32484,-2.34936,-5.05363,-19.0,-3.3,-29.0,26.203575,-54.102634,71.404121,0.7645577467941843,0.422434,-0.24189,0.422481
3.4576,771.8365,11.84687,-3.39508,17.32018,3.1489,-2.65784,-4.8435,-23.2,-7.0,-29.6,32.510387,-56.440254,69.857292,0.769319541606503,0.46213201,-0.230966,0.37581399
3.4841,771.8565,10.87001,-2.01598,14.82296,3.42379,-2.42999,-4.73537,-22.7,-11.6,-26.9,39.176559,-59.651199,69.588837,0.7663497448805995,0.506235,-0.21882799,0.329467
3.4983,771.8765,8.77981,-0.90025,12.30897,3.09942,-1.95229,-4.33037,-23.1,-16.4,-25.8,45.730679,-63.015083,70.158745,0.7595879825897192,0.54785502,-0.203684,0.28529599
3.5175,771.8965,6.01921,0.01915,12.11982,3.04749,-1.89732,-3.44645,-25.8,-19.0,-24.3,51.482174,-66.493492,71.297882,0.7509273311020045,0.58297098,-0.18960699,0.245565
3.5404,771.9165,2.94256,0.20591,13.54202,4.4983,-2.15938,-2.23877,-25.6,-22.3,-19.6,56.240688,-71.777496,74.486389,0.736029882237073,0.61687702,-0.180489,0.212477
3.5568,771.9365,0.74223,-0.3352,13.56357,6.09877,-2.53017,-1.06774,-25.3,-25.8,-14.9,59.650421,-82.261093,83.15918,0.7059169615451805,0.65894401,-0.17825,0.18894701
3.5774,771.9565,-1.30488,-1.55628,10.69523,7.26491,-3.82643,-0.15694,-25.7,-26.7,-11.4,60.560646,-98.284286,97.398415,0.6593679526063726,0.70839202,-0.183274,0.1727
3.6018,771.9765,-2.85398,-2.43977,6.10061,7.22093,-4.93209,0.95545,-27.5,-28.5,-4.9,58.12851,-111.174835,107.832832,0.6148256922093935,0.74446201,-0.202829,0.163175
3.6193,771.9965,-3.03594,-2.86834,3.8045,6.22216,-4.01396,2.12037,-29.3,-27.7,0.6,53.950436,-119.833046,113.486053,0.5732013345561395,0.76954502,-0.232761,0.15831301
3.677,772.0165,-3.23945,-3.87394,4.67602,6.65649,-2.10501,3.07515,-29.7,-25.8,4.2,49.007355,-123.375237,115.222107,0.5395069312381445,0.781829,-0.263004,0.168833
3.69,772.0365,-2.69356,-5.33923,4.86277,7.2081,-1.04821,4.01099,-32.0,-22.6,8.6,42.456757,-123.891502,116.514091,0.502388770107493,0.78916198,-0.28796801,0.204703
3.6922,772.0565,-1.2115,-6.59383,4.56109,7.6583,-1.1264,4.24435,-34.6,-16.8,10.2,33.909245,-123.064079,117.942177,0.45470070590800643,0.79220402,-0.31433299,0.25856301
3.7046,772.0765,0.8787,-7.64013,3.99126,8.21969,-1.34143,3.89615,-36.1,-12.7,12.9,23.286289,-122.586746,120.630836,0.38675702150445834,0.794312,-0.341203,0.321042
3.7223,772.0965,2.60258,-9.02881,2.67201,8.66257,-1.70367,3.18694,-36.7,-7.0,18.3,11.5727,-122.982201,125.367752,0.2966312959473409,0.79885697,-0.35844499,0.38125399
3.74,772.1165,4.24026,-10.69523,1.087,8.7206,-1.47154,2.63655,-37.0,-1.7,19.3,-0.004359,-123.540237,131.443436,0.19445955119561478,0.803128,-0.362279,0.43119001
3.7593,772.1365,6.66087,-12.26348,-0.37111,8.74992,-1.21437,1.93772,-37.1,4.0,20.0,-10.812152,-123.092392,138.686951,0.08982513305962768,0.80318499,-0.35077399,0.473057
3.7828,772.1564,8.61221,-13.61624,-2.8013,8.62164,-0.92054,0.89986,-35.9,8.3,20.4,-20.129047,-121.329308,147.120346,0.009678402342279289,-0.79903001,0.325037,-0.50577497
3.7966,772.1764,10.2475,-14.4279,-5.32966,7.62226,-0.79837,0.17965,-36.2,13.2,19.6,-27.409853,-118.177597,156.627274,0.09797247977283707,-0.79160601,0.28802201,-0.52991003
3.8171,772.1964,11.92588,-14.9714,-5.79175,6.50988,-0.7269,-0.66029,-35.7,17.5,18.8,-32.351379,-114.371071,166.059906,0.16925095312694446,-0.78287297,0.247803,-0.54503
3.8401,772.2164,13.61864,-15.98657,-4.82925,6.20811,-0.35427,-1.60286,-36.3,18.8,15.6,-34.261246,-110.390648,175.210663,0.21885618854311314,-0.77696502,0.200763,-0.55508697
3.8609,772.2364,14.90197,-17.2316,-3.61775,6.05784,0.493,-2.54725,-38.4,19.0,14.8,-34.439163,-105.526283,-175.229996,0.25953920155086213,-0.76725101,0.147333,-0.56767797
3.8819,772.2564,16.05361,-18.43831,-2.45653,6.17451,1.18572,-3.36032,-38.9,19.0,13.0,-32.88398,-99.738441,-165.524643,0.2925689822632589,-0.75045002,0.088592,-0.58598602
3.8987,772.2764,17.41117,-19.54686,-1.68557,6.32967,1.52109,-4.23752,-35.2,16.7,12.5,-29.655193,-93.671501,-155.785431,0.321216818030812,-0.72614199,0.023282,-0.60745001
3.9169,772.2964,18.38085,-20.34655,-1.30249,6.31562,1.91998,-5.16237,-37.5,14.5,7.0,-24.627604,-88.052498,-146.537613,0.3441772178735819,-0.694399,-0.04862,-0.63006997
3.9398,772.3164,18.87167,-20.69372,-0.80687,6.17635,2.34087,-5.95344,-42.1,12.0,4.5,-17.946741,-83.103661,-138.38858,0.35927548693613864,-0.653916,-0.123606,-0.65424502
3.9586,772.3364,18.61549,-20.68175,-0.43097,6.07616,2.77458,-6.63211,-39.5,4.8,4.0,-9.886264,-78.814117,-131.386169,0.36671447361613624,-0.60380399,-0.199662,-0.67902601
3.9793,772.3564,18.0241,-20.2412,-0.20112,5.91612,3.29626,-7.08965,-43.8,0.8,-1.2,-0.7851,-75.019737,-125.534363,0.36669843750798714,-0.54387897,-0.27379701,-0.703394
3.9974,772.3764,17.61947,-19.45588,-0.249,5.66811,3.80389,-7.43906,-37.9,-6.8,-1.3,9.022148,-71.371834,-120.610603,0.36125886334026336,-0.47352001,-0.343573,-0.72610497
4.0232,772.3964,17.36328,-18.24677,-0.64167,5.39444,4.00731,-7.91248,-35.3,-13.7,-2.9,19.355745,-67.685722,-116.821358,0.3491332792133396,-0.39450499,-0.40651301,-0.74647099
4.0399,772.4164,16.96823,-16.82696,-1.8412,4.65102,4.2486,-8.39385,-31.5,-21.1,-5.4,30.231274,-63.707352,-114.385223,0.32862651377982227,-0.30821699,-0.46221799,-0.76378101
4.059,772.4364,15.77109,-15.21801,-3.30889,3.60705,4.95354,-8.72066,-26.2,-27.4,-6.2,41.167027,-58.480492,-114.206261,0.29947278019452583,-0.217345,-0.50594997,-0.77916098
4.0815,772.4564,13.54681,-13.73595,-4.31209,2.51238,5.64992,-8.72249,-20.1,-35.4,-11.0,51.504723,-49.588806,-117.814064,0.2662318530657425,-0.119752,-0.53282499,-0.79427803
4.0995,772.4764,10.93226,-12.39516,-4.75264,1.75979,5.66153,-8.52457,-13.2,-38.9,-9.6,60.158558,-34.762764,-127.40789,0.2316176970003792,-0.019855,-0.54333401,-0.80668902
4.1192,772.4964,8.60263,-10.59706,-5.25304,1.06707,4.74768,-7.92226,-6.3,-41.0,-9.7,65.735001,-12.637819,-144.774414,0.19567565969547523,0.075102,-0.54208899,-0.81376302
4.1496,772.5164,7.36479,-8.84685,-6.01442,0.01516,3.34635,-7.97235,-1.8,-40.6,-11.8,66.658051,13.094355,-166.725739,0.1581728267280411,0.157721,-0.53119397,-0.81727499
4.168,772.5364,6.10061,-8.42306,-5.91865,-1.19802,1.69274,-8.12568,4.7,-40.7,-13.6,62.591488,34.016491,174.559647,0.1130015456292511,0.22609299,-0.508039,-0.82341301
4.1866,772.5564,4.16125,-8.66009,-4.79094,-2.54314,0.96703,-8.01328,10.0,-38.1,-13.6,55.293755,45.666012,163.825638,0.0634359714849471,0.28016001,-0.47176501,-0.83362103
4.2049,772.5763,2.87074,-8.6577,-1.3384,-3.06605,0.81431,-7.84895,15.4,-35.7,-14.3,45.417919,47.62611,161.32196,0.016882121994565194,0.310204,-0.40894401,-0.85805202
4.2177,772.5963,3.24424,-8.37517,0.59617,-2.49366,0.25843,-7.95769,19.9,-32.0,-20.2,32.308372,49.022736,158.739517,0.04778707445094081,-0.34495601,0.32231501,0.880247
4.2402,772.6163,4.40786,-8.88037,0.00239,-2.85346,-0.55586,-8.54351,24.1,-26.4,-19.3,19.143311,49.80669,155.556061,0.1209147443419516,-0.373887,0.235305,0.88894302
4.2609,772.6363,4.62095,-10.47495,-0.36154,-4.02022,-1.40862,-8.91675,28.6,-20.4,-22.3,5.239566,48.77993,152.40799,0.19863116396582808,-0.39068601,0.138798,0.88805699
4.2785,772.6563,4.88911,-12.07193,1.23545,-4.85955,-2.56927,-8.94301,29.2,-12.8,-25.9,-9.288383,45.9697,149.536911,0.27157813222801913,-0.39511701,0.030331,0.87704498
4.2991,772.6763,4.70236,-13.27625,5.1022,-4.63902,-3.9541,-9.09145,28.7,-4.3,-27.7,-23.555342,40.517448,145.943207,0.33652467182386475,-0.38018599,-0.083827,0.85742801
4.321,772.6963,3.98168,-14.10946,6.00484,-3.97257,-5.10925,-8.43233,25.5,3.8,-31.8,-36.02562,31.477766,139.626526,0.394593414589042,-0.34482199,-0.190337,0.83016002
4.3442,772.7163,4.30491,-14.35607,6.35201,-4.43438,-6.71216,-7.58384,18.7,14.8,-32.4,-45.874489,18.121685,130.506958,0.4364353915167053,-0.292817,-0.288807,0.80023301
4.3669,772.7363,5.90428,-14.90436,8.43264,-5.14543,-6.13306,-7.02978,12.8,20.5,-34.0,-53.246792,0.654983,118.628853,0.4584126996938019,-0.23308,-0.382765,0.76747799
4.3947,772.7563,6.18681,-15.72081,13.49892,-4.70194,-3.98648,-6.82637,6.3,25.5,-33.1,-57.822117,-18.68762,103.387268,0.47381957641108463,-0.184173,-0.46243301,0.72645098
4.4065,772.7763,6.27539,-16.18769,17.53567,-2.02269,-2.03293,-5.98582,1.9,28.8,-33.4,-58.496296,-37.417793,86.56498,0.49416181773348294,-0.145016,-0.52101701,0.680673
4.4186,772.7963,8.50686,-16.21642,18.10072,-0.48086,-1.11235,-5.80011,-1.5,29.8,-33.4,-55.196365,-48.87014,75.639694,0.519848409143934,-0.108387,-0.54821301,0.64612103
4.4452,772.8163,11.16929,-16.25952,17.21962,0.45315,-1.4184,-6.47267,-5.0,29.9,-33.4,-49.959328,-55.855076,68.792557,0.5491244891754327,-0.068046,-0.56109101,0.615637
4.4574,772.8363,12.03602,-16.45585,16.60669,0.81906,-1.96573,-7.07071,-9.2,29.5,-32.8,-43.097214,-61.274673,64.070435,0.5791253785840322,-0.016477,-0.56943703,0.58316702
4.4826,772.8563,11.75589,-16.02967,17.10949,1.16847,-1.7617,-6.89234,-14.5,27.7,-33.1,-35.411381,-65.769989,60.77058,0.6065766694834205,0.04131,-0.57537198,0.54708803
4.5005,772.8763,12.81655,-15.08633,17.94988,1.74818,-1.13679,-6.75917,-18.1,23.6,-30.7,-27.631371,-68.580902,58.99342,0.6320573218373462,0.097651,-0.57331997,0.51212502
4.5189,772.8963,15.29942,-14.3441,18.90041,2.74695,-1.46605,-7.67364,-16.3,19.1,-32.8,-19.410704,-70.222267,58.398209,0.6565665858998,0.156194,-0.56216902,0.47800601
4.5402,772.9163,16.36726,-14.23396,19.60193,3.88377,-1.77575,-8.9424,-19.6,14.7,-31.6,-9.611497,-71.975883,58.806946,0.678262791676677,0.228424,-0.54340202,0.43874401
4.5617,772.9363,14.55719,-14.21242,18.61788,4.77197,-1.6267,-9.23684,-25.5,8.5,-32.8,1.747124,-73.892288,60.32962,0.6955002890463233,0.31252801,-0.51348698,0.39362001
4.5768,772.9563,11.58111,-13.42709,16.05601,4.72004,-1.1264,-8.5936,-21.6,-0.6,-30.8,13.257598,-75.993126,63.034859,0.7044541617206755,0.39721599,-0.47373599,0.34862301
4.599,772.9763,9.02402,-11.56674,13.31696,4.01144,-0.744,-7.60278,-21.9,-10.8,-29.0,23.733303,-78.133469,66.269897,0.7071007985362622,0.47082201,-0.42919201,0.30680501
4.6188,772.9962,6.98889,-9.00726,11.56674,3.39508,-0.53448,-6.72252,-20.3,-15.4,-26.4,32.870831,-80.441689,69.678703,0.7054637572841284,0.53113598,-0.384918,0.268428
4.6443,773.0162,5.41824,-6.34483,10.75987,2.92593,0.02263,-5.76529,-18.6,-20.0,-26.7,40.761181,-82.87989,73.236664,0.7015046328289214,0.57960099,-0.34222901,0.234165
4.658,773.0362,4.30012,-3.83563,10.51087,2.95403,0.50277,-4.96384,-16.0,-23.7,-26.4,47.411007,-85.27784,77.221542,0.6962682137138675,0.618137,-0.30008501,0.207524
4.6837,773.0562,2.52835,-1.82683,10.72156,3.2894,0.45635,-4.34503,-16.3,-26.5,-26.3,53.109619,-88.469742,82.427895,0.6876010759265572,0.65209597,-0.258371,0.18767001
4.7031,773.0762,1.2139,-0.38787,10.98733,4.16354,-0.05495,-3.50692,-14.3,-29.6,-25.1,57.744053,-93.908836,89.694435,0.6726432741296084,0.68499398,-0.221301,0.17134801
4.7196,773.0962,0.35435,0.45731,10.77663,5.24783,-1.10197,-2.98586,-12.8,-33.7,-20.7,59.739178,-97.508087,95.495216,0.6615903320206088,0.70338798,-0.19536901,0.17139
4.7422,773.1162,-0.8763,0.59857,9.49809,6.30402,-1.54301,-2.39637,-10.2,-35.0,-18.9,60.991581,-103.979248,103.440582,0.642590879595112,0.72653598,-0.175267,0.16883101
4.7592,773.1362,-2.00401,0.32083,7.59464,6.74934,-0.10809,-1.18319,-13.1,-37.3,-15.1,61.003311,-112.028954,113.125023,0.6165932283088259,0.75252199,-0.156911,0.17000701
4.7786,773.1562,-3.48367,-0.54111,6.17962,6.73834,2.32804,0.57671,-12.8,-38.1,-10.4,59.407333,-117.073555,121.777611,0.5898369849525203,0.77312899,-0.13448501,0.190467
4.799,773.1762,-5.92583,-2.27217,5.13811,7.70351,1.51131,2.66892,-13.1,-39.3,-6.5,56.022743,-117.912643,128.388565,0.5604478535557431,0.78640598,-0.111239,0.234712
4.8175,773.1962,-7.08945,-4.5156,1.86753,8.1586,-1.41046,4.54489,-15.8,-37.8,-1.6,50.47057,-119.418404,134.298721,0.5164189285106415,0.80327803,-0.105149,0.27748799
4.843,773.2162,-5.35839,-6.8165,-0.05986,7.59539,-1.69023,5.56259,-19.3,-35.6,5.7,43.664589,-121.678795,138.29129,0.46450321389527444,0.82202703,-0.11924,0.30706701
4.8684,773.2362,-2.16203,-8.36799,0.83081,7.84951,-0.05556,5.55709,-22.8,-30.4,11.3,34.322292,-121.062737,140.531052,0.40051733332264017,0.83201897,-0.14425901,0.35569599
4.881,773.2562,0.46449,-9.52203,1.14925,8.95395,0.71047,5.0232,-26.8,-22.5,17.8,19.99758,-121.439873,145.53476,0.2873372726683034,0.84558803,-0.173372,0.41516301
4.9023,773.2762,2.15006,-10.08947,-0.65124,9.13232,0.36411,4.35613,-29.2,-16.7,19.1,5.755511,-121.365929,152.179306,0.1600594573581941,0.85119498,-0.185487,0.464158
4.9201,773.2962,3.53874,-9.8692,-2.94017,8.83117,-0.77821,3.37692,-30.7,-9.4,21.9,-7.161727,-120.829765,159.172607,0.03567506172243907,0.84805501,-0.187209,0.494452
4.938,773.3162,4.70954,-9.87638,-5.33684,8.38707,-2.14472,2.32317,-31.1,-3.4,24.2,-18.109438,-120.514221,166.718338,0.07908742790822718,-0.84265798,0.17671099,-0.50243998
4.9573,773.3362,6.05273,-10.02243,-7.06311,7.58989,-2.32065,1.48751,-30.6,2.4,25.5,-26.989588,-120.454445,174.614639,0.17965007245937545,-0.83766103,0.15539999,-0.49183401
4.9878,773.3562,8.08068,-10.29059,-7.33845,6.78477,-1.2669,0.45759,-28.8,7.3,26.8,-33.806561,-119.32872,-177.426254,0.261741062578381,-0.82888299,0.128268,-0.477485
4.9964,773.3762,9.44063,-11.1238,-5.82048,6.50805,-0.48805,-0.84783,-28.6,11.3,24.8,-38.31641,-116.121284,-169.008713,0.3250762693122954,-0.814551,0.096045,-0.470752
5.0174,773.3962,10.04398,-12.65853,-4.98727,6.8935,0.19306,-1.7794,-30.0,14.6,22.8,-40.704674,-110.893982,-159.246094,0.3775426583515816,-0.79508603,0.054942,-0.47146699
5.0384,773.4161,10.60664,-14.45184,-5.17403,6.64549,1.46611,-2.26565,-31.0,18.0,21.6,-41.340054,-103.710106,-148.351364,0.4246718491877223,-0.76739198,0.009109,-0.48029199
5.0597,773.4361,11.29619,-16.12305,-4.71433,6.33273,1.97007,-2.70974,-32.4,20.1,19.3,-39.874207,-95.022987,-137.514267,0.46442564425530936,-0.72956502,-0.036499,-0.50071102
5.0832,773.4561,12.06475,-17.35131,-4.04632,6.28691,1.44961,-3.00235,-35.7,21.5,15.2,-36.796425,-87.112068,-127.635201,0.4985835184800825,-0.68767703,-0.083234,-0.52113998
5.1009,773.4761,13.30259,-17.8589,-3.19875,6.06089,1.13929,-3.46355,-36.3,21.9,14.0,-32.517784,-80.908211,-118.871552,0.5278801108698641,-0.644678,-0.13329899,-0.536623
5.1231,773.4961,14.59071,-18.19409,-1.78373,5.8196,1.36654,-4.21308,-38.1,20.8,10.5,-27.054276,-76.170486,-111.430908,0.5502858982362888,-0.59922802,-0.185707,-0.55102098
5.1418,773.5161,15.71123,-18.70886,-0.42618,5.89596,2.16799,-5.19902,-41.3,18.3,6.8,-20.343925,-72.206757,-105.262978,0.5653757480082068,-0.54754299,-0.23861299,-0.56886798
5.1606,773.5361,16.55641,-19.42236,0.2921,6.20017,3.35124,-6.2888,-42.7,13.9,1.6,-12.053586,-68.014053,-100.15081,0.5741080298681771,-0.48240501,-0.29021201,-0.59452701
5.2113,773.5561,17.42553,-19.83896,-0.04549,6.30524,3.89246,-7.18494,-44.7,8.7,-1.7,-2.32141,-63.556202,-95.985542,0.5767140115300649,-0.40276301,-0.33956599,-0.62440199
5.2162,773.5761,18.00255,-19.78629,-1.19235,5.90879,4.63711,-8.03649,-45.0,2.0,-4.6,8.524307,-59.004993,-93.139275,0.570097068421545,-0.31217399,-0.38459101,-0.65545899
5.2205,773.5961,17.28906,-19.13026,-2.74144,5.11405,5.43673,-8.6614,-44.2,-5.9,-8.8,19.997534,-53.438255,-92.255508,0.5533705303386325,-0.21171699,-0.41867599,-0.68823498
5.2367,773.6161,15.86925,-17.88523,-3.54353,4.31504,5.57112,-8.93629,-40.0,-13.0,-13.7,31.248335,-46.024513,-94.015778,0.527429363560126,-0.10634,-0.43804401,-0.72015798
5.2568,773.6361,14.48776,-15.96263,-4.21153,3.58872,4.86924,-9.11161,-36.2,-21.7,-14.5,41.564854,-36.43008,-99.033249,0.49221059749678236,-0.003465,-0.44608501,-0.74747902
5.2794,773.6561,11.94504,-14.16932,-5.49247,2.49283,4.17041,-9.06091,-29.7,-28.0,-18.5,50.15662,-23.567934,-108.706223,0.44638207349538567,0.091501,-0.444976,-0.77095199
5.2997,773.6761,8.69361,-12.24911,-5.68161,0.90885,3.23762,-8.39751,-24.4,-32.1,-17.1,55.176754,-6.914626,-123.186646,0.3963029720380607,0.172903,-0.43204001,-0.791448
5.3199,773.6961,6.35441,-9.93863,-3.79253,-0.2469,1.68541,-7.90149,-17.5,-36.4,-18.4,55.565384,10.18224,-139.214706,0.345838566233206,0.235369,-0.40782601,-0.81158799
5.3456,773.7161,5.06389,-8.37517,-0.41421,-0.68306,-0.00669,-8.01083,-13.0,-37.8,-18.5,52.462635,23.314077,-153.176071,0.2906465918454573,0.27670899,-0.379035,-0.83384001
5.3579,773.7361,4.00802,-7.63055,1.31925,-0.82967,0.39587,-7.93203,-7.1,-39.2,-21.8,47.438305,32.53487,-164.587936,0.2295150435725272,0.305922,-0.34827399,-0.85582697
5.3787,773.7561,3.1796,-7.1948,1.81247,-1.42771,1.96457,-7.68219,-2.0,-39.3,-20.3,38.821072,35.77459,-170.603043,0.17525874285267334,0.314621,-0.29147899,-0.88619298
5.4006,773.7761,2.31287,-6.7734,1.82683,-1.80583,3.17592,-7.54719,8.9,-36.7,-22.7,28.595892,39.325481,-175.501862,0.11885463626547776,0.33493599,-0.21958899,-0.90855497
5.4228,773.7961,1.25699,-6.51482,1.65684,-1.99276,2.69211,-7.62843,14.0,-34.3,-23.3,17.609238,43.0858,-179.915421,0.05690367888053464,0.36297601,-0.142105,-0.91913903
5.4495,773.816,0.39506,-6.49327,1.16841,-2.31163,1.14113,-7.65531,17.9,-30.3,-23.4,6.212148,45.276714,175.968231,0.011658028769895124,-0.38235101,0.063499,0.92175901
5.4598,773.836,0.67997,-6.68003,1.07264,-3.00618,-0.06472,-7.78481,21.2,-24.8,-25.7,-5.39824,45.103283,172.10463,0.08154298212868502,-0.385176,-0.017013,0.91907603
5.4787,773.856,0.21309,-7.43662,1.34079,-3.83818,0.1051,-7.9864,24.5,-19.4,-28.1,-17.302193,43.400276,168.267883,0.14921278964673082,-0.37791201,-0.101666,0.90806502
5.4971,773.876,-1.35755,-7.93702,3.39269,-4.36719,-0.59984,-7.47022,26.6,-12.0,-29.3,-29.297396,41.178455,164.389069,0.21111599233473516,-0.369234,-0.188338,0.88522601
5.5187,773.896,-1.17319,-7.61619,6.0216,-3.9292,-2.19542,-6.69259,25.1,-6.4,-30.8,-40.165386,37.060459,160.302536,0.2598425044466738,-0.34977201,-0.26972201,0.858715
5.5397,773.916,-0.4621,-7.61619,7.79336,-3.53947,-2.93701,-6.42014,24.6,0.5,-32.3,-48.981026,29.665335,154.601761,0.2969151654473699,-0.315359,-0.33971399,0.83485597
5.557,773.936,-1.01517,-7.66647,9.12937,-3.4906,-3.73907,-5.6474,22.9,6.7,-34.1,-55.941021,19.059114,146.33165,0.3265673377798819,-0.27390599,-0.400379,0.81118798
5.5791,773.956,-0.25379,-7.37437,10.93944,-3.38308,-4.747,-4.81845,22.9,11.0,-30.5,-60.938976,5.665126,136.413284,0.3428658941811795,-0.227577,-0.45445001,0.79001701
5.5974,773.976,1.61135,-7.20198,14.11664,-2.85224,-3.93638,-4.74698,18.8,15.3,-29.0,-63.827324,-9.924127,124.737564,0.35169097290669815,-0.179205,-0.50064701,0.770423
5.6173,773.996,3.50522,-7.79336,18.34254,-0.94329,-3.27421,-5.15015,14.7,18.6,-31.7,-63.852257,-25.31748,112.032219,0.3667797113420526,-0.13418099,-0.53180498,0.75143301
5.64,774.016,4.98967,-9.2826,21.1175,1.55026,-4.30901,-5.68649,10.9,20.4,-31.7,-60.454449,-38.466141,101.396973,0.38840713344370903,-0.080827,-0.548105,0.73633403
5.6579,774.036,6.79016,-10.43904,20.44232,3.08781,-4.75128,-6.10432,6.5,19.1,-33.5,-54.197853,-48.579956,95.486092,0.406950845510634,-0.008169,-0.55355901,0.726565
5.6794,774.056,8.60263,-11.17408,18.54845,3.01634,-4.14102,-6.65899,-1.9,15.9,-33.2,-46.352074,-55.790977,92.99398,0.4257482912318958,0.07253,-0.54837298,0.71607602
5.7049,774.076,9.66808,-11.37041,17.3561,2.72312,-3.31758,-7.10125,-5.1,13.2,-34.4,-37.98344,-61.346027,91.384827,0.4492796950609491,0.14967,-0.53723699,0.69794202
5.7305,774.096,10.40791,-11.18126,16.48458,2.8117,-3.07262,-7.33705,-8.9,10.0,-34.1,-29.243135,-65.580627,90.338417,0.47652947450162936,0.22202501,-0.51994503,0.673262
5.7474,774.116,11.29858,-10.56115,15.91474,2.93387,-3.6615,-7.73655,-11.5,5.6,-34.7,-20.14311,-69.357986,90.058823,0.501842264497919,0.29469499,-0.49766701,0.64314598
5.7593,774.136,12.56515,-9.70878,15.9746,3.21426,-3.86736,-8.3126,-14.2,1.5,-33.2,-10.517588,-73.616241,90.449181,0.5225639699593524,0.37183601,-0.47230601,0.60464197
5.7771,774.156,12.48375,-9.03599,15.5556,3.54962,-3.22778,-8.8972,-15.7,-4.8,-33.2,-0.155802,-77.760796,91.740051,0.541418369923703,0.44980001,-0.43781701,0.55934101
5.7968,774.176,10.69523,-7.98251,14.43508,3.83307,-2.97672,-8.63025,-16.6,-10.5,-30.3,10.570528,-81.585464,94.030556,0.5580082569569725,0.52344602,-0.39252901,0.51044297
5.8214,774.196,8.82051,-6.45975,12.06715,3.62293,-3.0262,-8.1104,-15.8,-16.1,-27.7,20.723114,-85.920761,97.51313,0.5667597610208397,0.59084398,-0.34298199,0.460489
5.8399,774.2159,7.1493,-4.71672,10.42228,3.03467,-2.75008,-7.59544,-14.5,-20.4,-25.6,29.974226,-91.112701,101.723167,0.5701352283693575,0.64920598,-0.29486001,0.40808699
5.8573,774.2359,5.33684,-2.93538,9.18683,2.81537,-1.97734,-6.93999,-13.7,-25.4,-24.1,38.239891,-96.760948,106.627052,0.571277576523777,0.696392,-0.24753,0.35694399
5.8779,774.2559,3.81408,-1.11334,7.7766,2.58873,-1.47093,-6.31079,-11.1,-28.3,-23.2,45.348557,-102.861618,112.670006,0.5697478249845975,0.73366702,-0.19988,0.31171799
5.8967,774.2759,2.54751,0.49801,6.88833,2.40364,-1.19726,-5.7543,-7.3,-30.4,-21.4,50.304703,-105.937073,116.957962,0.5742466200886506,0.74981397,-0.159584,0.28731999
5.9168,774.2959,1.34798,2.01119,6.02878,2.64554,-1.04516,-5.05241,-5.0,-32.6,-21.1,54.385185,-107.94548,120.424896,0.5806489033653294,0.75783402,-0.124092,0.27043599
5.9455,774.3159,-0.04789,3.3041,4.21871,2.46656,-0.75439,-4.5515,-1.8,-35.4,-17.0,58.064987,-110.09314,124.138702,0.5860653536201231,0.763385,-0.09002,0.25625601
5.9596,774.3359,-1.22347,4.55391,2.52117,2.0414,-0.38787,-3.87222,0.4,-36.4,-17.3,61.645512,-111.736267,127.417419,0.5936786607217401,0.76464403,-0.057095,0.244142
5.9959,774.3559,-2.47568,5.58105,2.06626,1.6425,-0.14535,-3.22837,3.0,-37.0,-15.5,65.275726,-112.660851,129.896317,0.6043160410732779,0.76151198,-0.025883,0.232877
6.0139,774.3759,-3.8045,6.24427,3.32325,1.92595,0.53515,-2.39454,5.1,-37.3,-13.5,68.340584,-116.450829,134.954117,0.6079477510068768,0.76301098,0.00377,0.21954399
6.0209,774.3959,-5.01122,6.36638,5.25064,3.05299,1.58889,-1.59003,5.9,-37.5,-12.6,70.902153,-120.497002,141.196121,0.6092458578790988,0.76268297,0.03654,0.21400701
6.0419,774.4159,-6.3975,5.76063,6.31131,4.57771,1.77337,-0.69878,7.7,-38.9,-6.7,72.227737,-127.327095,151.171143,0.6008060348250502,0.76629502,0.073021,0.21562
6.0601,774.4359,-7.25465,4.35997,6.11258,5.68277,1.95602,0.57732,6.8,-38.9,-6.7,71.386711,-136.852951,163.951447,0.57895017531361,0.77780801,0.107002,0.21995901
6.077,774.4559,-7.16128,2.2985,5.70077,6.52026,3.07207,1.95666,5.6,-40.0,-2.1,68.413818,-143.763229,174.230713,0.5465765181197955,0.79380703,0.135051,0.22996899
6.097,774.4759,-6.40469,-0.57941,5.36796,7.60088,4.06656,3.2914,4.2,-39.3,3.5,63.73275,-145.950302,-179.059235,0.502748303623672,0.81076699,0.161235,0.25279301
6.1195,774.4959,-5.63612,-4.48208,3.75662,8.88614,2.69395,4.45876,1.4,-39.0,12.2,57.457199,-145.806244,-174.21962,0.44583954844394275,0.82996303,0.18339001,0.28063601
6.1408,774.5159,-3.23706,-8.16927,1.41741,9.39072,1.13685,5.62246,-2.4,-35.8,15.8,49.658661,-147.045959,-170.242554,0.3793244862612743,0.85700899,0.19268499,0.29072499
6.1657,774.5359,0.68476,-9.92666,-0.5435,9.39988,1.47222,5.22906,-6.2,-30.0,22.1,40.266163,-150.044403,-166.933365,0.302743045486267,0.89098501,0.191578,0.278909
6.1796,774.5559,3.55071,-10.56354,-1.94415,9.15187,1.61882,3.97984,-9.7,-25.9,26.8,25.322174,-152.098633,-164.609665,0.17930895245017692,0.931301,0.179159,0.26158899
6.1985,774.5759,6.14371,-10.52284,-3.57226,9.03703,1.78681,3.01223,-14.4,-15.2,30.3,10.179894,-150.986572,-163.218933,0.04857292948464183,0.95073599,0.162696,0.259368
6.2171,774.5959,9.27781,-9.42387,-6.72552,8.72976,1.87355,1.63656,-15.7,-8.4,34.4,-3.433129,-148.783524,-160.84613,0.0732031036042857,-0.95061499,-0.152217,-0.260389
6.2452,774.6158,10.11581,-8.46137,-10.37439,7.20321,2.53146,-0.06592,-17.9,-2.9,34.5,-14.357048,-145.344177,-156.587158,0.17676851486353287,-0.93498403,-0.155726,-0.26515499
6.2572,774.6358,9.43344,-7.72633,-11.72237,5.17392,3.50518,-0.43427,-20.0,0.4,35.0,-21.509186,-140.314651,-151.493576,0.2522289874756268,-0.91125399,-0.166131,-0.27999499
6.28,774.6558,8.40869,-7.22113,-10.34566,3.81779,3.61696,-0.20398,-23.0,4.4,31.2,-25.911266,-134.340317,-147.098114,0.3052589377412881,-0.88606298,-0.170938,-0.30412099
6.2987,774.6758,7.57788,-7.16367,-7.32888,3.76709,2.62431,-0.17526,-25.1,7.0,29.8,-28.95447,-128.950867,-143.480209,0.3449648792537868,-0.86350101,-0.17147,-0.32552001
6.318,774.6958,7.1948,-7.42465,-4.38152,4.44088,1.75749,-0.12334,-27.2,9.4,28.3,-31.707169,-124.488762,-139.468338,0.38195780798009543,-0.84264898,-0.17551801,-0.33651799
6.3429,774.7158,7.78139,-7.92505,-2.59779,5.14582,1.5895,-0.2895,-28.4,11.8,25.4,-34.56274,-119.999428,-134.349152,0.42232866514673023,-0.81979197,-0.183883,-0.34024501
6.3594,774.7358,9.19162,-8.44221,-2.21231,5.58258,1.99451,-0.81056,-29.6,15.5,25.4,-37.063053,-114.440094,-127.843193,0.4656766502134288,-0.79165,-0.195875,-0.343611
6.3767,774.7558,10.67368,-8.87318,-2.91144,5.48118,2.72082,-1.56437,-30.5,17.7,22.2,-38.403511,-107.369659,-120.028839,0.5090607189530533,-0.75643998,-0.211596,-0.35196999
6.3975,774.7758,11.79899,-9.34485,-3.44057,5.14215,3.36712,-2.26748,-32.9,18.6,19.0,-37.989697,-99.474022,-112.146187,0.5471664997916446,-0.716102,-0.228167,-0.36843801
6.4203,774.7958,12.96739,-9.83329,-3.06228,5.01692,3.46119,-2.92782,-35.2,18.4,14.6,-35.955128,-91.680328,-105.022705,0.5789841883457265,-0.67230898,-0.244681,-0.391036
6.4457,774.8158,13.97059,-10.77424,-2.59539,4.99127,3.1521,-3.72195,-36.4,18.8,14.1,-32.259357,-84.28801,-98.429558,0.6064192804957471,-0.62261099,-0.265091,-0.41753799
6.459,774.8358,14.89718,-11.878,-1.82444,4.80495,2.96212,-4.19476,-38.2,16.1,9.4,-27.008802,-77.942337,-92.752411,0.627872727242233,-0.56794298,-0.29049,-0.44590601
6.4804,774.8558,16.36247,-12.06715,-1.00081,4.65346,2.91997,-4.67551,-39.6,12.3,4.6,-20.867977,-72.773888,-88.336357,0.6427552533018294,-0.51108903,-0.31690601,-0.47457799
6.5003,774.8758,18.25874,-11.30816,-0.34238,4.30588,3.02015,-5.50567,-41.2,8.3,3.3,-13.876043,-68.418785,-85.11097,0.650648015574949,-0.451033,-0.34355,-0.50517303
6.5257,774.8958,19.70488,-10.40552,-0.08619,4.01205,3.21379,-6.76467,-41.2,2.1,0.1,-5.849167,-64.570328,-83.284767,0.6490590576792375,-0.386693,-0.36998001,-0.54065299
6.5492,774.9158,19.56362,-10.06314,0.2514,3.57162,3.24189,-7.8911,-39.0,-3.2,-0.7,3.399729,-60.821289,-83.072685,0.6353106263901612,-0.316358,-0.39570099,-0.58285397
6.5618,774.9358,18.34493,-9.96497,0.69434,3.21731,3.32619,-8.44149,-36.7,-10.8,-1.8,13.360073,-56.894714,-84.481583,0.6092662662482959,-0.24233299,-0.419018,-0.62808698
6.5793,774.9558,16.25713,-9.60822,0.96489,2.94426,3.63224,-8.35597,-34.5,-18.5,-6.9,23.335482,-52.122986,-87.39653,0.574673827866573,-0.16590101,-0.436582,-0.67202902
6.5978,774.9758,13.44864,-8.42066,1.087,2.5979,3.87108,-7.97479,-29.8,-24.3,-6.2,32.650963,-45.81744,-91.771271,0.5367786134975755,-0.087971,-0.44593301,-0.71082598
6.6169,774.9958,10.70959,-6.64172,0.83321,2.14647,3.44653,-7.29062,-24.5,-28.8,-6.3,40.748081,-37.903538,-97.901321,0.49698314841762986,-0.013365,-0.448259,-0.74289501
6.6385,775.0158,8.82051,-4.66884,0.53871,1.43237,2.58888,-6.77444,-19.7,-33.2,-10.2,47.144756,-28.760635,-105.935944,0.45542398891700875,0.051583,-0.446338,-0.76857698
6.6642,775.0357,7.7383,-3.12453,0.82124,0.61808,1.43556,-6.55697,-15.6,-35.7,-8.5,51.211887,-19.299366,-115.487144,0.41321987193710763,0.099562,-0.44098601,-0.79048598
6.6762,775.0557,6.88354,-2.22189,2.14288,-0.1345,1.31828,-6.44457,-10.2,-38.2,-7.4,51.725822,-13.641247,-123.408249,0.3779127788308565,0.111218,-0.43203601,-0.81126899
6.6964,775.0757,6.17723,-1.78852,3.75901,-0.19987,1.51925,-6.40304,-4.8,-39.1,-11.3,51.078869,-7.949918,-131.696823,0.3410158538147158,0.118902,-0.41803899,-0.83355498
6.7297,775.0957,5.66485,-1.4653,4.31448,-0.20231,1.84362,-6.53193,0.4,-39.4,-8.7,49.78751,-2.062926,-140.122314,0.3021619755793896,0.12817299,-0.40121001,-0.85516101
6.7422,775.1157,5.29614,-1.45811,3.40226,-0.66229,2.16494,-6.87096,7.9,-39.0,-10.2,47.725525,4.09634,-148.882721,0.259070158650121,0.139927,-0.38070801,-0.87656403
6.7596,775.1357,4.28575,-1.7143,2.5499,-1.37395,1.75871,-7.05116,13.0,-37.1,-10.5,44.332851,10.07445,-157.748108,0.21052385198185725,0.15231,-0.35308701,-0.89878303
6.7788,775.1557,3.86436,-2.28653,2.30808,-1.97504,0.82226,-7.23076,18.6,-34.6,-12.0,39.531441,14.40003,-165.994705,0.1558988366776982,0.15797301,-0.31862599,-0.92153001
6.7966,775.1757,3.80211,-3.13889,2.23625,-2.50161,-0.08977,-7.55391,24.0,-30.5,-16.1,33.53373,16.621403,-173.876114,0.092253304070911,0.153446,-0.27764899,-0.94385099
6.8163,775.1957,3.19636,-4.51081,2.0495,-3.24136,-0.16368,-7.71029,28.5,-26.7,-14.7,26.450729,17.325378,178.280334,0.020065876077556687,0.14321201,-0.228347,-0.96278
6.8413,775.2157,1.64247,-5.6888,2.85158,-3.74044,-0.72934,-7.30467,32.4,-21.5,-17.3,18.193535,17.038826,170.649307,0.0562692806753376,-0.13304999,0.167761,0.97518599
6.8567,775.2357,1.24023,-6.33525,4.25223,-3.74838,-1.78492,-6.79155,32.1,-14.6,-20.9,9.539566,15.300407,163.415207,0.1314949810077141,-0.119391,0.100684,0.97893697
6.8767,775.2557,0.63688,-6.6896,6.07428,-3.6256,-2.07263,-6.43358,31.5,-9.8,-22.8,1.341741,12.194112,156.191238,0.20388180193180552,-0.10152,0.0333,0.97314799
6.898,775.2757,0.31844,-6.53637,7.64492,-3.00801,-2.80567,-5.79339,31.3,-4.2,-25.4,-5.810105,8.374996,149.008743,0.26967717609178515,-0.08378,-0.029225,0.95885402
6.9169,775.2957,0.10774,-6.36877,7.85801,-2.39287,-4.10376,-5.18864,30.4,1.3,-26.9,-11.259766,3.228121,141.948059,0.32690981116729956,-0.058468,-0.083568,0.93953598
6.9406,775.3157,0.81884,-6.53876,6.90748,-3.21265,-4.94981,-4.79463,27.6,6.0,-31.4,-15.421784,-3.465878,135.103699,0.3744731857372955,-0.023514,-0.13539401,0.91699803
6.9585,775.3357,2.84919,-7.2331,7.60422,-4.15644,-5.38108,-4.56433,22.6,10.7,-30.5,-19.710979,-11.150772,128.227997,0.41314447818519845,0.011744,-0.195052,0.88945401
6.9767,775.3557,5.83724,-8.37996,10.07271,-4.35986,-4.86612,-5.01515,19.1,16.0,-32.0,-23.828447,-19.741886,120.649551,0.44649785871392456,0.045042,-0.25975901,0.85506499
7.0003,775.3757,6.84763,-10.09187,14.59311,-3.77282,-3.52833,-5.95466,12.9,22.7,-32.9,-26.427139,-28.21641,111.738098,0.48363493055409007,0.072042,-0.31664899,0.81279802
7.0177,775.3957,6.43581,-11.55956,19.01294,-1.67694,-2.47153,-5.93695,8.2,25.2,-31.8,-26.415665,-35.485416,102.392326,0.526799321908238,0.094833,-0.35550499,0.76622802
7.042,775.4157,7.67365,-12.51009,19.4463,0.76041,-0.98591,-5.69443,4.3,26.1,-32.1,-23.054371,-40.499718,95.300171,0.5681553963723655,0.124337,-0.367017,0.72597402
7.0585,775.4356,9.43584,-13.44864,17.63623,1.18252,-0.61816,-6.2546,1.7,25.8,-33.3,-17.8265,-43.019947,89.985336,0.609832380586108,0.154166,-0.358087,0.69000798
7.0854,775.4556,10.46777,-13.94665,16.00812,1.42076,-1.18749,-6.81537,-1.5,25.2,-32.1,-11.703633,-45.009243,84.852386,0.6520549712195127,0.187351,-0.344605,0.64882302
7.1004,775.4756,10.29299,-13.94665,15.19167,1.39632,-1.48926,-7.03956,-5.0,23.6,-34.5,-4.87449,-47.151722,79.755424,0.6918180941026332,0.22629499,-0.33164901,0.60015601
7.116,775.4956,9.88596,-13.39836,14.95943,1.59547,-1.07448,-6.76955,-8.3,21.0,-34.2,2.17085,-48.852375,74.955246,0.7271969331220939,0.26525,-0.31761301,0.54767603
7.1391,775.5156,10.09426,-12.51487,14.6386,1.86791,-0.94742,-6.72496,-11.5,18.7,-33.7,9.260017,-49.635548,70.707146,0.7574629646578899,0.30182999,-0.298823,0.49583599
7.2005,775.5356,11.00169,-11.57632,14.52128,2.20328,-1.52102,-7.07926,-13.3,16.9,-32.8,16.63611,-50.095837,66.66169,0.7826269598860492,0.33969101,-0.27799901,0.44138601
7.2029,775.5556,11.63857,-10.63058,14.66972,2.58568,-1.94557,-7.63271,-16.2,12.6,-33.4,24.693054,-50.775589,62.566906,0.8018243321410867,0.38257399,-0.25762299,0.37992799
7.2049,775.5756,11.12141,-9.61541,14.65775,2.99129,-1.75804,-7.87828,-18.6,7.2,-35.2,33.502644,-51.24181,58.341686,0.8146520299462341,0.42874101,-0.23488,0.31201699
7.2166,775.5956,9.6202,-8.4494,13.63779,3.21059,-1.22903,-7.60705,-19.2,2.2,-32.3,42.707767,-50.813187,54.084084,0.8203272269945084,0.47462201,-0.20636199,0.24333499
7.2362,775.6156,8.13814,-6.73749,11.51646,3.04077,-0.86984,-6.9015,-19.2,-2.8,-32.0,51.582481,-49.23774,49.63348,0.8190252643788957,0.51644599,-0.174429,0.179041
7.2582,775.6356,8.02082,-4.86996,10.23792,2.49222,-0.95353,-6.52826,-17.9,-9.6,-33.7,59.563087,-46.148949,44.25082,0.8130072129591962,0.55142599,-0.14300799,0.120405
7.2765,775.6556,8.07828,-3.32325,10.68086,2.69075,-1.53629,-6.73657,-17.7,-13.9,-28.8,66.80645,-40.416698,35.999104,0.8038505016776437,0.58046502,-0.114615,0.061222
7.2986,775.6756,6.99847,-2.18358,11.25788,3.27901,-1.78614,-6.79704,-17.4,-18.6,-29.6,73.963219,-29.654167,22.131042,0.7874177566133875,0.60995299,-0.089008,-0.002864
7.3178,775.6956,4.56349,-1.35516,11.26746,3.83612,-1.6322,-6.36394,-15.7,-22.8,-26.7,80.140602,-4.274357,-6.383816,0.7621992286745899,0.64069301,-0.064312,-0.066549
7.3388,775.7156,2.16921,-0.61533,10.35524,4.23379,-1.40679,-5.39755,-14.0,-26.1,-25.2,81.457993,38.214401,-51.828865,0.7373937444791757,0.66295099,-0.046331,-0.12083
7.3579,775.7356,0.11014,0.36393,9.09585,4.38651,-1.12702,-4.52585,-12.6,-30.3,-22.9,79.064758,60.514149,-77.059616,0.7209436786443301,0.67218697,-0.038471,-0.164088
7.3802,775.7556,-1.53473,1.25699,8.18842,4.37735,-1.40801,-3.92292,-10.0,-33.4,-18.7,76.096931,72.636162,-92.094849,0.7031829287880927,0.680444,-0.033798,-0.203439
7.399,775.7756,-2.90426,1.76458,7.33127,4.85443,-1.59188,-2.86735,-7.3,-34.9,-15.8,73.114922,79.690842,-102.683296,0.683261757195586,0.687563,-0.035611,-0.243192
7.4177,775.7956,-3.90746,2.02556,6.53398,5.2069,-0.99385,-1.83987,-5.6,-36.9,-11.3,70.69165,85.638573,-112.382141,0.6596238999220386,0.69676602,-0.044099,-0.278332
7.4441,775.8157,-4.29054,1.91063,5.58345,5.36389,0.41542,-0.98527,-5.6,-37.7,-8.1,68.748192,92.184845,-121.926208,0.633463318196989,0.70994699,-0.053707,-0.30300999
7.4585,775.8357,-4.43899,1.41502,5.23628,5.57525,1.32805,-0.41595,-4.7,-38.4,-5.4,66.952209,99.676872,-131.075455,0.6064676512181169,0.72754502,-0.059846,-0.31510901
7.4792,775.8557,-4.73348,0.41182,5.60979,6.29485,1.95908,0.32381,-5.2,-39.1,1.0,64.98497,108.057007,-140.418564,0.5768230305211641,0.749138,-0.065774,-0.31896901
7.5006,775.8757,-5.27938,-1.43417,5.73429,7.54957,1.88455,1.13382,-5.5,-37.8,6.8,62.609898,117.902466,-151.07724,0.5410971695650048,0.77573198,-0.076698,-0.31554899
7.5189,775.8958,-5.65528,-4.04872,4.36237,8.80245,0.43924,2.16679,-7.0,-36.1,13.3,59.070183,128.054214,-163.445969,0.4934096022948271,0.80510998,-0.101038,-0.31326699
7.5497,775.9158,-4.61377,-6.34243,2.37991,9.13599,0.24377,2.91449,-9.6,-32.5,18.7,54.072281,136.136063,-176.145615,0.4326082011318082,0.83149803,-0.141895,-0.31831899
7.5623,775.9358,-2.6744,-7.89871,0.82363,9.16959,1.22237,2.91755,-11.0,-27.3,23.5,47.530136,142.284622,172.574905,0.3614050967912047,0.855829,-0.186059,-0.31988299
7.5776,775.9559,-0.6273,-8.77741,-0.4597,8.99182,2.06781,2.70069,-13.6,-21.0,26.9,38.928127,147.452026,162.827332,0.27683692076910504,0.88098699,-0.227457,-0.30900899
7.5973,775.9759,0.74941,-9.67048,-0.99362,8.85621,2.47404,2.17168,-15.7,-13.7,30.2,28.43302,152.059525,154.307831,0.18033331546921588,0.903974,-0.26695299,-0.28115299
7.6251,775.9959,1.7143,-10.56354,-1.22826,9.14271,2.42028,2.14602,-19.3,-7.1,33.3,16.674494,156.398605,146.635452,0.0778896706925853,0.91924298,-0.30643201,-0.23457401
7.6433,776.0159,2.92102,-11.4566,-1.56107,9.51472,1.57179,1.73613,-21.6,0.0,32.9,4.225008,159.759445,139.529785,0.02671738323862093,-0.92081398,0.34633699,0.17730901
7.6575,776.036,4.75982,-12.62741,-2.63849,9.98326,0.58096,0.82839,-22.0,7.5,33.6,-8.73781,161.213745,133.331512,0.13347338395283082,-0.90819001,0.37823099,0.119654
7.6799,776.056,7.05353,-13.52286,-5.56908,9.89651,1.05072,-0.25407,-22.4,15.3,32.4,-22.032633,161.314148,128.211014,0.23921794574847402,-0.88485599,0.395073,0.061008
7.7123,776.076,8.96895,-14.04242,-8.95459,8.58743,2.47648,-1.48985,-24.5,20.4,29.8,-34.700661,162.355194,124.674583,0.3289682173405813,-0.856628,0.39738801,-0.007152
7.7243,776.0961,9.87399,-14.1334,-10.36003,6.22644,3.73425,-2.5778,-26.6,23.8,25.4,-45.006657,166.630585,124.228973,0.38629739531073704,-0.83186799,0.38977501,-0.082737
7.7449,776.1161,9.83089,-14.44466,-9.01444,5.15926,3.64751,-2.82031,-28.7,24.8,21.8,-52.211685,173.002274,126.288643,0.41660044889462094,-0.81177002,0.380943,-0.149519
7.7582,776.1361,9.92906,-14.76789,-5.95217,4.84466,3.03725,-2.78122,-33.7,25.1,15.9,-58.125164,-178.738663,130.767014,0.43758472981028457,-0.792373,0.36893299,-0.21107601
7.7774,776.1561,10.67128,-15.22759,-2.30808,5.27593,2.25412,-2.79588,-34.4,25.4,12.7,-63.392132,-168.722244,137.856277,0.45785018176278963,-0.77154702,0.35260499,-0.266004
7.803,776.1762,11.81575,-15.44547,0.57702,5.73041,2.18265,-2.87712,-36.7,24.2,8.9,-68.296761,-155.053894,149.412064,0.4815362063619929,-0.74745601,0.330084,-0.31698099
7.8168,776.1962,13.43667,-15.19167,2.20273,5.84098,2.36897,-3.07749,-37.9,23.1,5.1,-71.820755,-134.319763,168.093307,0.5050147848513739,-0.71878898,0.30385301,-0.36874899
7.8371,776.2162,15.21801,-14.39917,2.75581,5.65467,2.51863,-3.56679,-39.4,20.1,0.1,-72.150047,-108.034256,-167.77713,0.5243426937052902,-0.68714201,0.274376,-0.42144799
7.8598,776.2363,16.12305,-13.47977,2.72708,5.22278,2.72877,-4.20453,-39.7,18.0,-0.1,-68.625603,-85.751137,-147.867294,0.5360915293279119,-0.65437502,0.241438,-0.47550699
7.8866,776.2563,16.08953,-12.65614,3.16044,4.7793,2.85216,-4.70178,-40.9,14.0,-3.0,-62.604275,-72.024071,-136.738937,0.5387343561877223,-0.621912,0.205483,-0.52987498
7.8983,776.2764,15.59152,-11.78701,3.66085,4.45493,2.73426,-5.03531,-40.3,8.8,-8.6,-55.491856,-63.897049,-131.485031,0.5331239395743163,-0.589261,0.167753,-0.58344603
7.9196,776.2965,15.0983,-11.00888,3.57465,4.18065,2.57972,-5.36395,-39.4,3.8,-8.0,-47.936749,-58.76363,-129.328766,0.520862475782389,-0.556674,0.128087,-0.63435799
7.9429,776.3165,14.51649,-10.47974,3.56508,3.71883,2.50641,-5.78728,-39.8,-1.8,-9.3,-40.148746,-55.332588,-129.018219,0.5018659802890204,-0.52448899,0.086715,-0.68229198
7.9592,776.3366,13.83651,-10.16848,4.099,3.4641,2.69334,-6.04507,-37.5,-7.8,-11.4,-32.263309,-52.823254,-130.111908,0.4749039249237677,-0.49239001,0.045425,-0.72798002
7.9921,776.3567,13.58033,-9.57231,4.18519,3.48854,2.5284,-6.37127,-29.6,-15.5,-12.4,-24.312197,-50.429638,-131.882294,0.44247674837670276,-0.45794901,0.004181,-0.771025
8.0056,776.3767,13.26189,-8.73192,4.06787,3.32849,1.89249,-6.89845,-28.4,-21.9,-12.8,-16.082293,-48.37534,-134.324768,0.4033893582092612,-0.423421,-0.039859,-0.81018698
8.0181,776.3967,12.52445,-7.80055,3.3041,2.88745,1.2352,-7.52764,-24.9,-27.8,-13.2,-7.58237,-47.024509,-137.602646,0.3554500778725469,-0.39306,-0.087416,-0.84351498
8.0446,776.4167,10.9155,-6.91467,2.10217,1.96199,1.18328,-7.83674,-19.8,-31.8,-12.7,0.870428,-45.888134,-141.892075,0.2978247640593376,-0.36618,-0.133872,-0.871373
8.0653,776.4368,8.25067,-6.10301,1.93936,0.88625,1.88455,-7.51725,-15.1,-35.4,-11.8,8.545928,-43.922806,-147.383255,0.23296763542166052,-0.33853301,-0.171046,-0.89546901
8.0808,776.4568,5.99048,-4.90587,3.71591,0.52218,1.34455,-7.33766,-7.9,-39.4,-12.4,13.882285,-41.320099,-153.589828,0.17067386450994687,-0.31514499,-0.19009501,-0.91401201
8.0996,776.4768,5.31529,-3.60817,4.099,0.7708,0.58219,-7.47938,-2.3,-40.2,-12.4,17.833696,-39.564564,-159.988022,0.10986824381166699,-0.303929,-0.20173,-0.92458701
8.1187,776.4969,5.63852,-2.98087,2.19794,-0.005,0.7178,-8.28206,3.6,-41.2,-12.1,21.761894,-37.788734,-166.937378,0.04496049832107851,-0.29562399,-0.21360999,-0.93002999
8.1438,776.5169,5.21234,-3.69676,0.02394,-1.36112,1.5779,-9.09878,10.2,-38.8,-12.1,25.037745,-34.544109,-175.706863,0.029425003468476266,0.281894,0.21769799,0.93395799
8.1721,776.5369,4.38152,-5.30571,-0.71349,-2.58713,1.41296,-9.66811,16.8,-37.1,-13.9,26.712494,-29.515818,173.396454,0.1129406096262943,0.26030001,0.208739,0.93590403
8.1795,776.5569,3.95774,-7.11818,-0.6704,-3.35804,0.58768,-10.15008,23.3,-31.1,-17.2,26.482769,-24.354912,161.051132,0.20428843219413934,0.23938701,0.187047,0.93057698
8.1983,776.577,3.07664,-9.55076,0.01197,-4.18087,0.05073,-10.38649,29.0,-24.5,-16.0,24.459099,-20.015505,147.766449,0.3025356366899933,0.221071,0.15326101,0.91439098
8.22,776.597,1.03672,-11.40393,1.31206,-4.75814,0.12831,-9.91062,32.3,-17.5,-21.0,20.46068,-16.45952,134.307907,0.4015784819337309,0.198063,0.107295,0.88769001
8.2464,776.617,-1.82923,-11.94743,3.14368,-4.72882,0.00553,-8.5991,33.8,-8.3,-19.3,14.79804,-13.585188,121.649834,0.49332706387401815,0.164747,0.054475,0.85236102
8.2606,776.6371,-3.36874,-11.28422,4.86996,-4.40445,-1.27484,-7.24236,33.0,3.2,-22.2,8.466507,-12.210513,110.784431,0.5696557053474836,0.128985,0.000171,0.81169897
8.2872,776.6571,-2.77975,-10.60903,6.25385,-4.16805,-2.39823,-6.30957,30.4,9.6,-22.0,2.367818,-13.041362,101.387672,0.6310474126574642,0.100856,-0.056038,0.76711601
8.3007,776.6771,-1.61374,-10.17088,7.47732,-3.88155,-2.8802,-5.97299,28.7,14.8,-24.9,-3.069733,-15.647426,92.915276,0.6795903934158573,0.080357,-0.112977,0.72037202
8.319,776.6971,-1.28812,-9.83329,8.84206,-3.51748,-3.92417,-5.42932,24.0,20.8,-22.9,-7.50559,-19.320324,84.820374,0.7188979629139027,0.06529,-0.167147,0.67155403
8.3396,776.7172,-0.05986,-9.25148,10.4127,-3.08987,-4.29252,-4.75675,19.6,24.9,-26.7,-10.904918,-24.340487,77.411842,0.7468494442269868,0.058749,-0.221853,0.62413597
8.358,776.7372,1.80049,-9.12458,12.06954,-2.57369,-3.86614,-4.69261,15.5,28.2,-25.9,-13.189,-29.655859,70.734146,0.766077598837141,0.056618,-0.271568,0.57980198
8.3777,776.7572,3.30889,-9.42387,14.53804,-1.91884,-3.92172,-4.93146,11.7,30.2,-24.1,-14.106496,-34.485641,64.342758,0.7829185706750346,0.05737,-0.31145301,0.53548503
8.4005,776.7773,4.86038,-9.52443,17.13582,-0.12656,-3.95654,-5.09762,6.3,32.5,-26.8,-12.646107,-39.852966,58.425694,0.7972468443472823,0.074953,-0.34619099,0.48880601
8.4187,776.7973,7.07269,-9.69921,17.6889,1.1361,-3.1612,-5.45375,1.2,31.7,-25.7,-8.464786,-44.979515,53.813263,0.8089034473238322,0.111825,-0.37103701,0.44215599
8.4417,776.8173,9.2443,-10.20919,17.17174,1.73413,-2.59492,-5.99314,-2.3,31.2,-28.4,-2.774197,-48.739864,50.126038,0.8206587998479513,0.15477,-0.38300601,0.394806
8.4599,776.8373,11.09028,-11.17647,16.80781,2.10493,-2.52284,-6.56308,-8.5,29.2,-27.2,3.994896,-51.615276,46.899311,0.831444787823088,0.20192701,-0.386666,0.34411401
8.4789,776.8573,12.75191,-11.94025,17.79904,2.81598,-3.02375,-7.01634,-12.9,26.6,-29.6,11.623102,-54.283516,43.966965,0.8382293751024117,0.25344899,-0.38712001,0.288571
8.499,776.8773,14.61226,-12.30897,18.819,3.84956,-3.30719,-7.78359,-17.3,23.0,-28.1,20.401779,-57.412937,41.880424,0.8366163534264076,0.31402501,-0.385993,0.229065
8.5274,776.8973,15.92432,-12.46459,18.46465,4.72004,-3.02375,-8.49647,-21.1,17.6,-28.7,30.64917,-60.843712,40.82658,0.8261092684236389,0.38392299,-0.37820101,0.164653
8.5478,776.9173,16.15896,-12.11742,17.03287,5.0212,-2.79284,-8.92591,-25.3,4.9,-28.4,41.949017,-64.551819,41.03767,0.8063775232350415,0.45821601,-0.360899,0.0977
8.5686,776.9373,15.05759,-11.05916,15.57236,4.95339,-2.67434,-8.86421,-25.7,-1.1,-27.2,53.629345,-69.063713,42.67593,0.7778739994765473,0.53023702,-0.33600599,0.029338
8.5833,776.9573,11.8756,-9.43584,14.37523,5.06763,-2.83927,-8.62597,-26.7,-9.7,-25.5,64.989388,-76.258247,47.13192,0.7407506481802223,0.59555298,-0.30838501,-0.038779
8.6039,776.9773,7.85322,-7.56351,12.62262,5.13971,-3.3359,-7.61255,-26.2,-17.2,-23.1,75.183258,-93.341141,61.457947,0.6941269874694683,0.65434802,-0.28156799,-0.103614
8.6183,776.9973,5.64331,-5.30332,10.68086,5.16536,-4.05367,-6.491,-25.7,-22.8,-17.2,80.383316,-140.113754,104.839569,0.6396726628935614,0.70332301,-0.26348999,-0.163489
8.6499,777.0173,4.84601,-3.32804,7.66886,5.05846,-4.02924,-5.89357,-25.2,-28.2,-16.3,76.418495,172.174927,148.402725,0.579189317022888,0.74282002,-0.25403801,-0.219597
8.6813,777.0373,3.25382,-1.63768,5.37754,4.17698,-3.38599,-5.25155,-22.2,-31.8,-10.0,69.05381,152.833221,163.748825,0.5180622563733047,0.77395999,-0.24496999,-0.26942
8.6868,777.0573,0.77575,-0.26098,6.13174,3.73716,-2.10196,-4.0732,-19.6,-34.6,-7.6,65.781769,143.544571,169.790237,0.49037737479792,0.77929199,-0.240153,-0.30750701
8.7038,777.0772,-1.39586,0.20351,8.9091,4.819,-1.28889,-2.6175,-17.6,-36.0,-2.9,63.762119,138.014786,172.912079,0.4733597832405915,0.77957201,-0.237854,-0.33410099
8.7203,777.0972,-3.25861,-0.47167,10.53241,7.01567,-1.30783,-1.20763,-17.6,-37.0,-0.8,61.114449,136.150208,171.930328,0.44783974189736603,0.78350198,-0.24556901,-0.353921
8.7488,777.1172,-5.20755,-2.06147,8.66009,8.38585,-1.0757,0.16987,-16.4,-36.1,6.5,57.048927,137.465149,166.627563,0.40488243561777254,0.79304099,-0.26736501,-0.36833701
8.7616,777.1372,-6.28258,-4.42941,6.70397,8.53429,-0.37321,2.3134,-17.3,-34.0,12.8,52.322819,139.878067,159.473389,0.35267240102951036,0.80266201,-0.299034,-0.37674201
8.7814,777.1572,-5.435,-7.47014,5.12375,8.94845,0.69825,3.97556,-19.0,-30.7,15.5,47.584366,143.759232,150.406525,0.2980247865543063,0.80875099,-0.343404,-0.37306401
8.798,777.1772,-2.75581,-10.29538,4.30491,8.99915,1.68785,4.75869,-24.0,-21.5,21.4,41.634865,148.624969,140.548935,0.23677895151651415,0.81466001,-0.39418399,-0.35338899
8.819,777.1972,0.2107,-12.20122,3.91943,9.57276,1.28957,4.62614,-26.4,-15.7,24.1,33.380333,153.229218,130.668396,0.16136768452586742,0.81908,-0.449303,-0.31811199
8.8377,777.2172,2.76299,-13.19485,2.73426,10.07367,0.19734,3.90898,-28.1,-7.2,26.5,22.086199,156.395645,121.008026,0.06436516791323868,0.81692398,-0.50712901,-0.26704401
8.8579,777.2372,5.29374,-13.31456,0.15802,10.28686,-0.49599,2.77277,-28.1,1.2,28.9,9.001615,157.703278,112.199821,0.04361503686849081,-0.80337501,0.55812699,0.20293
8.8809,777.2572,7.72633,-12.88359,-3.77577,9.61185,-1.03111,1.13993,-29.3,6.9,26.3,-4.476161,157.263901,104.817825,0.15048891442694115,-0.78094202,0.59149802,0.132713
8.898,777.2772,9.14852,-12.63938,-6.98889,8.00161,-0.67375,-0.3402,-28.5,12.2,25.5,-17.007616,155.877335,99.526871,0.2438890257105861,-0.75828397,0.60115099,0.064351
8.9276,777.2972,9.7447,-12.93387,-7.66647,6.4885,0.12159,-1.19174,-29.1,16.4,22.7,-27.673561,155.369034,96.408829,0.3122266855944246,-0.74123198,0.594212,-0.001322
8.9434,777.3172,9.97455,-13.60666,-5.80372,5.96438,0.40992,-1.95044,-29.4,18.7,23.0,-36.396942,155.890961,94.871178,0.35915112472191824,-0.72836697,0.58037502,-0.060472
8.9578,777.3372,10.17327,-14.83253,-4.23547,6.18978,0.70314,-2.42814,-31.1,21.0,21.0,-43.660542,155.898712,93.707634,0.39787077142298305,-0.71545702,0.564188,-0.107294
8.9779,777.3572,10.73593,-16.36487,-4.02717,6.07128,1.12341,-2.62422,-32.9,21.7,17.5,-51.315559,156.578201,92.99147,0.4334760737538105,-0.70069599,0.54386503,-0.159168
8.9994,777.3772,12.05517,-17.18132,-3.68479,5.73469,1.15029,-2.8026,-35.0,21.4,14.5,-58.794521,158.142014,92.945587,0.4632049043567633,-0.68432403,0.52165997,-0.212162
9.0195,777.3972,13.30977,-17.28188,-4.38152,5.4653,1.20588,-3.23203,-35.6,22.0,11.6,-66.079498,161.06601,94.427177,0.488345782174905,-0.66775101,0.49585199,-0.264117
9.0386,777.4172,13.96581,-16.91076,-5.44698,4.4702,1.4826,-3.79647,-36.2,20.4,8.7,-72.901466,168.247528,100.195946,0.5062191498898861,-0.65284097,0.46660501,-0.31594399
9.0604,777.4372,13.97538,-16.23318,-5.17642,3.58383,1.4209,-4.1575,-40.0,17.2,7.3,-77.989532,-173.686096,116.778801,0.5126441727172952,-0.642721,0.436257,-0.365767
9.0778,777.4572,13.3385,-15.50772,-4.46293,3.06643,1.04522,-4.48186,-40.3,14.7,5.9,-79.836563,-141.007965,148.186035,0.5115940346699909,-0.63660401,0.404109,-0.41194999
9.0984,777.4771,12.26587,-14.60987,-3.58423,2.61011,0.81615,-4.52035,-41.7,10.9,4.0,-77.555237,-110.761787,177.604324,0.5060459254650505,-0.63397598,0.36914501,-0.45356801
9.1248,777.4971,11.17169,-13.49653,-2.57385,2.2326,0.80149,-4.41039,-40.5,7.4,4.6,-73.120262,-94.725342,-167.05336,0.4967553118968727,-0.63262302,0.33428699,-0.49119699
9.1379,777.5171,10.55875,-12.14855,-1.73824,1.98276,0.68664,-4.29494,-40.2,3.6,5.2,-68.125038,-86.5466,-159.581329,0.4847676715070218,-0.63115901,0.30069399,-0.52556801
9.1579,777.5371,10.35045,-10.5827,-1.20911,1.71153,0.43252,-4.37557,-41.4,0.6,2.0,-62.990444,-82.084198,-155.673904,0.4708353241331611,-0.63033497,0.26721999,-0.55640399
9.2082,777.5571,10.65452,-8.95219,-0.58899,1.46108,0.22727,-4.60221,-41.4,-2.4,1.9,-57.698147,-79.786774,-153.750458,0.4539747398618778,-0.63115102,0.23296501,-0.584194
9.213,777.5771,11.10704,-7.5276,-0.0431,1.14465,0.35494,-5.09151,-40.9,-6.6,2.0,-52.092705,-78.724922,-152.97139,0.4331049469895941,-0.63336903,0.196931,-0.610313
9.2214,777.5971,11.78462,-6.36877,0.53632,0.83555,0.84669,-5.66694,-40.1,-11.4,0.8,-45.98246,-78.193115,-153.188812,0.40524406179696076,-0.634996,0.16027901,-0.63786203
9.2401,777.6171,12.41671,-5.69598,0.9194,0.62908,1.42946,-6.27414,-37.9,-15.9,-1.0,-39.26059,-77.602859,-154.153275,0.36934717622388724,-0.63380802,0.123184,-0.66835302
9.2578,777.6371,12.48854,-5.33684,0.97208,0.29127,2.66768,-6.78238,-35.0,-21.2,-1.7,-32.006924,-76.626419,-155.788635,0.3252925338813356,-0.62804699,0.086533,-0.701608
9.2778,777.6571,11.61223,-4.92023,0.94334,-0.0722,4.07633,-7.08171,-32.4,-26.8,-2.1,-24.517889,-74.493111,-158.130783,0.2737368921358236,-0.61276901,0.053764,-0.73938602
9.3014,777.6771,10.07032,-4.48687,0.419,-0.49797,5.41902,-7.1996,-27.7,-31.4,-4.8,-17.250797,-71.042778,-161.291382,0.21677360898130246,-0.58663702,0.027072,-0.77982903
9.3173,777.6971,8.46616,-3.87394,0.00239,-1.0056,6.11113,-7.03834,-21.2,-35.2,-5.7,-10.566822,-66.229057,-165.41713,0.15575311212620857,-0.54938298,0.007461,-0.82089198
9.3408,777.7171,7.18522,-3.34241,-0.45731,-1.34951,6.08364,-6.88684,-14.4,-38.3,-12.0,-4.8846,-60.812557,-170.408569,0.09353955561600515,-0.506971,-0.005652,-0.85685402
9.359,777.7371,6.4406,-2.7175,-1.4653,-1.83882,6.38602,-6.82148,-7.8,-39.8,-15.0,-0.213982,-55.259079,-176.24086,0.02995082755583989,-0.463557,-0.013557,-0.88545698
9.3781,777.7571,5.35839,-2.85876,-2.87552,-2.60362,6.70672,-6.94121,-0.6,-39.2,-18.0,3.33356,-49.116344,176.950012,0.036285021640886844,0.41599801,0.01539,0.90851098
9.4003,777.7771,3.5148,-3.43339,-3.73507,-3.80153,6.1435,-6.70725,6.8,-37.2,-20.1,5.323711,-42.847416,169.027283,0.10579660433264843,0.36733001,0.00815,0.92401803
9.4246,777.7971,2.16203,-3.96492,-1.97767,-4.61276,4.07206,-6.46962,11.6,-34.3,-21.0,5.079813,-37.775982,160.180771,0.1768023410059941,0.32579201,-0.014352,0.92865199
9.4418,777.8171,1.85556,-4.58025,0.71349,-4.41423,1.4264,-6.26681,16.1,-30.0,-24.6,3.352882,-35.525944,151.114105,0.24607046149267883,0.30226099,-0.049079,0.919608
9.4589,777.8371,1.91781,-5.06868,2.31766,-3.97318,-0.35488,-6.15197,20.0,-25.1,-27.3,1.533173,-36.023945,142.347488,0.3107746522402364,0.29675299,-0.087732,0.89869899
9.4855,777.8571,1.32164,-5.53796,3.25621,-4.01044,-1.07082,-5.82332,21.0,-20.5,-27.0,0.498457,-37.479839,133.859772,0.37236685570670747,0.29719099,-0.122102,0.87069601
9.4993,777.8771,1.24981,-5.65049,4.12055,-4.02144,-2.13983,-5.0683,21.3,-15.1,-29.7,-0.703934,-39.512489,125.767578,0.4271126275892341,0.29822499,-0.15921099,0.83862299
9.5188,777.897,1.90584,-5.79893,4.2666,-4.07947,-3.3921,-4.568,21.4,-10.9,-34.2,-2.534726,-42.770058,118.360451,0.470022916969715,0.302513,-0.204457,0.80359298
9.5445,777.917,2.55469,-6.44299,4.29054,-4.61459,-4.11659,-4.32182,19.6,-6.2,-32.4,-4.378832,-47.170013,111.153503,0.5050943084926612,0.310011,-0.25489801,0.76406801
9.5587,777.937,2.80848,-7.34803,5.48289,-5.05563,-3.93028,-3.96568,16.1,-0.9,-36.9,-6.156385,-52.184261,103.741356,0.5351362852349856,0.31569201,-0.30910301,0.720016
9.5813,777.957,2.90904,-7.88435,8.09744,-4.60298,-3.21312,-3.58695,13.2,4.8,-36.3,-7.720074,-56.646542,96.431473,0.5614117492041288,0.31348601,-0.35960701,0.67618501
9.6026,777.977,3.35198,-7.91787,11.61463,-3.45883,-2.7849,-3.63154,9.4,11.8,-36.6,-8.532878,-60.177368,89.885651,0.584390968155788,0.30760401,-0.399342,0.63591897
9.6201,777.997,4.18519,-7.52521,13.36724,-1.82721,-2.27911,-3.53197,5.6,13.9,-35.5,-8.06585,-62.761864,84.761375,0.6043840737161424,0.305776,-0.42416999,0.60108298
9.6465,778.017,5.53556,-7.22832,12.74712,-1.11433,-1.36525,-3.77082,3.3,15.5,-36.4,-6.556211,-64.07267,81.215065,0.6227748575631966,0.307895,-0.43360701,0.573879
9.6699,778.037,6.70636,-7.41746,11.36562,-0.9439,-1.21559,-4.13489,1.3,15.9,-35.8,-4.363232,-64.373131,78.102356,0.6439851311821723,0.31033301,-0.43366599,0.54855299
9.6775,778.057,7.41028,-7.8604,10.95381,-0.97811,-1.72261,-4.27722,-0.7,16.6,-35.3,-1.780671,-64.635323,74.875732,0.6658871291917869,0.31452599,-0.432421,0.52026898
9.6964,778.077,8.58348,-8.09744,12.00489,-0.53279,-2.24184,-4.47392,-2.4,17.0,-35.3,1.362099,-65.880875,71.668884,0.6841147537784869,0.32641101,-0.43496701,0.48605201
9.7244,778.097,10.5827,-8.42066,13.46061,0.4165,-2.98893,-5.09151,-5.6,16.3,-34.7,6.017595,-68.447929,69.086136,0.6968732299151833,0.354222,-0.438025,0.44387901
9.7528,778.117,12.65135,-9.08148,14.65296,1.23994,-3.37378,-6.1257,-9.8,16.0,-35.2,12.013451,-71.771645,67.50135,0.704021068286312,0.394371,-0.437601,0.39664999
9.7589,778.137,14.60747,-9.86681,17.11906,2.0921,-4.2687,-7.28696,-13.3,13.5,-35.5,19.506981,-75.70713,66.765137,0.7069830335796748,0.44445801,-0.43139699,0.34136301
9.7839,778.1571,15.08633,-10.73353,20.53569,3.70662,-5.5564,-8.76403,-18.8,8.1,-33.8,28.64806,-81.456161,67.663132,0.699803752013962,0.50771397,-0.42075801,0.27470699
9.8009,778.1771,13.37442,-11.69124,21.8717,5.6394,-5.8655,-9.46225,-22.3,0.6,-31.5,39.245922,-90.806755,72.442856,0.6748302384331929,0.58655,-0.40176001,0.197869
9.8184,778.1971,10.2451,-11.64096,19.46066,7.06149,-5.48004,-8.59421,-23.6,-8.0,-30.3,48.776848,-105.621132,84.155617,0.6290543432560171,0.67147797,-0.37127101,0.124763
9.842,778.2171,7.11339,-9.99849,15.33294,6.65771,-6.46292,-7.39142,-24.9,-19.0,-21.9,53.831791,-126.482346,102.283325,0.5666308324570769,0.747859,-0.340812,0.059022
9.8586,778.2372,4.65447,-7.38394,12.2515,5.96132,-6.80623,-6.47756,-24.6,-26.0,-15.9,53.845348,-149.221664,120.98587,0.4964705216231874,0.80733001,-0.31883001,-0.009094
9.879,778.2572,2.07584,-4.98967,10.12778,5.74202,-6.49835,-5.39389,-23.0,-30.7,-7.8,50.114632,-168.649673,135.726395,0.42414108982731097,0.85077697,-0.30088601,-0.075832
9.9032,778.2772,-0.56265,-3.01439,8.70079,6.09632,-5.67857,-3.61627,-21.9,-33.1,-3.3,43.931622,177.448929,144.691483,0.3500901181675935,0.88098502,-0.289121,-0.133084
9.9201,778.2973,-2.44695,-1.64726,6.6513,6.38709,-4.45562,-2.03474,-21.0,-34.3,3.2,37.332184,169.649307,147.854156,0.2826311513318719,0.89866102,-0.28896901,-0.170367
9.9436,778.3173,-3.63451,-1.14686,4.20674,6.20994,-2.98527,-0.58577,-20.2,-34.2,8.3,34.152641,164.247726,148.378036,0.24418117991327534,0.90010798,-0.29671201,-0.20528799
9.9635,778.3373,-3.91703,-1.5874,2.36554,6.37488,-1.11968,0.97622,-19.9,-32.9,11.4,29.040283,157.773514,148.367966,0.18585491767090767,0.90077299,-0.305392,-0.24658
9.9795,778.3573,-2.72229,-2.53314,1.02236,6.07433,-0.36527,2.08982,-21.7,-31.0,14.7,22.442007,153.800156,145.614853,0.11535397657133212,0.89963198,-0.32452199,-0.26840499
10.006,778.3774,-0.89306,-3.7231,1.52755,6.9216,0.0037,2.56386,-22.6,-26.9,19.2,15.318475,151.391098,140.970047,0.039962725722340775,0.89418203,-0.35184601,-0.273945
10.0295,778.3974,0.95292,-5.53556,0.09098,8.20014,0.21933,2.87723,-23.5,-22.0,21.3,7.958851,151.056717,134.389191,0.03470195403345095,-0.88370401,0.39038599,0.25585499
10.0582,778.4174,2.56906,-6.81889,-3.11974,7.98939,0.70314,2.84363,-25.0,-17.1,23.9,0.965496,151.907257,126.814774,0.10134498666070763,-0.86652797,0.43607101,0.220682
10.0604,778.4375,4.28575,-7.21156,-5.10699,6.80309,1.08737,2.56263,-26.5,-10.6,26.9,-5.635103,152.571716,119.786606,0.16009249409257018,-0.84525901,0.47663999,0.18089201
10.0803,778.4575,7.21395,-6.6489,-7.25465,6.35472,1.11547,2.01591,-27.7,-5.1,28.1,-13.393651,153.658615,113.718254,0.2187975662684096,-0.82426703,0.506437,0.127409
10.0987,778.4775,10.27862,-6.56271,-8.90431,5.37245,1.06233,0.66101,-28.8,-0.3,27.8,-20.879309,155.146194,109.066422,0.26691872838727365,-0.804829,0.52549797,0.069689
10.1188,778.4975,12.07672,-7.29536,-8.17884,4.72921,1.12402,-0.65846,-28.8,2.3,27.9,-27.486881,157.2892,106.812897,0.30102779921854317,-0.79251599,0.53017402,0.014703
10.1533,778.5176,12.80458,-8.49249,-6.09343,4.9595,1.29751,-1.58758,-30.3,4.5,27.0,-33.903263,160.521042,106.779709,0.32717448091775114,-0.786183,0.52263999,-0.04148
10.1622,778.5376,13.56117,-9.80695,-3.95055,5.62473,0.9768,-2.35972,-31.5,6.4,26.8,-40.879089,164.784531,108.563637,0.3534609366185741,-0.78107601,0.50468999,-0.101359
10.1837,778.5576,14.35607,-11.38238,-2.7582,6.49277,0.49911,-3.35726,-32.5,7.5,24.1,-48.552166,169.355392,111.980095,0.38663445312390343,-0.77371401,0.47606501,-0.158879
10.2028,778.5777,14.67212,-12.2946,-4.42941,6.67298,1.68846,-3.75982,-34.2,8.5,23.0,-56.721237,173.910904,116.666687,0.4282643636467781,-0.76114899,0.43983999,-0.209243
10.2188,778.5977,15.82376,-12.5053,-7.26184,4.96439,4.65482,-3.86978,-35.7,8.1,19.5,-64.055107,-175.984573,124.912285,0.45619774248511996,-0.74264801,0.40827399,-0.271422
10.2421,778.6177,17.03287,-11.96659,-6.61778,3.91187,5.66581,-4.55822,-37.7,6.9,16.7,-68.130402,-157.322998,138.827805,0.45687021340715556,-0.721645,0.38868499,-0.345575
10.2633,778.6377,17.63383,-11.93067,-4.54673,4.56488,4.79593,-5.39389,-39.2,4.7,12.4,-68.78302,-132.890625,158.250183,0.4462708647026146,-0.70026898,0.36438501,-0.42153201
10.278,778.6578,17.24836,-12.32333,-3.90506,4.93262,4.25898,-5.98215,-40.9,1.1,9.6,-65.999855,-108.549477,178.843933,0.437191747702035,-0.67761201,0.324866,-0.494133
10.2984,778.6778,16.31459,-12.35206,-3.90506,4.54289,4.75256,-6.05179,-41.7,-3.5,6.5,-60.075211,-90.457893,-166.508575,0.4245241469899904,-0.65173697,0.27790701,-0.56372499
10.3252,778.6978,16.12544,-11.49731,-3.35917,4.25945,5.00974,-6.11349,-40.3,-7.6,2.6,-52.684605,-78.274872,-158.604431,0.4042400102127941,-0.61969799,0.23319399,-0.631019
10.3407,778.7178,16.17811,-10.2882,-3.05509,4.11406,4.99996,-6.58019,-38.7,-13.2,0.7,-44.516674,-69.49202,-154.594025,0.3778237877453979,-0.58300102,0.18763401,-0.694372
10.3611,778.7378,15.41674,-9.49091,-3.50522,3.76404,5.20827,-7.02367,-36.5,-18.5,-2.0,-35.613541,-62.734612,-153.127304,0.3437255589117274,-0.54269499,0.13880999,-0.75370198
10.3827,778.7578,13.40794,-8.75826,-3.99844,2.95464,5.59006,-6.87585,-30.1,-26.5,-5.2,-26.599623,-56.920692,-153.716644,0.30128244508364543,-0.49760601,0.091506,-0.80823499
10.4018,778.7778,11.62181,-7.4845,-3.58423,2.28452,5.4349,-6.38654,-25.1,-30.3,-7.2,-18.499659,-51.341171,-155.903275,0.25378979293564924,-0.44838601,0.052435,-0.85544801
10.425,778.7978,10.67368,-5.90668,-3.25143,1.82943,4.80388,-6.1422,-20.7,-34.3,-8.5,-11.434072,-46.011806,-158.963486,0.20547334354309754,-0.399086,0.019162,-0.89338899
10.4435,778.8178,9.79498,-4.3073,-3.5531,1.17275,4.2822,-6.18862,-16.5,-38.2,-11.6,-5.175097,-41.222412,-162.834106,0.15526552027736087,-0.35403401,-0.0107,-0.92219198
10.4591,778.8378,8.64094,-2.92102,-3.79493,0.15627,3.88636,-6.39754,-11.1,-39.4,-11.9,-0.225342,-37.240479,-167.794022,0.10137668992248512,-0.317682,-0.032093,-0.94221598
10.479,778.8578,7.76463,-1.87472,-3.37593,-0.71421,3.124,-6.74634,-6.3,-40.9,-13.8,2.654102,-35.3083,-173.888702,0.04378478448776155,-0.30158201,-0.038199,-0.95166802
10.5108,778.8778,7.28338,-1.99683,-3.11495,-1.46008,2.21381,-7.30773,-0.4,-40.6,-12.1,4.944897,-34.123055,179.130463,0.019936551857317204,0.29343,0.039015,0.95497602
10.5271,778.8978,6.34243,-3.11974,-2.64328,-2.51382,1.32683,-7.93875,6.4,-39.3,-14.5,6.80628,-33.714085,171.075668,0.09149464626763446,0.29301599,0.034117,0.95110798
10.5465,778.9178,5.22191,-4.64729,-1.58022,-3.47349,0.96031,-8.13239,12.0,-37.4,-15.1,7.906448,-33.850594,161.865311,0.17023186064506243,0.29719701,0.019361,0.93931901
10.5685,778.9378,4.20914,-6.26103,-0.19394,-3.94936,0.76239,-8.07436,18.3,-32.2,-19.2,8.07724,-33.952236,152.028381,0.25053200760166255,0.29889399,-0.005026,0.92079902
10.5786,778.9578,3.03833,-7.69041,1.7574,-4.26823,0.0489,-8.04077,23.1,-27.2,-21.6,7.501178,-34.171936,141.889511,0.3295703344172828,0.297526,-0.036616,0.89527702
10.5997,778.9778,1.98246,-8.56672,2.8851,-4.29511,-1.51614,-7.728,25.5,-20.8,-23.4,6.443013,-35.12479,131.711075,0.4048316950171016,0.29682699,-0.07434,0.86167198
10.6283,778.9978,1.51797,-8.84206,4.41025,-4.2102,-2.42999,-7.03223,27.0,-14.6,-25.2,5.077051,-37.312729,121.82901,0.47250173820416747,0.29967701,-0.118679,0.82027501
10.6529,779.0178,1.98485,-8.83727,5.96653,-4.13567,-2.74764,-6.54537,27.4,-8.5,-28.7,3.650064,-40.077198,112.575684,0.5302346865590366,0.30149299,-0.165195,0.77502501
10.6684,779.0378,2.15964,-8.78459,7.24986,-3.64331,-3.46846,-6.21489,25.1,1.2,-30.2,2.634969,-42.975498,103.783974,0.5807271054499864,0.30135199,-0.209168,0.72676802
10.6806,779.0578,2.4254,-8.71756,7.31212,-3.592,-4.67064,-5.63029,21.6,5.8,-32.3,2.273031,-46.618385,95.701042,0.6219941967006121,0.30553201,-0.25197899,0.67548501
10.705,779.0778,3.94337,-8.80375,7.25705,-4.11979,-4.95897,-5.06463,17.5,11.1,-32.7,1.970504,-51.242462,88.13369,0.6529532218499114,0.31184301,-0.29987699,0.62167501
10.7175,779.0978,6.61059,-9.29218,8.50925,-4.54495,-4.16851,-5.17703,12.5,16.3,-33.9,1.583106,-55.732357,80.542274,0.6786280917778161,0.311425,-0.348701,0.566468
10.7435,779.1178,8.11899,-10.84606,12.09348,-4.25968,-3.41287,-5.71276,9.0,20.8,-32.7,1.969075,-59.224403,72.614052,0.7055263777405203,0.30457401,-0.38929099,0.50785798
10.7666,779.1377,8.46616,-12.39516,16.37205,-2.65432,-2.83438,-5.524,3.7,23.8,-34.2,3.911425,-61.856735,65.196358,0.7317078607507641,0.30139801,-0.41697699,0.44709399
10.7834,779.1577,9.37598,-13.47019,18.46465,-0.81317,-1.49964,-5.02798,0.7,26.1,-32.8,8.290042,-64.246857,59.957611,0.7508836892047395,0.31803301,-0.42881,0.38878101
10.7995,779.1777,11.09746,-14.15256,18.07199,0.21613,-0.12886,-5.15504,-1.8,25.6,-32.5,13.23413,-64.986664,56.703964,0.766731312209864,0.33894601,-0.423457,0.34339899
10.8178,779.1977,12.63459,-14.72,17.54285,0.85632,-0.12275,-5.73841,-3.9,24.3,-34.3,18.889832,-64.352531,54.190304,0.7831082414590846,0.362914,-0.404392,0.30249301
10.8419,779.2177,14.08791,-15.05041,17.70806,1.80011,-1.44405,-6.65838,-6.5,23.3,-33.1,25.555607,-64.093224,52.015354,0.7943767698862674,0.39539,-0.382864,0.25699699
10.8681,779.2377,15.40716,-15.44547,18.5676,2.77932,-2.65357,-7.88316,-9.4,20.4,-32.8,33.751671,-65.398163,50.36961,0.7954663093136124,0.44105801,-0.363864,0.20075899
10.8793,779.2577,16.17093,-15.99615,19.24279,3.80985,-3.17586,-9.21363,-15.0,17.2,-33.1,43.780659,-68.251839,49.554371,0.7850694762250789,0.49838501,-0.34329799,0.13200299
10.9029,779.2777,15.21322,-16.23318,19.32898,4.69255,-3.25222,-10.06212,-18.2,10.2,-36.1,55.53738,-72.827248,50.559208,0.7619848959458972,0.56333101,-0.31483501,0.054001
10.9276,779.2977,12.45741,-15.4718,17.11667,5.29975,-3.07629,-9.96805,-20.9,-0.9,-31.7,68.061539,-82.070686,56.682987,0.7246111557591699,0.62983,-0.27846801,-0.026616
10.9459,779.3177,9.84765,-13.64737,13.86525,4.57099,-2.59309,-8.94118,-21.5,-8.5,-30.2,78.815475,-109.672455,81.733406,0.6760809884366664,0.68977499,-0.23845001,-0.101324
10.9582,779.3377,7.19001,-10.94662,11.25309,3.84101,-2.40739,-8.14461,-21.0,-15.2,-27.2,80.999001,-178.511719,148.408905,0.6275595828994085,0.73392802,-0.198851,-0.167263
10.9798,779.3577,4.81967,-8.01843,9.2419,3.24664,-2.41105,-7.13119,-19.6,-20.2,-28.1,74.021072,144.655457,-176.883026,0.5799383289419138,0.76552802,-0.16197801,-0.22671901
11.0059,779.3777,3.01679,-5.2291,7.38873,2.58873,-2.08913,-6.19534,-18.5,-24.2,-24.8,66.090607,132.121323,-166.49588,0.5349281684055903,0.78683102,-0.129656,-0.279174
11.0271,779.3977,2.20513,-2.5092,6.20117,1.96932,-1.59127,-5.35968,-16.5,-27.1,-22.4,59.028038,125.723511,-161.904724,0.49537249551968465,0.80013001,-0.100132,-0.323066
11.042,779.4177,2.60737,-0.34238,5.10938,1.52216,-0.87595,-4.8887,-13.9,-30.0,-22.1,54.091927,118.575371,-156.591934,0.4750780729146314,0.796911,-0.072071,-0.36611399
11.0619,779.4377,3.05509,1.31206,5.08783,1.38227,-0.83991,-4.827,-11.6,-31.1,-20.9,50.142464,110.067116,-150.24733,0.46888703066346255,0.77974403,-0.04414,-0.41254801
11.08,779.4577,2.39427,2.47329,5.3536,1.64189,-0.71957,-4.61992,-8.6,-33.7,-20.0,45.811604,103.10701,-145.873718,0.4594741006071398,0.76068699,-0.01967,-0.458096
11.1011,779.4777,1.10855,3.35917,5.93541,1.94671,-0.43674,-4.1013,-6.0,-34.3,-19.1,41.651379,97.864838,-143.590607,0.44645903299738476,0.742374,-0.001722,-0.49955201
11.1295,779.4977,-0.65603,3.93858,6.5244,2.50138,-0.11481,-3.50876,-3.1,-36.2,-18.2,38.052315,94.192253,-143.072083,0.43033012694704414,0.727121,0.008807,-0.53482097
11.1484,779.5177,-2.3416,4.25941,6.80932,3.19044,0.58952,-2.59124,-2.2,-36.7,-16.7,35.167477,92.11277,-144.238998,0.4101246599325619,0.71759498,0.011225,-0.562787
11.1631,779.5376,-3.3017,4.2642,6.75425,3.88194,1.37081,-1.55765,0.9,-36.7,-12.6,33.291328,91.839592,-146.850525,0.387362864082477,0.71651101,0.005343,-0.58011502
11.1786,779.5576,-3.65845,3.90985,6.5675,4.59298,2.73732,-0.6493,2.0,-38.8,-8.0,32.40934,93.372917,-150.633636,0.3633965819296593,0.72441,-0.008084,-0.58575398
11.1998,779.5776,-3.78535,3.01439,6.42623,5.43903,3.61086,0.09291,2.3,-39.5,-4.0,32.160088,97.126053,-155.610321,0.33728895888389165,0.74281901,-0.027003,-0.57769102
11.2245,779.5976,-3.56029,1.28812,5.82527,6.52454,3.54244,0.88886,2.3,-39.6,0.6,32.110554,102.216454,-161.899078,0.3074913815891415,0.76597703,-0.05382,-0.56198901
11.242,779.6176,-2.90665,-0.97926,4.70236,7.46405,3.39522,1.67321,0.9,-39.4,4.9,31.916622,107.843315,-169.687393,0.2721983547102723,0.788472,-0.091416,-0.54393297
11.2598,779.6376,-1.80528,-3.29931,3.09101,8.06392,3.61819,2.31096,-0.7,-37.2,13.1,31.194778,113.708565,-178.636871,0.23137744941804478,0.80814099,-0.13741,-0.52391899
11.2804,779.6576,0.18196,-5.90428,1.87232,8.22274,4.28342,2.61211,-4.4,-34.6,17.3,29.425753,120.930687,171.340942,0.18435184139893732,0.82967597,-0.18836901,-0.492107
11.3435,779.6776,1.93218,-8.2387,0.54111,8.58377,5.27913,2.81431,-8.1,-30.2,23.9,26.294632,131.163757,160.264572,0.1350635329839994,0.857454,-0.244592,-0.43209401
11.3462,779.6976,4.16604,-9.40471,-1.37192,8.4677,5.5473,3.16861,-12.5,-24.1,26.8,21.425856,141.455429,149.808197,0.08496537012712316,0.87952203,-0.30079201,-0.358812
11.3484,779.7176,6.84763,-9.11261,-4.49645,8.08224,5.34755,2.83874,-17.8,-19.5,27.9,12.487014,150.469543,140.679901,0.013843229326272502,0.89588201,-0.3495,-0.27395901
11.3651,779.7376,8.76065,-8.04476,-7.9897,6.69497,4.84419,1.80455,-20.5,-13.3,30.4,2.393619,158.733566,133.634583,0.05375381350434022,-0.90175498,0.39036301,0.17766599
11.3795,779.7576,8.44221,-7.13494,-9.54119,5.09328,3.96333,1.22728,-25.0,-9.0,30.3,-6.262877,165.648926,129.437683,0.10228386607691102,-0.89871502,0.41691199,0.089631
11.4066,779.7776,7.1086,-6.8572,-8.5739,4.33459,3.09834,1.30425,-28.0,-5.9,28.6,-13.081647,171.26828,126.917915,0.1354074068379564,-0.89008701,0.43488401,0.016907
11.4448,779.7976,5.86358,-7.08226,-6.70636,4.40361,2.08125,1.62434,-28.2,-2.2,27.4,-19.014416,175.540863,124.882866,0.1640785526224529,-0.87667203,0.450257,-0.042344
11.4462,779.8176,5.34881,-7.72393,-5.2674,4.80923,1.24742,1.93344,-29.7,4.3,27.5,-25.001808,178.303101,122.823372,0.1969650669481256,-0.85870302,0.464302,-0.090871
11.4596,779.8376,5.94738,-8.3656,-4.42462,5.05113,0.96031,2.01163,-31.0,8.9,27.2,-31.325415,179.862564,120.567162,0.23504560671282326,-0.83639997,0.477018,-0.132825
11.4781,779.8576,7.6114,-9.02402,-3.8476,5.18247,1.12158,1.71597,-32.8,13.3,27.5,-37.813255,-178.932022,118.496529,0.27394990408649533,-0.811445,0.486305,-0.173251
11.498,779.8776,9.82371,-9.60822,-3.5124,5.21057,1.40624,1.12282,-33.4,15.7,24.0,-44.325375,-177.197632,117.290154,0.3102703227965888,-0.78583002,0.48962501,-0.215571
11.5202,779.8976,12.54361,-10.22355,-3.23706,5.21484,1.77704,0.29755,-33.7,18.1,21.1,-50.686523,-174.055084,117.692886,0.34157525701077895,-0.76089901,0.48591,-0.26124799
11.5402,779.9176,14.69127,-10.85804,-3.34959,5.08901,2.06292,-0.81118,-34.3,20.6,17.3,-56.686539,-168.189789,121.010406,0.36645504970571735,-0.73794299,0.47353399,-0.31131399
11.5583,779.9376,16.07516,-11.36083,-3.62493,4.72065,2.24679,-1.86919,-35.5,21.1,13.8,-61.872513,-160.721069,126.552338,0.38810520493456385,-0.71659201,0.45715699,-0.356199
11.58,779.9575,17.10709,-11.59308,-3.24664,4.21241,2.45143,-2.86979,-36.1,20.9,12.4,-65.618286,-149.097656,136.390854,0.40172594919740956,-0.69852501,0.43493301,-0.40188599
11.5984,779.9775,17.62905,-11.85166,-2.32963,3.92164,2.5003,-3.88871,-39.6,19.0,10.9,-67.051071,-133.069702,150.66925,0.4060918342898559,-0.68410701,0.40636,-0.44939801
11.6182,779.9975,17.73918,-12.15094,-1.35755,3.79397,2.04399,-4.71888,-40.8,16.3,7.5,-65.668404,-115.791794,166.427338,0.40331485810889717,-0.67271799,0.370249,-0.49769801
11.6393,780.0175,18.11029,-12.28981,-0.40224,3.57589,1.68419,-5.44031,-41.7,12.5,3.8,-61.70488,-101.67524,179.619705,0.3958301656425387,-0.66456002,0.326069,-0.543468
11.659,780.0375,18.36648,-12.30418,0.08141,3.34682,1.75627,-6.31935,-42.5,8.0,3.8,-55.734276,-91.868782,-171.238678,0.3818496017418108,-0.65819198,0.27561501,-0.587376
11.6784,780.0575,17.9427,-12.15094,0.43576,2.88134,2.27795,-7.12813,-42.3,2.7,3.8,-48.148445,-85.218018,-165.563431,0.35840408734622375,-0.65092999,0.220181,-0.63194698
11.7003,780.0776,16.62106,-11.73434,0.88109,2.57041,2.81856,-7.74755,-40.3,-6.9,-0.5,-39.415852,-80.359276,-162.641647,0.32362309102923864,-0.63931799,0.16304199,-0.67820197
11.7324,780.0976,15.06478,-11.04,1.06306,2.37737,2.89248,-8.05298,-38.4,-13.9,-2.2,-30.056541,-76.401657,-161.441086,0.2806418049959763,-0.62230998,0.104791,-0.72318
11.7392,780.1176,13.39597,-10.01765,0.84278,2.15319,2.90042,-8.30527,-34.1,-19.6,-2.1,-20.388897,-73.021576,-161.344986,0.23212764631439273,-0.60089499,0.045464,-0.76352799
11.7597,780.1376,11.5021,-8.95219,-0.15563,1.72008,2.95418,-8.44394,-29.7,-26.3,-4.6,-10.572148,-69.888008,-162.231018,0.17820001595251939,-0.57516003,-0.013472,-0.79828203
11.7783,780.1577,8.98811,-7.92266,-1.47966,0.86182,3.17714,-8.23013,-24.0,-31.0,-5.0,-0.969234,-66.636993,-164.239273,0.11916839833789251,-0.54505497,-0.068307,-0.82707202
11.7986,780.1777,6.14131,-6.65848,-1.77176,-0.00928,2.90836,-7.59056,-19.6,-34.3,-6.8,7.705039,-62.820961,-167.578751,0.0573295913700735,-0.51073301,-0.11326,-0.85031599
11.82,780.1977,3.96971,-4.98727,-1.24981,-0.66168,2.10996,-6.97114,-14.5,-37.5,-9.2,13.794582,-59.507706,-171.846573,0.002103085181104907,-0.484025,-0.13902,-0.86393797
11.8423,780.2177,3.11974,-3.44776,-0.35675,-1.1858,0.8302,-6.76161,-9.1,-39.0,-8.7,17.751457,-57.362312,-176.685501,0.04896034845157693,0.47007501,0.149018,0.868577
11.861,780.2378,2.79172,-2.63849,-0.02634,-1.63173,0.30546,-6.96198,-4.0,-39.7,-9.9,21.054253,-56.07914,177.882523,0.10191309747632993,0.46507001,0.152689,0.86603099
11.8838,780.2579,2.51159,-2.53075,-0.11493,-2.47351,0.62434,-6.97297,0.7,-40.9,-13.4,23.939224,-54.549438,171.564758,0.1587345282698731,0.460637,0.150866,0.86014903
11.9034,780.2779,2.35118,-2.95454,0.30407,-3.39897,1.46122,-7.00901,6.6,-39.4,-16.7,25.87915,-51.704674,164.084091,0.21813397745853239,0.448787,0.140736,0.85510302
11.9199,780.298,2.09738,-3.53156,1.79331,-3.74166,1.50398,-7.312,15.0,-35.0,-18.5,27.01115,-47.14682,155.306442,0.2818042262852698,0.425641,0.12594999,0.85061902
11.9415,780.3181,1.97528,-4.30969,2.47089,-3.48143,0.909,-7.68341,19.7,-30.9,-18.5,28.735434,-41.44838,145.257141,0.3543203306049486,0.39646,0.119154,0.838498
11.9599,780.3381,1.69275,-5.54275,1.90584,-4.09352,0.59501,-7.95402,23.9,-26.1,-21.2,30.16927,-35.453705,134.389465,0.4295203351090603,0.36708799,0.114561,0.81708902
11.986,780.3582,1.18277,-6.93861,2.75102,-4.87726,-0.14535,-7.79459,26.9,-20.0,-24.7,29.244095,-29.498644,122.596992,0.5057537142327666,0.33331701,0.095823,0.78989297
12.0045,780.3783,0.5842,-8.2387,4.75024,-4.87237,-0.63038,-7.43723,29.6,-13.0,-26.2,25.220278,-24.952173,111.008034,0.5785068418061277,0.29447499,0.056282,0.758582
12.0201,780.3984,-0.06465,-8.866,7.04635,-4.50586,-1.47582,-6.88867,29.4,-5.3,-24.8,20.358143,-21.905216,100.298615,0.6449927732920268,0.254749,0.013372,0.72035301
12.0404,780.4185,0.07183,-8.866,8.85642,-3.84184,-2.65723,-6.2772,27.1,0.2,-29.2,15.648166,-20.798296,90.731888,0.7020886301003598,0.221325,-0.030356,0.67614001
12.0629,780.4386,0.3783,-8.87318,9.30894,-3.56879,-3.20579,-5.75063,24.8,6.7,-31.0,11.65476,-21.630156,82.221313,0.7487605598806601,0.197878,-0.075072,0.62814498
12.0802,780.4587,1.61614,-9.02642,9.68484,-3.75938,-3.34873,-5.22468,21.0,11.4,-34.9,7.989759,-23.542097,74.44091,0.7862705110910871,0.17740799,-0.1208,0.57940698
12.1003,780.4788,3.68958,-9.59386,11.36083,-3.57551,-3.50817,-5.14587,17.8,16.4,-31.1,4.475099,-25.969568,67.098434,0.8163297622530613,0.155789,-0.16609301,0.53079998
12.1259,780.4989,5.7726,-10.4558,14.08312,-2.73557,-4.36399,-5.55882,14.0,20.6,-30.5,1.949235,-29.268288,59.937534,0.8402193024826315,0.140443,-0.210614,0.47953001
12.1544,780.519,6.91467,-11.43266,17.48539,-1.53461,-4.41775,-6.02552,7.8,22.8,-32.0,1.992992,-33.814552,52.855091,0.858912833829487,0.144317,-0.252987,0.421235
12.1644,780.5391,7.85562,-12.20122,20.38725,0.22713,-3.9651,-6.1648,0.7,25.3,-32.1,5.048133,-38.400585,46.446087,0.8727271837139026,0.167772,-0.28553301,0.35870701
12.1869,780.5592,9.5364,-12.86923,21.32341,1.85203,-3.4648,-6.46473,-4.5,24.3,-32.1,10.246223,-42.128441,41.371387,0.8808676282544387,0.20441,-0.30546501,0.29829499
12.2011,780.5793,11.63618,-13.40315,20.96667,2.91371,-3.49229,-7.06216,-8.7,21.6,-33.3,17.239161,-45.180191,37.387337,0.8831438312013509,0.252803,-0.315411,0.238041
12.2217,780.5994,13.02964,-13.5061,19.80305,3.37064,-3.2797,-7.90454,-13.7,16.9,-34.5,25.684023,-47.93042,33.962357,0.8784578125120294,0.30990899,-0.31943801,0.173861
12.2464,780.6194,13.44385,-12.8405,18.56042,3.51358,-2.9083,-8.14461,-15.4,13.2,-33.3,35.136768,-49.816235,30.349949,0.8678068929936773,0.36932701,-0.31585601,0.103652
12.2657,780.6395,13.8006,-11.71279,17.34173,3.5539,-2.59004,-8.28206,-18.7,7.2,-33.3,44.907238,-50.603024,26.568373,0.8506834146053395,0.426817,-0.30507001,0.033125
12.284,780.6596,14.18129,-10.51805,15.81658,3.70845,-2.45626,-8.64125,-19.6,0.6,-32.4,54.918358,-50.015892,22.008327,0.8265738522938407,0.48180601,-0.288454,-0.037854
12.3102,780.6797,13.54441,-9.26824,14.36086,3.83429,-2.81361,-8.98883,-21.1,-5.2,-30.4,65.254639,-46.920822,15.125911,0.7941054397806371,0.53443003,-0.267277,-0.111104
12.3227,780.6998,11.79659,-7.96336,12.10067,3.75549,-2.80262,-8.84589,-20.6,-11.3,-26.9,75.495796,-36.913231,1.080832,0.7518338787379163,0.58303601,-0.24484099,-0.186729
12.346,780.7198,9.15331,-6.21075,8.9905,3.00351,-2.25773,-8.279,-20.1,-18.6,-28.9,82.737045,5.495267,-45.092411,0.7044622016516144,0.623483,-0.21989501,-0.25816301
12.364,780.7399,6.42384,-3.98407,6.24427,1.95893,-1.73299,-7.24175,-17.8,-22.1,-26.0,79.447098,65.787994,-108.334106,0.6594679587447593,0.65280002,-0.190522,-0.32039899
12.3818,780.76,5.27219,-1.60416,4.56109,1.11288,-1.57783,-6.35294,-16.1,-26.1,-23.3,72.269592,80.65844,-125.639992,0.6207315545186014,0.67031002,-0.161148,-0.37337399
12.4036,780.78,5.14051,0.668,3.10059,0.4336,-0.98285,-5.73841,-13.8,-28.5,-23.3,66.24971,79.202354,-126.70121,0.6007617731651039,0.66598701,-0.136878,-0.42048901
12.4245,780.8001,5.24107,2.31048,2.89707,-0.31532,-0.18506,-5.39877,-9.1,-30.7,-22.4,61.328159,73.324821,-122.990273,0.5969002500164494,0.64658701,-0.114405,-0.46102801
12.4458,780.8201,5.92822,3.22748,4.15407,-0.25729,-0.33778,-5.45681,-7.1,-31.8,-24.7,56.616749,68.652473,-120.026482,0.595010802000199,0.625745,-0.091072,-0.49609599
12.4643,780.8402,5.71992,3.39029,5.6457,0.33831,-0.78737,-5.9345,-4.2,-32.6,-23.8,51.922527,65.303955,-119.240608,0.5865955595484849,0.604886,-0.072649,-0.533611
12.5068,780.8602,4.1828,3.01918,6.18441,0.87892,-0.5021,-6.0017,-0.7,-33.1,-22.7,47.17593,63.298458,-120.734657,0.5682442559349629,0.586411,-0.05833,-0.57429802
12.5096,780.8802,2.51399,2.52596,5.64331,1.13182,-0.08854,-5.84348,3.3,-34.0,-23.0,42.679203,62.31863,-123.354103,0.5439065658720434,0.57199001,-0.045465,-0.61231202
12.534,780.9002,0.46928,2.01119,4.43899,1.16236,-0.06533,-5.60647,6.8,-33.4,-22.1,38.359913,61.716423,-126.401779,0.5159682444907049,0.55956799,-0.033319,-0.64772701
12.5466,780.9203,-2.1309,1.61614,3.70634,0.86182,0.21689,-5.0121,9.7,-32.3,-22.9,34.223099,60.961632,-129.445023,0.4866612321315717,0.54665202,-0.022282,-0.68105501
12.5672,780.9403,-4.24744,1.506,3.93619,0.78729,0.70497,-4.1636,12.0,-31.9,-20.3,30.211199,61.54702,-132.628204,0.45533586334252124,0.54230398,-0.006607,-0.70606798
12.5806,780.9603,-5.67683,1.80768,3.82845,1.12693,0.98169,-3.45989,15.2,-31.9,-21.4,26.62418,63.977612,-136.328232,0.4202211632098982,0.551171,0.010467,-0.72077399
12.603,780.9803,-6.21793,2.04232,2.79891,1.34074,0.60845,-3.05244,17.2,-31.3,-19.1,23.737358,66.221214,-139.569885,0.3886761917754653,0.56117803,0.02306,-0.73039597
12.6211,781.0003,-7.24747,2.2171,2.26259,1.33279,0.84669,-2.63094,18.7,-30.9,-20.0,21.22715,67.67234,-142.559433,0.3591618781961687,0.567442,0.030757,-0.74031502
12.6408,781.0203,-9.17965,2.2602,3.62972,1.7323,1.19366,-1.72931,20.2,-30.0,-17.7,19.213896,69.04982,-145.171112,0.3333680323663313,0.57435298,0.036049,-0.74678302
12.6733,781.0403,-11.07831,2.1764,5.83724,2.96991,2.19059,-0.3738,21.7,-29.7,-16.5,18.447769,71.058609,-148.068695,0.31051328204030115,0.58736098,0.032359,-0.746687
12.6971,781.0603,-11.57153,1.81486,6.941,4.24845,3.76907,0.63902,22.6,-31.2,-14.0,19.260445,74.681831,-151.840698,0.28910712963716306,0.61239898,0.016472,-0.73560399
12.7042,781.0803,-10.87719,0.89067,6.88833,5.26127,4.96331,1.42154,22.7,-33.1,-6.0,20.980478,80.344322,-156.876251,0.2656558149955293,0.64931703,-0.009166,-0.71255201
12.7237,781.1003,-9.3257,-0.81645,5.64809,6.13908,5.87839,2.23216,19.6,-34.1,-3.2,22.979141,87.623741,-163.220505,0.23960452225139567,0.692132,-0.043215,-0.67946702
12.745,781.1203,-7.22592,-2.69116,4.00802,6.61617,6.53568,2.94015,18.3,-35.0,3.8,24.819199,96.26062,-170.62825,0.21274725754156992,0.73655301,-0.08354,-0.63659197
12.7649,781.1403,-4.62095,-4.6856,2.44934,6.99002,6.8124,3.62737,15.4,-34.3,10.3,25.950537,105.82019,-179.067352,0.18388722117096631,0.77839899,-0.129076,-0.586191
12.7859,781.1603,-1.77416,-6.20117,0.47885,7.31194,6.23635,3.8485,11.1,-32.3,17.3,25.839088,115.609344,171.733337,0.15128953353804409,0.81408203,-0.178267,-0.53160399
12.8071,781.1802,0.0,-6.66806,-1.94655,7.27041,5.24614,3.77826,5.3,-30.4,21.4,23.7019,124.328598,162.195679,0.10870573483657628,0.840177,-0.228663,-0.47958201
12.8205,781.2002,1.72627,-6.75425,-4.56109,6.69069,5.18689,3.7697,0.8,-26.2,27.3,19.83061,131.887695,152.895325,0.05877369005804271,0.85801297,-0.27902099,-0.42720801
12.8452,781.2202,3.61296,-6.37595,-5.36078,5.64367,6.48559,3.4264,-4.5,-22.5,30.0,16.070496,140.411377,144.200439,0.02213876787085561,0.87203002,-0.33139801,-0.359512
12.8599,781.2402,3.64409,-6.18202,-5.31529,5.39261,6.71955,3.05927,-10.2,-17.0,31.4,11.030028,149.862381,136.962738,0.008658572802691935,-0.88498598,0.37579501,0.27477801
12.8814,781.2602,2.48286,-6.99128,-5.06389,5.37306,4.88818,3.81002,-16.2,-12.6,32.4,4.326529,158.792068,130.56958,0.04320476507237961,-0.88934302,0.41698399,0.182556
12.9024,781.2802,1.97767,-8.58826,-4.20914,6.08227,2.70006,4.78007,-19.5,-6.2,32.5,-2.545509,164.720474,124.006363,0.08183578524093194,-0.876306,0.462533,0.107023
12.9203,781.3002,3.00242,-9.68484,-5.15008,6.8373,0.54004,5.2254,-21.7,0.0,32.6,-10.306059,167.146133,116.565811,0.13453725349173276,-0.84717703,0.51175702,0.047912
12.9461,781.3202,4.90108,-10.17088,-7.31212,6.47995,0.27309,4.71838,-21.7,8.0,32.9,-18.387512,166.53833,108.863945,0.19636996244415555,-0.80833399,0.55500603,0.001818
12.9647,781.3402,7.10381,-9.704,-8.57629,5.64367,0.76361,3.77642,-22.1,14.6,28.2,-25.53084,165.380814,101.801003,0.24834262455386089,-0.76844901,0.58826399,-0.041923
12.9798,781.3602,8.447,-8.63375,-8.85642,4.95584,0.76789,1.9817,-21.2,19.5,25.9,-31.681156,164.880463,96.248482,0.2859648526047897,-0.73406303,0.60984701,-0.086384
13.0007,781.3802,8.65291,-7.67604,-7.75745,4.54961,0.41664,0.43132,-22.4,24.0,24.7,-37.341145,165.207428,93.072151,0.3143144378993103,-0.71023899,0.61636198,-0.12986501
13.0304,781.4002,8.35602,-7.81491,-5.41585,4.53006,0.1668,-1.07324,-22.5,25.9,26.2,-42.885872,166.489304,92.372253,0.3377668164975049,-0.69675398,0.60889202,-0.17233101
13.046,781.4202,8.14293,-8.80614,-2.97369,4.68645,0.58768,-2.38171,-23.1,28.5,23.6,-48.719269,169.531296,94.501785,0.35803647286244444,-0.69171101,0.588148,-0.217779
13.0672,781.4402,7.79336,-10.19003,-1.24263,4.8636,1.96641,-3.32428,-25.8,28.5,20.7,-54.782097,175.994476,99.989471,0.37213443754369036,-0.69002903,0.55812001,-0.27180499
13.0919,781.4602,7.20916,-11.43506,-0.18675,4.80556,3.75135,-3.7641,-27.9,29.0,16.2,-60.364967,-172.1035,109.742546,0.3759635666679685,-0.68538499,0.524535,-0.337286
13.1041,781.4802,6.80453,-12.2132,0.2514,4.79884,5.11419,-3.78609,-32.7,27.4,13.4,-64.335129,-153.92981,124.182823,0.36899530476571096,-0.672562,0.49211499,-0.41149199
13.1224,781.5002,7.47971,-12.45023,0.668,4.77502,5.25286,-3.67674,-34.2,26.2,8.4,-65.882782,-131.596436,141.797653,0.3561045025964702,-0.65037102,0.46113601,-0.48740199
13.1446,781.5202,9.66329,-11.83729,-0.0838,4.66506,4.97492,-3.9443,-36.2,23.2,3.8,-64.694206,-109.770653,159.148697,0.34251225087751075,-0.62396401,0.42774001,-0.55712903
13.16,781.5402,12.02165,-10.80297,-1.35037,3.86117,5.03417,-4.51119,-36.8,20.7,0.6,-60.86219,-92.442551,172.355789,0.3251276736759571,-0.59780699,0.391155,-0.61961001
13.1843,781.5602,13.51329,-9.78301,-1.2977,2.98763,5.10748,-4.99988,-39.2,17.8,-5.2,-55.228569,-80.622276,179.618088,0.2976162702167657,-0.57206303,0.35536,-0.67667401
13.2071,781.5802,14.71282,-8.74389,0.00718,2.62172,4.31824,-5.25889,-39.5,12.6,-10.2,-48.834644,-72.579605,-177.239105,0.26228131753397815,-0.546803,0.32011801,-0.72783202
13.2206,781.6001,15.79264,-7.39831,0.66082,2.31384,3.6976,-5.70604,-38.1,5.0,-14.7,-42.06823,-67.185677,-176.130096,0.2247324579759213,-0.52622098,0.28137299,-0.77033502
13.2631,781.6201,16.24276,-6.18681,1.31685,1.69198,3.5571,-6.356,-37.3,-0.5,-18.7,-34.939541,-63.432892,-176.794098,0.18046412172561943,-0.50841498,0.241243,-0.80668998
13.2678,781.6401,15.46223,-5.58105,2.97369,1.42748,3.34085,-6.85202,-35.3,-5.9,-20.3,-27.518942,-60.561279,-178.935806,0.127715421652669,-0.49165201,0.200839,-0.83763403
13.2958,781.6601,14.44466,-5.1429,4.91784,1.59363,3.03847,-7.26802,-32.9,-11.4,-21.1,-19.827858,-57.974339,178.19191,0.06984677183978673,-0.474942,0.158114,-0.86287397
13.3072,781.6801,13.41752,-4.89629,5.66246,1.81049,3.17775,-7.65531,-29.4,-17.7,-25.3,-11.72152,-55.316322,175.095032,0.009679798059849481,-0.45747599,0.11012,-0.88232398
13.3223,781.7001,12.31136,-4.48687,5.72232,1.76956,3.44531,-7.99006,-24.7,-22.3,-23.3,-3.364623,-52.099773,171.512283,0.05360616400395514,0.43580899,-0.058787,0.89651603
13.341,781.7201,10.81973,-4.07745,5.18121,1.54721,3.4276,-8.29183,-19.4,-27.7,-24.9,5.009953,-48.042843,167.145599,0.11983203048550795,0.408602,-0.005855,0.90479302
13.3602,781.7401,8.90431,-3.96731,4.62574,0.89297,2.99449,-8.40973,-12.5,-30.6,-24.9,12.567785,-43.639366,161.61998,0.18753818699475466,0.38093999,0.041304,0.90443802
13.3844,781.7601,6.79974,-4.06787,4.29533,0.09579,2.84178,-8.01694,-6.6,-32.0,-25.9,17.970184,-39.580997,155.168015,0.25147180494703497,0.35820201,0.071612,0.89628398
13.4018,781.7801,5.43979,-3.86436,4.52518,-0.63236,2.2639,-7.80925,-0.9,-32.1,-25.9,21.683411,-35.051079,147.8685,0.3136170457216564,0.33384299,0.090513,0.88430798
13.4218,781.8001,5.15727,-4.03196,4.37434,-1.26277,1.75749,-8.03038,4.6,-31.1,-25.3,23.943607,-30.573364,139.72641,0.376205857372794,0.31103301,0.09907,0.86712903
13.444,781.8201,4.92023,-4.65447,3.90506,-2.29269,1.48749,-8.19898,9.7,-28.7,-26.8,24.838713,-25.894251,130.501358,0.4422195796914921,0.286459,0.098742,0.84417599
13.4605,781.8401,4.91784,-5.35599,4.16604,-3.27191,0.87112,-8.09269,14.2,-25.9,-28.9,23.863014,-21.357609,120.524727,0.5101734546676843,0.25819799,0.086477,0.81582999
13.4817,781.8601,5.0591,-6.08864,5.12614,-3.84184,0.48567,-8.04565,17.1,-20.8,-30.1,21.144848,-17.821308,110.37175,0.577783595206025,0.228497,0.061889,0.78110498
13.5021,781.8801,4.07506,-7.01762,6.30652,-4.09841,0.70558,-7.67364,21.3,-12.1,-31.6,17.321922,-15.054352,100.271935,0.6433398163740527,0.19509199,0.031583,0.73963201
13.5202,781.9001,3.28734,-7.43901,8.37039,-4.00922,0.66893,-6.8563,23.1,-4.8,-31.9,12.71825,-12.795238,90.867493,0.7018655220807757,0.156137,0.000707,0.69498599
13.5443,781.9201,2.78454,-7.26423,10.27144,-2.97625,0.03302,-6.26742,22.6,-0.4,-32.5,8.142676,-11.494973,82.494499,0.7508915742864339,0.118973,-0.028531,0.64899403
13.566,781.9401,3.61057,-7.05353,9.48372,-2.31041,-0.68108,-5.71703,22.3,5.3,-32.0,4.705829,-11.438129,75.143585,0.790474334064478,0.093089,-0.054007,0.60296601
13.5818,781.9601,5.26022,-7.1948,7.84843,-2.90417,-1.30966,-5.8276,19.2,8.9,-31.1,1.77302,-12.579273,68.289558,0.8234930898900846,0.074212,-0.082027,0.55643803
13.6005,781.9801,4.47011,-7.7359,8.09983,-3.72395,-0.29502,-5.82821,17.7,13.7,-31.7,-1.653386,-14.239135,60.972546,0.854110009498987,0.050535,-0.114058,0.50490898
13.6219,782.0,4.47969,-7.79097,10.79818,-3.14057,-1.13129,-4.98094,15.7,18.6,-29.1,-5.46766,-15.603867,53.731525,0.8798782368019452,0.019121,-0.142314,0.45298499
13.6452,782.02,6.85241,-7.66647,12.59628,-1.82782,-1.64931,-4.99377,11.9,21.4,-28.5,-8.070804,-18.229265,47.46851,0.8971354117454399,-6e-06,-0.17262,0.40663299
13.6595,782.04,8.43264,-8.17645,14.16932,-0.7472,-0.7947,-5.72925,9.6,23.9,-29.1,-8.76963,-21.01269,41.276176,0.912529008755886,-0.006267,-0.196639,0.358587
13.6813,782.06,8.86839,-9.0743,14.9283,0.59059,-1.1203,-6.13792,5.8,24.8,-32.9,-6.803164,-22.847069,34.944847,0.9297897496255698,0.003887,-0.20605101,0.30498999
13.7004,782.08,8.98332,-9.79498,15.08633,1.44275,-1.56867,-6.36516,2.0,24.8,-30.0,-3.058786,-24.806084,28.933292,0.9439250282045709,0.028398,-0.214415,0.24945
13.7208,782.1,8.84445,-10.25229,15.50054,2.32423,-2.06775,-6.43847,-0.5,24.7,-30.8,1.801395,-26.787025,23.235193,0.9534881900967626,0.06162,-0.223785,0.192311
13.7485,782.12,9.62738,-10.2451,15.92432,2.95098,-2.46114,-6.53987,-4.6,21.9,-32.9,7.77178,-28.905319,18.205645,0.9566364054723507,0.104193,-0.235488,0.13614701
13.7602,782.14,11.03042,-10.12539,16.93231,3.48121,-2.38723,-7.07315,-11.5,17.8,-35.2,14.599052,-30.724632,13.377637,0.9538653109859483,0.15229,-0.24671599,0.077974
13.7805,782.16,12.62501,-10.23792,18.16776,4.49585,-2.74703,-7.9473,-15.0,13.1,-33.8,22.571882,-31.889532,8.290223,0.9443530873518654,0.207157,-0.255092,0.014536
13.8047,782.18,13.10865,-10.54439,18.22522,5.38772,-2.78613,-8.70661,-18.3,6.2,-35.2,32.166248,-32.520947,2.76321,0.9240270765112892,0.27236,-0.262555,-0.055307
13.8204,782.2,12.32094,-10.60664,16.64979,5.68765,-1.84478,-8.74998,-18.1,0.1,-32.6,42.853756,-31.544514,-3.596703,0.8922788552544545,0.34344599,-0.26393601,-0.127362
13.8403,782.22,11.17647,-10.05117,14.83493,5.42254,-1.72811,-8.60582,-19.4,-7.3,-33.8,53.363907,-27.384281,-11.683861,0.8527930187481954,0.41248399,-0.254807,-0.19409899
13.8677,782.24,7.50605,-8.9067,13.06556,5.22584,-1.58639,-8.04077,-16.7,-14.5,-32.2,62.939922,-18.707161,-23.98904,0.8055662569166238,0.47505701,-0.242645,-0.25788999
13.8813,782.26,2.78933,-7.08226,12.34967,4.85932,-1.23575,-6.34073,-15.4,-19.7,-29.3,70.418419,-2.82674,-42.890701,0.7550524383408871,0.52911597,-0.229495,-0.31187201
13.9147,782.28,-1.08461,-5.04234,12.95782,5.14948,-1.07509,-4.45132,-14.6,-24.4,-27.8,75.044716,20.087435,-68.025787,0.706764402576205,0.574503,-0.220829,-0.34880501
13.926,782.3,-3.23945,-3.64648,13.07274,6.00408,-1.05005,-2.78977,-13.4,-28.8,-24.0,77.577187,49.033501,-98.884453,0.6586203501442842,0.61633998,-0.222728,-0.36977899
13.9482,782.32,-4.48448,-2.75342,12.40234,6.64793,-0.1252,-1.30659,-11.7,-31.5,-19.3,77.904083,83.586617,-135.086639,0.6086793641282903,0.65801299,-0.235194,-0.37578201
13.961,782.34,-5.29853,-2.4685,11.60505,7.26796,1.13258,0.1039,-12.0,-34.7,-16.3,75.795197,111.705978,-163.723633,0.5659408193931401,0.69529903,-0.24887,-0.36651599
13.9847,782.36,-5.97611,-3.37593,9.93385,8.09813,1.18939,1.56998,-11.8,-37.5,-9.8,73.162445,127.676643,-179.673752,0.5359195662758535,0.72149003,-0.26070899,-0.35252401
14.0028,782.38,-6.14371,-4.82446,7.89871,8.66257,0.38427,3.06843,-13.0,-38.8,-4.7,69.765121,142.169876,165.10527,0.5019852337509939,0.74545199,-0.28441,-0.333801
14.0248,782.3999,-5.75823,-6.68003,5.70795,9.06268,-0.22843,4.25106,-16.2,-36.8,2.9,65.250839,153.824921,151.349991,0.4616293980476979,0.764624,-0.32125601,-0.314711
14.0557,782.4199,-5.18361,-8.56432,3.17241,9.21174,-0.97369,5.24555,-19.8,-33.4,10.6,59.295975,161.675323,139.808197,0.4110824869552093,0.77869201,-0.36877,-0.29775599
14.0623,782.4399,-2.5523,-9.61062,0.51956,9.06452,-1.21254,5.78678,-23.9,-28.6,15.1,51.536587,165.814499,130.088501,0.34421395717184233,0.78758103,-0.42572099,-0.28283301
14.0879,782.4599,2.26259,-8.51404,-2.92341,8.61248,-0.37993,4.98533,-24.2,-22.6,22.2,41.154522,168.040421,121.427116,0.257173938572319,0.79418403,-0.48740801,-0.25606
14.1148,782.4799,5.1022,-6.76861,-5.82288,6.74934,-0.06777,2.57607,-26.9,-18.5,22.2,28.967045,170.417587,114.240295,0.16541011718573867,0.79893899,-0.54133099,-0.203216
14.1217,782.4999,5.36078,-5.80133,-6.12695,5.80983,-0.24187,1.79294,-27.2,-14.6,26.2,18.245621,171.923538,110.150673,0.08987932479641537,0.80113202,-0.57300699,-0.147554
14.1465,782.5199,5.05431,-5.83006,-6.37356,5.78112,-0.72751,1.72208,-28.1,-9.8,26.2,8.707311,173.077789,106.975143,0.025100860782446582,0.79721999,-0.59588099,-0.093467
14.1637,782.5399,4.64729,-6.3999,-6.11019,5.50562,-1.10441,1.66894,-27.5,-5.7,28.1,-0.033697,173.432129,104.17543,0.03545280239867096,-0.78766698,0.61343098,0.045014
14.1882,782.5599,4.70475,-7.46774,-5.47571,5.68582,-1.19665,1.70559,-28.1,-1.4,29.0,-8.118701,173.152145,101.628815,0.09241439466273403,-0.77445,0.62584698,0.001528
14.2011,782.5799,6.04315,-8.56672,-4.76221,5.85503,-0.96208,1.58403,-27.2,3.6,29.1,-16.034784,172.499084,99.093925,0.14793257472767676,-0.757806,0.63416398,-0.041013
14.2237,782.5999,8.2818,-9.73033,-4.02956,6.06822,-0.15879,0.95056,-27.6,6.7,27.4,-23.94924,172.095673,96.908821,0.19963512401784092,-0.73988497,0.63653702,-0.086814
14.2455,782.6199,10.67847,-10.69044,-3.47888,6.31135,0.92794,0.06114,-27.9,11.3,29.5,-32.029854,172.937988,95.708199,0.2438908108711345,-0.72271198,0.63115501,-0.140883
14.2622,782.6399,12.59149,-11.5404,-3.25621,6.32295,1.82041,-0.98955,-28.2,13.7,26.0,-40.28664,175.868423,96.352325,0.27902943922901596,-0.70744097,0.616395,-0.204272
14.2862,782.6599,13.95623,-12.40953,-2.95454,6.20383,2.56261,-1.94738,-29.4,17.5,24.3,-48.211075,-178.522705,99.643585,0.30443547723331893,-0.69395798,0.59287697,-0.27246699
14.302,782.6799,14.72958,-13.5492,-2.62652,6.18368,2.87598,-2.82153,-31.9,18.1,15.7,-55.072186,-171.46582,104.792679,0.32499526962465064,-0.67956698,0.56682199,-0.33358601
14.3213,782.6999,14.71521,-14.80141,-2.30808,6.17635,2.73915,-3.48249,-34.8,17.9,14.9,-61.107944,-159.998688,114.454155,0.3399906616263746,-0.665286,0.53329301,-0.396736
14.3476,782.7199,14.12143,-15.67532,-1.99204,6.0444,2.60232,-3.77876,-37.8,17.3,11.4,-65.39135,-143.022705,130.040817,0.3516806731223933,-0.65112001,0.49231499,-0.45824599
14.3617,782.7399,13.41512,-16.05361,-1.80289,5.72675,2.6408,-3.93514,-38.6,15.9,8.3,-66.794594,-121.87394,149.995361,0.3597560397676714,-0.63566202,0.44717601,-0.51627803
