AppTimestamp(s),SensorTimestamp(s),acc_x,acc_y,acc_z,gyro_x,gyro_y,gyro_z,mag_x,mag_y,mag_z,ble_rssi_BE:AC:20:23:00:02,ble_rssi_BE:AC:20:23:00:04,ble_rssi_BE:AC:20:23:00:06,wifi_rssi_20:23:00:00:00:01,wifi_rssi_20:23:00:00:00:09,wifi_rssi_20:23:00:00:00:12,wifi_rssi_20:23:00:00:00:15,wifi_rssi_20:23:00:00:00:38,wifi_rssi_20:23:00:00:00:44,wifi_rssi_20:23:00:00:00:45,wifi_rssi_20:23:00:00:00:46,wifi_rssi_20:23:00:00:00:55,wifi_rssi_20:23:00:00:00:65,wifi_rssi_20:23:00:00:00:69,wifi_rssi_20:23:00:00:00:73,wifi_rssi_20:23:00:00:00:79,wifi_rssi_20:23:00:00:00:80,wifi_rssi_20:23:00:00:00:82,wifi_rssi_20:23:00:00:00:88,wifi_rssi_20:23:00:00:00:89,wifi_rssi_20:23:00:00:00:90,wifi_rssi_20:23:00:00:01:16,wifi_rssi_20:23:00:00:01:21,wifi_rssi_20:23:00:00:01:27,wifi_rssi_20:23:00:00:01:71,wifi_rssi_20:23:00:00:01:74,wifi_rssi_20:23:00:00:01:81,wifi_rssi_20:23:00:00:01:82,wifi_rssi_20:23:00:00:02:54,wifi_freq_20:23:00:00:00:01,wifi_freq_20:23:00:00:00:09,wifi_freq_20:23:00:00:00:12,wifi_freq_20:23:00:00:00:15,wifi_freq_20:23:00:00:00:38,wifi_freq_20:23:00:00:00:44,wifi_freq_20:23:00:00:00:45,wifi_freq_20:23:00:00:00:46,wifi_freq_20:23:00:00:00:55,wifi_freq_20:23:00:00:00:65,wifi_freq_20:23:00:00:00:69,wifi_freq_20:23:00:00:00:73,wifi_freq_20:23:00:00:00:79,wifi_freq_20:23:00:00:00:80,wifi_freq_20:23:00:00:00:82,wifi_freq_20:23:00:00:00:88,wifi_freq_20:23:00:00:00:89,wifi_freq_20:23:00:00:00:90,wifi_freq_20:23:00:00:01:16,wifi_freq_20:23:00:00:01:21,wifi_freq_20:23:00:00:01:27,wifi_freq_20:23:00:00:01:71,wifi_freq_20:23:00:00:01:74,wifi_freq_20:23:00:00:01:81,wifi_freq_20:23:00:00:01:82,wifi_freq_20:23:00:00:02:54,Latitude_degrees,Longitude_degrees,floor_ID
0.0517,768.3754,-1.65684,6.53158,6.37356,0.34991,-0.60473,0.14544,42.9,5.6,144.7,-110.0,-110.0,-90.0,-62.0,-79.0,-77.0,-84.0,-110.0,-81.0,-84.0,-110.0,-84.0,-79.0,-83.0,-64.0,-110.0,-92.0,-110.0,-110.0,-110.0,-57.0,-110.0,-110.0,-110.0,-89.0,-110.0,-92.0,-87.0,-110.0,2437.0,5200.0,2417.0,2452.0,-1.0,2462.0,2412.0,-1.0,2427.0,2437.0,2422.0,2437.0,-1.0,5220.0,-1.0,-1.0,-1.0,2437.0,-1.0,-1.0,-1.0,2462.0,-1.0,2462.0,2462.0,-1.0,49.461087810283,11.110832476574,-2.0
0.056,768.3954,-1.45093,6.76861,6.11737,-0.15833,-0.95719,0.29449,42.7,5.6,144.60001,-110.0,-110.0,-90.0,-62.0,-79.0,-77.0,-84.0,-110.0,-81.0,-84.0,-110.0,-84.0,-79.0,-83.0,-64.0,-110.0,-92.0,-110.0,-110.0,-110.0,-57.0,-110.0,-110.0,-110.0,-89.0,-110.0,-92.0,-87.0,-110.0,2437.0,5200.0,2417.0,2452.0,-1.0,2462.0,2412.0,-1.0,2427.0,2437.0,2422.0,2437.0,-1.0,5220.0,-1.0,-1.0,-1.0,2437.0,-1.0,-1.0,-1.0,2462.0,-1.0,2462.0,2462.0,-1.0,49.461087810283,11.110832476574,-2.0
0.0648,768.4154,-0.93856,7.02001,6.62496,-0.41123,-1.05371,0.23279,42.4,5.6,144.5,-110.0,-110.0,-90.0,-62.0,-79.0,-77.0,-84.0,-110.0,-81.0,-84.0,-110.0,-84.0,-79.0,-83.0,-64.0,-110.0,-92.0,-110.0,-110.0,-110.0,-57.0,-110.0,-110.0,-110.0,-89.0,-110.0,-92.0,-87.0,-110.0,2437.0,5200.0,2417.0,2452.0,-1.0,2462.0,2412.0,-1.0,2427.0,2437.0,2422.0,2437.0,-1.0,5220.0,-1.0,-1.0,-1.0,2437.0,-1.0,-1.0,-1.0,2462.0,-1.0,2462.0,2462.0,-1.0,49.461087810283,11.110832476574,-2.0
0.0699,768.4354,-0.51716,7.14452,7.22832,-0.4546,-0.90344,-0.07386,42.2,5.6,144.5,-110.0,-110.0,-90.0,-62.0,-79.0,-77.0,-84.0,-110.0,-81.0,-84.0,-110.0,-84.0,-79.0,-83.0,-64.0,-110.0,-92.0,-110.0,-110.0,-110.0,-57.0,-110.0,-110.0,-110.0,-89.0,-110.0,-92.0,-87.0,-110.0,2437.0,5200.0,2417.0,2452.0,-1.0,2462.0,2412.0,-1.0,2427.0,2437.0,2422.0,2437.0,-1.0,5220.0,-1.0,-1.0,-1.0,2437.0,-1.0,-1.0,-1.0,2462.0,-1.0,2462.0,2462.0,-1.0,49.461087810283,11.110832476574,-2.0
0.0781,768.4554,-0.5435,7.21874,7.62577,-0.47537,-1.02683,-0.2785,41.9,5.5,144.2,-110.0,-110.0,-90.0,-62.0,-79.0,-77.0,-84.0,-110.0,-81.0,-84.0,-110.0,-84.0,-79.0,-83.0,-64.0,-110.0,-92.0,-110.0,-110.0,-110.0,-57.0,-110.0,-110.0,-110.0,-89.0,-110.0,-92.0,-87.0,-110.0,2437.0,5200.0,2417.0,2452.0,-1.0,2462.0,2412.0,-1.0,2427.0,2437.0,2422.0,2437.0,-1.0,5220.0,-1.0,-1.0,-1.0,2437.0,-1.0,-1.0,-1.0,2462.0,-1.0,2462.0,2462.0,-1.0,49.461087810283,11.110832476574,-2.0
0.1031,768.4753,-0.84997,6.89072,7.6952,-0.36358,-1.70978,-0.1209,41.6,5.6,143.90001,-110.0,-110.0,-90.0,-62.0,-79.0,-77.0,-84.0,-110.0,-81.0,-84.0,-110.0,-84.0,-79.0,-83.0,-64.0,-110.0,-92.0,-110.0,-110.0,-110.0,-57.0,-110.0,-110.0,-110.0,-89.0,-110.0,-92.0,-87.0,-110.0,2437.0,5200.0,2417.0,2452.0,-1.0,2462.0,2412.0,-1.0,2427.0,2437.0,2422.0,2437.0,-1.0,5220.0,-1.0,-1.0,-1.0,2437.0,-1.0,-1.0,-1.0,2462.0,-1.0,2462.0,2462.0,-1.0,49.461087810283,11.110832476574,-2.0
0.1406,768.4953,-1.13489,6.62256,7.94181,-0.23346,-2.40006,0.17904,41.4,5.6,143.60001,-110.0,-110.0,-90.0,-62.0,-79.0,-77.0,-84.0,-110.0,-81.0,-84.0,-110.0,-84.0,-79.0,-83.0,-64.0,-110.0,-92.0,-110.0,-110.0,-110.0,-57.0,-110.0,-110.0,-110.0,-89.0,-110.0,-92.0,-87.0,-110.0,2437.0,5200.0,2417.0,2452.0,-1.0,2462.0,2412.0,-1.0,2427.0,2437.0,2422.0,2437.0,-1.0,5220.0,-1.0,-1.0,-1.0,2437.0,-1.0,-1.0,-1.0,2462.0,-1.0,2462.0,2462.0,-1.0,49.461087810283,11.110832476574,-2.0
0.1431,768.5153,-0.71349,6.52679,8.01364,-0.16321,-2.49169,0.57671,41.1,5.6,143.3,-110.0,-110.0,-90.0,-62.0,-79.0,-77.0,-84.0,-110.0,-81.0,-84.0,-110.0,-84.0,-79.0,-83.0,-64.0,-110.0,-92.0,-110.0,-110.0,-110.0,-57.0,-110.0,-110.0,-110.0,-89.0,-110.0,-92.0,-87.0,-110.0,2437.0,5200.0,2417.0,2452.0,-1.0,2462.0,2412.0,-1.0,2427.0,2437.0,2422.0,2437.0,-1.0,5220.0,-1.0,-1.0,-1.0,2437.0,-1.0,-1.0,-1.0,2462.0,-1.0,2462.0,2462.0,-1.0,49.461087810283,11.110832476574,-2.0
0.1609,768.5353,-0.14126,6.6058,7.59464,-0.41917,-1.94924,0.73798,40.2,5.6,142.3,-110.0,-110.0,-90.0,-62.0,-79.0,-77.0,-84.0,-110.0,-81.0,-84.0,-110.0,-84.0,-79.0,-83.0,-64.0,-110.0,-92.0,-110.0,-110.0,-110.0,-57.0,-110.0,-110.0,-110.0,-89.0,-110.0,-92.0,-87.0,-110.0,2437.0,5200.0,2417.0,2452.0,-1.0,2462.0,2412.0,-1.0,2427.0,2437.0,2422.0,2437.0,-1.0,5220.0,-1.0,-1.0,-1.0,2437.0,-1.0,-1.0,-1.0,2462.0,-1.0,2462.0,2462.0,-1.0,49.461087810283,11.110832476574,-2.0
0.1775,768.5553,0.43097,6.52679,7.01044,-1.04225,-1.33166,0.50768,37.7,5.6,140.40001,-110.0,-110.0,-90.0,-62.0,-79.0,-77.0,-84.0,-110.0,-81.0,-84.0,-110.0,-84.0,-79.0,-83.0,-64.0,-110.0,-92.0,-110.0,-110.0,-110.0,-57.0,-110.0,-110.0,-110.0,-89.0,-110.0,-92.0,-87.0,-110.0,2437.0,5200.0,2417.0,2452.0,-1.0,2462.0,2412.0,-1.0,2427.0,2437.0,2422.0,2437.0,-1.0,5220.0,-1.0,-1.0,-1.0,2437.0,-1.0,-1.0,-1.0,2462.0,-1.0,2462.0,2462.0,-1.0,49.461087810283,11.110832476574,-2.0
0.1962,768.5753,0.38787,6.11977,6.33046,-1.67572,-0.9126,0.40628,38.7,5.3,140.40001,-110.0,-110.0,-90.0,-62.0,-79.0,-77.0,-84.0,-110.0,-81.0,-84.0,-110.0,-84.0,-79.0,-83.0,-64.0,-110.0,-92.0,-110.0,-110.0,-110.0,-57.0,-110.0,-110.0,-110.0,-89.0,-110.0,-92.0,-87.0,-110.0,2437.0,5200.0,2417.0,2452.0,-1.0,2462.0,2412.0,-1.0,2427.0,2437.0,2422.0,2437.0,-1.0,5220.0,-1.0,-1.0,-1.0,2437.0,-1.0,-1.0,-1.0,2462.0,-1.0,2462.0,2462.0,-1.0,49.461087810283,11.110832476574,-2.0
0.2164,768.5953,0.35196,5.54514,6.4837,-2.16502,-0.93826,0.73065,38.0,6.1,140.40001,-110.0,-110.0,-90.0,-62.0,-79.0,-77.0,-84.0,-110.0,-81.0,-84.0,-110.0,-84.0,-79.0,-83.0,-64.0,-110.0,-92.0,-110.0,-110.0,-110.0,-57.0,-110.0,-110.0,-110.0,-89.0,-110.0,-92.0,-87.0,-110.0,2437.0,5200.0,2417.0,2452.0,-1.0,2462.0,2412.0,-1.0,2427.0,2437.0,2422.0,2437.0,-1.0,5220.0,-1.0,-1.0,-1.0,2437.0,-1.0,-1.0,-1.0,2462.0,-1.0,2462.0,2462.0,-1.0,49.461087810283,11.110832476574,-2.0
0.241,768.6153,1.43896,5.605,9.49809,-1.19741,-1.65847,0.80456,33.6,7.2,137.0,-110.0,-110.0,-90.0,-62.0,-79.0,-77.0,-84.0,-110.0,-81.0,-84.0,-110.0,-84.0,-79.0,-83.0,-64.0,-110.0,-92.0,-110.0,-110.0,-110.0,-57.0,-110.0,-110.0,-110.0,-89.0,-110.0,-92.0,-87.0,-110.0,2437.0,5200.0,2417.0,2452.0,-1.0,2462.0,2412.0,-1.0,2427.0,2437.0,2422.0,2437.0,-1.0,5220.0,-1.0,-1.0,-1.0,2437.0,-1.0,-1.0,-1.0,2462.0,-1.0,2462.0,2462.0,-1.0,49.461087810283,11.110832476574,-2.0
0.256,768.6353,1.7143,5.20515,10.82691,1.07623,-0.63099,0.30426,36.2,6.3,138.40001,-110.0,-110.0,-90.0,-62.0,-79.0,-77.0,-84.0,-110.0,-81.0,-84.0,-110.0,-84.0,-79.0,-83.0,-64.0,-110.0,-92.0,-110.0,-110.0,-110.0,-57.0,-110.0,-110.0,-110.0,-89.0,-110.0,-92.0,-87.0,-110.0,2437.0,5200.0,2417.0,2452.0,-1.0,2462.0,2412.0,-1.0,2427.0,2437.0,2422.0,2437.0,-1.0,5220.0,-1.0,-1.0,-1.0,2437.0,-1.0,-1.0,-1.0,2462.0,-1.0,2462.0,2462.0,-1.0,49.461087810283,11.110832476574,-2.0
0.2762,768.6553,1.14925,4.92263,9.26345,1.7604,-0.08793,0.85465,33.3,6.7,138.2,-110.0,-110.0,-90.0,-62.0,-79.0,-77.0,-84.0,-110.0,-81.0,-84.0,-110.0,-84.0,-79.0,-83.0,-64.0,-110.0,-92.0,-110.0,-110.0,-110.0,-57.0,-110.0,-110.0,-110.0,-89.0,-110.0,-92.0,-87.0,-110.0,2437.0,5200.0,2417.0,2452.0,-1.0,2462.0,2412.0,-1.0,2427.0,2437.0,2422.0,2437.0,-1.0,5220.0,-1.0,-1.0,-1.0,2437.0,-1.0,-1.0,-1.0,2462.0,-1.0,2462.0,2462.0,-1.0,49.461087810283,11.110832476574,-2.0
0.299,768.6753,1.36713,5.22431,6.79974,0.81173,0.19917,1.02631,35.0,5.1,139.0,-110.0,-110.0,-90.0,-62.0,-79.0,-77.0,-84.0,-110.0,-81.0,-84.0,-110.0,-84.0,-79.0,-83.0,-64.0,-110.0,-92.0,-110.0,-110.0,-110.0,-57.0,-110.0,-110.0,-110.0,-89.0,-110.0,-92.0,-87.0,-110.0,2437.0,5200.0,2417.0,2452.0,-1.0,2462.0,2412.0,-1.0,2427.0,2437.0,2422.0,2437.0,-1.0,5220.0,-1.0,-1.0,-1.0,2437.0,-1.0,-1.0,-1.0,2462.0,-1.0,2462.0,2462.0,-1.0,49.461087810283,11.110832476574,-2.0
0.3164,768.6953,2.28893,5.83485,6.32807,-0.70016,-0.79776,0.36779,34.8,4.9,139.10001,-110.0,-110.0,-90.0,-62.0,-79.0,-77.0,-84.0,-110.0,-81.0,-84.0,-110.0,-84.0,-79.0,-83.0,-64.0,-110.0,-92.0,-110.0,-110.0,-110.0,-57.0,-110.0,-110.0,-110.0,-89.0,-110.0,-92.0,-87.0,-110.0,2437.0,5200.0,2417.0,2452.0,-1.0,2462.0,2412.0,-1.0,2427.0,2437.0,2422.0,2437.0,-1.0,5220.0,-1.0,-1.0,-1.0,2437.0,-1.0,-1.0,-1.0,2462.0,-1.0,2462.0,2462.0,-1.0,49.461087810283,11.110832476574,-2.0
0.3443,768.7153,2.41343,5.80372,8.028,-0.03799,-0.98224,0.07886,34.8,5.3,138.8,-110.0,-110.0,-90.0,-62.0,-79.0,-77.0,-84.0,-110.0,-81.0,-84.0,-110.0,-84.0,-79.0,-83.0,-64.0,-110.0,-92.0,-110.0,-110.0,-110.0,-57.0,-110.0,-110.0,-110.0,-89.0,-110.0,-92.0,-87.0,-110.0,2437.0,5200.0,2417.0,2452.0,-1.0,2462.0,2412.0,-1.0,2427.0,2437.0,2422.0,2437.0,-1.0,5220.0,-1.0,-1.0,-1.0,2437.0,-1.0,-1.0,-1.0,2462.0,-1.0,2462.0,2462.0,-1.0,49.461087810283,11.110832476574,-2.0
0.3579,768.7353,2.23865,5.45176,8.38954,1.1532,-0.79715,-0.04515,34.3,5.2,139.0,-110.0,-110.0,-90.0,-62.0,-79.0,-77.0,-84.0,-110.0,-81.0,-84.0,-110.0,-84.0,-79.0,-83.0,-64.0,-110.0,-92.0,-110.0,-110.0,-110.0,-57.0,-110.0,-110.0,-110.0,-89.0,-110.0,-92.0,-87.0,-110.0,2437.0,5200.0,2417.0,2452.0,-1.0,2462.0,2412.0,-1.0,2427.0,2437.0,2422.0,2437.0,-1.0,5220.0,-1.0,-1.0,-1.0,2437.0,-1.0,-1.0,-1.0,2462.0,-1.0,2462.0,2462.0,-1.0,49.461087810283,11.110832476574,-2.0
0.3759,768.7553,2.49244,5.30571,7.5683,1.09517,-0.11298,-0.15816,33.4,5.2,138.10001,-110.0,-110.0,-90.0,-62.0,-79.0,-77.0,-84.0,-110.0,-81.0,-84.0,-110.0,-84.0,-79.0,-83.0,-64.0,-110.0,-92.0,-110.0,-110.0,-110.0,-57.0,-110.0,-110.0,-110.0,-89.0,-110.0,-92.0,-87.0,-110.0,2437.0,5200.0,2417.0,2452.0,-1.0,2462.0,2412.0,-1.0,2427.0,2437.0,2422.0,2437.0,-1.0,5220.0,-1.0,-1.0,-1.0,2437.0,-1.0,-1.0,-1.0,2462.0,-1.0,2462.0,2462.0,-1.0,49.461087810283,11.110832476574,-2.0
0.3999,768.7753,3.65845,5.40627,6.99847,0.78241,0.13992,-0.60654,33.3,5.0,137.90001,-110.0,-110.0,-90.0,-62.0,-79.0,-77.0,-84.0,-110.0,-81.0,-84.0,-110.0,-84.0,-79.0,-83.0,-64.0,-110.0,-92.0,-110.0,-110.0,-110.0,-57.0,-110.0,-110.0,-110.0,-89.0,-110.0,-92.0,-87.0,-110.0,2437.0,5200.0,2417.0,2452.0,-1.0,2462.0,2412.0,-1.0,2427.0,2437.0,2422.0,2437.0,-1.0,5220.0,-1.0,-1.0,-1.0,2437.0,-1.0,-1.0,-1.0,2462.0,-1.0,2462.0,2462.0,-1.0,49.461087810283,11.110832476574,-2.0
0.422,768.7953,2.95454,5.9809,6.40947,0.92107,-0.7721,-1.89852,33.3,5.1,138.10001,-110.0,-110.0,-90.0,-62.0,-79.0,-77.0,-84.0,-110.0,-81.0,-84.0,-110.0,-84.0,-79.0,-83.0,-64.0,-110.0,-92.0,-110.0,-110.0,-110.0,-57.0,-110.0,-110.0,-110.0,-89.0,-110.0,-92.0,-87.0,-110.0,2437.0,5200.0,2417.0,2452.0,-1.0,2462.0,2412.0,-1.0,2427.0,2437.0,2422.0,2437.0,-1.0,5220.0,-1.0,-1.0,-1.0,2437.0,-1.0,-1.0,-1.0,2462.0,-1.0,2462.0,2462.0,-1.0,49.461087810283,11.110832476574,-2.0
0.4398,768.8153,-0.06943,6.39511,5.02079,0.38656,-0.36466,0.42338,32.2,5.0,137.3,-110.0,-110.0,-90.0,-62.0,-79.0,-77.0,-84.0,-110.0,-81.0,-84.0,-110.0,-84.0,-79.0,-83.0,-64.0,-110.0,-92.0,-110.0,-110.0,-110.0,-57.0,-110.0,-110.0,-110.0,-89.0,-110.0,-92.0,-87.0,-110.0,2437.0,5200.0,2417.0,2452.0,-1.0,2462.0,2412.0,-1.0,2427.0,2437.0,2422.0,2437.0,-1.0,5220.0,-1.0,-1.0,-1.0,2437.0,-1.0,-1.0,-1.0,2462.0,-1.0,2462.0,2462.0,-1.0,49.461087810283,11.110832476574,-2.0
0.4569,768.8353,0.63927,6.42384,4.6401,-0.55539,0.16313,0.67139,31.3,4.9,137.5,-110.0,-110.0,-90.0,-62.0,-79.0,-77.0,-84.0,-110.0,-81.0,-84.0,-110.0,-84.0,-79.0,-83.0,-64.0,-110.0,-92.0,-110.0,-110.0,-110.0,-57.0,-110.0,-110.0,-110.0,-89.0,-110.0,-92.0,-87.0,-110.0,2437.0,5200.0,2417.0,2452.0,-1.0,2462.0,2412.0,-1.0,2427.0,2437.0,2422.0,2437.0,-1.0,5220.0,-1.0,-1.0,-1.0,2437.0,-1.0,-1.0,-1.0,2462.0,-1.0,2462.0,2462.0,-1.0,49.461087810283,11.110832476574,-2.0
0.477,768.8553,0.90504,5.9785,5.30332,-1.06363,0.48567,1.24378,30.4,4.6,137.10001,-110.0,-110.0,-90.0,-62.0,-79.0,-77.0,-84.0,-110.0,-81.0,-84.0,-110.0,-84.0,-79.0,-83.0,-64.0,-110.0,-92.0,-110.0,-110.0,-110.0,-57.0,-110.0,-110.0,-110.0,-89.0,-110.0,-92.0,-87.0,-110.0,2437.0,5200.0,2417.0,2452.0,-1.0,2462.0,2412.0,-1.0,2427.0,2437.0,2422.0,2437.0,-1.0,5220.0,-1.0,-1.0,-1.0,2437.0,-1.0,-1.0,-1.0,2462.0,-1.0,2462.0,2462.0,-1.0,49.461087810283,11.110832476574,-2.0
0.4997,768.8753,2.0088,6.22033,6.3568,-0.71177,0.53576,1.01165,30.3,4.9,137.60001,-110.0,-110.0,-90.0,-62.0,-79.0,-77.0,-84.0,-110.0,-81.0,-84.0,-110.0,-84.0,-79.0,-83.0,-64.0,-110.0,-92.0,-110.0,-110.0,-110.0,-57.0,-110.0,-110.0,-110.0,-89.0,-110.0,-92.0,-87.0,-110.0,2437.0,5200.0,2417.0,2452.0,-1.0,2462.0,2412.0,-1.0,2427.0,2437.0,2422.0,2437.0,-1.0,5220.0,-1.0,-1.0,-1.0,2437.0,-1.0,-1.0,-1.0,2462.0,-1.0,2462.0,2462.0,-1.0,49.461087810283,11.110832476574,-2.0
0.5336,768.8952,2.69595,6.25385,6.92185,-0.30921,0.17657,0.11429,30.3,4.8,137.40001,-110.0,-110.0,-90.0,-62.0,-79.0,-77.0,-84.0,-110.0,-81.0,-84.0,-110.0,-84.0,-79.0,-83.0,-64.0,-110.0,-92.0,-110.0,-110.0,-110.0,-57.0,-110.0,-110.0,-110.0,-89.0,-110.0,-92.0,-87.0,-110.0,2437.0,5200.0,2417.0,2452.0,-1.0,2462.0,2412.0,-1.0,2427.0,2437.0,2422.0,2437.0,-1.0,5220.0,-1.0,-1.0,-1.0,2437.0,-1.0,-1.0,-1.0,2462.0,-1.0,2462.0,2462.0,-1.0,49.461087810283,11.110832476574,-2.0
0.5463,768.9152,2.65286,6.09103,7.18043,-0.42589,0.07883,0.10329,30.2,4.5,137.5,-110.0,-110.0,-90.0,-62.0,-79.0,-77.0,-84.0,-110.0,-81.0,-84.0,-110.0,-84.0,-79.0,-83.0,-64.0,-110.0,-92.0,-110.0,-110.0,-110.0,-57.0,-110.0,-110.0,-110.0,-89.0,-110.0,-92.0,-87.0,-110.0,2437.0,5200.0,2417.0,2452.0,-1.0,2462.0,2412.0,-1.0,2427.0,2437.0,2422.0,2437.0,-1.0,5220.0,-1.0,-1.0,-1.0,2437.0,-1.0,-1.0,-1.0,2462.0,-1.0,2462.0,2462.0,-1.0,49.461087810283,11.110832476574,-2.0
0.5563,768.9352,2.66962,6.01202,7.51802,-0.3257,0.44108,0.13017,29.9,4.4,137.5,-110.0,-110.0,-90.0,-62.0,-79.0,-77.0,-84.0,-110.0,-81.0,-84.0,-110.0,-84.0,-79.0,-83.0,-64.0,-110.0,-92.0,-110.0,-110.0,-110.0,-57.0,-110.0,-110.0,-110.0,-89.0,-110.0,-92.0,-87.0,-110.0,2437.0,5200.0,2417.0,2452.0,-1.0,2462.0,2412.0,-1.0,2427.0,2437.0,2422.0,2437.0,-1.0,5220.0,-1.0,-1.0,-1.0,2437.0,-1.0,-1.0,-1.0,2462.0,-1.0,2462.0,2462.0,-1.0,49.461087810283,11.110832476574,-2.0
0.5785,768.9552,2.68638,6.03836,7.55633,-0.18826,0.32684,0.10451,29.6,4.3,137.3,-110.0,-110.0,-90.0,-62.0,-79.0,-77.0,-84.0,-110.0,-81.0,-84.0,-110.0,-84.0,-79.0,-83.0,-64.0,-110.0,-92.0,-110.0,-110.0,-110.0,-57.0,-110.0,-110.0,-110.0,-89.0,-110.0,-92.0,-87.0,-110.0,2437.0,5200.0,2417.0,2452.0,-1.0,2462.0,2412.0,-1.0,2427.0,2437.0,2422.0,2437.0,-1.0,5220.0,-1.0,-1.0,-1.0,2437.0,-1.0,-1.0,-1.0,2462.0,-1.0,2462.0,2462.0,-1.0,49.461087810283,11.110832476574,-2.0
0.6003,768.9752,2.59061,6.20596,7.08705,-0.24263,0.12831,-0.07508,29.3,4.3,137.10001,-110.0,-110.0,-90.0,-62.0,-79.0,-77.0,-84.0,-110.0,-81.0,-84.0,-110.0,-84.0,-79.0,-83.0,-64.0,-110.0,-92.0,-110.0,-110.0,-110.0,-57.0,-110.0,-110.0,-110.0,-89.0,-110.0,-92.0,-87.0,-110.0,2437.0,5200.0,2417.0,2452.0,-1.0,2462.0,2412.0,-1.0,2427.0,2437.0,2422.0,2437.0,-1.0,5220.0,-1.0,-1.0,-1.0,2437.0,-1.0,-1.0,-1.0,2462.0,-1.0,2462.0,2462.0,-1.0,49.461087810283,11.110832476574,-2.0
0.6217,768.9952,2.92102,6.34722,7.36718,-0.45948,-0.46117,-0.26017,29.0,4.4,136.90001,-110.0,-110.0,-90.0,-62.0,-79.0,-77.0,-84.0,-110.0,-81.0,-84.0,-110.0,-84.0,-79.0,-83.0,-64.0,-110.0,-92.0,-110.0,-110.0,-110.0,-57.0,-110.0,-110.0,-110.0,-89.0,-110.0,-92.0,-87.0,-110.0,2437.0,5200.0,2417.0,2452.0,-1.0,2462.0,2412.0,-1.0,2427.0,2437.0,2422.0,2437.0,-1.0,5220.0,-1.0,-1.0,-1.0,2437.0,-1.0,-1.0,-1.0,2462.0,-1.0,2462.0,2462.0,-1.0,49.461087810283,11.110832476574,-2.0
0.6478,769.0152,2.88989,6.35919,8.55235,-0.12717,-1.11052,-0.51124,28.6,4.5,136.7,-110.0,-110.0,-90.0,-62.0,-79.0,-77.0,-84.0,-110.0,-81.0,-84.0,-110.0,-84.0,-79.0,-83.0,-64.0,-110.0,-92.0,-110.0,-110.0,-110.0,-57.0,-110.0,-110.0,-110.0,-89.0,-110.0,-92.0,-87.0,-110.0,2437.0,5200.0,2417.0,2452.0,-1.0,2462.0,2412.0,-1.0,2427.0,2437.0,2422.0,2437.0,-1.0,5220.0,-1.0,-1.0,-1.0,2437.0,-1.0,-1.0,-1.0,2462.0,-1.0,2462.0,2462.0,-1.0,49.461087810283,11.110832476574,-2.0
0.6662,769.0352,3.00481,6.69679,8.62178,0.3438,-1.71406,-0.20459,28.2,4.6,136.3,-110.0,-110.0,-90.0,-62.0,-79.0,-77.0,-84.0,-110.0,-81.0,-84.0,-110.0,-84.0,-79.0,-83.0,-64.0,-110.0,-92.0,-110.0,-110.0,-110.0,-57.0,-110.0,-110.0,-110.0,-89.0,-110.0,-92.0,-87.0,-110.0,2437.0,5200.0,2417.0,2452.0,-1.0,2462.0,2412.0,-1.0,2427.0,2437.0,2422.0,2437.0,-1.0,5220.0,-1.0,-1.0,-1.0,2437.0,-1.0,-1.0,-1.0,2462.0,-1.0,2462.0,2462.0,-1.0,49.461087810283,11.110832476574,-2.0
0.6963,769.0552,3.6393,7.1493,7.7766,0.07869,-1.25346,-0.37135,28.0,4.7,136.10001,-110.0,-110.0,-90.0,-62.0,-79.0,-77.0,-84.0,-110.0,-81.0,-84.0,-110.0,-84.0,-79.0,-83.0,-64.0,-110.0,-92.0,-110.0,-110.0,-110.0,-57.0,-110.0,-110.0,-110.0,-89.0,-110.0,-92.0,-87.0,-110.0,2437.0,5200.0,2417.0,2452.0,-1.0,2462.0,2412.0,-1.0,2427.0,2437.0,2422.0,2437.0,-1.0,5220.0,-1.0,-1.0,-1.0,2437.0,-1.0,-1.0,-1.0,2462.0,-1.0,2462.0,2462.0,-1.0,49.461087810283,11.110832476574,-2.0
0.7058,769.0752,4.06548,7.46774,7.54675,-0.43444,-1.02622,-0.37929,27.6,4.9,135.8,-110.0,-110.0,-90.0,-62.0,-79.0,-77.0,-84.0,-110.0,-81.0,-84.0,-110.0,-84.0,-79.0,-83.0,-64.0,-110.0,-92.0,-110.0,-110.0,-110.0,-57.0,-110.0,-110.0,-110.0,-89.0,-110.0,-92.0,-87.0,-110.0,2437.0,5200.0,2417.0,2452.0,-1.0,2462.0,2412.0,-1.0,2427.0,2437.0,2422.0,2437.0,-1.0,5220.0,-1.0,-1.0,-1.0,2437.0,-1.0,-1.0,-1.0,2462.0,-1.0,2462.0,2462.0,-1.0,49.461087810283,11.110832476574,-2.0
0.7208,769.0952,4.63053,7.47253,9.0743,-0.24751,-1.88571,-0.65846,27.2,5.1,135.40001,-110.0,-110.0,-90.0,-62.0,-79.0,-77.0,-84.0,-110.0,-81.0,-84.0,-110.0,-84.0,-79.0,-83.0,-64.0,-110.0,-92.0,-110.0,-110.0,-110.0,-57.0,-110.0,-110.0,-110.0,-89.0,-110.0,-92.0,-87.0,-110.0,2437.0,5200.0,2417.0,2452.0,-1.0,2462.0,2412.0,-1.0,2427.0,2437.0,2422.0,2437.0,-1.0,5220.0,-1.0,-1.0,-1.0,2437.0,-1.0,-1.0,-1.0,2462.0,-1.0,2462.0,2462.0,-1.0,49.461087810283,11.110832476574,-2.0
0.7422,769.1152,4.59701,7.4007,10.21398,0.94306,-3.13859,-1.01826,26.8,5.3,135.2,-98.0,-110.0,-110.0,-62.0,-79.0,-77.0,-84.0,-110.0,-81.0,-84.0,-110.0,-84.0,-79.0,-83.0,-64.0,-110.0,-92.0,-110.0,-110.0,-110.0,-57.0,-110.0,-110.0,-110.0,-89.0,-110.0,-92.0,-87.0,-110.0,2437.0,5200.0,2417.0,2452.0,-1.0,2462.0,2412.0,-1.0,2427.0,2437.0,2422.0,2437.0,-1.0,5220.0,-1.0,-1.0,-1.0,2437.0,-1.0,-1.0,-1.0,2462.0,-1.0,2462.0,2462.0,-1.0,49.461087810283,11.110832476574,-2.0
0.7608,769.1352,4.20195,7.32409,9.88117,2.02246,-4.67859,-1.13799,26.4,5.3,135.0,-98.0,-110.0,-110.0,-62.0,-79.0,-77.0,-84.0,-110.0,-81.0,-84.0,-110.0,-84.0,-79.0,-83.0,-64.0,-110.0,-92.0,-110.0,-110.0,-110.0,-57.0,-110.0,-110.0,-110.0,-89.0,-110.0,-92.0,-87.0,-110.0,2437.0,5200.0,2417.0,2452.0,-1.0,2462.0,2412.0,-1.0,2427.0,2437.0,2422.0,2437.0,-1.0,5220.0,-1.0,-1.0,-1.0,2437.0,-1.0,-1.0,-1.0,2462.0,-1.0,2462.0,2462.0,-1.0,49.461087810283,11.110832476574,-2.0
0.7864,769.1552,3.87873,7.25944,9.39992,2.57835,-6.15749,-1.29987,25.0,4.9,135.0,-98.0,-110.0,-110.0,-62.0,-79.0,-77.0,-84.0,-110.0,-81.0,-84.0,-110.0,-84.0,-79.0,-83.0,-64.0,-110.0,-92.0,-110.0,-110.0,-110.0,-57.0,-110.0,-110.0,-110.0,-89.0,-110.0,-92.0,-87.0,-110.0,2437.0,5200.0,2417.0,2452.0,-1.0,2462.0,2412.0,-1.0,2427.0,2437.0,2422.0,2437.0,-1.0,5220.0,-1.0,-1.0,-1.0,2437.0,-1.0,-1.0,-1.0,2462.0,-1.0,2462.0,2462.0,-1.0,49.461087810283,11.110832476574,-2.0
0.7973,769.1752,3.07185,7.06311,9.04796,3.50442,-7.87524,-1.59308,19.5,2.5,136.90001,-98.0,-110.0,-110.0,-62.0,-79.0,-77.0,-84.0,-110.0,-81.0,-84.0,-110.0,-84.0,-79.0,-83.0,-64.0,-110.0,-92.0,-110.0,-110.0,-110.0,-57.0,-110.0,-110.0,-110.0,-89.0,-110.0,-92.0,-87.0,-110.0,2437.0,5200.0,2417.0,2452.0,-1.0,2462.0,2412.0,-1.0,2427.0,2437.0,2422.0,2437.0,-1.0,5220.0,-1.0,-1.0,-1.0,2437.0,-1.0,-1.0,-1.0,2462.0,-1.0,2462.0,2462.0,-1.0,49.461087810283,11.110832476574,-2.0
0.8163,769.1952,1.41741,6.66806,8.13575,4.17821,-8.87523,-1.36462,18.3,-1.5,140.40001,-98.0,-110.0,-110.0,-62.0,-79.0,-77.0,-84.0,-110.0,-81.0,-84.0,-110.0,-84.0,-79.0,-83.0,-64.0,-110.0,-92.0,-110.0,-110.0,-110.0,-57.0,-110.0,-110.0,-110.0,-89.0,-110.0,-92.0,-87.0,-110.0,2437.0,5200.0,2417.0,2452.0,-1.0,2462.0,2412.0,-1.0,2427.0,2437.0,2422.0,2437.0,-1.0,5220.0,-1.0,-1.0,-1.0,2437.0,-1.0,-1.0,-1.0,2462.0,-1.0,2462.0,2462.0,-1.0,49.461087810283,11.110832476574,-2.0
0.8453,769.2152,-1.18038,6.05512,6.97931,4.63819,-9.63942,-0.54667,14.5,-3.5,146.0,-110.0,-110.0,-90.0,-62.0,-79.0,-77.0,-84.0,-110.0,-81.0,-84.0,-110.0,-84.0,-79.0,-83.0,-64.0,-110.0,-92.0,-110.0,-110.0,-110.0,-57.0,-110.0,-110.0,-110.0,-89.0,-110.0,-92.0,-87.0,-110.0,2437.0,5200.0,2417.0,2452.0,-1.0,2462.0,2412.0,-1.0,2427.0,2437.0,2422.0,2437.0,-1.0,5220.0,-1.0,-1.0,-1.0,2437.0,-1.0,-1.0,-1.0,2462.0,-1.0,2462.0,2462.0,-1.0,49.461087810283,11.110832476574,-2.0
0.8586,769.2352,-3.76619,5.21234,6.17005,5.4091,-10.8074,0.52357,4.9,-4.3,150.3,-110.0,-110.0,-90.0,-62.0,-79.0,-77.0,-84.0,-110.0,-81.0,-84.0,-110.0,-84.0,-79.0,-83.0,-64.0,-110.0,-92.0,-110.0,-110.0,-110.0,-57.0,-110.0,-110.0,-110.0,-89.0,-110.0,-92.0,-87.0,-110.0,2437.0,5200.0,2417.0,2452.0,-1.0,2462.0,2412.0,-1.0,2427.0,2437.0,2422.0,2437.0,-1.0,5220.0,-1.0,-1.0,-1.0,2437.0,-1.0,-1.0,-1.0,2462.0,-1.0,2462.0,2462.0,-1.0,49.461087810283,11.110832476574,-2.0
0.884,769.2552,-5.64809,4.0152,4.8508,6.15497,-10.99371,1.47713,4.6,-7.6,158.8,-110.0,-110.0,-90.0,-62.0,-79.0,-77.0,-84.0,-110.0,-81.0,-84.0,-110.0,-84.0,-79.0,-83.0,-64.0,-110.0,-92.0,-110.0,-110.0,-110.0,-57.0,-110.0,-110.0,-110.0,-89.0,-110.0,-92.0,-87.0,-110.0,2437.0,5200.0,2417.0,2452.0,-1.0,2462.0,2412.0,-1.0,2427.0,2437.0,2422.0,2437.0,-1.0,5220.0,-1.0,-1.0,-1.0,2437.0,-1.0,-1.0,-1.0,2462.0,-1.0,2462.0,2462.0,-1.0,49.461087810283,11.110832476574,-2.0
0.9055,769.2752,-5.94738,2.60976,2.7582,6.34006,-9.33094,2.68664,-0.6,-5.6,166.3,-110.0,-110.0,-90.0,-62.0,-79.0,-77.0,-84.0,-110.0,-81.0,-84.0,-110.0,-84.0,-79.0,-83.0,-64.0,-110.0,-92.0,-110.0,-110.0,-110.0,-57.0,-110.0,-110.0,-110.0,-89.0,-110.0,-92.0,-87.0,-110.0,2437.0,5200.0,2417.0,2452.0,-1.0,2462.0,2412.0,-1.0,2427.0,2437.0,2422.0,2437.0,-1.0,5220.0,-1.0,-1.0,-1.0,2437.0,-1.0,-1.0,-1.0,2462.0,-1.0,2462.0,2462.0,-1.0,49.461087810283,11.110832476574,-2.0
0.9188,769.2952,-5.27219,1.07742,1.97288,6.02424,-5.87955,3.62432,1.3,-5.5,175.7,-110.0,-110.0,-90.0,-62.0,-79.0,-77.0,-84.0,-110.0,-81.0,-84.0,-110.0,-84.0,-79.0,-83.0,-64.0,-110.0,-92.0,-110.0,-110.0,-110.0,-57.0,-110.0,-110.0,-110.0,-89.0,-110.0,-92.0,-87.0,-110.0,2437.0,5200.0,2417.0,2452.0,-1.0,2462.0,2412.0,-1.0,2427.0,2437.0,2422.0,2437.0,-1.0,5220.0,-1.0,-1.0,-1.0,2437.0,-1.0,-1.0,-1.0,2462.0,-1.0,2462.0,2462.0,-1.0,49.461087810283,11.110832476574,-2.0
0.9424,769.3151,-3.65606,-0.73983,2.18597,5.91245,-2.45015,4.38057,-0.5,-3.0,180.7,-110.0,-110.0,-90.0,-62.0,-79.0,-77.0,-84.0,-110.0,-81.0,-84.0,-110.0,-84.0,-79.0,-83.0,-64.0,-110.0,-92.0,-110.0,-110.0,-110.0,-57.0,-110.0,-110.0,-110.0,-89.0,-110.0,-92.0,-87.0,-110.0,2437.0,5200.0,2417.0,2452.0,-1.0,2462.0,2412.0,-1.0,2427.0,2437.0,2422.0,2437.0,-1.0,5220.0,-1.0,-1.0,-1.0,2437.0,-1.0,-1.0,-1.0,2462.0,-1.0,2462.0,2462.0,-1.0,49.461087810283,11.110832476574,-2.0
0.9625,769.3351,-1.30009,-2.92341,2.76299,6.3932,-0.72018,4.82345,-3.3,3.5,186.60001,-110.0,-110.0,-90.0,-62.0,-79.0,-77.0,-84.0,-110.0,-81.0,-84.0,-110.0,-84.0,-79.0,-83.0,-64.0,-110.0,-92.0,-110.0,-110.0,-110.0,-57.0,-110.0,-110.0,-110.0,-89.0,-110.0,-92.0,-87.0,-110.0,2437.0,5200.0,2417.0,2452.0,-1.0,2462.0,2412.0,-1.0,2427.0,2437.0,2422.0,2437.0,-1.0,5220.0,-1.0,-1.0,-1.0,2437.0,-1.0,-1.0,-1.0,2462.0,-1.0,2462.0,2462.0,-1.0,49.461087810283,11.110832476574,-2.0
0.9759,769.3551,1.84359,-4.94418,2.82524,7.11769,-1.02011,4.71838,-7.5,9.3,190.90001,-110.0,-110.0,-90.0,-62.0,-79.0,-77.0,-84.0,-110.0,-81.0,-84.0,-110.0,-84.0,-79.0,-83.0,-64.0,-110.0,-92.0,-110.0,-110.0,-110.0,-57.0,-110.0,-110.0,-110.0,-89.0,-110.0,-92.0,-87.0,-110.0,2437.0,5200.0,2417.0,2452.0,-1.0,2462.0,2412.0,-1.0,2427.0,2437.0,2422.0,2437.0,-1.0,5220.0,-1.0,-1.0,-1.0,2437.0,-1.0,-1.0,-1.0,2462.0,-1.0,2462.0,2462.0,-1.0,49.461087810283,11.110832476574,-2.0
0.9963,769.3751,5.32966,-6.65608,1.38389,7.67785,-1.82523,3.75932,-7.0,15.1,192.2,-110.0,-110.0,-90.0,-62.0,-79.0,-77.0,-84.0,-110.0,-81.0,-84.0,-110.0,-84.0,-79.0,-83.0,-64.0,-110.0,-92.0,-110.0,-110.0,-110.0,-57.0,-110.0,-110.0,-110.0,-89.0,-110.0,-92.0,-87.0,-110.0,2437.0,5200.0,2417.0,2452.0,-1.0,2462.0,2412.0,-1.0,2427.0,2437.0,2422.0,2437.0,-1.0,5220.0,-1.0,-1.0,-1.0,2437.0,-1.0,-1.0,-1.0,2462.0,-1.0,2462.0,2462.0,-1.0,49.461087810283,11.110832476574,-2.0
1.0185,769.3951,7.82688,-8.46137,-0.1652,7.78475,-1.9584,2.75567,-7.4,21.5,195.60001,-110.0,-110.0,-90.0,-62.0,-79.0,-77.0,-84.0,-110.0,-81.0,-84.0,-110.0,-84.0,-79.0,-83.0,-64.0,-110.0,-92.0,-110.0,-110.0,-110.0,-57.0,-110.0,-110.0,-110.0,-89.0,-110.0,-92.0,-87.0,-110.0,2437.0,5200.0,2417.0,2452.0,-1.0,2462.0,2412.0,-1.0,2427.0,2437.0,2422.0,2437.0,-1.0,5220.0,-1.0,-1.0,-1.0,2437.0,-1.0,-1.0,-1.0,2462.0,-1.0,2462.0,2462.0,-1.0,49.461087810283,11.110832476574,-2.0
1.0421,769.4151,9.48612,-10.35284,-1.47487,7.8208,-1.35853,2.00614,-7.7,26.4,196.5,-110.0,-110.0,-90.0,-62.0,-79.0,-77.0,-84.0,-110.0,-81.0,-84.0,-110.0,-84.0,-79.0,-83.0,-64.0,-110.0,-92.0,-110.0,-110.0,-110.0,-57.0,-110.0,-110.0,-110.0,-89.0,-110.0,-92.0,-87.0,-110.0,2437.0,5200.0,2417.0,2452.0,-1.0,2462.0,2412.0,-1.0,2427.0,2437.0,2422.0,2437.0,-1.0,5220.0,-1.0,-1.0,-1.0,2437.0,-1.0,-1.0,-1.0,2462.0,-1.0,2462.0,2462.0,-1.0,49.461087810283,11.110832476574,-2.0
1.0617,769.4351,11.23394,-11.74152,-3.11495,7.65342,-0.81975,1.24561,-8.6,33.5,195.10001,-110.0,-110.0,-90.0,-62.0,-79.0,-77.0,-84.0,-110.0,-81.0,-84.0,-110.0,-84.0,-79.0,-83.0,-64.0,-110.0,-92.0,-110.0,-110.0,-110.0,-57.0,-110.0,-110.0,-110.0,-89.0,-110.0,-92.0,-87.0,-110.0,2437.0,5200.0,2417.0,2452.0,-1.0,2462.0,2412.0,-1.0,2427.0,2437.0,2422.0,2437.0,-1.0,5220.0,-1.0,-1.0,-1.0,2437.0,-1.0,-1.0,-1.0,2462.0,-1.0,2462.0,2462.0,-1.0,49.461087810283,11.110832476574,-2.0
1.0777,769.4551,13.07992,-12.55558,-4.6425,7.14884,-0.86373,0.0477,-9.5,38.2,195.8,-110.0,-110.0,-90.0,-62.0,-79.0,-77.0,-84.0,-110.0,-81.0,-84.0,-110.0,-84.0,-79.0,-83.0,-64.0,-110.0,-92.0,-110.0,-110.0,-110.0,-57.0,-110.0,-110.0,-110.0,-89.0,-110.0,-92.0,-87.0,-110.0,2437.0,5200.0,2417.0,2452.0,-1.0,2462.0,2412.0,-1.0,2427.0,2437.0,2422.0,2437.0,-1.0,5220.0,-1.0,-1.0,-1.0,2437.0,-1.0,-1.0,-1.0,2462.0,-1.0,2462.0,2462.0,-1.0,49.461087810283,11.110832476574,-2.0
1.1008,769.4751,14.96901,-13.24752,-5.76781,6.7078,-1.13923,-1.50878,-9.8,41.7,193.40001,-110.0,-110.0,-90.0,-62.0,-79.0,-77.0,-84.0,-110.0,-81.0,-84.0,-110.0,-84.0,-79.0,-83.0,-64.0,-110.0,-92.0,-110.0,-110.0,-110.0,-57.0,-110.0,-110.0,-110.0,-89.0,-110.0,-92.0,-87.0,-110.0,2437.0,5200.0,2417.0,2452.0,-1.0,2462.0,2412.0,-1.0,2427.0,2437.0,2422.0,2437.0,-1.0,5220.0,-1.0,-1.0,-1.0,2437.0,-1.0,-1.0,-1.0,2462.0,-1.0,2462.0,2462.0,-1.0,49.461087810283,11.110832476574,-2.0
1.119,769.4951,15.63222,-14.14538,-6.82129,6.23377,-1.13373,-3.04877,-9.6,43.8,192.3,-110.0,-110.0,-90.0,-62.0,-79.0,-77.0,-84.0,-110.0,-81.0,-84.0,-110.0,-84.0,-79.0,-83.0,-64.0,-110.0,-92.0,-110.0,-110.0,-110.0,-57.0,-110.0,-110.0,-110.0,-89.0,-110.0,-92.0,-87.0,-110.0,2437.0,5200.0,2417.0,2452.0,-1.0,2462.0,2412.0,-1.0,2427.0,2437.0,2422.0,2437.0,-1.0,5220.0,-1.0,-1.0,-1.0,2437.0,-1.0,-1.0,-1.0,2462.0,-1.0,2462.0,2462.0,-1.0,49.461087810283,11.110832476574,-2.0
1.1494,769.5151,15.18449,-15.11745,-7.67844,5.22278,-0.07205,-3.81602,-10.2,45.7,190.8,-110.0,-110.0,-90.0,-62.0,-79.0,-77.0,-84.0,-110.0,-81.0,-84.0,-110.0,-84.0,-79.0,-83.0,-64.0,-110.0,-92.0,-110.0,-110.0,-110.0,-57.0,-110.0,-110.0,-110.0,-89.0,-110.0,-92.0,-87.0,-110.0,2437.0,5200.0,2417.0,2452.0,-1.0,2462.0,2412.0,-1.0,2427.0,2437.0,2422.0,2437.0,-1.0,5220.0,-1.0,-1.0,-1.0,2437.0,-1.0,-1.0,-1.0,2462.0,-1.0,2462.0,2462.0,-1.0,49.461087810283,11.110832476574,-2.0
1.1573,769.5351,14.93788,-15.96024,-6.87396,4.3468,1.06599,-4.32182,-13.1,45.9,190.60001,-110.0,-110.0,-90.0,-62.0,-79.0,-77.0,-84.0,-110.0,-81.0,-84.0,-110.0,-84.0,-79.0,-83.0,-64.0,-110.0,-92.0,-110.0,-110.0,-110.0,-57.0,-110.0,-110.0,-110.0,-89.0,-110.0,-92.0,-87.0,-110.0,2437.0,5200.0,2417.0,2452.0,-1.0,2462.0,2412.0,-1.0,2427.0,2437.0,2422.0,2437.0,-1.0,5220.0,-1.0,-1.0,-1.0,2437.0,-1.0,-1.0,-1.0,2462.0,-1.0,2462.0,2462.0,-1.0,49.461087810283,11.110832476574,-2.0
1.2067,769.5551,14.96661,-17.07118,-5.24346,4.44821,1.88333,-4.98827,-14.6,44.1,188.3,-110.0,-110.0,-90.0,-62.0,-79.0,-77.0,-84.0,-110.0,-81.0,-84.0,-110.0,-84.0,-79.0,-83.0,-64.0,-110.0,-92.0,-110.0,-110.0,-110.0,-57.0,-110.0,-110.0,-110.0,-89.0,-110.0,-92.0,-87.0,-110.0,2437.0,5200.0,2417.0,2452.0,-1.0,2462.0,2412.0,-1.0,2427.0,2437.0,2422.0,2437.0,-1.0,5220.0,-1.0,-1.0,-1.0,2437.0,-1.0,-1.0,-1.0,2462.0,-1.0,2462.0,2462.0,-1.0,49.461087810283,11.110832476574,-2.0
1.2084,769.5751,15.47899,-17.97861,-4.07266,4.78418,2.14356,-5.48918,-17.2,42.2,186.5,-110.0,-110.0,-90.0,-62.0,-79.0,-77.0,-84.0,-110.0,-81.0,-84.0,-110.0,-84.0,-79.0,-83.0,-64.0,-110.0,-92.0,-110.0,-110.0,-110.0,-57.0,-110.0,-110.0,-110.0,-89.0,-110.0,-92.0,-87.0,-110.0,2437.0,5200.0,2417.0,2452.0,-1.0,2462.0,2412.0,-1.0,2427.0,2437.0,2422.0,2437.0,-1.0,5220.0,-1.0,-1.0,-1.0,2437.0,-1.0,-1.0,-1.0,2462.0,-1.0,2462.0,2462.0,-1.0,49.461087810283,11.110832476574,-2.0
1.2153,769.5951,16.79344,-18.40718,-3.46691,4.93934,2.28833,-6.1538,-19.5,39.0,182.2,-110.0,-110.0,-90.0,-62.0,-79.0,-77.0,-84.0,-110.0,-81.0,-84.0,-110.0,-84.0,-79.0,-83.0,-64.0,-110.0,-92.0,-110.0,-110.0,-110.0,-57.0,-110.0,-110.0,-110.0,-89.0,-110.0,-92.0,-87.0,-110.0,2437.0,5200.0,2417.0,2452.0,-1.0,2462.0,2412.0,-1.0,2427.0,2437.0,2422.0,2437.0,-1.0,5220.0,-1.0,-1.0,-1.0,2437.0,-1.0,-1.0,-1.0,2462.0,-1.0,2462.0,2462.0,-1.0,49.461087810283,11.110832476574,-2.0
1.2384,769.6151,18.32339,-18.60352,-3.261,4.8526,2.51863,-7.12874,-21.2,34.4,180.90001,-110.0,-110.0,-90.0,-62.0,-79.0,-77.0,-84.0,-110.0,-81.0,-84.0,-110.0,-84.0,-79.0,-83.0,-64.0,-110.0,-92.0,-110.0,-110.0,-110.0,-57.0,-110.0,-110.0,-110.0,-89.0,-110.0,-92.0,-87.0,-110.0,2437.0,5200.0,2417.0,2452.0,-1.0,2462.0,2412.0,-1.0,2427.0,2437.0,2422.0,2437.0,-1.0,5220.0,-1.0,-1.0,-1.0,2437.0,-1.0,-1.0,-1.0,2462.0,-1.0,2462.0,2462.0,-1.0,49.461087810283,11.110832476574,-2.0
1.2571,769.6351,19.00336,-18.77351,-3.32086,4.60276,2.73365,-8.01755,-21.2,29.9,179.2,-110.0,-110.0,-90.0,-62.0,-79.0,-77.0,-84.0,-110.0,-81.0,-84.0,-110.0,-84.0,-79.0,-83.0,-64.0,-110.0,-92.0,-110.0,-110.0,-110.0,-57.0,-110.0,-110.0,-110.0,-89.0,-110.0,-92.0,-87.0,-110.0,2437.0,5200.0,2417.0,2452.0,-1.0,2462.0,2412.0,-1.0,2427.0,2437.0,2422.0,2437.0,-1.0,5220.0,-1.0,-1.0,-1.0,2437.0,-1.0,-1.0,-1.0,2462.0,-1.0,2462.0,2462.0,-1.0,49.461087810283,11.110832476574,-2.0
1.2756,769.6551,18.63704,-18.78787,-3.54832,4.17637,3.05802,-8.6107,-21.2,24.6,176.2,-110.0,-110.0,-90.0,-62.0,-79.0,-77.0,-84.0,-110.0,-81.0,-84.0,-110.0,-84.0,-79.0,-83.0,-64.0,-110.0,-92.0,-110.0,-110.0,-110.0,-57.0,-110.0,-110.0,-110.0,-89.0,-110.0,-92.0,-87.0,-110.0,2437.0,5200.0,2417.0,2452.0,-1.0,2462.0,2412.0,-1.0,2427.0,2437.0,2422.0,2437.0,-1.0,5220.0,-1.0,-1.0,-1.0,2437.0,-1.0,-1.0,-1.0,2462.0,-1.0,2462.0,2462.0,-1.0,49.461087810283,11.110832476574,-2.0
1.2956,769.6751,17.88044,-18.32817,-3.62254,3.77259,3.40561,-8.96073,-19.5,18.3,174.10001,-110.0,-110.0,-90.0,-62.0,-79.0,-77.0,-84.0,-110.0,-81.0,-84.0,-110.0,-84.0,-79.0,-83.0,-64.0,-110.0,-92.0,-110.0,-110.0,-110.0,-57.0,-110.0,-110.0,-110.0,-89.0,-110.0,-92.0,-87.0,-110.0,2437.0,5200.0,2417.0,2452.0,-1.0,2462.0,2412.0,-1.0,2427.0,2437.0,2422.0,2437.0,-1.0,5220.0,-1.0,-1.0,-1.0,2437.0,-1.0,-1.0,-1.0,2462.0,-1.0,2462.0,2462.0,-1.0,49.461087810283,11.110832476574,-2.0
1.3177,769.6951,16.66415,-17.42553,-4.10139,3.40913,3.38972,-9.31381,-16.7,11.9,171.60001,-110.0,-110.0,-94.0,-62.0,-79.0,-77.0,-84.0,-110.0,-81.0,-84.0,-110.0,-84.0,-79.0,-83.0,-64.0,-110.0,-92.0,-110.0,-110.0,-110.0,-57.0,-110.0,-110.0,-110.0,-89.0,-110.0,-92.0,-87.0,-110.0,2437.0,5200.0,2417.0,2452.0,-1.0,2462.0,2412.0,-1.0,2427.0,2437.0,2422.0,2437.0,-1.0,5220.0,-1.0,-1.0,-1.0,2437.0,-1.0,-1.0,-1.0,2462.0,-1.0,2462.0,2462.0,-1.0,49.461087810283,11.110832476574,-2.0
1.336,769.715,14.77507,-16.28107,-4.98727,2.66448,3.64506,-9.21179,-14.5,4.2,171.40001,-110.0,-110.0,-94.0,-62.0,-79.0,-77.0,-84.0,-110.0,-81.0,-84.0,-110.0,-84.0,-79.0,-83.0,-64.0,-110.0,-92.0,-110.0,-110.0,-110.0,-57.0,-110.0,-110.0,-110.0,-89.0,-110.0,-92.0,-87.0,-110.0,2437.0,5200.0,2417.0,2452.0,-1.0,2462.0,2412.0,-1.0,2427.0,2437.0,2422.0,2437.0,-1.0,5220.0,-1.0,-1.0,-1.0,2437.0,-1.0,-1.0,-1.0,2462.0,-1.0,2462.0,2462.0,-1.0,49.461087810283,11.110832476574,-2.0
1.3573,769.735,12.61065,-14.7631,-5.32008,1.79827,4.20523,-8.72127,-26.4,-32.4,6.7,-110.0,-110.0,-94.0,-62.0,-79.0,-77.0,-84.0,-110.0,-81.0,-84.0,-110.0,-84.0,-79.0,-83.0,-64.0,-110.0,-92.0,-110.0,-110.0,-110.0,-57.0,-110.0,-110.0,-110.0,-89.0,-110.0,-92.0,-87.0,-110.0,2437.0,5200.0,2417.0,2452.0,-1.0,2462.0,2412.0,-1.0,2427.0,2437.0,2422.0,2437.0,-1.0,5220.0,-1.0,-1.0,-1.0,2437.0,-1.0,-1.0,-1.0,2462.0,-1.0,2462.0,2462.0,-1.0,49.461087810283,11.110832476574,-2.0
1.378,769.755,10.84846,-12.63459,-5.20515,1.27537,4.28831,-8.32115,-21.6,-37.8,3.3,-110.0,-110.0,-94.0,-62.0,-79.0,-77.0,-84.0,-110.0,-81.0,-84.0,-110.0,-84.0,-79.0,-83.0,-64.0,-110.0,-92.0,-110.0,-110.0,-110.0,-57.0,-110.0,-110.0,-110.0,-89.0,-110.0,-92.0,-87.0,-110.0,2437.0,5200.0,2417.0,2452.0,-1.0,2462.0,2412.0,-1.0,2427.0,2437.0,2422.0,2437.0,-1.0,5220.0,-1.0,-1.0,-1.0,2437.0,-1.0,-1.0,-1.0,2462.0,-1.0,2462.0,2462.0,-1.0,49.461087810283,11.110832476574,-2.0
1.396,769.775,9.43105,-10.56594,-5.54514,0.74514,3.9114,-8.07497,-16.3,-40.9,1.9,-110.0,-110.0,-94.0,-62.0,-79.0,-77.0,-84.0,-110.0,-81.0,-84.0,-110.0,-84.0,-79.0,-83.0,-64.0,-110.0,-92.0,-110.0,-110.0,-110.0,-57.0,-110.0,-110.0,-110.0,-89.0,-110.0,-92.0,-87.0,-110.0,2437.0,5200.0,2417.0,2452.0,-1.0,2462.0,2412.0,-1.0,2427.0,2437.0,2422.0,2437.0,-1.0,5220.0,-1.0,-1.0,-1.0,2437.0,-1.0,-1.0,-1.0,2462.0,-1.0,2462.0,2462.0,-1.0,49.461087810283,11.110832476574,-2.0
1.4161,769.795,7.8628,-8.68882,-6.13413,-0.18704,3.67561,-7.70784,-9.1,-43.1,0.6,-110.0,-110.0,-94.0,-62.0,-79.0,-77.0,-84.0,-110.0,-81.0,-84.0,-110.0,-84.0,-79.0,-83.0,-64.0,-110.0,-92.0,-110.0,-110.0,-110.0,-57.0,-110.0,-110.0,-110.0,-89.0,-110.0,-92.0,-87.0,-110.0,2437.0,5200.0,2417.0,2452.0,-1.0,2462.0,2412.0,-1.0,2427.0,2437.0,2422.0,2437.0,-1.0,5220.0,-1.0,-1.0,-1.0,2437.0,-1.0,-1.0,-1.0,2462.0,-1.0,2462.0,2462.0,-1.0,49.461087810283,11.110832476574,-2.0
1.4405,769.815,6.6082,-6.96495,-5.69837,-1.2139,3.21929,-7.43601,1.3,-46.4,1.5,-110.0,-110.0,-94.0,-62.0,-79.0,-77.0,-84.0,-110.0,-81.0,-84.0,-110.0,-84.0,-79.0,-83.0,-64.0,-110.0,-92.0,-110.0,-110.0,-110.0,-57.0,-110.0,-110.0,-110.0,-89.0,-110.0,-92.0,-87.0,-110.0,2437.0,5200.0,2417.0,2452.0,-1.0,2462.0,2412.0,-1.0,2427.0,2437.0,2422.0,2437.0,-1.0,5220.0,-1.0,-1.0,-1.0,2437.0,-1.0,-1.0,-1.0,2462.0,-1.0,2462.0,2462.0,-1.0,49.461087810283,11.110832476574,-2.0
1.4569,769.835,5.45416,-5.92822,-4.63771,-1.76307,2.50091,-7.34927,5.5,-47.1,0.9,-110.0,-110.0,-94.0,-62.0,-79.0,-77.0,-84.0,-110.0,-81.0,-84.0,-110.0,-84.0,-79.0,-83.0,-64.0,-110.0,-92.0,-110.0,-110.0,-110.0,-57.0,-110.0,-110.0,-110.0,-89.0,-110.0,-92.0,-87.0,-110.0,2437.0,5200.0,2417.0,2452.0,-1.0,2462.0,2412.0,-1.0,2427.0,2437.0,2422.0,2437.0,-1.0,5220.0,-1.0,-1.0,-1.0,2437.0,-1.0,-1.0,-1.0,2462.0,-1.0,2462.0,2462.0,-1.0,49.461087810283,11.110832476574,-2.0
1.4787,769.855,3.51719,-5.53317,-4.04154,-2.37394,2.08736,-7.02551,14.8,-45.7,-0.2,-110.0,-110.0,-94.0,-62.0,-79.0,-77.0,-84.0,-110.0,-81.0,-84.0,-110.0,-84.0,-79.0,-83.0,-64.0,-110.0,-92.0,-110.0,-110.0,-110.0,-57.0,-110.0,-110.0,-110.0,-89.0,-110.0,-92.0,-87.0,-110.0,2437.0,5200.0,2417.0,2452.0,-1.0,2462.0,2412.0,-1.0,2427.0,2437.0,2422.0,2437.0,-1.0,5220.0,-1.0,-1.0,-1.0,2437.0,-1.0,-1.0,-1.0,2462.0,-1.0,2462.0,2462.0,-1.0,49.461087810283,11.110832476574,-2.0
1.5179,769.875,1.82683,-5.1022,-2.95214,-3.29329,1.68968,-6.62722,19.6,-43.8,-3.6,-110.0,-110.0,-94.0,-62.0,-79.0,-77.0,-84.0,-110.0,-81.0,-84.0,-110.0,-84.0,-79.0,-83.0,-64.0,-110.0,-92.0,-110.0,-110.0,-110.0,-57.0,-110.0,-110.0,-110.0,-89.0,-110.0,-92.0,-87.0,-110.0,2437.0,5200.0,2417.0,2452.0,-1.0,2462.0,2412.0,-1.0,2427.0,2437.0,2422.0,2437.0,-1.0,5220.0,-1.0,-1.0,-1.0,2437.0,-1.0,-1.0,-1.0,2462.0,-1.0,2462.0,2462.0,-1.0,49.461087810283,11.110832476574,-2.0
1.5251,769.895,1.32882,-4.73109,-1.10376,-3.68546,0.5437,-6.45862,19.9,-39.6,-7.8,-110.0,-110.0,-94.0,-62.0,-79.0,-77.0,-84.0,-110.0,-81.0,-84.0,-110.0,-84.0,-79.0,-83.0,-64.0,-110.0,-92.0,-110.0,-110.0,-110.0,-57.0,-110.0,-110.0,-110.0,-89.0,-110.0,-92.0,-87.0,-110.0,2437.0,5200.0,2417.0,2452.0,-1.0,2462.0,2412.0,-1.0,2427.0,2437.0,2422.0,2437.0,-1.0,5220.0,-1.0,-1.0,-1.0,2437.0,-1.0,-1.0,-1.0,2462.0,-1.0,2462.0,2462.0,-1.0,49.461087810283,11.110832476574,-2.0
1.5431,769.915,1.78373,-4.75264,0.15802,-3.6763,-0.9633,-6.73535,28.6,-37.5,-9.0,-110.0,-110.0,-94.0,-62.0,-79.0,-77.0,-84.0,-110.0,-81.0,-84.0,-110.0,-84.0,-79.0,-83.0,-64.0,-110.0,-92.0,-110.0,-110.0,-110.0,-57.0,-110.0,-110.0,-110.0,-89.0,-110.0,-92.0,-87.0,-110.0,2437.0,5200.0,2417.0,2452.0,-1.0,2462.0,2412.0,-1.0,2427.0,2437.0,2422.0,2437.0,-1.0,5220.0,-1.0,-1.0,-1.0,2437.0,-1.0,-1.0,-1.0,2462.0,-1.0,2462.0,2462.0,-1.0,49.461087810283,11.110832476574,-2.0
1.5583,769.935,2.44216,-5.56669,0.53871,-4.42278,-2.08913,-7.08843,31.9,-33.2,-11.7,-110.0,-110.0,-94.0,-62.0,-79.0,-77.0,-84.0,-110.0,-81.0,-84.0,-110.0,-84.0,-79.0,-83.0,-64.0,-110.0,-92.0,-110.0,-110.0,-110.0,-57.0,-110.0,-110.0,-110.0,-89.0,-110.0,-92.0,-87.0,-110.0,2437.0,5200.0,2417.0,2452.0,-1.0,2462.0,2412.0,-1.0,2427.0,2437.0,2422.0,2437.0,-1.0,5220.0,-1.0,-1.0,-1.0,2437.0,-1.0,-1.0,-1.0,2462.0,-1.0,2462.0,2462.0,-1.0,49.461087810283,11.110832476574,-2.0
1.5776,769.955,2.82046,-6.53398,1.3384,-5.31525,-2.26689,-7.23992,34.6,-27.3,-16.2,-110.0,-110.0,-94.0,-62.0,-79.0,-77.0,-84.0,-110.0,-81.0,-84.0,-110.0,-84.0,-79.0,-83.0,-64.0,-110.0,-92.0,-110.0,-110.0,-110.0,-57.0,-110.0,-110.0,-110.0,-89.0,-110.0,-92.0,-87.0,-110.0,2437.0,5200.0,2417.0,2452.0,-1.0,2462.0,2412.0,-1.0,2427.0,2437.0,2422.0,2437.0,-1.0,5220.0,-1.0,-1.0,-1.0,2437.0,-1.0,-1.0,-1.0,2462.0,-1.0,2462.0,2462.0,-1.0,49.461087810283,11.110832476574,-2.0
1.596,769.975,2.9713,-7.96575,3.48128,-5.62679,-2.47336,-7.09515,33.1,-20.8,-19.2,-110.0,-110.0,-94.0,-62.0,-79.0,-77.0,-84.0,-110.0,-81.0,-84.0,-110.0,-84.0,-79.0,-83.0,-64.0,-110.0,-92.0,-110.0,-110.0,-110.0,-57.0,-110.0,-110.0,-110.0,-89.0,-110.0,-92.0,-87.0,-110.0,2437.0,5200.0,2417.0,2452.0,-1.0,2462.0,2412.0,-1.0,2427.0,2437.0,2422.0,2437.0,-1.0,5220.0,-1.0,-1.0,-1.0,2437.0,-1.0,-1.0,-1.0,2462.0,-1.0,2462.0,2462.0,-1.0,49.461087810283,11.110832476574,-2.0
1.6176,769.995,1.506,-8.24109,8.01364,-4.36719,-2.60959,-6.26254,32.8,-13.5,-24.5,-110.0,-110.0,-94.0,-62.0,-79.0,-77.0,-84.0,-110.0,-81.0,-84.0,-110.0,-84.0,-79.0,-83.0,-64.0,-110.0,-92.0,-110.0,-110.0,-110.0,-57.0,-110.0,-110.0,-110.0,-89.0,-110.0,-92.0,-87.0,-110.0,2437.0,5200.0,2417.0,2452.0,-1.0,2462.0,2412.0,-1.0,2427.0,2437.0,2422.0,2437.0,-1.0,5220.0,-1.0,-1.0,-1.0,2437.0,-1.0,-1.0,-1.0,2462.0,-1.0,2462.0,2462.0,-1.0,49.461087810283,11.110832476574,-2.0
1.6501,770.015,1.28573,-7.85322,10.14215,-3.30795,-3.21129,-5.77201,32.4,-7.0,-23.9,-110.0,-110.0,-94.0,-62.0,-79.0,-77.0,-84.0,-110.0,-81.0,-84.0,-110.0,-84.0,-79.0,-83.0,-64.0,-110.0,-92.0,-110.0,-110.0,-110.0,-57.0,-110.0,-110.0,-110.0,-89.0,-110.0,-92.0,-87.0,-110.0,2437.0,5200.0,2417.0,2452.0,-1.0,2462.0,2412.0,-1.0,2427.0,2437.0,2422.0,2437.0,-1.0,5220.0,-1.0,-1.0,-1.0,2437.0,-1.0,-1.0,-1.0,2462.0,-1.0,2462.0,2462.0,-1.0,49.461087810283,11.110832476574,-2.0
1.6698,770.035,1.57304,-7.57309,10.44862,-2.7991,-3.5552,-5.62235,30.2,-1.9,-25.9,-110.0,-110.0,-94.0,-62.0,-79.0,-77.0,-84.0,-110.0,-81.0,-84.0,-110.0,-84.0,-79.0,-83.0,-64.0,-110.0,-92.0,-110.0,-110.0,-110.0,-57.0,-110.0,-110.0,-110.0,-89.0,-110.0,-92.0,-87.0,-110.0,2437.0,5200.0,2417.0,2452.0,-1.0,2462.0,2412.0,-1.0,2427.0,2437.0,2422.0,2437.0,-1.0,5220.0,-1.0,-1.0,-1.0,2437.0,-1.0,-1.0,-1.0,2462.0,-1.0,2462.0,2462.0,-1.0,49.461087810283,11.110832476574,-2.0
1.68,770.055,1.96809,-7.64013,10.11581,-2.92555,-3.49351,-5.15992,24.9,3.8,-29.5,-110.0,-110.0,-94.0,-62.0,-79.0,-77.0,-84.0,-110.0,-81.0,-84.0,-110.0,-84.0,-79.0,-83.0,-64.0,-110.0,-92.0,-110.0,-110.0,-110.0,-57.0,-110.0,-110.0,-110.0,-89.0,-110.0,-92.0,-87.0,-110.0,2437.0,5200.0,2417.0,2452.0,-1.0,2462.0,2412.0,-1.0,2427.0,2437.0,2422.0,2437.0,-1.0,5220.0,-1.0,-1.0,-1.0,2437.0,-1.0,-1.0,-1.0,2462.0,-1.0,2462.0,2462.0,-1.0,49.461087810283,11.110832476574,-2.0
1.7249,770.075,3.49325,-7.83407,10.2882,-3.0019,-4.30474,-4.82639,21.1,7.9,-30.7,-110.0,-110.0,-94.0,-62.0,-79.0,-77.0,-84.0,-110.0,-81.0,-84.0,-110.0,-84.0,-79.0,-83.0,-64.0,-110.0,-92.0,-110.0,-110.0,-110.0,-57.0,-110.0,-110.0,-110.0,-89.0,-110.0,-92.0,-87.0,-110.0,2437.0,5200.0,2417.0,2452.0,-1.0,2462.0,2412.0,-1.0,2427.0,2437.0,2422.0,2437.0,-1.0,5220.0,-1.0,-1.0,-1.0,2437.0,-1.0,-1.0,-1.0,2462.0,-1.0,2462.0,2462.0,-1.0,49.461087810283,11.110832476574,-2.0
1.7311,770.095,6.87396,-8.51165,11.31534,-2.91272,-5.16056,-5.26744,12.9,13.8,-37.6,-110.0,-110.0,-94.0,-62.0,-79.0,-77.0,-84.0,-110.0,-81.0,-84.0,-110.0,-84.0,-79.0,-83.0,-64.0,-110.0,-92.0,-110.0,-110.0,-110.0,-57.0,-110.0,-110.0,-110.0,-89.0,-110.0,-92.0,-87.0,-110.0,2437.0,5200.0,2417.0,2452.0,-1.0,2462.0,2412.0,-1.0,2427.0,2437.0,2422.0,2437.0,-1.0,5220.0,-1.0,-1.0,-1.0,2437.0,-1.0,-1.0,-1.0,2462.0,-1.0,2462.0,2462.0,-1.0,49.461087810283,11.110832476574,-2.0
1.748,770.115,9.83329,-10.04638,13.27147,-2.65554,-4.72318,-6.14892,6.1,19.6,-36.8,-110.0,-110.0,-94.0,-62.0,-79.0,-77.0,-84.0,-110.0,-81.0,-84.0,-110.0,-84.0,-79.0,-83.0,-64.0,-110.0,-92.0,-110.0,-110.0,-110.0,-57.0,-110.0,-110.0,-110.0,-89.0,-110.0,-92.0,-87.0,-110.0,2437.0,5200.0,2417.0,2452.0,-1.0,2462.0,2412.0,-1.0,2427.0,2437.0,2422.0,2437.0,-1.0,5220.0,-1.0,-1.0,-1.0,2437.0,-1.0,-1.0,-1.0,2462.0,-1.0,2462.0,2462.0,-1.0,49.461087810283,11.110832476574,-2.0
1.7624,770.135,10.29059,-11.63857,16.46303,-2.02147,-3.92539,-6.6034,0.1,21.7,-37.4,-110.0,-110.0,-94.0,-62.0,-79.0,-77.0,-84.0,-110.0,-81.0,-84.0,-110.0,-84.0,-79.0,-83.0,-64.0,-110.0,-92.0,-110.0,-110.0,-110.0,-57.0,-110.0,-110.0,-110.0,-89.0,-110.0,-92.0,-87.0,-110.0,2437.0,5200.0,2417.0,2452.0,-1.0,2462.0,2412.0,-1.0,2427.0,2437.0,2422.0,2437.0,-1.0,5220.0,-1.0,-1.0,-1.0,2437.0,-1.0,-1.0,-1.0,2462.0,-1.0,2462.0,2462.0,-1.0,49.461087810283,11.110832476574,-2.0
1.7784,770.155,10.73353,-12.53163,18.96026,-0.62442,-3.65233,-6.51605,-4.2,22.2,-38.1,-110.0,-110.0,-94.0,-62.0,-79.0,-77.0,-84.0,-110.0,-81.0,-84.0,-110.0,-84.0,-79.0,-83.0,-64.0,-110.0,-92.0,-110.0,-110.0,-110.0,-57.0,-110.0,-110.0,-110.0,-89.0,-110.0,-92.0,-87.0,-110.0,2437.0,5200.0,2417.0,2452.0,-1.0,2462.0,2412.0,-1.0,2427.0,2437.0,2422.0,2437.0,-1.0,5220.0,-1.0,-1.0,-1.0,2437.0,-1.0,-1.0,-1.0,2462.0,-1.0,2462.0,2462.0,-1.0,49.461087810283,11.110832476574,-2.0
1.7983,770.1751,11.72237,-13.06077,19.3218,0.44704,-3.27176,-6.69503,-9.3,23.2,-35.7,-110.0,-110.0,-94.0,-62.0,-79.0,-77.0,-84.0,-110.0,-81.0,-84.0,-110.0,-84.0,-79.0,-83.0,-64.0,-110.0,-92.0,-110.0,-110.0,-110.0,-57.0,-110.0,-110.0,-110.0,-89.0,-110.0,-92.0,-87.0,-110.0,2437.0,5200.0,2417.0,2452.0,-1.0,2462.0,2412.0,-1.0,2427.0,2437.0,2422.0,2437.0,-1.0,5220.0,-1.0,-1.0,-1.0,2437.0,-1.0,-1.0,-1.0,2462.0,-1.0,2462.0,2462.0,-1.0,49.461087810283,11.110832476574,-2.0
1.8167,770.1951,13.66173,-13.30977,18.38564,1.0744,-3.46541,-7.04689,-14.1,20.5,-36.9,-110.0,-110.0,-94.0,-62.0,-79.0,-77.0,-84.0,-110.0,-81.0,-84.0,-110.0,-84.0,-79.0,-83.0,-64.0,-110.0,-92.0,-110.0,-110.0,-110.0,-57.0,-110.0,-110.0,-110.0,-89.0,-110.0,-92.0,-87.0,-110.0,2437.0,5200.0,2417.0,2452.0,-1.0,2462.0,2412.0,-1.0,2427.0,2437.0,2422.0,2437.0,-1.0,5220.0,-1.0,-1.0,-1.0,2437.0,-1.0,-1.0,-1.0,2462.0,-1.0,2462.0,2462.0,-1.0,49.461087810283,11.110832476574,-2.0
1.8455,770.2151,15.68968,-13.37681,18.08156,1.27537,-4.17096,-7.86728,-20.0,17.9,-33.4,-110.0,-110.0,-94.0,-62.0,-79.0,-77.0,-84.0,-110.0,-81.0,-84.0,-110.0,-84.0,-79.0,-83.0,-64.0,-110.0,-92.0,-110.0,-110.0,-110.0,-57.0,-110.0,-110.0,-110.0,-89.0,-110.0,-92.0,-87.0,-110.0,2437.0,5200.0,2417.0,2452.0,-1.0,2462.0,2412.0,-1.0,2427.0,2437.0,2422.0,2437.0,-1.0,5220.0,-1.0,-1.0,-1.0,2437.0,-1.0,-1.0,-1.0,2462.0,-1.0,2462.0,2462.0,-1.0,49.461087810283,11.110832476574,-2.0
1.8658,770.2352,16.40078,-13.30259,19.31462,2.03346,-4.6963,-8.84711,-24.2,13.5,-35.8,-110.0,-110.0,-94.0,-62.0,-79.0,-77.0,-84.0,-110.0,-81.0,-84.0,-110.0,-84.0,-79.0,-83.0,-64.0,-110.0,-92.0,-110.0,-110.0,-110.0,-57.0,-110.0,-110.0,-110.0,-89.0,-110.0,-92.0,-87.0,-110.0,2437.0,5200.0,2417.0,2452.0,-1.0,2462.0,2412.0,-1.0,2427.0,2437.0,2422.0,2437.0,-1.0,5220.0,-1.0,-1.0,-1.0,2437.0,-1.0,-1.0,-1.0,2462.0,-1.0,2462.0,2462.0,-1.0,49.461087810283,11.110832476574,-2.0
1.8766,770.2552,15.54603,-12.70163,19.68094,3.06521,-4.68714,-8.99127,-27.5,7.9,-32.5,-110.0,-110.0,-94.0,-62.0,-79.0,-77.0,-84.0,-110.0,-81.0,-84.0,-110.0,-84.0,-79.0,-83.0,-64.0,-110.0,-92.0,-110.0,-110.0,-110.0,-57.0,-110.0,-110.0,-110.0,-89.0,-110.0,-92.0,-87.0,-110.0,2437.0,5200.0,2417.0,2452.0,-1.0,2462.0,2412.0,-1.0,2427.0,2437.0,2422.0,2437.0,-1.0,5220.0,-1.0,-1.0,-1.0,2437.0,-1.0,-1.0,-1.0,2462.0,-1.0,2462.0,2462.0,-1.0,49.461087810283,11.110832476574,-2.0
1.8968,770.2752,13.70483,-11.26506,17.84453,3.39019,-4.02191,-8.4757,-31.0,0.3,-31.4,-110.0,-110.0,-94.0,-62.0,-79.0,-77.0,-84.0,-110.0,-81.0,-84.0,-110.0,-84.0,-79.0,-83.0,-64.0,-110.0,-92.0,-110.0,-110.0,-110.0,-57.0,-110.0,-110.0,-110.0,-89.0,-110.0,-92.0,-87.0,-110.0,2437.0,5200.0,2417.0,2452.0,-1.0,2462.0,2412.0,-1.0,2427.0,2437.0,2422.0,2437.0,-1.0,5220.0,-1.0,-1.0,-1.0,2437.0,-1.0,-1.0,-1.0,2462.0,-1.0,2462.0,2462.0,-1.0,49.461087810283,11.110832476574,-2.0
1.9183,770.2952,11.39914,-9.45499,14.68648,2.74512,-2.74031,-7.46716,-31.7,-5.7,-27.8,-110.0,-110.0,-94.0,-62.0,-79.0,-77.0,-84.0,-110.0,-81.0,-84.0,-110.0,-84.0,-79.0,-83.0,-64.0,-110.0,-92.0,-110.0,-110.0,-110.0,-57.0,-110.0,-110.0,-110.0,-89.0,-110.0,-92.0,-87.0,-110.0,2437.0,5200.0,2417.0,2452.0,-1.0,2462.0,2412.0,-1.0,2427.0,2437.0,2422.0,2437.0,-1.0,5220.0,-1.0,-1.0,-1.0,2437.0,-1.0,-1.0,-1.0,2462.0,-1.0,2462.0,2462.0,-1.0,49.461087810283,11.110832476574,-2.0
1.939,770.3153,9.83329,-7.47253,13.31696,2.43785,-2.78002,-6.67793,-31.1,-11.3,-27.5,-110.0,-110.0,-94.0,-62.0,-79.0,-77.0,-84.0,-110.0,-81.0,-84.0,-110.0,-84.0,-79.0,-83.0,-64.0,-110.0,-92.0,-110.0,-110.0,-110.0,-57.0,-110.0,-110.0,-110.0,-89.0,-110.0,-92.0,-87.0,-110.0,2437.0,5200.0,2417.0,2452.0,-1.0,2462.0,2412.0,-1.0,2427.0,2437.0,2422.0,2437.0,-1.0,5220.0,-1.0,-1.0,-1.0,2437.0,-1.0,-1.0,-1.0,2462.0,-1.0,2462.0,2462.0,-1.0,49.461087810283,11.110832476574,-2.0
1.9588,770.3353,8.37757,-5.40867,12.93627,2.83369,-3.45991,-6.24055,-30.3,-16.4,-25.2,-110.0,-110.0,-94.0,-62.0,-79.0,-77.0,-84.0,-110.0,-81.0,-84.0,-110.0,-84.0,-79.0,-83.0,-64.0,-110.0,-92.0,-110.0,-110.0,-110.0,-57.0,-110.0,-110.0,-110.0,-89.0,-110.0,-92.0,-87.0,-110.0,2437.0,5200.0,2417.0,2452.0,-1.0,2462.0,2412.0,-1.0,2427.0,2437.0,2422.0,2437.0,-1.0,5220.0,-1.0,-1.0,-1.0,2437.0,-1.0,-1.0,-1.0,2462.0,-1.0,2462.0,2462.0,-1.0,49.461087810283,11.110832476574,-2.0
1.9809,770.3553,6.63214,-3.58902,12.30178,3.16845,-3.36095,-5.54782,-29.5,-22.9,-21.1,-110.0,-110.0,-94.0,-62.0,-79.0,-77.0,-84.0,-110.0,-81.0,-84.0,-110.0,-84.0,-79.0,-83.0,-64.0,-110.0,-92.0,-110.0,-110.0,-110.0,-57.0,-110.0,-110.0,-110.0,-89.0,-110.0,-92.0,-87.0,-110.0,2437.0,5200.0,2417.0,2452.0,-1.0,2462.0,2412.0,-1.0,2427.0,2437.0,2422.0,2437.0,-1.0,5220.0,-1.0,-1.0,-1.0,2437.0,-1.0,-1.0,-1.0,2462.0,-1.0,2462.0,2462.0,-1.0,49.461087810283,11.110832476574,-2.0
2.0052,770.3754,4.24984,-2.15724,12.40474,3.66386,-2.89303,-4.53684,-29.2,-26.7,-15.7,-110.0,-110.0,-94.0,-62.0,-79.0,-77.0,-84.0,-110.0,-81.0,-84.0,-110.0,-84.0,-79.0,-83.0,-64.0,-110.0,-92.0,-110.0,-110.0,-110.0,-57.0,-110.0,-110.0,-110.0,-89.0,-110.0,-92.0,-87.0,-110.0,2437.0,5200.0,2417.0,2452.0,-1.0,2462.0,2412.0,-1.0,2427.0,2437.0,2422.0,2437.0,-1.0,5220.0,-1.0,-1.0,-1.0,2437.0,-1.0,-1.0,-1.0,2462.0,-1.0,2462.0,2462.0,-1.0,49.461087810283,11.110832476574,-2.0
2.0234,770.3954,2.15006,-1.13728,11.80138,4.49891,-2.12761,-3.21921,-27.2,-29.2,-12.5,-110.0,-110.0,-90.0,-62.0,-79.0,-77.0,-84.0,-110.0,-81.0,-84.0,-110.0,-84.0,-79.0,-83.0,-64.0,-110.0,-92.0,-110.0,-110.0,-110.0,-57.0,-110.0,-110.0,-110.0,-89.0,-110.0,-92.0,-87.0,-110.0,2437.0,5200.0,2417.0,2452.0,-1.0,2462.0,2412.0,-1.0,2427.0,2437.0,2422.0,2437.0,-1.0,5220.0,-1.0,-1.0,-1.0,2437.0,-1.0,-1.0,-1.0,2462.0,-1.0,2462.0,2462.0,-1.0,49.461087810283,11.110832476574,-2.0
2.0421,770.4154,0.57941,-0.55068,10.19482,4.74326,-0.39642,-1.90218,-21.7,-33.0,-8.3,-110.0,-110.0,-90.0,-62.0,-79.0,-77.0,-84.0,-110.0,-81.0,-84.0,-110.0,-84.0,-79.0,-83.0,-64.0,-110.0,-92.0,-110.0,-110.0,-110.0,-57.0,-110.0,-110.0,-110.0,-89.0,-110.0,-92.0,-87.0,-110.0,2437.0,5200.0,2417.0,2452.0,-1.0,2462.0,2412.0,-1.0,2427.0,2437.0,2422.0,2437.0,-1.0,5220.0,-1.0,-1.0,-1.0,2437.0,-1.0,-1.0,-1.0,2462.0,-1.0,2462.0,2462.0,-1.0,49.461087810283,11.110832476574,-2.0
2.0788,770.4354,0.19872,-0.38548,9.64414,4.93201,0.77888,-0.46054,-20.8,-34.0,-6.2,-110.0,-110.0,-90.0,-62.0,-79.0,-77.0,-84.0,-110.0,-81.0,-84.0,-110.0,-84.0,-79.0,-83.0,-64.0,-110.0,-92.0,-110.0,-110.0,-110.0,-57.0,-110.0,-110.0,-110.0,-89.0,-110.0,-92.0,-87.0,-110.0,2437.0,5200.0,2417.0,2452.0,-1.0,2462.0,2412.0,-1.0,2427.0,2437.0,2422.0,2437.0,-1.0,5220.0,-1.0,-1.0,-1.0,2437.0,-1.0,-1.0,-1.0,2462.0,-1.0,2462.0,2462.0,-1.0,49.461087810283,11.110832476574,-2.0
2.081,770.4555,0.59139,-0.99362,10.04638,6.28508,0.47651,0.44965,-25.2,-32.8,-4.1,-110.0,-110.0,-90.0,-62.0,-79.0,-77.0,-84.0,-110.0,-81.0,-84.0,-110.0,-84.0,-79.0,-83.0,-64.0,-110.0,-92.0,-110.0,-110.0,-110.0,-57.0,-110.0,-110.0,-110.0,-89.0,-110.0,-92.0,-87.0,-110.0,2437.0,5200.0,2417.0,2452.0,-1.0,2462.0,2412.0,-1.0,2427.0,2437.0,2422.0,2437.0,-1.0,5220.0,-1.0,-1.0,-1.0,2437.0,-1.0,-1.0,-1.0,2462.0,-1.0,2462.0,2462.0,-1.0,49.461087810283,11.110832476574,-2.0
2.0985,770.4755,0.5028,-2.8037,9.34007,8.2258,-0.27364,1.08739,-21.4,-34.3,1.2,-110.0,-110.0,-90.0,-62.0,-79.0,-77.0,-84.0,-110.0,-81.0,-84.0,-110.0,-84.0,-79.0,-83.0,-64.0,-110.0,-92.0,-110.0,-110.0,-110.0,-57.0,-110.0,-110.0,-110.0,-89.0,-110.0,-92.0,-87.0,-110.0,2437.0,5200.0,2417.0,2452.0,-1.0,2462.0,2412.0,-1.0,2427.0,2437.0,2422.0,2437.0,-1.0,5220.0,-1.0,-1.0,-1.0,2437.0,-1.0,-1.0,-1.0,2462.0,-1.0,2462.0,2462.0,-1.0,49.461087810283,11.110832476574,-2.0
2.1162,770.4955,0.19394,-4.95615,6.44539,9.36751,-0.88389,1.65794,-21.2,-32.7,8.8,-110.0,-110.0,-90.0,-62.0,-79.0,-77.0,-84.0,-110.0,-81.0,-84.0,-110.0,-84.0,-79.0,-83.0,-64.0,-110.0,-92.0,-110.0,-110.0,-110.0,-57.0,-110.0,-110.0,-110.0,-89.0,-110.0,-92.0,-87.0,-110.0,2437.0,5200.0,2417.0,2452.0,-1.0,2462.0,2412.0,-1.0,2427.0,2437.0,2422.0,2437.0,-1.0,5220.0,-1.0,-1.0,-1.0,2437.0,-1.0,-1.0,-1.0,2462.0,-1.0,2462.0,2462.0,-1.0,49.461087810283,11.110832476574,-2.0
2.1414,770.5156,0.45252,-6.64411,2.65525,9.01015,-0.23332,2.26453,-27.1,-27.7,12.3,-110.0,-110.0,-90.0,-62.0,-79.0,-77.0,-84.0,-110.0,-81.0,-84.0,-110.0,-84.0,-79.0,-83.0,-64.0,-110.0,-92.0,-110.0,-110.0,-110.0,-57.0,-110.0,-110.0,-110.0,-89.0,-110.0,-92.0,-87.0,-110.0,2437.0,5200.0,2417.0,2452.0,-1.0,2462.0,2412.0,-1.0,2427.0,2437.0,2422.0,2437.0,-1.0,5220.0,-1.0,-1.0,-1.0,2437.0,-1.0,-1.0,-1.0,2462.0,-1.0,2462.0,2462.0,-1.0,49.461087810283,11.110832476574,-2.0
2.1589,770.5356,1.30727,-7.64013,0.56026,8.10424,0.98597,2.82225,-23.6,-25.0,18.5,-110.0,-110.0,-90.0,-62.0,-79.0,-77.0,-84.0,-110.0,-81.0,-84.0,-110.0,-84.0,-79.0,-83.0,-64.0,-110.0,-92.0,-110.0,-110.0,-110.0,-57.0,-110.0,-110.0,-110.0,-89.0,-110.0,-92.0,-87.0,-110.0,2437.0,5200.0,2417.0,2452.0,-1.0,2462.0,2412.0,-1.0,2427.0,2437.0,2422.0,2437.0,-1.0,5220.0,-1.0,-1.0,-1.0,2437.0,-1.0,-1.0,-1.0,2462.0,-1.0,2462.0,2462.0,-1.0,49.461087810283,11.110832476574,-2.0
2.177,770.5556,3.05509,-8.23391,-0.23703,7.91853,0.92122,2.96092,-25.7,-19.0,22.3,-110.0,-110.0,-90.0,-62.0,-79.0,-77.0,-84.0,-110.0,-81.0,-84.0,-110.0,-84.0,-79.0,-83.0,-64.0,-110.0,-92.0,-110.0,-110.0,-110.0,-57.0,-110.0,-110.0,-110.0,-89.0,-110.0,-92.0,-87.0,-110.0,2437.0,5200.0,2417.0,2452.0,-1.0,2462.0,2412.0,-1.0,2427.0,2437.0,2422.0,2437.0,-1.0,5220.0,-1.0,-1.0,-1.0,2437.0,-1.0,-1.0,-1.0,2462.0,-1.0,2462.0,2462.0,-1.0,49.461087810283,11.110832476574,-2.0
2.1971,770.5756,4.82686,-8.62897,-0.93616,8.3272,0.54004,2.33112,-26.8,-15.0,24.7,-110.0,-110.0,-90.0,-62.0,-110.0,-74.0,-76.0,-110.0,-83.0,-80.0,-110.0,-73.0,-79.0,-110.0,-60.0,-85.0,-88.0,-83.0,-110.0,-110.0,-63.0,-110.0,-110.0,-110.0,-110.0,-110.0,-83.0,-110.0,-93.0,2437.0,-1.0,2417.0,2452.0,-1.0,2462.0,2412.0,-1.0,2427.0,2437.0,-1.0,2437.0,5220.0,5220.0,2462.0,-1.0,-1.0,2437.0,-1.0,-1.0,-1.0,-1.0,-1.0,2462.0,-1.0,5200.0,49.461087810283,11.110832476574,-2.0
2.2242,770.5957,5.08065,-9.57231,-2.23146,8.55628,-0.32067,1.5376,-30.3,-8.3,24.2,-110.0,-110.0,-90.0,-62.0,-110.0,-74.0,-76.0,-110.0,-83.0,-80.0,-110.0,-73.0,-79.0,-110.0,-60.0,-85.0,-88.0,-83.0,-110.0,-110.0,-63.0,-110.0,-110.0,-110.0,-110.0,-110.0,-83.0,-110.0,-93.0,2437.0,-1.0,2417.0,2452.0,-1.0,2462.0,2412.0,-1.0,2427.0,2437.0,-1.0,2437.0,5220.0,5220.0,2462.0,-1.0,-1.0,2437.0,-1.0,-1.0,-1.0,-1.0,-1.0,2462.0,-1.0,5200.0,49.461087810283,11.110832476574,-2.0
2.2369,770.6157,5.23867,-10.80057,-3.71352,8.3156,-0.73667,1.15276,-30.6,-0.6,25.8,-110.0,-110.0,-90.0,-62.0,-110.0,-74.0,-76.0,-110.0,-83.0,-80.0,-110.0,-73.0,-79.0,-110.0,-60.0,-85.0,-88.0,-83.0,-110.0,-110.0,-63.0,-110.0,-110.0,-110.0,-110.0,-110.0,-83.0,-110.0,-93.0,2437.0,-1.0,2417.0,2452.0,-1.0,2462.0,2412.0,-1.0,2427.0,2437.0,-1.0,2437.0,5220.0,5220.0,2462.0,-1.0,-1.0,2437.0,-1.0,-1.0,-1.0,-1.0,-1.0,2462.0,-1.0,5200.0,49.461087810283,11.110832476574,-2.0
2.2573,770.6357,6.26342,-11.92588,-5.23628,7.93014,-0.57052,0.65551,-28.6,4.4,27.1,-110.0,-110.0,-90.0,-62.0,-110.0,-74.0,-76.0,-110.0,-83.0,-80.0,-110.0,-73.0,-79.0,-110.0,-60.0,-85.0,-88.0,-83.0,-110.0,-110.0,-63.0,-110.0,-110.0,-110.0,-110.0,-110.0,-83.0,-110.0,-93.0,2437.0,-1.0,2417.0,2452.0,-1.0,2462.0,2412.0,-1.0,2427.0,2437.0,-1.0,2437.0,5220.0,5220.0,2462.0,-1.0,-1.0,2437.0,-1.0,-1.0,-1.0,-1.0,-1.0,2462.0,-1.0,5200.0,49.461087810283,11.110832476574,-2.0
2.2803,770.6558,8.66249,-12.38798,-6.56031,7.54957,0.0599,-0.25895,-32.1,9.4,24.5,-110.0,-110.0,-90.0,-62.0,-110.0,-74.0,-76.0,-110.0,-83.0,-80.0,-110.0,-73.0,-79.0,-110.0,-60.0,-85.0,-88.0,-83.0,-110.0,-110.0,-63.0,-110.0,-110.0,-110.0,-110.0,-110.0,-83.0,-110.0,-93.0,2437.0,-1.0,2417.0,2452.0,-1.0,2462.0,2412.0,-1.0,2427.0,2437.0,-1.0,2437.0,5220.0,5220.0,2462.0,-1.0,-1.0,2437.0,-1.0,-1.0,-1.0,-1.0,-1.0,2462.0,-1.0,5200.0,49.461087810283,11.110832476574,-2.0
2.2983,770.6758,11.29379,-12.75909,-8.08786,6.57524,1.51986,-1.5491,-34.2,12.7,23.1,-110.0,-110.0,-90.0,-62.0,-110.0,-74.0,-76.0,-110.0,-83.0,-80.0,-110.0,-73.0,-79.0,-110.0,-60.0,-85.0,-88.0,-83.0,-110.0,-110.0,-63.0,-110.0,-110.0,-110.0,-110.0,-110.0,-83.0,-110.0,-93.0,2437.0,-1.0,2417.0,2452.0,-1.0,2462.0,2412.0,-1.0,2427.0,2437.0,-1.0,2437.0,5220.0,5220.0,2462.0,-1.0,-1.0,2437.0,-1.0,-1.0,-1.0,-1.0,-1.0,2462.0,-1.0,5200.0,49.461087810283,11.110832476574,-2.0
2.3181,770.6958,13.58751,-13.34808,-8.4494,5.51905,2.71411,-2.78488,-35.4,14.5,20.8,-110.0,-110.0,-90.0,-62.0,-110.0,-74.0,-76.0,-110.0,-83.0,-80.0,-110.0,-73.0,-79.0,-110.0,-60.0,-85.0,-88.0,-83.0,-110.0,-110.0,-63.0,-110.0,-110.0,-110.0,-110.0,-110.0,-83.0,-110.0,-93.0,2437.0,-1.0,2417.0,2452.0,-1.0,2462.0,2412.0,-1.0,2427.0,2437.0,-1.0,2437.0,5220.0,5220.0,2462.0,-1.0,-1.0,2437.0,-1.0,-1.0,-1.0,-1.0,-1.0,2462.0,-1.0,5200.0,49.461087810283,11.110832476574,-2.0
2.3649,770.7158,15.75912,-14.0496,-7.22113,5.09511,2.93585,-3.8765,-38.0,13.7,17.6,-110.0,-110.0,-90.0,-62.0,-110.0,-74.0,-76.0,-110.0,-83.0,-80.0,-110.0,-73.0,-79.0,-110.0,-60.0,-85.0,-88.0,-83.0,-110.0,-110.0,-63.0,-110.0,-110.0,-110.0,-110.0,-110.0,-83.0,-110.0,-93.0,2437.0,-1.0,2417.0,2452.0,-1.0,2462.0,2412.0,-1.0,2427.0,2437.0,-1.0,2437.0,5220.0,5220.0,2462.0,-1.0,-1.0,2437.0,-1.0,-1.0,-1.0,-1.0,-1.0,2462.0,-1.0,5200.0,49.461087810283,11.110832476574,-2.0
2.3838,770.7358,18.17494,-15.12463,-5.12854,5.23256,2.72021,-5.16115,-38.9,12.0,13.0,-110.0,-110.0,-90.0,-62.0,-110.0,-74.0,-76.0,-110.0,-83.0,-80.0,-110.0,-73.0,-79.0,-110.0,-60.0,-85.0,-88.0,-83.0,-110.0,-110.0,-63.0,-110.0,-110.0,-110.0,-110.0,-110.0,-83.0,-110.0,-93.0,2437.0,-1.0,2417.0,2452.0,-1.0,2462.0,2412.0,-1.0,2427.0,2437.0,-1.0,2437.0,5220.0,5220.0,2462.0,-1.0,-1.0,2437.0,-1.0,-1.0,-1.0,-1.0,-1.0,2462.0,-1.0,5200.0,49.461087810283,11.110832476574,-2.0
2.3909,770.7558,21.07201,-16.31938,-3.87394,5.56609,3.24739,-6.65593,-40.4,8.8,12.1,-110.0,-110.0,-90.0,-62.0,-110.0,-74.0,-76.0,-110.0,-83.0,-80.0,-110.0,-73.0,-79.0,-110.0,-60.0,-85.0,-88.0,-83.0,-110.0,-110.0,-63.0,-110.0,-110.0,-110.0,-110.0,-110.0,-83.0,-110.0,-93.0,2437.0,-1.0,2417.0,2452.0,-1.0,2462.0,2412.0,-1.0,2427.0,2437.0,-1.0,2437.0,5220.0,5220.0,2462.0,-1.0,-1.0,2437.0,-1.0,-1.0,-1.0,-1.0,-1.0,2462.0,-1.0,5200.0,49.461087810283,11.110832476574,-2.0
2.4096,770.7758,23.59079,-17.38483,-4.23787,5.40238,4.41781,-8.32971,-41.6,3.9,8.4,-110.0,-110.0,-90.0,-62.0,-110.0,-74.0,-76.0,-110.0,-83.0,-80.0,-110.0,-73.0,-79.0,-110.0,-60.0,-85.0,-88.0,-83.0,-110.0,-110.0,-63.0,-110.0,-110.0,-110.0,-110.0,-110.0,-83.0,-110.0,-93.0,2437.0,-1.0,2417.0,2452.0,-1.0,2462.0,2412.0,-1.0,2427.0,2437.0,-1.0,2437.0,5220.0,5220.0,2462.0,-1.0,-1.0,2437.0,-1.0,-1.0,-1.0,-1.0,-1.0,2462.0,-1.0,5200.0,49.461087810283,11.110832476574,-2.0
2.4172,770.7958,24.56047,-18.60591,-5.27459,5.00593,5.57234,-9.74447,-42.4,-2.1,6.4,-110.0,-110.0,-90.0,-62.0,-110.0,-74.0,-76.0,-110.0,-83.0,-80.0,-110.0,-73.0,-79.0,-110.0,-60.0,-85.0,-88.0,-83.0,-110.0,-110.0,-63.0,-110.0,-110.0,-110.0,-110.0,-110.0,-83.0,-110.0,-93.0,2437.0,-1.0,2417.0,2452.0,-1.0,2462.0,2412.0,-1.0,2427.0,2437.0,-1.0,2437.0,5220.0,5220.0,2462.0,-1.0,-1.0,2437.0,-1.0,-1.0,-1.0,-1.0,-1.0,2462.0,-1.0,5200.0,49.461087810283,11.110832476574,-2.0
2.4432,770.8158,23.47347,-19.17814,-6.27539,4.39201,6.26934,-10.40115,-41.0,-10.1,2.4,-110.0,-110.0,-90.0,-62.0,-110.0,-74.0,-76.0,-110.0,-83.0,-80.0,-110.0,-73.0,-79.0,-110.0,-60.0,-85.0,-88.0,-83.0,-110.0,-110.0,-63.0,-110.0,-110.0,-110.0,-110.0,-110.0,-83.0,-110.0,-93.0,2437.0,-1.0,2417.0,2452.0,-1.0,2462.0,2412.0,-1.0,2427.0,2437.0,-1.0,2437.0,5220.0,5220.0,2462.0,-1.0,-1.0,2437.0,-1.0,-1.0,-1.0,-1.0,-1.0,2462.0,-1.0,5200.0,49.461087810283,11.110832476574,-2.0
2.4598,770.8358,20.94991,-18.26113,-7.11339,3.72128,6.5595,-10.43047,-38.1,-19.2,-2.5,-110.0,-110.0,-90.0,-62.0,-110.0,-74.0,-76.0,-110.0,-83.0,-80.0,-110.0,-73.0,-79.0,-110.0,-60.0,-85.0,-88.0,-83.0,-110.0,-110.0,-63.0,-110.0,-110.0,-110.0,-110.0,-110.0,-83.0,-110.0,-93.0,2437.0,-1.0,2417.0,2452.0,-1.0,2462.0,2412.0,-1.0,2427.0,2437.0,-1.0,2437.0,5220.0,5220.0,2462.0,-1.0,-1.0,2437.0,-1.0,-1.0,-1.0,-1.0,-1.0,2462.0,-1.0,5200.0,49.461087810283,11.110832476574,-2.0
2.4776,770.8558,17.68172,-16.33135,-7.9466,2.84896,6.31393,-10.08411,-31.5,-26.2,-4.7,-110.0,-110.0,-90.0,-62.0,-110.0,-74.0,-76.0,-110.0,-83.0,-80.0,-110.0,-73.0,-79.0,-110.0,-60.0,-85.0,-88.0,-83.0,-110.0,-110.0,-63.0,-110.0,-110.0,-110.0,-110.0,-110.0,-83.0,-110.0,-93.0,2437.0,-1.0,2417.0,2452.0,-1.0,2462.0,2412.0,-1.0,2427.0,2437.0,-1.0,2437.0,5220.0,5220.0,2462.0,-1.0,-1.0,2437.0,-1.0,-1.0,-1.0,-1.0,-1.0,2462.0,-1.0,5200.0,49.461087810283,11.110832476574,-2.0
2.4986,770.8758,14.04721,-13.76947,-8.58108,1.77812,5.78492,-9.42743,-26.5,-31.9,-9.4,-110.0,-110.0,-90.0,-62.0,-110.0,-74.0,-76.0,-110.0,-83.0,-80.0,-110.0,-73.0,-79.0,-110.0,-60.0,-85.0,-88.0,-83.0,-110.0,-110.0,-63.0,-110.0,-110.0,-110.0,-110.0,-110.0,-83.0,-110.0,-93.0,2437.0,-1.0,2417.0,2452.0,-1.0,2462.0,2412.0,-1.0,2427.0,2437.0,-1.0,2437.0,5220.0,5220.0,2462.0,-1.0,-1.0,2437.0,-1.0,-1.0,-1.0,-1.0,-1.0,2462.0,-1.0,5200.0,49.461087810283,11.110832476574,-2.0
2.5253,770.8958,10.4534,-11.28182,-8.42306,0.46231,5.1368,-8.55511,-16.4,-38.2,-9.5,-110.0,-110.0,-90.0,-62.0,-110.0,-74.0,-76.0,-110.0,-83.0,-80.0,-110.0,-73.0,-79.0,-110.0,-60.0,-85.0,-88.0,-83.0,-110.0,-110.0,-63.0,-110.0,-110.0,-110.0,-110.0,-110.0,-83.0,-110.0,-93.0,2437.0,-1.0,2417.0,2452.0,-1.0,2462.0,2412.0,-1.0,2427.0,2437.0,-1.0,2437.0,5220.0,5220.0,2462.0,-1.0,-1.0,2437.0,-1.0,-1.0,-1.0,-1.0,-1.0,2462.0,-1.0,5200.0,49.461087810283,11.110832476574,-2.0
2.5382,770.9158,7.24508,-8.85163,-7.42465,-0.6574,4.45141,-7.45128,-9.2,-39.7,-10.0,-110.0,-110.0,-90.0,-62.0,-110.0,-74.0,-76.0,-110.0,-83.0,-80.0,-110.0,-73.0,-79.0,-110.0,-60.0,-85.0,-88.0,-83.0,-110.0,-110.0,-63.0,-110.0,-110.0,-110.0,-110.0,-110.0,-83.0,-110.0,-93.0,2437.0,-1.0,2417.0,2452.0,-1.0,2462.0,2412.0,-1.0,2427.0,2437.0,-1.0,2437.0,5220.0,5220.0,2462.0,-1.0,-1.0,2437.0,-1.0,-1.0,-1.0,-1.0,-1.0,2462.0,-1.0,5200.0,49.461087810283,11.110832476574,-2.0
2.5682,770.9357,5.23149,-6.34962,-5.12854,-1.58836,3.63529,-6.83309,-3.5,-39.8,-12.4,-110.0,-110.0,-90.0,-62.0,-110.0,-74.0,-76.0,-110.0,-83.0,-80.0,-110.0,-73.0,-79.0,-110.0,-60.0,-85.0,-88.0,-83.0,-110.0,-110.0,-63.0,-110.0,-110.0,-110.0,-110.0,-110.0,-83.0,-110.0,-93.0,2437.0,-1.0,2417.0,2452.0,-1.0,2462.0,2412.0,-1.0,2427.0,2437.0,-1.0,2437.0,5220.0,5220.0,2462.0,-1.0,-1.0,2437.0,-1.0,-1.0,-1.0,-1.0,-1.0,2462.0,-1.0,5200.0,49.461087810283,11.110832476574,-2.0
2.5999,770.9557,3.73507,-4.42462,-1.6736,-1.71603,1.97435,-6.62539,1.5,-39.7,-12.8,-110.0,-110.0,-90.0,-62.0,-110.0,-74.0,-76.0,-110.0,-83.0,-80.0,-110.0,-73.0,-79.0,-110.0,-60.0,-85.0,-88.0,-83.0,-110.0,-110.0,-63.0,-110.0,-110.0,-110.0,-110.0,-110.0,-83.0,-110.0,-93.0,2437.0,-1.0,2417.0,2452.0,-1.0,2462.0,2412.0,-1.0,2427.0,2437.0,-1.0,2437.0,5220.0,5220.0,2462.0,-1.0,-1.0,2437.0,-1.0,-1.0,-1.0,-1.0,-1.0,2462.0,-1.0,5200.0,49.461087810283,11.110832476574,-2.0
2.6073,770.9757,2.67919,-3.22988,0.34717,-1.43748,0.4258,-6.25765,6.3,-38.1,-12.8,-110.0,-110.0,-90.0,-62.0,-110.0,-74.0,-76.0,-110.0,-83.0,-80.0,-110.0,-73.0,-79.0,-110.0,-60.0,-85.0,-88.0,-83.0,-110.0,-110.0,-63.0,-110.0,-110.0,-110.0,-110.0,-110.0,-83.0,-110.0,-93.0,2437.0,-1.0,2417.0,2452.0,-1.0,2462.0,2412.0,-1.0,2427.0,2437.0,-1.0,2437.0,5220.0,5220.0,2462.0,-1.0,-1.0,2437.0,-1.0,-1.0,-1.0,-1.0,-1.0,2462.0,-1.0,5200.0,49.461087810283,11.110832476574,-2.0
2.6179,770.9957,0.28013,-2.75102,1.89387,-1.8883,0.47895,-5.33769,10.2,-36.6,-14.3,-110.0,-110.0,-90.0,-62.0,-110.0,-74.0,-76.0,-110.0,-83.0,-80.0,-110.0,-73.0,-79.0,-110.0,-60.0,-85.0,-88.0,-83.0,-110.0,-110.0,-63.0,-110.0,-110.0,-110.0,-110.0,-110.0,-83.0,-110.0,-93.0,2437.0,-1.0,2417.0,2452.0,-1.0,2462.0,2412.0,-1.0,2427.0,2437.0,-1.0,2437.0,5220.0,5220.0,2462.0,-1.0,-1.0,2437.0,-1.0,-1.0,-1.0,-1.0,-1.0,2462.0,-1.0,5200.0,49.461087810283,11.110832476574,-2.0
2.6416,771.0157,-1.8412,-1.925,4.11815,-1.89868,0.69336,-3.8991,12.6,-34.2,-17.3,-110.0,-110.0,-93.0,-62.0,-110.0,-74.0,-76.0,-110.0,-83.0,-80.0,-110.0,-73.0,-79.0,-110.0,-60.0,-85.0,-88.0,-83.0,-110.0,-110.0,-63.0,-110.0,-110.0,-110.0,-110.0,-110.0,-83.0,-110.0,-93.0,2437.0,-1.0,2417.0,2452.0,-1.0,2462.0,2412.0,-1.0,2427.0,2437.0,-1.0,2437.0,5220.0,5220.0,2462.0,-1.0,-1.0,2437.0,-1.0,-1.0,-1.0,-1.0,-1.0,2462.0,-1.0,5200.0,49.461087810283,11.110832476574,-2.0
2.6667,771.0357,-2.15964,-0.5866,5.92822,-1.28843,0.5101,-3.0726,19.7,-34.9,-16.1,-110.0,-110.0,-93.0,-62.0,-110.0,-74.0,-76.0,-110.0,-83.0,-80.0,-110.0,-73.0,-79.0,-110.0,-60.0,-85.0,-88.0,-83.0,-110.0,-110.0,-63.0,-110.0,-110.0,-110.0,-110.0,-110.0,-83.0,-110.0,-93.0,2437.0,-1.0,2417.0,2452.0,-1.0,2462.0,2412.0,-1.0,2427.0,2437.0,-1.0,2437.0,5220.0,5220.0,2462.0,-1.0,-1.0,2437.0,-1.0,-1.0,-1.0,-1.0,-1.0,2462.0,-1.0,5200.0,49.461087810283,11.110832476574,-2.0
2.6789,771.0557,-2.1333,0.57941,6.19159,-1.11983,0.17657,-2.93882,20.9,-33.2,-16.7,-110.0,-110.0,-93.0,-62.0,-110.0,-74.0,-76.0,-110.0,-83.0,-80.0,-110.0,-73.0,-79.0,-110.0,-60.0,-85.0,-88.0,-83.0,-110.0,-110.0,-63.0,-110.0,-110.0,-110.0,-110.0,-110.0,-83.0,-110.0,-93.0,2437.0,-1.0,2417.0,2452.0,-1.0,2462.0,2412.0,-1.0,2427.0,2437.0,-1.0,2437.0,5220.0,5220.0,2462.0,-1.0,-1.0,2437.0,-1.0,-1.0,-1.0,-1.0,-1.0,2462.0,-1.0,5200.0,49.461087810283,11.110832476574,-2.0
2.7025,771.0757,-3.40466,1.05348,7.04875,-1.16687,-0.10992,-2.55642,17.4,-30.6,-21.2,-110.0,-110.0,-93.0,-62.0,-110.0,-74.0,-76.0,-110.0,-83.0,-80.0,-110.0,-73.0,-79.0,-110.0,-60.0,-85.0,-88.0,-83.0,-110.0,-110.0,-63.0,-110.0,-110.0,-110.0,-110.0,-110.0,-83.0,-110.0,-93.0,2437.0,-1.0,2417.0,2452.0,-1.0,2462.0,2412.0,-1.0,2427.0,2437.0,-1.0,2437.0,5220.0,5220.0,2462.0,-1.0,-1.0,2437.0,-1.0,-1.0,-1.0,-1.0,-1.0,2462.0,-1.0,5200.0,49.461087810283,11.110832476574,-2.0
2.7234,771.0958,-4.69038,1.4222,8.00406,-0.75209,-0.17529,-1.54238,23.6,-29.5,-16.2,-110.0,-110.0,-93.0,-62.0,-110.0,-74.0,-76.0,-110.0,-83.0,-80.0,-110.0,-73.0,-79.0,-110.0,-60.0,-85.0,-88.0,-83.0,-110.0,-110.0,-63.0,-110.0,-110.0,-110.0,-110.0,-110.0,-83.0,-110.0,-93.0,2437.0,-1.0,2417.0,2452.0,-1.0,2462.0,2412.0,-1.0,2427.0,2437.0,-1.0,2437.0,5220.0,5220.0,2462.0,-1.0,-1.0,2437.0,-1.0,-1.0,-1.0,-1.0,-1.0,2462.0,-1.0,5200.0,49.461087810283,11.110832476574,-2.0
2.7418,771.1158,-4.35758,2.10457,7.96336,-0.44482,-0.193,-0.78857,24.7,-27.9,-17.9,-110.0,-110.0,-93.0,-62.0,-110.0,-74.0,-76.0,-110.0,-83.0,-80.0,-110.0,-73.0,-79.0,-110.0,-60.0,-85.0,-88.0,-83.0,-110.0,-110.0,-63.0,-110.0,-110.0,-110.0,-110.0,-110.0,-83.0,-110.0,-93.0,2437.0,-1.0,2417.0,2452.0,-1.0,2462.0,2412.0,-1.0,2427.0,2437.0,-1.0,2437.0,5220.0,5220.0,2462.0,-1.0,-1.0,2437.0,-1.0,-1.0,-1.0,-1.0,-1.0,2462.0,-1.0,5200.0,49.461087810283,11.110832476574,-2.0
2.7633,771.1358,-2.94496,2.93059,7.35282,-0.6122,-0.30601,-0.90891,25.0,-27.7,-17.1,-110.0,-110.0,-93.0,-62.0,-110.0,-74.0,-76.0,-110.0,-83.0,-80.0,-110.0,-73.0,-79.0,-110.0,-60.0,-85.0,-88.0,-83.0,-110.0,-110.0,-63.0,-110.0,-110.0,-110.0,-110.0,-110.0,-83.0,-110.0,-93.0,2437.0,-1.0,2417.0,2452.0,-1.0,2462.0,2412.0,-1.0,2427.0,2437.0,-1.0,2437.0,5220.0,5220.0,2462.0,-1.0,-1.0,2437.0,-1.0,-1.0,-1.0,-1.0,-1.0,2462.0,-1.0,5200.0,49.461087810283,11.110832476574,-2.0
2.7766,771.1559,-2.62652,3.36156,7.34803,-0.82784,-0.48133,-1.32736,24.7,-27.1,-18.2,-110.0,-110.0,-93.0,-62.0,-110.0,-74.0,-76.0,-110.0,-83.0,-80.0,-110.0,-73.0,-79.0,-110.0,-60.0,-85.0,-88.0,-83.0,-110.0,-110.0,-63.0,-110.0,-110.0,-110.0,-110.0,-110.0,-83.0,-110.0,-93.0,2437.0,-1.0,2417.0,2452.0,-1.0,2462.0,2412.0,-1.0,2427.0,2437.0,-1.0,2437.0,5220.0,5220.0,2462.0,-1.0,-1.0,2437.0,-1.0,-1.0,-1.0,-1.0,-1.0,2462.0,-1.0,5200.0,49.461087810283,11.110832476574,-2.0
2.7987,771.1759,-3.2203,3.43339,7.9466,-0.75636,-0.73301,-1.19969,25.8,-26.3,-20.0,-110.0,-110.0,-93.0,-62.0,-110.0,-74.0,-76.0,-110.0,-83.0,-80.0,-110.0,-73.0,-79.0,-110.0,-60.0,-85.0,-88.0,-83.0,-110.0,-110.0,-63.0,-110.0,-110.0,-110.0,-110.0,-110.0,-83.0,-110.0,-93.0,2437.0,-1.0,2417.0,2452.0,-1.0,2462.0,2412.0,-1.0,2427.0,2437.0,-1.0,2437.0,5220.0,5220.0,2462.0,-1.0,-1.0,2437.0,-1.0,-1.0,-1.0,-1.0,-1.0,2462.0,-1.0,5200.0,49.461087810283,11.110832476574,-2.0
2.8188,771.1959,-3.56268,3.42381,8.31532,-0.41306,-0.84968,-0.76353,25.2,-26.0,-19.4,-110.0,-110.0,-93.0,-62.0,-110.0,-74.0,-76.0,-110.0,-83.0,-80.0,-110.0,-73.0,-79.0,-110.0,-60.0,-85.0,-88.0,-83.0,-110.0,-110.0,-63.0,-110.0,-110.0,-110.0,-110.0,-110.0,-83.0,-110.0,-93.0,2437.0,-1.0,2417.0,2452.0,-1.0,2462.0,2412.0,-1.0,2427.0,2437.0,-1.0,2437.0,5220.0,5220.0,2462.0,-1.0,-1.0,2437.0,-1.0,-1.0,-1.0,-1.0,-1.0,2462.0,-1.0,5200.0,49.461087810283,11.110832476574,-2.0
2.8392,771.2159,-2.89228,3.57944,8.33686,-0.36724,-0.78004,-0.60348,23.5,-24.9,-21.3,-110.0,-110.0,-93.0,-62.0,-110.0,-74.0,-76.0,-110.0,-83.0,-80.0,-110.0,-73.0,-79.0,-110.0,-60.0,-85.0,-88.0,-83.0,-110.0,-110.0,-63.0,-110.0,-110.0,-110.0,-110.0,-110.0,-83.0,-110.0,-93.0,2437.0,-1.0,2417.0,2452.0,-1.0,2462.0,2412.0,-1.0,2427.0,2437.0,-1.0,2437.0,5220.0,5220.0,2462.0,-1.0,-1.0,2437.0,-1.0,-1.0,-1.0,-1.0,-1.0,2462.0,-1.0,5200.0,49.461087810283,11.110832476574,-2.0
2.8591,771.236,-2.40864,3.62972,8.43742,-0.40512,-0.52104,-0.88509,23.5,-24.1,-21.3,-110.0,-110.0,-93.0,-62.0,-110.0,-74.0,-76.0,-110.0,-83.0,-80.0,-110.0,-73.0,-79.0,-110.0,-60.0,-85.0,-88.0,-83.0,-110.0,-110.0,-63.0,-110.0,-110.0,-110.0,-110.0,-110.0,-83.0,-110.0,-93.0,2437.0,-1.0,2417.0,2452.0,-1.0,2462.0,2412.0,-1.0,2427.0,2437.0,-1.0,2437.0,5220.0,5220.0,2462.0,-1.0,-1.0,2437.0,-1.0,-1.0,-1.0,-1.0,-1.0,2462.0,-1.0,5200.0,49.461087810283,11.110832476574,-2.0
2.8789,771.256,-2.56666,3.4717,8.47573,-0.5053,-0.20217,-1.0488,23.8,-23.0,-22.2,-110.0,-110.0,-93.0,-62.0,-110.0,-74.0,-76.0,-110.0,-83.0,-80.0,-110.0,-73.0,-79.0,-110.0,-60.0,-85.0,-88.0,-83.0,-110.0,-110.0,-63.0,-110.0,-110.0,-110.0,-110.0,-110.0,-83.0,-110.0,-93.0,2437.0,-1.0,2417.0,2452.0,-1.0,2462.0,2412.0,-1.0,2427.0,2437.0,-1.0,2437.0,5220.0,5220.0,2462.0,-1.0,-1.0,2437.0,-1.0,-1.0,-1.0,-1.0,-1.0,2462.0,-1.0,5200.0,49.461087810283,11.110832476574,-2.0
2.8992,771.276,-3.03594,3.22748,8.88515,-0.56272,-0.30357,-1.0543,22.1,-22.3,-23.1,-110.0,-110.0,-93.0,-62.0,-110.0,-74.0,-76.0,-110.0,-83.0,-80.0,-110.0,-73.0,-79.0,-110.0,-60.0,-85.0,-88.0,-83.0,-110.0,-110.0,-63.0,-110.0,-110.0,-110.0,-110.0,-110.0,-83.0,-110.0,-93.0,2437.0,-1.0,2417.0,2452.0,-1.0,2462.0,2412.0,-1.0,2427.0,2437.0,-1.0,2437.0,5220.0,5220.0,2462.0,-1.0,-1.0,2437.0,-1.0,-1.0,-1.0,-1.0,-1.0,2462.0,-1.0,5200.0,49.461087810283,11.110832476574,-2.0
2.9181,771.2961,-3.37114,2.9689,9.22993,-0.39901,-0.31273,-0.89425,22.3,-21.6,-23.5,-110.0,-110.0,-93.0,-62.0,-110.0,-74.0,-76.0,-110.0,-83.0,-80.0,-110.0,-73.0,-79.0,-110.0,-60.0,-85.0,-88.0,-83.0,-110.0,-110.0,-63.0,-110.0,-110.0,-110.0,-110.0,-110.0,-83.0,-110.0,-93.0,2437.0,-1.0,2417.0,2452.0,-1.0,2462.0,2412.0,-1.0,2427.0,2437.0,-1.0,2437.0,5220.0,5220.0,2462.0,-1.0,-1.0,2437.0,-1.0,-1.0,-1.0,-1.0,-1.0,2462.0,-1.0,5200.0,49.461087810283,11.110832476574,-2.0
2.9419,771.3161,-3.45733,2.76539,9.34246,-0.30188,-0.15452,-0.75803,22.3,-22.0,-23.6,-110.0,-110.0,-93.0,-62.0,-110.0,-74.0,-76.0,-110.0,-83.0,-80.0,-110.0,-73.0,-79.0,-110.0,-60.0,-85.0,-88.0,-83.0,-110.0,-110.0,-63.0,-110.0,-110.0,-110.0,-110.0,-110.0,-83.0,-110.0,-93.0,2437.0,-1.0,2417.0,2452.0,-1.0,2462.0,2412.0,-1.0,2427.0,2437.0,-1.0,2437.0,5220.0,5220.0,2462.0,-1.0,-1.0,2437.0,-1.0,-1.0,-1.0,-1.0,-1.0,2462.0,-1.0,5200.0,49.461087810283,11.110832476574,-2.0
2.9591,771.3361,-3.42621,2.62891,9.21796,-0.29638,0.12831,-0.70916,22.6,-21.4,-24.9,-110.0,-110.0,-93.0,-62.0,-110.0,-74.0,-76.0,-110.0,-83.0,-80.0,-110.0,-73.0,-79.0,-110.0,-60.0,-85.0,-88.0,-83.0,-110.0,-110.0,-63.0,-110.0,-110.0,-110.0,-110.0,-110.0,-83.0,-110.0,-93.0,2437.0,-1.0,2417.0,2452.0,-1.0,2462.0,2412.0,-1.0,2427.0,2437.0,-1.0,2437.0,5220.0,5220.0,2462.0,-1.0,-1.0,2437.0,-1.0,-1.0,-1.0,-1.0,-1.0,2462.0,-1.0,5200.0,49.461087810283,11.110832476574,-2.0
2.98,771.3561,-3.47649,2.5092,9.0312,-0.34647,0.19978,-0.6493,23.1,-20.5,-23.6,-110.0,-110.0,-93.0,-62.0,-110.0,-74.0,-76.0,-110.0,-83.0,-80.0,-110.0,-73.0,-79.0,-110.0,-60.0,-85.0,-88.0,-83.0,-110.0,-110.0,-63.0,-110.0,-110.0,-110.0,-110.0,-110.0,-83.0,-110.0,-93.0,2437.0,-1.0,2417.0,2452.0,-1.0,2462.0,2412.0,-1.0,2427.0,2437.0,-1.0,2437.0,5220.0,5220.0,2462.0,-1.0,-1.0,2437.0,-1.0,-1.0,-1.0,-1.0,-1.0,2462.0,-1.0,5200.0,49.461087810283,11.110832476574,-2.0
3.0088,771.3762,-3.5148,2.41582,8.86361,-0.34647,0.06417,-0.57049,23.0,-20.1,-24.0,-110.0,-110.0,-93.0,-62.0,-110.0,-74.0,-76.0,-110.0,-83.0,-80.0,-110.0,-73.0,-79.0,-110.0,-60.0,-85.0,-88.0,-83.0,-110.0,-110.0,-63.0,-110.0,-110.0,-110.0,-110.0,-110.0,-83.0,-110.0,-93.0,2437.0,-1.0,2417.0,2452.0,-1.0,2462.0,2412.0,-1.0,2427.0,2437.0,-1.0,2437.0,5220.0,5220.0,2462.0,-1.0,-1.0,2437.0,-1.0,-1.0,-1.0,-1.0,-1.0,2462.0,-1.0,5200.0,49.461087810283,11.110832476574,-2.0
3.0262,771.3962,-3.46212,2.2985,8.90431,-0.39656,-0.03662,-0.53262,23.4,-20.0,-24.7,-110.0,-110.0,-93.0,-62.0,-110.0,-74.0,-76.0,-110.0,-83.0,-80.0,-110.0,-73.0,-79.0,-110.0,-60.0,-85.0,-88.0,-83.0,-110.0,-110.0,-63.0,-110.0,-110.0,-110.0,-110.0,-110.0,-83.0,-110.0,-93.0,2437.0,-1.0,2417.0,2452.0,-1.0,2462.0,2412.0,-1.0,2427.0,2437.0,-1.0,2437.0,5220.0,5220.0,2462.0,-1.0,-1.0,2437.0,-1.0,-1.0,-1.0,-1.0,-1.0,2462.0,-1.0,5200.0,49.461087810283,11.110832476574,-2.0
3.0435,771.4162,-3.31607,2.174,8.97853,-0.2976,0.08189,-0.47703,23.0,-19.3,-24.3,-110.0,-110.0,-93.0,-62.0,-110.0,-74.0,-76.0,-110.0,-83.0,-80.0,-110.0,-73.0,-79.0,-110.0,-60.0,-85.0,-88.0,-83.0,-110.0,-110.0,-63.0,-110.0,-110.0,-110.0,-110.0,-110.0,-83.0,-110.0,-93.0,2437.0,-1.0,2417.0,2452.0,-1.0,2462.0,2412.0,-1.0,2427.0,2437.0,-1.0,2437.0,5220.0,5220.0,2462.0,-1.0,-1.0,2437.0,-1.0,-1.0,-1.0,-1.0,-1.0,2462.0,-1.0,5200.0,49.461087810283,11.110832476574,-2.0
3.0644,771.4363,-3.12692,2.12133,8.70319,-0.28783,0.19245,-0.46543,23.2,-18.9,-24.1,-110.0,-110.0,-93.0,-62.0,-110.0,-74.0,-76.0,-110.0,-83.0,-80.0,-110.0,-73.0,-79.0,-110.0,-60.0,-85.0,-88.0,-83.0,-110.0,-110.0,-63.0,-110.0,-110.0,-110.0,-110.0,-110.0,-83.0,-110.0,-93.0,2437.0,-1.0,2417.0,2452.0,-1.0,2462.0,2412.0,-1.0,2427.0,2437.0,-1.0,2437.0,5220.0,5220.0,2462.0,-1.0,-1.0,2437.0,-1.0,-1.0,-1.0,-1.0,-1.0,2462.0,-1.0,5200.0,49.461087810283,11.110832476574,-2.0
3.0782,771.4563,-2.95214,2.09499,8.28658,-0.40512,0.27003,-0.47215,23.6,-18.1,-24.1,-110.0,-110.0,-93.0,-62.0,-110.0,-74.0,-76.0,-110.0,-83.0,-80.0,-110.0,-73.0,-79.0,-110.0,-60.0,-85.0,-88.0,-83.0,-110.0,-110.0,-63.0,-110.0,-110.0,-110.0,-110.0,-110.0,-83.0,-110.0,-93.0,2437.0,-1.0,2417.0,2452.0,-1.0,2462.0,2412.0,-1.0,2427.0,2437.0,-1.0,2437.0,5220.0,5220.0,2462.0,-1.0,-1.0,2437.0,-1.0,-1.0,-1.0,-1.0,-1.0,2462.0,-1.0,5200.0,49.461087810283,11.110832476574,-2.0
3.0984,771.4763,-2.70792,2.07105,7.8604,-0.56639,0.32623,-0.50819,23.3,-18.0,-25.0,-110.0,-110.0,-93.0,-62.0,-110.0,-74.0,-76.0,-110.0,-83.0,-80.0,-110.0,-73.0,-79.0,-110.0,-60.0,-85.0,-88.0,-83.0,-110.0,-110.0,-63.0,-110.0,-110.0,-110.0,-110.0,-110.0,-83.0,-110.0,-93.0,2437.0,-1.0,2417.0,2452.0,-1.0,2462.0,2412.0,-1.0,2427.0,2437.0,-1.0,2437.0,5220.0,5220.0,2462.0,-1.0,-1.0,2437.0,-1.0,-1.0,-1.0,-1.0,-1.0,2462.0,-1.0,5200.0,49.461087810283,11.110832476574,-2.0
3.1215,771.4963,-2.23865,2.08302,7.16846,-0.78691,0.34945,-0.61448,23.5,-18.4,-24.4,-110.0,-110.0,-93.0,-62.0,-110.0,-74.0,-76.0,-110.0,-83.0,-80.0,-110.0,-73.0,-79.0,-110.0,-60.0,-85.0,-88.0,-83.0,-110.0,-110.0,-63.0,-110.0,-110.0,-110.0,-110.0,-110.0,-83.0,-110.0,-93.0,2437.0,-1.0,2417.0,2452.0,-1.0,2462.0,2412.0,-1.0,2427.0,2437.0,-1.0,2437.0,5220.0,5220.0,2462.0,-1.0,-1.0,2437.0,-1.0,-1.0,-1.0,-1.0,-1.0,2462.0,-1.0,5200.0,49.461087810283,11.110832476574,-2.0
3.1585,771.5164,-1.69275,2.05429,6.3975,-1.15098,0.42336,-0.84844,23.2,-18.1,-24.8,-110.0,-110.0,-93.0,-62.0,-110.0,-74.0,-76.0,-110.0,-83.0,-80.0,-110.0,-73.0,-79.0,-110.0,-60.0,-85.0,-88.0,-83.0,-110.0,-110.0,-63.0,-110.0,-110.0,-110.0,-110.0,-110.0,-83.0,-110.0,-93.0,2437.0,-1.0,2417.0,2452.0,-1.0,2462.0,2412.0,-1.0,2427.0,2437.0,-1.0,2437.0,5220.0,5220.0,2462.0,-1.0,-1.0,2437.0,-1.0,-1.0,-1.0,-1.0,-1.0,2462.0,-1.0,5200.0,49.461087810283,11.110832476574,-2.0
3.1742,771.5364,-1.13728,1.94176,5.73668,-1.60363,0.33173,-1.16548,23.2,-17.5,-25.0,-110.0,-110.0,-93.0,-62.0,-110.0,-74.0,-76.0,-110.0,-83.0,-80.0,-110.0,-73.0,-79.0,-110.0,-60.0,-85.0,-88.0,-83.0,-110.0,-110.0,-63.0,-110.0,-110.0,-110.0,-110.0,-110.0,-83.0,-110.0,-93.0,2437.0,-1.0,2417.0,2452.0,-1.0,2462.0,2412.0,-1.0,2427.0,2437.0,-1.0,2437.0,5220.0,5220.0,2462.0,-1.0,-1.0,2437.0,-1.0,-1.0,-1.0,-1.0,-1.0,2462.0,-1.0,5200.0,49.461087810283,11.110832476574,-2.0
3.1822,771.5564,-0.21548,1.76937,5.3512,-2.01047,-0.16674,-1.55582,23.4,-16.4,-25.3,-110.0,-110.0,-93.0,-62.0,-110.0,-74.0,-76.0,-110.0,-83.0,-80.0,-110.0,-73.0,-79.0,-110.0,-60.0,-85.0,-88.0,-83.0,-110.0,-110.0,-63.0,-110.0,-110.0,-110.0,-110.0,-110.0,-83.0,-110.0,-93.0,2437.0,-1.0,2417.0,2452.0,-1.0,2462.0,2412.0,-1.0,2427.0,2437.0,-1.0,2437.0,5220.0,5220.0,2462.0,-1.0,-1.0,2437.0,-1.0,-1.0,-1.0,-1.0,-1.0,2462.0,-1.0,5200.0,49.461087810283,11.110832476574,-2.0
3.2002,771.5765,1.27615,1.75979,5.49247,-2.30796,-1.01706,-2.12331,24.0,-14.0,-25.7,-110.0,-110.0,-93.0,-62.0,-110.0,-74.0,-76.0,-110.0,-83.0,-80.0,-110.0,-73.0,-79.0,-110.0,-60.0,-85.0,-88.0,-83.0,-110.0,-110.0,-63.0,-110.0,-110.0,-110.0,-110.0,-110.0,-83.0,-110.0,-93.0,2437.0,-1.0,2417.0,2452.0,-1.0,2462.0,2412.0,-1.0,2427.0,2437.0,-1.0,2437.0,5220.0,5220.0,2462.0,-1.0,-1.0,2437.0,-1.0,-1.0,-1.0,-1.0,-1.0,2462.0,-1.0,5200.0,49.461087810283,11.110832476574,-2.0
3.2445,771.5965,3.37114,2.01359,5.54753,-2.32201,-2.27666,-2.84658,24.3,-11.4,-26.5,-110.0,-110.0,-93.0,-62.0,-110.0,-74.0,-76.0,-110.0,-83.0,-80.0,-110.0,-73.0,-79.0,-110.0,-60.0,-85.0,-88.0,-83.0,-110.0,-110.0,-63.0,-110.0,-110.0,-110.0,-110.0,-110.0,-83.0,-110.0,-93.0,2437.0,-1.0,2417.0,2452.0,-1.0,2462.0,2412.0,-1.0,2427.0,2437.0,-1.0,2437.0,5220.0,5220.0,2462.0,-1.0,-1.0,2437.0,-1.0,-1.0,-1.0,-1.0,-1.0,2462.0,-1.0,5200.0,49.461087810283,11.110832476574,-2.0
3.2478,771.6165,6.09103,1.4222,5.39909,-2.13814,-4.01396,-3.62299,24.3,-7.9,-28.0,-110.0,-110.0,-93.0,-62.0,-110.0,-74.0,-76.0,-110.0,-83.0,-80.0,-110.0,-73.0,-79.0,-110.0,-60.0,-85.0,-88.0,-83.0,-110.0,-110.0,-63.0,-110.0,-110.0,-110.0,-110.0,-110.0,-83.0,-110.0,-93.0,2437.0,-1.0,2417.0,2452.0,-1.0,2462.0,2412.0,-1.0,2427.0,2437.0,-1.0,2437.0,5220.0,5220.0,2462.0,-1.0,-1.0,2437.0,-1.0,-1.0,-1.0,-1.0,-1.0,2462.0,-1.0,5200.0,49.461087810283,11.110832476574,-2.0
3.2574,771.6365,8.67925,0.53392,4.82446,-2.21206,-6.04204,-4.29494,22.5,-4.4,-31.1,-110.0,-110.0,-93.0,-62.0,-110.0,-74.0,-76.0,-110.0,-83.0,-80.0,-110.0,-73.0,-79.0,-110.0,-60.0,-85.0,-88.0,-83.0,-110.0,-110.0,-63.0,-110.0,-110.0,-110.0,-110.0,-110.0,-83.0,-110.0,-93.0,2437.0,-1.0,2417.0,2452.0,-1.0,2462.0,2412.0,-1.0,2427.0,2437.0,-1.0,2437.0,5220.0,5220.0,2462.0,-1.0,-1.0,2437.0,-1.0,-1.0,-1.0,-1.0,-1.0,2462.0,-1.0,5200.0,49.461087810283,11.110832476574,-2.0
3.2773,771.6566,12.2539,-1.04151,4.98249,-2.8608,-9.22831,-5.6419,19.4,0.7,-32.1,-110.0,-110.0,-93.0,-62.0,-110.0,-74.0,-76.0,-110.0,-83.0,-80.0,-110.0,-73.0,-79.0,-110.0,-60.0,-85.0,-88.0,-83.0,-110.0,-110.0,-63.0,-110.0,-110.0,-110.0,-110.0,-110.0,-83.0,-110.0,-93.0,2437.0,-1.0,2417.0,2452.0,-1.0,2462.0,2412.0,-1.0,2427.0,2437.0,-1.0,2437.0,5220.0,5220.0,2462.0,-1.0,-1.0,2437.0,-1.0,-1.0,-1.0,-1.0,-1.0,2462.0,-1.0,5200.0,49.461087810283,11.110832476574,-2.0
3.3033,771.6766,16.7695,-3.60578,5.80372,-3.83818,-8.77932,-6.87157,12.3,6.7,-34.3,-110.0,-110.0,-93.0,-62.0,-110.0,-74.0,-76.0,-110.0,-83.0,-80.0,-110.0,-73.0,-79.0,-110.0,-60.0,-85.0,-88.0,-83.0,-110.0,-110.0,-63.0,-110.0,-110.0,-110.0,-110.0,-110.0,-83.0,-110.0,-93.0,2437.0,-1.0,2417.0,2452.0,-1.0,2462.0,2412.0,-1.0,2427.0,2437.0,-1.0,2437.0,5220.0,5220.0,2462.0,-1.0,-1.0,2437.0,-1.0,-1.0,-1.0,-1.0,-1.0,2462.0,-1.0,5200.0,49.461087810283,11.110832476574,-2.0
3.3173,771.6966,18.54366,-6.61059,11.05437,-4.96706,-6.62297,-8.65469,0.1,12.6,-37.9,-110.0,-110.0,-93.0,-62.0,-110.0,-74.0,-76.0,-110.0,-83.0,-80.0,-110.0,-73.0,-79.0,-110.0,-60.0,-85.0,-88.0,-83.0,-110.0,-110.0,-63.0,-110.0,-110.0,-110.0,-110.0,-110.0,-83.0,-110.0,-93.0,2437.0,-1.0,2417.0,2452.0,-1.0,2462.0,2412.0,-1.0,2427.0,2437.0,-1.0,2437.0,5220.0,5220.0,2462.0,-1.0,-1.0,2437.0,-1.0,-1.0,-1.0,-1.0,-1.0,2462.0,-1.0,5200.0,49.461087810283,11.110832476574,-2.0
3.3424,771.7166,16.67852,-8.76305,18.21085,-1.93045,-4.66026,-8.50258,-2.0,13.8,-32.9,-110.0,-110.0,-93.0,-62.0,-110.0,-74.0,-76.0,-110.0,-83.0,-80.0,-110.0,-73.0,-79.0,-110.0,-60.0,-85.0,-88.0,-83.0,-110.0,-110.0,-63.0,-110.0,-110.0,-110.0,-110.0,-110.0,-83.0,-110.0,-93.0,2437.0,-1.0,2417.0,2452.0,-1.0,2462.0,2412.0,-1.0,2427.0,2437.0,-1.0,2437.0,5220.0,5220.0,2462.0,-1.0,-1.0,2437.0,-1.0,-1.0,-1.0,-1.0,-1.0,2462.0,-1.0,5200.0,49.461087810283,11.110832476574,-2.0
3.3597,771.7366,15.62504,-10.02483,21.80945,1.08295,-4.17462,-8.27045,-11.7,14.3,-35.6,-110.0,-110.0,-93.0,-62.0,-110.0,-74.0,-76.0,-110.0,-83.0,-80.0,-110.0,-73.0,-79.0,-110.0,-60.0,-85.0,-88.0,-83.0,-110.0,-110.0,-63.0,-110.0,-110.0,-110.0,-110.0,-110.0,-83.0,-110.0,-93.0,2437.0,-1.0,2417.0,2452.0,-1.0,2462.0,2412.0,-1.0,2427.0,2437.0,-1.0,2437.0,5220.0,5220.0,2462.0,-1.0,-1.0,2437.0,-1.0,-1.0,-1.0,-1.0,-1.0,2462.0,-1.0,5200.0,49.461087810283,11.110832476574,-2.0
3.3773,771.7565,14.99055,-10.56594,21.48383,2.37371,-4.24731,-7.9473,-11.9,8.9,-32.5,-110.0,-110.0,-93.0,-62.0,-110.0,-74.0,-76.0,-110.0,-83.0,-80.0,-110.0,-73.0,-79.0,-110.0,-60.0,-85.0,-88.0,-83.0,-110.0,-110.0,-63.0,-110.0,-110.0,-110.0,-110.0,-110.0,-83.0,-110.0,-93.0,2437.0,-1.0,2417.0,2452.0,-1.0,2462.0,2412.0,-1.0,2427.0,2437.0,-1.0,2437.0,5220.0,5220.0,2462.0,-1.0,-1.0,2437.0,-1.0,-1.0,-1.0,-1.0,-1.0,2462.0,-1.0,5200.0,49.461087810283,11.110832476574,-2.0
3.4068,771.7765,14.15495,-9.64174,19.89403,2.54658,-4.02252,-7.13119,-15.3,4.8,-31.0,-110.0,-110.0,-93.0,-62.0,-110.0,-74.0,-76.0,-110.0,-83.0,-80.0,-110.0,-73.0,-79.0,-110.0,-60.0,-85.0,-88.0,-83.0,-110.0,-110.0,-63.0,-110.0,-110.0,-110.0,-110.0,-110.0,-83.0,-110.0,-93.0,2437.0,-1.0,2417.0,2452.0,-1.0,2462.0,2412.0,-1.0,2427.0,2437.0,-1.0,2437.0,5220.0,5220.0,2462.0,-1.0,-1.0,2437.0,-1.0,-1.0,-1.0,-1.0,-1.0,2462.0,-1.0,5200.0,49.461087810283,11.110832476574,-2.0
3.4215,771.7965,12.8788,-7.49887,18.47183,2.27536,-3.05063,-6.05484,-18.4,0.9,-29.6,-110.0,-110.0,-93.0,-62.0,-110.0,-74.0,-76.0,-110.0,-83.0,-80.0,-110.0,-73.0,-79.0,-110.0,-60.0,-85.0,-88.0,-83.0,-110.0,-110.0,-63.0,-110.0,-110.0,-110.0,-110.0,-110.0,-83.0,-110.0,-93.0,2437.0,-1.0,2417.0,2452.0,-1.0,2462.0,2412.0,-1.0,2427.0,2437.0,-1.0,2437.0,5220.0,5220.0,2462.0,-1.0,-1.0,2437.0,-1.0,-1.0,-1.0,-1.0,-1.0,2462.0,-1.0,5200.0,49.461087810283,11.110832476574,-2.0
3.4393,771.8165,12.13897,-5.23628,18.11029,2.32484,-2.34936,-5.05363,-19.0,-3.3,-29.0,-110.0,-110.0,-93.0,-62.0,-110.0,-74.0,-76.0,-110.0,-83.0,-80.0,-110.0,-73.0,-79.0,-110.0,-60.0,-85.0,-88.0,-83.0,-110.0,-110.0,-63.0,-110.0,-110.0,-110.0,-110.0,-110.0,-83.0,-110.0,-93.0,2437.0,-1.0,2417.0,2452.0,-1.0,2462.0,2412.0,-1.0,2427.0,2437.0,-1.0,2437.0,5220.0,5220.0,2462.0,-1.0,-1.0,2437.0,-1.0,-1.0,-1.0,-1.0,-1.0,2462.0,-1.0,5200.0,49.461087810283,11.110832476574,-2.0
3.4576,771.8365,11.84687,-3.39508,17.32018,3.1489,-2.65784,-4.8435,-23.2,-7.0,-29.6,-110.0,-110.0,-93.0,-62.0,-110.0,-74.0,-76.0,-110.0,-83.0,-80.0,-110.0,-73.0,-79.0,-110.0,-60.0,-85.0,-88.0,-83.0,-110.0,-110.0,-63.0,-110.0,-110.0,-110.0,-110.0,-110.0,-83.0,-110.0,-93.0,2437.0,-1.0,2417.0,2452.0,-1.0,2462.0,2412.0,-1.0,2427.0,2437.0,-1.0,2437.0,5220.0,5220.0,2462.0,-1.0,-1.0,2437.0,-1.0,-1.0,-1.0,-1.0,-1.0,2462.0,-1.0,5200.0,49.461087810283,11.110832476574,-2.0
3.4841,771.8565,10.87001,-2.01598,14.82296,3.42379,-2.42999,-4.73537,-22.7,-11.6,-26.9,-110.0,-110.0,-93.0,-62.0,-110.0,-74.0,-76.0,-110.0,-83.0,-80.0,-110.0,-73.0,-79.0,-110.0,-60.0,-85.0,-88.0,-83.0,-110.0,-110.0,-63.0,-110.0,-110.0,-110.0,-110.0,-110.0,-83.0,-110.0,-93.0,2437.0,-1.0,2417.0,2452.0,-1.0,2462.0,2412.0,-1.0,2427.0,2437.0,-1.0,2437.0,5220.0,5220.0,2462.0,-1.0,-1.0,2437.0,-1.0,-1.0,-1.0,-1.0,-1.0,2462.0,-1.0,5200.0,49.461087810283,11.110832476574,-2.0
3.4983,771.8765,8.77981,-0.90025,12.30897,3.09942,-1.95229,-4.33037,-23.1,-16.4,-25.8,-110.0,-110.0,-93.0,-62.0,-110.0,-74.0,-76.0,-110.0,-83.0,-80.0,-110.0,-73.0,-79.0,-110.0,-60.0,-85.0,-88.0,-83.0,-110.0,-110.0,-63.0,-110.0,-110.0,-110.0,-110.0,-110.0,-83.0,-110.0,-93.0,2437.0,-1.0,2417.0,2452.0,-1.0,2462.0,2412.0,-1.0,2427.0,2437.0,-1.0,2437.0,5220.0,5220.0,2462.0,-1.0,-1.0,2437.0,-1.0,-1.0,-1.0,-1.0,-1.0,2462.0,-1.0,5200.0,49.461087810283,11.110832476574,-2.0
3.5175,771.8965,6.01921,0.01915,12.11982,3.04749,-1.89732,-3.44645,-25.8,-19.0,-24.3,-110.0,-110.0,-93.0,-62.0,-110.0,-74.0,-76.0,-110.0,-83.0,-80.0,-110.0,-73.0,-79.0,-110.0,-60.0,-85.0,-88.0,-83.0,-110.0,-110.0,-63.0,-110.0,-110.0,-110.0,-110.0,-110.0,-83.0,-110.0,-93.0,2437.0,-1.0,2417.0,2452.0,-1.0,2462.0,2412.0,-1.0,2427.0,2437.0,-1.0,2437.0,5220.0,5220.0,2462.0,-1.0,-1.0,2437.0,-1.0,-1.0,-1.0,-1.0,-1.0,2462.0,-1.0,5200.0,49.461087810283,11.110832476574,-2.0
3.5404,771.9165,2.94256,0.20591,13.54202,4.4983,-2.15938,-2.23877,-25.6,-22.3,-19.6,-110.0,-110.0,-93.0,-62.0,-110.0,-74.0,-76.0,-110.0,-83.0,-80.0,-110.0,-73.0,-79.0,-110.0,-60.0,-85.0,-88.0,-83.0,-110.0,-110.0,-63.0,-110.0,-110.0,-110.0,-110.0,-110.0,-83.0,-110.0,-93.0,2437.0,-1.0,2417.0,2452.0,-1.0,2462.0,2412.0,-1.0,2427.0,2437.0,-1.0,2437.0,5220.0,5220.0,2462.0,-1.0,-1.0,2437.0,-1.0,-1.0,-1.0,-1.0,-1.0,2462.0,-1.0,5200.0,49.461087810283,11.110832476574,-2.0
3.5568,771.9365,0.74223,-0.3352,13.56357,6.09877,-2.53017,-1.06774,-25.3,-25.8,-14.9,-110.0,-110.0,-93.0,-62.0,-110.0,-74.0,-76.0,-110.0,-83.0,-80.0,-110.0,-73.0,-79.0,-110.0,-60.0,-85.0,-88.0,-83.0,-110.0,-110.0,-63.0,-110.0,-110.0,-110.0,-110.0,-110.0,-83.0,-110.0,-93.0,2437.0,-1.0,2417.0,2452.0,-1.0,2462.0,2412.0,-1.0,2427.0,2437.0,-1.0,2437.0,5220.0,5220.0,2462.0,-1.0,-1.0,2437.0,-1.0,-1.0,-1.0,-1.0,-1.0,2462.0,-1.0,5200.0,49.461087810283,11.110832476574,-2.0
3.5774,771.9565,-1.30488,-1.55628,10.69523,7.26491,-3.82643,-0.15694,-25.7,-26.7,-11.4,-110.0,-110.0,-93.0,-62.0,-110.0,-74.0,-76.0,-110.0,-83.0,-80.0,-110.0,-73.0,-79.0,-110.0,-60.0,-85.0,-88.0,-83.0,-110.0,-110.0,-63.0,-110.0,-110.0,-110.0,-110.0,-110.0,-83.0,-110.0,-93.0,2437.0,-1.0,2417.0,2452.0,-1.0,2462.0,2412.0,-1.0,2427.0,2437.0,-1.0,2437.0,5220.0,5220.0,2462.0,-1.0,-1.0,2437.0,-1.0,-1.0,-1.0,-1.0,-1.0,2462.0,-1.0,5200.0,49.461087810283,11.110832476574,-2.0
3.6018,771.9765,-2.85398,-2.43977,6.10061,7.22093,-4.93209,0.95545,-27.5,-28.5,-4.9,-110.0,-110.0,-93.0,-62.0,-110.0,-74.0,-76.0,-110.0,-83.0,-80.0,-110.0,-73.0,-79.0,-110.0,-60.0,-85.0,-88.0,-83.0,-110.0,-110.0,-63.0,-110.0,-110.0,-110.0,-110.0,-110.0,-83.0,-110.0,-93.0,2437.0,-1.0,2417.0,2452.0,-1.0,2462.0,2412.0,-1.0,2427.0,2437.0,-1.0,2437.0,5220.0,5220.0,2462.0,-1.0,-1.0,2437.0,-1.0,-1.0,-1.0,-1.0,-1.0,2462.0,-1.0,5200.0,49.461087810283,11.110832476574,-2.0
3.6193,771.9965,-3.03594,-2.86834,3.8045,6.22216,-4.01396,2.12037,-29.3,-27.7,0.6,-110.0,-110.0,-93.0,-62.0,-110.0,-74.0,-76.0,-110.0,-83.0,-80.0,-110.0,-73.0,-79.0,-110.0,-60.0,-85.0,-88.0,-83.0,-110.0,-110.0,-63.0,-110.0,-110.0,-110.0,-110.0,-110.0,-83.0,-110.0,-93.0,2437.0,-1.0,2417.0,2452.0,-1.0,2462.0,2412.0,-1.0,2427.0,2437.0,-1.0,2437.0,5220.0,5220.0,2462.0,-1.0,-1.0,2437.0,-1.0,-1.0,-1.0,-1.0,-1.0,2462.0,-1.0,5200.0,49.461087810283,11.110832476574,-2.0
3.677,772.0165,-3.23945,-3.87394,4.67602,6.65649,-2.10501,3.07515,-29.7,-25.8,4.2,-110.0,-110.0,-93.0,-62.0,-110.0,-74.0,-76.0,-110.0,-83.0,-80.0,-110.0,-73.0,-79.0,-110.0,-60.0,-85.0,-88.0,-83.0,-110.0,-110.0,-63.0,-110.0,-110.0,-110.0,-110.0,-110.0,-83.0,-110.0,-93.0,2437.0,-1.0,2417.0,2452.0,-1.0,2462.0,2412.0,-1.0,2427.0,2437.0,-1.0,2437.0,5220.0,5220.0,2462.0,-1.0,-1.0,2437.0,-1.0,-1.0,-1.0,-1.0,-1.0,2462.0,-1.0,5200.0,49.461087810283,11.110832476574,-2.0
3.69,772.0365,-2.69356,-5.33923,4.86277,7.2081,-1.04821,4.01099,-32.0,-22.6,8.6,-110.0,-110.0,-93.0,-62.0,-110.0,-74.0,-76.0,-110.0,-83.0,-80.0,-110.0,-73.0,-79.0,-110.0,-60.0,-85.0,-88.0,-83.0,-110.0,-110.0,-63.0,-110.0,-110.0,-110.0,-110.0,-110.0,-83.0,-110.0,-93.0,2437.0,-1.0,2417.0,2452.0,-1.0,2462.0,2412.0,-1.0,2427.0,2437.0,-1.0,2437.0,5220.0,5220.0,2462.0,-1.0,-1.0,2437.0,-1.0,-1.0,-1.0,-1.0,-1.0,2462.0,-1.0,5200.0,49.461087810283,11.110832476574,-2.0
3.6922,772.0565,-1.2115,-6.59383,4.56109,7.6583,-1.1264,4.24435,-34.6,-16.8,10.2,-110.0,-110.0,-93.0,-62.0,-110.0,-74.0,-76.0,-110.0,-83.0,-80.0,-110.0,-73.0,-79.0,-110.0,-60.0,-85.0,-88.0,-83.0,-110.0,-110.0,-63.0,-110.0,-110.0,-110.0,-110.0,-110.0,-83.0,-110.0,-93.0,2437.0,-1.0,2417.0,2452.0,-1.0,2462.0,2412.0,-1.0,2427.0,2437.0,-1.0,2437.0,5220.0,5220.0,2462.0,-1.0,-1.0,2437.0,-1.0,-1.0,-1.0,-1.0,-1.0,2462.0,-1.0,5200.0,49.461087810283,11.110832476574,-2.0
3.7046,772.0765,0.8787,-7.64013,3.99126,8.21969,-1.34143,3.89615,-36.1,-12.7,12.9,-110.0,-110.0,-93.0,-62.0,-110.0,-74.0,-76.0,-110.0,-83.0,-80.0,-110.0,-73.0,-79.0,-110.0,-60.0,-85.0,-88.0,-83.0,-110.0,-110.0,-63.0,-110.0,-110.0,-110.0,-110.0,-110.0,-83.0,-110.0,-93.0,2437.0,-1.0,2417.0,2452.0,-1.0,2462.0,2412.0,-1.0,2427.0,2437.0,-1.0,2437.0,5220.0,5220.0,2462.0,-1.0,-1.0,2437.0,-1.0,-1.0,-1.0,-1.0,-1.0,2462.0,-1.0,5200.0,49.461087810283,11.110832476574,-2.0
3.7223,772.0965,2.60258,-9.02881,2.67201,8.66257,-1.70367,3.18694,-36.7,-7.0,18.3,-110.0,-110.0,-93.0,-62.0,-110.0,-74.0,-76.0,-110.0,-83.0,-80.0,-110.0,-73.0,-79.0,-110.0,-60.0,-85.0,-88.0,-83.0,-110.0,-110.0,-63.0,-110.0,-110.0,-110.0,-110.0,-110.0,-83.0,-110.0,-93.0,2437.0,-1.0,2417.0,2452.0,-1.0,2462.0,2412.0,-1.0,2427.0,2437.0,-1.0,2437.0,5220.0,5220.0,2462.0,-1.0,-1.0,2437.0,-1.0,-1.0,-1.0,-1.0,-1.0,2462.0,-1.0,5200.0,49.461087810283,11.110832476574,-2.0
3.74,772.1165,4.24026,-10.69523,1.087,8.7206,-1.47154,2.63655,-37.0,-1.7,19.3,-110.0,-110.0,-93.0,-62.0,-110.0,-74.0,-76.0,-110.0,-83.0,-80.0,-110.0,-73.0,-79.0,-110.0,-60.0,-85.0,-88.0,-83.0,-110.0,-110.0,-63.0,-110.0,-110.0,-110.0,-110.0,-110.0,-83.0,-110.0,-93.0,2437.0,-1.0,2417.0,2452.0,-1.0,2462.0,2412.0,-1.0,2427.0,2437.0,-1.0,2437.0,5220.0,5220.0,2462.0,-1.0,-1.0,2437.0,-1.0,-1.0,-1.0,-1.0,-1.0,2462.0,-1.0,5200.0,49.461087810283,11.110832476574,-2.0
3.7593,772.1365,6.66087,-12.26348,-0.37111,8.74992,-1.21437,1.93772,-37.1,4.0,20.0,-110.0,-110.0,-93.0,-62.0,-110.0,-74.0,-76.0,-110.0,-83.0,-80.0,-110.0,-73.0,-79.0,-110.0,-60.0,-85.0,-88.0,-83.0,-110.0,-110.0,-63.0,-110.0,-110.0,-110.0,-110.0,-110.0,-83.0,-110.0,-93.0,2437.0,-1.0,2417.0,2452.0,-1.0,2462.0,2412.0,-1.0,2427.0,2437.0,-1.0,2437.0,5220.0,5220.0,2462.0,-1.0,-1.0,2437.0,-1.0,-1.0,-1.0,-1.0,-1.0,2462.0,-1.0,5200.0,49.461087810283,11.110832476574,-2.0
3.7828,772.1564,8.61221,-13.61624,-2.8013,8.62164,-0.92054,0.89986,-35.9,8.3,20.4,-110.0,-110.0,-93.0,-62.0,-110.0,-74.0,-76.0,-110.0,-83.0,-80.0,-110.0,-73.0,-79.0,-110.0,-60.0,-85.0,-88.0,-83.0,-110.0,-110.0,-63.0,-110.0,-110.0,-110.0,-110.0,-110.0,-83.0,-110.0,-93.0,2437.0,-1.0,2417.0,2452.0,-1.0,2462.0,2412.0,-1.0,2427.0,2437.0,-1.0,2437.0,5220.0,5220.0,2462.0,-1.0,-1.0,2437.0,-1.0,-1.0,-1.0,-1.0,-1.0,2462.0,-1.0,5200.0,49.461087810283,11.110832476574,-2.0
3.7966,772.1764,10.2475,-14.4279,-5.32966,7.62226,-0.79837,0.17965,-36.2,13.2,19.6,-110.0,-110.0,-93.0,-62.0,-110.0,-74.0,-76.0,-110.0,-83.0,-80.0,-110.0,-73.0,-79.0,-110.0,-60.0,-85.0,-88.0,-83.0,-110.0,-110.0,-63.0,-110.0,-110.0,-110.0,-110.0,-110.0,-83.0,-110.0,-93.0,2437.0,-1.0,2417.0,2452.0,-1.0,2462.0,2412.0,-1.0,2427.0,2437.0,-1.0,2437.0,5220.0,5220.0,2462.0,-1.0,-1.0,2437.0,-1.0,-1.0,-1.0,-1.0,-1.0,2462.0,-1.0,5200.0,49.461087810283,11.110832476574,-2.0
3.8171,772.1964,11.92588,-14.9714,-5.79175,6.50988,-0.7269,-0.66029,-35.7,17.5,18.8,-110.0,-110.0,-93.0,-62.0,-110.0,-74.0,-76.0,-110.0,-83.0,-80.0,-110.0,-73.0,-79.0,-110.0,-60.0,-85.0,-88.0,-83.0,-110.0,-110.0,-63.0,-110.0,-110.0,-110.0,-110.0,-110.0,-83.0,-110.0,-93.0,2437.0,-1.0,2417.0,2452.0,-1.0,2462.0,2412.0,-1.0,2427.0,2437.0,-1.0,2437.0,5220.0,5220.0,2462.0,-1.0,-1.0,2437.0,-1.0,-1.0,-1.0,-1.0,-1.0,2462.0,-1.0,5200.0,49.461087810283,11.110832476574,-2.0
3.8401,772.2164,13.61864,-15.98657,-4.82925,6.20811,-0.35427,-1.60286,-36.3,18.8,15.6,-110.0,-110.0,-93.0,-62.0,-110.0,-74.0,-76.0,-110.0,-83.0,-80.0,-110.0,-73.0,-79.0,-110.0,-60.0,-85.0,-88.0,-83.0,-110.0,-110.0,-63.0,-110.0,-110.0,-110.0,-110.0,-110.0,-83.0,-110.0,-93.0,2437.0,-1.0,2417.0,2452.0,-1.0,2462.0,2412.0,-1.0,2427.0,2437.0,-1.0,2437.0,5220.0,5220.0,2462.0,-1.0,-1.0,2437.0,-1.0,-1.0,-1.0,-1.0,-1.0,2462.0,-1.0,5200.0,49.461087810283,11.110832476574,-2.0
3.8609,772.2364,14.90197,-17.2316,-3.61775,6.05784,0.493,-2.54725,-38.4,19.0,14.8,-110.0,-110.0,-93.0,-62.0,-110.0,-74.0,-76.0,-110.0,-83.0,-80.0,-110.0,-73.0,-79.0,-110.0,-60.0,-85.0,-88.0,-83.0,-110.0,-110.0,-63.0,-110.0,-110.0,-110.0,-110.0,-110.0,-83.0,-110.0,-93.0,2437.0,-1.0,2417.0,2452.0,-1.0,2462.0,2412.0,-1.0,2427.0,2437.0,-1.0,2437.0,5220.0,5220.0,2462.0,-1.0,-1.0,2437.0,-1.0,-1.0,-1.0,-1.0,-1.0,2462.0,-1.0,5200.0,49.461087810283,11.110832476574,-2.0
3.8819,772.2564,16.05361,-18.43831,-2.45653,6.17451,1.18572,-3.36032,-38.9,19.0,13.0,-110.0,-110.0,-84.0,-62.0,-110.0,-74.0,-76.0,-110.0,-83.0,-80.0,-110.0,-73.0,-79.0,-110.0,-60.0,-85.0,-88.0,-83.0,-110.0,-110.0,-63.0,-110.0,-110.0,-110.0,-110.0,-110.0,-83.0,-110.0,-93.0,2437.0,-1.0,2417.0,2452.0,-1.0,2462.0,2412.0,-1.0,2427.0,2437.0,-1.0,2437.0,5220.0,5220.0,2462.0,-1.0,-1.0,2437.0,-1.0,-1.0,-1.0,-1.0,-1.0,2462.0,-1.0,5200.0,49.461087810283,11.110832476574,-2.0
3.8987,772.2764,17.41117,-19.54686,-1.68557,6.32967,1.52109,-4.23752,-35.2,16.7,12.5,-110.0,-110.0,-84.0,-62.0,-110.0,-74.0,-76.0,-110.0,-83.0,-80.0,-110.0,-73.0,-79.0,-110.0,-60.0,-85.0,-88.0,-83.0,-110.0,-110.0,-63.0,-110.0,-110.0,-110.0,-110.0,-110.0,-83.0,-110.0,-93.0,2437.0,-1.0,2417.0,2452.0,-1.0,2462.0,2412.0,-1.0,2427.0,2437.0,-1.0,2437.0,5220.0,5220.0,2462.0,-1.0,-1.0,2437.0,-1.0,-1.0,-1.0,-1.0,-1.0,2462.0,-1.0,5200.0,49.461087810283,11.110832476574,-2.0
3.9169,772.2964,18.38085,-20.34655,-1.30249,6.31562,1.91998,-5.16237,-37.5,14.5,7.0,-110.0,-110.0,-84.0,-62.0,-110.0,-74.0,-76.0,-110.0,-83.0,-80.0,-110.0,-73.0,-79.0,-110.0,-60.0,-85.0,-88.0,-83.0,-110.0,-110.0,-63.0,-110.0,-110.0,-110.0,-110.0,-110.0,-83.0,-110.0,-93.0,2437.0,-1.0,2417.0,2452.0,-1.0,2462.0,2412.0,-1.0,2427.0,2437.0,-1.0,2437.0,5220.0,5220.0,2462.0,-1.0,-1.0,2437.0,-1.0,-1.0,-1.0,-1.0,-1.0,2462.0,-1.0,5200.0,49.461087810283,11.110832476574,-2.0
3.9398,772.3164,18.87167,-20.69372,-0.80687,6.17635,2.34087,-5.95344,-42.1,12.0,4.5,-110.0,-110.0,-84.0,-62.0,-110.0,-74.0,-76.0,-110.0,-83.0,-80.0,-110.0,-73.0,-79.0,-110.0,-60.0,-85.0,-88.0,-83.0,-110.0,-110.0,-63.0,-110.0,-110.0,-110.0,-110.0,-110.0,-83.0,-110.0,-93.0,2437.0,-1.0,2417.0,2452.0,-1.0,2462.0,2412.0,-1.0,2427.0,2437.0,-1.0,2437.0,5220.0,5220.0,2462.0,-1.0,-1.0,2437.0,-1.0,-1.0,-1.0,-1.0,-1.0,2462.0,-1.0,5200.0,49.461087810283,11.110832476574,-2.0
3.9586,772.3364,18.61549,-20.68175,-0.43097,6.07616,2.77458,-6.63211,-39.5,4.8,4.0,-110.0,-110.0,-84.0,-62.0,-110.0,-74.0,-76.0,-110.0,-83.0,-80.0,-110.0,-73.0,-79.0,-110.0,-60.0,-85.0,-88.0,-83.0,-110.0,-110.0,-63.0,-110.0,-110.0,-110.0,-110.0,-110.0,-83.0,-110.0,-93.0,2437.0,-1.0,2417.0,2452.0,-1.0,2462.0,2412.0,-1.0,2427.0,2437.0,-1.0,2437.0,5220.0,5220.0,2462.0,-1.0,-1.0,2437.0,-1.0,-1.0,-1.0,-1.0,-1.0,2462.0,-1.0,5200.0,49.461087810283,11.110832476574,-2.0
3.9793,772.3564,18.0241,-20.2412,-0.20112,5.91612,3.29626,-7.08965,-43.8,0.8,-1.2,-110.0,-110.0,-84.0,-62.0,-110.0,-74.0,-76.0,-110.0,-83.0,-80.0,-110.0,-73.0,-79.0,-110.0,-60.0,-85.0,-88.0,-83.0,-110.0,-110.0,-63.0,-110.0,-110.0,-110.0,-110.0,-110.0,-83.0,-110.0,-93.0,2437.0,-1.0,2417.0,2452.0,-1.0,2462.0,2412.0,-1.0,2427.0,2437.0,-1.0,2437.0,5220.0,5220.0,2462.0,-1.0,-1.0,2437.0,-1.0,-1.0,-1.0,-1.0,-1.0,2462.0,-1.0,5200.0,49.461087810283,11.110832476574,-2.0
3.9974,772.3764,17.61947,-19.45588,-0.249,5.66811,3.80389,-7.43906,-37.9,-6.8,-1.3,-110.0,-110.0,-84.0,-62.0,-110.0,-74.0,-76.0,-110.0,-83.0,-80.0,-110.0,-73.0,-79.0,-110.0,-60.0,-85.0,-88.0,-83.0,-110.0,-110.0,-63.0,-110.0,-110.0,-110.0,-110.0,-110.0,-83.0,-110.0,-93.0,2437.0,-1.0,2417.0,2452.0,-1.0,2462.0,2412.0,-1.0,2427.0,2437.0,-1.0,2437.0,5220.0,5220.0,2462.0,-1.0,-1.0,2437.0,-1.0,-1.0,-1.0,-1.0,-1.0,2462.0,-1.0,5200.0,49.461087810283,11.110832476574,-2.0
4.0232,772.3964,17.36328,-18.24677,-0.64167,5.39444,4.00731,-7.91248,-35.3,-13.7,-2.9,-110.0,-110.0,-84.0,-62.0,-110.0,-74.0,-76.0,-110.0,-83.0,-80.0,-110.0,-73.0,-79.0,-110.0,-60.0,-85.0,-88.0,-83.0,-110.0,-110.0,-63.0,-110.0,-110.0,-110.0,-110.0,-110.0,-83.0,-110.0,-93.0,2437.0,-1.0,2417.0,2452.0,-1.0,2462.0,2412.0,-1.0,2427.0,2437.0,-1.0,2437.0,5220.0,5220.0,2462.0,-1.0,-1.0,2437.0,-1.0,-1.0,-1.0,-1.0,-1.0,2462.0,-1.0,5200.0,49.461087810283,11.110832476574,-2.0
4.0399,772.4164,16.96823,-16.82696,-1.8412,4.65102,4.2486,-8.39385,-31.5,-21.1,-5.4,-110.0,-110.0,-84.0,-62.0,-110.0,-74.0,-76.0,-110.0,-83.0,-80.0,-110.0,-73.0,-79.0,-110.0,-60.0,-85.0,-88.0,-83.0,-110.0,-110.0,-63.0,-110.0,-110.0,-110.0,-110.0,-110.0,-83.0,-110.0,-93.0,2437.0,-1.0,2417.0,2452.0,-1.0,2462.0,2412.0,-1.0,2427.0,2437.0,-1.0,2437.0,5220.0,5220.0,2462.0,-1.0,-1.0,2437.0,-1.0,-1.0,-1.0,-1.0,-1.0,2462.0,-1.0,5200.0,49.461087810283,11.110832476574,-2.0
4.059,772.4364,15.77109,-15.21801,-3.30889,3.60705,4.95354,-8.72066,-26.2,-27.4,-6.2,-110.0,-110.0,-84.0,-62.0,-110.0,-74.0,-76.0,-110.0,-83.0,-80.0,-110.0,-73.0,-79.0,-110.0,-60.0,-85.0,-88.0,-83.0,-110.0,-110.0,-63.0,-110.0,-110.0,-110.0,-110.0,-110.0,-83.0,-110.0,-93.0,2437.0,-1.0,2417.0,2452.0,-1.0,2462.0,2412.0,-1.0,2427.0,2437.0,-1.0,2437.0,5220.0,5220.0,2462.0,-1.0,-1.0,2437.0,-1.0,-1.0,-1.0,-1.0,-1.0,2462.0,-1.0,5200.0,49.461087810283,11.110832476574,-2.0
4.0815,772.4564,13.54681,-13.73595,-4.31209,2.51238,5.64992,-8.72249,-20.1,-35.4,-11.0,-110.0,-110.0,-84.0,-62.0,-110.0,-74.0,-76.0,-110.0,-83.0,-80.0,-110.0,-73.0,-79.0,-110.0,-60.0,-85.0,-88.0,-83.0,-110.0,-110.0,-63.0,-110.0,-110.0,-110.0,-110.0,-110.0,-83.0,-110.0,-93.0,2437.0,-1.0,2417.0,2452.0,-1.0,2462.0,2412.0,-1.0,2427.0,2437.0,-1.0,2437.0,5220.0,5220.0,2462.0,-1.0,-1.0,2437.0,-1.0,-1.0,-1.0,-1.0,-1.0,2462.0,-1.0,5200.0,49.461087810283,11.110832476574,-2.0
4.0995,772.4764,10.93226,-12.39516,-4.75264,1.75979,5.66153,-8.52457,-13.2,-38.9,-9.6,-110.0,-110.0,-84.0,-62.0,-110.0,-74.0,-76.0,-110.0,-83.0,-80.0,-110.0,-73.0,-79.0,-110.0,-60.0,-85.0,-88.0,-83.0,-110.0,-110.0,-63.0,-110.0,-110.0,-110.0,-110.0,-110.0,-83.0,-110.0,-93.0,2437.0,-1.0,2417.0,2452.0,-1.0,2462.0,2412.0,-1.0,2427.0,2437.0,-1.0,2437.0,5220.0,5220.0,2462.0,-1.0,-1.0,2437.0,-1.0,-1.0,-1.0,-1.0,-1.0,2462.0,-1.0,5200.0,49.461087810283,11.110832476574,-2.0
4.1192,772.4964,8.60263,-10.59706,-5.25304,1.06707,4.74768,-7.92226,-6.3,-41.0,-9.7,-110.0,-110.0,-84.0,-62.0,-110.0,-74.0,-76.0,-110.0,-83.0,-80.0,-110.0,-73.0,-79.0,-110.0,-60.0,-85.0,-88.0,-83.0,-110.0,-110.0,-63.0,-110.0,-110.0,-110.0,-110.0,-110.0,-83.0,-110.0,-93.0,2437.0,-1.0,2417.0,2452.0,-1.0,2462.0,2412.0,-1.0,2427.0,2437.0,-1.0,2437.0,5220.0,5220.0,2462.0,-1.0,-1.0,2437.0,-1.0,-1.0,-1.0,-1.0,-1.0,2462.0,-1.0,5200.0,49.461087810283,11.110832476574,-2.0
4.1496,772.5164,7.36479,-8.84685,-6.01442,0.01516,3.34635,-7.97235,-1.8,-40.6,-11.8,-110.0,-110.0,-84.0,-62.0,-110.0,-74.0,-76.0,-110.0,-83.0,-80.0,-110.0,-73.0,-79.0,-110.0,-60.0,-85.0,-88.0,-83.0,-110.0,-110.0,-63.0,-110.0,-110.0,-110.0,-110.0,-110.0,-83.0,-110.0,-93.0,2437.0,-1.0,2417.0,2452.0,-1.0,2462.0,2412.0,-1.0,2427.0,2437.0,-1.0,2437.0,5220.0,5220.0,2462.0,-1.0,-1.0,2437.0,-1.0,-1.0,-1.0,-1.0,-1.0,2462.0,-1.0,5200.0,49.461087810283,11.110832476574,-2.0
4.168,772.5364,6.10061,-8.42306,-5.91865,-1.19802,1.69274,-8.12568,4.7,-40.7,-13.6,-110.0,-110.0,-84.0,-62.0,-110.0,-74.0,-76.0,-110.0,-83.0,-80.0,-110.0,-73.0,-79.0,-110.0,-60.0,-85.0,-88.0,-83.0,-110.0,-110.0,-63.0,-110.0,-110.0,-110.0,-110.0,-110.0,-83.0,-110.0,-93.0,2437.0,-1.0,2417.0,2452.0,-1.0,2462.0,2412.0,-1.0,2427.0,2437.0,-1.0,2437.0,5220.0,5220.0,2462.0,-1.0,-1.0,2437.0,-1.0,-1.0,-1.0,-1.0,-1.0,2462.0,-1.0,5200.0,49.461087810283,11.110832476574,-2.0
4.1866,772.5564,4.16125,-8.66009,-4.79094,-2.54314,0.96703,-8.01328,10.0,-38.1,-13.6,-110.0,-110.0,-84.0,-62.0,-110.0,-74.0,-76.0,-110.0,-83.0,-80.0,-110.0,-73.0,-79.0,-110.0,-60.0,-85.0,-88.0,-83.0,-110.0,-110.0,-63.0,-110.0,-110.0,-110.0,-110.0,-110.0,-83.0,-110.0,-93.0,2437.0,-1.0,2417.0,2452.0,-1.0,2462.0,2412.0,-1.0,2427.0,2437.0,-1.0,2437.0,5220.0,5220.0,2462.0,-1.0,-1.0,2437.0,-1.0,-1.0,-1.0,-1.0,-1.0,2462.0,-1.0,5200.0,49.461087810283,11.110832476574,-2.0
4.2049,772.5763,2.87074,-8.6577,-1.3384,-3.06605,0.81431,-7.84895,15.4,-35.7,-14.3,-110.0,-110.0,-84.0,-61.0,-69.0,-110.0,-85.0,-110.0,-74.0,-80.0,-110.0,-75.0,-77.0,-86.0,-58.0,-81.0,-81.0,-110.0,-110.0,-110.0,-61.0,-110.0,-110.0,-110.0,-87.0,-110.0,-88.0,-84.0,-110.0,2437.0,5200.0,-1.0,2452.0,-1.0,2462.0,2412.0,-1.0,2427.0,2437.0,2422.0,2437.0,5220.0,5220.0,-1.0,-1.0,-1.0,2437.0,-1.0,-1.0,-1.0,2462.0,-1.0,2462.0,2462.0,-1.0,49.461087810283,11.110832476574,-2.0
4.2177,772.5963,3.24424,-8.37517,0.59617,-2.49366,0.25843,-7.95769,19.9,-32.0,-20.2,-110.0,-110.0,-84.0,-61.0,-69.0,-110.0,-85.0,-110.0,-74.0,-80.0,-110.0,-75.0,-77.0,-86.0,-58.0,-81.0,-81.0,-110.0,-110.0,-110.0,-61.0,-110.0,-110.0,-110.0,-87.0,-110.0,-88.0,-84.0,-110.0,2437.0,5200.0,-1.0,2452.0,-1.0,2462.0,2412.0,-1.0,2427.0,2437.0,2422.0,2437.0,5220.0,5220.0,-1.0,-1.0,-1.0,2437.0,-1.0,-1.0,-1.0,2462.0,-1.0,2462.0,2462.0,-1.0,49.461087810283,11.110832476574,-2.0
4.2402,772.6163,4.40786,-8.88037,0.00239,-2.85346,-0.55586,-8.54351,24.1,-26.4,-19.3,-110.0,-110.0,-84.0,-61.0,-69.0,-110.0,-85.0,-110.0,-74.0,-80.0,-110.0,-75.0,-77.0,-86.0,-58.0,-81.0,-81.0,-110.0,-110.0,-110.0,-61.0,-110.0,-110.0,-110.0,-87.0,-110.0,-88.0,-84.0,-110.0,2437.0,5200.0,-1.0,2452.0,-1.0,2462.0,2412.0,-1.0,2427.0,2437.0,2422.0,2437.0,5220.0,5220.0,-1.0,-1.0,-1.0,2437.0,-1.0,-1.0,-1.0,2462.0,-1.0,2462.0,2462.0,-1.0,49.461087810283,11.110832476574,-2.0
4.2609,772.6363,4.62095,-10.47495,-0.36154,-4.02022,-1.40862,-8.91675,28.6,-20.4,-22.3,-110.0,-110.0,-84.0,-61.0,-69.0,-110.0,-85.0,-110.0,-74.0,-80.0,-110.0,-75.0,-77.0,-86.0,-58.0,-81.0,-81.0,-110.0,-110.0,-110.0,-61.0,-110.0,-110.0,-110.0,-87.0,-110.0,-88.0,-84.0,-110.0,2437.0,5200.0,-1.0,2452.0,-1.0,2462.0,2412.0,-1.0,2427.0,2437.0,2422.0,2437.0,5220.0,5220.0,-1.0,-1.0,-1.0,2437.0,-1.0,-1.0,-1.0,2462.0,-1.0,2462.0,2462.0,-1.0,49.461087810283,11.110832476574,-2.0
4.2785,772.6563,4.88911,-12.07193,1.23545,-4.85955,-2.56927,-8.94301,29.2,-12.8,-25.9,-110.0,-110.0,-84.0,-61.0,-69.0,-110.0,-85.0,-110.0,-74.0,-80.0,-110.0,-75.0,-77.0,-86.0,-58.0,-81.0,-81.0,-110.0,-110.0,-110.0,-61.0,-110.0,-110.0,-110.0,-87.0,-110.0,-88.0,-84.0,-110.0,2437.0,5200.0,-1.0,2452.0,-1.0,2462.0,2412.0,-1.0,2427.0,2437.0,2422.0,2437.0,5220.0,5220.0,-1.0,-1.0,-1.0,2437.0,-1.0,-1.0,-1.0,2462.0,-1.0,2462.0,2462.0,-1.0,49.461087810283,11.110832476574,-2.0
4.2991,772.6763,4.70236,-13.27625,5.1022,-4.63902,-3.9541,-9.09145,28.7,-4.3,-27.7,-110.0,-110.0,-84.0,-61.0,-69.0,-110.0,-85.0,-110.0,-74.0,-80.0,-110.0,-75.0,-77.0,-86.0,-58.0,-81.0,-81.0,-110.0,-110.0,-110.0,-61.0,-110.0,-110.0,-110.0,-87.0,-110.0,-88.0,-84.0,-110.0,2437.0,5200.0,-1.0,2452.0,-1.0,2462.0,2412.0,-1.0,2427.0,2437.0,2422.0,2437.0,5220.0,5220.0,-1.0,-1.0,-1.0,2437.0,-1.0,-1.0,-1.0,2462.0,-1.0,2462.0,2462.0,-1.0,49.461087810283,11.110832476574,-2.0
4.321,772.6963,3.98168,-14.10946,6.00484,-3.97257,-5.10925,-8.43233,25.5,3.8,-31.8,-110.0,-110.0,-84.0,-61.0,-69.0,-110.0,-85.0,-110.0,-74.0,-80.0,-110.0,-75.0,-77.0,-86.0,-58.0,-81.0,-81.0,-110.0,-110.0,-110.0,-61.0,-110.0,-110.0,-110.0,-87.0,-110.0,-88.0,-84.0,-110.0,2437.0,5200.0,-1.0,2452.0,-1.0,2462.0,2412.0,-1.0,2427.0,2437.0,2422.0,2437.0,5220.0,5220.0,-1.0,-1.0,-1.0,2437.0,-1.0,-1.0,-1.0,2462.0,-1.0,2462.0,2462.0,-1.0,49.461087810283,11.110832476574,-2.0
4.3442,772.7163,4.30491,-14.35607,6.35201,-4.43438,-6.71216,-7.58384,18.7,14.8,-32.4,-110.0,-110.0,-84.0,-61.0,-69.0,-110.0,-85.0,-110.0,-74.0,-80.0,-110.0,-75.0,-77.0,-86.0,-58.0,-81.0,-81.0,-110.0,-110.0,-110.0,-61.0,-110.0,-110.0,-110.0,-87.0,-110.0,-88.0,-84.0,-110.0,2437.0,5200.0,-1.0,2452.0,-1.0,2462.0,2412.0,-1.0,2427.0,2437.0,2422.0,2437.0,5220.0,5220.0,-1.0,-1.0,-1.0,2437.0,-1.0,-1.0,-1.0,2462.0,-1.0,2462.0,2462.0,-1.0,49.461087810283,11.110832476574,-2.0
4.3669,772.7363,5.90428,-14.90436,8.43264,-5.14543,-6.13306,-7.02978,12.8,20.5,-34.0,-110.0,-110.0,-84.0,-61.0,-69.0,-110.0,-85.0,-110.0,-74.0,-80.0,-110.0,-75.0,-77.0,-86.0,-58.0,-81.0,-81.0,-110.0,-110.0,-110.0,-61.0,-110.0,-110.0,-110.0,-87.0,-110.0,-88.0,-84.0,-110.0,2437.0,5200.0,-1.0,2452.0,-1.0,2462.0,2412.0,-1.0,2427.0,2437.0,2422.0,2437.0,5220.0,5220.0,-1.0,-1.0,-1.0,2437.0,-1.0,-1.0,-1.0,2462.0,-1.0,2462.0,2462.0,-1.0,49.461087810283,11.110832476574,-2.0
4.3947,772.7563,6.18681,-15.72081,13.49892,-4.70194,-3.98648,-6.82637,6.3,25.5,-33.1,-110.0,-110.0,-84.0,-61.0,-69.0,-110.0,-85.0,-110.0,-74.0,-80.0,-110.0,-75.0,-77.0,-86.0,-58.0,-81.0,-81.0,-110.0,-110.0,-110.0,-61.0,-110.0,-110.0,-110.0,-87.0,-110.0,-88.0,-84.0,-110.0,2437.0,5200.0,-1.0,2452.0,-1.0,2462.0,2412.0,-1.0,2427.0,2437.0,2422.0,2437.0,5220.0,5220.0,-1.0,-1.0,-1.0,2437.0,-1.0,-1.0,-1.0,2462.0,-1.0,2462.0,2462.0,-1.0,49.461087810283,11.110832476574,-2.0
4.4065,772.7763,6.27539,-16.18769,17.53567,-2.02269,-2.03293,-5.98582,1.9,28.8,-33.4,-110.0,-110.0,-84.0,-61.0,-69.0,-110.0,-85.0,-110.0,-74.0,-80.0,-110.0,-75.0,-77.0,-86.0,-58.0,-81.0,-81.0,-110.0,-110.0,-110.0,-61.0,-110.0,-110.0,-110.0,-87.0,-110.0,-88.0,-84.0,-110.0,2437.0,5200.0,-1.0,2452.0,-1.0,2462.0,2412.0,-1.0,2427.0,2437.0,2422.0,2437.0,5220.0,5220.0,-1.0,-1.0,-1.0,2437.0,-1.0,-1.0,-1.0,2462.0,-1.0,2462.0,2462.0,-1.0,49.461087810283,11.110832476574,-2.0
4.4186,772.7963,8.50686,-16.21642,18.10072,-0.48086,-1.11235,-5.80011,-1.5,29.8,-33.4,-110.0,-110.0,-84.0,-61.0,-69.0,-110.0,-85.0,-110.0,-74.0,-80.0,-110.0,-75.0,-77.0,-86.0,-58.0,-81.0,-81.0,-110.0,-110.0,-110.0,-61.0,-110.0,-110.0,-110.0,-87.0,-110.0,-88.0,-84.0,-110.0,2437.0,5200.0,-1.0,2452.0,-1.0,2462.0,2412.0,-1.0,2427.0,2437.0,2422.0,2437.0,5220.0,5220.0,-1.0,-1.0,-1.0,2437.0,-1.0,-1.0,-1.0,2462.0,-1.0,2462.0,2462.0,-1.0,49.461087810283,11.110832476574,-2.0
4.4452,772.8163,11.16929,-16.25952,17.21962,0.45315,-1.4184,-6.47267,-5.0,29.9,-33.4,-110.0,-110.0,-84.0,-61.0,-69.0,-110.0,-85.0,-110.0,-74.0,-80.0,-110.0,-75.0,-77.0,-86.0,-58.0,-81.0,-81.0,-110.0,-110.0,-110.0,-61.0,-110.0,-110.0,-110.0,-87.0,-110.0,-88.0,-84.0,-110.0,2437.0,5200.0,-1.0,2452.0,-1.0,2462.0,2412.0,-1.0,2427.0,2437.0,2422.0,2437.0,5220.0,5220.0,-1.0,-1.0,-1.0,2437.0,-1.0,-1.0,-1.0,2462.0,-1.0,2462.0,2462.0,-1.0,49.461087810283,11.110832476574,-2.0
4.4574,772.8363,12.03602,-16.45585,16.60669,0.81906,-1.96573,-7.07071,-9.2,29.5,-32.8,-110.0,-110.0,-84.0,-61.0,-69.0,-110.0,-85.0,-110.0,-74.0,-80.0,-110.0,-75.0,-77.0,-86.0,-58.0,-81.0,-81.0,-110.0,-110.0,-110.0,-61.0,-110.0,-110.0,-110.0,-87.0,-110.0,-88.0,-84.0,-110.0,2437.0,5200.0,-1.0,2452.0,-1.0,2462.0,2412.0,-1.0,2427.0,2437.0,2422.0,2437.0,5220.0,5220.0,-1.0,-1.0,-1.0,2437.0,-1.0,-1.0,-1.0,2462.0,-1.0,2462.0,2462.0,-1.0,49.461087810283,11.110832476574,-2.0
4.4826,772.8563,11.75589,-16.02967,17.10949,1.16847,-1.7617,-6.89234,-14.5,27.7,-33.1,-110.0,-110.0,-84.0,-61.0,-69.0,-110.0,-85.0,-110.0,-74.0,-80.0,-110.0,-75.0,-77.0,-86.0,-58.0,-81.0,-81.0,-110.0,-110.0,-110.0,-61.0,-110.0,-110.0,-110.0,-87.0,-110.0,-88.0,-84.0,-110.0,2437.0,5200.0,-1.0,2452.0,-1.0,2462.0,2412.0,-1.0,2427.0,2437.0,2422.0,2437.0,5220.0,5220.0,-1.0,-1.0,-1.0,2437.0,-1.0,-1.0,-1.0,2462.0,-1.0,2462.0,2462.0,-1.0,49.461087810283,11.110832476574,-2.0
4.5005,772.8763,12.81655,-15.08633,17.94988,1.74818,-1.13679,-6.75917,-18.1,23.6,-30.7,-110.0,-110.0,-84.0,-61.0,-69.0,-110.0,-85.0,-110.0,-74.0,-80.0,-110.0,-75.0,-77.0,-86.0,-58.0,-81.0,-81.0,-110.0,-110.0,-110.0,-61.0,-110.0,-110.0,-110.0,-87.0,-110.0,-88.0,-84.0,-110.0,2437.0,5200.0,-1.0,2452.0,-1.0,2462.0,2412.0,-1.0,2427.0,2437.0,2422.0,2437.0,5220.0,5220.0,-1.0,-1.0,-1.0,2437.0,-1.0,-1.0,-1.0,2462.0,-1.0,2462.0,2462.0,-1.0,49.461087810283,11.110832476574,-2.0
4.5189,772.8963,15.29942,-14.3441,18.90041,2.74695,-1.46605,-7.67364,-16.3,19.1,-32.8,-110.0,-110.0,-84.0,-61.0,-69.0,-110.0,-85.0,-110.0,-74.0,-80.0,-110.0,-75.0,-77.0,-86.0,-58.0,-81.0,-81.0,-110.0,-110.0,-110.0,-61.0,-110.0,-110.0,-110.0,-87.0,-110.0,-88.0,-84.0,-110.0,2437.0,5200.0,-1.0,2452.0,-1.0,2462.0,2412.0,-1.0,2427.0,2437.0,2422.0,2437.0,5220.0,5220.0,-1.0,-1.0,-1.0,2437.0,-1.0,-1.0,-1.0,2462.0,-1.0,2462.0,2462.0,-1.0,49.461087810283,11.110832476574,-2.0
4.5402,772.9163,16.36726,-14.23396,19.60193,3.88377,-1.77575,-8.9424,-19.6,14.7,-31.6,-110.0,-110.0,-84.0,-61.0,-69.0,-110.0,-85.0,-110.0,-74.0,-80.0,-110.0,-75.0,-77.0,-86.0,-58.0,-81.0,-81.0,-110.0,-110.0,-110.0,-61.0,-110.0,-110.0,-110.0,-87.0,-110.0,-88.0,-84.0,-110.0,2437.0,5200.0,-1.0,2452.0,-1.0,2462.0,2412.0,-1.0,2427.0,2437.0,2422.0,2437.0,5220.0,5220.0,-1.0,-1.0,-1.0,2437.0,-1.0,-1.0,-1.0,2462.0,-1.0,2462.0,2462.0,-1.0,49.461087810283,11.110832476574,-2.0
4.5617,772.9363,14.55719,-14.21242,18.61788,4.77197,-1.6267,-9.23684,-25.5,8.5,-32.8,-110.0,-110.0,-84.0,-61.0,-69.0,-110.0,-85.0,-110.0,-74.0,-80.0,-110.0,-75.0,-77.0,-86.0,-58.0,-81.0,-81.0,-110.0,-110.0,-110.0,-61.0,-110.0,-110.0,-110.0,-87.0,-110.0,-88.0,-84.0,-110.0,2437.0,5200.0,-1.0,2452.0,-1.0,2462.0,2412.0,-1.0,2427.0,2437.0,2422.0,2437.0,5220.0,5220.0,-1.0,-1.0,-1.0,2437.0,-1.0,-1.0,-1.0,2462.0,-1.0,2462.0,2462.0,-1.0,49.461087810283,11.110832476574,-2.0
4.5768,772.9563,11.58111,-13.42709,16.05601,4.72004,-1.1264,-8.5936,-21.6,-0.6,-30.8,-110.0,-110.0,-84.0,-61.0,-69.0,-110.0,-85.0,-110.0,-74.0,-80.0,-110.0,-75.0,-77.0,-86.0,-58.0,-81.0,-81.0,-110.0,-110.0,-110.0,-61.0,-110.0,-110.0,-110.0,-87.0,-110.0,-88.0,-84.0,-110.0,2437.0,5200.0,-1.0,2452.0,-1.0,2462.0,2412.0,-1.0,2427.0,2437.0,2422.0,2437.0,5220.0,5220.0,-1.0,-1.0,-1.0,2437.0,-1.0,-1.0,-1.0,2462.0,-1.0,2462.0,2462.0,-1.0,49.461087810283,11.110832476574,-2.0
4.599,772.9763,9.02402,-11.56674,13.31696,4.01144,-0.744,-7.60278,-21.9,-10.8,-29.0,-110.0,-110.0,-84.0,-61.0,-69.0,-110.0,-85.0,-110.0,-74.0,-80.0,-110.0,-75.0,-77.0,-86.0,-58.0,-81.0,-81.0,-110.0,-110.0,-110.0,-61.0,-110.0,-110.0,-110.0,-87.0,-110.0,-88.0,-84.0,-110.0,2437.0,5200.0,-1.0,2452.0,-1.0,2462.0,2412.0,-1.0,2427.0,2437.0,2422.0,2437.0,5220.0,5220.0,-1.0,-1.0,-1.0,2437.0,-1.0,-1.0,-1.0,2462.0,-1.0,2462.0,2462.0,-1.0,49.461087810283,11.110832476574,-2.0
4.6188,772.9962,6.98889,-9.00726,11.56674,3.39508,-0.53448,-6.72252,-20.3,-15.4,-26.4,-110.0,-110.0,-84.0,-61.0,-69.0,-110.0,-85.0,-110.0,-74.0,-80.0,-110.0,-75.0,-77.0,-86.0,-58.0,-81.0,-81.0,-110.0,-110.0,-110.0,-61.0,-110.0,-110.0,-110.0,-87.0,-110.0,-88.0,-84.0,-110.0,2437.0,5200.0,-1.0,2452.0,-1.0,2462.0,2412.0,-1.0,2427.0,2437.0,2422.0,2437.0,5220.0,5220.0,-1.0,-1.0,-1.0,2437.0,-1.0,-1.0,-1.0,2462.0,-1.0,2462.0,2462.0,-1.0,49.461087810283,11.110832476574,-2.0
4.6443,773.0162,5.41824,-6.34483,10.75987,2.92593,0.02263,-5.76529,-18.6,-20.0,-26.7,-110.0,-110.0,-84.0,-61.0,-69.0,-110.0,-85.0,-110.0,-74.0,-80.0,-110.0,-75.0,-77.0,-86.0,-58.0,-81.0,-81.0,-110.0,-110.0,-110.0,-61.0,-110.0,-110.0,-110.0,-87.0,-110.0,-88.0,-84.0,-110.0,2437.0,5200.0,-1.0,2452.0,-1.0,2462.0,2412.0,-1.0,2427.0,2437.0,2422.0,2437.0,5220.0,5220.0,-1.0,-1.0,-1.0,2437.0,-1.0,-1.0,-1.0,2462.0,-1.0,2462.0,2462.0,-1.0,49.461087810283,11.110832476574,-2.0
4.658,773.0362,4.30012,-3.83563,10.51087,2.95403,0.50277,-4.96384,-16.0,-23.7,-26.4,-110.0,-110.0,-84.0,-61.0,-69.0,-110.0,-85.0,-110.0,-74.0,-80.0,-110.0,-75.0,-77.0,-86.0,-58.0,-81.0,-81.0,-110.0,-110.0,-110.0,-61.0,-110.0,-110.0,-110.0,-87.0,-110.0,-88.0,-84.0,-110.0,2437.0,5200.0,-1.0,2452.0,-1.0,2462.0,2412.0,-1.0,2427.0,2437.0,2422.0,2437.0,5220.0,5220.0,-1.0,-1.0,-1.0,2437.0,-1.0,-1.0,-1.0,2462.0,-1.0,2462.0,2462.0,-1.0,49.461087810283,11.110832476574,-2.0
4.6837,773.0562,2.52835,-1.82683,10.72156,3.2894,0.45635,-4.34503,-16.3,-26.5,-26.3,-110.0,-110.0,-84.0,-61.0,-69.0,-110.0,-85.0,-110.0,-74.0,-80.0,-110.0,-75.0,-77.0,-86.0,-58.0,-81.0,-81.0,-110.0,-110.0,-110.0,-61.0,-110.0,-110.0,-110.0,-87.0,-110.0,-88.0,-84.0,-110.0,2437.0,5200.0,-1.0,2452.0,-1.0,2462.0,2412.0,-1.0,2427.0,2437.0,2422.0,2437.0,5220.0,5220.0,-1.0,-1.0,-1.0,2437.0,-1.0,-1.0,-1.0,2462.0,-1.0,2462.0,2462.0,-1.0,49.461087810283,11.110832476574,-2.0
4.7031,773.0762,1.2139,-0.38787,10.98733,4.16354,-0.05495,-3.50692,-14.3,-29.6,-25.1,-110.0,-110.0,-84.0,-61.0,-69.0,-110.0,-85.0,-110.0,-74.0,-80.0,-110.0,-75.0,-77.0,-86.0,-58.0,-81.0,-81.0,-110.0,-110.0,-110.0,-61.0,-110.0,-110.0,-110.0,-87.0,-110.0,-88.0,-84.0,-110.0,2437.0,5200.0,-1.0,2452.0,-1.0,2462.0,2412.0,-1.0,2427.0,2437.0,2422.0,2437.0,5220.0,5220.0,-1.0,-1.0,-1.0,2437.0,-1.0,-1.0,-1.0,2462.0,-1.0,2462.0,2462.0,-1.0,49.461087810283,11.110832476574,-2.0
4.7196,773.0962,0.35435,0.45731,10.77663,5.24783,-1.10197,-2.98586,-12.8,-33.7,-20.7,-110.0,-110.0,-84.0,-61.0,-69.0,-110.0,-85.0,-110.0,-74.0,-80.0,-110.0,-75.0,-77.0,-86.0,-58.0,-81.0,-81.0,-110.0,-110.0,-110.0,-61.0,-110.0,-110.0,-110.0,-87.0,-110.0,-88.0,-84.0,-110.0,2437.0,5200.0,-1.0,2452.0,-1.0,2462.0,2412.0,-1.0,2427.0,2437.0,2422.0,2437.0,5220.0,5220.0,-1.0,-1.0,-1.0,2437.0,-1.0,-1.0,-1.0,2462.0,-1.0,2462.0,2462.0,-1.0,49.461087810283,11.110832476574,-2.0
4.7422,773.1162,-0.8763,0.59857,9.49809,6.30402,-1.54301,-2.39637,-10.2,-35.0,-18.9,-110.0,-110.0,-84.0,-61.0,-69.0,-110.0,-85.0,-110.0,-74.0,-80.0,-110.0,-75.0,-77.0,-86.0,-58.0,-81.0,-81.0,-110.0,-110.0,-110.0,-61.0,-110.0,-110.0,-110.0,-87.0,-110.0,-88.0,-84.0,-110.0,2437.0,5200.0,-1.0,2452.0,-1.0,2462.0,2412.0,-1.0,2427.0,2437.0,2422.0,2437.0,5220.0,5220.0,-1.0,-1.0,-1.0,2437.0,-1.0,-1.0,-1.0,2462.0,-1.0,2462.0,2462.0,-1.0,49.461087810283,11.110832476574,-2.0
4.7592,773.1362,-2.00401,0.32083,7.59464,6.74934,-0.10809,-1.18319,-13.1,-37.3,-15.1,-110.0,-110.0,-84.0,-61.0,-69.0,-110.0,-85.0,-110.0,-74.0,-80.0,-110.0,-75.0,-77.0,-86.0,-58.0,-81.0,-81.0,-110.0,-110.0,-110.0,-61.0,-110.0,-110.0,-110.0,-87.0,-110.0,-88.0,-84.0,-110.0,2437.0,5200.0,-1.0,2452.0,-1.0,2462.0,2412.0,-1.0,2427.0,2437.0,2422.0,2437.0,5220.0,5220.0,-1.0,-1.0,-1.0,2437.0,-1.0,-1.0,-1.0,2462.0,-1.0,2462.0,2462.0,-1.0,49.461087810283,11.110832476574,-2.0
4.7786,773.1562,-3.48367,-0.54111,6.17962,6.73834,2.32804,0.57671,-12.8,-38.1,-10.4,-110.0,-110.0,-84.0,-61.0,-69.0,-110.0,-85.0,-110.0,-74.0,-80.0,-110.0,-75.0,-77.0,-86.0,-58.0,-81.0,-81.0,-110.0,-110.0,-110.0,-61.0,-110.0,-110.0,-110.0,-87.0,-110.0,-88.0,-84.0,-110.0,2437.0,5200.0,-1.0,2452.0,-1.0,2462.0,2412.0,-1.0,2427.0,2437.0,2422.0,2437.0,5220.0,5220.0,-1.0,-1.0,-1.0,2437.0,-1.0,-1.0,-1.0,2462.0,-1.0,2462.0,2462.0,-1.0,49.461087810283,11.110832476574,-2.0
4.799,773.1762,-5.92583,-2.27217,5.13811,7.70351,1.51131,2.66892,-13.1,-39.3,-6.5,-110.0,-110.0,-84.0,-61.0,-69.0,-110.0,-85.0,-110.0,-74.0,-80.0,-110.0,-75.0,-77.0,-86.0,-58.0,-81.0,-81.0,-110.0,-110.0,-110.0,-61.0,-110.0,-110.0,-110.0,-87.0,-110.0,-88.0,-84.0,-110.0,2437.0,5200.0,-1.0,2452.0,-1.0,2462.0,2412.0,-1.0,2427.0,2437.0,2422.0,2437.0,5220.0,5220.0,-1.0,-1.0,-1.0,2437.0,-1.0,-1.0,-1.0,2462.0,-1.0,2462.0,2462.0,-1.0,49.461087810283,11.110832476574,-2.0
4.8175,773.1962,-7.08945,-4.5156,1.86753,8.1586,-1.41046,4.54489,-15.8,-37.8,-1.6,-110.0,-110.0,-84.0,-61.0,-69.0,-110.0,-85.0,-110.0,-74.0,-80.0,-110.0,-75.0,-77.0,-86.0,-58.0,-81.0,-81.0,-110.0,-110.0,-110.0,-61.0,-110.0,-110.0,-110.0,-87.0,-110.0,-88.0,-84.0,-110.0,2437.0,5200.0,-1.0,2452.0,-1.0,2462.0,2412.0,-1.0,2427.0,2437.0,2422.0,2437.0,5220.0,5220.0,-1.0,-1.0,-1.0,2437.0,-1.0,-1.0,-1.0,2462.0,-1.0,2462.0,2462.0,-1.0,49.461087810283,11.110832476574,-2.0
4.843,773.2162,-5.35839,-6.8165,-0.05986,7.59539,-1.69023,5.56259,-19.3,-35.6,5.7,-110.0,-110.0,-84.0,-61.0,-69.0,-110.0,-85.0,-110.0,-74.0,-80.0,-110.0,-75.0,-77.0,-86.0,-58.0,-81.0,-81.0,-110.0,-110.0,-110.0,-61.0,-110.0,-110.0,-110.0,-87.0,-110.0,-88.0,-84.0,-110.0,2437.0,5200.0,-1.0,2452.0,-1.0,2462.0,2412.0,-1.0,2427.0,2437.0,2422.0,2437.0,5220.0,5220.0,-1.0,-1.0,-1.0,2437.0,-1.0,-1.0,-1.0,2462.0,-1.0,2462.0,2462.0,-1.0,49.461087810283,11.110832476574,-2.0
4.8684,773.2362,-2.16203,-8.36799,0.83081,7.84951,-0.05556,5.55709,-22.8,-30.4,11.3,-110.0,-110.0,-84.0,-61.0,-69.0,-110.0,-85.0,-110.0,-74.0,-80.0,-110.0,-75.0,-77.0,-86.0,-58.0,-81.0,-81.0,-110.0,-110.0,-110.0,-61.0,-110.0,-110.0,-110.0,-87.0,-110.0,-88.0,-84.0,-110.0,2437.0,5200.0,-1.0,2452.0,-1.0,2462.0,2412.0,-1.0,2427.0,2437.0,2422.0,2437.0,5220.0,5220.0,-1.0,-1.0,-1.0,2437.0,-1.0,-1.0,-1.0,2462.0,-1.0,2462.0,2462.0,-1.0,49.461087810283,11.110832476574,-2.0
4.881,773.2562,0.46449,-9.52203,1.14925,8.95395,0.71047,5.0232,-26.8,-22.5,17.8,-110.0,-110.0,-84.0,-61.0,-69.0,-110.0,-85.0,-110.0,-74.0,-80.0,-110.0,-75.0,-77.0,-86.0,-58.0,-81.0,-81.0,-110.0,-110.0,-110.0,-61.0,-110.0,-110.0,-110.0,-87.0,-110.0,-88.0,-84.0,-110.0,2437.0,5200.0,-1.0,2452.0,-1.0,2462.0,2412.0,-1.0,2427.0,2437.0,2422.0,2437.0,5220.0,5220.0,-1.0,-1.0,-1.0,2437.0,-1.0,-1.0,-1.0,2462.0,-1.0,2462.0,2462.0,-1.0,49.461087810283,11.110832476574,-2.0
4.9023,773.2762,2.15006,-10.08947,-0.65124,9.13232,0.36411,4.35613,-29.2,-16.7,19.1,-110.0,-110.0,-85.0,-61.0,-69.0,-110.0,-85.0,-110.0,-74.0,-80.0,-110.0,-75.0,-77.0,-86.0,-58.0,-81.0,-81.0,-110.0,-110.0,-110.0,-61.0,-110.0,-110.0,-110.0,-87.0,-110.0,-88.0,-84.0,-110.0,2437.0,5200.0,-1.0,2452.0,-1.0,2462.0,2412.0,-1.0,2427.0,2437.0,2422.0,2437.0,5220.0,5220.0,-1.0,-1.0,-1.0,2437.0,-1.0,-1.0,-1.0,2462.0,-1.0,2462.0,2462.0,-1.0,49.461087810283,11.110832476574,-2.0
4.9201,773.2962,3.53874,-9.8692,-2.94017,8.83117,-0.77821,3.37692,-30.7,-9.4,21.9,-110.0,-110.0,-85.0,-61.0,-69.0,-110.0,-85.0,-110.0,-74.0,-80.0,-110.0,-75.0,-77.0,-86.0,-58.0,-81.0,-81.0,-110.0,-110.0,-110.0,-61.0,-110.0,-110.0,-110.0,-87.0,-110.0,-88.0,-84.0,-110.0,2437.0,5200.0,-1.0,2452.0,-1.0,2462.0,2412.0,-1.0,2427.0,2437.0,2422.0,2437.0,5220.0,5220.0,-1.0,-1.0,-1.0,2437.0,-1.0,-1.0,-1.0,2462.0,-1.0,2462.0,2462.0,-1.0,49.461087810283,11.110832476574,-2.0
4.938,773.3162,4.70954,-9.87638,-5.33684,8.38707,-2.14472,2.32317,-31.1,-3.4,24.2,-110.0,-110.0,-85.0,-61.0,-69.0,-110.0,-85.0,-110.0,-74.0,-80.0,-110.0,-75.0,-77.0,-86.0,-58.0,-81.0,-81.0,-110.0,-110.0,-110.0,-61.0,-110.0,-110.0,-110.0,-87.0,-110.0,-88.0,-84.0,-110.0,2437.0,5200.0,-1.0,2452.0,-1.0,2462.0,2412.0,-1.0,2427.0,2437.0,2422.0,2437.0,5220.0,5220.0,-1.0,-1.0,-1.0,2437.0,-1.0,-1.0,-1.0,2462.0,-1.0,2462.0,2462.0,-1.0,49.461087810283,11.110832476574,-2.0
4.9573,773.3362,6.05273,-10.02243,-7.06311,7.58989,-2.32065,1.48751,-30.6,2.4,25.5,-110.0,-110.0,-85.0,-61.0,-69.0,-110.0,-85.0,-110.0,-74.0,-80.0,-110.0,-75.0,-77.0,-86.0,-58.0,-81.0,-81.0,-110.0,-110.0,-110.0,-61.0,-110.0,-110.0,-110.0,-87.0,-110.0,-88.0,-84.0,-110.0,2437.0,5200.0,-1.0,2452.0,-1.0,2462.0,2412.0,-1.0,2427.0,2437.0,2422.0,2437.0,5220.0,5220.0,-1.0,-1.0,-1.0,2437.0,-1.0,-1.0,-1.0,2462.0,-1.0,2462.0,2462.0,-1.0,49.461087810283,11.110832476574,-2.0
4.9878,773.3562,8.08068,-10.29059,-7.33845,6.78477,-1.2669,0.45759,-28.8,7.3,26.8,-110.0,-110.0,-85.0,-61.0,-69.0,-110.0,-85.0,-110.0,-74.0,-80.0,-110.0,-75.0,-77.0,-86.0,-58.0,-81.0,-81.0,-110.0,-110.0,-110.0,-61.0,-110.0,-110.0,-110.0,-87.0,-110.0,-88.0,-84.0,-110.0,2437.0,5200.0,-1.0,2452.0,-1.0,2462.0,2412.0,-1.0,2427.0,2437.0,2422.0,2437.0,5220.0,5220.0,-1.0,-1.0,-1.0,2437.0,-1.0,-1.0,-1.0,2462.0,-1.0,2462.0,2462.0,-1.0,49.461087810283,11.110832476574,-2.0
4.9964,773.3762,9.44063,-11.1238,-5.82048,6.50805,-0.48805,-0.84783,-28.6,11.3,24.8,-110.0,-110.0,-85.0,-61.0,-69.0,-110.0,-85.0,-110.0,-74.0,-80.0,-110.0,-75.0,-77.0,-86.0,-58.0,-81.0,-81.0,-110.0,-110.0,-110.0,-61.0,-110.0,-110.0,-110.0,-87.0,-110.0,-88.0,-84.0,-110.0,2437.0,5200.0,-1.0,2452.0,-1.0,2462.0,2412.0,-1.0,2427.0,2437.0,2422.0,2437.0,5220.0,5220.0,-1.0,-1.0,-1.0,2437.0,-1.0,-1.0,-1.0,2462.0,-1.0,2462.0,2462.0,-1.0,49.461087810283,11.110832476574,-2.0
5.0174,773.3962,10.04398,-12.65853,-4.98727,6.8935,0.19306,-1.7794,-30.0,14.6,22.8,-110.0,-110.0,-85.0,-61.0,-69.0,-110.0,-85.0,-110.0,-74.0,-80.0,-110.0,-75.0,-77.0,-86.0,-58.0,-81.0,-81.0,-110.0,-110.0,-110.0,-61.0,-110.0,-110.0,-110.0,-87.0,-110.0,-88.0,-84.0,-110.0,2437.0,5200.0,-1.0,2452.0,-1.0,2462.0,2412.0,-1.0,2427.0,2437.0,2422.0,2437.0,5220.0,5220.0,-1.0,-1.0,-1.0,2437.0,-1.0,-1.0,-1.0,2462.0,-1.0,2462.0,2462.0,-1.0,49.461087810283,11.110832476574,-2.0
5.0384,773.4161,10.60664,-14.45184,-5.17403,6.64549,1.46611,-2.26565,-31.0,18.0,21.6,-110.0,-110.0,-85.0,-61.0,-69.0,-110.0,-85.0,-110.0,-74.0,-80.0,-110.0,-75.0,-77.0,-86.0,-58.0,-81.0,-81.0,-110.0,-110.0,-110.0,-61.0,-110.0,-110.0,-110.0,-87.0,-110.0,-88.0,-84.0,-110.0,2437.0,5200.0,-1.0,2452.0,-1.0,2462.0,2412.0,-1.0,2427.0,2437.0,2422.0,2437.0,5220.0,5220.0,-1.0,-1.0,-1.0,2437.0,-1.0,-1.0,-1.0,2462.0,-1.0,2462.0,2462.0,-1.0,49.461087810283,11.110832476574,-2.0
