AppTimestamp(s),SensorTimestamp(s),acc_x,acc_y,acc_z,gyro_x,gyro_y,gyro_z,mag_x,mag_y,mag_z,ble_rssi_BE:AC:20:23:00:01,ble_rssi_BE:AC:20:23:00:02,ble_rssi_BE:AC:20:23:00:04,wifi_rssi_20:23:00:00:00:01,wifi_rssi_20:23:00:00:00:09,wifi_rssi_20:23:00:00:00:12,wifi_rssi_20:23:00:00:00:15,wifi_rssi_20:23:00:00:00:44,wifi_rssi_20:23:00:00:00:45,wifi_rssi_20:23:00:00:00:55,wifi_rssi_20:23:00:00:00:65,wifi_rssi_20:23:00:00:00:69,wifi_rssi_20:23:00:00:00:73,wifi_rssi_20:23:00:00:00:79,wifi_rssi_20:23:00:00:00:80,wifi_rssi_20:23:00:00:00:82,wifi_rssi_20:23:00:00:00:88,wifi_rssi_20:23:00:00:00:90,wifi_rssi_20:23:00:00:00:91,wifi_rssi_20:23:00:00:00:95,wifi_rssi_20:23:00:00:00:96,wifi_rssi_20:23:00:00:00:98,wifi_rssi_20:23:00:00:01:01,wifi_rssi_20:23:00:00:01:07,wifi_rssi_20:23:00:00:01:11,wifi_rssi_20:23:00:00:01:12,wifi_rssi_20:23:00:00:01:38,wifi_rssi_20:23:00:00:03:11,wifi_rssi_20:23:00:00:03:25,wifi_freq_20:23:00:00:00:01,wifi_freq_20:23:00:00:00:09,wifi_freq_20:23:00:00:00:12,wifi_freq_20:23:00:00:00:15,wifi_freq_20:23:00:00:00:44,wifi_freq_20:23:00:00:00:45,wifi_freq_20:23:00:00:00:55,wifi_freq_20:23:00:00:00:65,wifi_freq_20:23:00:00:00:69,wifi_freq_20:23:00:00:00:73,wifi_freq_20:23:00:00:00:79,wifi_freq_20:23:00:00:00:80,wifi_freq_20:23:00:00:00:82,wifi_freq_20:23:00:00:00:88,wifi_freq_20:23:00:00:00:90,wifi_freq_20:23:00:00:00:91,wifi_freq_20:23:00:00:00:95,wifi_freq_20:23:00:00:00:96,wifi_freq_20:23:00:00:00:98,wifi_freq_20:23:00:00:01:01,wifi_freq_20:23:00:00:01:07,wifi_freq_20:23:00:00:01:11,wifi_freq_20:23:00:00:01:12,wifi_freq_20:23:00:00:01:38,wifi_freq_20:23:00:00:03:11,wifi_freq_20:23:00:00:03:25,Latitude_degrees,Longitude_degrees,floor_ID
0.0428,17018.2505,-2.31766,6.71115,6.76861,0.00241,-0.40281,-0.14722,-14.6,-12.7,-38.5,-110.0,-84.0,-110.0,-90.0,-110.0,-57.0,-84.0,-85.0,-110.0,-89.0,-78.0,-82.0,-74.0,-86.0,-88.0,-86.0,-110.0,-88.0,-110.0,-110.0,-110.0,-110.0,-110.0,-110.0,-110.0,-110.0,-110.0,-82.0,-110.0,2437.0,-1.0,2417.0,2452.0,2462.0,-1.0,2427.0,2437.0,2422.0,2437.0,5220.0,5220.0,2462.0,-1.0,2437.0,-1.0,-1.0,-1.0,-1.0,-1.0,-1.0,-1.0,-1.0,-1.0,2462.0,-1.0,49.461282667648,11.111404024309,-2.0
0.0447,17018.2705,-2.44695,6.8572,6.83565,-0.27431,-0.62822,-0.03115,-14.7,-12.8,-38.7,-110.0,-84.0,-110.0,-90.0,-110.0,-57.0,-84.0,-85.0,-110.0,-89.0,-78.0,-82.0,-74.0,-86.0,-88.0,-86.0,-110.0,-88.0,-110.0,-110.0,-110.0,-110.0,-110.0,-110.0,-110.0,-110.0,-110.0,-82.0,-110.0,2437.0,-1.0,2417.0,2452.0,2462.0,-1.0,2427.0,2437.0,2422.0,2437.0,5220.0,5220.0,2462.0,-1.0,2437.0,-1.0,-1.0,-1.0,-1.0,-1.0,-1.0,-1.0,-1.0,-1.0,2462.0,-1.0,49.461282667648,11.111404024309,-2.0
0.0462,17018.2905,-2.23865,6.75425,7.39113,-0.19796,-1.03811,-0.08247,-14.5,-13.0,-38.4,-110.0,-84.0,-110.0,-90.0,-110.0,-57.0,-84.0,-85.0,-110.0,-89.0,-78.0,-82.0,-74.0,-86.0,-88.0,-86.0,-110.0,-88.0,-110.0,-110.0,-110.0,-110.0,-110.0,-110.0,-110.0,-110.0,-110.0,-82.0,-110.0,2437.0,-1.0,2417.0,2452.0,2462.0,-1.0,2427.0,2437.0,2422.0,2437.0,5220.0,5220.0,2462.0,-1.0,2437.0,-1.0,-1.0,-1.0,-1.0,-1.0,-1.0,-1.0,-1.0,-1.0,2462.0,-1.0,49.461282667648,11.111404024309,-2.0
0.0731,17018.3105,-2.31526,6.8165,7.61379,0.03784,-1.64348,-0.04765,-14.3,-13.2,-38.4,-110.0,-84.0,-110.0,-90.0,-110.0,-57.0,-84.0,-85.0,-110.0,-89.0,-78.0,-82.0,-74.0,-86.0,-88.0,-86.0,-110.0,-88.0,-110.0,-110.0,-110.0,-110.0,-110.0,-110.0,-110.0,-110.0,-110.0,-82.0,-110.0,2437.0,-1.0,2417.0,2452.0,2462.0,-1.0,2427.0,2437.0,2422.0,2437.0,5220.0,5220.0,2462.0,-1.0,2437.0,-1.0,-1.0,-1.0,-1.0,-1.0,-1.0,-1.0,-1.0,-1.0,2462.0,-1.0,49.461282667648,11.111404024309,-2.0
0.1236,17018.3305,-2.08302,6.82129,8.16448,0.13008,-2.12851,0.05009,-14.3,-13.3,-38.2,-110.0,-84.0,-110.0,-90.0,-110.0,-57.0,-84.0,-85.0,-110.0,-89.0,-78.0,-82.0,-74.0,-86.0,-88.0,-86.0,-110.0,-88.0,-110.0,-110.0,-110.0,-110.0,-110.0,-110.0,-110.0,-110.0,-110.0,-82.0,-110.0,2437.0,-1.0,2417.0,2452.0,2462.0,-1.0,2427.0,2437.0,2422.0,2437.0,5220.0,5220.0,2462.0,-1.0,2437.0,-1.0,-1.0,-1.0,-1.0,-1.0,-1.0,-1.0,-1.0,-1.0,2462.0,-1.0,49.461282667648,11.111404024309,-2.0
0.1256,17018.3505,-1.40783,6.78537,9.35204,0.76965,-2.06864,0.0336,-14.5,-13.5,-38.1,-110.0,-84.0,-110.0,-90.0,-110.0,-57.0,-84.0,-85.0,-110.0,-89.0,-78.0,-82.0,-74.0,-86.0,-88.0,-86.0,-110.0,-88.0,-110.0,-110.0,-110.0,-110.0,-110.0,-110.0,-110.0,-110.0,-110.0,-82.0,-110.0,2437.0,-1.0,2417.0,2452.0,2462.0,-1.0,2427.0,2437.0,2422.0,2437.0,5220.0,5220.0,2462.0,-1.0,2437.0,-1.0,-1.0,-1.0,-1.0,-1.0,-1.0,-1.0,-1.0,-1.0,2462.0,-1.0,49.461282667648,11.111404024309,-2.0
0.1316,17018.3705,-1.36953,6.51243,8.81572,1.4074,-1.58239,-0.05742,-14.6,-13.7,-37.8,-110.0,-84.0,-110.0,-90.0,-110.0,-57.0,-84.0,-85.0,-110.0,-89.0,-78.0,-82.0,-74.0,-86.0,-88.0,-86.0,-110.0,-88.0,-110.0,-110.0,-110.0,-110.0,-110.0,-110.0,-110.0,-110.0,-110.0,-82.0,-110.0,2437.0,-1.0,2417.0,2452.0,2462.0,-1.0,2427.0,2437.0,2422.0,2437.0,5220.0,5220.0,2462.0,-1.0,2437.0,-1.0,-1.0,-1.0,-1.0,-1.0,-1.0,-1.0,-1.0,-1.0,2462.0,-1.0,49.461282667648,11.111404024309,-2.0
0.1472,17018.3905,-1.96091,6.54834,7.56112,1.025,-2.30566,0.34636,-15.0,-14.5,-36.3,-110.0,-84.0,-110.0,-90.0,-110.0,-57.0,-84.0,-85.0,-110.0,-89.0,-78.0,-82.0,-74.0,-86.0,-88.0,-86.0,-110.0,-88.0,-110.0,-110.0,-110.0,-110.0,-110.0,-110.0,-110.0,-110.0,-110.0,-82.0,-110.0,2437.0,-1.0,2417.0,2452.0,2462.0,-1.0,2427.0,2437.0,2422.0,2437.0,5220.0,5220.0,2462.0,-1.0,2437.0,-1.0,-1.0,-1.0,-1.0,-1.0,-1.0,-1.0,-1.0,-1.0,2462.0,-1.0,49.461282667648,11.111404024309,-2.0
0.1587,17018.4105,-1.99443,7.22113,6.23709,0.43857,-3.23662,0.92607,-16.4,-15.2,-33.9,-110.0,-84.0,-110.0,-90.0,-110.0,-57.0,-84.0,-85.0,-110.0,-89.0,-78.0,-82.0,-74.0,-86.0,-88.0,-86.0,-110.0,-88.0,-110.0,-110.0,-110.0,-110.0,-110.0,-110.0,-110.0,-110.0,-110.0,-82.0,-110.0,2437.0,-1.0,2417.0,2452.0,2462.0,-1.0,2427.0,2437.0,2422.0,2437.0,5220.0,5220.0,2462.0,-1.0,2437.0,-1.0,-1.0,-1.0,-1.0,-1.0,-1.0,-1.0,-1.0,-1.0,2462.0,-1.0,49.461282667648,11.111404024309,-2.0
0.1839,17018.4305,-0.68237,6.54595,4.38152,-1.47955,-2.426,2.40131,-18.3,-15.2,-32.3,-110.0,-84.0,-110.0,-90.0,-110.0,-57.0,-84.0,-85.0,-110.0,-89.0,-78.0,-82.0,-74.0,-86.0,-88.0,-86.0,-110.0,-88.0,-110.0,-110.0,-110.0,-110.0,-110.0,-110.0,-110.0,-110.0,-110.0,-82.0,-110.0,2437.0,-1.0,2417.0,2452.0,2462.0,-1.0,2427.0,2437.0,2422.0,2437.0,5220.0,5220.0,2462.0,-1.0,2437.0,-1.0,-1.0,-1.0,-1.0,-1.0,-1.0,-1.0,-1.0,-1.0,2462.0,-1.0,49.461282667648,11.111404024309,-2.0
0.1983,17018.4505,1.16362,6.0647,6.18681,-2.51252,-2.26045,1.96882,-19.2,-14.0,-31.0,-110.0,-84.0,-110.0,-90.0,-110.0,-57.0,-84.0,-85.0,-110.0,-89.0,-78.0,-82.0,-74.0,-86.0,-88.0,-86.0,-110.0,-88.0,-110.0,-110.0,-110.0,-110.0,-110.0,-110.0,-110.0,-110.0,-110.0,-82.0,-110.0,2437.0,-1.0,2417.0,2452.0,2462.0,-1.0,2427.0,2437.0,2422.0,2437.0,5220.0,5220.0,2462.0,-1.0,2437.0,-1.0,-1.0,-1.0,-1.0,-1.0,-1.0,-1.0,-1.0,-1.0,2462.0,-1.0,49.461282667648,11.111404024309,-2.0
0.2182,17018.4704,2.69116,5.5188,8.28898,-0.40565,-2.46571,1.31947,-24.0,-12.0,-29.1,-110.0,-84.0,-110.0,-90.0,-110.0,-57.0,-84.0,-85.0,-110.0,-89.0,-78.0,-82.0,-74.0,-86.0,-88.0,-86.0,-110.0,-88.0,-110.0,-110.0,-110.0,-110.0,-110.0,-110.0,-110.0,-110.0,-110.0,-82.0,-110.0,2437.0,-1.0,2417.0,2452.0,2462.0,-1.0,2427.0,2437.0,2422.0,2437.0,5220.0,5220.0,2462.0,-1.0,2437.0,-1.0,-1.0,-1.0,-1.0,-1.0,-1.0,-1.0,-1.0,-1.0,2462.0,-1.0,49.461282667648,11.111404024309,-2.0
0.24,17018.4904,2.54511,5.70795,7.98491,1.63892,0.2166,0.2138,-24.9,-12.5,-28.3,-110.0,-84.0,-110.0,-90.0,-110.0,-57.0,-84.0,-85.0,-110.0,-89.0,-78.0,-82.0,-74.0,-86.0,-88.0,-86.0,-110.0,-88.0,-110.0,-110.0,-110.0,-110.0,-110.0,-110.0,-110.0,-110.0,-110.0,-82.0,-110.0,2437.0,-1.0,2417.0,2452.0,2462.0,-1.0,2427.0,2437.0,2422.0,2437.0,5220.0,5220.0,2462.0,-1.0,2437.0,-1.0,-1.0,-1.0,-1.0,-1.0,-1.0,-1.0,-1.0,-1.0,2462.0,-1.0,49.461282667648,11.111404024309,-2.0
0.268,17018.5104,2.68877,5.62176,6.6489,0.71223,-0.46024,-0.30055,-25.5,-13.4,-28.9,-110.0,-84.0,-110.0,-90.0,-110.0,-57.0,-84.0,-85.0,-110.0,-89.0,-78.0,-82.0,-74.0,-86.0,-88.0,-86.0,-110.0,-88.0,-110.0,-110.0,-110.0,-110.0,-110.0,-110.0,-110.0,-110.0,-110.0,-82.0,-110.0,2437.0,-1.0,2417.0,2452.0,2462.0,-1.0,2427.0,2437.0,2422.0,2437.0,5220.0,5220.0,2462.0,-1.0,2437.0,-1.0,-1.0,-1.0,-1.0,-1.0,-1.0,-1.0,-1.0,-1.0,2462.0,-1.0,49.461282667648,11.111404024309,-2.0
0.2844,17018.5304,3.02876,5.30332,5.7295,0.23209,0.20072,-0.32315,-25.6,-13.0,-29.0,-110.0,-84.0,-110.0,-90.0,-110.0,-57.0,-84.0,-85.0,-110.0,-89.0,-78.0,-82.0,-74.0,-86.0,-88.0,-86.0,-110.0,-88.0,-110.0,-110.0,-110.0,-110.0,-110.0,-110.0,-110.0,-110.0,-110.0,-82.0,-110.0,2437.0,-1.0,2417.0,2452.0,2462.0,-1.0,2427.0,2437.0,2422.0,2437.0,5220.0,5220.0,2462.0,-1.0,2437.0,-1.0,-1.0,-1.0,-1.0,-1.0,-1.0,-1.0,-1.0,-1.0,2462.0,-1.0,49.461282667648,11.111404024309,-2.0
0.2999,17018.5504,2.9258,5.23867,4.7263,-0.71047,0.40414,-0.45143,-27.8,-12.4,-30.2,-110.0,-84.0,-110.0,-90.0,-110.0,-57.0,-84.0,-85.0,-110.0,-89.0,-78.0,-82.0,-74.0,-86.0,-88.0,-86.0,-110.0,-88.0,-110.0,-110.0,-110.0,-110.0,-110.0,-110.0,-110.0,-110.0,-110.0,-82.0,-110.0,2437.0,-1.0,2417.0,2452.0,2462.0,-1.0,2427.0,2437.0,2422.0,2437.0,5220.0,5220.0,2462.0,-1.0,2437.0,-1.0,-1.0,-1.0,-1.0,-1.0,-1.0,-1.0,-1.0,-1.0,2462.0,-1.0,49.461282667648,11.111404024309,-2.0
0.3223,17018.5704,3.03594,5.94259,4.72151,-1.68602,1.08953,-1.08429,-27.2,-12.1,-30.1,-110.0,-110.0,-97.0,-90.0,-110.0,-57.0,-84.0,-85.0,-110.0,-89.0,-78.0,-82.0,-74.0,-86.0,-88.0,-86.0,-110.0,-88.0,-110.0,-110.0,-110.0,-110.0,-110.0,-110.0,-110.0,-110.0,-110.0,-82.0,-110.0,2437.0,-1.0,2417.0,2452.0,2462.0,-1.0,2427.0,2437.0,2422.0,2437.0,5220.0,5220.0,2462.0,-1.0,2437.0,-1.0,-1.0,-1.0,-1.0,-1.0,-1.0,-1.0,-1.0,-1.0,2462.0,-1.0,49.461282667648,11.111404024309,-2.0
0.3439,17018.5904,0.30647,7.94181,5.62415,-1.5553,0.89711,-1.4618,-27.3,-12.1,-32.1,-110.0,-110.0,-97.0,-90.0,-110.0,-57.0,-84.0,-85.0,-110.0,-89.0,-78.0,-82.0,-74.0,-86.0,-88.0,-86.0,-110.0,-88.0,-110.0,-110.0,-110.0,-110.0,-110.0,-110.0,-110.0,-110.0,-110.0,-82.0,-110.0,2437.0,-1.0,2417.0,2452.0,2462.0,-1.0,2427.0,2437.0,2422.0,2437.0,5220.0,5220.0,2462.0,-1.0,2437.0,-1.0,-1.0,-1.0,-1.0,-1.0,-1.0,-1.0,-1.0,-1.0,2462.0,-1.0,49.461282667648,11.111404024309,-2.0
0.371,17018.6104,-0.36632,7.26662,6.45257,-0.98353,0.6381,0.6524,-27.4,-11.4,-30.9,-110.0,-110.0,-97.0,-90.0,-110.0,-57.0,-84.0,-85.0,-110.0,-89.0,-78.0,-82.0,-74.0,-86.0,-88.0,-86.0,-110.0,-88.0,-110.0,-110.0,-110.0,-110.0,-110.0,-110.0,-110.0,-110.0,-110.0,-82.0,-110.0,2437.0,-1.0,2417.0,2452.0,2462.0,-1.0,2427.0,2437.0,2422.0,2437.0,5220.0,5220.0,2462.0,-1.0,2437.0,-1.0,-1.0,-1.0,-1.0,-1.0,-1.0,-1.0,-1.0,-1.0,2462.0,-1.0,49.461282667648,11.111404024309,-2.0
0.3884,17018.6304,0.14366,6.76861,7.30014,-0.61334,0.45606,0.68661,-26.6,-10.6,-30.3,-110.0,-110.0,-97.0,-90.0,-110.0,-57.0,-84.0,-85.0,-110.0,-89.0,-78.0,-82.0,-74.0,-86.0,-88.0,-86.0,-110.0,-88.0,-110.0,-110.0,-110.0,-110.0,-110.0,-110.0,-110.0,-110.0,-110.0,-82.0,-110.0,2437.0,-1.0,2417.0,2452.0,2462.0,-1.0,2427.0,2437.0,2422.0,2437.0,5220.0,5220.0,2462.0,-1.0,2437.0,-1.0,-1.0,-1.0,-1.0,-1.0,-1.0,-1.0,-1.0,-1.0,2462.0,-1.0,49.461282667648,11.111404024309,-2.0
0.3985,17018.6504,1.05109,6.60341,7.42943,-0.44536,0.1152,0.43432,-27.3,-10.7,-32.0,-110.0,-110.0,-97.0,-90.0,-110.0,-57.0,-84.0,-85.0,-110.0,-89.0,-78.0,-82.0,-74.0,-86.0,-88.0,-86.0,-110.0,-88.0,-110.0,-110.0,-110.0,-110.0,-110.0,-110.0,-110.0,-110.0,-110.0,-82.0,-110.0,2437.0,-1.0,2417.0,2452.0,2462.0,-1.0,2427.0,2437.0,2422.0,2437.0,5220.0,5220.0,2462.0,-1.0,2437.0,-1.0,-1.0,-1.0,-1.0,-1.0,-1.0,-1.0,-1.0,-1.0,2462.0,-1.0,49.461282667648,11.111404024309,-2.0
0.4234,17018.6704,1.40305,6.40947,6.50524,-1.33417,0.8855,0.18082,-26.8,-10.5,-32.2,-110.0,-110.0,-97.0,-90.0,-110.0,-57.0,-84.0,-85.0,-110.0,-89.0,-78.0,-82.0,-74.0,-86.0,-88.0,-86.0,-110.0,-88.0,-110.0,-110.0,-110.0,-110.0,-110.0,-110.0,-110.0,-110.0,-110.0,-82.0,-110.0,2437.0,-1.0,2417.0,2452.0,2462.0,-1.0,2427.0,2437.0,2422.0,2437.0,5220.0,5220.0,2462.0,-1.0,2437.0,-1.0,-1.0,-1.0,-1.0,-1.0,-1.0,-1.0,-1.0,-1.0,2462.0,-1.0,49.461282667648,11.111404024309,-2.0
0.4424,17018.6904,0.9218,6.03836,6.7758,-2.06537,0.95453,0.26328,-26.9,-9.9,-32.4,-110.0,-110.0,-97.0,-90.0,-110.0,-57.0,-84.0,-85.0,-110.0,-89.0,-78.0,-82.0,-74.0,-86.0,-88.0,-86.0,-110.0,-88.0,-110.0,-110.0,-110.0,-110.0,-110.0,-110.0,-110.0,-110.0,-110.0,-82.0,-110.0,2437.0,-1.0,2417.0,2452.0,2462.0,-1.0,2427.0,2437.0,2422.0,2437.0,5220.0,5220.0,2462.0,-1.0,2437.0,-1.0,-1.0,-1.0,-1.0,-1.0,-1.0,-1.0,-1.0,-1.0,2462.0,-1.0,49.461282667648,11.111404024309,-2.0
0.4579,17018.7104,0.65843,5.48768,7.92266,-1.70007,-0.13892,0.57849,-26.7,-9.0,-31.5,-110.0,-110.0,-97.0,-90.0,-110.0,-57.0,-84.0,-85.0,-110.0,-89.0,-78.0,-82.0,-74.0,-86.0,-88.0,-86.0,-110.0,-88.0,-110.0,-110.0,-110.0,-110.0,-110.0,-110.0,-110.0,-110.0,-110.0,-82.0,-110.0,2437.0,-1.0,2417.0,2452.0,2462.0,-1.0,2427.0,2437.0,2422.0,2437.0,5220.0,5220.0,2462.0,-1.0,2437.0,-1.0,-1.0,-1.0,-1.0,-1.0,-1.0,-1.0,-1.0,-1.0,2462.0,-1.0,49.461282667648,11.111404024309,-2.0
0.4835,17018.7304,1.00081,5.31529,9.21317,-0.60113,-0.70275,0.65668,-27.0,-8.5,-32.2,-110.0,-110.0,-97.0,-90.0,-110.0,-57.0,-84.0,-85.0,-110.0,-89.0,-78.0,-82.0,-74.0,-86.0,-88.0,-86.0,-110.0,-88.0,-110.0,-110.0,-110.0,-110.0,-110.0,-110.0,-110.0,-110.0,-110.0,-82.0,-110.0,2437.0,-1.0,2417.0,2452.0,2462.0,-1.0,2427.0,2437.0,2422.0,2437.0,5220.0,5220.0,2462.0,-1.0,2437.0,-1.0,-1.0,-1.0,-1.0,-1.0,-1.0,-1.0,-1.0,-1.0,2462.0,-1.0,49.461282667648,11.111404024309,-2.0
0.5042,17018.7504,1.47966,5.39191,8.9929,0.27913,-0.38999,0.49847,-27.4,-8.2,-32.5,-110.0,-110.0,-97.0,-90.0,-110.0,-57.0,-84.0,-85.0,-110.0,-89.0,-78.0,-82.0,-74.0,-86.0,-88.0,-86.0,-110.0,-88.0,-110.0,-110.0,-110.0,-110.0,-110.0,-110.0,-110.0,-110.0,-110.0,-82.0,-110.0,2437.0,-1.0,2417.0,2452.0,2462.0,-1.0,2427.0,2437.0,2422.0,2437.0,5220.0,5220.0,2462.0,-1.0,2437.0,-1.0,-1.0,-1.0,-1.0,-1.0,-1.0,-1.0,-1.0,-1.0,2462.0,-1.0,49.461282667648,11.111404024309,-2.0
0.5293,17018.7704,1.1708,5.45176,7.19719,0.0189,-0.33134,0.40561,-27.6,-7.9,-32.7,-110.0,-110.0,-97.0,-90.0,-110.0,-57.0,-84.0,-85.0,-110.0,-89.0,-78.0,-82.0,-74.0,-86.0,-88.0,-86.0,-110.0,-88.0,-110.0,-110.0,-110.0,-110.0,-110.0,-110.0,-110.0,-110.0,-110.0,-82.0,-110.0,2437.0,-1.0,2417.0,2452.0,2462.0,-1.0,2427.0,2437.0,2422.0,2437.0,5220.0,5220.0,2462.0,-1.0,2437.0,-1.0,-1.0,-1.0,-1.0,-1.0,-1.0,-1.0,-1.0,-1.0,2462.0,-1.0,49.461282667648,11.111404024309,-2.0
0.5444,17018.7904,1.05827,5.14051,5.79175,-0.78927,-0.59951,0.87231,-27.8,-7.5,-32.4,-110.0,-110.0,-97.0,-90.0,-110.0,-57.0,-84.0,-85.0,-110.0,-89.0,-78.0,-82.0,-74.0,-86.0,-88.0,-86.0,-110.0,-88.0,-110.0,-110.0,-110.0,-110.0,-110.0,-110.0,-110.0,-110.0,-110.0,-82.0,-110.0,2437.0,-1.0,2417.0,2452.0,2462.0,-1.0,2427.0,2437.0,2422.0,2437.0,5220.0,5220.0,2462.0,-1.0,2437.0,-1.0,-1.0,-1.0,-1.0,-1.0,-1.0,-1.0,-1.0,-1.0,2462.0,-1.0,49.461282667648,11.111404024309,-2.0
0.5615,17018.8104,1.38868,4.80052,6.38314,-1.51987,-1.313,1.0177,-28.4,-7.2,-33.0,-110.0,-110.0,-97.0,-90.0,-110.0,-57.0,-84.0,-85.0,-110.0,-89.0,-78.0,-82.0,-74.0,-86.0,-88.0,-86.0,-110.0,-88.0,-110.0,-110.0,-110.0,-110.0,-110.0,-110.0,-110.0,-110.0,-110.0,-82.0,-110.0,2437.0,-1.0,2417.0,2452.0,2462.0,-1.0,2427.0,2437.0,2422.0,2437.0,5220.0,5220.0,2462.0,-1.0,2437.0,-1.0,-1.0,-1.0,-1.0,-1.0,-1.0,-1.0,-1.0,-1.0,2462.0,-1.0,49.461282667648,11.111404024309,-2.0
0.5872,17018.8304,2.0064,4.33603,8.76305,-1.09287,-1.64959,0.99571,-28.8,-6.1,-32.8,-110.0,-110.0,-97.0,-90.0,-110.0,-57.0,-84.0,-85.0,-110.0,-89.0,-78.0,-82.0,-74.0,-86.0,-88.0,-86.0,-110.0,-88.0,-110.0,-110.0,-110.0,-110.0,-110.0,-110.0,-110.0,-110.0,-110.0,-82.0,-110.0,2437.0,-1.0,2417.0,2452.0,2462.0,-1.0,2427.0,2437.0,2422.0,2437.0,5220.0,5220.0,2462.0,-1.0,2437.0,-1.0,-1.0,-1.0,-1.0,-1.0,-1.0,-1.0,-1.0,-1.0,2462.0,-1.0,49.461282667648,11.111404024309,-2.0
0.6006,17018.8504,3.32565,4.37913,8.92346,0.01279,-1.20793,0.70921,-29.1,-4.9,-32.2,-110.0,-110.0,-97.0,-90.0,-110.0,-57.0,-84.0,-85.0,-110.0,-89.0,-78.0,-82.0,-74.0,-86.0,-88.0,-86.0,-110.0,-88.0,-110.0,-110.0,-110.0,-110.0,-110.0,-110.0,-110.0,-110.0,-110.0,-82.0,-110.0,2437.0,-1.0,2417.0,2452.0,2462.0,-1.0,2427.0,2437.0,2422.0,2437.0,5220.0,5220.0,2462.0,-1.0,2437.0,-1.0,-1.0,-1.0,-1.0,-1.0,-1.0,-1.0,-1.0,-1.0,2462.0,-1.0,49.461282667648,11.111404024309,-2.0
0.6184,17018.8704,3.66085,4.28815,7.62816,-0.33296,-0.43275,0.1967,-29.2,-4.6,-32.6,-110.0,-110.0,-97.0,-90.0,-110.0,-57.0,-84.0,-85.0,-110.0,-89.0,-78.0,-82.0,-74.0,-86.0,-88.0,-86.0,-110.0,-88.0,-110.0,-110.0,-110.0,-110.0,-110.0,-110.0,-110.0,-110.0,-110.0,-82.0,-110.0,2437.0,-1.0,2417.0,2452.0,2462.0,-1.0,2427.0,2437.0,2422.0,2437.0,5220.0,5220.0,2462.0,-1.0,2437.0,-1.0,-1.0,-1.0,-1.0,-1.0,-1.0,-1.0,-1.0,-1.0,2462.0,-1.0,49.461282667648,11.111404024309,-2.0
0.6393,17018.8903,3.33762,4.0583,8.22673,-0.88274,-0.83408,0.12278,-29.5,-3.7,-32.1,-110.0,-110.0,-97.0,-90.0,-110.0,-57.0,-84.0,-85.0,-110.0,-89.0,-78.0,-82.0,-74.0,-86.0,-88.0,-86.0,-110.0,-88.0,-110.0,-110.0,-110.0,-110.0,-110.0,-110.0,-110.0,-110.0,-110.0,-82.0,-110.0,2437.0,-1.0,2417.0,2452.0,2462.0,-1.0,2427.0,2437.0,2422.0,2437.0,5220.0,5220.0,2462.0,-1.0,2437.0,-1.0,-1.0,-1.0,-1.0,-1.0,-1.0,-1.0,-1.0,-1.0,2462.0,-1.0,49.461282667648,11.111404024309,-2.0
0.6611,17018.9103,3.61775,3.9314,9.14613,-0.23583,-1.23054,0.10568,-27.8,-4.0,-30.6,-110.0,-110.0,-97.0,-90.0,-110.0,-57.0,-84.0,-85.0,-110.0,-89.0,-78.0,-82.0,-74.0,-86.0,-88.0,-86.0,-110.0,-88.0,-110.0,-110.0,-110.0,-110.0,-110.0,-110.0,-110.0,-110.0,-110.0,-82.0,-110.0,2437.0,-1.0,2417.0,2452.0,2462.0,-1.0,2427.0,2437.0,2422.0,2437.0,5220.0,5220.0,2462.0,-1.0,2437.0,-1.0,-1.0,-1.0,-1.0,-1.0,-1.0,-1.0,-1.0,-1.0,2462.0,-1.0,49.461282667648,11.111404024309,-2.0
0.6851,17018.9303,3.93619,3.91703,9.42147,0.20216,-1.02101,-0.05742,-28.2,-3.6,-30.3,-110.0,-110.0,-97.0,-90.0,-110.0,-57.0,-84.0,-85.0,-110.0,-89.0,-78.0,-82.0,-74.0,-86.0,-88.0,-86.0,-110.0,-88.0,-110.0,-110.0,-110.0,-110.0,-110.0,-110.0,-110.0,-110.0,-110.0,-82.0,-110.0,2437.0,-1.0,2417.0,2452.0,2462.0,-1.0,2427.0,2437.0,2422.0,2437.0,5220.0,5220.0,2462.0,-1.0,2437.0,-1.0,-1.0,-1.0,-1.0,-1.0,-1.0,-1.0,-1.0,-1.0,2462.0,-1.0,49.461282667648,11.111404024309,-2.0
0.7051,17018.9503,3.85718,4.04872,8.87079,0.25347,-1.09492,0.01649,-30.3,-2.7,-31.0,-110.0,-86.0,-110.0,-90.0,-110.0,-57.0,-84.0,-85.0,-110.0,-89.0,-78.0,-82.0,-74.0,-86.0,-88.0,-86.0,-110.0,-88.0,-110.0,-110.0,-110.0,-110.0,-110.0,-110.0,-110.0,-110.0,-110.0,-82.0,-110.0,2437.0,-1.0,2417.0,2452.0,2462.0,-1.0,2427.0,2437.0,2422.0,2437.0,5220.0,5220.0,2462.0,-1.0,2437.0,-1.0,-1.0,-1.0,-1.0,-1.0,-1.0,-1.0,-1.0,-1.0,2462.0,-1.0,49.461282667648,11.111404024309,-2.0
0.7235,17018.9703,3.86915,4.3504,8.66727,0.05433,-1.33988,0.10751,-28.6,-2.8,-29.6,-110.0,-86.0,-110.0,-90.0,-110.0,-57.0,-84.0,-85.0,-110.0,-89.0,-78.0,-82.0,-74.0,-86.0,-88.0,-86.0,-110.0,-88.0,-110.0,-110.0,-110.0,-110.0,-110.0,-110.0,-110.0,-110.0,-110.0,-82.0,-110.0,2437.0,-1.0,2417.0,2452.0,2462.0,-1.0,2427.0,2437.0,2422.0,2437.0,5220.0,5220.0,2462.0,-1.0,2437.0,-1.0,-1.0,-1.0,-1.0,-1.0,-1.0,-1.0,-1.0,-1.0,2462.0,-1.0,49.461282667648,11.111404024309,-2.0
0.7402,17018.9903,4.17562,4.63292,9.53879,0.23576,-1.78093,0.23518,-31.1,-2.1,-29.5,-110.0,-86.0,-110.0,-90.0,-110.0,-57.0,-84.0,-85.0,-110.0,-89.0,-78.0,-82.0,-74.0,-86.0,-88.0,-86.0,-110.0,-88.0,-110.0,-110.0,-110.0,-110.0,-110.0,-110.0,-110.0,-110.0,-110.0,-82.0,-110.0,2437.0,-1.0,2417.0,2452.0,2462.0,-1.0,2427.0,2437.0,2422.0,2437.0,5220.0,5220.0,2462.0,-1.0,2437.0,-1.0,-1.0,-1.0,-1.0,-1.0,-1.0,-1.0,-1.0,-1.0,2462.0,-1.0,49.461282667648,11.111404024309,-2.0
0.764,17019.0103,5.27219,5.1453,10.35763,1.03477,-2.11079,0.04948,-29.4,-2.5,-27.7,-110.0,-86.0,-110.0,-90.0,-110.0,-57.0,-84.0,-85.0,-110.0,-89.0,-78.0,-82.0,-74.0,-86.0,-88.0,-86.0,-110.0,-88.0,-110.0,-110.0,-110.0,-110.0,-110.0,-110.0,-110.0,-110.0,-110.0,-82.0,-110.0,2437.0,-1.0,2417.0,2452.0,2462.0,-1.0,2427.0,2437.0,2422.0,2437.0,5220.0,5220.0,2462.0,-1.0,2437.0,-1.0,-1.0,-1.0,-1.0,-1.0,-1.0,-1.0,-1.0,-1.0,2462.0,-1.0,49.461282667648,11.111404024309,-2.0
0.7801,17019.0303,6.0216,5.59303,9.61541,1.37258,-1.90799,-0.33903,-30.6,-3.1,-24.6,-110.0,-86.0,-110.0,-90.0,-110.0,-57.0,-84.0,-85.0,-110.0,-89.0,-78.0,-82.0,-74.0,-86.0,-88.0,-86.0,-110.0,-88.0,-110.0,-110.0,-110.0,-110.0,-110.0,-110.0,-110.0,-110.0,-110.0,-82.0,-110.0,2437.0,-1.0,2417.0,2452.0,2462.0,-1.0,2427.0,2437.0,2422.0,2437.0,5220.0,5220.0,2462.0,-1.0,2437.0,-1.0,-1.0,-1.0,-1.0,-1.0,-1.0,-1.0,-1.0,-1.0,2462.0,-1.0,49.461282667648,11.111404024309,-2.0
0.8052,17019.0503,5.74387,5.66485,8.97374,1.02011,-1.31789,-0.40378,-30.6,-3.1,-23.6,-110.0,-86.0,-110.0,-90.0,-110.0,-57.0,-84.0,-85.0,-110.0,-89.0,-78.0,-82.0,-74.0,-86.0,-88.0,-86.0,-110.0,-88.0,-110.0,-110.0,-110.0,-110.0,-110.0,-110.0,-110.0,-110.0,-110.0,-82.0,-110.0,2437.0,-1.0,2417.0,2452.0,2462.0,-1.0,2427.0,2437.0,2422.0,2437.0,5220.0,5220.0,2462.0,-1.0,2437.0,-1.0,-1.0,-1.0,-1.0,-1.0,-1.0,-1.0,-1.0,-1.0,2462.0,-1.0,49.461282667648,11.111404024309,-2.0
0.8182,17019.0703,5.21712,5.57627,9.51006,1.28339,-1.61416,-0.19548,-31.0,-3.6,-23.9,-110.0,-86.0,-110.0,-90.0,-110.0,-57.0,-84.0,-85.0,-110.0,-89.0,-78.0,-82.0,-74.0,-86.0,-88.0,-86.0,-110.0,-88.0,-110.0,-110.0,-110.0,-110.0,-110.0,-110.0,-110.0,-110.0,-110.0,-82.0,-110.0,2437.0,-1.0,2417.0,2452.0,2462.0,-1.0,2427.0,2437.0,2422.0,2437.0,5220.0,5220.0,2462.0,-1.0,2437.0,-1.0,-1.0,-1.0,-1.0,-1.0,-1.0,-1.0,-1.0,-1.0,2462.0,-1.0,49.461282667648,11.111404024309,-2.0
0.8407,17019.0903,4.76461,5.39909,9.89075,2.17403,-3.12972,-0.1912,-33.1,-4.6,-21.7,-110.0,-86.0,-110.0,-90.0,-110.0,-57.0,-84.0,-85.0,-110.0,-89.0,-78.0,-82.0,-74.0,-86.0,-88.0,-86.0,-110.0,-88.0,-110.0,-110.0,-110.0,-110.0,-110.0,-110.0,-110.0,-110.0,-110.0,-82.0,-110.0,2437.0,-1.0,2417.0,2452.0,2462.0,-1.0,2427.0,2437.0,2422.0,2437.0,5220.0,5220.0,2462.0,-1.0,2437.0,-1.0,-1.0,-1.0,-1.0,-1.0,-1.0,-1.0,-1.0,-1.0,2462.0,-1.0,49.461282667648,11.111404024309,-2.0
0.8626,17019.1103,4.34082,5.42543,8.86839,2.88752,-4.72957,-0.15211,-34.8,-5.2,-17.4,-110.0,-86.0,-110.0,-90.0,-110.0,-57.0,-84.0,-85.0,-110.0,-89.0,-78.0,-82.0,-74.0,-86.0,-88.0,-86.0,-110.0,-88.0,-110.0,-110.0,-110.0,-110.0,-110.0,-110.0,-110.0,-110.0,-110.0,-82.0,-110.0,2437.0,-1.0,2417.0,2452.0,2462.0,-1.0,2427.0,2437.0,2422.0,2437.0,5220.0,5220.0,2462.0,-1.0,2437.0,-1.0,-1.0,-1.0,-1.0,-1.0,-1.0,-1.0,-1.0,-1.0,2462.0,-1.0,49.461282667648,11.111404024309,-2.0
0.8877,17019.1304,4.59222,5.45176,6.58426,2.46236,-4.52005,-0.15821,-35.4,-5.8,-14.4,-110.0,-86.0,-110.0,-90.0,-110.0,-57.0,-84.0,-85.0,-110.0,-89.0,-78.0,-82.0,-74.0,-86.0,-88.0,-86.0,-110.0,-88.0,-110.0,-110.0,-110.0,-110.0,-110.0,-110.0,-110.0,-110.0,-110.0,-82.0,-110.0,2437.0,-1.0,2417.0,2452.0,2462.0,-1.0,2427.0,2437.0,2422.0,2437.0,5220.0,5220.0,2462.0,-1.0,2437.0,-1.0,-1.0,-1.0,-1.0,-1.0,-1.0,-1.0,-1.0,-1.0,2462.0,-1.0,49.461282667648,11.111404024309,-2.0
0.9107,17019.1504,4.93699,5.50444,5.59781,1.51186,-3.00082,-0.11118,-38.8,-6.7,-10.8,-110.0,-110.0,-100.0,-90.0,-110.0,-57.0,-84.0,-85.0,-110.0,-89.0,-78.0,-82.0,-74.0,-86.0,-88.0,-86.0,-110.0,-88.0,-110.0,-110.0,-110.0,-110.0,-110.0,-110.0,-110.0,-110.0,-110.0,-82.0,-110.0,2437.0,-1.0,2417.0,2452.0,2462.0,-1.0,2427.0,2437.0,2422.0,2437.0,5220.0,5220.0,2462.0,-1.0,2437.0,-1.0,-1.0,-1.0,-1.0,-1.0,-1.0,-1.0,-1.0,-1.0,2462.0,-1.0,49.461282667648,11.111404024309,-2.0
0.921,17019.1704,4.71672,5.23149,5.97372,1.29683,-1.49199,0.06597,-39.6,-6.3,-8.5,-110.0,-110.0,-100.0,-90.0,-110.0,-57.0,-84.0,-85.0,-110.0,-89.0,-78.0,-82.0,-74.0,-86.0,-88.0,-86.0,-110.0,-88.0,-110.0,-110.0,-110.0,-110.0,-110.0,-110.0,-110.0,-110.0,-110.0,-82.0,-110.0,2437.0,-1.0,2417.0,2452.0,2462.0,-1.0,2427.0,2437.0,2422.0,2437.0,5220.0,5220.0,2462.0,-1.0,2437.0,-1.0,-1.0,-1.0,-1.0,-1.0,-1.0,-1.0,-1.0,-1.0,2462.0,-1.0,49.461282667648,11.111404024309,-2.0
0.943,17019.1904,4.26181,4.8939,6.78537,1.86066,-1.57995,0.37507,-40.6,-6.7,-6.3,-110.0,-110.0,-100.0,-90.0,-110.0,-57.0,-84.0,-85.0,-110.0,-89.0,-78.0,-82.0,-74.0,-86.0,-88.0,-86.0,-110.0,-88.0,-110.0,-110.0,-110.0,-110.0,-110.0,-110.0,-110.0,-110.0,-110.0,-82.0,-110.0,2437.0,-1.0,2417.0,2452.0,2462.0,-1.0,2427.0,2437.0,2422.0,2437.0,5220.0,5220.0,2462.0,-1.0,2437.0,-1.0,-1.0,-1.0,-1.0,-1.0,-1.0,-1.0,-1.0,-1.0,2462.0,-1.0,49.461282667648,11.111404024309,-2.0
0.9716,17019.2105,3.58423,4.50842,6.74228,3.09033,-3.53777,0.64691,-39.7,-6.6,-6.9,-110.0,-110.0,-100.0,-90.0,-110.0,-57.0,-84.0,-85.0,-110.0,-89.0,-78.0,-82.0,-74.0,-86.0,-88.0,-86.0,-110.0,-88.0,-110.0,-110.0,-110.0,-110.0,-110.0,-110.0,-110.0,-110.0,-110.0,-82.0,-110.0,2437.0,-1.0,2417.0,2452.0,2462.0,-1.0,2427.0,2437.0,2422.0,2437.0,5220.0,5220.0,2462.0,-1.0,2437.0,-1.0,-1.0,-1.0,-1.0,-1.0,-1.0,-1.0,-1.0,-1.0,2462.0,-1.0,49.461282667648,11.111404024309,-2.0
0.9914,17019.2305,2.68159,4.25223,5.61218,3.80199,-5.83768,0.85277,-40.3,-6.2,-4.1,-110.0,-110.0,-100.0,-90.0,-110.0,-57.0,-84.0,-85.0,-110.0,-89.0,-78.0,-82.0,-74.0,-86.0,-88.0,-86.0,-110.0,-88.0,-110.0,-110.0,-110.0,-110.0,-110.0,-110.0,-110.0,-110.0,-110.0,-82.0,-110.0,2437.0,-1.0,2417.0,2452.0,2462.0,-1.0,2427.0,2437.0,2422.0,2437.0,5220.0,5220.0,2462.0,-1.0,2437.0,-1.0,-1.0,-1.0,-1.0,-1.0,-1.0,-1.0,-1.0,-1.0,2462.0,-1.0,49.461282667648,11.111404024309,-2.0
1.0065,17019.2505,1.73345,4.12534,3.94337,4.07505,-7.52611,1.1472,-40.6,-5.1,4.9,-110.0,-110.0,-100.0,-90.0,-110.0,-57.0,-84.0,-85.0,-110.0,-89.0,-78.0,-82.0,-74.0,-86.0,-88.0,-86.0,-110.0,-88.0,-110.0,-110.0,-110.0,-110.0,-110.0,-110.0,-110.0,-110.0,-110.0,-82.0,-110.0,2437.0,-1.0,2417.0,2452.0,2462.0,-1.0,2427.0,2437.0,2422.0,2437.0,5220.0,5220.0,2462.0,-1.0,2437.0,-1.0,-1.0,-1.0,-1.0,-1.0,-1.0,-1.0,-1.0,-1.0,2462.0,-1.0,49.461282667648,11.111404024309,-2.0
1.0227,17019.2706,1.19953,3.61536,2.2147,4.17279,-7.33858,1.19607,-39.2,-3.3,9.8,-110.0,-110.0,-100.0,-90.0,-110.0,-57.0,-84.0,-85.0,-110.0,-89.0,-78.0,-82.0,-74.0,-86.0,-88.0,-86.0,-110.0,-88.0,-110.0,-110.0,-110.0,-110.0,-110.0,-110.0,-110.0,-110.0,-110.0,-82.0,-110.0,2437.0,-1.0,2417.0,2452.0,2462.0,-1.0,2427.0,2437.0,2422.0,2437.0,5220.0,5220.0,2462.0,-1.0,2437.0,-1.0,-1.0,-1.0,-1.0,-1.0,-1.0,-1.0,-1.0,-1.0,2462.0,-1.0,49.461282667648,11.111404024309,-2.0
1.0486,17019.2906,0.0431,2.72229,1.04151,4.29251,-6.78086,1.76479,-36.8,-0.7,15.4,-110.0,-74.0,-110.0,-90.0,-110.0,-57.0,-84.0,-85.0,-110.0,-89.0,-78.0,-82.0,-74.0,-86.0,-88.0,-86.0,-110.0,-88.0,-110.0,-110.0,-110.0,-110.0,-110.0,-110.0,-110.0,-110.0,-110.0,-82.0,-110.0,2437.0,-1.0,2417.0,2452.0,2462.0,-1.0,2427.0,2437.0,2422.0,2437.0,5220.0,5220.0,2462.0,-1.0,2437.0,-1.0,-1.0,-1.0,-1.0,-1.0,-1.0,-1.0,-1.0,-1.0,2462.0,-1.0,49.461282667648,11.111404024309,-2.0
1.0678,17019.3106,-1.24023,1.64487,0.48604,4.83496,-6.96412,2.88267,-35.0,1.7,19.2,-110.0,-74.0,-110.0,-90.0,-110.0,-57.0,-84.0,-85.0,-110.0,-89.0,-78.0,-82.0,-74.0,-86.0,-88.0,-86.0,-110.0,-88.0,-110.0,-110.0,-110.0,-110.0,-110.0,-110.0,-110.0,-110.0,-110.0,-82.0,-110.0,2437.0,-1.0,2417.0,2452.0,2462.0,-1.0,2427.0,2437.0,2422.0,2437.0,5220.0,5220.0,2462.0,-1.0,2437.0,-1.0,-1.0,-1.0,-1.0,-1.0,-1.0,-1.0,-1.0,-1.0,2462.0,-1.0,49.461282667648,11.111404024309,-2.0
1.0944,17019.3306,-1.88429,0.47167,0.08141,5.73904,-7.47419,3.56012,-29.4,9.2,23.3,-110.0,-74.0,-110.0,-90.0,-110.0,-57.0,-84.0,-85.0,-110.0,-89.0,-78.0,-82.0,-74.0,-86.0,-88.0,-86.0,-110.0,-88.0,-110.0,-110.0,-110.0,-110.0,-110.0,-110.0,-110.0,-110.0,-110.0,-82.0,-110.0,2437.0,-1.0,2417.0,2452.0,2462.0,-1.0,2427.0,2437.0,2422.0,2437.0,5220.0,5220.0,2462.0,-1.0,2437.0,-1.0,-1.0,-1.0,-1.0,-1.0,-1.0,-1.0,-1.0,-1.0,2462.0,-1.0,49.461282667648,11.111404024309,-2.0
1.1051,17019.3507,-1.1277,-0.90504,-0.88109,6.42443,-6.67396,4.13556,-25.0,13.8,25.6,-110.0,-74.0,-110.0,-90.0,-110.0,-57.0,-84.0,-85.0,-110.0,-89.0,-78.0,-82.0,-74.0,-86.0,-88.0,-86.0,-110.0,-88.0,-110.0,-110.0,-110.0,-110.0,-110.0,-110.0,-110.0,-110.0,-110.0,-82.0,-110.0,2437.0,-1.0,2417.0,2452.0,2462.0,-1.0,2427.0,2437.0,2422.0,2437.0,5220.0,5220.0,2462.0,-1.0,2437.0,-1.0,-1.0,-1.0,-1.0,-1.0,-1.0,-1.0,-1.0,-1.0,2462.0,-1.0,49.461282667648,11.111404024309,-2.0
1.1212,17019.3707,2.07823,-1.97767,-2.09499,6.55516,-4.3374,3.90098,-20.6,19.3,23.7,-110.0,-74.0,-110.0,-90.0,-110.0,-57.0,-84.0,-85.0,-110.0,-89.0,-78.0,-82.0,-74.0,-86.0,-88.0,-86.0,-110.0,-88.0,-110.0,-110.0,-110.0,-110.0,-110.0,-110.0,-110.0,-110.0,-110.0,-82.0,-110.0,2437.0,-1.0,2417.0,2452.0,2462.0,-1.0,2427.0,2437.0,2422.0,2437.0,5220.0,5220.0,2462.0,-1.0,2437.0,-1.0,-1.0,-1.0,-1.0,-1.0,-1.0,-1.0,-1.0,-1.0,2462.0,-1.0,49.461282667648,11.111404024309,-2.0
1.141,17019.3907,4.73348,-2.89228,-3.98647,6.16176,-1.52009,2.83197,-17.7,23.7,23.9,-110.0,-74.0,-110.0,-90.0,-110.0,-57.0,-84.0,-85.0,-110.0,-89.0,-78.0,-82.0,-74.0,-86.0,-88.0,-86.0,-110.0,-88.0,-110.0,-110.0,-110.0,-110.0,-110.0,-110.0,-110.0,-110.0,-110.0,-82.0,-110.0,2437.0,-1.0,2417.0,2452.0,2462.0,-1.0,2427.0,2437.0,2422.0,2437.0,5220.0,5220.0,2462.0,-1.0,2437.0,-1.0,-1.0,-1.0,-1.0,-1.0,-1.0,-1.0,-1.0,-1.0,2462.0,-1.0,49.461282667648,11.111404024309,-2.0
1.1626,17019.4108,5.59542,-3.82126,-4.8508,5.23691,0.3119,2.30113,-16.2,27.4,20.9,-110.0,-74.0,-110.0,-90.0,-110.0,-57.0,-84.0,-85.0,-110.0,-89.0,-78.0,-82.0,-74.0,-86.0,-88.0,-86.0,-110.0,-88.0,-110.0,-110.0,-110.0,-110.0,-110.0,-110.0,-110.0,-110.0,-110.0,-82.0,-110.0,2437.0,-1.0,2417.0,2452.0,2462.0,-1.0,2427.0,2437.0,2422.0,2437.0,5220.0,5220.0,2462.0,-1.0,2437.0,-1.0,-1.0,-1.0,-1.0,-1.0,-1.0,-1.0,-1.0,-1.0,2462.0,-1.0,49.461282667648,11.111404024309,-2.0
1.186,17019.4308,5.91146,-4.67841,-3.77817,5.32243,0.28685,2.21011,-15.7,30.4,18.4,-110.0,-82.0,-110.0,-90.0,-110.0,-57.0,-84.0,-85.0,-110.0,-89.0,-78.0,-82.0,-74.0,-86.0,-88.0,-86.0,-110.0,-88.0,-110.0,-110.0,-110.0,-110.0,-110.0,-110.0,-110.0,-110.0,-110.0,-82.0,-110.0,2437.0,-1.0,2417.0,2452.0,2462.0,-1.0,2427.0,2437.0,2422.0,2437.0,5220.0,5220.0,2462.0,-1.0,2437.0,-1.0,-1.0,-1.0,-1.0,-1.0,-1.0,-1.0,-1.0,-1.0,2462.0,-1.0,49.461282667648,11.111404024309,-2.0
1.2023,17019.4508,6.13413,-6.00963,-3.93619,6.29127,-1.19694,1.91445,-13.4,33.7,14.8,-110.0,-82.0,-110.0,-90.0,-110.0,-57.0,-84.0,-85.0,-110.0,-89.0,-78.0,-82.0,-74.0,-86.0,-88.0,-86.0,-110.0,-88.0,-110.0,-110.0,-110.0,-110.0,-110.0,-110.0,-110.0,-110.0,-110.0,-82.0,-110.0,2437.0,-1.0,2417.0,2452.0,2462.0,-1.0,2427.0,2437.0,2422.0,2437.0,5220.0,5220.0,2462.0,-1.0,2437.0,-1.0,-1.0,-1.0,-1.0,-1.0,-1.0,-1.0,-1.0,-1.0,2462.0,-1.0,49.461282667648,11.111404024309,-2.0
1.2234,17019.4708,6.35441,-7.59225,-5.07107,6.40367,-2.23174,1.62796,-12.1,35.2,10.7,-110.0,-82.0,-110.0,-90.0,-110.0,-57.0,-84.0,-85.0,-110.0,-89.0,-78.0,-82.0,-74.0,-86.0,-88.0,-86.0,-110.0,-88.0,-110.0,-110.0,-110.0,-110.0,-110.0,-110.0,-110.0,-110.0,-110.0,-82.0,-110.0,2437.0,-1.0,2417.0,2452.0,2462.0,-1.0,2427.0,2437.0,2422.0,2437.0,5220.0,5220.0,2462.0,-1.0,2437.0,-1.0,-1.0,-1.0,-1.0,-1.0,-1.0,-1.0,-1.0,-1.0,2462.0,-1.0,49.461282667648,11.111404024309,-2.0
1.2551,17019.4909,6.95297,-9.18923,-5.96653,6.03837,-2.29344,1.17714,-11.1,37.3,3.9,-110.0,-82.0,-110.0,-90.0,-110.0,-57.0,-84.0,-85.0,-110.0,-89.0,-78.0,-82.0,-74.0,-86.0,-88.0,-86.0,-110.0,-88.0,-110.0,-110.0,-110.0,-110.0,-110.0,-110.0,-110.0,-110.0,-110.0,-82.0,-110.0,2437.0,-1.0,2417.0,2452.0,2462.0,-1.0,2427.0,2437.0,2422.0,2437.0,5220.0,5220.0,2462.0,-1.0,2437.0,-1.0,-1.0,-1.0,-1.0,-1.0,-1.0,-1.0,-1.0,-1.0,2462.0,-1.0,49.461282667648,11.111404024309,-2.0
1.2782,17019.5109,8.42545,-10.36482,-5.49247,5.72805,-1.59889,0.54917,-10.3,37.4,1.1,-110.0,-82.0,-110.0,-90.0,-110.0,-57.0,-84.0,-85.0,-110.0,-89.0,-78.0,-82.0,-74.0,-86.0,-88.0,-86.0,-110.0,-88.0,-110.0,-110.0,-110.0,-110.0,-110.0,-110.0,-110.0,-110.0,-110.0,-82.0,-110.0,2437.0,-1.0,2417.0,2452.0,2462.0,-1.0,2427.0,2437.0,2422.0,2437.0,5220.0,5220.0,2462.0,-1.0,2437.0,-1.0,-1.0,-1.0,-1.0,-1.0,-1.0,-1.0,-1.0,-1.0,2462.0,-1.0,49.461282667648,11.111404024309,-2.0
1.2857,17019.5309,9.73512,-11.24351,-5.93062,5.67918,-0.5311,-0.32254,-5.2,35.6,-2.1,-110.0,-82.0,-110.0,-90.0,-110.0,-57.0,-84.0,-85.0,-110.0,-89.0,-78.0,-82.0,-74.0,-86.0,-88.0,-86.0,-110.0,-88.0,-110.0,-110.0,-110.0,-110.0,-110.0,-110.0,-110.0,-110.0,-110.0,-82.0,-110.0,2437.0,-1.0,2417.0,2452.0,2462.0,-1.0,2427.0,2437.0,2422.0,2437.0,5220.0,5220.0,2462.0,-1.0,2437.0,-1.0,-1.0,-1.0,-1.0,-1.0,-1.0,-1.0,-1.0,-1.0,2462.0,-1.0,49.461282667648,11.111404024309,-2.0
1.3092,17019.551,10.98014,-11.76307,-6.51003,4.9553,0.87023,-1.14843,-5.8,35.4,-4.9,-110.0,-82.0,-110.0,-90.0,-110.0,-57.0,-84.0,-85.0,-110.0,-89.0,-78.0,-82.0,-74.0,-86.0,-88.0,-86.0,-110.0,-88.0,-110.0,-110.0,-110.0,-110.0,-110.0,-110.0,-110.0,-110.0,-110.0,-82.0,-110.0,2437.0,-1.0,2417.0,2452.0,2462.0,-1.0,2427.0,2437.0,2422.0,2437.0,5220.0,5220.0,2462.0,-1.0,2437.0,-1.0,-1.0,-1.0,-1.0,-1.0,-1.0,-1.0,-1.0,-1.0,2462.0,-1.0,49.461282667648,11.111404024309,-2.0
1.3293,17019.571,11.75828,-12.0025,-5.89231,4.48555,1.62892,-2.01463,-11.2,35.9,-13.8,-110.0,-82.0,-110.0,-90.0,-110.0,-57.0,-84.0,-85.0,-110.0,-89.0,-78.0,-82.0,-74.0,-86.0,-88.0,-86.0,-110.0,-88.0,-110.0,-110.0,-110.0,-110.0,-110.0,-110.0,-110.0,-110.0,-110.0,-82.0,-110.0,2437.0,-1.0,2417.0,2452.0,2462.0,-1.0,2427.0,2437.0,2422.0,2437.0,5220.0,5220.0,2462.0,-1.0,2437.0,-1.0,-1.0,-1.0,-1.0,-1.0,-1.0,-1.0,-1.0,-1.0,2462.0,-1.0,49.461282667648,11.111404024309,-2.0
1.3383,17019.591,12.297,-12.61783,-5.11178,4.57168,1.62037,-3.15207,-8.8,32.7,-13.4,-110.0,-82.0,-110.0,-90.0,-110.0,-57.0,-84.0,-85.0,-110.0,-89.0,-78.0,-82.0,-74.0,-86.0,-88.0,-86.0,-110.0,-88.0,-110.0,-110.0,-110.0,-110.0,-110.0,-110.0,-110.0,-110.0,-110.0,-82.0,-110.0,2437.0,-1.0,2417.0,2452.0,2462.0,-1.0,2427.0,2437.0,2422.0,2437.0,5220.0,5220.0,2462.0,-1.0,2437.0,-1.0,-1.0,-1.0,-1.0,-1.0,-1.0,-1.0,-1.0,-1.0,2462.0,-1.0,49.461282667648,11.111404024309,-2.0
1.3651,17019.611,12.80458,-13.51808,-4.39349,4.52892,1.8073,-3.84662,-15.9,30.2,-22.0,-110.0,-82.0,-110.0,-90.0,-110.0,-57.0,-84.0,-85.0,-110.0,-89.0,-78.0,-82.0,-74.0,-86.0,-88.0,-86.0,-110.0,-88.0,-110.0,-110.0,-110.0,-110.0,-110.0,-110.0,-110.0,-110.0,-110.0,-82.0,-110.0,2437.0,-1.0,2417.0,2452.0,2462.0,-1.0,2427.0,2437.0,2422.0,2437.0,5220.0,5220.0,2462.0,-1.0,2437.0,-1.0,-1.0,-1.0,-1.0,-1.0,-1.0,-1.0,-1.0,-1.0,2462.0,-1.0,49.461282667648,11.111404024309,-2.0
1.402,17019.6311,13.36724,-14.17171,-3.39508,4.65537,1.80608,-4.51307,-13.0,25.8,-22.5,-110.0,-82.0,-110.0,-90.0,-110.0,-57.0,-84.0,-85.0,-110.0,-89.0,-78.0,-82.0,-74.0,-86.0,-88.0,-86.0,-110.0,-88.0,-110.0,-110.0,-110.0,-110.0,-110.0,-110.0,-110.0,-110.0,-110.0,-82.0,-110.0,2437.0,-1.0,2417.0,2452.0,2462.0,-1.0,2427.0,2437.0,2422.0,2437.0,5220.0,5220.0,2462.0,-1.0,2437.0,-1.0,-1.0,-1.0,-1.0,-1.0,-1.0,-1.0,-1.0,-1.0,2462.0,-1.0,49.461282667648,11.111404024309,-2.0
1.4029,17019.6511,13.99693,-14.47579,-2.842,4.69752,1.50736,-5.2003,-14.5,21.0,-26.4,-110.0,-82.0,-110.0,-90.0,-110.0,-57.0,-84.0,-85.0,-110.0,-89.0,-78.0,-82.0,-74.0,-86.0,-88.0,-86.0,-110.0,-88.0,-110.0,-110.0,-110.0,-110.0,-110.0,-110.0,-110.0,-110.0,-110.0,-82.0,-110.0,2437.0,-1.0,2417.0,2452.0,2462.0,-1.0,2427.0,2437.0,2422.0,2437.0,5220.0,5220.0,2462.0,-1.0,2437.0,-1.0,-1.0,-1.0,-1.0,-1.0,-1.0,-1.0,-1.0,-1.0,2462.0,-1.0,49.461282667648,11.111404024309,-2.0
1.4268,17019.6711,14.72718,-14.54522,-2.59061,4.45195,0.99912,-6.03107,-15.7,16.8,-29.0,-110.0,-82.0,-110.0,-90.0,-110.0,-57.0,-84.0,-85.0,-110.0,-89.0,-78.0,-82.0,-74.0,-86.0,-88.0,-86.0,-110.0,-88.0,-110.0,-110.0,-110.0,-110.0,-110.0,-110.0,-110.0,-110.0,-110.0,-82.0,-110.0,2437.0,-1.0,2417.0,2452.0,2462.0,-1.0,2427.0,2437.0,2422.0,2437.0,5220.0,5220.0,2462.0,-1.0,2437.0,-1.0,-1.0,-1.0,-1.0,-1.0,-1.0,-1.0,-1.0,-1.0,2462.0,-1.0,49.461282667648,11.111404024309,-2.0
1.4412,17019.6911,14.65536,-14.41353,-2.19316,4.21432,0.75233,-6.4654,-17.7,12.1,-32.5,-110.0,-82.0,-110.0,-90.0,-110.0,-57.0,-84.0,-85.0,-110.0,-89.0,-78.0,-82.0,-74.0,-86.0,-88.0,-86.0,-110.0,-88.0,-110.0,-110.0,-110.0,-110.0,-110.0,-110.0,-110.0,-110.0,-110.0,-82.0,-110.0,2437.0,-1.0,2417.0,2452.0,2462.0,-1.0,2427.0,2437.0,2422.0,2437.0,5220.0,5220.0,2462.0,-1.0,2437.0,-1.0,-1.0,-1.0,-1.0,-1.0,-1.0,-1.0,-1.0,-1.0,2462.0,-1.0,49.461282667648,11.111404024309,-2.0
1.4585,17019.7111,13.70483,-14.66493,-2.57385,3.4709,0.86718,-6.79771,-20.5,5.8,-34.3,-110.0,-82.0,-110.0,-90.0,-110.0,-57.0,-84.0,-85.0,-110.0,-89.0,-78.0,-82.0,-74.0,-86.0,-88.0,-86.0,-110.0,-88.0,-110.0,-110.0,-110.0,-110.0,-110.0,-110.0,-110.0,-110.0,-110.0,-82.0,-110.0,2437.0,-1.0,2417.0,2452.0,2462.0,-1.0,2427.0,2437.0,2422.0,2437.0,5220.0,5220.0,2462.0,-1.0,2437.0,-1.0,-1.0,-1.0,-1.0,-1.0,-1.0,-1.0,-1.0,-1.0,2462.0,-1.0,49.461282667648,11.111404024309,-2.0
1.48,17019.7311,11.56674,-13.83412,-2.81088,2.32614,1.42795,-6.68348,-20.5,1.8,-35.0,-110.0,-79.0,-110.0,-90.0,-110.0,-57.0,-84.0,-85.0,-110.0,-89.0,-78.0,-82.0,-74.0,-86.0,-88.0,-86.0,-110.0,-88.0,-110.0,-110.0,-110.0,-110.0,-110.0,-110.0,-110.0,-110.0,-110.0,-82.0,-110.0,2437.0,-1.0,2417.0,2452.0,2462.0,-1.0,2427.0,2437.0,2422.0,2437.0,5220.0,5220.0,2462.0,-1.0,2437.0,-1.0,-1.0,-1.0,-1.0,-1.0,-1.0,-1.0,-1.0,-1.0,2462.0,-1.0,49.461282667648,11.111404024309,-2.0
1.5063,17019.7511,10.01765,-11.98574,-1.80049,1.82401,1.3913,-6.07872,-20.8,-2.1,-36.3,-110.0,-79.0,-110.0,-90.0,-110.0,-57.0,-84.0,-85.0,-110.0,-89.0,-78.0,-82.0,-74.0,-86.0,-88.0,-86.0,-110.0,-88.0,-110.0,-110.0,-110.0,-110.0,-110.0,-110.0,-110.0,-110.0,-110.0,-82.0,-110.0,2437.0,-1.0,2417.0,2452.0,2462.0,-1.0,2427.0,2437.0,2422.0,2437.0,5220.0,5220.0,2462.0,-1.0,2437.0,-1.0,-1.0,-1.0,-1.0,-1.0,-1.0,-1.0,-1.0,-1.0,2462.0,-1.0,49.461282667648,11.111404024309,-2.0
1.5206,17019.7711,9.42626,-9.95779,-1.05827,1.68107,0.40292,-5.75191,-22.2,-5.5,-38.6,-110.0,-79.0,-110.0,-90.0,-110.0,-57.0,-84.0,-85.0,-110.0,-89.0,-78.0,-82.0,-74.0,-86.0,-88.0,-86.0,-110.0,-88.0,-110.0,-110.0,-110.0,-110.0,-110.0,-110.0,-110.0,-110.0,-110.0,-82.0,-110.0,2437.0,-1.0,2417.0,2452.0,2462.0,-1.0,2427.0,2437.0,2422.0,2437.0,5220.0,5220.0,2462.0,-1.0,2437.0,-1.0,-1.0,-1.0,-1.0,-1.0,-1.0,-1.0,-1.0,-1.0,2462.0,-1.0,49.461282667648,11.111404024309,-2.0
1.5416,17019.7911,9.52443,-8.23152,-0.45252,1.41778,-0.32035,-5.7067,-21.3,-8.1,-39.3,-110.0,-79.0,-110.0,-90.0,-110.0,-57.0,-84.0,-85.0,-110.0,-89.0,-78.0,-82.0,-74.0,-86.0,-88.0,-86.0,-110.0,-88.0,-110.0,-110.0,-110.0,-110.0,-110.0,-110.0,-110.0,-110.0,-110.0,-82.0,-110.0,2437.0,-1.0,2417.0,2452.0,2462.0,-1.0,2427.0,2437.0,2422.0,2437.0,5220.0,5220.0,2462.0,-1.0,2437.0,-1.0,-1.0,-1.0,-1.0,-1.0,-1.0,-1.0,-1.0,-1.0,2462.0,-1.0,49.461282667648,11.111404024309,-2.0
1.5615,17019.8111,9.7423,-7.07508,-0.18436,0.88205,-0.08089,-5.69937,-20.0,-11.3,-38.6,-110.0,-79.0,-110.0,-90.0,-110.0,-57.0,-84.0,-85.0,-110.0,-89.0,-78.0,-82.0,-74.0,-86.0,-88.0,-86.0,-110.0,-88.0,-110.0,-110.0,-110.0,-110.0,-110.0,-110.0,-110.0,-110.0,-110.0,-82.0,-110.0,2437.0,-1.0,2417.0,2452.0,2462.0,-1.0,2427.0,2437.0,2422.0,2437.0,5220.0,5220.0,2462.0,-1.0,2437.0,-1.0,-1.0,-1.0,-1.0,-1.0,-1.0,-1.0,-1.0,-1.0,2462.0,-1.0,49.461282667648,11.111404024309,-2.0
1.5953,17019.8311,9.63217,-5.95935,0.65603,0.2266,1.07609,-5.76474,-19.7,-13.9,-38.0,-110.0,-79.0,-110.0,-90.0,-110.0,-57.0,-84.0,-85.0,-110.0,-89.0,-78.0,-82.0,-74.0,-86.0,-88.0,-86.0,-110.0,-88.0,-110.0,-110.0,-110.0,-110.0,-110.0,-110.0,-110.0,-110.0,-110.0,-82.0,-110.0,2437.0,-1.0,2417.0,2452.0,2462.0,-1.0,2427.0,2437.0,2422.0,2437.0,5220.0,5220.0,2462.0,-1.0,2437.0,-1.0,-1.0,-1.0,-1.0,-1.0,-1.0,-1.0,-1.0,-1.0,2462.0,-1.0,49.461282667648,11.111404024309,-2.0
1.6021,17019.8511,9.44302,-4.56109,1.85317,0.2046,1.66069,-5.89302,-17.2,-15.6,-41.4,-110.0,-79.0,-110.0,-90.0,-110.0,-57.0,-84.0,-85.0,-110.0,-89.0,-78.0,-82.0,-74.0,-86.0,-88.0,-86.0,-110.0,-88.0,-110.0,-110.0,-110.0,-110.0,-110.0,-110.0,-110.0,-110.0,-110.0,-82.0,-110.0,2437.0,-1.0,2417.0,2452.0,2462.0,-1.0,2427.0,2437.0,2422.0,2437.0,5220.0,5220.0,2462.0,-1.0,2437.0,-1.0,-1.0,-1.0,-1.0,-1.0,-1.0,-1.0,-1.0,-1.0,2462.0,-1.0,49.461282667648,11.111404024309,-2.0
1.6251,17019.8711,8.83727,-3.10777,1.86275,0.452,1.05043,-6.06162,-13.4,-18.1,-39.5,-110.0,-79.0,-110.0,-90.0,-110.0,-57.0,-84.0,-85.0,-110.0,-89.0,-78.0,-82.0,-74.0,-86.0,-88.0,-86.0,-110.0,-88.0,-110.0,-110.0,-110.0,-110.0,-110.0,-110.0,-110.0,-110.0,-110.0,-82.0,-110.0,2437.0,-1.0,2417.0,2452.0,2462.0,-1.0,2427.0,2437.0,2422.0,2437.0,5220.0,5220.0,2462.0,-1.0,2437.0,-1.0,-1.0,-1.0,-1.0,-1.0,-1.0,-1.0,-1.0,-1.0,2462.0,-1.0,49.461282667648,11.111404024309,-2.0
1.6394,17019.8911,7.88195,-2.11414,0.76138,0.10503,0.19889,-5.94616,-12.7,-19.7,-41.4,-110.0,-79.0,-110.0,-90.0,-110.0,-57.0,-84.0,-85.0,-110.0,-89.0,-78.0,-82.0,-74.0,-86.0,-88.0,-86.0,-110.0,-88.0,-110.0,-110.0,-110.0,-110.0,-110.0,-110.0,-110.0,-110.0,-110.0,-82.0,-110.0,2437.0,-1.0,2417.0,2452.0,2462.0,-1.0,2427.0,2437.0,2422.0,2437.0,5220.0,5220.0,2462.0,-1.0,2437.0,-1.0,-1.0,-1.0,-1.0,-1.0,-1.0,-1.0,-1.0,-1.0,2462.0,-1.0,49.461282667648,11.111404024309,-2.0
1.6595,17019.9111,7.25944,-1.38389,-0.14366,-0.93832,0.46034,-5.51734,-9.0,-18.9,-38.2,-110.0,-79.0,-110.0,-90.0,-110.0,-57.0,-84.0,-85.0,-110.0,-89.0,-78.0,-82.0,-74.0,-86.0,-88.0,-86.0,-110.0,-88.0,-110.0,-110.0,-110.0,-110.0,-110.0,-110.0,-110.0,-110.0,-110.0,-82.0,-110.0,2437.0,-1.0,2417.0,2452.0,2462.0,-1.0,2427.0,2437.0,2422.0,2437.0,5220.0,5220.0,2462.0,-1.0,2437.0,-1.0,-1.0,-1.0,-1.0,-1.0,-1.0,-1.0,-1.0,-1.0,2462.0,-1.0,49.461282667648,11.111404024309,-2.0
1.6909,17019.9311,6.941,-0.59139,-0.13887,-1.8082,1.26851,-5.64012,-7.9,-19.1,-41.0,-110.0,-79.0,-110.0,-90.0,-110.0,-57.0,-84.0,-85.0,-110.0,-89.0,-78.0,-82.0,-74.0,-86.0,-88.0,-86.0,-110.0,-88.0,-110.0,-110.0,-110.0,-110.0,-110.0,-110.0,-110.0,-110.0,-110.0,-82.0,-110.0,2437.0,-1.0,2417.0,2452.0,2462.0,-1.0,2427.0,2437.0,2422.0,2437.0,5220.0,5220.0,2462.0,-1.0,2437.0,-1.0,-1.0,-1.0,-1.0,-1.0,-1.0,-1.0,-1.0,-1.0,2462.0,-1.0,49.461282667648,11.111404024309,-2.0
1.7021,17019.9511,6.45975,-0.10774,0.50759,-2.3427,1.54401,-5.94922,-6.6,-18.6,-41.3,-110.0,-79.0,-110.0,-90.0,-110.0,-57.0,-84.0,-85.0,-110.0,-89.0,-78.0,-82.0,-74.0,-86.0,-88.0,-86.0,-110.0,-88.0,-110.0,-110.0,-110.0,-110.0,-110.0,-110.0,-110.0,-110.0,-110.0,-82.0,-110.0,2437.0,-1.0,2417.0,2452.0,2462.0,-1.0,2427.0,2437.0,2422.0,2437.0,5220.0,5220.0,2462.0,-1.0,2437.0,-1.0,-1.0,-1.0,-1.0,-1.0,-1.0,-1.0,-1.0,-1.0,2462.0,-1.0,49.461282667648,11.111404024309,-2.0
1.7246,17019.9711,5.83485,0.03831,1.26657,-2.37569,0.79754,-6.07139,-4.3,-16.3,-43.6,-110.0,-79.0,-110.0,-90.0,-110.0,-57.0,-84.0,-85.0,-110.0,-89.0,-78.0,-82.0,-74.0,-86.0,-88.0,-86.0,-110.0,-88.0,-110.0,-110.0,-110.0,-110.0,-110.0,-110.0,-110.0,-110.0,-110.0,-82.0,-110.0,2437.0,-1.0,2417.0,2452.0,2462.0,-1.0,2427.0,2437.0,2422.0,2437.0,5220.0,5220.0,2462.0,-1.0,2437.0,-1.0,-1.0,-1.0,-1.0,-1.0,-1.0,-1.0,-1.0,-1.0,2462.0,-1.0,49.461282667648,11.111404024309,-2.0
1.7468,17019.9911,5.30571,0.03591,1.0894,-2.56811,0.56174,-6.11476,-2.4,-15.2,-41.8,-110.0,-79.0,-110.0,-90.0,-110.0,-57.0,-84.0,-85.0,-110.0,-89.0,-78.0,-82.0,-74.0,-86.0,-88.0,-86.0,-110.0,-88.0,-110.0,-110.0,-110.0,-110.0,-110.0,-110.0,-110.0,-110.0,-110.0,-82.0,-110.0,2437.0,-1.0,2417.0,2452.0,2462.0,-1.0,2427.0,2437.0,2422.0,2437.0,5220.0,5220.0,2462.0,-1.0,2437.0,-1.0,-1.0,-1.0,-1.0,-1.0,-1.0,-1.0,-1.0,-1.0,2462.0,-1.0,49.461282667648,11.111404024309,-2.0
1.7668,17020.0111,4.2666,-0.43576,0.51477,-3.18692,0.88367,-5.83071,-1.8,-13.3,-42.1,-110.0,-79.0,-110.0,-90.0,-110.0,-57.0,-84.0,-85.0,-110.0,-89.0,-78.0,-82.0,-74.0,-86.0,-88.0,-86.0,-110.0,-88.0,-110.0,-110.0,-110.0,-110.0,-110.0,-110.0,-110.0,-110.0,-110.0,-82.0,-110.0,2437.0,-1.0,2417.0,2452.0,2462.0,-1.0,2427.0,2437.0,2422.0,2437.0,5220.0,5220.0,2462.0,-1.0,2437.0,-1.0,-1.0,-1.0,-1.0,-1.0,-1.0,-1.0,-1.0,-1.0,2462.0,-1.0,49.461282667648,11.111404024309,-2.0
1.7919,17020.0311,3.10298,-1.59698,-0.03591,-4.12215,1.94963,-5.26444,0.7,-9.9,-43.5,-110.0,-79.0,-110.0,-90.0,-110.0,-57.0,-84.0,-85.0,-110.0,-89.0,-78.0,-82.0,-74.0,-86.0,-88.0,-86.0,-110.0,-88.0,-110.0,-110.0,-110.0,-110.0,-110.0,-110.0,-110.0,-110.0,-110.0,-82.0,-110.0,2437.0,-1.0,2417.0,2452.0,2462.0,-1.0,2427.0,2437.0,2422.0,2437.0,5220.0,5220.0,2462.0,-1.0,2437.0,-1.0,-1.0,-1.0,-1.0,-1.0,-1.0,-1.0,-1.0,-1.0,2462.0,-1.0,49.461282667648,11.111404024309,-2.0
1.8042,17020.0512,2.56666,-2.10696,0.77335,-4.92422,2.35708,-5.51672,1.1,-7.1,-45.6,-110.0,-79.0,-110.0,-90.0,-110.0,-57.0,-84.0,-85.0,-110.0,-89.0,-78.0,-82.0,-74.0,-86.0,-88.0,-86.0,-110.0,-88.0,-110.0,-110.0,-110.0,-110.0,-110.0,-110.0,-110.0,-110.0,-110.0,-82.0,-110.0,2437.0,-1.0,2417.0,2452.0,2462.0,-1.0,2427.0,2437.0,2422.0,2437.0,5220.0,5220.0,2462.0,-1.0,2437.0,-1.0,-1.0,-1.0,-1.0,-1.0,-1.0,-1.0,-1.0,-1.0,2462.0,-1.0,49.461282667648,11.111404024309,-2.0
1.8208,17020.0712,2.34878,-2.49962,2.52117,-4.82526,1.80302,-6.0946,3.8,-1.9,-42.8,-110.0,-79.0,-110.0,-90.0,-110.0,-57.0,-84.0,-85.0,-110.0,-89.0,-78.0,-82.0,-74.0,-86.0,-88.0,-86.0,-110.0,-88.0,-110.0,-110.0,-110.0,-110.0,-110.0,-110.0,-110.0,-110.0,-110.0,-82.0,-110.0,2437.0,-1.0,2417.0,2452.0,2462.0,-1.0,2427.0,2437.0,2422.0,2437.0,5220.0,5220.0,2462.0,-1.0,2437.0,-1.0,-1.0,-1.0,-1.0,-1.0,-1.0,-1.0,-1.0,-1.0,2462.0,-1.0,49.461282667648,11.111404024309,-2.0
1.8419,17020.0912,1.23545,-3.28495,3.24903,-4.37811,0.96491,-6.29375,5.2,2.2,-43.4,-110.0,-79.0,-110.0,-90.0,-110.0,-57.0,-84.0,-85.0,-110.0,-89.0,-78.0,-82.0,-74.0,-86.0,-88.0,-86.0,-110.0,-88.0,-110.0,-110.0,-110.0,-110.0,-110.0,-110.0,-110.0,-110.0,-110.0,-82.0,-110.0,2437.0,-1.0,2417.0,2452.0,2462.0,-1.0,2427.0,2437.0,2422.0,2437.0,5220.0,5220.0,2462.0,-1.0,2437.0,-1.0,-1.0,-1.0,-1.0,-1.0,-1.0,-1.0,-1.0,-1.0,2462.0,-1.0,49.461282667648,11.111404024309,-2.0
1.8661,17020.1112,0.56984,-4.30012,3.44057,-4.5125,0.16896,-6.03718,3.4,7.4,-44.4,-110.0,-79.0,-110.0,-90.0,-110.0,-57.0,-84.0,-85.0,-110.0,-89.0,-78.0,-82.0,-74.0,-86.0,-88.0,-86.0,-110.0,-88.0,-110.0,-110.0,-110.0,-110.0,-110.0,-110.0,-110.0,-110.0,-110.0,-82.0,-110.0,2437.0,-1.0,2417.0,2452.0,2462.0,-1.0,2427.0,2437.0,2422.0,2437.0,5220.0,5220.0,2462.0,-1.0,2437.0,-1.0,-1.0,-1.0,-1.0,-1.0,-1.0,-1.0,-1.0,-1.0,2462.0,-1.0,49.461282667648,11.111404024309,-2.0
1.8842,17020.1313,-0.73025,-4.88193,4.35519,-4.79777,-0.38204,-5.67249,2.3,13.0,-40.2,-110.0,-79.0,-110.0,-90.0,-110.0,-57.0,-84.0,-85.0,-110.0,-89.0,-78.0,-82.0,-74.0,-86.0,-88.0,-86.0,-110.0,-88.0,-110.0,-110.0,-110.0,-110.0,-110.0,-110.0,-110.0,-110.0,-110.0,-82.0,-110.0,2437.0,-1.0,2417.0,2452.0,2462.0,-1.0,2427.0,2437.0,2422.0,2437.0,5220.0,5220.0,2462.0,-1.0,2437.0,-1.0,-1.0,-1.0,-1.0,-1.0,-1.0,-1.0,-1.0,-1.0,2462.0,-1.0,49.461282667648,11.111404024309,-2.0
1.9082,17020.1513,-1.45572,-4.72151,6.79974,-4.73363,-1.11325,-4.90769,5.2,16.4,-35.6,-110.0,-79.0,-110.0,-90.0,-110.0,-57.0,-84.0,-85.0,-110.0,-89.0,-78.0,-82.0,-74.0,-86.0,-88.0,-86.0,-110.0,-88.0,-110.0,-110.0,-110.0,-110.0,-110.0,-110.0,-110.0,-110.0,-110.0,-82.0,-110.0,2437.0,-1.0,2417.0,2452.0,2462.0,-1.0,2427.0,2437.0,2422.0,2437.0,5220.0,5220.0,2462.0,-1.0,2437.0,-1.0,-1.0,-1.0,-1.0,-1.0,-1.0,-1.0,-1.0,-1.0,2462.0,-1.0,49.461282667648,11.111404024309,-2.0
1.9261,17020.1713,-1.69515,-4.38392,9.79498,-3.76541,-1.23909,-4.48558,-1.1,21.3,-38.5,-110.0,-79.0,-110.0,-90.0,-110.0,-57.0,-84.0,-85.0,-110.0,-89.0,-78.0,-82.0,-74.0,-86.0,-88.0,-86.0,-110.0,-88.0,-110.0,-110.0,-110.0,-110.0,-110.0,-110.0,-110.0,-110.0,-110.0,-82.0,-110.0,2437.0,-1.0,2417.0,2452.0,2462.0,-1.0,2427.0,2437.0,2422.0,2437.0,5220.0,5220.0,2462.0,-1.0,2437.0,-1.0,-1.0,-1.0,-1.0,-1.0,-1.0,-1.0,-1.0,-1.0,2462.0,-1.0,49.461282667648,11.111404024309,-2.0
1.9433,17020.1914,-1.4222,-4.09421,11.43506,-2.50458,-1.92265,-3.91626,-0.5,20.8,-35.4,-110.0,-79.0,-110.0,-90.0,-110.0,-57.0,-84.0,-85.0,-110.0,-89.0,-78.0,-82.0,-74.0,-86.0,-88.0,-86.0,-110.0,-88.0,-110.0,-110.0,-110.0,-110.0,-110.0,-110.0,-110.0,-110.0,-110.0,-82.0,-110.0,2437.0,-1.0,2417.0,2452.0,2462.0,-1.0,2427.0,2437.0,2422.0,2437.0,5220.0,5220.0,2462.0,-1.0,2437.0,-1.0,-1.0,-1.0,-1.0,-1.0,-1.0,-1.0,-1.0,-1.0,2462.0,-1.0,49.461282667648,11.111404024309,-2.0
1.9651,17020.2114,-0.73744,-4.08942,11.15014,-1.53209,-2.68989,-3.75438,-2.0,22.6,-31.7,-110.0,-79.0,-110.0,-90.0,-110.0,-57.0,-84.0,-85.0,-110.0,-89.0,-78.0,-82.0,-74.0,-86.0,-88.0,-86.0,-110.0,-88.0,-110.0,-110.0,-110.0,-110.0,-110.0,-110.0,-110.0,-110.0,-110.0,-82.0,-110.0,2437.0,-1.0,2417.0,2452.0,2462.0,-1.0,2427.0,2437.0,2422.0,2437.0,5220.0,5220.0,2462.0,-1.0,2437.0,-1.0,-1.0,-1.0,-1.0,-1.0,-1.0,-1.0,-1.0,-1.0,2462.0,-1.0,49.461282667648,11.111404024309,-2.0
1.9884,17020.2314,-0.28013,-4.38392,10.42707,-1.76788,-2.99655,-3.88694,-5.4,22.6,-31.7,-110.0,-79.0,-110.0,-90.0,-110.0,-57.0,-84.0,-85.0,-110.0,-89.0,-78.0,-82.0,-74.0,-86.0,-88.0,-86.0,-110.0,-88.0,-110.0,-110.0,-110.0,-110.0,-110.0,-110.0,-110.0,-110.0,-110.0,-82.0,-110.0,2437.0,-1.0,2417.0,2452.0,2462.0,-1.0,2427.0,2437.0,2422.0,2437.0,5220.0,5220.0,2462.0,-1.0,2437.0,-1.0,-1.0,-1.0,-1.0,-1.0,-1.0,-1.0,-1.0,-1.0,2462.0,-1.0,49.461282667648,11.111404024309,-2.0
2.0012,17020.2514,0.03831,-5.0591,11.30337,-2.74465,-1.47671,-3.42818,-8.7,24.0,-29.0,-110.0,-79.0,-110.0,-90.0,-110.0,-57.0,-84.0,-85.0,-110.0,-89.0,-78.0,-82.0,-74.0,-86.0,-88.0,-86.0,-110.0,-88.0,-110.0,-110.0,-110.0,-110.0,-110.0,-110.0,-110.0,-110.0,-110.0,-82.0,-110.0,2437.0,-1.0,2417.0,2452.0,2462.0,-1.0,2427.0,2437.0,2422.0,2437.0,5220.0,5220.0,2462.0,-1.0,2437.0,-1.0,-1.0,-1.0,-1.0,-1.0,-1.0,-1.0,-1.0,-1.0,2462.0,-1.0,49.461282667648,11.111404024309,-2.0
2.0215,17020.2715,0.18436,-5.3967,13.24513,-1.88028,-1.19388,-3.26935,-9.5,24.9,-25.6,-110.0,-79.0,-110.0,-90.0,-110.0,-57.0,-84.0,-85.0,-110.0,-89.0,-78.0,-82.0,-74.0,-86.0,-88.0,-86.0,-110.0,-88.0,-110.0,-110.0,-110.0,-110.0,-110.0,-110.0,-110.0,-110.0,-110.0,-82.0,-110.0,2437.0,-1.0,2417.0,2452.0,2462.0,-1.0,2427.0,2437.0,2422.0,2437.0,5220.0,5220.0,2462.0,-1.0,2437.0,-1.0,-1.0,-1.0,-1.0,-1.0,-1.0,-1.0,-1.0,-1.0,2462.0,-1.0,49.461282667648,11.111404024309,-2.0
2.1051,17020.2915,1.32164,-5.63852,13.10626,-0.80699,-1.62393,-3.13985,-13.8,24.2,-25.7,-110.0,-79.0,-110.0,-90.0,-110.0,-57.0,-84.0,-85.0,-110.0,-89.0,-78.0,-82.0,-74.0,-86.0,-88.0,-86.0,-110.0,-88.0,-110.0,-110.0,-110.0,-110.0,-110.0,-110.0,-110.0,-110.0,-110.0,-82.0,-110.0,2437.0,-1.0,2417.0,2452.0,2462.0,-1.0,2427.0,2437.0,2422.0,2437.0,5220.0,5220.0,2462.0,-1.0,2437.0,-1.0,-1.0,-1.0,-1.0,-1.0,-1.0,-1.0,-1.0,-1.0,2462.0,-1.0,49.461282667648,11.111404024309,-2.0
2.1079,17020.3115,2.86595,-5.95935,11.86124,-1.23093,-1.94342,-3.7049,-17.2,24.4,-25.1,-110.0,-79.0,-110.0,-90.0,-110.0,-57.0,-84.0,-85.0,-110.0,-89.0,-78.0,-82.0,-74.0,-86.0,-88.0,-86.0,-110.0,-88.0,-110.0,-110.0,-110.0,-110.0,-110.0,-110.0,-110.0,-110.0,-110.0,-82.0,-110.0,2437.0,-1.0,2417.0,2452.0,2462.0,-1.0,2427.0,2437.0,2422.0,2437.0,5220.0,5220.0,2462.0,-1.0,2437.0,-1.0,-1.0,-1.0,-1.0,-1.0,-1.0,-1.0,-1.0,-1.0,2462.0,-1.0,49.461282667648,11.111404024309,-2.0
2.1163,17020.3316,2.32963,-6.55792,12.22038,-1.62799,-1.47733,-3.96574,-18.6,23.7,-24.8,-110.0,-79.0,-110.0,-90.0,-110.0,-57.0,-84.0,-85.0,-110.0,-89.0,-78.0,-82.0,-74.0,-86.0,-88.0,-86.0,-110.0,-88.0,-110.0,-110.0,-110.0,-110.0,-110.0,-110.0,-110.0,-110.0,-110.0,-82.0,-110.0,2437.0,-1.0,2417.0,2452.0,2462.0,-1.0,2427.0,2437.0,2422.0,2437.0,5220.0,5220.0,2462.0,-1.0,2437.0,-1.0,-1.0,-1.0,-1.0,-1.0,-1.0,-1.0,-1.0,-1.0,2462.0,-1.0,49.461282667648,11.111404024309,-2.0
2.1175,17020.3516,1.64487,-7.13733,13.37202,-1.27369,-0.72413,-3.32494,-21.5,22.9,-22.7,-110.0,-79.0,-110.0,-90.0,-110.0,-57.0,-84.0,-85.0,-110.0,-89.0,-78.0,-82.0,-74.0,-86.0,-88.0,-86.0,-110.0,-88.0,-110.0,-110.0,-110.0,-110.0,-110.0,-110.0,-110.0,-110.0,-110.0,-82.0,-110.0,2437.0,-1.0,2417.0,2452.0,2462.0,-1.0,2427.0,2437.0,2422.0,2437.0,5220.0,5220.0,2462.0,-1.0,2437.0,-1.0,-1.0,-1.0,-1.0,-1.0,-1.0,-1.0,-1.0,-1.0,2462.0,-1.0,49.461282667648,11.111404024309,-2.0
2.1216,17020.3716,2.47568,-7.20437,13.85806,-0.3806,-0.77544,-3.21621,-26.6,21.5,-25.2,-110.0,-79.0,-110.0,-90.0,-110.0,-57.0,-84.0,-85.0,-110.0,-89.0,-78.0,-82.0,-74.0,-86.0,-88.0,-86.0,-110.0,-88.0,-110.0,-110.0,-110.0,-110.0,-110.0,-110.0,-110.0,-110.0,-110.0,-82.0,-110.0,2437.0,-1.0,2417.0,2452.0,2462.0,-1.0,2427.0,2437.0,2422.0,2437.0,5220.0,5220.0,2462.0,-1.0,2437.0,-1.0,-1.0,-1.0,-1.0,-1.0,-1.0,-1.0,-1.0,-1.0,2462.0,-1.0,49.461282667648,11.111404024309,-2.0
2.14,17020.3916,3.58184,-6.91945,13.2164,0.39031,-1.87866,-3.79103,-28.1,20.5,-23.1,-110.0,-79.0,-110.0,-90.0,-110.0,-57.0,-84.0,-85.0,-110.0,-89.0,-78.0,-82.0,-74.0,-86.0,-88.0,-86.0,-110.0,-88.0,-110.0,-110.0,-110.0,-110.0,-110.0,-110.0,-110.0,-110.0,-110.0,-82.0,-110.0,2437.0,-1.0,2417.0,2452.0,2462.0,-1.0,2427.0,2437.0,2422.0,2437.0,5220.0,5220.0,2462.0,-1.0,2437.0,-1.0,-1.0,-1.0,-1.0,-1.0,-1.0,-1.0,-1.0,-1.0,2462.0,-1.0,49.461282667648,11.111404024309,-2.0
2.1621,17020.4117,3.91225,-6.54834,12.52924,0.32006,-1.6893,-4.06958,-30.1,18.0,-20.6,-110.0,-79.0,-110.0,-90.0,-110.0,-57.0,-84.0,-85.0,-110.0,-89.0,-78.0,-82.0,-74.0,-86.0,-88.0,-86.0,-110.0,-88.0,-110.0,-110.0,-110.0,-110.0,-110.0,-110.0,-110.0,-110.0,-110.0,-82.0,-110.0,2437.0,-1.0,2417.0,2452.0,2462.0,-1.0,2427.0,2437.0,2422.0,2437.0,5220.0,5220.0,2462.0,-1.0,2437.0,-1.0,-1.0,-1.0,-1.0,-1.0,-1.0,-1.0,-1.0,-1.0,2462.0,-1.0,49.461282667648,11.111404024309,-2.0
2.1855,17020.4317,3.70873,-6.54595,12.90275,0.14535,-0.76384,-3.6432,-31.7,15.6,-22.1,-110.0,-79.0,-110.0,-90.0,-110.0,-57.0,-84.0,-85.0,-110.0,-89.0,-78.0,-82.0,-74.0,-86.0,-88.0,-86.0,-110.0,-88.0,-110.0,-110.0,-110.0,-110.0,-110.0,-110.0,-110.0,-110.0,-110.0,-82.0,-110.0,2437.0,-1.0,2417.0,2452.0,2462.0,-1.0,2427.0,2437.0,2422.0,2437.0,5220.0,5220.0,2462.0,-1.0,2437.0,-1.0,-1.0,-1.0,-1.0,-1.0,-1.0,-1.0,-1.0,-1.0,2462.0,-1.0,49.461282667648,11.111404024309,-2.0
2.2023,17020.4517,4.68799,-6.1485,14.28664,0.81486,-0.77972,-3.41718,-33.1,13.2,-19.6,-110.0,-73.0,-110.0,-90.0,-110.0,-57.0,-84.0,-85.0,-110.0,-89.0,-78.0,-82.0,-74.0,-86.0,-88.0,-86.0,-110.0,-88.0,-110.0,-110.0,-110.0,-110.0,-110.0,-110.0,-110.0,-110.0,-110.0,-82.0,-110.0,2437.0,-1.0,2417.0,2452.0,2462.0,-1.0,2427.0,2437.0,2422.0,2437.0,5220.0,5220.0,2462.0,-1.0,2437.0,-1.0,-1.0,-1.0,-1.0,-1.0,-1.0,-1.0,-1.0,-1.0,2462.0,-1.0,49.461282667648,11.111404024309,-2.0
2.2321,17020.4718,6.79016,-5.55951,15.45026,2.22901,-1.65753,-3.75499,-34.0,10.2,-21.7,-110.0,-73.0,-110.0,-90.0,-110.0,-57.0,-84.0,-85.0,-110.0,-89.0,-78.0,-82.0,-74.0,-86.0,-88.0,-86.0,-110.0,-88.0,-110.0,-110.0,-110.0,-110.0,-110.0,-110.0,-110.0,-110.0,-110.0,-82.0,-110.0,2437.0,-1.0,2417.0,2452.0,2462.0,-1.0,2427.0,2437.0,2422.0,2437.0,5220.0,5220.0,2462.0,-1.0,2437.0,-1.0,-1.0,-1.0,-1.0,-1.0,-1.0,-1.0,-1.0,-1.0,2462.0,-1.0,49.461282667648,11.111404024309,-2.0
2.2487,17020.4918,7.95618,-6.24666,16.09192,3.03535,-2.5439,-4.47092,-34.7,5.9,-21.9,-110.0,-73.0,-110.0,-90.0,-110.0,-57.0,-84.0,-85.0,-110.0,-89.0,-78.0,-82.0,-74.0,-86.0,-88.0,-86.0,-110.0,-88.0,-110.0,-110.0,-110.0,-110.0,-110.0,-110.0,-110.0,-110.0,-110.0,-82.0,-110.0,2437.0,-1.0,2417.0,2452.0,2462.0,-1.0,2427.0,2437.0,2422.0,2437.0,5220.0,5220.0,2462.0,-1.0,2437.0,-1.0,-1.0,-1.0,-1.0,-1.0,-1.0,-1.0,-1.0,-1.0,2462.0,-1.0,49.461282667648,11.111404024309,-2.0
2.2627,17020.5118,6.7734,-6.80213,15.94826,2.76474,-1.60805,-4.40923,-36.4,2.6,-20.4,-110.0,-73.0,-110.0,-90.0,-110.0,-57.0,-84.0,-85.0,-110.0,-89.0,-78.0,-82.0,-74.0,-86.0,-88.0,-86.0,-110.0,-88.0,-110.0,-110.0,-110.0,-110.0,-110.0,-110.0,-110.0,-110.0,-110.0,-82.0,-110.0,2437.0,-1.0,2417.0,2452.0,2462.0,-1.0,2427.0,2437.0,2422.0,2437.0,5220.0,5220.0,2462.0,-1.0,2437.0,-1.0,-1.0,-1.0,-1.0,-1.0,-1.0,-1.0,-1.0,-1.0,2462.0,-1.0,49.461282667648,11.111404024309,-2.0
2.2952,17020.5318,6.10301,-6.33765,16.28107,2.66639,-0.67954,-3.79286,-36.9,-1.5,-17.9,-110.0,-73.0,-110.0,-90.0,-110.0,-57.0,-84.0,-85.0,-110.0,-89.0,-78.0,-82.0,-74.0,-86.0,-88.0,-86.0,-110.0,-88.0,-110.0,-110.0,-110.0,-110.0,-110.0,-110.0,-110.0,-110.0,-110.0,-82.0,-110.0,2437.0,-1.0,2417.0,2452.0,2462.0,-1.0,2427.0,2437.0,2422.0,2437.0,5220.0,5220.0,2462.0,-1.0,2437.0,-1.0,-1.0,-1.0,-1.0,-1.0,-1.0,-1.0,-1.0,-1.0,2462.0,-1.0,49.461282667648,11.111404024309,-2.0
2.3091,17020.5519,5.94259,-5.70795,15.95784,3.13126,-0.74001,-3.52042,-36.1,-5.1,-18.4,-110.0,-73.0,-110.0,-90.0,-110.0,-57.0,-84.0,-85.0,-110.0,-89.0,-78.0,-82.0,-74.0,-86.0,-88.0,-86.0,-110.0,-88.0,-110.0,-110.0,-110.0,-110.0,-110.0,-110.0,-110.0,-110.0,-110.0,-82.0,-110.0,2437.0,-1.0,2417.0,2452.0,2462.0,-1.0,2427.0,2437.0,2422.0,2437.0,5220.0,5220.0,2462.0,-1.0,2437.0,-1.0,-1.0,-1.0,-1.0,-1.0,-1.0,-1.0,-1.0,-1.0,2462.0,-1.0,49.461282667648,11.111404024309,-2.0
2.3265,17020.5719,5.8947,-4.84841,15.95545,3.2125,-1.55185,-3.62915,-36.2,-8.5,-16.2,-110.0,-73.0,-110.0,-90.0,-110.0,-57.0,-84.0,-85.0,-110.0,-89.0,-78.0,-82.0,-74.0,-86.0,-88.0,-86.0,-110.0,-88.0,-110.0,-110.0,-110.0,-110.0,-110.0,-110.0,-110.0,-110.0,-110.0,-82.0,-110.0,2437.0,-1.0,2417.0,2452.0,2462.0,-1.0,2427.0,2437.0,2422.0,2437.0,5220.0,5220.0,2462.0,-1.0,2437.0,-1.0,-1.0,-1.0,-1.0,-1.0,-1.0,-1.0,-1.0,-1.0,2462.0,-1.0,49.461282667648,11.111404024309,-2.0
2.3563,17020.5919,4.99446,-4.09421,17.35849,3.83375,-2.69845,-3.73911,-36.4,-11.4,-14.4,-110.0,-73.0,-110.0,-90.0,-110.0,-57.0,-84.0,-85.0,-110.0,-89.0,-78.0,-82.0,-74.0,-86.0,-88.0,-86.0,-110.0,-88.0,-110.0,-110.0,-110.0,-110.0,-110.0,-110.0,-110.0,-110.0,-110.0,-82.0,-110.0,2437.0,-1.0,2417.0,2452.0,2462.0,-1.0,2427.0,2437.0,2422.0,2437.0,5220.0,5220.0,2462.0,-1.0,2437.0,-1.0,-1.0,-1.0,-1.0,-1.0,-1.0,-1.0,-1.0,-1.0,2462.0,-1.0,49.461282667648,11.111404024309,-2.0
2.3754,17020.6119,4.54194,-3.42381,17.30582,5.11169,-3.31175,-3.5137,-35.6,-14.7,-10.6,-110.0,-73.0,-110.0,-110.0,-110.0,-110.0,-110.0,-84.0,-110.0,-82.0,-79.0,-86.0,-74.0,-91.0,-89.0,-110.0,-110.0,-89.0,-110.0,-110.0,-110.0,-110.0,-91.0,-110.0,-110.0,-110.0,-110.0,-86.0,-110.0,-1.0,-1.0,-1.0,-1.0,2462.0,-1.0,2427.0,2437.0,2422.0,2437.0,5220.0,5220.0,-1.0,-1.0,2437.0,-1.0,-1.0,-1.0,-1.0,2462.0,-1.0,-1.0,-1.0,-1.0,2462.0,-1.0,49.461282667648,11.111404024309,-2.0
2.3894,17020.6319,3.46691,-2.75342,15.16294,4.81847,-2.40279,-3.22537,-35.0,-18.1,-10.2,-110.0,-73.0,-110.0,-110.0,-110.0,-110.0,-110.0,-84.0,-110.0,-82.0,-79.0,-86.0,-74.0,-91.0,-89.0,-110.0,-110.0,-89.0,-110.0,-110.0,-110.0,-110.0,-91.0,-110.0,-110.0,-110.0,-110.0,-86.0,-110.0,-1.0,-1.0,-1.0,-1.0,2462.0,-1.0,2427.0,2437.0,2422.0,2437.0,5220.0,5220.0,-1.0,-1.0,2437.0,-1.0,-1.0,-1.0,-1.0,2462.0,-1.0,-1.0,-1.0,-1.0,2462.0,-1.0,49.461282667648,11.111404024309,-2.0
2.4039,17020.6519,3.06946,-1.89148,13.07513,4.41591,-1.9312,-2.97797,-34.1,-21.6,-4.9,-110.0,-73.0,-110.0,-110.0,-110.0,-110.0,-110.0,-84.0,-110.0,-82.0,-79.0,-86.0,-74.0,-91.0,-89.0,-110.0,-110.0,-89.0,-110.0,-110.0,-110.0,-110.0,-91.0,-110.0,-110.0,-110.0,-110.0,-86.0,-110.0,-1.0,-1.0,-1.0,-1.0,2462.0,-1.0,2427.0,2437.0,2422.0,2437.0,5220.0,5220.0,-1.0,-1.0,2437.0,-1.0,-1.0,-1.0,-1.0,2462.0,-1.0,-1.0,-1.0,-1.0,2462.0,-1.0,49.461282667648,11.111404024309,-2.0
2.4199,17020.6719,2.22907,-0.92419,11.7918,4.34199,-2.53779,-2.67315,-33.7,-23.4,-1.4,-110.0,-73.0,-110.0,-110.0,-110.0,-110.0,-110.0,-84.0,-110.0,-82.0,-79.0,-86.0,-74.0,-91.0,-89.0,-110.0,-110.0,-89.0,-110.0,-110.0,-110.0,-110.0,-91.0,-110.0,-110.0,-110.0,-110.0,-86.0,-110.0,-1.0,-1.0,-1.0,-1.0,2462.0,-1.0,2427.0,2437.0,2422.0,2437.0,5220.0,5220.0,-1.0,-1.0,2437.0,-1.0,-1.0,-1.0,-1.0,2462.0,-1.0,-1.0,-1.0,-1.0,2462.0,-1.0,49.461282667648,11.111404024309,-2.0
2.4414,17020.6919,1.18995,0.07183,11.94025,4.7867,-3.34596,-2.13497,-32.3,-25.0,2.6,-110.0,-73.0,-110.0,-110.0,-110.0,-110.0,-110.0,-84.0,-110.0,-82.0,-79.0,-86.0,-74.0,-91.0,-89.0,-110.0,-110.0,-89.0,-110.0,-110.0,-110.0,-110.0,-91.0,-110.0,-110.0,-110.0,-110.0,-86.0,-110.0,-1.0,-1.0,-1.0,-1.0,2462.0,-1.0,2427.0,2437.0,2422.0,2437.0,5220.0,5220.0,-1.0,-1.0,2437.0,-1.0,-1.0,-1.0,-1.0,2462.0,-1.0,-1.0,-1.0,-1.0,2462.0,-1.0,49.461282667648,11.111404024309,-2.0
2.4619,17020.7119,0.64167,0.79969,11.96898,5.72194,-3.61169,-1.58581,-29.8,-24.9,6.1,-110.0,-73.0,-110.0,-110.0,-110.0,-110.0,-110.0,-84.0,-110.0,-82.0,-79.0,-86.0,-74.0,-91.0,-89.0,-110.0,-110.0,-89.0,-110.0,-110.0,-110.0,-110.0,-91.0,-110.0,-110.0,-110.0,-110.0,-86.0,-110.0,-1.0,-1.0,-1.0,-1.0,2462.0,-1.0,2427.0,2437.0,2422.0,2437.0,5220.0,5220.0,-1.0,-1.0,2437.0,-1.0,-1.0,-1.0,-1.0,2462.0,-1.0,-1.0,-1.0,-1.0,2462.0,-1.0,49.461282667648,11.111404024309,-2.0
2.4799,17020.7319,1.12531,1.24023,9.88357,5.995,-2.59277,-1.6078,-29.1,-24.9,11.5,-110.0,-73.0,-110.0,-110.0,-110.0,-110.0,-110.0,-84.0,-110.0,-82.0,-79.0,-86.0,-74.0,-91.0,-89.0,-110.0,-110.0,-89.0,-110.0,-110.0,-110.0,-110.0,-91.0,-110.0,-110.0,-110.0,-110.0,-86.0,-110.0,-1.0,-1.0,-1.0,-1.0,2462.0,-1.0,2427.0,2437.0,2422.0,2437.0,5220.0,5220.0,-1.0,-1.0,2437.0,-1.0,-1.0,-1.0,-1.0,2462.0,-1.0,-1.0,-1.0,-1.0,2462.0,-1.0,49.461282667648,11.111404024309,-2.0
2.5051,17020.7519,0.89546,1.3791,7.60182,5.43789,-1.67769,-1.48624,-22.3,-25.4,19.1,-110.0,-73.0,-110.0,-110.0,-110.0,-110.0,-110.0,-84.0,-110.0,-82.0,-79.0,-86.0,-74.0,-91.0,-89.0,-110.0,-110.0,-89.0,-110.0,-110.0,-110.0,-110.0,-91.0,-110.0,-110.0,-110.0,-110.0,-86.0,-110.0,-1.0,-1.0,-1.0,-1.0,2462.0,-1.0,2427.0,2437.0,2422.0,2437.0,5220.0,5220.0,-1.0,-1.0,2437.0,-1.0,-1.0,-1.0,-1.0,2462.0,-1.0,-1.0,-1.0,-1.0,2462.0,-1.0,49.461282667648,11.111404024309,-2.0
2.5271,17020.7719,-0.0838,1.53473,6.64411,5.5454,-3.16637,-0.87109,-21.2,-23.6,20.2,-110.0,-73.0,-110.0,-110.0,-110.0,-110.0,-110.0,-84.0,-110.0,-82.0,-79.0,-86.0,-74.0,-91.0,-89.0,-110.0,-110.0,-89.0,-110.0,-110.0,-110.0,-110.0,-91.0,-110.0,-110.0,-110.0,-110.0,-86.0,-110.0,-1.0,-1.0,-1.0,-1.0,2462.0,-1.0,2427.0,2437.0,2422.0,2437.0,5220.0,5220.0,-1.0,-1.0,2437.0,-1.0,-1.0,-1.0,-1.0,2462.0,-1.0,-1.0,-1.0,-1.0,2462.0,-1.0,49.461282667648,11.111404024309,-2.0
2.5403,17020.7919,-0.4621,1.7167,6.37356,6.20147,-4.61351,-0.41295,-23.5,-19.8,24.2,-110.0,-73.0,-110.0,-110.0,-110.0,-110.0,-110.0,-84.0,-110.0,-82.0,-79.0,-86.0,-74.0,-91.0,-89.0,-110.0,-110.0,-89.0,-110.0,-110.0,-110.0,-110.0,-91.0,-110.0,-110.0,-110.0,-110.0,-86.0,-110.0,-1.0,-1.0,-1.0,-1.0,2462.0,-1.0,2427.0,2437.0,2422.0,2437.0,5220.0,5220.0,-1.0,-1.0,2437.0,-1.0,-1.0,-1.0,-1.0,2462.0,-1.0,-1.0,-1.0,-1.0,2462.0,-1.0,49.461282667648,11.111404024309,-2.0
2.5599,17020.8119,-0.57223,1.38629,6.44539,7.03958,-4.54081,-0.22602,-17.3,-17.7,28.8,-110.0,-73.0,-110.0,-110.0,-110.0,-110.0,-110.0,-84.0,-110.0,-82.0,-79.0,-86.0,-74.0,-91.0,-89.0,-110.0,-110.0,-89.0,-110.0,-110.0,-110.0,-110.0,-91.0,-110.0,-110.0,-110.0,-110.0,-86.0,-110.0,-1.0,-1.0,-1.0,-1.0,2462.0,-1.0,2427.0,2437.0,2422.0,2437.0,5220.0,5220.0,-1.0,-1.0,2437.0,-1.0,-1.0,-1.0,-1.0,2462.0,-1.0,-1.0,-1.0,-1.0,2462.0,-1.0,49.461282667648,11.111404024309,-2.0
2.5842,17020.8319,-0.96968,0.54829,4.86996,7.6816,-4.07656,-0.23396,-19.4,-11.9,30.4,-110.0,-73.0,-110.0,-110.0,-110.0,-110.0,-110.0,-84.0,-110.0,-82.0,-79.0,-86.0,-74.0,-91.0,-89.0,-110.0,-110.0,-89.0,-110.0,-110.0,-110.0,-110.0,-91.0,-110.0,-110.0,-110.0,-110.0,-86.0,-110.0,-1.0,-1.0,-1.0,-1.0,2462.0,-1.0,2427.0,2437.0,2422.0,2437.0,5220.0,5220.0,-1.0,-1.0,2437.0,-1.0,-1.0,-1.0,-1.0,2462.0,-1.0,-1.0,-1.0,-1.0,2462.0,-1.0,49.461282667648,11.111404024309,-2.0
2.6064,17020.8519,-2.31048,-0.60575,1.98007,7.57042,-3.85787,0.21197,-12.5,-8.2,33.8,-110.0,-73.0,-110.0,-110.0,-110.0,-110.0,-110.0,-84.0,-110.0,-82.0,-79.0,-86.0,-74.0,-91.0,-89.0,-110.0,-110.0,-89.0,-110.0,-110.0,-110.0,-110.0,-91.0,-110.0,-110.0,-110.0,-110.0,-86.0,-110.0,-1.0,-1.0,-1.0,-1.0,2462.0,-1.0,2427.0,2437.0,2422.0,2437.0,5220.0,5220.0,-1.0,-1.0,2437.0,-1.0,-1.0,-1.0,-1.0,2462.0,-1.0,-1.0,-1.0,-1.0,2462.0,-1.0,49.461282667648,11.111404024309,-2.0
2.6204,17020.8719,-2.85398,-1.2953,-0.5866,6.83494,-3.82488,0.9389,-9.7,-2.0,36.4,-110.0,-73.0,-110.0,-110.0,-110.0,-110.0,-110.0,-84.0,-110.0,-82.0,-79.0,-86.0,-74.0,-91.0,-89.0,-110.0,-110.0,-89.0,-110.0,-110.0,-110.0,-110.0,-91.0,-110.0,-110.0,-110.0,-110.0,-86.0,-110.0,-1.0,-1.0,-1.0,-1.0,2462.0,-1.0,2427.0,2437.0,2422.0,2437.0,5220.0,5220.0,-1.0,-1.0,2437.0,-1.0,-1.0,-1.0,-1.0,2462.0,-1.0,-1.0,-1.0,-1.0,2462.0,-1.0,49.461282667648,11.111404024309,-2.0
2.6528,17020.8919,-1.66402,-1.40544,-1.36713,6.33708,-3.37162,1.11422,-6.4,2.8,40.4,-110.0,-73.0,-110.0,-110.0,-110.0,-110.0,-110.0,-84.0,-110.0,-82.0,-79.0,-86.0,-74.0,-91.0,-89.0,-110.0,-110.0,-89.0,-110.0,-110.0,-110.0,-110.0,-91.0,-110.0,-110.0,-110.0,-110.0,-86.0,-110.0,-1.0,-1.0,-1.0,-1.0,2462.0,-1.0,2427.0,2437.0,2422.0,2437.0,5220.0,5220.0,-1.0,-1.0,2437.0,-1.0,-1.0,-1.0,-1.0,2462.0,-1.0,-1.0,-1.0,-1.0,2462.0,-1.0,49.461282667648,11.111404024309,-2.0
2.6594,17020.9118,-0.68716,-1.76219,-1.0463,6.46964,-2.27756,0.77458,-3.8,10.3,38.0,-110.0,-73.0,-110.0,-110.0,-110.0,-110.0,-110.0,-84.0,-110.0,-82.0,-79.0,-86.0,-74.0,-91.0,-89.0,-110.0,-110.0,-89.0,-110.0,-110.0,-110.0,-110.0,-91.0,-110.0,-110.0,-110.0,-110.0,-86.0,-110.0,-1.0,-1.0,-1.0,-1.0,2462.0,-1.0,2427.0,2437.0,2422.0,2437.0,5220.0,5220.0,-1.0,-1.0,2437.0,-1.0,-1.0,-1.0,-1.0,2462.0,-1.0,-1.0,-1.0,-1.0,2462.0,-1.0,49.461282667648,11.111404024309,-2.0
2.6804,17020.9318,-0.34956,-2.62413,-1.45811,6.7372,-1.03689,0.48319,-5.1,16.1,33.0,-110.0,-73.0,-110.0,-110.0,-110.0,-110.0,-110.0,-84.0,-110.0,-82.0,-79.0,-86.0,-74.0,-91.0,-89.0,-110.0,-110.0,-89.0,-110.0,-110.0,-110.0,-110.0,-91.0,-110.0,-110.0,-110.0,-110.0,-86.0,-110.0,-1.0,-1.0,-1.0,-1.0,2462.0,-1.0,2427.0,2437.0,2422.0,2437.0,5220.0,5220.0,-1.0,-1.0,2437.0,-1.0,-1.0,-1.0,-1.0,2462.0,-1.0,-1.0,-1.0,-1.0,2462.0,-1.0,49.461282667648,11.111404024309,-2.0
2.7151,17020.9518,0.10056,-3.69197,-2.15964,6.55333,-0.33867,0.32864,-3.6,20.7,30.6,-110.0,-73.0,-110.0,-110.0,-110.0,-110.0,-110.0,-84.0,-110.0,-82.0,-79.0,-86.0,-74.0,-91.0,-89.0,-110.0,-110.0,-89.0,-110.0,-110.0,-110.0,-110.0,-91.0,-110.0,-110.0,-110.0,-110.0,-86.0,-110.0,-1.0,-1.0,-1.0,-1.0,2462.0,-1.0,2427.0,2437.0,2422.0,2437.0,5220.0,5220.0,-1.0,-1.0,2437.0,-1.0,-1.0,-1.0,-1.0,2462.0,-1.0,-1.0,-1.0,-1.0,2462.0,-1.0,49.461282667648,11.111404024309,-2.0
2.7202,17020.9718,0.71349,-4.58743,-2.83961,6.6645,0.05045,0.21197,-4.5,24.7,27.8,-110.0,-73.0,-110.0,-110.0,-110.0,-110.0,-110.0,-84.0,-110.0,-82.0,-79.0,-86.0,-74.0,-91.0,-89.0,-110.0,-110.0,-89.0,-110.0,-110.0,-110.0,-110.0,-91.0,-110.0,-110.0,-110.0,-110.0,-86.0,-110.0,-1.0,-1.0,-1.0,-1.0,2462.0,-1.0,2427.0,2437.0,2422.0,2437.0,5220.0,5220.0,-1.0,-1.0,2437.0,-1.0,-1.0,-1.0,-1.0,2462.0,-1.0,-1.0,-1.0,-1.0,2462.0,-1.0,49.461282667648,11.111404024309,-2.0
2.7423,17020.9918,1.09418,-5.76781,-3.76141,6.7262,-0.12426,-0.05803,-5.9,29.6,22.1,-110.0,-73.0,-110.0,-110.0,-110.0,-110.0,-110.0,-84.0,-110.0,-82.0,-79.0,-86.0,-74.0,-91.0,-89.0,-110.0,-110.0,-89.0,-110.0,-110.0,-110.0,-110.0,-91.0,-110.0,-110.0,-110.0,-110.0,-86.0,-110.0,-1.0,-1.0,-1.0,-1.0,2462.0,-1.0,2427.0,2437.0,2422.0,2437.0,5220.0,5220.0,-1.0,-1.0,2437.0,-1.0,-1.0,-1.0,-1.0,2462.0,-1.0,-1.0,-1.0,-1.0,2462.0,-1.0,49.461282667648,11.111404024309,-2.0
2.763,17021.0118,1.14686,-7.34803,-4.5563,6.41344,0.5202,-0.17898,-6.8,32.6,18.3,-110.0,-73.0,-110.0,-110.0,-110.0,-110.0,-110.0,-84.0,-110.0,-82.0,-79.0,-86.0,-74.0,-91.0,-89.0,-110.0,-110.0,-89.0,-110.0,-110.0,-110.0,-110.0,-91.0,-110.0,-110.0,-110.0,-110.0,-86.0,-110.0,-1.0,-1.0,-1.0,-1.0,2462.0,-1.0,2427.0,2437.0,2422.0,2437.0,5220.0,5220.0,-1.0,-1.0,2437.0,-1.0,-1.0,-1.0,-1.0,2462.0,-1.0,-1.0,-1.0,-1.0,2462.0,-1.0,49.461282667648,11.111404024309,-2.0
2.7841,17021.0318,1.55149,-8.5332,-4.62334,6.15138,0.96552,-0.05315,-6.8,35.8,15.2,-110.0,-73.0,-110.0,-110.0,-110.0,-110.0,-110.0,-84.0,-110.0,-82.0,-79.0,-86.0,-74.0,-91.0,-89.0,-110.0,-110.0,-89.0,-110.0,-110.0,-110.0,-110.0,-91.0,-110.0,-110.0,-110.0,-110.0,-86.0,-110.0,-1.0,-1.0,-1.0,-1.0,2462.0,-1.0,2427.0,2437.0,2422.0,2437.0,5220.0,5220.0,-1.0,-1.0,2437.0,-1.0,-1.0,-1.0,-1.0,2462.0,-1.0,-1.0,-1.0,-1.0,2462.0,-1.0,49.461282667648,11.111404024309,-2.0
2.8022,17021.0518,2.86595,-9.38795,-4.19716,6.44093,0.42552,-0.37507,-6.8,37.2,7.6,-110.0,-73.0,-110.0,-110.0,-110.0,-110.0,-110.0,-84.0,-110.0,-82.0,-79.0,-86.0,-74.0,-91.0,-89.0,-110.0,-110.0,-89.0,-110.0,-110.0,-110.0,-110.0,-91.0,-110.0,-110.0,-110.0,-110.0,-86.0,-110.0,-1.0,-1.0,-1.0,-1.0,2462.0,-1.0,2427.0,2437.0,2422.0,2437.0,5220.0,5220.0,-1.0,-1.0,2437.0,-1.0,-1.0,-1.0,-1.0,2462.0,-1.0,-1.0,-1.0,-1.0,2462.0,-1.0,49.461282667648,11.111404024309,-2.0
2.8272,17021.0718,4.67602,-10.60185,-4.11097,6.79828,0.00219,-1.29137,-7.6,38.3,4.1,-110.0,-84.0,-110.0,-110.0,-110.0,-110.0,-110.0,-84.0,-110.0,-82.0,-79.0,-86.0,-74.0,-91.0,-89.0,-110.0,-110.0,-89.0,-110.0,-110.0,-110.0,-110.0,-91.0,-110.0,-110.0,-110.0,-110.0,-86.0,-110.0,-1.0,-1.0,-1.0,-1.0,2462.0,-1.0,2427.0,2437.0,2422.0,2437.0,5220.0,5220.0,-1.0,-1.0,2437.0,-1.0,-1.0,-1.0,-1.0,2462.0,-1.0,-1.0,-1.0,-1.0,2462.0,-1.0,49.461282667648,11.111404024309,-2.0
2.8434,17021.0918,6.11258,-11.99053,-4.64968,6.67,0.59534,-2.23577,-9.4,38.0,-2.1,-110.0,-84.0,-110.0,-110.0,-110.0,-110.0,-110.0,-84.0,-110.0,-82.0,-79.0,-86.0,-74.0,-91.0,-89.0,-110.0,-110.0,-89.0,-110.0,-110.0,-110.0,-110.0,-91.0,-110.0,-110.0,-110.0,-110.0,-86.0,-110.0,-1.0,-1.0,-1.0,-1.0,2462.0,-1.0,2427.0,2437.0,2422.0,2437.0,5220.0,5220.0,-1.0,-1.0,2437.0,-1.0,-1.0,-1.0,-1.0,2462.0,-1.0,-1.0,-1.0,-1.0,2462.0,-1.0,49.461282667648,11.111404024309,-2.0
2.86,17021.1118,7.18761,-13.37442,-5.59781,5.9052,1.96246,-2.67009,-11.5,37.0,-8.4,-110.0,-84.0,-110.0,-110.0,-110.0,-110.0,-110.0,-84.0,-110.0,-82.0,-79.0,-86.0,-74.0,-91.0,-89.0,-110.0,-110.0,-89.0,-110.0,-110.0,-110.0,-110.0,-91.0,-110.0,-110.0,-110.0,-110.0,-86.0,-110.0,-1.0,-1.0,-1.0,-1.0,2462.0,-1.0,2427.0,2437.0,2422.0,2437.0,5220.0,5220.0,-1.0,-1.0,2437.0,-1.0,-1.0,-1.0,-1.0,2462.0,-1.0,-1.0,-1.0,-1.0,2462.0,-1.0,49.461282667648,11.111404024309,-2.0
2.8948,17021.1318,8.75107,-14.44466,-5.65049,5.28212,2.75536,-3.04883,-13.7,34.6,-13.2,-110.0,-84.0,-110.0,-110.0,-110.0,-110.0,-110.0,-84.0,-110.0,-82.0,-79.0,-86.0,-74.0,-91.0,-89.0,-110.0,-110.0,-89.0,-110.0,-110.0,-110.0,-110.0,-91.0,-110.0,-110.0,-110.0,-110.0,-86.0,-110.0,-1.0,-1.0,-1.0,-1.0,2462.0,-1.0,2427.0,2437.0,2422.0,2437.0,5220.0,5220.0,-1.0,-1.0,2437.0,-1.0,-1.0,-1.0,-1.0,2462.0,-1.0,-1.0,-1.0,-1.0,2462.0,-1.0,49.461282667648,11.111404024309,-2.0
2.9064,17021.1518,10.46777,-15.51011,-5.12135,5.04205,2.52018,-3.54791,-15.0,33.2,-16.7,-110.0,-84.0,-110.0,-110.0,-110.0,-110.0,-110.0,-84.0,-110.0,-82.0,-79.0,-86.0,-74.0,-91.0,-89.0,-110.0,-110.0,-89.0,-110.0,-110.0,-110.0,-110.0,-91.0,-110.0,-110.0,-110.0,-110.0,-86.0,-110.0,-1.0,-1.0,-1.0,-1.0,2462.0,-1.0,2427.0,2437.0,2422.0,2437.0,5220.0,5220.0,-1.0,-1.0,2437.0,-1.0,-1.0,-1.0,-1.0,2462.0,-1.0,-1.0,-1.0,-1.0,2462.0,-1.0,49.461282667648,11.111404024309,-2.0
2.9263,17021.1718,12.10067,-16.66894,-4.4749,4.95042,1.99666,-4.32309,-17.3,29.5,-21.5,-110.0,-84.0,-110.0,-110.0,-110.0,-110.0,-110.0,-84.0,-110.0,-82.0,-79.0,-86.0,-74.0,-91.0,-89.0,-110.0,-110.0,-89.0,-110.0,-110.0,-110.0,-110.0,-91.0,-110.0,-110.0,-110.0,-110.0,-86.0,-110.0,-1.0,-1.0,-1.0,-1.0,2462.0,-1.0,2427.0,2437.0,2422.0,2437.0,5220.0,5220.0,-1.0,-1.0,2437.0,-1.0,-1.0,-1.0,-1.0,2462.0,-1.0,-1.0,-1.0,-1.0,2462.0,-1.0,49.461282667648,11.111404024309,-2.0
2.9425,17021.1918,13.25949,-17.62186,-4.10618,4.70546,1.85922,-4.93029,-20.0,23.9,-24.8,-110.0,-84.0,-110.0,-110.0,-110.0,-110.0,-110.0,-84.0,-110.0,-82.0,-79.0,-86.0,-74.0,-91.0,-89.0,-110.0,-110.0,-89.0,-110.0,-110.0,-110.0,-110.0,-91.0,-110.0,-110.0,-110.0,-110.0,-86.0,-110.0,-1.0,-1.0,-1.0,-1.0,2462.0,-1.0,2427.0,2437.0,2422.0,2437.0,5220.0,5220.0,-1.0,-1.0,2437.0,-1.0,-1.0,-1.0,-1.0,2462.0,-1.0,-1.0,-1.0,-1.0,2462.0,-1.0,49.461282667648,11.111404024309,-2.0
2.9592,17021.2118,14.02087,-17.83735,-4.11336,4.24853,1.79325,-5.32369,-20.9,19.7,-28.6,-110.0,-84.0,-110.0,-110.0,-110.0,-110.0,-110.0,-84.0,-110.0,-82.0,-79.0,-86.0,-74.0,-91.0,-89.0,-110.0,-110.0,-89.0,-110.0,-110.0,-110.0,-110.0,-91.0,-110.0,-110.0,-110.0,-110.0,-86.0,-110.0,-1.0,-1.0,-1.0,-1.0,2462.0,-1.0,2427.0,2437.0,2422.0,2437.0,5220.0,5220.0,-1.0,-1.0,2437.0,-1.0,-1.0,-1.0,-1.0,2462.0,-1.0,-1.0,-1.0,-1.0,2462.0,-1.0,49.461282667648,11.111404024309,-2.0
2.9835,17021.2318,14.41353,-17.31779,-3.87394,3.54176,1.46155,-5.68838,-21.6,14.1,-32.7,-110.0,-84.0,-110.0,-110.0,-110.0,-110.0,-110.0,-84.0,-110.0,-82.0,-79.0,-86.0,-74.0,-91.0,-89.0,-110.0,-110.0,-89.0,-110.0,-110.0,-110.0,-110.0,-91.0,-110.0,-110.0,-110.0,-110.0,-86.0,-110.0,-1.0,-1.0,-1.0,-1.0,2462.0,-1.0,2427.0,2437.0,2422.0,2437.0,5220.0,5220.0,-1.0,-1.0,2437.0,-1.0,-1.0,-1.0,-1.0,2462.0,-1.0,-1.0,-1.0,-1.0,2462.0,-1.0,49.461282667648,11.111404024309,-2.0
3.0017,17021.2518,14.77028,-16.3098,-2.4661,3.05796,0.87573,-6.08972,-22.8,9.7,-35.6,-110.0,-84.0,-110.0,-110.0,-110.0,-110.0,-110.0,-84.0,-110.0,-82.0,-79.0,-86.0,-74.0,-91.0,-89.0,-110.0,-110.0,-89.0,-110.0,-110.0,-110.0,-110.0,-91.0,-110.0,-110.0,-110.0,-110.0,-86.0,-110.0,-1.0,-1.0,-1.0,-1.0,2462.0,-1.0,2427.0,2437.0,2422.0,2437.0,5220.0,5220.0,-1.0,-1.0,2437.0,-1.0,-1.0,-1.0,-1.0,2462.0,-1.0,-1.0,-1.0,-1.0,2462.0,-1.0,49.461282667648,11.111404024309,-2.0
3.0195,17021.2718,14.95943,-15.21562,-0.57223,2.92051,0.40842,-6.6847,-23.8,4.7,-34.8,-110.0,-84.0,-110.0,-110.0,-110.0,-110.0,-110.0,-84.0,-110.0,-82.0,-79.0,-86.0,-74.0,-91.0,-89.0,-110.0,-110.0,-89.0,-110.0,-110.0,-110.0,-110.0,-91.0,-110.0,-110.0,-110.0,-110.0,-86.0,-110.0,-1.0,-1.0,-1.0,-1.0,2462.0,-1.0,2427.0,2437.0,2422.0,2437.0,5220.0,5220.0,-1.0,-1.0,2437.0,-1.0,-1.0,-1.0,-1.0,2462.0,-1.0,-1.0,-1.0,-1.0,2462.0,-1.0,49.461282667648,11.111404024309,-2.0
3.0438,17021.2918,14.68648,-14.23636,1.24981,2.84782,0.44751,-7.23875,-23.3,-0.3,-38.3,-110.0,-86.0,-110.0,-110.0,-110.0,-110.0,-110.0,-84.0,-110.0,-82.0,-79.0,-86.0,-74.0,-91.0,-89.0,-110.0,-110.0,-89.0,-110.0,-110.0,-110.0,-110.0,-91.0,-110.0,-110.0,-110.0,-110.0,-86.0,-110.0,-1.0,-1.0,-1.0,-1.0,2462.0,-1.0,2427.0,2437.0,2422.0,2437.0,5220.0,5220.0,-1.0,-1.0,2437.0,-1.0,-1.0,-1.0,-1.0,2462.0,-1.0,-1.0,-1.0,-1.0,2462.0,-1.0,49.461282667648,11.111404024309,-2.0
3.0705,17021.3118,13.98256,-13.33611,2.37273,2.85209,1.01317,-7.54052,-23.4,-5.6,-36.1,-110.0,-86.0,-110.0,-110.0,-110.0,-110.0,-110.0,-84.0,-110.0,-82.0,-79.0,-86.0,-74.0,-91.0,-89.0,-110.0,-110.0,-89.0,-110.0,-110.0,-110.0,-110.0,-91.0,-110.0,-110.0,-110.0,-110.0,-86.0,-110.0,-1.0,-1.0,-1.0,-1.0,2462.0,-1.0,2427.0,2437.0,2422.0,2437.0,5220.0,5220.0,-1.0,-1.0,2437.0,-1.0,-1.0,-1.0,-1.0,2462.0,-1.0,-1.0,-1.0,-1.0,2462.0,-1.0,49.461282667648,11.111404024309,-2.0
3.0836,17021.3317,13.35766,-12.23714,2.60976,2.91624,1.35037,-7.67613,-21.2,-10.4,-37.4,-110.0,-86.0,-110.0,-110.0,-110.0,-110.0,-110.0,-84.0,-110.0,-82.0,-79.0,-86.0,-74.0,-91.0,-89.0,-110.0,-110.0,-89.0,-110.0,-110.0,-110.0,-110.0,-91.0,-110.0,-110.0,-110.0,-110.0,-86.0,-110.0,-1.0,-1.0,-1.0,-1.0,2462.0,-1.0,2427.0,2437.0,2422.0,2437.0,5220.0,5220.0,-1.0,-1.0,2437.0,-1.0,-1.0,-1.0,-1.0,2462.0,-1.0,-1.0,-1.0,-1.0,2462.0,-1.0,49.461282667648,11.111404024309,-2.0
3.1094,17021.3517,12.95303,-10.86282,1.79571,2.8185,1.23186,-7.92476,-19.9,-16.2,-38.0,-110.0,-86.0,-110.0,-110.0,-110.0,-110.0,-110.0,-84.0,-110.0,-82.0,-79.0,-86.0,-74.0,-91.0,-89.0,-110.0,-110.0,-89.0,-110.0,-110.0,-110.0,-110.0,-91.0,-110.0,-110.0,-110.0,-110.0,-86.0,-110.0,-1.0,-1.0,-1.0,-1.0,2462.0,-1.0,2427.0,2437.0,2422.0,2437.0,5220.0,5220.0,-1.0,-1.0,2437.0,-1.0,-1.0,-1.0,-1.0,2462.0,-1.0,-1.0,-1.0,-1.0,2462.0,-1.0,49.461282667648,11.111404024309,-2.0
3.1243,17021.3717,11.99292,-9.69202,0.47407,2.29804,0.87206,-8.14039,-11.9,-21.7,-35.0,-110.0,-86.0,-110.0,-110.0,-110.0,-110.0,-110.0,-84.0,-110.0,-82.0,-79.0,-86.0,-74.0,-91.0,-89.0,-110.0,-110.0,-89.0,-110.0,-110.0,-110.0,-110.0,-91.0,-110.0,-110.0,-110.0,-110.0,-86.0,-110.0,-1.0,-1.0,-1.0,-1.0,2462.0,-1.0,2427.0,2437.0,2422.0,2437.0,5220.0,5220.0,-1.0,-1.0,2437.0,-1.0,-1.0,-1.0,-1.0,2462.0,-1.0,-1.0,-1.0,-1.0,2462.0,-1.0,49.461282667648,11.111404024309,-2.0
3.1396,17021.3917,10.35284,-8.7415,0.00958,1.09525,1.4365,-7.81908,-8.1,-24.7,-34.0,-110.0,-86.0,-110.0,-110.0,-110.0,-110.0,-110.0,-84.0,-110.0,-82.0,-79.0,-86.0,-74.0,-91.0,-89.0,-110.0,-110.0,-89.0,-110.0,-110.0,-110.0,-110.0,-91.0,-110.0,-110.0,-110.0,-110.0,-86.0,-110.0,-1.0,-1.0,-1.0,-1.0,2462.0,-1.0,2427.0,2437.0,2422.0,2437.0,5220.0,5220.0,-1.0,-1.0,2437.0,-1.0,-1.0,-1.0,-1.0,2462.0,-1.0,-1.0,-1.0,-1.0,2462.0,-1.0,49.461282667648,11.111404024309,-2.0
3.161,17021.4118,8.88515,-7.19719,0.95532,0.90405,1.63442,-7.3988,-9.6,-25.1,-37.2,-110.0,-86.0,-110.0,-110.0,-110.0,-110.0,-110.0,-84.0,-110.0,-82.0,-79.0,-86.0,-74.0,-91.0,-89.0,-110.0,-110.0,-89.0,-110.0,-110.0,-110.0,-110.0,-91.0,-110.0,-110.0,-110.0,-110.0,-86.0,-110.0,-1.0,-1.0,-1.0,-1.0,2462.0,-1.0,2427.0,2437.0,2422.0,2437.0,5220.0,5220.0,-1.0,-1.0,2437.0,-1.0,-1.0,-1.0,-1.0,2462.0,-1.0,-1.0,-1.0,-1.0,2462.0,-1.0,49.461282667648,11.111404024309,-2.0
3.1865,17021.4318,7.88914,-5.30332,0.90743,0.87289,1.1329,-7.18194,0.5,-28.3,-33.3,-110.0,-86.0,-110.0,-110.0,-110.0,-110.0,-110.0,-84.0,-110.0,-82.0,-79.0,-86.0,-74.0,-91.0,-89.0,-110.0,-110.0,-89.0,-110.0,-110.0,-110.0,-110.0,-91.0,-110.0,-110.0,-110.0,-110.0,-86.0,-110.0,-1.0,-1.0,-1.0,-1.0,2462.0,-1.0,2427.0,2437.0,2422.0,2437.0,5220.0,5220.0,-1.0,-1.0,2437.0,-1.0,-1.0,-1.0,-1.0,2462.0,-1.0,-1.0,-1.0,-1.0,2462.0,-1.0,49.461282667648,11.111404024309,-2.0
3.2078,17021.4518,6.95776,-3.80211,0.06704,0.3506,0.5312,-7.09581,-0.4,-26.2,-34.0,-110.0,-86.0,-110.0,-110.0,-110.0,-110.0,-110.0,-84.0,-110.0,-82.0,-79.0,-86.0,-74.0,-91.0,-89.0,-110.0,-110.0,-89.0,-110.0,-110.0,-110.0,-110.0,-91.0,-110.0,-110.0,-110.0,-110.0,-86.0,-110.0,-1.0,-1.0,-1.0,-1.0,2462.0,-1.0,2427.0,2437.0,2422.0,2437.0,5220.0,5220.0,-1.0,-1.0,2437.0,-1.0,-1.0,-1.0,-1.0,2462.0,-1.0,-1.0,-1.0,-1.0,2462.0,-1.0,49.461282667648,11.111404024309,-2.0
3.2374,17021.4718,5.92104,-2.84919,-0.10295,-0.45024,-0.02347,-6.90828,5.7,-27.3,-33.8,-110.0,-83.0,-110.0,-110.0,-110.0,-110.0,-110.0,-84.0,-110.0,-82.0,-79.0,-86.0,-74.0,-91.0,-89.0,-110.0,-110.0,-89.0,-110.0,-110.0,-110.0,-110.0,-91.0,-110.0,-110.0,-110.0,-110.0,-86.0,-110.0,-1.0,-1.0,-1.0,-1.0,2462.0,-1.0,2427.0,2437.0,2422.0,2437.0,5220.0,5220.0,-1.0,-1.0,2437.0,-1.0,-1.0,-1.0,-1.0,2462.0,-1.0,-1.0,-1.0,-1.0,2462.0,-1.0,49.461282667648,11.111404024309,-2.0
3.2453,17021.4919,4.67602,-1.97528,0.30886,-0.91145,-0.11754,-6.52465,8.1,-26.2,-34.7,-110.0,-83.0,-110.0,-110.0,-110.0,-110.0,-110.0,-84.0,-110.0,-82.0,-79.0,-86.0,-74.0,-91.0,-89.0,-110.0,-110.0,-89.0,-110.0,-110.0,-110.0,-110.0,-91.0,-110.0,-110.0,-110.0,-110.0,-86.0,-110.0,-1.0,-1.0,-1.0,-1.0,2462.0,-1.0,2427.0,2437.0,2422.0,2437.0,5220.0,5220.0,-1.0,-1.0,2437.0,-1.0,-1.0,-1.0,-1.0,2462.0,-1.0,-1.0,-1.0,-1.0,2462.0,-1.0,49.461282667648,11.111404024309,-2.0
3.265,17021.5119,4.25702,-0.86673,0.96729,-1.4038,-0.09982,-6.31329,10.2,-24.6,-34.7,-110.0,-83.0,-110.0,-110.0,-110.0,-110.0,-110.0,-84.0,-110.0,-82.0,-79.0,-86.0,-74.0,-91.0,-89.0,-110.0,-110.0,-89.0,-110.0,-110.0,-110.0,-110.0,-91.0,-110.0,-110.0,-110.0,-110.0,-86.0,-110.0,-1.0,-1.0,-1.0,-1.0,2462.0,-1.0,2427.0,2437.0,2422.0,2437.0,5220.0,5220.0,-1.0,-1.0,2437.0,-1.0,-1.0,-1.0,-1.0,2462.0,-1.0,-1.0,-1.0,-1.0,2462.0,-1.0,49.461282667648,11.111404024309,-2.0
3.2891,17021.5319,4.19477,-0.20351,1.65684,-1.66403,-0.33867,-6.72135,12.4,-22.5,-33.8,-110.0,-83.0,-110.0,-110.0,-110.0,-110.0,-110.0,-84.0,-110.0,-82.0,-79.0,-86.0,-74.0,-91.0,-89.0,-110.0,-110.0,-89.0,-110.0,-110.0,-110.0,-110.0,-91.0,-110.0,-110.0,-110.0,-110.0,-86.0,-110.0,-1.0,-1.0,-1.0,-1.0,2462.0,-1.0,2427.0,2437.0,2422.0,2437.0,5220.0,5220.0,-1.0,-1.0,2437.0,-1.0,-1.0,-1.0,-1.0,2462.0,-1.0,-1.0,-1.0,-1.0,2462.0,-1.0,49.461282667648,11.111404024309,-2.0
3.3212,17021.552,3.39029,-0.31126,1.71191,-2.04888,-0.48345,-7.03228,10.5,-20.2,-37.8,-110.0,-83.0,-110.0,-110.0,-110.0,-110.0,-110.0,-84.0,-110.0,-82.0,-79.0,-86.0,-74.0,-91.0,-89.0,-110.0,-110.0,-89.0,-110.0,-110.0,-110.0,-110.0,-91.0,-110.0,-110.0,-110.0,-110.0,-86.0,-110.0,-1.0,-1.0,-1.0,-1.0,2462.0,-1.0,2427.0,2437.0,2422.0,2437.0,5220.0,5220.0,-1.0,-1.0,2437.0,-1.0,-1.0,-1.0,-1.0,2462.0,-1.0,-1.0,-1.0,-1.0,2462.0,-1.0,49.461282667648,11.111404024309,-2.0
3.3408,17021.572,2.42779,-0.71828,1.86275,-2.52169,-0.31607,-6.8197,13.3,-15.9,-38.1,-110.0,-83.0,-110.0,-110.0,-110.0,-110.0,-110.0,-84.0,-110.0,-82.0,-79.0,-86.0,-74.0,-91.0,-89.0,-110.0,-110.0,-89.0,-110.0,-110.0,-110.0,-110.0,-91.0,-110.0,-110.0,-110.0,-110.0,-86.0,-110.0,-1.0,-1.0,-1.0,-1.0,2462.0,-1.0,2427.0,2437.0,2422.0,2437.0,5220.0,5220.0,-1.0,-1.0,2437.0,-1.0,-1.0,-1.0,-1.0,2462.0,-1.0,-1.0,-1.0,-1.0,2462.0,-1.0,49.461282667648,11.111404024309,-2.0
3.3445,17021.592,1.64008,-0.99602,2.41103,-2.8204,-0.52254,-6.55825,14.2,-11.8,-36.6,-110.0,-83.0,-110.0,-110.0,-110.0,-110.0,-110.0,-84.0,-110.0,-82.0,-79.0,-86.0,-74.0,-91.0,-89.0,-110.0,-110.0,-89.0,-110.0,-110.0,-110.0,-110.0,-91.0,-110.0,-110.0,-110.0,-110.0,-86.0,-110.0,-1.0,-1.0,-1.0,-1.0,2462.0,-1.0,2427.0,2437.0,2422.0,2437.0,5220.0,5220.0,-1.0,-1.0,2437.0,-1.0,-1.0,-1.0,-1.0,2462.0,-1.0,-1.0,-1.0,-1.0,2462.0,-1.0,49.461282667648,11.111404024309,-2.0
3.4092,17021.612,1.39347,-1.42938,2.88031,-2.97617,-0.84264,-6.49044,11.5,-6.2,-37.7,-110.0,-83.0,-110.0,-110.0,-110.0,-110.0,-110.0,-84.0,-110.0,-82.0,-79.0,-86.0,-74.0,-91.0,-89.0,-110.0,-110.0,-89.0,-110.0,-110.0,-110.0,-110.0,-91.0,-110.0,-110.0,-110.0,-110.0,-86.0,-110.0,-1.0,-1.0,-1.0,-1.0,2462.0,-1.0,2427.0,2437.0,2422.0,2437.0,5220.0,5220.0,-1.0,-1.0,2437.0,-1.0,-1.0,-1.0,-1.0,2462.0,-1.0,-1.0,-1.0,-1.0,2462.0,-1.0,49.461282667648,11.111404024309,-2.0
3.4131,17021.6321,1.0894,-2.03753,2.95932,-3.30543,-1.03017,-6.60101,10.2,-2.9,-38.3,-110.0,-83.0,-110.0,-110.0,-110.0,-110.0,-110.0,-84.0,-110.0,-82.0,-79.0,-86.0,-74.0,-91.0,-89.0,-110.0,-110.0,-89.0,-110.0,-110.0,-110.0,-110.0,-91.0,-110.0,-110.0,-110.0,-110.0,-86.0,-110.0,-1.0,-1.0,-1.0,-1.0,2462.0,-1.0,2427.0,2437.0,2422.0,2437.0,5220.0,5220.0,-1.0,-1.0,2437.0,-1.0,-1.0,-1.0,-1.0,2462.0,-1.0,-1.0,-1.0,-1.0,2462.0,-1.0,49.461282667648,11.111404024309,-2.0
3.4147,17021.6521,0.10056,-2.83482,3.73746,-3.67072,-1.31972,-6.46662,10.3,1.4,-40.1,-110.0,-83.0,-110.0,-110.0,-110.0,-110.0,-110.0,-84.0,-110.0,-82.0,-79.0,-86.0,-74.0,-91.0,-89.0,-110.0,-110.0,-89.0,-110.0,-110.0,-110.0,-110.0,-91.0,-110.0,-110.0,-110.0,-110.0,-86.0,-110.0,-1.0,-1.0,-1.0,-1.0,2462.0,-1.0,2427.0,2437.0,2422.0,2437.0,5220.0,5220.0,-1.0,-1.0,2437.0,-1.0,-1.0,-1.0,-1.0,2462.0,-1.0,-1.0,-1.0,-1.0,2462.0,-1.0,49.461282667648,11.111404024309,-2.0
3.4262,17021.6721,-0.76377,-3.27537,4.73109,-3.57726,-1.80719,-6.08849,9.0,6.1,-39.3,-110.0,-83.0,-110.0,-110.0,-110.0,-110.0,-110.0,-84.0,-110.0,-82.0,-79.0,-86.0,-74.0,-91.0,-89.0,-110.0,-110.0,-89.0,-110.0,-110.0,-110.0,-110.0,-91.0,-110.0,-110.0,-110.0,-110.0,-86.0,-110.0,-1.0,-1.0,-1.0,-1.0,2462.0,-1.0,2427.0,2437.0,2422.0,2437.0,5220.0,5220.0,-1.0,-1.0,2437.0,-1.0,-1.0,-1.0,-1.0,2462.0,-1.0,-1.0,-1.0,-1.0,2462.0,-1.0,49.461282667648,11.111404024309,-2.0
3.44,17021.6922,-1.47727,-3.62493,5.99287,-3.31764,-2.85055,-5.58881,5.8,12.0,-36.1,-110.0,-83.0,-110.0,-110.0,-110.0,-110.0,-110.0,-84.0,-110.0,-82.0,-79.0,-86.0,-74.0,-91.0,-89.0,-110.0,-110.0,-89.0,-110.0,-110.0,-110.0,-110.0,-91.0,-110.0,-110.0,-110.0,-110.0,-86.0,-110.0,-1.0,-1.0,-1.0,-1.0,2462.0,-1.0,2427.0,2437.0,2422.0,2437.0,5220.0,5220.0,-1.0,-1.0,2437.0,-1.0,-1.0,-1.0,-1.0,2462.0,-1.0,-1.0,-1.0,-1.0,2462.0,-1.0,49.461282667648,11.111404024309,-2.0
3.4601,17021.7122,-1.50839,-3.65845,7.03917,-3.02015,-3.11444,-5.23756,1.8,15.0,-37.4,-110.0,-83.0,-110.0,-110.0,-110.0,-110.0,-110.0,-84.0,-110.0,-82.0,-79.0,-86.0,-74.0,-91.0,-89.0,-110.0,-110.0,-89.0,-110.0,-110.0,-110.0,-110.0,-91.0,-110.0,-110.0,-110.0,-110.0,-86.0,-110.0,-1.0,-1.0,-1.0,-1.0,2462.0,-1.0,2427.0,2437.0,2422.0,2437.0,5220.0,5220.0,-1.0,-1.0,2437.0,-1.0,-1.0,-1.0,-1.0,2462.0,-1.0,-1.0,-1.0,-1.0,2462.0,-1.0,49.461282667648,11.111404024309,-2.0
3.4832,17021.7322,-1.60895,-3.51958,7.69041,-2.83628,-3.26227,-4.89303,-2.3,16.3,-37.5,-110.0,-83.0,-110.0,-110.0,-110.0,-110.0,-110.0,-84.0,-110.0,-82.0,-79.0,-86.0,-74.0,-91.0,-89.0,-110.0,-110.0,-89.0,-110.0,-110.0,-110.0,-110.0,-91.0,-110.0,-110.0,-110.0,-110.0,-86.0,-110.0,-1.0,-1.0,-1.0,-1.0,2462.0,-1.0,2427.0,2437.0,2422.0,2437.0,5220.0,5220.0,-1.0,-1.0,2437.0,-1.0,-1.0,-1.0,-1.0,2462.0,-1.0,-1.0,-1.0,-1.0,2462.0,-1.0,49.461282667648,11.111404024309,-2.0
3.5047,17021.7522,-0.80448,-3.45733,7.8628,-2.8204,-3.87803,-4.62975,-5.6,18.4,-36.4,-110.0,-83.0,-110.0,-110.0,-110.0,-110.0,-110.0,-84.0,-110.0,-82.0,-79.0,-86.0,-74.0,-91.0,-89.0,-110.0,-110.0,-89.0,-110.0,-110.0,-110.0,-110.0,-91.0,-110.0,-110.0,-110.0,-110.0,-86.0,-110.0,-1.0,-1.0,-1.0,-1.0,2462.0,-1.0,2427.0,2437.0,2422.0,2437.0,5220.0,5220.0,-1.0,-1.0,2437.0,-1.0,-1.0,-1.0,-1.0,2462.0,-1.0,-1.0,-1.0,-1.0,2462.0,-1.0,49.461282667648,11.111404024309,-2.0
3.5226,17021.7723,-0.28252,-3.94816,7.78618,-2.85339,-3.5897,-4.53506,-10.1,20.3,-35.8,-110.0,-83.0,-110.0,-110.0,-110.0,-110.0,-110.0,-84.0,-110.0,-82.0,-79.0,-86.0,-74.0,-91.0,-89.0,-110.0,-110.0,-89.0,-110.0,-110.0,-110.0,-110.0,-91.0,-110.0,-110.0,-110.0,-110.0,-86.0,-110.0,-1.0,-1.0,-1.0,-1.0,2462.0,-1.0,2427.0,2437.0,2422.0,2437.0,5220.0,5220.0,-1.0,-1.0,2437.0,-1.0,-1.0,-1.0,-1.0,2462.0,-1.0,-1.0,-1.0,-1.0,2462.0,-1.0,49.461282667648,11.111404024309,-2.0
3.5432,17021.7923,0.18196,-4.59461,7.93223,-3.18448,-3.933,-4.24246,-13.1,22.5,-32.8,-110.0,-83.0,-110.0,-110.0,-110.0,-110.0,-110.0,-84.0,-110.0,-82.0,-79.0,-86.0,-74.0,-91.0,-89.0,-110.0,-110.0,-89.0,-110.0,-110.0,-110.0,-110.0,-91.0,-110.0,-110.0,-110.0,-110.0,-86.0,-110.0,-1.0,-1.0,-1.0,-1.0,2462.0,-1.0,2427.0,2437.0,2422.0,2437.0,5220.0,5220.0,-1.0,-1.0,2437.0,-1.0,-1.0,-1.0,-1.0,2462.0,-1.0,-1.0,-1.0,-1.0,2462.0,-1.0,49.461282667648,11.111404024309,-2.0
3.5611,17021.8123,1.59459,-5.51401,9.33528,-3.43615,-4.03685,-4.26323,-17.3,23.5,-27.9,-110.0,-83.0,-110.0,-110.0,-110.0,-110.0,-110.0,-84.0,-110.0,-82.0,-79.0,-86.0,-74.0,-91.0,-89.0,-110.0,-110.0,-89.0,-110.0,-110.0,-110.0,-110.0,-91.0,-110.0,-110.0,-110.0,-110.0,-86.0,-110.0,-1.0,-1.0,-1.0,-1.0,2462.0,-1.0,2427.0,2437.0,2422.0,2437.0,5220.0,5220.0,-1.0,-1.0,2437.0,-1.0,-1.0,-1.0,-1.0,2462.0,-1.0,-1.0,-1.0,-1.0,2462.0,-1.0,49.461282667648,11.111404024309,-2.0
3.5875,17021.8324,2.89947,-6.40708,12.27066,-2.64447,-3.67033,-4.4807,-21.1,24.0,-25.8,-110.0,-83.0,-110.0,-110.0,-110.0,-110.0,-110.0,-84.0,-110.0,-82.0,-79.0,-86.0,-74.0,-91.0,-89.0,-110.0,-110.0,-89.0,-110.0,-110.0,-110.0,-110.0,-91.0,-110.0,-110.0,-110.0,-110.0,-86.0,-110.0,-1.0,-1.0,-1.0,-1.0,2462.0,-1.0,2427.0,2437.0,2422.0,2437.0,5220.0,5220.0,-1.0,-1.0,2437.0,-1.0,-1.0,-1.0,-1.0,2462.0,-1.0,-1.0,-1.0,-1.0,2462.0,-1.0,49.461282667648,11.111404024309,-2.0
3.6045,17021.8524,3.21791,-7.35282,14.15735,-1.5834,-3.25067,-4.61814,-23.8,23.0,-24.6,-110.0,-83.0,-110.0,-110.0,-110.0,-110.0,-110.0,-84.0,-110.0,-82.0,-79.0,-86.0,-74.0,-91.0,-89.0,-110.0,-110.0,-89.0,-110.0,-110.0,-110.0,-110.0,-91.0,-110.0,-110.0,-110.0,-110.0,-86.0,-110.0,-1.0,-1.0,-1.0,-1.0,2462.0,-1.0,2427.0,2437.0,2422.0,2437.0,5220.0,5220.0,-1.0,-1.0,2437.0,-1.0,-1.0,-1.0,-1.0,2462.0,-1.0,-1.0,-1.0,-1.0,2462.0,-1.0,49.461282667648,11.111404024309,-2.0
3.6276,17021.8724,3.87394,-7.84125,15.2659,-0.78683,-2.7125,-4.43427,-27.6,21.6,-21.8,-110.0,-83.0,-110.0,-110.0,-110.0,-110.0,-110.0,-84.0,-110.0,-82.0,-79.0,-86.0,-74.0,-91.0,-89.0,-110.0,-110.0,-89.0,-110.0,-110.0,-110.0,-110.0,-91.0,-110.0,-110.0,-110.0,-110.0,-86.0,-110.0,-1.0,-1.0,-1.0,-1.0,2462.0,-1.0,2427.0,2437.0,2422.0,2437.0,5220.0,5220.0,-1.0,-1.0,2437.0,-1.0,-1.0,-1.0,-1.0,2462.0,-1.0,-1.0,-1.0,-1.0,2462.0,-1.0,49.461282667648,11.111404024309,-2.0
3.643,17021.8924,5.32726,-8.16448,15.35209,-0.12282,-2.28917,-4.64136,-30.7,18.5,-20.9,-110.0,-83.0,-110.0,-110.0,-110.0,-110.0,-110.0,-84.0,-110.0,-82.0,-79.0,-86.0,-74.0,-91.0,-89.0,-110.0,-110.0,-89.0,-110.0,-110.0,-110.0,-110.0,-91.0,-110.0,-110.0,-110.0,-110.0,-86.0,-110.0,-1.0,-1.0,-1.0,-1.0,2462.0,-1.0,2427.0,2437.0,2422.0,2437.0,5220.0,5220.0,-1.0,-1.0,2437.0,-1.0,-1.0,-1.0,-1.0,2462.0,-1.0,-1.0,-1.0,-1.0,2462.0,-1.0,49.461282667648,11.111404024309,-2.0
3.6649,17021.9125,6.87875,-8.67925,14.83253,0.43673,-2.47976,-5.09706,-32.1,15.7,-20.6,-110.0,-83.0,-110.0,-110.0,-110.0,-110.0,-110.0,-84.0,-110.0,-82.0,-79.0,-86.0,-74.0,-91.0,-89.0,-110.0,-110.0,-89.0,-110.0,-110.0,-110.0,-110.0,-91.0,-110.0,-110.0,-110.0,-110.0,-86.0,-110.0,-1.0,-1.0,-1.0,-1.0,2462.0,-1.0,2427.0,2437.0,2422.0,2437.0,5220.0,5220.0,-1.0,-1.0,2437.0,-1.0,-1.0,-1.0,-1.0,2462.0,-1.0,-1.0,-1.0,-1.0,2462.0,-1.0,49.461282667648,11.111404024309,-2.0
3.6946,17021.9325,7.76703,-9.20838,14.56437,0.66886,-2.87437,-5.48191,-33.8,13.1,-17.8,-110.0,-83.0,-110.0,-110.0,-110.0,-110.0,-110.0,-84.0,-110.0,-82.0,-79.0,-86.0,-74.0,-91.0,-89.0,-110.0,-110.0,-89.0,-110.0,-110.0,-110.0,-110.0,-91.0,-110.0,-110.0,-110.0,-110.0,-86.0,-110.0,-1.0,-1.0,-1.0,-1.0,2462.0,-1.0,2427.0,2437.0,2422.0,2437.0,5220.0,5220.0,-1.0,-1.0,2437.0,-1.0,-1.0,-1.0,-1.0,2462.0,-1.0,-1.0,-1.0,-1.0,2462.0,-1.0,49.461282667648,11.111404024309,-2.0
3.703,17021.9525,8.35362,-9.41189,14.96422,0.84968,-2.75342,-5.56498,-37.0,8.9,-16.0,-110.0,-83.0,-110.0,-110.0,-110.0,-110.0,-110.0,-84.0,-110.0,-82.0,-79.0,-86.0,-74.0,-91.0,-89.0,-110.0,-110.0,-89.0,-110.0,-110.0,-110.0,-110.0,-91.0,-110.0,-110.0,-110.0,-110.0,-86.0,-110.0,-1.0,-1.0,-1.0,-1.0,2462.0,-1.0,2427.0,2437.0,2422.0,2437.0,5220.0,5220.0,-1.0,-1.0,2437.0,-1.0,-1.0,-1.0,-1.0,2462.0,-1.0,-1.0,-1.0,-1.0,2462.0,-1.0,49.461282667648,11.111404024309,-2.0
3.7263,17021.9726,9.05515,-9.37119,16.00094,1.2443,-2.37896,-5.50817,-34.3,3.6,-15.3,-110.0,-83.0,-110.0,-110.0,-110.0,-110.0,-110.0,-84.0,-110.0,-82.0,-79.0,-86.0,-74.0,-91.0,-89.0,-110.0,-110.0,-89.0,-110.0,-110.0,-110.0,-110.0,-91.0,-110.0,-110.0,-110.0,-110.0,-86.0,-110.0,-1.0,-1.0,-1.0,-1.0,2462.0,-1.0,2427.0,2437.0,2422.0,2437.0,5220.0,5220.0,-1.0,-1.0,2437.0,-1.0,-1.0,-1.0,-1.0,2462.0,-1.0,-1.0,-1.0,-1.0,2462.0,-1.0,49.461282667648,11.111404024309,-2.0
3.7411,17021.9926,9.34725,-9.01205,16.75035,2.07935,-2.36125,-5.62485,-34.5,-3.0,-10.2,-110.0,-83.0,-110.0,-110.0,-110.0,-110.0,-110.0,-84.0,-110.0,-82.0,-79.0,-86.0,-74.0,-91.0,-89.0,-110.0,-110.0,-89.0,-110.0,-110.0,-110.0,-110.0,-91.0,-110.0,-110.0,-110.0,-110.0,-86.0,-110.0,-1.0,-1.0,-1.0,-1.0,2462.0,-1.0,2427.0,2437.0,2422.0,2437.0,5220.0,5220.0,-1.0,-1.0,2437.0,-1.0,-1.0,-1.0,-1.0,2462.0,-1.0,-1.0,-1.0,-1.0,2462.0,-1.0,49.461282667648,11.111404024309,-2.0
3.7674,17022.0126,8.98332,-8.22912,16.59472,2.51795,-2.39546,-5.49168,-39.1,-6.3,-10.2,-110.0,-83.0,-110.0,-110.0,-110.0,-110.0,-110.0,-84.0,-110.0,-82.0,-79.0,-86.0,-74.0,-91.0,-89.0,-110.0,-110.0,-89.0,-110.0,-110.0,-110.0,-110.0,-91.0,-110.0,-110.0,-110.0,-110.0,-86.0,-110.0,-1.0,-1.0,-1.0,-1.0,2462.0,-1.0,2427.0,2437.0,2422.0,2437.0,5220.0,5220.0,-1.0,-1.0,2437.0,-1.0,-1.0,-1.0,-1.0,2462.0,-1.0,-1.0,-1.0,-1.0,2462.0,-1.0,49.461282667648,11.111404024309,-2.0
3.7889,17022.0326,8.62897,-7.1086,16.02967,2.63707,-2.12484,-5.10134,-34.1,-11.2,-6.6,-110.0,-83.0,-110.0,-110.0,-110.0,-110.0,-110.0,-84.0,-110.0,-82.0,-79.0,-86.0,-74.0,-91.0,-89.0,-110.0,-110.0,-89.0,-110.0,-110.0,-110.0,-110.0,-91.0,-110.0,-110.0,-110.0,-110.0,-86.0,-110.0,-1.0,-1.0,-1.0,-1.0,2462.0,-1.0,2427.0,2437.0,2422.0,2437.0,5220.0,5220.0,-1.0,-1.0,2437.0,-1.0,-1.0,-1.0,-1.0,2462.0,-1.0,-1.0,-1.0,-1.0,2462.0,-1.0,49.461282667648,11.111404024309,-2.0
3.8043,17022.0526,8.66488,-5.82048,15.3473,2.78673,-2.0772,-4.83866,-34.7,-17.2,-3.0,-110.0,-83.0,-110.0,-110.0,-110.0,-110.0,-110.0,-84.0,-110.0,-82.0,-79.0,-86.0,-74.0,-91.0,-89.0,-110.0,-110.0,-89.0,-110.0,-110.0,-110.0,-110.0,-91.0,-110.0,-110.0,-110.0,-110.0,-86.0,-110.0,-1.0,-1.0,-1.0,-1.0,2462.0,-1.0,2427.0,2437.0,2422.0,2437.0,5220.0,5220.0,-1.0,-1.0,2437.0,-1.0,-1.0,-1.0,-1.0,2462.0,-1.0,-1.0,-1.0,-1.0,2462.0,-1.0,49.461282667648,11.111404024309,-2.0
3.8243,17022.0726,8.43742,-4.53236,15.63222,3.05307,-2.48586,-4.78735,-32.9,-20.1,-1.6,-110.0,-83.0,-110.0,-110.0,-110.0,-110.0,-110.0,-84.0,-110.0,-82.0,-79.0,-86.0,-74.0,-91.0,-89.0,-110.0,-110.0,-89.0,-110.0,-110.0,-110.0,-110.0,-91.0,-110.0,-110.0,-110.0,-110.0,-86.0,-110.0,-1.0,-1.0,-1.0,-1.0,2462.0,-1.0,2427.0,2437.0,2422.0,2437.0,5220.0,5220.0,-1.0,-1.0,2437.0,-1.0,-1.0,-1.0,-1.0,2462.0,-1.0,-1.0,-1.0,-1.0,2462.0,-1.0,49.461282667648,11.111404024309,-2.0
3.846,17022.0926,8.42066,-3.24185,16.8102,4.05733,-3.39911,-4.89731,-32.0,-23.3,1.2,-110.0,-83.0,-110.0,-110.0,-110.0,-110.0,-110.0,-84.0,-110.0,-82.0,-79.0,-86.0,-74.0,-91.0,-89.0,-110.0,-110.0,-89.0,-110.0,-110.0,-110.0,-110.0,-91.0,-110.0,-110.0,-110.0,-110.0,-86.0,-110.0,-1.0,-1.0,-1.0,-1.0,2462.0,-1.0,2427.0,2437.0,2422.0,2437.0,5220.0,5220.0,-1.0,-1.0,2437.0,-1.0,-1.0,-1.0,-1.0,2462.0,-1.0,-1.0,-1.0,-1.0,2462.0,-1.0,49.461282667648,11.111404024309,-2.0
3.8639,17022.1126,7.67126,-2.33681,15.79264,4.96202,-3.24883,-4.88142,-29.4,-26.7,4.7,-110.0,-83.0,-110.0,-110.0,-110.0,-110.0,-110.0,-84.0,-110.0,-82.0,-79.0,-86.0,-74.0,-91.0,-89.0,-110.0,-110.0,-89.0,-110.0,-110.0,-110.0,-110.0,-91.0,-110.0,-110.0,-110.0,-110.0,-86.0,-110.0,-1.0,-1.0,-1.0,-1.0,2462.0,-1.0,2427.0,2437.0,2422.0,2437.0,5220.0,5220.0,-1.0,-1.0,2437.0,-1.0,-1.0,-1.0,-1.0,2462.0,-1.0,-1.0,-1.0,-1.0,2462.0,-1.0,49.461282667648,11.111404024309,-2.0
3.8992,17022.1326,6.32567,-1.36713,13.10865,4.67553,-2.80168,-4.40495,-26.9,-27.9,8.6,-110.0,-83.0,-110.0,-110.0,-110.0,-110.0,-110.0,-84.0,-110.0,-82.0,-79.0,-86.0,-74.0,-91.0,-89.0,-110.0,-110.0,-89.0,-110.0,-110.0,-110.0,-110.0,-91.0,-110.0,-110.0,-110.0,-110.0,-86.0,-110.0,-1.0,-1.0,-1.0,-1.0,2462.0,-1.0,2427.0,2437.0,2422.0,2437.0,5220.0,5220.0,-1.0,-1.0,2437.0,-1.0,-1.0,-1.0,-1.0,2462.0,-1.0,-1.0,-1.0,-1.0,2462.0,-1.0,49.461282667648,11.111404024309,-2.0
3.9123,17022.1525,4.74785,-0.22027,11.27943,4.15324,-2.69173,-3.64381,-26.9,-29.0,11.2,-110.0,-83.0,-110.0,-110.0,-110.0,-110.0,-110.0,-84.0,-110.0,-82.0,-79.0,-86.0,-74.0,-91.0,-89.0,-110.0,-110.0,-89.0,-110.0,-110.0,-110.0,-110.0,-91.0,-110.0,-110.0,-110.0,-110.0,-86.0,-110.0,-1.0,-1.0,-1.0,-1.0,2462.0,-1.0,2427.0,2437.0,2422.0,2437.0,5220.0,5220.0,-1.0,-1.0,2437.0,-1.0,-1.0,-1.0,-1.0,2462.0,-1.0,-1.0,-1.0,-1.0,2462.0,-1.0,49.461282667648,11.111404024309,-2.0
3.9216,17022.1725,4.00562,0.92898,10.66889,4.24487,-2.92874,-3.04394,-24.3,-29.5,16.0,-110.0,-83.0,-110.0,-110.0,-110.0,-110.0,-110.0,-84.0,-110.0,-82.0,-79.0,-86.0,-74.0,-91.0,-89.0,-110.0,-110.0,-89.0,-110.0,-110.0,-110.0,-110.0,-91.0,-110.0,-110.0,-110.0,-110.0,-86.0,-110.0,-1.0,-1.0,-1.0,-1.0,2462.0,-1.0,2427.0,2437.0,2422.0,2437.0,5220.0,5220.0,-1.0,-1.0,2437.0,-1.0,-1.0,-1.0,-1.0,2462.0,-1.0,-1.0,-1.0,-1.0,2462.0,-1.0,49.461282667648,11.111404024309,-2.0
3.9461,17022.1925,4.00323,1.86753,9.95061,4.65781,-3.00266,-2.73301,-22.6,-29.2,18.5,-110.0,-83.0,-110.0,-110.0,-110.0,-110.0,-110.0,-84.0,-110.0,-82.0,-79.0,-86.0,-74.0,-91.0,-89.0,-110.0,-110.0,-89.0,-110.0,-110.0,-110.0,-110.0,-91.0,-110.0,-110.0,-110.0,-110.0,-86.0,-110.0,-1.0,-1.0,-1.0,-1.0,2462.0,-1.0,2427.0,2437.0,2422.0,2437.0,5220.0,5220.0,-1.0,-1.0,2437.0,-1.0,-1.0,-1.0,-1.0,2462.0,-1.0,-1.0,-1.0,-1.0,2462.0,-1.0,49.461282667648,11.111404024309,-2.0
3.9631,17022.2125,3.97689,2.48047,8.7415,4.92171,-3.21035,-2.63161,-19.1,-28.3,22.1,-110.0,-83.0,-110.0,-110.0,-110.0,-110.0,-110.0,-84.0,-110.0,-82.0,-79.0,-86.0,-74.0,-91.0,-89.0,-110.0,-110.0,-89.0,-110.0,-110.0,-110.0,-110.0,-91.0,-110.0,-110.0,-110.0,-110.0,-86.0,-110.0,-1.0,-1.0,-1.0,-1.0,2462.0,-1.0,2427.0,2437.0,2422.0,2437.0,5220.0,5220.0,-1.0,-1.0,2437.0,-1.0,-1.0,-1.0,-1.0,2462.0,-1.0,-1.0,-1.0,-1.0,2462.0,-1.0,49.461282667648,11.111404024309,-2.0
3.9828,17022.2325,3.28973,2.79891,7.61858,5.28884,-3.48585,-2.30724,-18.2,-25.0,24.9,-110.0,-83.0,-110.0,-110.0,-110.0,-110.0,-110.0,-84.0,-110.0,-82.0,-79.0,-86.0,-74.0,-91.0,-89.0,-110.0,-110.0,-89.0,-110.0,-110.0,-110.0,-110.0,-91.0,-110.0,-110.0,-110.0,-110.0,-86.0,-110.0,-1.0,-1.0,-1.0,-1.0,2462.0,-1.0,2427.0,2437.0,2422.0,2437.0,5220.0,5220.0,-1.0,-1.0,2437.0,-1.0,-1.0,-1.0,-1.0,2462.0,-1.0,-1.0,-1.0,-1.0,2462.0,-1.0,49.461282667648,11.111404024309,-2.0
4.001,17022.2525,2.12612,2.85637,6.63214,5.5509,-3.37895,-1.75135,-16.0,-22.4,28.7,-110.0,-83.0,-110.0,-110.0,-110.0,-110.0,-110.0,-84.0,-110.0,-82.0,-79.0,-86.0,-74.0,-91.0,-89.0,-110.0,-110.0,-89.0,-110.0,-110.0,-110.0,-110.0,-91.0,-110.0,-110.0,-110.0,-110.0,-86.0,-110.0,-1.0,-1.0,-1.0,-1.0,2462.0,-1.0,2427.0,2437.0,2422.0,2437.0,5220.0,5220.0,-1.0,-1.0,2437.0,-1.0,-1.0,-1.0,-1.0,2462.0,-1.0,-1.0,-1.0,-1.0,2462.0,-1.0,49.461282667648,11.111404024309,-2.0
4.0233,17022.2725,1.22108,2.59539,5.64809,5.86427,-2.86216,-1.19058,-13.8,-19.4,32.1,-110.0,-83.0,-110.0,-110.0,-110.0,-110.0,-110.0,-84.0,-110.0,-82.0,-79.0,-86.0,-74.0,-91.0,-89.0,-110.0,-110.0,-89.0,-110.0,-110.0,-110.0,-110.0,-91.0,-110.0,-110.0,-110.0,-110.0,-86.0,-110.0,-1.0,-1.0,-1.0,-1.0,2462.0,-1.0,2427.0,2437.0,2422.0,2437.0,5220.0,5220.0,-1.0,-1.0,2437.0,-1.0,-1.0,-1.0,-1.0,2462.0,-1.0,-1.0,-1.0,-1.0,2462.0,-1.0,49.461282667648,11.111404024309,-2.0
4.0413,17022.2925,0.74223,2.10696,3.93379,6.0964,-2.156,-0.61331,-12.0,-14.8,35.6,-110.0,-83.0,-110.0,-110.0,-110.0,-110.0,-110.0,-84.0,-110.0,-82.0,-79.0,-86.0,-74.0,-91.0,-89.0,-110.0,-110.0,-89.0,-110.0,-110.0,-110.0,-110.0,-91.0,-110.0,-110.0,-110.0,-110.0,-86.0,-110.0,-1.0,-1.0,-1.0,-1.0,2462.0,-1.0,2427.0,2437.0,2422.0,2437.0,5220.0,5220.0,-1.0,-1.0,2437.0,-1.0,-1.0,-1.0,-1.0,2462.0,-1.0,-1.0,-1.0,-1.0,2462.0,-1.0,49.461282667648,11.111404024309,-2.0
4.064,17022.3125,1.18277,1.62811,1.01757,5.7873,-1.73817,-0.36102,-10.8,-11.1,36.7,-110.0,-80.0,-110.0,-110.0,-110.0,-110.0,-110.0,-84.0,-110.0,-82.0,-79.0,-86.0,-74.0,-91.0,-89.0,-110.0,-110.0,-89.0,-110.0,-110.0,-110.0,-110.0,-91.0,-110.0,-110.0,-110.0,-110.0,-86.0,-110.0,-1.0,-1.0,-1.0,-1.0,2462.0,-1.0,2427.0,2437.0,2422.0,2437.0,5220.0,5220.0,-1.0,-1.0,2437.0,-1.0,-1.0,-1.0,-1.0,2462.0,-1.0,-1.0,-1.0,-1.0,2462.0,-1.0,49.461282667648,11.111404024309,-2.0
4.0904,17022.3325,1.38629,1.2546,-0.44055,5.11413,-1.13952,-0.02749,-9.4,-7.4,37.7,-110.0,-80.0,-110.0,-110.0,-110.0,-110.0,-110.0,-84.0,-110.0,-82.0,-79.0,-86.0,-74.0,-91.0,-89.0,-110.0,-110.0,-89.0,-110.0,-110.0,-110.0,-110.0,-91.0,-110.0,-110.0,-110.0,-110.0,-86.0,-110.0,-1.0,-1.0,-1.0,-1.0,2462.0,-1.0,2427.0,2437.0,2422.0,2437.0,5220.0,5220.0,-1.0,-1.0,2437.0,-1.0,-1.0,-1.0,-1.0,2462.0,-1.0,-1.0,-1.0,-1.0,2462.0,-1.0,49.461282667648,11.111404024309,-2.0
4.1038,17022.3525,1.24023,0.73025,-0.19872,5.23264,-0.67526,0.17776,-9.1,-3.9,37.2,-110.0,-80.0,-110.0,-110.0,-110.0,-110.0,-110.0,-84.0,-110.0,-82.0,-79.0,-86.0,-74.0,-91.0,-89.0,-110.0,-110.0,-89.0,-110.0,-110.0,-110.0,-110.0,-91.0,-110.0,-110.0,-110.0,-110.0,-86.0,-110.0,-1.0,-1.0,-1.0,-1.0,2462.0,-1.0,2427.0,2437.0,2422.0,2437.0,5220.0,5220.0,-1.0,-1.0,2437.0,-1.0,-1.0,-1.0,-1.0,2462.0,-1.0,-1.0,-1.0,-1.0,2462.0,-1.0,49.461282667648,11.111404024309,-2.0
4.1297,17022.3725,0.93377,-0.08619,0.03352,6.04631,-0.29408,0.60476,-8.5,-0.2,37.5,-110.0,-80.0,-110.0,-110.0,-110.0,-110.0,-110.0,-84.0,-110.0,-82.0,-79.0,-86.0,-74.0,-91.0,-89.0,-110.0,-110.0,-89.0,-110.0,-110.0,-110.0,-110.0,-91.0,-110.0,-110.0,-110.0,-110.0,-86.0,-110.0,-1.0,-1.0,-1.0,-1.0,2462.0,-1.0,2427.0,2437.0,2422.0,2437.0,5220.0,5220.0,-1.0,-1.0,2437.0,-1.0,-1.0,-1.0,-1.0,2462.0,-1.0,-1.0,-1.0,-1.0,2462.0,-1.0,49.461282667648,11.111404024309,-2.0
4.1458,17022.3926,1.23545,-0.88588,-1.21869,6.44704,-0.48895,0.55955,-8.1,4.2,35.1,-110.0,-80.0,-110.0,-110.0,-110.0,-110.0,-110.0,-84.0,-110.0,-82.0,-79.0,-86.0,-74.0,-91.0,-89.0,-110.0,-110.0,-89.0,-110.0,-110.0,-110.0,-110.0,-91.0,-110.0,-110.0,-110.0,-110.0,-86.0,-110.0,-1.0,-1.0,-1.0,-1.0,2462.0,-1.0,2427.0,2437.0,2422.0,2437.0,5220.0,5220.0,-1.0,-1.0,2437.0,-1.0,-1.0,-1.0,-1.0,2462.0,-1.0,-1.0,-1.0,-1.0,2462.0,-1.0,49.461282667648,11.111404024309,-2.0
4.1661,17022.4126,1.79092,-1.42938,-2.78215,6.27538,-0.75589,0.2529,-6.8,9.6,36.1,-110.0,-80.0,-110.0,-110.0,-110.0,-110.0,-110.0,-84.0,-110.0,-82.0,-79.0,-86.0,-74.0,-91.0,-89.0,-110.0,-110.0,-89.0,-110.0,-110.0,-110.0,-110.0,-91.0,-110.0,-110.0,-110.0,-110.0,-86.0,-110.0,-1.0,-1.0,-1.0,-1.0,2462.0,-1.0,2427.0,2437.0,2422.0,2437.0,5220.0,5220.0,-1.0,-1.0,2437.0,-1.0,-1.0,-1.0,-1.0,2462.0,-1.0,-1.0,-1.0,-1.0,2462.0,-1.0,49.461282667648,11.111404024309,-2.0
4.1858,17022.4326,1.68557,-2.45653,-3.47888,6.16543,-0.95565,0.13683,-7.4,13.8,32.4,-110.0,-80.0,-110.0,-110.0,-110.0,-110.0,-110.0,-84.0,-110.0,-82.0,-79.0,-86.0,-74.0,-91.0,-89.0,-110.0,-110.0,-89.0,-110.0,-110.0,-110.0,-110.0,-91.0,-110.0,-110.0,-110.0,-110.0,-86.0,-110.0,-1.0,-1.0,-1.0,-1.0,2462.0,-1.0,2427.0,2437.0,2422.0,2437.0,5220.0,5220.0,-1.0,-1.0,2437.0,-1.0,-1.0,-1.0,-1.0,2462.0,-1.0,-1.0,-1.0,-1.0,2462.0,-1.0,49.461282667648,11.111404024309,-2.0
4.2176,17022.4527,1.38629,-4.16364,-3.06946,6.3945,-1.00024,0.22724,-5.1,21.0,31.3,-110.0,-80.0,-110.0,-110.0,-110.0,-110.0,-110.0,-84.0,-110.0,-82.0,-79.0,-86.0,-74.0,-91.0,-89.0,-110.0,-110.0,-89.0,-110.0,-110.0,-110.0,-110.0,-91.0,-110.0,-110.0,-110.0,-110.0,-86.0,-110.0,-1.0,-1.0,-1.0,-1.0,2462.0,-1.0,2427.0,2437.0,2422.0,2437.0,5220.0,5220.0,-1.0,-1.0,2437.0,-1.0,-1.0,-1.0,-1.0,2462.0,-1.0,-1.0,-1.0,-1.0,2462.0,-1.0,49.461282667648,11.111404024309,-2.0
4.2295,17022.4728,1.69036,-5.95935,-2.66962,6.97177,-0.24704,0.34208,-5.4,25.5,29.7,-110.0,-80.0,-110.0,-110.0,-110.0,-110.0,-110.0,-84.0,-110.0,-82.0,-79.0,-86.0,-74.0,-91.0,-89.0,-110.0,-110.0,-89.0,-110.0,-110.0,-110.0,-110.0,-91.0,-110.0,-110.0,-110.0,-110.0,-86.0,-110.0,-1.0,-1.0,-1.0,-1.0,2462.0,-1.0,2427.0,2437.0,2422.0,2437.0,5220.0,5220.0,-1.0,-1.0,2437.0,-1.0,-1.0,-1.0,-1.0,2462.0,-1.0,-1.0,-1.0,-1.0,2462.0,-1.0,49.461282667648,11.111404024309,-2.0
4.243,17022.4928,2.64567,-7.35521,-3.45015,7.30652,0.68147,0.1069,-4.5,30.2,23.2,-110.0,-80.0,-110.0,-110.0,-110.0,-110.0,-110.0,-84.0,-110.0,-82.0,-79.0,-86.0,-74.0,-91.0,-89.0,-110.0,-110.0,-89.0,-110.0,-110.0,-110.0,-110.0,-91.0,-110.0,-110.0,-110.0,-110.0,-86.0,-110.0,-1.0,-1.0,-1.0,-1.0,2462.0,-1.0,2427.0,2437.0,2422.0,2437.0,5220.0,5220.0,-1.0,-1.0,2437.0,-1.0,-1.0,-1.0,-1.0,2462.0,-1.0,-1.0,-1.0,-1.0,2462.0,-1.0,49.461282667648,11.111404024309,-2.0
4.2647,17022.5129,3.71591,-8.31532,-4.88193,7.13548,1.31677,-0.18509,-4.0,33.7,21.0,-110.0,-80.0,-110.0,-110.0,-110.0,-110.0,-110.0,-84.0,-110.0,-82.0,-79.0,-86.0,-74.0,-91.0,-89.0,-110.0,-110.0,-89.0,-110.0,-110.0,-110.0,-110.0,-91.0,-110.0,-110.0,-110.0,-110.0,-86.0,-110.0,-1.0,-1.0,-1.0,-1.0,2462.0,-1.0,2427.0,2437.0,2422.0,2437.0,5220.0,5220.0,-1.0,-1.0,2437.0,-1.0,-1.0,-1.0,-1.0,2462.0,-1.0,-1.0,-1.0,-1.0,2462.0,-1.0,49.461282667648,11.111404024309,-2.0
4.2842,17022.533,5.28177,-8.90431,-5.78936,6.82577,1.42123,-0.6805,-6.4,35.5,15.0,-110.0,-80.0,-110.0,-110.0,-110.0,-110.0,-110.0,-84.0,-110.0,-82.0,-79.0,-86.0,-74.0,-91.0,-89.0,-110.0,-110.0,-89.0,-110.0,-110.0,-110.0,-110.0,-91.0,-110.0,-110.0,-110.0,-110.0,-86.0,-110.0,-1.0,-1.0,-1.0,-1.0,2462.0,-1.0,2427.0,2437.0,2422.0,2437.0,5220.0,5220.0,-1.0,-1.0,2437.0,-1.0,-1.0,-1.0,-1.0,2462.0,-1.0,-1.0,-1.0,-1.0,2462.0,-1.0,49.461282667648,11.111404024309,-2.0
4.3058,17022.553,6.79016,-9.85723,-6.25863,6.5686,1.50125,-1.62918,-6.6,36.6,10.2,-110.0,-80.0,-110.0,-110.0,-110.0,-110.0,-110.0,-84.0,-110.0,-82.0,-79.0,-86.0,-74.0,-91.0,-89.0,-110.0,-110.0,-89.0,-110.0,-110.0,-110.0,-110.0,-91.0,-110.0,-110.0,-110.0,-110.0,-86.0,-110.0,-1.0,-1.0,-1.0,-1.0,2462.0,-1.0,2427.0,2437.0,2422.0,2437.0,5220.0,5220.0,-1.0,-1.0,2437.0,-1.0,-1.0,-1.0,-1.0,2462.0,-1.0,-1.0,-1.0,-1.0,2462.0,-1.0,49.461282667648,11.111404024309,-2.0
4.3251,17022.5731,8.05434,-10.99212,-6.62256,6.23568,1.85861,-2.32373,-8.8,37.5,6.4,-110.0,-80.0,-110.0,-110.0,-110.0,-110.0,-110.0,-84.0,-110.0,-82.0,-79.0,-86.0,-74.0,-91.0,-89.0,-110.0,-110.0,-89.0,-110.0,-110.0,-110.0,-110.0,-91.0,-110.0,-110.0,-110.0,-110.0,-86.0,-110.0,-1.0,-1.0,-1.0,-1.0,2462.0,-1.0,2427.0,2437.0,2422.0,2437.0,5220.0,5220.0,-1.0,-1.0,2437.0,-1.0,-1.0,-1.0,-1.0,2462.0,-1.0,-1.0,-1.0,-1.0,2462.0,-1.0,49.461282667648,11.111404024309,-2.0
4.3481,17022.5931,9.27542,-11.90433,-6.66087,5.75431,2.36746,-2.90955,-6.7,35.5,2.4,-110.0,-80.0,-110.0,-87.0,-110.0,-46.0,-87.0,-110.0,-110.0,-83.0,-75.0,-82.0,-67.0,-87.0,-110.0,-82.0,-110.0,-83.0,-110.0,-110.0,-110.0,-110.0,-110.0,-110.0,-110.0,-110.0,-110.0,-90.0,-110.0,2437.0,-1.0,2417.0,2452.0,-1.0,-1.0,2427.0,2437.0,2422.0,2437.0,5220.0,-1.0,2462.0,-1.0,2437.0,-1.0,-1.0,-1.0,-1.0,-1.0,-1.0,-1.0,-1.0,-1.0,2462.0,-1.0,49.461282667648,11.111404024309,-2.0
4.3617,17022.6132,10.33848,-12.67529,-6.32807,5.41651,2.69977,-3.54485,-8.2,34.4,-2.3,-110.0,-80.0,-110.0,-87.0,-110.0,-46.0,-87.0,-110.0,-110.0,-83.0,-75.0,-82.0,-67.0,-87.0,-110.0,-82.0,-110.0,-83.0,-110.0,-110.0,-110.0,-110.0,-110.0,-110.0,-110.0,-110.0,-110.0,-90.0,-110.0,2437.0,-1.0,2417.0,2452.0,-1.0,-1.0,2427.0,2437.0,2422.0,2437.0,5220.0,-1.0,2462.0,-1.0,2437.0,-1.0,-1.0,-1.0,-1.0,-1.0,-1.0,-1.0,-1.0,-1.0,2462.0,-1.0,49.461282667648,11.111404024309,-2.0
4.3951,17022.6333,11.00888,-13.40315,-5.85879,5.02739,2.70405,-4.00972,-14.3,34.0,-10.6,-110.0,-80.0,-110.0,-87.0,-110.0,-46.0,-87.0,-110.0,-110.0,-83.0,-75.0,-82.0,-67.0,-87.0,-110.0,-82.0,-110.0,-83.0,-110.0,-110.0,-110.0,-110.0,-110.0,-110.0,-110.0,-110.0,-110.0,-90.0,-110.0,2437.0,-1.0,2417.0,2452.0,-1.0,-1.0,2427.0,2437.0,2422.0,2437.0,5220.0,-1.0,2462.0,-1.0,2437.0,-1.0,-1.0,-1.0,-1.0,-1.0,-1.0,-1.0,-1.0,-1.0,2462.0,-1.0,49.461282667648,11.111404024309,-2.0
4.4044,17022.6533,11.5021,-13.97538,-4.9346,4.62971,2.45787,-4.23941,-13.2,29.9,-11.9,-110.0,-80.0,-110.0,-87.0,-110.0,-46.0,-87.0,-110.0,-110.0,-83.0,-75.0,-82.0,-67.0,-87.0,-110.0,-82.0,-110.0,-83.0,-110.0,-110.0,-110.0,-110.0,-110.0,-110.0,-110.0,-110.0,-110.0,-90.0,-110.0,2437.0,-1.0,2417.0,2452.0,-1.0,-1.0,2427.0,2437.0,2422.0,2437.0,5220.0,-1.0,2462.0,-1.0,2437.0,-1.0,-1.0,-1.0,-1.0,-1.0,-1.0,-1.0,-1.0,-1.0,2462.0,-1.0,49.461282667648,11.111404024309,-2.0
4.4234,17022.6734,12.22517,-14.25312,-3.56508,4.30351,2.18725,-4.43122,-15.3,28.9,-18.2,-110.0,-80.0,-110.0,-87.0,-110.0,-46.0,-87.0,-110.0,-110.0,-83.0,-75.0,-82.0,-67.0,-87.0,-110.0,-82.0,-110.0,-83.0,-110.0,-110.0,-110.0,-110.0,-110.0,-110.0,-110.0,-110.0,-110.0,-90.0,-110.0,2437.0,-1.0,2417.0,2452.0,-1.0,-1.0,2427.0,2437.0,2422.0,2437.0,5220.0,-1.0,2462.0,-1.0,2437.0,-1.0,-1.0,-1.0,-1.0,-1.0,-1.0,-1.0,-1.0,-1.0,2462.0,-1.0,49.461282667648,11.111404024309,-2.0
4.4445,17022.6934,13.37442,-14.39199,-1.87232,4.24609,2.00766,-4.76047,-16.0,23.8,-18.9,-110.0,-80.0,-110.0,-87.0,-110.0,-46.0,-87.0,-110.0,-110.0,-83.0,-75.0,-82.0,-67.0,-87.0,-110.0,-82.0,-110.0,-83.0,-110.0,-110.0,-110.0,-110.0,-110.0,-110.0,-110.0,-110.0,-110.0,-90.0,-110.0,2437.0,-1.0,2417.0,2452.0,-1.0,-1.0,2427.0,2437.0,2422.0,2437.0,5220.0,-1.0,2462.0,-1.0,2437.0,-1.0,-1.0,-1.0,-1.0,-1.0,-1.0,-1.0,-1.0,-1.0,2462.0,-1.0,49.461282667648,11.111404024309,-2.0
4.4634,17022.7135,14.52128,-14.23875,-0.63448,4.38659,2.12739,-5.16853,-17.9,17.4,-25.3,-110.0,-80.0,-110.0,-87.0,-110.0,-46.0,-87.0,-110.0,-110.0,-83.0,-75.0,-82.0,-67.0,-87.0,-110.0,-82.0,-110.0,-83.0,-110.0,-110.0,-110.0,-110.0,-110.0,-110.0,-110.0,-110.0,-110.0,-90.0,-110.0,2437.0,-1.0,2417.0,2452.0,-1.0,-1.0,2427.0,2437.0,2422.0,2437.0,5220.0,-1.0,2462.0,-1.0,2437.0,-1.0,-1.0,-1.0,-1.0,-1.0,-1.0,-1.0,-1.0,-1.0,2462.0,-1.0,49.461282667648,11.111404024309,-2.0
4.4825,17022.7336,15.00731,-13.92271,-0.34478,4.17279,2.35219,-5.46114,-17.7,13.1,-23.8,-110.0,-80.0,-110.0,-87.0,-110.0,-46.0,-87.0,-110.0,-110.0,-83.0,-75.0,-82.0,-67.0,-87.0,-110.0,-82.0,-110.0,-83.0,-110.0,-110.0,-110.0,-110.0,-110.0,-110.0,-110.0,-110.0,-110.0,-90.0,-110.0,2437.0,-1.0,2417.0,2452.0,-1.0,-1.0,2427.0,2437.0,2422.0,2437.0,5220.0,-1.0,2462.0,-1.0,2437.0,-1.0,-1.0,-1.0,-1.0,-1.0,-1.0,-1.0,-1.0,-1.0,2462.0,-1.0,49.461282667648,11.111404024309,-2.0
4.5139,17022.7536,14.90436,-13.26907,-0.08859,3.80871,2.45298,-5.56437,-17.5,7.3,-28.8,-110.0,-80.0,-110.0,-87.0,-110.0,-46.0,-87.0,-110.0,-110.0,-83.0,-75.0,-82.0,-67.0,-87.0,-110.0,-82.0,-110.0,-83.0,-110.0,-110.0,-110.0,-110.0,-110.0,-110.0,-110.0,-110.0,-110.0,-90.0,-110.0,2437.0,-1.0,2417.0,2452.0,-1.0,-1.0,2427.0,2437.0,2422.0,2437.0,5220.0,-1.0,2462.0,-1.0,2437.0,-1.0,-1.0,-1.0,-1.0,-1.0,-1.0,-1.0,-1.0,-1.0,2462.0,-1.0,49.461282667648,11.111404024309,-2.0
4.5258,17022.7737,14.56437,-12.2515,0.06465,3.62117,2.12189,-5.656,-18.7,3.8,-33.0,-110.0,-80.0,-110.0,-87.0,-110.0,-46.0,-87.0,-110.0,-110.0,-83.0,-75.0,-82.0,-67.0,-87.0,-110.0,-82.0,-110.0,-83.0,-110.0,-110.0,-110.0,-110.0,-110.0,-110.0,-110.0,-110.0,-110.0,-90.0,-110.0,2437.0,-1.0,2417.0,2452.0,-1.0,-1.0,2427.0,2437.0,2422.0,2437.0,5220.0,-1.0,2462.0,-1.0,2437.0,-1.0,-1.0,-1.0,-1.0,-1.0,-1.0,-1.0,-1.0,-1.0,2462.0,-1.0,49.461282667648,11.111404024309,-2.0
4.5502,17022.7938,13.97538,-10.88198,-0.15802,3.29925,1.75965,-5.82338,-17.9,-0.6,-35.0,-110.0,-80.0,-110.0,-87.0,-110.0,-46.0,-87.0,-110.0,-110.0,-83.0,-75.0,-82.0,-67.0,-87.0,-110.0,-82.0,-110.0,-83.0,-110.0,-110.0,-110.0,-110.0,-110.0,-110.0,-110.0,-110.0,-110.0,-90.0,-110.0,2437.0,-1.0,2417.0,2452.0,-1.0,-1.0,2427.0,2437.0,2422.0,2437.0,5220.0,-1.0,2462.0,-1.0,2437.0,-1.0,-1.0,-1.0,-1.0,-1.0,-1.0,-1.0,-1.0,-1.0,2462.0,-1.0,49.461282667648,11.111404024309,-2.0
4.5657,17022.8138,13.15893,-9.66808,-0.28731,2.79284,1.70284,-5.86675,-16.4,-4.5,-35.0,-110.0,-80.0,-110.0,-87.0,-110.0,-46.0,-87.0,-110.0,-110.0,-83.0,-75.0,-82.0,-67.0,-87.0,-110.0,-82.0,-110.0,-83.0,-110.0,-110.0,-110.0,-110.0,-110.0,-110.0,-110.0,-110.0,-110.0,-90.0,-110.0,2437.0,-1.0,2417.0,2452.0,-1.0,-1.0,2427.0,2437.0,2422.0,2437.0,5220.0,-1.0,2462.0,-1.0,2437.0,-1.0,-1.0,-1.0,-1.0,-1.0,-1.0,-1.0,-1.0,-1.0,2462.0,-1.0,49.461282667648,11.111404024309,-2.0
4.5867,17022.8339,12.20841,-8.42545,-0.05028,2.30904,1.97528,-5.71709,-16.9,-7.0,-36.3,-110.0,-80.0,-110.0,-87.0,-110.0,-46.0,-87.0,-110.0,-110.0,-83.0,-75.0,-82.0,-67.0,-87.0,-110.0,-82.0,-110.0,-83.0,-110.0,-110.0,-110.0,-110.0,-110.0,-110.0,-110.0,-110.0,-110.0,-90.0,-110.0,2437.0,-1.0,2417.0,2452.0,-1.0,-1.0,2427.0,2437.0,2422.0,2437.0,5220.0,-1.0,2462.0,-1.0,2437.0,-1.0,-1.0,-1.0,-1.0,-1.0,-1.0,-1.0,-1.0,-1.0,2462.0,-1.0,49.461282667648,11.111404024309,-2.0
4.6039,17022.8539,11.44703,-6.98889,0.3783,1.91564,2.18359,-5.62607,-14.9,-10.1,-37.9,-110.0,-80.0,-110.0,-87.0,-110.0,-46.0,-87.0,-110.0,-110.0,-83.0,-75.0,-82.0,-67.0,-87.0,-110.0,-82.0,-110.0,-83.0,-110.0,-110.0,-110.0,-110.0,-110.0,-110.0,-110.0,-110.0,-110.0,-90.0,-110.0,2437.0,-1.0,2417.0,2452.0,-1.0,-1.0,2427.0,2437.0,2422.0,2437.0,5220.0,-1.0,2462.0,-1.0,2437.0,-1.0,-1.0,-1.0,-1.0,-1.0,-1.0,-1.0,-1.0,-1.0,2462.0,-1.0,49.461282667648,11.111404024309,-2.0
4.6257,17022.874,10.69523,-5.40148,0.75899,1.65236,2.02538,-5.7348,-13.1,-13.1,-38.8,-110.0,-80.0,-110.0,-87.0,-110.0,-46.0,-87.0,-110.0,-110.0,-83.0,-75.0,-82.0,-67.0,-87.0,-110.0,-82.0,-110.0,-83.0,-110.0,-110.0,-110.0,-110.0,-110.0,-110.0,-110.0,-110.0,-110.0,-90.0,-110.0,2437.0,-1.0,2417.0,2452.0,-1.0,-1.0,2427.0,2437.0,2422.0,2437.0,5220.0,-1.0,2462.0,-1.0,2437.0,-1.0,-1.0,-1.0,-1.0,-1.0,-1.0,-1.0,-1.0,-1.0,2462.0,-1.0,49.461282667648,11.111404024309,-2.0
4.6602,17022.8941,9.96018,-4.08703,0.74223,1.34081,1.79691,-5.86003,-11.2,-14.6,-36.0,-110.0,-80.0,-110.0,-87.0,-110.0,-46.0,-87.0,-110.0,-110.0,-83.0,-75.0,-82.0,-67.0,-87.0,-110.0,-82.0,-110.0,-83.0,-110.0,-110.0,-110.0,-110.0,-110.0,-110.0,-110.0,-110.0,-110.0,-90.0,-110.0,2437.0,-1.0,2417.0,2452.0,-1.0,-1.0,2427.0,2437.0,2422.0,2437.0,5220.0,-1.0,2462.0,-1.0,2437.0,-1.0,-1.0,-1.0,-1.0,-1.0,-1.0,-1.0,-1.0,-1.0,2462.0,-1.0,49.461282667648,11.111404024309,-2.0
4.6775,17022.9141,8.99529,-3.07425,0.44534,0.8845,1.80119,-5.78123,-9.6,-15.8,-37.2,-110.0,-80.0,-110.0,-87.0,-110.0,-46.0,-87.0,-110.0,-110.0,-83.0,-75.0,-82.0,-67.0,-87.0,-110.0,-82.0,-110.0,-83.0,-110.0,-110.0,-110.0,-110.0,-110.0,-110.0,-110.0,-110.0,-110.0,-90.0,-110.0,2437.0,-1.0,2417.0,2452.0,-1.0,-1.0,2427.0,2437.0,2422.0,2437.0,5220.0,-1.0,2462.0,-1.0,2437.0,-1.0,-1.0,-1.0,-1.0,-1.0,-1.0,-1.0,-1.0,-1.0,2462.0,-1.0,49.461282667648,11.111404024309,-2.0
4.6909,17022.9342,7.6114,-2.04232,0.34238,0.16245,2.32042,-5.54299,-6.5,-16.9,-37.5,-110.0,-80.0,-110.0,-87.0,-110.0,-46.0,-87.0,-110.0,-110.0,-83.0,-75.0,-82.0,-67.0,-87.0,-110.0,-82.0,-110.0,-83.0,-110.0,-110.0,-110.0,-110.0,-110.0,-110.0,-110.0,-110.0,-110.0,-90.0,-110.0,2437.0,-1.0,2417.0,2452.0,-1.0,-1.0,2427.0,2437.0,2422.0,2437.0,5220.0,-1.0,2462.0,-1.0,2437.0,-1.0,-1.0,-1.0,-1.0,-1.0,-1.0,-1.0,-1.0,-1.0,2462.0,-1.0,49.461282667648,11.111404024309,-2.0
4.7147,17022.9543,6.49088,-0.91701,1.11573,-0.35067,1.9875,-5.3072,-3.1,-17.0,-37.7,-110.0,-80.0,-110.0,-87.0,-110.0,-46.0,-87.0,-110.0,-110.0,-83.0,-75.0,-82.0,-67.0,-87.0,-110.0,-82.0,-110.0,-83.0,-110.0,-110.0,-110.0,-110.0,-110.0,-110.0,-110.0,-110.0,-110.0,-90.0,-110.0,2437.0,-1.0,2417.0,2452.0,-1.0,-1.0,2427.0,2437.0,2422.0,2437.0,5220.0,-1.0,2462.0,-1.0,2437.0,-1.0,-1.0,-1.0,-1.0,-1.0,-1.0,-1.0,-1.0,-1.0,2462.0,-1.0,49.461282667648,11.111404024309,-2.0
4.7239,17022.9744,5.70316,0.04789,1.925,-0.48262,1.06693,-5.32064,-1.5,-16.3,-39.6,-110.0,-80.0,-110.0,-87.0,-110.0,-46.0,-87.0,-110.0,-110.0,-83.0,-75.0,-82.0,-67.0,-87.0,-110.0,-82.0,-110.0,-83.0,-110.0,-110.0,-110.0,-110.0,-110.0,-110.0,-110.0,-110.0,-110.0,-90.0,-110.0,2437.0,-1.0,2417.0,2452.0,-1.0,-1.0,2427.0,2437.0,2422.0,2437.0,5220.0,-1.0,2462.0,-1.0,2437.0,-1.0,-1.0,-1.0,-1.0,-1.0,-1.0,-1.0,-1.0,-1.0,2462.0,-1.0,49.461282667648,11.111404024309,-2.0
4.7536,17022.9944,5.20515,0.59617,2.11893,-0.80271,0.64299,-5.39883,-0.5,-14.2,-36.2,-110.0,-80.0,-110.0,-87.0,-110.0,-46.0,-87.0,-110.0,-110.0,-83.0,-75.0,-82.0,-67.0,-87.0,-110.0,-82.0,-110.0,-83.0,-110.0,-110.0,-110.0,-110.0,-110.0,-110.0,-110.0,-110.0,-110.0,-90.0,-110.0,2437.0,-1.0,2417.0,2452.0,-1.0,-1.0,2427.0,2437.0,2422.0,2437.0,5220.0,-1.0,2462.0,-1.0,2437.0,-1.0,-1.0,-1.0,-1.0,-1.0,-1.0,-1.0,-1.0,-1.0,2462.0,-1.0,49.461282667648,11.111404024309,-2.0
4.7674,17023.0145,4.4749,0.67519,2.45413,-1.23887,0.91666,-5.27788,0.7,-13.7,-37.1,-110.0,-80.0,-110.0,-87.0,-110.0,-46.0,-87.0,-110.0,-110.0,-83.0,-75.0,-82.0,-67.0,-87.0,-110.0,-82.0,-110.0,-83.0,-110.0,-110.0,-110.0,-110.0,-110.0,-110.0,-110.0,-110.0,-110.0,-90.0,-110.0,2437.0,-1.0,2417.0,2452.0,-1.0,-1.0,2427.0,2437.0,2422.0,2437.0,5220.0,-1.0,2462.0,-1.0,2437.0,-1.0,-1.0,-1.0,-1.0,-1.0,-1.0,-1.0,-1.0,-1.0,2462.0,-1.0,49.461282667648,11.111404024309,-2.0
4.7867,17023.0345,3.99604,0.91461,2.58103,-1.66281,1.73521,-5.05125,2.3,-12.7,-38.6,-110.0,-80.0,-110.0,-87.0,-110.0,-46.0,-87.0,-110.0,-110.0,-83.0,-75.0,-82.0,-67.0,-87.0,-110.0,-82.0,-110.0,-83.0,-110.0,-110.0,-110.0,-110.0,-110.0,-110.0,-110.0,-110.0,-110.0,-90.0,-110.0,2437.0,-1.0,2417.0,2452.0,-1.0,-1.0,2427.0,2437.0,2422.0,2437.0,5220.0,-1.0,2462.0,-1.0,2437.0,-1.0,-1.0,-1.0,-1.0,-1.0,-1.0,-1.0,-1.0,-1.0,2462.0,-1.0,49.461282667648,11.111404024309,-2.0
4.8081,17023.0546,3.32804,1.03912,3.11495,-2.03544,1.83173,-5.2565,4.4,-10.1,-37.7,-110.0,-80.0,-110.0,-87.0,-110.0,-46.0,-87.0,-110.0,-110.0,-83.0,-75.0,-82.0,-67.0,-87.0,-110.0,-82.0,-110.0,-83.0,-110.0,-110.0,-110.0,-110.0,-110.0,-110.0,-110.0,-110.0,-110.0,-90.0,-110.0,2437.0,-1.0,2417.0,2452.0,-1.0,-1.0,2427.0,2437.0,2422.0,2437.0,5220.0,-1.0,2462.0,-1.0,2437.0,-1.0,-1.0,-1.0,-1.0,-1.0,-1.0,-1.0,-1.0,-1.0,2462.0,-1.0,49.461282667648,11.111404024309,-2.0
4.8241,17023.0746,2.49005,1.06066,3.65606,-1.887,1.40229,-5.32797,6.1,-8.7,-38.3,-110.0,-80.0,-110.0,-87.0,-110.0,-46.0,-87.0,-110.0,-110.0,-83.0,-75.0,-82.0,-67.0,-87.0,-110.0,-82.0,-110.0,-83.0,-110.0,-110.0,-110.0,-110.0,-110.0,-110.0,-110.0,-110.0,-110.0,-90.0,-110.0,2437.0,-1.0,2417.0,2452.0,-1.0,-1.0,2427.0,2437.0,2422.0,2437.0,5220.0,-1.0,2462.0,-1.0,2437.0,-1.0,-1.0,-1.0,-1.0,-1.0,-1.0,-1.0,-1.0,-1.0,2462.0,-1.0,49.461282667648,11.111404024309,-2.0
4.8466,17023.0946,1.53952,0.91222,3.47649,-1.91143,0.75478,-5.28215,6.1,-4.2,-36.8,-110.0,-80.0,-110.0,-87.0,-110.0,-46.0,-87.0,-110.0,-110.0,-83.0,-75.0,-82.0,-67.0,-87.0,-110.0,-82.0,-110.0,-83.0,-110.0,-110.0,-110.0,-110.0,-110.0,-110.0,-110.0,-110.0,-110.0,-90.0,-110.0,2437.0,-1.0,2417.0,2452.0,-1.0,-1.0,2427.0,2437.0,2422.0,2437.0,5220.0,-1.0,2462.0,-1.0,2437.0,-1.0,-1.0,-1.0,-1.0,-1.0,-1.0,-1.0,-1.0,-1.0,2462.0,-1.0,49.461282667648,11.111404024309,-2.0
4.867,17023.1146,0.46449,0.62491,3.49804,-2.06476,0.47256,-4.86371,6.7,-1.6,-38.9,-110.0,-93.0,-110.0,-87.0,-110.0,-46.0,-87.0,-110.0,-110.0,-83.0,-75.0,-82.0,-67.0,-87.0,-110.0,-82.0,-110.0,-83.0,-110.0,-110.0,-110.0,-110.0,-110.0,-110.0,-110.0,-110.0,-110.0,-90.0,-110.0,2437.0,-1.0,2417.0,2452.0,-1.0,-1.0,2427.0,2437.0,2422.0,2437.0,5220.0,-1.0,2462.0,-1.0,2437.0,-1.0,-1.0,-1.0,-1.0,-1.0,-1.0,-1.0,-1.0,-1.0,2462.0,-1.0,49.461282667648,11.111404024309,-2.0
4.8921,17023.1347,0.01437,0.48364,3.98168,-2.2639,0.28013,-4.6157,7.1,0.6,-36.3,-110.0,-93.0,-110.0,-87.0,-110.0,-46.0,-87.0,-110.0,-110.0,-83.0,-75.0,-82.0,-67.0,-87.0,-110.0,-82.0,-110.0,-83.0,-110.0,-110.0,-110.0,-110.0,-110.0,-110.0,-110.0,-110.0,-110.0,-90.0,-110.0,2437.0,-1.0,2417.0,2452.0,-1.0,-1.0,2427.0,2437.0,2422.0,2437.0,5220.0,-1.0,2462.0,-1.0,2437.0,-1.0,-1.0,-1.0,-1.0,-1.0,-1.0,-1.0,-1.0,-1.0,2462.0,-1.0,49.461282667648,11.111404024309,-2.0
4.9037,17023.1547,0.32083,0.2921,4.32645,-2.30055,-0.01675,-4.7788,7.2,3.5,-36.0,-110.0,-93.0,-110.0,-87.0,-110.0,-46.0,-87.0,-110.0,-110.0,-83.0,-75.0,-82.0,-67.0,-87.0,-110.0,-82.0,-110.0,-83.0,-110.0,-110.0,-110.0,-110.0,-110.0,-110.0,-110.0,-110.0,-110.0,-90.0,-110.0,2437.0,-1.0,2417.0,2452.0,-1.0,-1.0,2427.0,2437.0,2422.0,2437.0,5220.0,-1.0,2462.0,-1.0,2437.0,-1.0,-1.0,-1.0,-1.0,-1.0,-1.0,-1.0,-1.0,-1.0,2462.0,-1.0,49.461282667648,11.111404024309,-2.0
4.9253,17023.1747,0.26576,-0.21548,4.59222,-2.40807,-0.36494,-5.19602,6.8,6.7,-37.8,-110.0,-93.0,-110.0,-87.0,-110.0,-46.0,-87.0,-110.0,-110.0,-83.0,-75.0,-82.0,-67.0,-87.0,-110.0,-82.0,-110.0,-83.0,-110.0,-110.0,-110.0,-110.0,-110.0,-110.0,-110.0,-110.0,-110.0,-90.0,-110.0,2437.0,-1.0,2417.0,2452.0,-1.0,-1.0,2427.0,2437.0,2422.0,2437.0,5220.0,-1.0,2462.0,-1.0,2437.0,-1.0,-1.0,-1.0,-1.0,-1.0,-1.0,-1.0,-1.0,-1.0,2462.0,-1.0,49.461282667648,11.111404024309,-2.0
4.9463,17023.1948,-0.42139,-0.99841,5.04953,-2.42395,-0.62883,-5.27665,6.0,8.9,-37.5,-110.0,-93.0,-110.0,-87.0,-110.0,-46.0,-87.0,-110.0,-110.0,-83.0,-75.0,-82.0,-67.0,-87.0,-110.0,-82.0,-110.0,-83.0,-110.0,-110.0,-110.0,-110.0,-110.0,-110.0,-110.0,-110.0,-110.0,-90.0,-110.0,2437.0,-1.0,2417.0,2452.0,-1.0,-1.0,2427.0,2437.0,2422.0,2437.0,5220.0,-1.0,2462.0,-1.0,2437.0,-1.0,-1.0,-1.0,-1.0,-1.0,-1.0,-1.0,-1.0,-1.0,2462.0,-1.0,49.461282667648,11.111404024309,-2.0
4.9658,17023.2148,-1.36234,-1.78134,5.56429,-2.3146,-1.03995,-4.98772,8.3,10.4,-35.7,-110.0,-93.0,-110.0,-87.0,-110.0,-46.0,-87.0,-110.0,-110.0,-83.0,-75.0,-82.0,-67.0,-87.0,-110.0,-82.0,-110.0,-83.0,-110.0,-110.0,-110.0,-110.0,-110.0,-110.0,-110.0,-110.0,-110.0,-90.0,-110.0,2437.0,-1.0,2417.0,2452.0,-1.0,-1.0,2427.0,2437.0,2422.0,2437.0,5220.0,-1.0,2462.0,-1.0,2437.0,-1.0,-1.0,-1.0,-1.0,-1.0,-1.0,-1.0,-1.0,-1.0,2462.0,-1.0,49.461282667648,11.111404024309,-2.0
4.9867,17023.2348,-1.48684,-2.40864,6.11977,-2.31644,-1.44128,-4.70122,1.4,15.7,-36.8,-110.0,-93.0,-110.0,-87.0,-110.0,-46.0,-87.0,-110.0,-110.0,-83.0,-75.0,-82.0,-67.0,-87.0,-110.0,-82.0,-110.0,-83.0,-110.0,-110.0,-110.0,-110.0,-110.0,-110.0,-110.0,-110.0,-110.0,-90.0,-110.0,2437.0,-1.0,2417.0,2452.0,-1.0,-1.0,2427.0,2437.0,2422.0,2437.0,5220.0,-1.0,2462.0,-1.0,2437.0,-1.0,-1.0,-1.0,-1.0,-1.0,-1.0,-1.0,-1.0,-1.0,2462.0,-1.0,49.461282667648,11.111404024309,-2.0
5.0048,17023.2548,-1.30488,-2.90426,6.67763,-2.22725,-1.34171,-4.57416,3.7,16.8,-34.0,-110.0,-93.0,-110.0,-87.0,-110.0,-46.0,-87.0,-110.0,-110.0,-83.0,-75.0,-82.0,-67.0,-87.0,-110.0,-82.0,-110.0,-83.0,-110.0,-110.0,-110.0,-110.0,-110.0,-110.0,-110.0,-110.0,-110.0,-90.0,-110.0,2437.0,-1.0,2417.0,2452.0,-1.0,-1.0,2427.0,2437.0,2422.0,2437.0,5220.0,-1.0,2462.0,-1.0,2437.0,-1.0,-1.0,-1.0,-1.0,-1.0,-1.0,-1.0,-1.0,-1.0,2462.0,-1.0,49.461282667648,11.111404024309,-2.0
5.029,17023.2749,-1.28333,-3.33762,7.1517,-2.11668,-1.56712,-4.56988,1.6,18.6,-32.5,-110.0,-93.0,-110.0,-87.0,-110.0,-46.0,-87.0,-110.0,-110.0,-83.0,-75.0,-82.0,-67.0,-87.0,-110.0,-82.0,-110.0,-83.0,-110.0,-110.0,-110.0,-110.0,-110.0,-110.0,-110.0,-110.0,-110.0,-90.0,-110.0,2437.0,-1.0,2417.0,2452.0,-1.0,-1.0,2427.0,2437.0,2422.0,2437.0,5220.0,-1.0,2462.0,-1.0,2437.0,-1.0,-1.0,-1.0,-1.0,-1.0,-1.0,-1.0,-1.0,-1.0,2462.0,-1.0,49.461282667648,11.111404024309,-2.0
5.0457,17023.2949,-1.27375,-3.77338,6.92664,-2.00062,-1.91898,-4.47153,-5.6,20.9,-34.2,-110.0,-93.0,-110.0,-87.0,-110.0,-46.0,-87.0,-110.0,-110.0,-83.0,-75.0,-82.0,-67.0,-87.0,-110.0,-82.0,-110.0,-83.0,-110.0,-110.0,-110.0,-110.0,-110.0,-110.0,-110.0,-110.0,-110.0,-90.0,-110.0,2437.0,-1.0,2417.0,2452.0,-1.0,-1.0,2427.0,2437.0,2422.0,2437.0,5220.0,-1.0,2462.0,-1.0,2437.0,-1.0,-1.0,-1.0,-1.0,-1.0,-1.0,-1.0,-1.0,-1.0,2462.0,-1.0,49.461282667648,11.111404024309,-2.0
5.0641,17023.3149,-1.24023,-4.16604,6.52919,-2.28467,-2.38996,-4.20275,-5.3,21.1,-31.1,-110.0,-80.0,-110.0,-87.0,-110.0,-46.0,-87.0,-110.0,-110.0,-83.0,-75.0,-82.0,-67.0,-87.0,-110.0,-82.0,-110.0,-83.0,-110.0,-110.0,-110.0,-110.0,-110.0,-110.0,-110.0,-110.0,-110.0,-90.0,-110.0,2437.0,-1.0,2417.0,2452.0,-1.0,-1.0,2427.0,2437.0,2422.0,2437.0,5220.0,-1.0,2462.0,-1.0,2437.0,-1.0,-1.0,-1.0,-1.0,-1.0,-1.0,-1.0,-1.0,-1.0,2462.0,-1.0,49.461282667648,11.111404024309,-2.0
