AppTimestamp(s),SensorTimestamp(s),gyro_x,gyro_y,gyro_z
0.0593,82359.6195,-0.41172,-0.5736,0.00489
0.0614,82359.6295,-0.56872,-0.51496,-0.00367
0.0625,82359.6395,-0.63774,-0.39951,-0.0452
0.0652,82359.6495,-0.61514,-0.29138,-0.10079
0.0666,82359.6595,-0.50091,-0.20647,-0.135
0.0687,82359.6695,-0.35369,-0.14111,-0.14233
0.071,82359.6795,-0.14783,-0.11118,-0.13928
0.0741,82359.6895,0.02505,-0.16799,-0.14783
0.0781,82359.6995,0.14172,-0.2645,-0.11668
0.0891,82359.7095,0.18204,-0.36224,-0.04398
0.1074,82359.7195,0.1179,-0.52901,0.04704
0.1088,82359.7295,0.01038,-0.74892,0.11057
0.1186,82359.7395,-0.14294,-1.00793,0.15516
0.1429,82359.7495,-0.30238,-1.17775,0.18387
0.1443,82359.7595,-0.42761,-1.14171,0.22541
0.1465,82359.7695,-0.5058,-0.95417,0.25107
0.164,82359.7795,-0.56139,-0.61575,0.27122
0.1674,82359.7895,-0.52107,-0.26084,0.32009
0.178,82359.7995,-0.28711,0.06292,0.39584
0.1854,82359.8095,-0.07147,-0.02443,0.39706
0.1975,82359.8195,0.1686,-0.39828,0.35186
0.2086,82359.8295,0.28405,-0.73365,0.31826
0.2184,82359.8395,0.25473,-0.95478,0.23396
0.2256,82359.8495,0.12645,-0.9725,0.11729
0.2387,82359.8595,-0.13195,-1.37933,0.23457
0.2456,82359.8695,-0.32742,-1.56931,0.26084
0.2579,82359.8795,-0.49052,-1.5797,0.26939
0.2661,82359.8895,-0.62247,-1.42454,0.32254
0.2788,82359.8995,-0.68845,-0.8717,0.34025
0.286,82359.9095,-0.64568,-0.22113,0.27611
0.2987,82359.9195,-0.55589,0.2584,0.17776
0.3061,82359.9295,-0.49541,0.44227,0.02077
0.3204,82359.9395,-0.50885,0.42944,-0.12156
0.3265,82359.9495,-0.5229,0.36652,-0.0733
0.3407,82359.9595,-0.52779,0.27306,0.0788
0.3479,82359.9695,-0.63774,0.02505,0.27978
0.3603,82359.9795,-1.14965,0.15272,0.58582
0.3668,82359.9895,-1.46485,0.27122,1.0568
0.3893,82359.9995,-1.72325,0.26878,1.26816
0.3957,82360.0095,-1.8552,0.2248,1.20463
0.3988,82360.0195,-1.91018,0.0733,1.08184
0.4061,82360.0295,-1.88818,-0.06231,0.95295
0.4217,82360.0405,-1.77456,-0.19426,0.82589
0.427,82360.0505,-1.61085,-0.30971,0.67073
0.4386,82360.0605,-1.45875,-0.34392,0.37935
0.4465,82360.0705,-1.11116,-0.01772,0.04826
0.4586,82360.0805,-0.5284,0.68722,-0.1631
0.4664,82360.0905,0,1.14659,-0.14478
0.4786,82360.1005,0.66096,1.40804,0.11057
0.4864,82360.1105,1.07329,1.44103,0.41966
0.5012,82360.1205,1.28282,1.22173,0.70555
0.5128,82360.1305,1.30847,0.81184,0.89553
0.5224,82360.1405,1.22601,0.3934,1.02625
0.5319,82360.1504,1.06901,0.05131,1.0849
0.5442,82360.1605,0.81551,-0.25168,1.09039
0.5551,82360.1705,0.58215,-0.49419,1.07146
0.5617,82360.1805,0.36774,-0.63713,1.04886
0.568,82360.1905,0.28161,-0.64874,1.01831
0.5808,82360.2005,0.28833,-0.44227,0.96944
0.5879,82360.2105,0.37385,-0.08002,0.91813
0.6012,82360.2205,0.46548,0.39889,0.82955
0.609,82360.2305,0.47647,0.68783,0.7367
0.6212,82360.2405,0.36957,0.86682,0.61881
0.6291,82360.2515,0.1857,0.91202,0.53756
0.641,82360.2615,-0.0226,0.85399,0.50335
0.6483,82360.2714,-0.15944,0.72937,0.49419
0.6609,82360.2815,-0.26512,0.60659,0.55039
0.6684,82360.2915,-0.28344,0.56077,0.63469
0.681,82360.3015,-0.25717,0.57055,0.75198
0.6883,82360.3115,-0.23579,0.63897,0.83811
0.705,82360.3215,-0.23152,0.73976,0.95356
0.7152,82360.3314,-0.23702,0.83505,1.0513
0.7216,82360.3425,-0.28039,0.92424,1.12888
0.7301,82360.3535,-0.29749,0.91935,1.13682
0.7424,82360.3635,-0.26878,0.90103,1.10872
0.7501,82360.3735,-0.18448,0.92118,1.0513
0.7623,82360.3835,-0.07269,0.95112,0.95906
0.7702,82360.3935,0.03726,0.95845,0.83322
0.7827,82360.4035,0.08613,0.86315,0.68234
0.791,82360.4135,0.0733,0.68234,0.5791
0.8043,82360.4235,0.01894,0.45021,0.52412
0.8121,82360.4345,-0.03604,0.32193,0.50335
0.8251,82360.4445,-0.10446,0.2865,0.49297
0.8333,82360.4555,-0.15944,0.27367,0.49175
0.8529,82360.4655,-0.20403,0.29505,0.46548
0.8546,82360.4753,-0.22785,0.32437,0.43616
0.8654,82360.4855,-0.22174,0.32132,0.38729
0.873,82360.4965,-0.22724,0.22846,0.33842
0.8853,82360.5065,-0.25901,0.06048,0.27122
0.894,82360.5165,-0.30788,-0.06414,0.20342
0.9077,82360.5265,-0.37324,-0.18448,0.1069
0.9142,82360.5365,-0.4386,-0.32926,0.02199
0.9268,82360.5465,-0.46242,-0.49969,-0.04093
0.9351,82360.5575,-0.41661,-0.6579,-0.0617
0.948,82360.5675,-0.26023,-0.83444,-0.04704
0.9551,82360.5775,-0.06781,-0.91263,-0.02993
0.9695,82360.5875,0.2022,-0.87904,-0.04215
0.9751,82360.5975,0.37446,-0.85949,-0.08735
0.9889,82360.6075,0.46242,-0.95539,-0.18326
0.9964,82360.6185,0.44349,-1.07085,-0.27428
1.01,82360.6285,0.37507,-1.15881,-0.37813
1.0163,82360.6385,0.3207,-1.22478,-0.48075
1.0338,82360.6495,0.29322,-1.25838,-0.62003
1.0435,82360.6595,0.34514,-1.237,-0.73182
1.0502,82360.6695,0.47586,-1.2315,-0.88026
1.0639,82360.6795,0.60598,-1.2761,-0.99327
1.0714,82360.6905,0.75564,-1.36773,-1.09223
1.0881,82360.7005,0.87537,-1.4447,-1.14965
1.093,82360.7103,0.956,-1.50517,-1.21196
1.1007,82360.7205,0.98166,-1.55404,-1.27488
1.1107,82360.7305,0.97616,-1.58764,-1.35184
1.1176,82360.7405,0.96395,-1.62185,-1.40316
1.1293,82360.7505,0.96456,-1.69882,-1.43737
1.137,82360.7605,0.9444,-1.7147,-1.40866
1.1492,82360.7705,0.86743,-1.72142,-1.28954
1.1608,82360.7805,0.78741,-1.50029,-1.20829
1.1703,82360.7905,0.74464,-0.89431,-1.15881
1.1778,82360.8005,0.75503,-0.28894,-1.13132
1.19,82360.8105,0.70311,0.02138,-1.19424
1.1969,82360.8205,0.57788,-0.12339,-1.33963
1.2091,82360.8305,0.42455,-0.49541,-1.51678
1.218,82360.8405,0.28222,-0.83872,-1.66888
1.2294,82360.8505,0.14661,-1.01892,-1.79961
1.2372,82360.8605,0.00916,-1.03358,-1.84176
1.2491,82360.8703,-0.1405,-0.96028,-1.80755
1.2572,82360.8805,-0.29199,-0.85643,-1.73791
1.2721,82360.8905,-0.44043,-0.54611,-1.6023
1.2778,82360.9005,-0.5455,-0.00916,-1.43798
1.2914,82360.9105,-0.63958,0.15333,-1.30298
1.2987,82360.9205,-0.72693,0.08613,-1.2034
1.311,82360.9305,-0.80146,-0.02993,-1.05741
1.3179,82360.9405,-0.85643,-0.07086,-0.96639
1.3307,82360.9505,-0.978,-0.00733,-0.92852
1.3381,82360.9605,-1.11422,0.0788,-0.90347
1.3527,82360.9705,-1.35673,0.135,-0.8039
1.3586,82360.9805,-1.58397,0.15027,-0.64813
1.3709,82360.9905,-1.81366,0.16005,-0.42761
1.3793,82361.0015,-1.96515,0.14966,-0.20281
1.3988,82361.0125,-2.04762,0.10934,0.06414
1.4031,82361.0225,-2.02563,0.12278,0.27611
1.4112,82361.0325,-1.94072,0.26817,0.45021
1.419,82361.0425,-1.85703,0.37385,0.53634
1.4345,82361.0525,-1.71164,0.31521,0.63591
1.4396,82361.0635,-1.52167,0.10873,0.7422
1.4577,82361.0735,-1.2425,-0.07453,0.80573
1.4633,82361.0835,-0.9896,-0.15394,0.80695
1.4715,82361.0935,-0.66951,-0.08002,0.75075
1.4795,82361.1035,-0.45326,0.11668,0.66401
1.4913,82361.1135,-0.35064,0.42516,0.58582
1.4997,82361.1235,-0.3488,0.69578,0.57666
1.5121,82361.1335,-0.3543,1.03725,0.63591
1.5196,82361.1435,-0.31826,1.32008,0.72021
1.5315,82361.1535,-0.2419,1.53022,0.82284
1.5396,82361.1635,-0.14416,1.56259,0.8882
1.5518,82361.1735,0.03176,1.46058,0.96211
1.5597,82361.1835,0.20831,1.29748,1.03419
1.5743,82361.1935,0.41539,1.08123,1.1301
1.5819,82361.2035,0.62125,0.93401,1.21501
1.5936,82361.2135,0.84422,0.82284,1.30053
1.601,82361.2245,1.07573,0.76236,1.39827
1.6133,82361.2345,1.26571,0.73121,1.51372
1.621,82361.2445,1.34451,0.76541,1.60902
1.6339,82361.2545,1.30847,0.78069,1.73852
1.6428,82361.2645,1.20402,0.78802,1.83993
1.6578,82361.2745,0.99449,0.82589,1.97004
1.6621,82361.2845,0.74831,0.86865,2.08
1.68,82361.2945,0.48564,0.86621,2.19423
1.6855,82361.3055,0.21441,0.70311,2.25898
1.6982,82361.3155,0.06536,0.56139,2.21194
1.7032,82361.3255,0.05986,0.63835,2.05312
1.7185,82361.3355,0.1405,0.97738,1.8161
1.7236,82361.3455,0.1912,1.28831,1.56259
1.7389,82361.3553,0.16738,1.46852,1.31153
1.7431,82361.3655,0.07453,1.51067,1.18569
1.7584,82361.3765,-0.06597,1.5235,1.17103
1.7643,82361.3865,-0.18387,1.52228,1.22723
1.7794,82361.3975,-0.29444,1.39522,1.35673
1.7863,82361.4085,-0.32254,1.24067,1.47524
1.8006,82361.4195,-0.29383,1.16797,1.58397
1.808,82361.4305,-0.25901,1.13987,1.58642
1.8333,82361.4405,-0.24557,1.0965,1.50762
1.8392,82361.4505,-0.25168,1.02992,1.42271
1.8411,82361.4605,-0.26145,0.84971,1.3268
1.848,82361.4705,-0.21625,0.62308,1.28709
1.8599,82361.4805,-0.1295,0.41172,1.26022
1.87,82361.4905,-0.01894,0.27,1.20829
1.8791,82361.5005,0.08796,0.0672,1.09772
1.8869,82361.5105,0.18326,-0.17654,0.92363
1.8998,82361.5205,0.25962,-0.37996,0.66951
1.9079,82361.5305,0.28222,-0.47586,0.3934
1.9208,82361.5405,0.21319,-0.52168,0.1179
1.9281,82361.5505,0.10018,-0.58582,-0.08613
1.9407,82361.5605,-0.00916,-0.72449,-0.21014
1.9482,82361.5705,-0.05192,-0.86254,-0.26267
1.9618,82361.5805,-0.07391,-1.00548,-0.32742
1.9687,82361.5905,-0.04398,-1.13621,-0.38912
1.9808,82361.6005,0.0562,-1.32436,-0.45754
1.996,82361.6105,0.19548,-1.51433,-0.5455
2.0033,82361.6205,0.47037,-1.83504,-0.71227
2.016,82361.6315,0.72876,-2.05006,-0.82955
2.0231,82361.6415,1.02503,-2.1869,-0.92485
2.0299,82361.6515,1.21379,-2.20156,-0.96272
2.0551,82361.6625,1.38056,-2.0183,-1.01831
2.0571,82361.6725,1.45997,-1.76845,-1.10078
2.096,82361.6825,1.4899,-1.54915,-1.28098
2.0996,82361.6935,1.48379,-1.45264,-1.52228
2.1005,82361.7035,1.3775,-1.53449,-1.82343
2.1021,82361.7135,1.22967,-1.56381,-2.02441
2.1032,82361.7245,0.99449,-1.50212,-2.18629
2.1126,82361.7345,0.75381,-1.40316,-2.31579
2.1269,82361.7445,0.47953,-1.23395,-2.44468
2.1356,82361.7545,0.2584,-1.01465,-2.56075
2.1438,82361.7645,0.0617,-0.77946,-2.69025
2.1505,82361.7745,-0.08063,-0.64813,-2.81365
2.1655,82361.7845,-0.135,-0.62675,-2.91994
2.1706,82361.7945,-0.09468,-0.56933,-2.95292
2.1828,82361.8045,-0.01344,-0.48686,-2.97125
2.1905,82361.8145,0.00489,-0.4441,-2.99263
2.2024,82361.8245,-0.00611,-0.45815,-3.01523
2.2118,82361.8345,-0.06597,-0.54795,-3.0305
2.2224,82361.8445,-0.11484,-0.79657,-2.99874
2.2307,82361.8545,-0.12278,-1.07512,-2.90955
2.2431,82361.8645,-0.11973,-1.38178,-2.6933
2.2525,82361.8745,-0.13806,-1.54121,-2.4288
2.2713,82361.8845,-0.20159,-1.59986,-2.13864
2.2739,82361.8945,-0.30299,-1.51922,-1.96088
2.2843,82361.9045,-0.54245,-1.34696,-1.82527
2.2918,82361.9145,-0.79412,-1.27671,-1.7654
2.3023,82361.9245,-1.04641,-1.29015,-1.69821
2.3114,82361.9345,-1.16981,-1.34329,-1.56137
2.3238,82361.9445,-1.12521,-1.28282,-1.32863
2.3307,82361.9545,-0.92241,-1.05924,-1.05802
2.3443,82361.9645,-0.66157,-0.66157,-0.78802
2.3519,82361.9745,-0.51313,-0.32254,-0.63286
2.3745,82361.9845,-0.54734,-0.07269,-0.53023
2.3812,82361.9945,-0.73304,0.05253,-0.44899
2.3837,82362.0045,-1.12949,0.23396,-0.33048
2.3935,82362.0145,-1.55893,0.37874,-0.17226
2.4036,82362.0245,-1.96882,0.57055,0.13134
2.414,82362.0345,-2.18568,0.7422,0.43555
2.4316,82362.0445,-2.3164,0.95234,0.81184
2.4332,82362.0545,-2.3164,1.08795,1.08917
2.4443,82362.0645,-2.24493,1.21745,1.31825
2.4531,82362.0745,-2.1026,1.24067,1.41293
2.4621,82362.0845,-1.77701,1.30114,1.40804
2.4704,82362.0945,-1.38361,1.3604,1.27182
2.483,82362.1045,-0.92118,1.30664,1.03908
2.4904,82362.1145,-0.6017,1.12277,0.88881
2.5034,82362.1245,-0.32437,0.74403,0.82833
2.5111,82362.1345,-0.26267,0.27489,0.9951
2.527,82362.1445,-0.2474,0.16066,1.20585
2.533,82362.1545,-0.13806,0.42822,1.36345
2.5446,82362.1645,0.04581,0.67012,1.39399
2.5513,82362.1745,0.21686,0.69944,1.31947
2.5634,82362.1845,0.43494,0.81734,1.21929
2.5714,82362.1945,0.61392,1.09162,1.18386
2.5837,82362.2045,0.73976,1.38544,1.16431
2.5928,82362.2145,0.76236,1.46302,1.16492
2.6037,82362.2245,0.71349,1.41171,1.22723
2.612,82362.2343,0.64141,1.2932,1.35062
2.6228,82362.2445,0.55955,1.25044,1.53938
2.6309,82362.2545,0.57421,1.42454,1.72081
2.6445,82362.2645,0.65179,1.27121,1.86558
2.6518,82362.2755,0.74526,1.16553,2.01463
2.6652,82362.2855,0.84849,1.11972,2.20034
2.6733,82362.2955,0.85521,1.04091,2.33167
2.6846,82362.3055,0.75075,0.89003,2.44285
2.6924,82362.3155,0.54428,0.69211,2.5021
2.7047,82362.3255,0.26145,0.35736,2.51371
2.7124,82362.3355,0.03665,0.05131,2.49966
2.725,82362.3455,-0.22785,-0.22113,2.38482
2.7324,82362.3555,-0.34575,-0.16188,2.18812
2.7458,82362.3655,-0.39095,0.13134,1.82893
2.7532,82362.3755,-0.36591,0.39462,1.56443
2.766,82362.3855,-0.31337,0.65301,1.36284
2.7732,82362.3955,-0.26695,0.80695,1.32313
2.7909,82362.4065,-0.20036,0.97311,1.41293
2.8051,82362.4165,-0.18692,1.04824,1.55343
2.811,82362.4265,-0.21258,1.06229,1.79411
2.8155,82362.4375,-0.31215,1.01159,2.01891
2.8264,82362.4475,-0.44288,0.88514,2.15635
2.834,82362.4573,-0.51007,0.7648,2.1704
2.846,82362.4675,-0.5229,0.6805,2.0971
2.8553,82362.4775,-0.50641,0.71288,1.95721
2.8658,82362.4875,-0.47098,0.77519,1.7764
2.8738,82362.4975,-0.42333,0.76847,1.61391
2.8855,82362.5075,-0.31887,0.73243,1.42026
2.8939,82362.5175,-0.24923,0.75259,1.26938
2.9065,82362.5275,-0.22113,0.75992,1.13315
2.9137,82362.5375,-0.2529,0.6805,1.03847
2.9252,82362.5475,-0.32376,0.59437,0.93646
2.9335,82362.5575,-0.42272,0.52168,0.80268
2.9453,82362.5675,-0.52229,0.38729,0.61209
2.9536,82362.5775,-0.57238,0.20831,0.44471
2.9662,82362.5875,-0.56261,-0.02627,0.25107
2.9736,82362.5975,-0.51985,-0.33475,0.12401
2.9852,82362.6075,-0.43494,-0.73365,-0.03787
3.0015,82362.6175,-0.34453,-1.00976,-0.17959
3.0079,82362.6275,-0.21502,-1.10444,-0.3488
3.0159,82362.6385,-0.1014,-1.07696,-0.51252
3.027,82362.6485,0.04032,-1.05008,-0.7196
3.0354,82362.6585,0.15699,-1.08001,-0.8827
3.0469,82362.6685,0.26328,-1.16797,-0.99999
3.0569,82362.6785,0.32559,-1.28098,-1.03358
3.067,82362.6885,0.41111,-1.44958,-1.02259
3.0834,82362.6985,0.50457,-1.6078,-0.97128
3.0992,82362.7085,0.61453,-1.78495,-0.93768
3.1016,82362.7185,0.68478,-1.91995,-0.93279
3.1155,82362.7285,0.74892,-2.07816,-0.97922
3.1175,82362.7385,0.78985,-2.204,-1.06229
3.131,82362.7485,0.83933,-2.26875,-1.19791
3.139,82362.7585,0.89858,-2.25043,-1.33474
3.1468,82362.7685,1.00121,-2.16002,-1.53388
3.1559,82362.7785,1.09956,-2.05129,-1.71103
3.1675,82362.7885,1.18447,-1.96393,-1.90956
3.175,82362.7985,1.23273,-1.93583,-2.0464
3.1871,82362.8085,1.27549,-1.96088,-2.15391
3.1949,82362.8185,1.32252,-2.03235,-2.23271
3.2071,82362.8285,1.38483,-2.12276,-2.31335
3.2149,82362.8385,1.45019,-2.14597,-2.3555
3.2291,82362.8485,1.49234,-2.10871,-2.36222
3.237,82362.8585,1.49295,-2.07511,-2.35061
3.2488,82362.8685,1.45203,-2.03174,-2.31701
3.2559,82362.8785,1.4166,-1.94316,-2.30174
3.2784,82362.8885,1.35368,-1.73913,-2.31457
3.2815,82362.8985,1.29626,-1.55832,-2.34694
3.2928,82362.9085,1.1918,-1.38361,-2.38665
3.2973,82362.9185,1.06596,-1.237,-2.41353
3.3086,82362.9285,0.87415,-1.05374,-2.42208
3.3159,82362.9385,0.69639,-0.89797,-2.41047
3.3313,82362.9485,0.44288,-0.69822,-2.40925
3.3364,82362.9585,0.23763,-0.5565,-2.43674
3.3484,82362.9685,0.01344,-0.51862,-2.51432
3.3562,82362.9785,-0.18082,-0.60903,-2.56747
3.3745,82362.9885,-0.39156,-0.75259,-2.5021
3.3793,82362.9985,-0.60537,-0.78007,-2.32129
3.3916,82363.0085,-0.86254,-0.6524,-2.01952
3.3953,82363.0185,-1.11116,-0.42577,-1.76418
3.4098,82363.0285,-1.35368,-0.18448,-1.54977
3.4257,82363.0385,-1.61085,0.00672,-1.40927
3.428,82363.0485,-1.88452,0.02321,-1.34635
3.4367,82363.0595,-2.02929,-0.1179,-1.28587
3.4484,82363.0695,-1.99936,-0.27184,-1.07268
3.4553,82363.0795,-1.88696,-0.21869,-0.77641
3.4671,82363.0895,-1.70004,-0.07391,-0.33231
3.4763,82363.0995,-1.55893,0.10385,0.04215
3.4871,82363.1095,-1.4844,0.33475,0.33048
3.496,82363.1195,-1.47524,0.53145,0.51801
3.5071,82363.1295,-1.50456,0.64202,0.66951
3.5155,82363.1395,-1.51861,0.71532,0.76725
3.528,82363.1495,-1.49173,0.84849,0.85277
3.5354,82363.1595,-1.44103,0.9725,0.89675
3.5494,82363.1695,-1.3885,1.14293,0.92363
3.5553,82363.1793,-1.34024,1.29809,0.90836
3.567,82363.1895,-1.29687,1.4447,0.87048
3.5768,82363.1995,-1.25594,1.50456,0.84544
3.5962,82363.2095,-1.14171,1.46363,0.88637
3.609,82363.2195,-0.96028,1.33657,1.00304
3.6119,82363.2295,-0.62369,1.19241,1.21501
3.6227,82363.2395,-0.29505,1.11605,1.36956
3.6285,82363.2494,0.22969,1.06107,1.51678
3.636,82363.2595,0.57116,1.06901,1.52472
3.6482,82363.2695,0.88392,1.11849,1.46791
3.6565,82363.2795,1.02503,1.10322,1.383
3.6682,82363.2895,1.06718,1.06535,1.25533
3.6769,82363.2995,1.05863,1.07024,1.12094
3.6904,82363.3095,1.06168,1.16187,1.02992
3.7061,82363.3195,1.06107,1.25838,1.0061
3.7181,82363.3295,1.03664,1.3549,1.04214
3.722,82363.3395,0.9951,1.45019,1.10078
3.7304,82363.3495,0.92729,1.49967,1.19546
3.7368,82363.3595,0.88087,1.48013,1.27549
3.7572,82363.3695,0.83566,1.36589,1.4001
3.7589,82363.3795,0.81551,1.18264,1.50456
3.7692,82363.3895,0.81734,0.91141,1.64628
3.7773,82363.3995,0.8094,0.7251,1.75135
3.7916,82363.4095,0.76541,0.58093,1.80816
3.7962,82363.4195,0.67928,0.50702,1.80144
3.8092,82363.4295,0.48808,0.48808,1.76051
3.8379,82363.4395,0.31826,0.5455,1.74341
3.8392,82363.4495,0.09407,0.67378,1.74707
3.8404,82363.4595,-0.08186,0.78313,1.77762
3.85,82363.4695,-0.20769,0.94379,1.82282
3.8559,82363.4795,-0.31887,1.14659,1.86619
3.8678,82363.4895,-0.46792,1.35795,1.90712
3.8758,82363.4995,-0.66035,1.4728,1.93766
3.8872,82363.5095,-0.97494,1.507,1.95233
3.8955,82363.5195,-1.23883,1.50639,1.94988
3.9082,82363.5303,-1.518,1.49051,1.94377
3.9167,82363.5405,-1.62001,1.48013,1.92789
3.9294,82363.5505,-1.63834,1.45203,1.8888
3.9364,82363.5605,-1.58336,1.3604,1.86131
3.9509,82363.5705,-1.47157,1.21745,1.82893
3.9629,82363.5805,-1.34818,1.09467,1.79106
3.9758,82363.5905,-1.2089,0.94867,1.75257
3.9779,82363.6005,-1.09406,0.80573,1.73119
3.9902,82363.6105,-0.9218,0.63713,1.67805
3.9973,82363.6204,-0.7758,0.54611,1.59069
4.012,82363.6305,-0.64996,0.40745,1.46302
4.0196,82363.6405,-0.59254,0.30604,1.36406
4.0328,82363.6505,-0.58887,0.17532,1.21318
4.0373,82363.6605,-0.61942,-0.00733,1.0568
4.0524,82363.6705,-0.6298,-0.2474,0.89614
4.0596,82363.6805,-0.59559,-0.40073,0.76541
4.0707,82363.6915,-0.4893,-0.46365,0.53512
4.0819,82363.7015,-0.40928,-0.37324,0.33414
4.0959,82363.7115,-0.38973,-0.32009,0.11729
4.0998,82363.7214,-0.41966,-0.3879,-0.02199
4.1102,82363.7315,-0.48747,-0.51557,-0.14844
4.1182,82363.7415,-0.51618,-0.64935,-0.23824
4.1302,82363.7515,-0.47525,-0.79901,-0.34147
4.1381,82363.7615,-0.36896,-0.8882,-0.46976
4.1501,82363.7715,-0.22419,-1.0403,-0.61881
4.1584,82363.7815,-0.08491,-1.23395,-0.76908
4.1724,82363.7915,0.06048,-1.47646,-0.91019
4.1795,82363.8015,0.17898,-1.69393,-0.99754
4.1918,82363.8113,0.29932,-1.85764,-1.03908
4.1996,82363.8215,0.41539,-1.97309,-1.07024
4.2129,82363.8315,0.53817,-1.99325,-1.13865
4.2202,82363.8425,0.63347,-1.95843,-1.237
4.2386,82363.8535,0.70555,-1.84481,-1.34635
4.2431,82363.8635,0.72265,-1.7147,-1.46974
4.2564,82363.8735,0.7086,-1.59802,-1.61024
4.2635,82363.8835,0.67134,-1.55526,-1.69882
4.2765,82363.8945,0.65301,-1.57298,-1.80633
4.2873,82363.9045,0.69639,-1.62857,-1.85581
4.3016,82363.9145,0.81184,-1.69026,-1.91812
4.3072,82363.9245,0.95112,-1.75868,-1.99264
4.3191,82363.9345,1.12888,-1.82893,-2.11176
4.3221,82363.9445,1.23883,-1.86925,-2.23393
4.3348,82363.9545,1.32802,-1.93766,-2.33839
4.3409,82363.9645,1.38239,-1.99142,-2.36771
4.3535,82363.9745,1.43492,-2.07877,-2.30907
4.3667,82363.9855,1.51433,-2.16491,-2.18507
4.3779,82363.9955,1.63956,-2.28403,-2.05434
4.3831,82364.0055,1.75685,-2.39887,-1.99142
4.3954,82364.0155,1.90529,-2.41597,-1.88574
4.4072,82364.0255,1.94683,-2.39642,-1.77273
4.4161,82364.0355,1.88818,-2.3219,-1.64689
4.4264,82364.0455,1.7483,-2.28158,-1.57481
4.4349,82364.0555,1.46241,-2.25654,-1.55893
4.4413,82364.0655,1.21929,-2.23943,-1.59741
4.4533,82364.0755,0.86071,-2.17529,-1.72386
4.4643,82364.0855,0.5058,-2.01708,-1.91812
4.4736,82364.0955,0.04215,-1.75868,-2.1924
4.4815,82364.1055,-0.35125,-1.4337,-2.36588
4.4934,82364.1155,-0.83933,-0.9389,-2.44652
4.5014,82364.1255,-1.2144,-0.43799,-2.39154
4.5136,82364.1355,-1.56931,0.01283,-2.22783
4.5231,82364.1455,-1.76479,0.47709,-2.06045
4.5364,82364.1555,-1.92484,0.90958,-1.86008
4.5432,82364.1655,-1.99448,0.9725,-1.77456
4.5578,82364.1765,-1.99936,0.92302,-1.6304
4.5641,82364.1865,-1.98592,0.85888,-1.51067
4.5787,82364.1965,-1.95477,0.69516,-1.29565
4.5849,82364.2065,-1.90773,0.57299,-1.01587
4.5972,82364.2165,-1.81977,0.49358,-0.59376
4.6052,82364.2265,-1.7373,0.47098,-0.22419
4.6186,82364.2365,-1.6133,0.5058,0.30238
4.6252,82364.2475,-1.52961,0.53145,0.67684
4.6382,82364.2575,-1.47035,0.56016,1.02564
4.6462,82364.2684,-1.44347,0.59254,1.24128
4.6605,82364.2795,-1.39461,0.70738,1.39216
4.667,82364.2893,-1.32741,0.79474,1.46363
4.6803,82364.2995,-1.20096,0.93585,1.5009
4.688,82364.3105,-1.04702,1.04519,1.50273
4.7016,82364.3205,-0.87354,1.14415,1.49418
4.7084,82364.3305,-0.72998,1.19546,1.50884
4.7218,82364.3405,-0.52901,1.25227,1.59253
4.7284,82364.3505,-0.38423,1.27854,1.6756
4.7435,82364.3605,-0.18387,1.30114,1.7428
4.7508,82364.3705,-0.01955,1.31031,1.73547
4.7613,82364.3805,0.16982,1.31397,1.63895
4.7682,82364.3905,0.29688,1.33352,1.52044
4.7808,82364.4005,0.37629,1.39583,1.34451
4.7881,82364.4105,0.35369,1.46424,1.17164
4.801,82364.4205,0.24312,1.48624,1.01343
4.8081,82364.4304,0.10263,1.44286,0.89919
4.8229,82364.4405,0.00244,1.32191,0.83139
4.8281,82364.4505,0.00794,1.28282,0.81184
4.8405,82364.4604,0.10934,1.32313,0.83872
4.8474,82364.4705,0.26267,1.35307,0.89858
4.8597,82364.4805,0.39767,1.36651,0.9896
4.8676,82364.4905,0.4667,1.3885,1.05741
4.8797,82364.5005,0.47525,1.36895,1.11727
4.8872,82364.5105,0.47464,1.33779,1.17408
4.9031,82364.5205,0.48442,1.27182,1.28893
4.9108,82364.5305,0.51435,1.15454,1.39033
4.921,82364.5405,0.56994,0.9389,1.53327
4.9282,82364.5505,0.63163,0.78985,1.64628
4.941,82364.5605,0.69761,0.7648,1.71226
4.9483,82364.5705,0.74403,0.88759,1.65728
4.9631,82364.5815,0.82039,1.09101,1.52961
4.9702,82364.5925,0.8491,1.32069,1.4618
4.9841,82364.6035,0.78863,1.64934,1.44653
4.9913,82364.6135,0.66218,1.87536,1.4899
5.0061,82364.6245,0.47953,2.1026,1.6133
5.0139,82364.6345,0.30299,2.24615,1.75929
5.025,82364.6445,0.10018,2.28097,1.96149
5.0323,82364.6545,-0.11484,2.20889,2.11726
5.0456,82364.6645,-0.35186,2.00119,2.24249
5.0533,82364.6755,-0.60476,1.64323,2.3836
5.0685,82364.6855,-0.80512,1.26632,2.4905
5.0752,82364.6955,-0.87048,1.10017,2.52593
5.0918,82364.7055,-0.81612,1.17103,2.47767
5.0941,82364.7165,-0.69333,1.37506,2.35183
5.1049,82364.7265,-0.61453,1.6359,2.13009
5.1129,82364.7365,-0.65607,1.75685,1.93278
5.1249,82364.7465,-0.84666,1.69637,1.74463
5.1329,82364.7563,-1.10506,1.43126,1.71226
5.145,82364.7665,-1.37628,1.04214,1.76907
5.153,82364.7765,-1.5125,0.7648,1.81122
5.168,82364.7865,-1.55038,0.49052,1.79228
5.1753,82364.7965,-1.44836,0.40623,1.70309
5.1883,82364.8075,-1.16797,0.36469,1.42515
5.1951,82364.8175,-0.91874,0.32376,1.17225
5.2081,82364.8275,-0.61331,0.27855,0.84727
5.2154,82364.8375,-0.42638,0.18998,0.62003
5.2302,82364.8475,-0.33903,0.03299,0.48381
5.2377,82364.8575,-0.35675,-0.10324,0.4441
5.2481,82364.8675,-0.46487,-0.32254,0.43188
5.2564,82364.8785,-0.61697,-0.51007,0.40195
5.2706,82364.8885,-0.75625,-0.65301,0.32193
5.2773,82364.8985,-0.83505,-0.73976,0.21014
5.2892,82364.9085,-0.8937,-0.84727,0.01283
5.297,82364.9195,-0.87904,-0.94318,-0.18937
5.3151,82364.9305,-0.79535,-1.0458,-0.37263
5.3203,82364.9405,-0.73365,-1.14354,-0.46853
5.3314,82364.9505,-0.68539,-1.32741,-0.56872
5.3384,82364.9605,-0.66645,-1.39461,-0.67989
5.3513,82364.9705,-0.69516,-1.32069,-0.87659
5.3584,82364.9805,-0.73243,-1.21135,-1.04702
5.3758,82364.9915,-0.78863,-1.09101,-1.28098
5.3807,82365.0015,-0.77397,-1.0794,-1.43004
5.3934,82365.0115,-0.65118,-1.1753,-1.54549
5.3997,82365.0215,-0.49052,-1.33474,-1.57909
5.4124,82365.0325,-0.18143,-1.66888,-1.54366
5.4215,82365.0425,0.07636,-1.99753,-1.49967
5.4317,82365.0525,0.29383,-2.33106,-1.47768
5.4425,82365.0625,0.43738,-2.61756,-1.50762
5.4521,82365.0725,0.54184,-2.85946,-1.58092
5.461,82365.0835,0.63041,-2.98896,-1.68354
5.4713,82365.0935,0.68906,-2.9462,-1.77456
5.4796,82365.1035,0.72815,-2.80387,-1.86742
5.493,82365.1135,0.75503,-2.61206,-1.98043
5.5012,82365.1235,0.78252,-2.50027,-2.07022
5.5113,82365.1335,0.81673,-2.35855,-2.18201
5.5196,82365.1435,0.84666,-2.22111,-2.30113
5.5317,82365.1535,0.87781,-2.12703,-2.44468
5.5396,82365.1635,0.90469,-2.07572,-2.57602
5.5523,82365.1735,0.93157,-2.03479,-2.71774
5.561,82365.1835,0.97922,-2.03418,-2.8222
5.5735,82365.1935,1.0794,-2.06534,-2.93521
5.5857,82365.2035,1.2034,-2.10932,-3.00118
5.5992,82365.2135,1.34024,-2.14963,-3.03172
5.6025,82365.2235,1.42576,-2.18934,-2.99874
5.621,82365.2335,1.48868,-2.27608,-2.85641
5.6231,82365.2435,1.507,-2.39459,-2.67131
5.6335,82365.2535,1.48379,-2.51738,-2.44835
5.6449,82365.2645,1.4618,-2.56563,-2.24004
5.6534,82365.2745,1.42271,-2.48622,-2.04151
5.6609,82365.2845,1.34574,-2.3274,-1.91567
5.673,82365.2945,1.19058,-2.07694,-1.87841
5.681,82365.3045,1.02137,-1.88269,-1.89979
5.7006,82365.3145,0.75503,-1.5913,-2.0128
5.7044,82365.3245,0.51374,-1.28037,-2.18568
5.7189,82365.3345,0.26878,-0.96211,-2.40559
5.7239,82365.3445,0.08002,-0.74403,-2.59618
5.7371,82365.3545,-0.10018,-0.53267,-2.72079
5.741,82365.3645,-0.33353,-0.4215,-2.82831
5.7531,82365.3745,-0.6744,-0.34453,-2.88573
5.7611,82365.3845,-1.01281,-0.28955,-2.85091
5.7739,82365.3945,-1.38911,-0.32193,-2.76355
5.7823,82365.4045,-1.64139,-0.4667,-2.66398
5.7934,82365.4145,-1.82343,-0.551,-2.43308
5.8022,82365.4245,-1.85764,-0.30421,-2.06228
5.8143,82365.4345,-1.85153,-0.02077,-1.54121
5.8209,82365.4445,-1.9059,0.06536,-1.14476
5.833,82365.4545,-2.09405,0.12034,-0.6408
5.841,82365.4645,-2.27792,0.1405,-0.19303
5.8545,82365.4745,-2.39459,0.13744,0.27489
5.8608,82365.4845,-2.35183,0.12278,0.58704
5.8766,82365.4945,-2.11604,0.13867,0.92424
5.8838,82365.5045,-1.84481,0.21014,1.16187
5.9031,82365.5145,-1.6078,0.30543,1.32497
5.906,82365.5245,-1.49662,0.44838,1.35123
5.9154,82365.5345,-1.46852,0.69822,1.33596
5.9219,82365.5445,-1.49234,0.85155,1.34329
5.9362,82365.5545,-1.50151,1.03603,1.38178
5.943,82365.5655,-1.40804,1.23761,1.44409
5.9557,82365.5755,-1.18813,1.57664,1.50151
5.9638,82365.5865,-0.94318,1.93583,1.51617
5.9779,82365.5965,-0.78007,2.20889,1.44836
5.9893,82365.6065,-0.7196,2.29624,1.34818
5.9967,82365.6165,-0.67012,2.19178,1.18202
6.0064,82365.6265,-0.58215,1.99081,1.10444
6.0188,82365.6365,-0.35797,1.64567,1.06352
6.0233,82365.6465,-0.09346,1.38422,1.05985
6.0368,82365.6565,0.32926,1.10689,1.04458
6.0433,82365.6664,0.73793,0.978,1.00243
6.0617,82365.6765,1.12216,0.97983,0.94379
6.0679,82365.6865,1.32802,1.0684,0.89614
6.0872,82365.6965,1.41171,1.18569,0.86376
6.0934,82365.7065,1.41721,1.31947,0.86437
6.1046,82365.7165,1.32985,1.40071,0.89064
6.1184,82365.7265,1.20096,1.3549,0.93218
6.1198,82365.7363,1.01037,1.21135,1.00671
6.1275,82365.7465,0.92363,1.12582,1.04214
6.1371,82365.7565,0.77274,0.90897,1.15087
6.143,82365.7665,0.66951,0.75442,1.24189
6.1551,82365.7765,0.50824,0.5901,1.40682
6.1638,82365.7865,0.37141,0.46976,1.55954
6.1756,82365.7965,0.20097,0.32193,1.81488
6.1839,82365.8075,0.10079,0.1741,2.02135
6.1979,82365.8175,0.05009,0.02993,2.22783
6.2041,82365.8275,0.06903,-0.05986,2.36099
6.2159,82365.8375,0.14233,-0.05009,2.49844
6.2239,82365.8475,0.19364,0.12462,2.53692
6.2413,82365.8575,0.15027,0.32132,2.44529
6.2449,82365.8675,0.08858,0.42516,2.29869
6.2565,82365.8775,0.01161,0.56627,2.0861
6.2642,82365.8875,-0.03787,0.68845,1.88391
6.2765,82365.8975,-0.07391,0.80634,1.6921
6.2891,82365.9075,-0.12767,0.90652,1.58458
6.2959,82365.9175,-0.22541,0.97677,1.51495
6.304,82365.9275,-0.32498,0.93096,1.52777
6.3166,82365.9375,-0.40623,0.89003,1.60291
6.324,82365.9475,-0.4331,0.92974,1.71531
6.3367,82365.9575,-0.43066,1.01465,1.8387
6.3439,82365.9675,-0.43555,1.13377,1.94316
6.3637,82365.9775,-0.47281,1.3097,1.99875
6.3659,82365.9875,-0.48319,1.46363,2.01036
6.3788,82365.9975,-0.49358,1.5632,1.98531
6.3888,82366.0075,-0.48625,1.62979,1.92911
6.4091,82366.0175,-0.51985,1.65239,1.81916
6.4113,82366.0275,-0.55589,1.55648,1.75318
6.4178,82366.0375,-0.58154,1.36101,1.70309
6.428,82366.0475,-0.55528,1.21684,1.67438
6.4369,82366.0575,-0.43433,1.08429,1.60047
6.4438,82366.0675,-0.25779,1.0177,1.4844
6.4549,82366.0775,-0.03176,0.92118,1.29992
6.4634,82366.0875,0.13011,0.80817,1.13926
6.4751,82366.0975,0.26573,0.58582,0.97372
6.4834,82366.1075,0.31276,0.3543,0.89553
6.4951,82366.1175,0.281,0.12401,0.86437
6.5035,82366.1275,0.1857,0.0055,0.86682
6.5159,82366.1375,0.05864,-0.04032,0.86743
6.5235,82366.1475,-0.06842,-0.04398,0.85765
6.5357,82366.1575,-0.16921,-0.02993,0.84177
6.5435,82366.1675,-0.21319,-0.03238,0.82406
6.5552,82366.1775,-0.19731,-0.07453,0.79474
6.5671,82366.1875,-0.1631,-0.15149,0.76297
6.5782,82366.1975,-0.12462,-0.19792,0.70738
6.586,82366.2085,-0.12889,-0.19059,0.62247
6.603,82366.2195,-0.17776,-0.17104,0.51374
6.6064,82366.2295,-0.27611,-0.20953,0.39706
6.6189,82366.2395,-0.40561,-0.33842,0.24923
6.6264,82366.2495,-0.50091,-0.47647,0.08125
6.6396,82366.2595,-0.56505,-0.67012,-0.11423
6.647,82366.2695,-0.55344,-0.81734,-0.33475
6.6608,82366.2805,-0.46059,-0.93462,-0.63835
6.6682,82366.2905,-0.37446,-1.00121,-0.84299
6.683,82366.3015,-0.22663,-1.09772,-1.08429
6.6891,82366.3115,-0.1179,-1.13926,-1.237
6.7018,82366.3215,-0.02505,-1.20218,-1.36406
6.7158,82366.3325,0.02199,-1.2816,-1.43248
6.7232,82366.3425,0.05253,-1.40377,-1.47524
6.7296,82366.3525,0.09591,-1.48257,-1.52961
6.7476,82366.3625,0.16982,-1.5125,-1.61635
6.7509,82366.3725,0.25168,-1.53205,-1.69821
6.7625,82366.3835,0.36469,-1.53022,-1.81855
6.7705,82366.3935,0.42394,-1.51922,-1.89674
6.7825,82366.4035,0.46181,-1.51189,-1.96699
6.7907,82366.4135,0.45082,-1.52289,-2.01219
6.8066,82366.4235,0.43799,-1.55343,-2.09038
6.81,82366.4335,0.43555,-1.56137,-2.17346
6.8222,82366.4435,0.44227,-1.56076,-2.26692
6.8299,82366.4535,0.44838,-1.5968,-2.33839
6.8435,82366.4635,0.48075,-1.67744,-2.40742
6.8501,82366.4735,0.54184,-1.74707,-2.44102
6.862,82366.4835,0.64752,-1.77273,-2.44163
6.87,82366.4935,0.72876,-1.74769,-2.44713
6.8821,82366.5035,0.80512,-1.65911,-2.47462
6.896,82366.5135,0.81856,-1.54305,-2.5186
6.9049,82366.5235,0.77641,-1.4844,-2.57602
6.9109,82366.5335,0.73548,-1.44714,-2.6255
6.9241,82366.5435,0.686,-1.38789,-2.70797
6.9309,82366.5533,0.62614,-1.24922,-2.81609
6.9433,82366.5635,0.54367,-1.03786,-2.93887
6.9505,82366.5735,0.44532,-0.95539,-3.0305
6.9712,82366.5835,0.33659,-0.99266,-3.09892
6.9764,82366.5935,0.20586,-1.02137,-3.19605
6.9854,82366.6035,0.02077,-1.05741,-3.39152
6.9902,82366.6135,-0.1741,-1.1246,-3.63648
7.0067,82366.6235,-0.35675,-1.19424,-3.87961
7.011,82366.6335,-0.46242,-1.13071,-3.9639
7.0224,82366.6435,-0.62003,-0.8937,-3.94069
7.0303,82366.6535,-0.83078,-0.74342,-3.81058
7.0432,82366.6635,-1.1637,-0.76908,-3.52958
7.0548,82366.6735,-1.4844,-0.8094,-3.20582
7.0648,82366.6835,-2.04579,-1.20035,-2.70613
7.0711,82366.6935,-2.55708,-1.48196,-2.69575
7.0868,82366.7035,-2.81303,-1.72631,-2.07083
7.0924,82366.7135,-2.92788,-2.21927,-1.27671
7.1041,82366.7235,-3.06532,-2.7776,-0.49908
7.119,82366.7335,-3.26446,-2.73607,0.11545
7.1272,82366.7435,-3.54607,-2.35,0.54428
7.1354,82366.7535,-3.7165,-2.2095,0.85643
7.1424,82366.7635,-3.78492,-1.89185,1.17103
7.1652,82366.7735,-3.69329,-1.64811,1.44531
7.1681,82366.7835,-3.53263,-1.33474,1.73302
7.1751,82366.7935,-3.29928,-0.91202,1.98714
7.1828,82366.8035,-2.93582,-0.63347,2.27792
7.1919,82366.8135,-2.68903,-0.83811,2.44957
7.2018,82366.8235,-2.53937,-1.50395,2.5583
7.2125,82366.8335,-2.48928,-1.95721,2.48378
7.2229,82366.8435,-2.65299,-1.95599,2.2376
7.2332,82366.8535,-2.99324,-1.70859,2.08427
7.2426,82366.8635,-3.6823,-1.47524,2.03662
7.2531,82366.8735,-4.09341,-1.38178,2.12154
7.2622,82366.8835,-4.45748,-0.3543,2.23699
7.2744,82366.8935,-4.74398,1.33902,2.31946
7.282,82366.9035,-4.63158,1.82832,2.60595
7.2961,82366.9135,-4.37563,1.64873,3.05921
7.3031,82366.9235,-3.97795,1.52472,3.53874
7.3142,82366.9345,-3.48682,1.6866,3.97551
7.3275,82366.9455,-2.82098,2.23699,4.44343
7.3353,82366.9555,-2.27547,2.87901,4.46726
7.3467,82366.9665,-1.43004,3.56623,3.86372
7.358,82366.9775,-0.49724,3.0696,3.00057
7.3672,82366.9875,0.54184,1.42759,2.22905
7.375,82366.9975,1.372,0.46487,1.6756
7.386,82367.0075,2.05006,-0.03421,1.37384
7.3939,82367.0175,2.47828,-0.26512,1.35856
7.4052,82367.0275,2.07939,-1.31275,1.34024
7.4134,82367.0375,0.66829,-2.5748,0.99266
7.4265,82367.0475,-0.90958,-2.77577,0.47159
7.4332,82367.0575,-2.20522,-1.97004,-0.06903
7.4456,82367.0675,-3.35365,-1.45447,-0.64507
7.4535,82367.0775,-3.58822,-1.44836,-0.81612
7.4653,82367.0875,-3.38297,-0.78252,-0.50152
7.4735,82367.0975,-3.20032,-0.09468,0.11668
7.4881,82367.1075,-2.6591,-0.68234,0.9951
7.4933,82367.1175,-2.33473,-1.38239,1.71287
7.5051,82367.1275,-2.11237,-1.9285,2.18262
7.5147,82367.1375,-1.88941,-1.95477,2.50455
7.5263,82367.1475,-1.38483,-1.99386,2.62122
7.5336,82367.1575,-0.95234,-2.5693,2.29197
7.5453,82367.1675,-0.35797,-3.0134,1.74341
7.5535,82367.1775,0.1912,-3.24308,1.30786
7.5657,82367.1875,0.90103,-3.36648,0.78435
7.5768,82367.1975,1.39766,-3.44589,0.39523
7.5854,82367.2075,1.68904,-3.92725,0.02566
7.5942,82367.2175,1.77395,-4.68106,-0.17898
7.6052,82367.2275,1.87413,-5.67372,-0.29627
7.614,82367.2375,2.14169,-6.85513,-0.38423
7.6277,82367.2475,2.75195,-8.21247,-0.56933
7.6352,82367.2575,3.317,-8.55272,-0.70005
7.6479,82367.2675,4.554,-7.83068,-0.84971
7.6541,82367.2775,5.09278,-8.41161,-0.83872
7.6658,82367.2875,5.43792,-8.44704,-0.9279
7.6754,82367.2975,5.57842,-8.42689,-0.95723
7.6884,82367.3075,5.58942,-8.20881,-0.73793
7.6991,82367.3175,5.56865,-7.91437,-0.42394
7.7155,82367.3275,5.56681,-7.55885,-0.12645
7.7185,82367.3375,5.55032,-7.24059,-0.07269
7.7326,82367.3475,5.5155,-6.87162,-0.12156
7.7357,82367.3585,5.50878,-6.52221,-0.21258
7.7476,82367.3685,5.66883,-6.21922,-0.30482
7.7555,82367.3785,5.81727,-5.73419,-0.33292
7.7675,82367.3885,6.03596,-5.09828,-0.34514
7.7816,82367.3985,6.11049,-4.54972,-0.25962
7.7873,82367.4085,5.94555,-3.67252,0.0336
7.8021,82367.4185,5.60225,-2.97369,0.60048
7.8088,82367.4285,5.27421,-2.57419,1.38117
7.8192,82367.4385,5.07324,-2.60534,2.00608
7.8485,82367.4485,4.87532,-3.01279,2.38787
7.8516,82367.4585,4.76597,-3.29012,2.51738
7.8522,82367.4685,4.79346,-3.1484,2.46973
7.857,82367.4785,4.70672,-2.85457,2.339
7.8662,82367.4885,4.57599,-2.60351,2.39032
7.8744,82367.4985,4.49841,-2.51188,2.70125
7.8861,82367.5085,4.48131,-2.66704,3.14351
7.901,82367.5185,4.51063,-2.96147,3.41474
7.9061,82367.5285,4.55644,-3.34937,3.55585
7.9143,82367.5385,4.61142,-3.72628,3.55401
7.9305,82367.5485,4.69878,-3.95963,3.46605
7.9346,82367.5585,4.77452,-4.00178,3.39763
7.9463,82367.5685,4.86432,-3.93703,3.38603
7.9547,82367.5785,4.98344,-3.82768,3.41474
7.9672,82367.5885,5.1386,-3.75132,3.43917
7.9747,82367.5985,5.31697,-3.70368,3.48132
7.9887,82367.6085,5.58575,-3.48376,3.62365
7.9953,82367.6185,5.75191,-3.32433,3.65114
8.0073,82367.6285,5.97854,-3.16062,3.58211
8.0151,82367.6385,6.20517,-3.08059,3.41901
8.0275,82367.6485,6.47395,-2.98591,3.2046
8.0359,82367.6585,6.63216,-2.89733,3.00851
8.0492,82367.6685,6.62178,-2.8393,2.7153
8.056,82367.6785,6.43608,-2.76478,2.30663
8.0727,82367.6885,6.0891,-2.60839,1.73486
8.0797,82367.6985,5.8136,-2.13131,1.31458
8.0883,82367.7085,5.48618,-1.17897,1.04763
8.0968,82367.7185,5.0598,-0.10934,0.84177
8.1088,82367.7285,4.47703,0.86437,0.57727
8.1147,82367.7385,3.88449,1.41293,0.25962
8.1298,82367.7485,3.19299,1.95171,-0.23152
8.1355,82367.7585,2.66582,2.37138,-0.72815
8.153,82367.7685,1.99875,2.77027,-1.38666
8.1594,82367.7795,1.41049,2.93948,-2.02502
8.1723,82367.7894,0.99327,2.9853,-2.65299
8.1799,82367.7995,0.7648,3.00362,-3.14412
8.1888,82367.8095,0.50824,2.96209,-3.78614
8.1962,82367.8195,0.2584,2.81487,-4.41411
8.2115,82367.8295,-0.10079,2.52287,-5.16242
8.2165,82367.8395,-0.46548,2.23821,-5.7067
8.2318,82367.8495,-0.9444,1.89429,-6.29497
8.2363,82367.8595,-1.3549,1.69637,-6.69142
8.2497,82367.8695,-1.76784,1.59741,-7.05122
8.2565,82367.8795,-2.06228,1.5797,-7.25036
8.2722,82367.8895,-2.42025,1.62429,-7.37498
8.2781,82367.8995,-2.67437,1.77456,-7.37681
8.2908,82367.9095,-2.86557,2.00058,-7.3255
8.2971,82367.9205,-2.93887,2.09038,-7.27052
8.3104,82367.9305,-2.98102,1.97981,-7.15445
8.3179,82367.9405,-2.92788,1.62796,-7.00174
8.3399,82367.9505,-2.75317,1.09162,-6.86551
8.3419,82367.9604,-2.48256,0.6182,-6.80137
8.3511,82367.9705,-1.99814,-0.05498,-6.78427
8.3611,82367.9805,-1.69637,-0.43738,-6.86918
8.3723,82367.9915,-1.44653,-0.77946,-7.05427
8.3784,82368.0015,-1.40804,-0.86743,-7.19721
8.3901,82368.0115,-1.51433,-0.74526,-7.29617
8.3979,82368.0215,-1.71348,-0.36774,-7.2412
8.4104,82368.0315,-2.00791,0.16066,-7.07504
8.4196,82368.0415,-2.28097,0.49114,-6.89423
8.4303,82368.0515,-2.53937,0.88148,-6.73418
8.4383,82368.0615,-2.66887,1.06107,-6.67737
8.453,82368.0715,-2.77638,1.16064,-6.6621
8.458,82368.0815,-2.85396,1.06046,-6.65477
8.4691,82368.0915,-2.95048,0.84605,-6.62606
8.4775,82368.1015,-3.06471,0.69944,-6.57596
8.4891,82368.1115,-3.14351,0.70005,-6.5051
8.4975,82368.1215,-3.15634,0.82711,-6.37377
8.5092,82368.1315,-3.14473,1.16064,-6.12454
8.5175,82368.1415,-3.14718,1.51433,-5.92906
8.5321,82368.1515,-3.18444,2.12825,-5.75557
8.539,82368.1615,-3.18383,2.76844,-5.78428
8.552,82368.1715,-3.44406,3.21559,-5.71953
8.5589,82368.1813,-3.6884,3.47216,-5.62057
8.573,82368.1915,-4.12395,3.21132,-5.40677
8.5795,82368.2015,-4.49414,2.96636,-5.26138
8.5916,82368.2115,-4.97,2.86984,-5.02314
8.6062,82368.2225,-5.33102,3.07571,-4.79163
8.6143,82368.2325,-5.3524,3.83684,-4.50269
8.6254,82368.2425,-5.34568,4.25345,-4.24063
8.6336,82368.2525,-5.23695,4.56316,-3.83684
8.6401,82368.2625,-5.11539,4.50757,-3.51431
8.666,82368.2725,-5.02131,3.72139,-3.17772
8.6706,82368.2825,-4.9138,2.63894,-2.87351
8.6785,82368.2925,-4.51613,1.83626,-2.46912
8.6826,82368.3025,-3.95719,0.8265,-2.00486
8.6932,82368.3125,-3.26935,-0.21564,-1.57725
8.7002,82368.3225,-2.6817,-1.02259,-1.39827
8.7163,82368.3335,-2.15391,-1.83748,-1.39766
8.7219,82368.3435,-1.799,-2.13375,-1.3885
8.7382,82368.3535,-1.3268,-1.97004,-1.26022
8.742,82368.3635,-0.92607,-1.67621,-1.03847
8.7526,82368.3735,-0.51252,-1.38117,-0.70921
8.7604,82368.3835,-0.25962,-1.2706,-0.47647
8.7767,82368.3935,-0.09652,-1.45325,-0.3879
8.7904,82368.4035,0.1631,-1.50762,-0.38607
8.7953,82368.4135,0.80023,-1.41354,-0.21686
8.8048,82368.4235,1.63284,-1.41049,0.10263
8.8129,82368.4335,2.6872,-1.49906,0.59865
8.8207,82368.4435,3.48621,-1.64873,1.03053
8.8359,82368.4535,4.3738,-1.90529,1.52655
8.8413,82368.4635,4.99566,-2.08427,1.85337
8.8561,82368.4735,5.48801,-2.33839,2.03907
8.8615,82368.4835,5.71892,-2.50516,2.04945
8.8761,82368.4933,5.90462,-2.86679,1.94866
8.8812,82368.5035,6.0213,-3.31272,1.86436
8.9024,82368.5135,6.15447,-3.86189,1.86375
8.9046,82368.5235,6.21433,-4.15327,1.94377
8.9255,82368.5335,6.20578,-4.37563,2.0971
8.9316,82368.5435,5.96082,-4.05248,2.20828
8.9364,82368.5535,5.72136,-3.72994,2.38299
8.941,82368.5635,5.58942,-3.46666,2.53631
8.9547,82368.5735,5.34629,-2.94559,2.67742
8.9606,82368.5835,5.17953,-2.5974,2.83503
8.9786,82368.5935,5.13677,-2.25654,3.07082
8.9813,82368.6045,5.22473,-2.03174,3.25897
8.9949,82368.6145,5.27116,-1.4673,3.4465
9.0018,82368.6245,5.13616,-0.6408,3.54058
9.0161,82368.6345,4.81423,0.1967,3.70184
9.0225,82368.6445,4.61264,0.07575,3.88266
9.0362,82368.6545,4.48558,-0.72815,4.01705
9.0419,82368.6645,4.47337,-1.89307,3.97062
9.0562,82368.6745,4.5821,-2.77822,3.7385
9.0664,82368.6845,4.76108,-2.82098,3.62182
9.0765,82368.6945,4.97611,-2.48989,3.75377
9.0861,82368.7045,4.95656,-2.30357,3.87655
9.0957,82368.7155,4.66029,-2.40498,3.8063
9.102,82368.7255,4.36158,-2.84541,3.36648
9.1142,82368.7355,4.014,-2.90039,2.8393
9.1219,82368.7455,3.46849,-2.41231,2.62916
9.1368,82368.7555,2.65421,-1.58214,2.66154
9.1433,82368.7655,2.12276,-1.08367,2.79165
9.1571,82368.7754,1.63956,-0.5058,2.88023
9.1639,82368.7865,1.23028,0.17837,2.90466
9.1769,82368.7965,0.94623,0.53206,2.93093
9.1838,82368.8065,0.78985,0.405,2.93399
9.1963,82368.8165,0.75564,-0.04704,2.90344
9.204,82368.8265,0.83505,-0.57116,2.9181
9.2175,82368.8375,1.02625,-1.17164,3.10075
9.2248,82368.8475,1.31214,-1.65789,3.38297
9.2373,82368.8575,1.68232,-2.14047,3.78798
9.2449,82368.8675,2.10077,-2.68659,4.21497
9.2601,82368.8775,2.56808,-3.39763,4.67984
9.2653,82368.8875,2.89794,-4.21131,5.0598
9.2774,82368.8975,3.19116,-5.03597,5.35301
9.2843,82368.9075,3.48376,-5.65356,5.57231
9.2978,82368.9175,3.86189,-5.91256,5.7629
9.3043,82368.9275,4.12639,-5.85453,5.85392
9.3165,82368.9375,4.44588,-5.7232,5.91867
9.3248,82368.9475,4.67801,-5.68166,5.86736
9.3413,82368.9575,4.97428,-5.61874,5.61874
9.3449,82368.9675,5.05858,-5.51856,5.41166
9.3576,82368.9775,4.98222,-5.55399,5.16853
9.366,82368.9885,4.86615,-5.73664,4.96389
9.3785,82368.9985,4.86004,-5.70915,4.72321
9.3871,82369.0085,4.98527,-5.52589,4.53079
9.3993,82369.0185,5.05919,-5.11416,4.34631
9.406,82369.0295,4.97977,-4.75131,4.15938
9.4217,82369.0395,4.63463,-4.64807,4.0311
9.4419,82369.0495,4.26567,-4.95717,3.87961
9.4433,82369.0595,3.84356,-5.43548,3.45689
9.4455,82369.0695,3.52103,-5.74213,3.21071
9.4571,82369.0795,3.00179,-6.05856,2.8503
9.4655,82369.0895,2.49233,-5.99686,2.62244
9.4771,82369.0995,1.81855,-5.46663,2.56624
9.4854,82369.1095,1.13377,-4.86676,2.64016
9.4971,82369.1195,0.21502,-4.43916,2.72507
9.5068,82369.1295,-0.43921,-4.408,2.69086
9.5206,82369.1395,-0.95539,-4.25651,2.69147
9.527,82369.1495,-1.25838,-3.91442,2.70858
9.54,82369.1595,-1.61268,-3.65786,2.65787
9.5472,82369.1695,-1.97554,-3.60166,2.53998
9.5614,82369.1805,-2.44957,-3.70368,2.31579
9.5684,82369.1905,-2.74034,-3.96818,2.10443
9.5823,82369.2005,-3.09525,-4.43977,1.88208
9.592,82369.2105,-3.38175,-4.66823,1.76662
9.6017,82369.2205,-3.71773,-4.37868,1.68354
9.6081,82369.2305,-3.93703,-3.99017,1.75135
9.6214,82369.2405,-4.3518,-3.23942,1.97126
9.6283,82369.2505,-4.61387,-2.72568,2.31029
9.6425,82369.2615,-4.90219,-2.21927,2.67864
9.6491,82369.2714,-5.00238,-2.14475,2.74401
9.6621,82369.2815,-4.95839,-2.35366,2.76417
9.6695,82369.2914,-4.81484,-2.79104,2.75256
9.683,82369.3015,-4.56561,-3.11114,2.69453
9.69,82369.3125,-4.38723,-3.10686,2.6707
9.7107,82369.3225,-4.26384,-2.87229,2.74462
9.7176,82369.3325,-4.26079,-2.65726,2.84236
9.7294,82369.3425,-4.26995,-2.47523,3.04944
9.7323,82369.3525,-4.27545,-2.29441,3.18566
9.7422,82369.3625,-4.31393,-1.73608,3.26446
9.7502,82369.3735,-4.37807,-0.88942,3.25713
9.763,82369.3835,-4.44771,0.02749,3.15695
9.7709,82369.3935,-4.5314,0.62614,3.02928
9.7904,82369.4035,-4.65357,1.01892,2.80693
9.7946,82369.4145,-4.79468,1.05069,2.76722
9.8034,82369.4245,-4.98405,0.64324,2.70613
9.811,82369.4345,-5.19419,-0.08125,2.57785
9.8239,82369.4445,-5.39516,-1.17775,2.57968
9.831,82369.4545,-5.40738,-1.71897,2.71774
9.8518,82369.4645,-5.25772,-1.83809,3.01645
9.8558,82369.4745,-5.03597,-1.02442,3.3506
9.865,82369.4844,-4.47459,0.48197,3.85945
9.8732,82369.4955,-3.74888,0.68173,4.47337
9.8967,82369.5065,-2.84969,0.84422,4.87104
9.9,82369.5165,-2.34145,0.97372,4.82339
9.9173,82369.5265,-1.94316,1.2816,4.51552
9.9206,82369.5365,-1.92423,1.74036,4.12884
9.9249,82369.5465,-2.3164,1.6304,3.6432
9.9331,82369.5565,-2.82647,1.24678,3.19788
9.945,82369.5665,-3.48621,0.77274,2.77699
9.9531,82369.5765,-3.7892,0.45876,2.8112
9.9653,82369.5865,-3.80569,0.45693,3.26569
9.9756,82369.5965,-3.72872,0.69761,3.77759
9.9882,82369.6075,-3.76354,1.33046,4.42144
9.9997,82369.6175,-4.12212,2.05067,4.69511
10.0172,82369.6275,-4.89975,2.94132,4.80262
10.0203,82369.6385,-5.73175,3.57723,4.86432
10.0308,82369.6495,-6.63705,4.34875,4.96633
10.0435,82369.6595,-6.98952,4.80751,5.0091
10.0583,82369.6695,-7.25647,5.5601,5.02314
10.061,82369.6794,-7.31022,5.97671,5.02314
10.0734,82369.6895,-7.17461,6.48311,5.02498
10.0802,82369.6995,-6.96875,6.71891,4.98405
10.0975,82369.7095,-6.66882,6.54114,4.85088
10.1007,82369.7195,-6.25709,5.98159,4.77758
10.1089,82369.7295,-5.69998,5.28887,4.78002
10.1187,82369.7395,-5.21557,4.9474,4.85699
10.1282,82369.7495,-4.81484,4.97,5.02864
10.1359,82369.7595,-4.70794,5.08362,5.23328
10.1472,82369.7695,-4.78918,5.13616,5.45991
10.1556,82369.7795,-4.91624,5.15448,5.54177
10.1706,82369.7895,-4.93823,5.18991,5.53444
10.1754,82369.7995,-4.91319,5.40555,5.5155
10.1871,82369.8095,-5.0036,5.74213,5.48129
10.1962,82369.8195,-5.26627,5.73725,5.54788
10.2091,82369.8305,-5.5772,6.09705,5.81116
10.2164,82369.8405,-5.5039,6.69569,6.05367
10.2313,82369.8505,-5.63829,7.24242,6.18379
10.2366,82369.8605,-5.87958,7.77876,6.0439
10.254,82369.8705,-6.34567,8.21492,5.6951
10.2594,82369.8805,-6.73968,8.60098,5.43609
10.2739,82369.8905,-7.23387,9.53072,5.11111
10.281,82369.9005,-7.52342,10.04324,4.92235
10.2914,82369.9105,-7.82091,10.38288,4.74398
10.3057,82369.9205,-8.05365,10.44213,4.56377
10.3156,82369.9305,-8.29677,9.88563,4.10135
10.3209,82369.9415,-8.29922,8.56983,3.28279
10.3359,82369.9525,-7.50448,5.51611,1.93095
10.3404,82369.9625,-6.16791,2.87901,1.00487
10.352,82369.9725,-3.56684,-0.0562,-0.1857
10.3591,82369.9824,-0.95478,-1.78312,-0.7648
10.3755,82369.9925,1.21196,-2.72812,-1.05558
10.3818,82370.0025,2.1643,-2.67009,-1.12705
10.3949,82370.0125,2.52532,-1.89918,-1.11483
10.4044,82370.0235,2.07389,-1.19302,-0.8265
10.4148,82370.0335,1.11911,-0.42333,-0.27
10.4199,82370.0435,0.12645,0.31948,0.08613
10.4321,82370.0535,-1.25044,1.14782,0.26939
10.4396,82370.0635,-2.26753,1.51433,0.2364
10.4512,82370.0735,-3.02684,1.55099,0.10629
10.4596,82370.0835,-3.39152,1.19913,-0.0788
10.4722,82370.0935,-3.58944,0.2865,-0.38668
10.4805,82370.1035,-3.38297,-0.70738,-0.59743
10.4967,82370.1135,-2.79654,-1.66216,-0.8656
10.5017,82370.1245,-1.87536,-2.04457,-1.14659
10.5149,82370.1345,-0.29383,-2.68414,-1.06779
10.5213,82370.1445,0.7477,-3.32127,-0.70738
10.5342,82370.1545,1.73608,-4.38601,-0.13134
10.5428,82370.1645,2.28464,-5.37256,0.25595
10.5569,82370.1745,3.01951,-6.8588,0.71532
10.564,82370.1845,3.88083,-8.32609,1.1075
10.5732,82370.1945,5.03964,-9.67977,1.55526
10.581,82370.2045,6.02741,-10.42258,2.02929
10.594,82370.2145,6.78549,-10.79338,2.58091
10.601,82370.2245,7.02984,-11.01023,2.77577
10.6133,82370.2345,7.00174,-11.27107,2.58701
10.6209,82370.2445,6.59246,-11.22892,1.99814
10.6365,82370.2545,5.77634,-10.50016,1.12155
10.6467,82370.2645,4.99016,-9.19719,0.46853
10.6562,82370.2745,3.82279,-6.488,-0.31337
10.6609,82370.2845,2.96758,-4.37196,-0.52657
10.674,82370.2945,1.88024,-1.97676,-0.29932
10.681,82370.3045,1.24739,-0.82222,0.02382
10.6943,82370.3145,0.80023,-0.27855,0.36346
10.701,82370.3245,0.76847,-0.47831,0.54184
10.7165,82370.3345,0.90347,-1.10383,0.71654
10.7219,82370.3445,1.14965,-1.93766,0.84299
10.7345,82370.3545,1.59191,-3.40435,0.98227
10.7427,82370.3655,2.1533,-5.09401,1.04763
10.7582,82370.3765,2.81303,-6.86429,1.08734
10.7663,82370.3865,3.47705,-8.22469,1.05252
10.7783,82370.3975,4.32859,-9.19902,0.78496
10.7853,82370.4075,4.83683,-9.43237,0.54123
10.7989,82370.4174,5.14104,-9.43542,0.36469
10.8115,82370.4285,5.18625,-8.97483,0.29322
10.8247,82370.4385,4.75375,-7.91254,0.41539
10.8267,82370.4485,4.11723,-7.18866,0.56016
10.8369,82370.4585,3.16734,-6.47212,0.90347
10.845,82370.4685,2.4795,-6.1392,1.15942
10.8569,82370.4785,2.02319,-6.08605,1.28954
10.8698,82370.4885,1.90101,-6.23388,1.32252
10.8781,82370.4985,1.98592,-6.50694,1.39338
10.8858,82370.5085,2.20339,-6.93332,1.48074
10.8986,82370.5185,2.61695,-7.6407,1.51739
10.9147,82370.5295,3.07571,-8.2705,1.37445
10.9211,82370.5395,3.67985,-9.08112,1.09406
10.9271,82370.5494,4.17343,-9.58142,0.86132
10.9406,82370.5605,4.72504,-10.20145,0.5901
10.9529,82370.5704,5.01032,-10.5246,0.44104
10.9657,82370.5815,5.31208,-10.33401,0.18876
10.968,82370.5915,5.37989,-9.80378,0.12645
10.9834,82370.6015,5.27299,-9.05547,0.21869
10.988,82370.6115,5.12333,-8.50752,0.32132
11.0023,82370.6215,4.98649,-7.93147,0.34941
11.0091,82370.6325,5.01154,-7.38658,0.22846
11.0224,82370.6425,5.14165,-6.52526,0.06597
11.0291,82370.6525,5.21312,-5.54055,-0.04948
11.0445,82370.6625,5.24672,-4.04759,-0.27245
11.05,82370.6725,5.21374,-2.65299,-0.63041
11.0679,82370.6835,5.0262,-1.14598,-1.12582
11.0805,82370.6945,4.71405,-0.15027,-1.4166
11.0964,82370.7045,4.26079,0.86376,-1.62185
11.1031,82370.7145,3.84784,1.67194,-1.77151
11.1048,82370.7255,3.48254,2.41475,-1.95294
11.1123,82370.7355,3.23026,2.75867,-2.13253
11.1249,82370.7455,2.93948,2.9908,-2.2828
11.1321,82370.7555,2.76294,3.10564,-2.27914
11.1439,82370.7655,2.56319,3.10197,-2.06228
11.152,82370.7755,2.32007,3.19055,-1.7825
11.1639,82370.7855,1.98653,3.44406,-1.7764
11.1722,82370.7955,1.73486,3.87411,-2.18751
11.1857,82370.8055,1.56076,4.44343,-2.8393
11.1932,82370.8155,1.37567,4.96023,-3.48743
11.2132,82370.8265,1.06535,5.58881,-4.21192
11.2188,82370.8365,0.72143,6.16424,-4.69206
11.2304,82370.8465,0.40745,6.86735,-5.10317
11.2351,82370.8565,0.10934,7.89055,-5.44098
11.247,82370.8665,-0.21991,8.9449,-5.67494
11.2624,82370.8775,-0.37751,9.63701,-5.74152
11.2742,82370.8875,-0.22724,9.77446,-5.89241
11.2781,82370.8975,0.03421,9.29737,-6.08727
11.2883,82370.9075,0.50702,7.99623,-6.42142
11.2958,82370.9185,0.76114,6.99746,-6.76778
11.3085,82370.9285,0.77824,5.76596,-7.24303
11.3159,82370.9385,0.40256,4.71283,-7.59733
11.3294,82370.9485,-0.34941,3.88755,-7.94247
11.3361,82370.9585,-0.85399,3.72017,-8.06403
11.3492,82370.9685,-1.27976,3.86983,-8.06525
11.357,82370.9795,-1.56809,4.18443,-7.85389
11.3805,82370.9895,-1.64934,4.34692,-7.56557
11.3871,82370.9995,-1.61513,4.24429,-7.33527
11.4052,82371.0095,-1.62001,3.99445,-7.19905
11.4084,82371.0194,-1.74769,3.78309,-7.10803
11.4199,82371.0295,-2.20706,3.31028,-6.94065
11.4251,82371.0395,-2.70064,2.67926,-6.77572
11.4301,82371.0495,-3.21376,1.87597,-6.67248
11.439,82371.0595,-3.48376,1.50517,-6.7635
11.4512,82371.0695,-3.5589,1.24189,-6.89789
11.4566,82371.0795,-3.47338,1.17286,-6.88384
11.4684,82371.0895,-3.30295,1.21135,-6.75861
11.4755,82371.0995,-3.12641,1.30053,-6.6847
11.4872,82371.1095,-2.85885,1.55465,-6.64133
11.4975,82371.1195,-2.65787,1.80694,-6.56191
11.5093,82371.1295,-2.70064,1.78739,-6.51793
11.516,82371.1395,-2.98408,1.36834,-6.5778
11.5324,82371.1495,-3.44772,0.73304,-6.70608
11.5363,82371.1595,-3.6542,0.55711,-6.82764
11.548,82371.1695,-3.50331,0.74526,-7.12819
11.5559,82371.1795,-3.06532,0.89858,-7.08237
11.568,82371.1895,-2.52898,0.58826,-6.64621
11.5771,82371.1995,-2.16002,0.31154,-6.10499
11.5967,82371.2095,-1.72814,0.26756,-5.46419
11.6032,82371.2195,-1.54121,0.36591,-5.20091
11.6103,82371.2295,-1.39033,0.50946,-5.08606
11.6175,82371.2395,-1.4392,0.46548,-5.12516
11.636,82371.2495,-1.67255,0.3207,-5.18991
11.6414,82371.2595,-1.94255,0.14233,-5.1105
11.6586,82371.2695,-2.20645,-0.0226,-4.87165
11.6611,82371.2794,-2.45507,-0.11484,-4.56988
11.672,82371.2895,-2.69697,-0.03665,-4.20031
11.6797,82371.2995,-2.82892,0.20281,-3.77087
11.6917,82371.3095,-2.83991,0.50763,-3.17467
11.6968,82371.3205,-2.75134,0.7251,-2.55769
11.7114,82371.3305,-2.56075,0.83444,-1.77395
11.7169,82371.3405,-2.34939,0.77641,-1.10261
11.7306,82371.3505,-2.18568,0.29627,-0.5003
11.737,82371.3605,-2.19911,-0.55589,-0.18448
11.7513,82371.3705,-2.18079,-1.71164,0.0391
11.757,82371.3805,-1.79778,-2.29074,0.22907
11.7702,82371.3905,-0.90775,-2.22172,0.58032
11.778,82371.4005,-0.04826,-1.82649,0.9163
11.7895,82371.4105,0.95723,-1.25716,1.39888
11.7966,82371.4205,1.62246,-0.93646,1.90895
11.8235,82371.4303,2.05312,-0.46059,2.62061
11.8248,82371.4415,2.14902,0.03238,3.31333
11.8302,82371.4515,1.94499,0.28283,3.98834
11.8407,82371.4615,1.63773,0.22297,4.50085
11.8506,82371.4715,1.25227,0.13317,5.02498
11.8576,82371.4815,0.9334,-0.04826,5.41471
11.8698,82371.4915,0.55344,-0.56016,5.80322
11.8775,82371.5013,0.37018,-1.29076,6.00114
11.8897,82371.5115,0.37568,-2.36649,6.16913
11.8984,82371.5215,0.51007,-3.21193,6.35605
11.9107,82371.5314,0.79779,-4.11296,6.84047
11.9216,82371.5415,1.02931,-4.56255,7.32244
11.9307,82371.5525,1.32008,-4.83866,8.06159
11.9393,82371.5625,1.47219,-4.87226,8.47881
11.9532,82371.5725,1.68782,-4.74642,8.86182
11.9596,82371.5825,1.90285,-4.60898,8.98338
11.9715,82371.5925,2.26692,-4.46176,9.02431
11.9795,82371.6025,2.62733,-4.42755,8.97239
11.9942,82371.6125,3.22476,-4.31882,8.95101
12.0004,82371.6235,3.5815,-4.03843,9.07868
12.0158,82371.6335,3.9358,-3.63954,9.47941
12.021,82371.6435,4.03721,-3.18383,9.88319
12.0351,82371.6545,3.88877,-2.45812,10.32973
12.0491,82371.6655,3.60594,-1.95416,10.57713
12.0635,82371.6755,3.31883,-1.49051,10.73412
12.0671,82371.6855,3.08976,-1.08856,10.7775
12.0763,82371.6955,2.71224,-0.94806,10.64311
12.0984,82371.7055,2.19301,-0.94623,10.32607
12.105,82371.7154,1.15087,-0.8601,9.58448
12.1105,82371.7255,0.39767,-0.80695,8.98277
12.1211,82371.7355,-0.70494,-0.70983,7.88505
12.1251,82371.7455,-1.55771,-0.62064,6.7635
12.1435,82371.7555,-2.18079,-0.35919,5.40982
12.1449,82371.7655,-2.39826,-0.06658,4.35119
12.154,82371.7755,-2.32679,0.26573,2.96514
12.1619,82371.7855,-2.06534,0.37263,1.72203
12.1751,82371.7955,-1.5632,0.41539,0.49297
12.183,82371.8055,-1.11788,0.36469,-0.26817
12.1941,82371.8155,-0.48686,0.26267,-1.08673
12.2042,82371.8255,0.12462,0.24862,-1.73852
12.2165,82371.8355,0.69394,0.20159,-2.40681
12.2232,82371.8455,0.99143,0.14539,-2.93704
12.2338,82371.8555,1.08612,0.10263,-3.463
12.242,82371.8655,1.04153,0.09102,-4.00972
12.254,82371.8755,0.85888,0.11606,-4.6664
12.2619,82371.8855,0.61148,0.16432,-5.31453
12.274,82371.8955,0.26878,0.16493,-6.04512
12.282,82371.9055,-0.01894,0.08247,-6.56253
12.294,82371.9155,-0.31093,-0.13806,-7.14773
12.3028,82371.9255,-0.49847,-0.2755,-7.50876
12.3244,82371.9355,-0.65912,-0.24251,-7.6572
12.3272,82371.9455,-0.77458,-0.15577,-7.68468
12.339,82371.9555,-0.86621,0.00611,-7.69079
12.3439,82371.9665,-0.84483,0.05131,-7.67002
12.3648,82371.9765,-0.77397,-0.31582,-7.67674
12.3712,82371.9863,-0.72326,-0.88881,-7.74516
12.3859,82371.9965,-0.59804,-1.86314,-7.95591
12.4064,82372.0065,-0.40256,-2.7996,-8.24729
12.4128,82372.0165,-0.17654,-3.50331,-8.58999
12.4251,82372.0265,-0.05925,-3.66641,-8.79646
12.4332,82372.0363,-0.48686,-3.50392,-8.81967
12.4337,82372.0463,-0.48686,-3.50392,-8.81967
12.4396,82372.0565,-0.81795,-3.61266,-8.63519
12.4442,82372.0665,-1.05924,-3.61754,-8.41284
12.455,82372.0765,-1.41965,-3.63098,-8.13795
12.4621,82372.0864,-1.75746,-3.89243,-8.05304
12.4738,82372.0964,-2.1814,-4.08974,-8.017
12.4826,82372.1064,-2.47034,-4.00972,-7.91742
12.4947,82372.1165,-2.75622,-3.97368,-7.7476
12.5028,82372.1265,-3.15268,-4.02621,-7.52036
12.5149,82372.1365,-3.62976,-4.18626,-7.23936
12.5229,82372.1464,-3.98223,-4.62669,-6.94248
12.5358,82372.1564,-4.23391,-5.43304,-6.73845
12.5428,82372.1664,-4.24002,-5.36645,-6.7409
12.5548,82372.1764,-3.85761,-3.61754,-6.70058
12.563,82372.1865,-3.39397,-2.49844,-6.33895
12.5754,82372.1965,-2.97614,-2.89123,-5.41837
12.5829,82372.2064,-2.70674,-3.38969,-4.63586
12.5953,82372.2164,-2.32007,-4.10501,-3.77942
12.604,82372.2275,-2.01708,-4.78185,-3.38847
12.6182,82372.2374,-1.58031,-5.18686,-3.24553
12.6262,82372.2485,-1.08673,-5.47457,-3.29256
12.6408,82372.2595,-0.35552,-5.93639,-3.48865
12.6468,82372.2694,0.18998,-5.90646,-3.50759
12.6625,82372.2794,0.75259,-6.11537,-3.23148
12.6687,82372.2894,1.09223,-6.28275,-2.97614
12.682,82372.3005,1.85214,-5.69387,-2.83014
12.6882,82372.3104,2.43247,-5.35668,-2.78921
12.7011,82372.3204,3.3225,-5.34446,-2.83075
12.7091,82372.3314,4.14594,-5.47519,-3.11114
12.722,82372.3414,4.74703,-5.29437,-3.56196
12.7293,82372.3514,5.11355,-5.09828,-3.95291
12.742,82372.3614,5.31758,-5.24367,-4.42938
12.7556,82372.3715,5.23328,-5.53261,-4.79651
12.762,82372.3815,4.92174,-5.61385,-5.02498
12.7694,82372.3915,4.57294,-5.4031,-5.02009
12.7836,82372.4025,4.13983,-4.78735,-4.72871
12.7901,82372.4125,3.97001,-4.25284,-4.52285
12.8038,82372.4235,4.02255,-3.73483,-4.47764
12.8147,82372.4335,4.24124,-3.34449,-4.72016
12.8268,82372.4434,4.75925,-2.93826,-5.40433
12.837,82372.4534,5.22778,-2.64688,-6.0384
12.8438,82372.4634,5.6786,-2.43124,-6.71219
12.855,82372.4734,5.89607,-1.99264,-7.11536
12.8837,82372.4835,6.04329,-1.2254,-7.41346
12.8879,82372.4935,6.10682,-0.71899,-7.37925
12.8898,82372.5035,6.1899,-0.18448,-7.03045
12.8952,82372.5145,6.27542,0.1741,-6.50388
12.9066,82372.5245,6.38843,0.76419,-5.75618
12.9143,82372.5344,6.49166,1.46669,-5.22534
12.926,82372.5455,6.68225,2.05556,-4.62181
12.9354,82372.5554,6.84047,1.98165,-4.34447
12.9464,82372.5654,6.87651,1.67072,-4.15266
12.9582,82372.5754,6.67554,1.56931,-4.10318
12.9679,82372.5854,6.17402,2.1142,-4.25468
12.9751,82372.5955,5.81605,2.6933,-4.36219
12.9881,82372.6055,5.22473,3.48804,-4.23696
12.9955,82372.6155,4.67984,3.96635,-3.75316
13.0058,82372.6254,3.98651,4.1942,-2.99202
13.0156,82372.6354,3.4972,3.95963,-2.53998
13.0259,82372.6454,3.07876,3.33288,-2.32923
13.0372,82372.6555,2.75012,3.04761,-2.4514
13.0468,82372.6655,2.47584,3.12335,-2.87473
13.0554,82372.6765,2.40314,3.43367,-3.11725
13.068,82372.6865,2.38482,3.88144,-3.047
13.0899,82372.6964,2.33106,4.2559,-2.65054
13.0946,82372.7064,2.14719,4.8747,-2.20583
13.1006,82372.7164,1.92972,5.25161,-2.00791
13.1082,82372.7264,1.67316,5.42204,-1.92545
13.121,82372.7364,1.55282,5.29987,-1.95416
13.1265,82372.7465,1.39583,5.03475,-2.01524
13.1339,82372.7574,1.20157,5.06041,-2.19423
13.1473,82372.7675,0.70799,5.42448,-2.47095
13.154,82372.7775,0.16677,5.84965,-2.60839
13.1659,82372.7875,-0.74281,6.52465,-2.66276
13.183,82372.7974,-1.43126,7.04877,-2.53326
13.1887,82372.8074,-1.96638,6.96203,-2.35611
13.1938,82372.8174,-2.04212,6.4709,-2.41597
13.2056,82372.8275,-1.83382,5.96204,-2.62122
13.2138,82372.8375,-1.56992,5.82765,-2.92299
13.2265,82372.8475,-1.54305,6.05245,-3.24308
13.2338,82372.8574,-1.84848,6.35605,-3.317
13.2455,82372.8674,-2.51799,6.71707,-3.29195
13.2537,82372.8774,-3.31028,7.15934,-3.45261
13.2667,82372.8874,-4.19481,7.66514,-3.81241
13.2737,82372.8975,-4.73176,7.98157,-4.10379
13.2856,82372.9075,-5.08301,7.91987,-4.2614
13.2946,82372.9175,-5.06713,7.33283,-4.28644
13.3105,82372.9274,-4.73054,6.55886,-4.2559
13.3168,82372.9374,-4.40617,6.13675,-4.20031
13.328,82372.9474,-4.03354,5.86247,-4.14778
13.3351,82372.9575,-3.81485,6.16852,-4.24429
13.35,82372.9675,-3.82402,6.76228,-4.51124
13.3575,82372.9775,-3.97551,6.95776,-4.63402
13.3688,82372.9874,-4.27178,6.91499,-4.76902
13.3759,82372.9973,-4.47337,6.65354,-4.81545
13.3898,82373.0074,-4.46726,5.75618,-4.71283
13.3965,82373.0175,-4.25651,5.10134,-4.52712
13.4062,82373.0275,-3.86372,4.20153,-4.26995
13.4139,82373.0375,-3.45811,3.80874,-4.04515
13.426,82373.0474,-3.15939,3.52958,-3.91137
13.434,82373.0574,-3.1032,3.22476,-3.93458
13.4508,82373.0674,-3.17894,2.92238,-4.1325
13.4552,82373.0775,-3.27851,2.78555,-4.34325
13.4668,82373.0875,-3.19238,2.86251,-4.59615
13.4747,82373.0975,-2.88389,2.92727,-4.76108
13.485,82373.1074,-2.4905,3.08487,-4.88814
13.4934,82373.1174,-2.1142,3.30112,-4.89975
13.5065,82373.1274,-1.91934,3.45628,-4.70122
13.5134,82373.1374,-2.03968,3.4972,-4.44221
13.5281,82373.1475,-2.33412,3.43856,-4.31332
13.5359,82373.1575,-2.54181,3.37564,-4.49536
13.5492,82373.1675,-2.69941,3.3848,-4.84172
13.5575,82373.1785,-2.73851,3.65053,-4.95106
13.5693,82373.1885,-2.766,4.35975,-4.91991
13.5775,82373.1995,-2.63894,5.22107,-4.84416
13.5909,82373.2095,-2.64749,5.86003,-4.65907
13.5983,82373.2205,-2.82281,6.01886,-4.44343
13.6128,82373.2314,-3.13252,5.86186,-4.28583
13.6201,82373.2424,-3.49476,5.76412,-4.21802
13.6418,82373.2535,-3.857,5.64989,-4.29011
13.6487,82373.2645,-4.13617,5.37745,-4.49841
13.6579,82373.2744,-4.28644,4.89792,-4.6945
13.6623,82373.2844,-4.27667,4.38235,-4.67373
13.6792,82373.2944,-4.08669,3.69757,-4.38418
13.6846,82373.3044,-3.7385,3.15695,-3.90221
13.6981,82373.3145,-3.22537,2.75378,-3.17894
13.7033,82373.3245,-2.80387,2.72202,-2.56319
13.717,82373.3345,-2.5748,2.60717,-2.15208
13.722,82373.3444,-2.58946,2.1759,-2.15147
13.7379,82373.3555,-2.68536,1.68416,-2.54548
13.7431,82373.3655,-2.70797,1.42881,-2.85579
13.759,82373.3765,-2.56991,0.58948,-3.10869
13.7641,82373.3865,-2.11237,-0.25534,-3.01462
13.7783,82373.3975,-1.27976,-0.90103,-2.57235
13.7863,82373.4075,-0.71838,-1.12949,-2.14719
13.7999,82373.4174,-0.2529,-1.65239,-1.53999
13.8051,82373.4274,-0.10324,-2.1814,-1.11666
13.8194,82373.4385,0.08125,-3.036,-0.80451
13.8262,82373.4484,0.44288,-3.52714,-0.6017
13.8401,82373.4584,1.21379,-3.5815,-0.20159
13.8466,82373.4684,2.00547,-3.30356,0.33903
13.8727,82373.4794,2.7941,-3.10075,0.83627
13.8762,82373.4894,3.32311,-3.07632,1.14049
13.888,82373.4994,3.73544,-3.10014,1.4056
13.8917,82373.5095,3.992,-3.0696,1.62185
13.9022,82373.5195,4.20153,-3.0024,1.81671
13.9143,82373.5295,4.27667,-2.94559,1.91018
13.9202,82373.5394,4.26506,-2.74217,1.93339
13.9271,82373.5494,4.23513,-2.58701,1.88146
13.9466,82373.5604,4.22597,-2.75683,1.80877
13.9504,82373.5704,4.24674,-3.13557,1.77823
13.9636,82373.5804,4.1771,-3.65481,1.72508
13.9696,82373.5905,4.04515,-4.30904,1.68171
13.9816,82373.6014,3.86617,-5.08729,1.59253
13.9901,82373.6124,3.70123,-5.73908,1.47096
14.0034,82373.6235,3.69757,-6.27114,1.37567
14.0184,82373.6334,3.8344,-6.56069,1.40743
14.0306,82373.6434,4.15083,-6.78671,1.59375
14.0356,82373.6534,4.52712,-6.73174,1.82588
14.0444,82373.6634,4.98527,-6.27175,2.18751
14.0545,82373.6735,5.24611,-5.8246,2.42514
14.0654,82373.6835,5.35362,-5.375,2.74706
14.0742,82373.6934,5.2736,-5.1612,2.80815
14.0887,82373.7034,5.06041,-4.93457,2.77699
14.0944,82373.7134,4.85088,-4.71649,2.77272
14.1048,82373.7234,4.51857,-4.41228,2.80815
14.1124,82373.7335,4.284,-4.13556,2.82036
14.1231,82373.7435,4.00239,-3.50881,2.81548
14.1352,82373.7545,3.71101,-2.69697,2.83258
14.1447,82373.7645,3.27668,-1.79533,2.93399
14.1531,82373.7745,2.88634,-1.23883,3.14901
14.1639,82373.7844,2.51921,-1.00365,3.43367
14.1708,82373.7944,2.41597,-1.11544,3.53569
14.183,82373.8044,2.46484,-1.70615,3.52103
14.1909,82373.8145,2.6481,-2.58579,3.38969
14.2031,82373.8245,2.9627,-3.6603,3.28707
14.2112,82373.8345,3.42512,-4.57721,3.3115
14.2248,82373.8444,3.992,-5.20518,3.40557
14.2321,82373.8544,4.48009,-5.43304,3.46361
14.2463,82373.8655,4.87837,-5.37684,3.41657
14.253,82373.8754,5.01276,-5.251,3.35732
14.2676,82373.8865,5.09767,-5.13188,3.29501
14.2742,82373.8964,5.15998,-5.19724,3.18811
14.2902,82373.9064,5.22534,-5.36889,3.12824
14.2994,82373.9164,5.2791,-5.50084,3.12641
14.311,82373.9264,5.28154,-5.43731,3.11114
14.3151,82373.9365,5.24672,-5.07385,3.04577
14.327,82373.9464,5.1386,-4.31332,2.93215
14.3335,82373.9564,4.95839,-3.51614,2.91261
14.3478,82373.9664,4.66457,-2.94498,2.96147
14.356,82373.9775,4.36036,-2.7379,2.89611
14.3712,82373.9874,4.0647,-2.80631,2.6426
14.3756,82373.9974,3.86556,-3.02867,2.36527
14.3863,82374.0074,3.71101,-3.50331,2.14353
14.3941,82374.0175,3.50331,-3.90282,2.0183
14.4085,82374.0275,3.21437,-4.13922,1.95904
14.418,82374.0375,2.97736,-4.37502,1.9114
14.4279,82374.0474,2.88389,-4.86249,1.78617
14.4357,82374.0574,3.00424,-5.45258,1.61085
14.4467,82374.0674,3.42634,-6.27297,1.23212
14.4534,82374.0775,3.65481,-6.06162,0.95173
14.465,82374.0875,3.68352,-5.4031,0.8656
14.4734,82374.0975,3.55218,-5.13005,1.08306
14.485,82374.1074,3.25591,-5.17464,1.36651
14.4934,82374.1174,2.93399,-5.43242,1.37689
14.5074,82374.1274,2.45812,-5.54116,1.30542
14.5149,82374.1374,2.03968,-5.58942,1.36528
14.5275,82374.1475,1.59558,-5.64501,1.48624
14.5344,82374.1575,1.28221,-5.53444,1.63956
14.5503,82374.1673,1.00365,-5.34568,1.88941
14.5544,82374.1774,0.8265,-5.17342,1.99631
14.5665,82374.1874,0.59071,-4.96084,2.04518
14.5745,82374.1973,0.30238,-4.7843,2.04273
14.5865,82374.2075,-0.20831,-4.64502,1.96943
14.5943,82374.2175,-0.80695,-4.62058,1.89124
14.6084,82374.2275,-1.51495,-4.68595,1.83076
14.6141,82374.2374,-2.01341,-4.82706,1.77151
14.628,82374.2474,-2.53509,-4.99443,1.81793
14.6359,82374.2584,-2.88695,-5.04086,1.94866
14.6494,82374.2684,-3.24797,-4.70916,2.13375
14.6561,82374.2784,-3.59861,-4.1606,2.3726
14.6687,82374.2885,-4.02072,-3.41596,2.7043
14.6773,82374.2985,-4.10807,-2.58335,2.85152
14.6908,82374.3084,-3.98345,-1.75624,2.83503
14.6963,82374.3184,-3.69879,-1.24983,2.67498
14.7086,82374.3284,-3.32799,-1.24555,2.39398
14.717,82374.3395,-3.10747,-1.79594,2.15147
14.7305,82374.3505,-3.08548,-2.40314,1.8497
14.7381,82374.3605,-3.2327,-2.65421,1.71592
14.7528,82374.3715,-3.56929,-2.47645,1.76235
14.76,82374.3824,-3.83379,-2.11482,2.13742
14.7753,82374.3934,-4.07081,-1.48685,2.81181
14.7815,82374.4034,-4.17771,-0.99388,3.06532
14.7937,82374.4135,-4.14839,-0.83505,2.91505
14.8007,82374.4235,-4.13922,-1.17103,2.43063
14.8158,82374.4335,-4.17099,-2.36771,1.68232
14.8236,82374.4434,-4.21192,-3.10808,1.42393
14.8319,82374.4534,-4.29622,-3.30173,1.40743
14.8398,82374.4634,-4.35913,-3.01157,1.51128
14.8543,82374.4734,-4.40434,-2.68231,1.63223
14.86,82374.4835,-4.38174,-2.36099,1.7037
14.8719,82374.4935,-4.24796,-2.11115,1.74524
14.8813,82374.5035,-4.03415,-2.16185,1.71531
14.8938,82374.5134,-3.66641,-2.23149,1.70309
14.9012,82374.5234,-3.26874,-2.15391,1.93583
14.9146,82374.5333,-2.88939,-1.92545,2.60717
14.9221,82374.5435,-2.67926,-1.51678,3.1539
14.9368,82374.5535,-2.54548,-1.07329,3.59372
14.944,82374.5635,-2.48683,-0.69761,3.66458
14.9545,82374.5734,-2.43491,-0.33903,3.64931
14.9669,82374.5834,-2.48622,-0.19731,3.66519
14.974,82374.5934,-2.67437,-0.00794,3.72078
14.9807,82374.6035,-2.82647,0.03726,3.7501
14.9965,82374.6135,-2.97369,-0.20525,3.71284
15.0021,82374.6244,-2.9908,-0.40989,3.57723
15.0143,82374.6344,-2.83991,-0.50335,3.49781
15.0219,82374.6445,-2.65238,-0.3769,3.58272
15.0343,82374.6545,-2.57724,-0.03299,3.85395
15.0417,82374.6642,-2.7324,0.31887,4.15205
15.0553,82374.6744,-3.1655,1.08978,4.71588
15.0666,82374.6844,-3.56196,1.62734,5.13677
15.0749,82374.6945,-4.08852,2.20217,5.55521
15.0934,82374.7045,-4.45015,2.8784,5.77573
15.113,82374.7145,-4.64807,3.85334,5.89668
15.1146,82374.7243,-4.67862,4.74337,5.94433
15.1154,82374.7344,-4.70916,5.44037,5.85209
15.1208,82374.7444,-4.77697,5.10744,5.51184
15.1376,82374.7545,-4.57843,4.2333,5.04758
15.1418,82374.7654,-4.09524,3.26752,4.71283
15.1544,82374.7754,-3.46849,2.18568,4.4135
15.166,82374.7855,-3.0134,1.62246,4.27056
15.1781,82374.7964,-2.80265,1.68477,4.33837
15.1879,82374.8074,-2.93948,2.1307,4.6102
15.1966,82374.8174,-3.27363,3.13252,5.06957
15.2044,82374.8275,-3.62487,4.28339,5.46114
15.2166,82374.8375,-4.17649,6.03046,5.89729
15.224,82374.8473,-4.79285,7.17278,6.10193
15.2414,82374.8574,-5.42509,7.39025,6.14286
15.2489,82374.8674,-5.5827,6.80504,6.09033
15.2592,82374.8774,-5.14104,5.61202,5.93333
15.2643,82374.8874,-4.5149,4.69694,5.69693
15.2766,82374.8975,-3.64687,3.55096,5.24855
15.2843,82374.9075,-3.04944,3.02073,4.835
15.2977,82374.9175,-2.67315,3.04333,4.49719
15.3044,82374.9274,-2.55464,3.32311,4.43549
15.3167,82374.9374,-2.60534,3.66458,4.6835
15.3244,82374.9474,-2.82098,4.04148,5.03903
15.3384,82374.9575,-3.16795,4.70855,5.39944
15.3449,82374.9675,-3.35487,5.11233,5.48068
15.3584,82374.9775,-3.45261,5.42143,5.44037
15.3645,82374.9874,-3.49781,5.25344,5.31086
15.3828,82374.9974,-3.67924,4.87593,5.06041
15.3908,82375.0074,-3.85334,4.48742,4.80323
15.4067,82375.0175,-4.03965,4.10074,4.47948
15.4093,82375.0275,-4.04515,3.90893,4.28583
15.4186,82375.0375,-3.88022,3.63526,4.24429
15.4263,82375.0472,-3.72506,3.43123,4.37685
15.4355,82375.0574,-3.67802,3.41596,4.62364
15.4435,82375.0673,-3.87533,3.55157,4.72077
15.456,82375.0775,-4.35058,3.9413,4.48558
15.4663,82375.0875,-4.66151,4.38174,4.1099
15.4747,82375.0975,-4.90525,4.74398,3.53386
15.4831,82375.1074,-4.99932,4.90097,2.88389
15.4946,82375.1174,-4.92541,4.79835,2.41536
15.503,82375.1274,-4.79346,4.48314,2.31029
15.5149,82375.1374,-4.71344,4.12762,2.36222
15.5231,82375.1474,-4.75925,3.96696,2.32984
15.5347,82375.1574,-5.03597,3.52164,1.9902
15.5431,82375.1674,-5.41837,2.7886,1.34146
15.5547,82375.1774,-5.74885,1.74219,0.41294
15.5641,82375.1874,-5.86675,0.832,-0.32009
15.5765,82375.1974,-5.94861,-0.28405,-1.31519
15.5831,82375.2074,-5.95471,-0.72021,-1.98043
15.5947,82375.2174,-5.87164,-0.89614,-2.75195
15.6032,82375.2274,-5.74702,-0.54611,-3.32983
15.6147,82375.2374,-5.58881,0.2138,-3.91992
15.6231,82375.2474,-5.4086,0.73793,-4.06103
15.6358,82375.2574,-4.97428,1.14354,-3.79653
15.6431,82375.2673,-4.56377,1.16553,-3.44589
15.6548,82375.2774,-3.81669,1.03603,-3.04577
15.6632,82375.2874,-3.1203,0.85949,-2.70919
15.6757,82375.2974,-2.43918,0.45937,-2.41597
15.6847,82375.3074,-2.0971,0.146,-2.26387
15.6989,82375.3174,-1.72753,-0.11973,-2.02441
15.7055,82375.3274,-1.45447,-0.18937,-1.77273
15.7179,82375.3374,-1.11483,-0.21808,-1.36834
15.7242,82375.3474,-0.84788,-0.21075,-0.956
15.7379,82375.3574,-0.60842,-0.15699,-0.49419
15.7441,82375.3674,-0.45387,-0.07208,-0.15516
15.7601,82375.3774,-0.23518,0.01405,0.23335
15.7644,82375.3874,0.00916,-0.05253,0.47159
15.7764,82375.3974,0.41356,-0.25107,0.60231
15.7849,82375.4074,0.84116,-0.41478,0.64385
15.8026,82375.4184,1.59314,-0.4722,0.77213
15.8096,82375.4284,2.20767,-0.38118,0.90591
15.8215,82375.4384,2.87046,-0.37568,1.00793
15.8548,82375.4484,3.36648,-0.32193,1.03542
15.8562,82375.4584,3.90954,-0.26512,1.08795
15.8573,82375.4684,4.33837,-0.42944,1.1356
15.858,82375.4784,4.77819,-1.01404,1.16981
15.8678,82375.4884,5.11844,-1.6475,1.17958
15.8793,82375.4984,5.61691,-2.29197,1.13499
15.8857,82375.5084,5.93333,-2.53448,1.0849
15.899,82375.5184,6.28641,-2.70002,1.02381
15.9045,82375.5284,6.48189,-2.65238,1.0006
15.9156,82375.5384,6.59429,-2.47828,1.01037
15.9241,82375.5484,6.5271,-2.29136,1.01953
15.9356,82375.5584,6.2913,-2.08916,0.96395
15.9439,82375.5683,6.09155,-1.98776,0.83444
15.9557,82375.5783,5.89302,-2.36466,0.74098
15.9662,82375.5884,5.53077,-2.31884,0.67501
15.9771,82375.5984,5.05491,-1.75624,0.59071
15.9853,82375.6084,4.86799,-1.74707,0.77336
15.9961,82375.6184,4.81362,-1.7037,1.28648
16.0045,82375.6284,4.88448,-1.44592,1.75074
16.0162,82375.6383,5.04575,-1.26083,2.26509
16.0259,82375.6483,5.01826,-1.42942,2.55953
16.0389,82375.6584,4.70794,-1.85764,2.7776
16.0462,82375.6684,4.3854,-2.28464,2.95781
16.0619,82375.6794,4.03476,-2.84908,3.27424
16.07,82375.6903,4.00483,-2.45018,3.67313
16.0893,82375.7014,4.63219,-1.59619,4.24979
16.0929,82375.7113,4.69328,-2.7379,4.55156
16.1046,82375.7213,4.69511,-3.14535,4.59798
16.1137,82375.7314,4.79285,-3.55707,4.52712
16.1206,82375.7414,4.73726,-3.91381,4.44954
16.1279,82375.7513,4.61509,-3.90221,4.53873
16.1398,82375.7614,4.54239,-3.82463,4.85821
16.1478,82375.7713,4.34875,-3.76293,5.12699
16.1606,82375.7813,4.07936,-3.81546,5.22534
16.1737,82375.7914,3.85089,-3.93397,5.07934
16.1828,82375.8014,3.62915,-4.09402,4.46237
16.1891,82375.8114,3.43245,-4.01949,3.82585
16.2017,82375.8214,3.12458,-3.43123,3.13924
16.2109,82375.8324,2.70552,-2.41414,2.88084
16.2276,82375.8424,2.069,-1.03908,2.9291
16.2328,82375.8524,1.45447,0.05498,3.20338
16.2427,82375.8623,0.84849,0.88942,3.6151
16.252,82375.8723,0.51679,1.32008,3.87533
16.2627,82375.8824,0.22785,1.60658,4.09096
16.2701,82375.8924,0.05192,1.51189,4.25712
16.2835,82375.9024,-0.01955,1.11239,4.50635
16.2903,82375.9124,-0.03482,0.56872,4.72016
16.3033,82375.9223,-0.13744,-0.3708,4.95717
16.31,82375.9323,-0.27489,-1.40071,5.07263
16.3222,82375.9424,-0.405,-2.55281,4.98344
16.3342,82375.9524,-0.42333,-3.37198,4.81973
16.3445,82375.9624,-0.31215,-4.14167,4.63341
16.3499,82375.9734,-0.13561,-4.47276,4.5485
16.3618,82375.9834,0.011,-4.40312,4.6273
16.37,82375.9934,-0.03115,-3.92175,4.85149
16.3832,82376.0034,-0.29016,-3.06288,5.37745
16.3909,82376.0144,-0.58338,-2.38909,5.88385
16.4026,82376.0244,-0.8772,-2.36099,6.08849
16.4198,82376.0343,-0.99632,-2.76905,5.9315
16.4258,82376.0443,-0.90103,-3.66947,5.52344
16.4304,82376.0544,-0.55589,-4.67006,5.13127
16.4422,82376.0644,-0.04826,-5.6786,4.74459
16.4505,82376.0744,0.28283,-6.1227,4.49963
16.4631,82376.0844,0.52046,-5.98098,4.3628
16.4705,82376.0943,0.51435,-5.57415,4.41106
16.4824,82376.1043,0.33903,-4.98771,4.53934
16.4904,82376.1144,0.13744,-4.65846,4.66273
16.5021,82376.1244,-0.06292,-4.27484,4.65601
16.5118,82376.1344,-0.2364,-3.91076,4.44832
16.5256,82376.1444,-0.53756,-3.43001,4.13006
16.5331,82376.1554,-0.80268,-3.2834,3.99689
16.5472,82376.1654,-1.1356,-3.3787,3.84906
16.554,82376.1754,-1.39216,-3.61632,3.67497
16.5665,82376.1864,-1.61635,-4.00972,3.41474
16.5741,82376.1964,-1.64445,-4.30782,3.18322
16.5876,82376.2074,-1.46791,-4.46237,2.76478
16.5964,82376.2184,-1.26388,-4.19054,2.40681
16.6183,82376.2293,-1.05069,-3.70978,2.14658
16.6223,82376.2392,-0.99632,-3.32189,2.10687
16.6301,82376.2494,-1.11177,-2.94987,2.11848
16.6373,82376.2594,-1.2535,-2.74584,2.07816
16.6499,82376.2693,-1.54854,-2.7495,1.99875
16.6591,82376.2804,-1.83015,-3.20216,1.99325
16.6711,82376.2904,-1.97676,-3.64687,1.84115
16.6793,82376.3014,-1.98653,-3.7275,1.53022
16.698,82376.3124,-1.89674,-3.48254,1.12949
16.7036,82376.3224,-1.84726,-3.14901,0.8998
16.7147,82376.3324,-1.86131,-2.89978,0.71105
16.72,82376.3424,-1.93217,-2.8057,0.63897
16.7392,82376.3524,-2.12337,-2.77272,0.65546
16.7454,82376.3623,-2.34572,-2.82159,0.67134
16.7578,82376.3723,-2.59557,-2.88328,0.53206
16.7626,82376.3824,-2.79532,-2.90528,0.49908
16.7737,82376.3923,-3.11602,-2.84908,0.44104
16.7809,82376.4024,-3.52164,-2.99324,0.40378
16.7961,82376.4124,-4.02866,-3.56318,0.35186
16.8008,82376.4223,-4.2223,-3.94069,0.32681
16.8172,82376.4323,-4.34508,-4.32737,0.24618
16.8224,82376.4424,-4.29011,-4.38418,0.25351
16.8377,82376.4524,-4.18137,-4.10929,0.29627
16.843,82376.4624,-4.14716,-3.78126,0.26389
16.8609,82376.4724,-4.30782,-3.30784,0.02688
16.8638,82376.4823,-4.55339,-3.06043,-0.23702
16.88,82376.4934,-4.87287,-3.08853,-0.64813
16.8856,82376.5034,-5.02742,-3.25408,-1.0232
16.8958,82376.5133,-5.12027,-3.44772,-1.61207
16.9014,82376.5233,-5.17586,-3.64687,-2.01524
16.9175,82376.5334,-5.24122,-4.1154,-2.32373
16.9229,82376.5434,-5.22473,-4.37685,-2.35611
16.9353,82376.5534,-5.05063,-4.48864,-2.32068
16.9413,82376.5634,-4.73726,-4.30965,-2.28525
16.9548,82376.5733,-4.24796,-3.83746,-2.01891
16.9613,82376.5833,-3.80447,-3.70368,-1.69943
16.9783,82376.5933,-3.43734,-3.47338,-1.48868
16.9853,82376.6034,-3.30906,-3.25041,-1.47707
17.0023,82376.6133,-3.3396,-2.97614,-1.63834
17.0066,82376.6234,-3.61754,-2.92971,-1.8552
17.0186,82376.6333,-3.93825,-3.13679,-2.01036
17.0239,82376.6432,-4.22352,-3.2217,-2.14414
17.0395,82376.6534,-4.33959,-3.05433,-2.12764
17.0444,82376.6634,-4.3738,-2.58946,-1.96515
17.0549,82376.6734,-4.3347,-1.9902,-1.58458
17.0617,82376.6844,-4.00239,-1.25105,-1.09772
17.0903,82376.6944,-3.44039,-1.04153,-0.55039
17.0954,82376.7044,-2.71652,-0.92668,-0.12339
17.0989,82376.7154,-1.79411,-0.82711,0.12584
17.1037,82376.7254,-1.08612,-0.39034,0.17898
17.1138,82376.7354,-0.51985,0.03848,0.29016
17.1218,82376.7453,-0.29016,0.0617,0.43188
17.1338,82376.7553,-0.24312,-0.01894,0.62125
17.1418,82376.7654,-0.28894,0.10568,0.83994
17.1543,82376.7754,-0.46181,0.52351,1.22784
17.1628,82376.7863,-0.83139,0.87781,1.79778
17.1749,82376.7964,-1.23822,1.2254,2.40375
17.1828,82376.8064,-1.59497,1.69759,3.04089
17.1958,82376.8164,-1.88757,2.20095,3.75316
17.2039,82376.8274,-2.1814,2.4178,4.40739
17.218,82376.8374,-2.53143,2.36894,4.87348
17.2246,82376.8474,-2.95842,2.21561,5.23817
17.2372,82376.8573,-3.46177,2.02685,5.55338
17.2448,82376.8673,-3.85517,1.7935,5.7794
17.2584,82376.8774,-4.19481,1.6475,5.93639
17.2648,82376.8874,-4.49291,1.67927,6.05123
17.2775,82376.8974,-4.84233,2.00119,6.16668
17.284,82376.9072,-5.18625,2.42758,6.25037
17.2966,82376.9174,-5.55826,2.97491,6.33589
17.3069,82376.9273,-5.80383,3.45994,6.38232
17.3164,82376.9373,-6.12881,4.20275,6.38843
17.3242,82376.9474,-6.38293,4.80018,6.35361
17.337,82376.9574,-6.49655,5.2681,6.28458
17.3447,82376.9673,-6.44402,5.50023,6.21555
17.3624,82376.9774,-6.15813,5.61629,5.98526
17.3653,82376.9873,-5.8472,5.37622,5.77084
17.3923,82376.9973,-5.47274,4.80079,5.36767
17.3958,82377.0072,-5.32858,4.42938,5.01459
17.3975,82377.0174,-5.17403,4.24063,4.67862
17.406,82377.0284,-4.88265,4.56622,4.43671
17.4207,82377.0384,-4.48253,5.19969,4.30232
17.4268,82377.0484,-4.16854,5.58209,4.25895
17.4407,82377.0584,-3.9297,6.01947,4.23513
17.4441,82377.0683,-3.90282,6.40065,4.15694
17.458,82377.0783,-3.96268,6.70913,3.92237
17.4643,82377.0884,-4.02866,6.87346,3.63648
17.4759,82377.0984,-4.06409,6.97547,3.37381
17.4843,82377.1084,-4.07997,6.88262,3.2382
17.4971,82377.1184,-4.13861,6.6902,3.26019
17.5044,82377.1284,-4.19115,6.5051,3.3286
17.5177,82377.1383,-4.24368,6.25831,3.39091
17.5239,82377.1483,-4.22597,6.15935,3.32983
17.5356,82377.1584,-4.08547,6.24671,2.94681
17.5441,82377.1684,-3.90526,6.5161,2.41964
17.5557,82377.1784,-3.7446,6.89239,1.85947
17.5641,82377.1884,-3.72261,7.11536,1.58642
17.5766,82377.1983,-3.79103,7.5283,1.58092
17.5856,82377.2083,-3.88877,7.6969,1.78128
17.5982,82377.2184,-4.08363,7.76898,2.05984
17.6058,82377.2284,-4.23391,7.72989,2.21378
17.6207,82377.2394,-4.40373,7.52036,2.2883
17.6269,82377.2494,-4.38479,7.1233,2.10443
17.6414,82377.2603,-3.99323,6.02924,1.75807
17.6525,82377.2713,-3.52714,4.70916,1.61574
17.6614,82377.2813,-3.05555,2.90711,1.6866
17.6702,82377.2923,-2.71652,1.14232,1.92484
17.6854,82377.3034,-2.28403,-0.63225,2.56991
17.6946,82377.3134,-1.8552,-1.63162,3.32066
17.7035,82377.3233,-1.2535,-2.45079,4.31882
17.7104,82377.3332,-0.69516,-3.17406,5.17647
17.7218,82377.3434,-0.12462,-4.00667,6.16485
17.7319,82377.3534,0.07941,-4.50208,6.893
17.7419,82377.3634,-0.08308,-4.88387,7.59916
17.7528,82377.3734,-0.35552,-5.12333,8.06648
17.7611,82377.3833,-0.73243,-4.91991,8.53195
17.7711,82377.3942,-1.1973,-4.07997,8.87221
17.7822,82377.4043,-1.83198,-3.15939,9.097
17.7914,82377.4143,-2.35855,-2.63711,9.14649
17.8016,82377.4244,-2.94804,-2.22233,8.96811
17.8104,82377.4344,-3.20643,-2.11237,8.51852
17.8227,82377.4444,-3.07021,-2.14597,7.61138
17.8321,82377.4544,-2.74523,-2.34633,6.99196
17.8436,82377.4654,-1.94561,-2.94376,6.02069
17.8512,82377.4754,-1.28526,-3.50881,5.39944
17.8627,82377.4854,-0.64141,-4.03049,4.8967
17.8711,82377.4953,-0.30238,-4.22597,4.61814
17.8855,82377.5053,-0.14783,-4.17221,4.35303
17.894,82377.5154,-0.20159,-3.90099,4.24002
17.9063,82377.5263,-0.5284,-3.15817,4.11296
17.9147,82377.5363,-0.90713,-2.48928,4.07875
17.9262,82377.5463,-1.42881,-1.76112,4.06897
17.934,82377.5564,-1.87108,-1.23212,3.98406
17.9472,82377.5674,-2.25165,-0.78924,3.53263
17.9552,82377.5774,-2.3164,-0.6127,3.08487
17.967,82377.5873,-2.18873,-0.57299,2.43247
17.9802,82377.5974,-1.87169,-0.59376,1.82465
17.9885,82377.6073,-1.2535,-0.62492,1.20279
17.9967,82377.6184,-0.57544,-0.64141,0.75075
18.0083,82377.6283,0.15699,-0.71105,0.27489
18.0198,82377.6383,0.61148,-0.82406,-0.22724
18.0279,82377.6483,0.91691,-0.94379,-0.88698
18.0351,82377.6582,1.03664,-1.01709,-1.45569
18.0477,82377.6684,1.03847,-0.87537,-2.24371
18.0601,82377.6784,0.88148,-0.61148,-2.96942
18.0714,82377.6884,0.60109,-0.39523,-3.73788
18.0765,82377.6994,0.3036,-0.33292,-4.37929
18.0927,82377.7094,-0.06536,-0.55833,-5.08912
18.0972,82377.7193,-0.29627,-0.87598,-5.64684
18.108,82377.7293,-0.39706,-1.27304,-6.13309
18.1188,82377.7394,-0.38912,-1.56381,-6.47456
18.1278,82377.7494,-0.31215,-1.89735,-6.94004
18.1358,82377.7594,-0.25107,-2.07267,-7.42323
18.1527,82377.7694,-0.33598,-2.30052,-7.92598
18.1561,82377.7794,-0.52534,-2.49844,-8.10985
18.1722,82377.7893,-0.96272,-2.59679,-8.27539
18.1784,82377.7993,-1.12094,-2.21378,-8.94979
18.1884,82377.8094,-1.42454,-2.20645,-9.55577
18.1967,82377.8194,-1.6756,-2.49294,-9.76529
18.2103,82377.8294,-2.07144,-3.17039,-9.64251
18.2201,82377.8404,-2.474,-3.78736,-9.29981
18.2307,82377.8504,-2.97919,-4.2504,-8.81906
18.2382,82377.8604,-3.42085,-4.26812,-8.29433
18.2576,82377.8703,-4.0366,-3.92053,-7.29923
18.2619,82377.8814,-4.42144,-3.61327,-6.36155
18.2727,82377.8914,-4.71649,-3.36587,-5.32003
18.28,82377.9013,-4.81056,-3.28523,-4.51613
18.2915,82377.9113,-4.74459,-3.20949,-3.6096
18.2993,82377.9214,-4.50941,-3.34388,-3.02256
18.3113,82377.9314,-4.07753,-3.81852,-2.69453
18.318,82377.9414,-3.7837,-4.08547,-2.72385
18.333,82377.9514,-3.27118,-4.65235,-3.09709
18.3415,82377.9624,-2.70369,-5.56498,-3.91015
18.3537,82377.9724,-2.16857,-6.08727,-5.04269
18.3661,82377.9834,-1.73486,-6.0494,-6.0946
18.3745,82377.9934,-1.23395,-5.6951,-7.13857
18.3889,82378.0034,-1.00915,-5.38722,-7.73355
18.3988,82378.0133,-0.95295,-5.03414,-7.9834
18.4012,82378.0233,-0.96761,-4.69389,-7.96324
18.4169,82378.0333,-1.03114,-4.19115,-7.61932
18.4239,82378.0434,-1.09162,-3.74644,-6.98219
18.4393,82378.0544,-1.15515,-3.43917,-5.89118
18.4443,82378.0653,-1.25105,-3.57784,-4.99382
18.4568,82378.0754,-1.529,-4.1887,-4.38785
18.4615,82378.0854,-1.78434,-4.13311,-4.49597
18.4733,82378.0954,-1.81488,-3.79775,-4.90769
18.4814,82378.1054,-1.30542,-3.07754,-5.08973
18.4942,82378.1154,-0.63835,-2.47034,-4.99382
18.5013,82378.1253,-0.18754,-2.06961,-4.68656
18.5132,82378.1353,0.18815,-1.49906,-4.41717
18.5249,82378.1454,0.35736,-0.821,-4.18382
18.5448,82378.1554,0.56139,-0.31154,-3.64564
18.5479,82378.1654,0.7025,0.11668,-3.03905
18.5641,82378.1754,0.75075,0.49297,-2.44285
18.5699,82378.1853,0.74831,0.59193,-2.1704
18.5798,82378.1964,0.71593,0.58704,-2.02013
18.5905,82378.2063,0.62919,0.42761,-1.99814
18.5982,82378.2174,0.44288,0.33231,-1.93889
18.6112,82378.2274,0.35125,0.34514,-1.82282
18.6222,82378.2373,0.38973,0.51985,-1.507
18.6266,82378.2473,0.52473,0.72876,-1.102
18.6433,82378.2574,0.70494,0.98166,-0.69516
18.6478,82378.2683,0.84666,1.28282,-0.39889
18.6612,82378.2784,1.11116,1.76601,-0.01222
18.6648,82378.2884,1.35551,2.09282,0.35858
18.6768,82378.2984,1.5797,2.24065,0.89431
18.6849,82378.3084,1.79228,2.10993,1.30847
18.6967,82378.3183,2.14841,1.83321,1.88941
18.7061,82378.3283,2.62977,1.37567,2.54303
18.7189,82378.3384,3.20338,0.91874,3.24736
18.7271,82378.3493,3.44528,0.78924,3.71711
18.747,82378.3604,3.47094,1.01831,4.21375
18.7596,82378.3703,3.43795,1.58703,4.58027
18.7617,82378.3803,3.34754,2.60229,5.03292
18.7714,82378.3904,3.29379,3.36892,5.47274
18.78,82378.4004,3.30356,3.72811,6.39881
18.7894,82378.4104,3.32494,3.66458,7.28762
18.7992,82378.4204,3.36342,3.37198,8.47331
18.8118,82378.4314,3.85395,3.80874,9.31875
18.8213,82378.4414,4.66701,3.31639,9.4959
18.829,82378.4514,5.2846,3.1539,9.08479
18.8392,82378.4613,6.12942,3.07143,8.12695
18.8476,82378.4713,6.86918,3.16978,6.67309
18.8592,82378.4814,7.42323,3.28096,4.80262
18.8675,82378.4914,7.60344,3.16795,3.39152
18.8826,82378.5014,7.55579,2.87534,2.39398
18.8918,82378.5114,7.40246,2.88145,2.0409
18.9,82378.5213,6.06834,2.18934,2.30357
18.9079,82378.5313,4.86371,2.23454,3.11969
18.92,82378.5414,4.23146,2.85518,4.284
18.9293,82378.5514,4.30965,3.23331,5.1838
18.9401,82378.5614,4.87532,3.46116,6.17035
18.9523,82378.5714,5.48129,2.99874,6.67309
18.9628,82378.5813,6.18745,1.41354,6.45135
18.9704,82378.5924,6.81237,-0.43982,5.15815
18.9899,82378.6023,7.19782,-1.87169,2.64138
18.9936,82378.6123,7.09703,-1.28037,0.87048
19.004,82378.6234,6.30046,0.39584,0.08735
19.0111,82378.6333,5.28215,2.05923,0.44288
19.0244,82378.6433,4.08302,4.26445,1.59986
19.0335,82378.6544,3.04822,5.96082,2.87718
19.053,82378.6654,2.43857,7.13552,3.9016
19.0576,82378.6754,2.22538,7.44645,4.48314
19.0753,82378.6853,2.23699,7.88566,4.72871
19.0806,82378.6953,2.66032,7.76043,4.56561
19.1039,82378.7054,3.11541,5.62851,4.06348
19.1072,82378.7154,3.35182,3.99445,3.52164
19.1114,82378.7254,3.52775,2.20522,2.45995
19.114,82378.7354,3.54424,1.42637,1.32069
19.1297,82378.7453,3.46483,1.64201,0.31643
19.1356,82378.7553,3.28951,2.66704,-0.3488
19.148,82378.7654,2.9517,4.05126,-0.63102
19.1527,82378.7763,2.75745,4.92846,-0.60842
19.1652,82378.7863,2.75867,5.25955,-0.59315
19.1739,82378.7973,2.87962,5.03597,-0.74159
19.186,82378.8073,3.07387,4.51857,-1.14293
19.1937,82378.8174,3.1936,3.93214,-1.59802
19.2068,82378.8274,3.24186,2.99263,-2.4343
19.2211,82378.8374,3.14046,2.45812,-2.98713
19.238,82378.8474,2.90344,1.99264,-3.47582
19.2406,82378.8584,2.61573,1.78189,-3.7837
19.2489,82378.8684,2.25959,1.82954,-4.0311
19.2567,82378.8794,1.87413,2.00608,-4.13983
19.2713,82378.8894,1.4337,1.66216,-4.138
19.277,82378.8994,1.16187,1.36712,-4.12029
19.2907,82378.9104,0.91385,0.8039,-4.16121
19.3016,82378.9204,0.74526,0.25045,-4.31821
19.3127,82378.9304,0.63225,-0.33964,-4.65479
19.3179,82378.9403,0.6072,-0.62369,-5.02376
19.3314,82378.9504,0.65179,-0.70127,-5.61385
19.3387,82378.9613,0.72082,-0.49052,-6.20883
19.3547,82378.9713,0.7532,-0.11423,-6.64744
19.3602,82378.9814,0.77397,0.09346,-6.82825
19.3717,82378.9913,0.80634,0.3262,-6.85941
19.3868,82379.0024,0.82039,0.56994,-6.76472
19.3944,82379.0124,0.75686,0.9499,-6.64866
19.399,82379.0224,0.65607,1.18325,-6.66637
19.4182,82379.0324,0.57971,1.26022,-6.81359
19.4243,82379.0424,0.65424,1.30298,-6.94981
19.4327,82379.0522,0.83872,1.29503,-7.04511
19.4403,82379.0623,1.07024,1.24922,-7.10009
19.4504,82379.0724,1.30664,1.24555,-7.0671
19.4584,82379.0824,1.42515,1.47157,-6.93027
19.4713,82379.0924,1.48135,1.97798,-6.65232
19.4785,82379.1024,1.49784,2.47645,-6.3866
19.4919,82379.1123,1.48746,3.31883,-5.89118
19.4989,82379.1223,1.4282,3.99872,-5.44892
19.511,82379.1324,1.18386,4.95167,-4.87532
19.5188,82379.1424,0.83139,5.64745,-4.47092
19.5313,82379.1524,-0.01405,6.91377,-3.9859
19.5411,82379.1634,-0.89919,7.95774,-3.75926
19.5533,82379.1734,-1.78678,8.81417,-3.5082
19.5609,82379.1834,-2.28219,8.99927,-3.16184
19.5753,82379.1944,-2.57785,8.34564,-2.38787
19.5817,82379.2044,-2.42941,7.3597,-1.85581
19.5949,82379.2144,-1.93583,5.69754,-1.3775
19.6021,82379.2243,-1.46058,3.99933,-1.20585
19.6159,82379.2343,-0.83505,1.28465,-1.08551
19.6226,82379.2453,-0.56261,-0.18754,-0.94745
19.6447,82379.2564,-0.57177,-0.71838,-0.62919
19.6563,82379.2663,-0.82406,-0.53573,-0.30421
19.6592,82379.2763,-1.23273,-0.12523,-0.04276
19.665,82379.2864,-1.52961,0.34208,0.05009
19.6873,82379.2964,-1.69393,0.52412,-0.01405
19.6969,82379.3073,-1.62001,0.09835,-0.20281
19.7003,82379.3174,-1.15576,-0.68478,-0.36469
19.7062,82379.3283,-0.52534,-1.54854,-0.42638
19.7174,82379.3384,0.16554,-2.65238,-0.36285
19.7259,82379.3493,0.69394,-3.70001,-0.20403
19.738,82379.3593,1.01343,-4.37868,-0.0898
19.7456,82379.3694,1.12277,-4.75986,-0.10263
19.7587,82379.3794,1.09956,-5.15204,-0.1576
19.7657,82379.3894,1.06657,-5.40677,-0.18998
19.7775,82379.3994,1.07573,-5.47457,-0.28283
19.7855,82379.4093,1.13743,-5.60958,-0.34514
19.7989,82379.4193,1.22845,-6.07811,-0.37446
19.8265,82379.4293,1.29931,-6.56802,-0.4893
19.8275,82379.4394,1.37567,-7.20821,-0.48503
19.8286,82379.4494,1.41782,-7.63887,-0.32132
19.8408,82379.4594,1.36834,-7.7867,0.08552
19.8493,82379.4693,1.29442,-7.45561,0.45387
19.8599,82379.4793,1.16981,-6.60345,0.89797
19.8678,82379.4894,0.98777,-6.14286,1.20035
19.8787,82379.4994,0.7929,-5.96632,1.35307
19.8854,82379.5094,0.72204,-6.1789,1.30236
19.8976,82379.5194,0.75625,-7.39575,1.10506
19.9053,82379.5294,1.03236,-8.35603,0.87965
19.917,82379.5393,1.51922,-9.20391,0.66035
19.9277,82379.5494,2.08,-9.91618,0.42761
19.9383,82379.5594,2.70858,-10.39204,0.1912
19.9453,82379.5694,3.09831,-10.25826,0.13561
19.9608,82379.5794,3.45017,-9.4452,0.20159
19.9662,82379.5894,3.52042,-8.40123,0.32498
19.9807,82379.5993,3.2553,-6.80565,0.46181
19.9863,82379.6093,2.71713,-5.54055,0.49663
19.9995,82379.6194,2.04029,-4.62364,0.43738
20.0062,82379.6294,1.58947,-4.284,0.36408
20.0195,82379.6394,1.28648,-4.08608,0.17776
20.0269,82379.6494,1.23273,-3.93031,0.01772
20.0438,82379.6604,1.40194,-3.81119,-0.09591
20.0478,82379.6704,1.69821,-3.78126,-0.21197
20.061,82379.6803,2.20645,-3.80203,-0.35308
20.0741,82379.6914,2.63955,-3.77515,-0.27794
20.0905,82379.7024,2.79104,-3.66702,-0.03543
20.0944,82379.7124,2.66093,-3.78064,0.13867
20.1063,82379.7224,2.30602,-4.36891,0.28283
20.1178,82379.7334,1.94744,-5.06957,0.3091
20.1272,82379.7434,1.71164,-5.85698,0.26328
20.1308,82379.7533,1.78984,-6.56436,0.15638
20.1452,82379.7632,2.16552,-7.20149,-0.12401
20.1527,82379.7733,2.61267,-7.55213,-0.45387
20.1623,82379.7834,3.00057,-7.77448,-0.821
20.1733,82379.7934,3.31639,-7.95408,-1.2034
20.1834,82379.8034,3.7049,-8.27722,-1.51006
20.1929,82379.8134,4.03538,-8.66085,-1.59925
20.2022,82379.8233,4.50452,-9.31386,-1.66766
20.2151,82379.8333,5.08362,-10.02491,-1.80999
20.2235,82379.8434,5.98648,-10.50871,-2.02991
20.2351,82379.8534,6.40492,-10.67915,-2.18079
20.2433,82379.8634,6.61445,-10.58874,-2.22233
20.2532,82379.8734,6.58452,-10.29674,-2.16307
20.2639,82379.8833,6.36827,-9.82638,-2.01769
20.2715,82379.8933,6.08055,-9.4061,-1.83137
20.2854,82379.9034,5.74274,-8.85755,-1.66766
20.2949,82379.9134,5.53077,-8.42505,-1.5913
20.3029,82379.9234,5.29131,-7.89727,-1.58642
20.3131,82379.9332,5.07263,-7.37925,-1.68965
20.3234,82379.9433,4.6157,-6.41225,-1.89613
20.3302,82379.9533,4.21314,-5.69387,-2.08549
20.3434,82379.9634,3.52714,-4.54972,-2.38299
20.3517,82379.9743,2.92543,-3.31578,-2.7495
20.3683,82379.9843,2.6591,-1.84115,-3.13374
20.3811,82379.9944,2.7605,-0.59254,-3.41596
20.3836,82380.0044,3.23697,0.98349,-3.92603
20.3979,82380.0144,3.85884,2.1478,-4.36524
20.4083,82380.0244,4.5033,3.21682,-4.64196
20.4159,82380.0343,4.85516,3.69879,-4.64746
20.434,82380.0443,5.20396,4.36585,-4.44343
20.4358,82380.0544,5.52405,5.04575,-4.0537
20.4457,82380.0644,5.70609,5.86308,-3.52836
20.4505,82380.0744,5.59736,6.32979,-3.31272
20.4622,82380.0844,5.20579,6.86796,-3.31822
20.4702,82380.0941,4.74215,7.41651,-3.49781
20.4853,82380.1043,3.97551,8.15933,-3.93886
20.4903,82380.1144,3.46116,8.50508,-4.31943
20.502,82380.1244,2.88878,8.85449,-4.66029
20.5104,82380.1344,2.51799,9.10434,-4.8014
20.5232,82380.1444,2.2321,9.16481,-5.00787
20.5314,82380.1544,2.15086,9.09884,-5.15631
20.5434,82380.1643,2.13436,8.97239,-5.22229
20.5513,82380.1743,2.12337,8.97605,-5.24061
20.5633,82380.1844,2.08305,8.98888,-5.24489
20.5719,82380.1944,2.02257,8.76592,-5.18564
20.5854,82380.2044,1.98043,8.2143,-4.981
20.5921,82380.2144,1.99081,7.86061,-4.84538
20.6073,82380.2254,2.01097,7.28518,-4.83378
20.6145,82380.2354,1.99692,6.79343,-4.94801
20.6263,82380.2453,1.91567,6.32917,-5.105
20.6332,82380.2553,1.79167,6.06834,-5.20152
20.649,82380.2663,1.55587,5.8191,-5.32675
20.656,82380.2774,1.38239,5.63951,-5.44037
20.6682,82380.2874,1.13804,5.23512,-5.53505
20.6749,82380.2973,0.90408,4.68656,-5.50939
20.6881,82380.3073,0.63897,3.78614,-5.40982
20.6952,82380.3174,0.45204,2.98163,-5.32308
20.7092,82380.3283,0.25534,2.18629,-5.32736
20.7172,82380.3394,0.07025,1.67683,-5.55399
20.7313,82380.3493,-0.12828,1.35673,-5.85759
20.738,82380.3604,-0.27367,1.21745,-6.00236
20.7612,82380.3703,-0.38851,0.98716,-6.08605
20.7641,82380.3814,-0.34941,0.71227,-6.09399
20.7746,82380.3924,-0.19303,0.48503,-6.10254
20.7801,82380.4024,-0.0507,0.34147,-6.16546
20.7922,82380.4122,0.03665,0.16493,-6.2577
20.8002,82380.4223,0.04887,0.08919,-6.24304
20.8168,82380.4323,-0.01405,0.48564,-6.20334
20.8236,82380.4433,-0.12034,0.97861,-6.24671
20.8366,82380.4533,-0.31582,1.2877,-6.33589
20.8414,82380.4634,-0.55772,1.2596,-6.4544
20.8573,82380.4734,-0.73426,1.06107,-6.58635
20.8639,82380.4834,-0.83383,0.76297,-6.71952
20.8742,82380.4934,-0.85765,0.34025,-6.83192
20.8813,82380.5034,-0.82833,0.02688,-6.91438
20.8953,82380.5133,-0.83322,-0.0672,-6.98952
20.9012,82380.5233,-0.9334,-0.0617,-7.07015
20.9188,82380.5333,-1.22784,0.12401,-7.14101
20.9259,82380.5443,-1.56931,0.43494,-7.13613
20.9415,82380.5544,-1.90468,0.80634,-7.07565
20.9433,82380.5644,-2.17773,1.19241,-6.96509
20.9528,82380.5743,-2.44652,1.60291,-6.82459
20.9609,82380.5844,-2.73545,1.97065,-6.71769
20.9729,82380.5943,-3.0696,2.47828,-6.5668
20.9819,82380.6043,-3.39885,3.1991,-6.58513
20.9954,82380.6144,-3.74583,3.722,-6.49289
21.0032,82380.6244,-4.02866,3.65664,-6.17829
21.0149,82380.6344,-4.36158,3.26446,-5.73602
21.0222,82380.6444,-4.61997,2.86923,-5.40555
21.0351,82380.6544,-4.89914,2.39276,-5.04697
21.0421,82380.6643,-5.10256,2.04518,-4.78735
21.0568,82380.6754,-5.31941,1.86008,-4.55889
21.0699,82380.6864,-5.49107,1.7654,-4.45076
21.0978,82380.6974,-5.50084,1.78861,-4.22597
21.1035,82380.7074,-5.32064,1.68965,-4.03232
21.1062,82380.7184,-5.21679,1.46608,-3.81424
21.1116,82380.7284,-4.89059,1.3549,-3.45017
21.117,82380.7384,-4.58882,0.92668,-3.05616
21.1249,82380.7484,-4.47581,0.34819,-2.7495
21.1379,82380.7583,-4.51368,-0.67134,-2.31518
21.145,82380.7683,-4.66823,-1.62979,-2.20583
21.1571,82380.7784,-4.72749,-2.44835,-2.34328
21.1648,82380.7884,-4.58088,-2.55342,-2.54731
21.1798,82380.7984,-4.24002,-2.10626,-2.75745
21.187,82380.8084,-3.99384,-1.92361,-2.77333
21.1999,82380.8194,-3.35243,-1.73119,-2.52104
21.207,82380.8294,-2.73545,-1.58886,-2.1985
21.2209,82380.8394,-1.91873,-1.54977,-1.88635
21.2281,82380.8504,-1.46058,-1.77579,-1.66216
21.2417,82380.8614,-0.91508,-1.93889,-1.29992
21.2502,82380.8723,-0.40073,-1.91628,-0.92424
21.2644,82380.8824,0.3091,-1.58214,-0.43188
21.2774,82380.8924,1.10567,-1.10017,0.09896
21.2838,82380.9024,1.92484,-0.63163,0.63225
21.2903,82380.9124,2.59557,-0.25168,1.03419
21.3029,82380.9223,3.13863,0.04154,1.3097
21.311,82380.9334,3.43917,0.23763,1.37506
21.3239,82380.9433,3.48804,0.31643,1.25105
21.3315,82380.9533,3.48804,0.20831,1.10567
21.3439,82380.9633,3.58822,-0.00122,1.03114
21.3528,82380.9743,3.73483,-0.24129,1.05741
21.3751,82380.9843,3.94985,-0.74709,1.10322
21.3799,82380.9944,4.13861,-1.08856,1.07879
21.3916,82381.0044,4.41106,-1.68171,0.92485
21.3965,82381.0144,4.58882,-1.99631,0.77641
21.4028,82381.0244,4.82339,-2.15452,0.63958
21.4107,82381.0343,5.13066,-2.11848,0.54978
21.4275,82381.0443,5.50023,-1.15026,0.43005
21.4378,82381.0544,5.48557,-0.68722,0.76664
21.4445,82381.0644,5.22962,-0.60292,1.49845
21.4513,82381.0744,5.06346,-0.40378,2.1759
21.4626,82381.0844,5.02009,-0.1014,2.81548
21.4705,82381.0943,5.04208,-0.86132,2.91077
21.4822,82381.1043,5.47335,-1.29381,3.01157
21.4903,82381.1142,5.91684,-1.4899,3.16856
21.5029,82381.1244,6.11354,-2.26692,3.10869
21.5104,82381.1344,5.99381,-3.05372,2.72079
21.5223,82381.1444,5.89241,-3.51125,2.32251
21.5304,82381.1544,5.8527,-3.6823,2.13864
21.5426,82381.1643,5.69387,-3.68291,2.1588
21.5523,82381.1743,5.43975,-3.56806,2.32129
21.5632,82381.1844,4.87226,-3.25164,2.62916
21.5713,82381.1944,4.52957,-3.11358,2.87046
21.5842,82381.2044,4.26628,-3.64992,2.81487
21.5923,82381.2143,4.48803,-3.66825,2.59923
21.6047,82381.2243,5.0769,-2.80631,2.4117
21.6149,82381.2343,5.19846,-2.56319,2.43308
21.6234,82381.2444,5.06407,-2.68964,2.85518
21.6319,82381.2544,4.97794,-2.89794,3.1991
21.6444,82381.2644,4.99688,-3.16367,3.4691
21.6519,82381.2744,5.06468,-3.29501,3.51981
21.6645,82381.2843,5.16731,-3.32005,3.50026
21.673,82381.2954,5.23389,-3.21254,3.50759
21.6872,82381.3064,5.24245,-2.91383,3.66886
21.6952,82381.3174,5.14287,-2.66093,3.84601
21.71,82381.3283,4.87409,-2.29624,3.9749
21.7178,82381.3394,4.60837,-2.16185,3.98345
21.7321,82381.3493,4.30171,-2.02807,4.03415
21.7367,82381.3593,4.14289,-2.02074,4.11662
21.7524,82381.3694,4.04576,-1.98165,4.18321
21.758,82381.3802,4.02194,-1.89918,4.13434
21.7713,82381.3904,3.94497,-1.8045,4.05309
21.7784,82381.4004,3.74155,-1.57542,4.04515
21.7911,82381.4104,3.32799,-1.1356,4.14411
21.7993,82381.4214,2.87168,-0.77824,4.34936
21.8194,82381.4314,2.3274,-0.58399,4.69694
21.8233,82381.4414,2.05006,-0.69394,4.94068
21.8363,82381.4514,1.85031,-1.19791,5.13432
21.8417,82381.4613,1.80266,-1.73913,5.22045
21.8595,82381.4724,1.83687,-2.48195,5.36217
21.8646,82381.4823,1.91567,-3.17406,5.45625
21.8812,82381.4922,2.07022,-3.9297,5.53933
21.8845,82381.5034,2.25898,-4.45504,5.61324
21.8956,82381.5133,2.52348,-4.83011,5.63034
21.9012,82381.5233,2.67131,-4.88509,5.61568
21.9293,82381.5334,2.80876,-4.80201,5.65906
21.9333,82381.5434,2.87168,-4.66884,5.75007
21.939,82381.5534,2.85518,-4.4697,5.7513
21.945,82381.5634,2.80204,-4.35486,5.58758
21.9591,82381.5733,2.71041,-4.30599,5.35546
21.964,82381.5833,2.61389,-4.38723,5.22717
21.975,82381.5934,2.38665,-4.52346,5.09584
21.9813,82381.6034,2.09954,-4.64563,5.02131
21.9968,82381.6134,1.72692,-4.71954,4.94801
22.0026,82381.6234,1.43248,-4.70977,4.7788
22.017,82381.6333,1.12216,-4.54239,4.45809
22.023,82381.6433,0.78863,-4.22291,4.01216
22.0369,82381.6534,0.46181,-3.80752,3.51797
22.0411,82381.6634,0.22602,-3.4575,3.21559
22.0538,82381.6734,-0.01283,-3.29195,2.89978
22.0609,82381.6833,-0.21502,-3.39702,2.63405
22.0775,82381.6933,-0.50519,-3.85151,2.25776
22.0813,82381.7033,-0.71777,-4.39029,1.92361
22.093,82381.7134,-0.91569,-4.76536,1.72447
22.1,82381.7234,-1.04153,-4.8802,1.64078
22.1118,82381.7334,-1.28526,-4.5876,1.86986
22.1197,82381.7434,-1.55343,-3.99078,2.20828
22.1334,82381.7534,-1.80694,-3.51858,2.3836
22.1401,82381.7633,-2.00608,-3.40741,2.29319
22.1531,82381.7733,-2.30663,-3.5589,2.02441
22.1603,82381.7834,-2.58824,-3.87961,1.77029
22.1724,82381.7934,-2.99568,-4.38418,1.55648
22.181,82381.8034,-3.47094,-4.8295,1.53816
22.1949,82381.8144,-4.11051,-5.05674,1.6921
22.202,82381.8244,-4.71038,-4.74093,1.85764
22.2158,82381.8354,-5.31331,-3.8173,1.98959
22.224,82381.8463,-5.61752,-2.74706,1.87597
22.2416,82381.8564,-5.82155,-1.38666,1.44164
22.2493,82381.8664,-5.89118,-0.77519,1.04702
22.258,82381.8774,-5.92356,-0.28955,0.64691
22.2661,82381.8883,-5.88935,-0.17654,0.46242
22.2846,82381.8994,-5.83804,-0.63897,0.38485
22.2902,82381.9093,-5.84598,-1.32436,0.24862
22.303,82381.9193,-5.98465,-2.18079,0.27061
22.3088,82381.9294,-6.10193,-2.496,0.44532
22.3189,82381.9403,-6.13125,-2.40253,0.7196
22.3288,82381.9504,-6.12454,-2.08977,0.94134
22.3401,82381.9604,-6.16241,-1.53083,1.10811
22.3469,82381.9704,-6.20395,-1.15454,1.12033
22.3636,82381.9804,-6.34078,-0.95112,0.96211
22.3703,82381.9904,-6.4825,-0.76786,0.66523
22.3841,82382.0003,-6.50449,-0.3934,0.1631
22.3882,82382.0103,-6.2913,-0.0055,-0.3653
22.4001,82382.0204,-5.77695,0.31093,-0.93646
22.408,82382.0304,-5.13493,0.45021,-1.29076
22.4178,82382.0404,-4.04454,0.51007,-1.57848
22.4273,82382.0504,-2.95537,0.48014,-1.63895
22.4376,82382.0603,-1.74341,0.27,-1.56259
22.4461,82382.0703,-0.90164,-0.21564,-1.43309
22.4581,82382.0804,0.12828,-1.01709,-1.18264
22.466,82382.0904,0.6805,-1.25655,-1.01953
22.4777,82382.1004,1.12094,-1.22723,-0.77274
22.4861,82382.1104,1.17164,-0.99754,-0.45021
22.4988,82382.1203,0.91141,-0.79474,-0.08919
22.508,82382.1303,0.48991,-0.60659,0.28161
22.5216,82382.1404,-0.05315,-0.24068,0.71471
22.5328,82382.1504,-0.39584,-0.00183,0.9615
22.546,82382.1604,-0.77641,0.26206,1.22845
22.5504,82382.1714,-1.06779,0.58826,1.50212
22.5615,82382.1823,-1.34329,1.05802,1.91323
22.5699,82382.1934,-1.5235,1.2877,2.19789
22.5818,82382.2033,-1.66033,1.46302,2.47156
22.5898,82382.2134,-1.74097,1.55648,2.69025
22.6017,82382.2234,-1.81977,1.46424,2.95048
22.6112,82382.2334,-1.88146,1.42881,3.17344
22.624,82382.2434,-2.03235,1.64139,3.48743
22.6321,82382.2544,-2.27975,2.08061,3.85395
22.6432,82382.2644,-2.54792,2.39642,4.22474
22.6518,82382.2754,-2.71652,2.53753,4.43183
22.6638,82382.2854,-2.80631,2.91138,4.52346
22.6716,82382.2954,-2.89123,3.59677,4.56011
22.6835,82382.3053,-3.03905,4.26017,4.56377
22.6915,82382.3153,-3.20888,4.7562,4.53262
22.7033,82382.3254,-3.36953,5.0598,4.49658
22.7116,82382.3354,-3.43001,4.97489,4.44893
22.7272,82382.3454,-3.44161,4.46604,4.40984
22.7325,82382.3554,-3.40802,3.90282,4.41595
22.7466,82382.3654,-3.31333,3.4856,4.40984
22.7527,82382.3753,-3.2553,3.49904,4.40312
22.7668,82382.3853,-3.28707,3.77515,4.52834
22.7729,82382.3954,-3.31211,4.16732,4.71649
22.7864,82382.4054,-3.32738,4.69206,5.04575
22.7928,82382.4154,-3.32127,5.10439,5.27238
22.8065,82382.4264,-3.28218,5.57415,5.43731
22.8149,82382.4374,-3.29989,5.73297,5.45747
22.8358,82382.4474,-3.43917,5.48252,5.31025
22.8414,82382.4574,-3.56379,5.18075,5.12149
22.8532,82382.4674,-3.7049,4.79346,4.83194
22.8566,82382.4774,-3.80264,4.45871,4.61814
22.8673,82382.4873,-3.87594,4.04026,4.44099
22.8746,82382.4973,-3.8851,3.92114,4.41045
22.8977,82382.5074,-3.94008,4.1099,4.49169
22.9002,82382.5174,-4.10196,4.49291,4.54423
22.909,82382.5284,-4.51307,5.17525,4.60592
22.9315,82382.5393,-4.96878,5.70854,4.63769
22.9338,82382.5504,-5.53016,6.0891,4.53934
22.9388,82382.5614,-5.92417,6.10438,4.31088
22.9542,82382.5714,-6.19234,5.78428,3.91076
22.9637,82382.5813,-6.22655,5.62973,3.58639
22.9707,82382.5913,-6.21311,5.83804,3.25958
22.982,82382.6014,-6.26503,5.90035,3.13801
22.9907,82382.6114,-6.53381,5.81605,3.05616
22.998,82382.6214,-6.91377,5.81544,2.96392
23.011,82382.6314,-7.5845,6.05673,2.76355
23.0184,82382.6414,-8.02555,6.27297,2.61328
23.039,82382.6513,-8.38168,6.49166,2.56136
23.0438,82382.6624,-8.42322,6.51121,2.68292
23.0557,82382.6723,-8.17093,6.2015,2.93582
23.0606,82382.6823,-7.76532,5.79711,3.02317
23.0751,82382.6924,-7.09703,5.29803,2.89856
23.0873,82382.7024,-6.59551,4.84722,2.49905
23.0999,82382.7134,-6.07139,3.84234,1.76907
23.1021,82382.7234,-5.44098,2.83625,0.95906
23.1148,82382.7334,-4.45626,1.75624,-0.02321
23.12,82382.7434,-3.58944,1.01953,-0.74403
23.1331,82382.7534,-2.54303,0.2755,-1.45875
23.1399,82382.7633,-2.07877,-0.02688,-1.64506
23.1549,82382.7733,-1.85275,-0.21747,-1.57298
23.161,82382.7834,-1.90529,-0.10568,-1.31397
23.1731,82382.7934,-2.13192,0.15944,-0.96639
23.1801,82382.8034,-2.45201,0.44532,-0.59193
23.1941,82382.8134,-2.82098,0.68967,-0.17471
23.2,82382.8233,-2.95414,0.7025,0.03543
23.2168,82382.8333,-2.91077,0.61636,0.19487
23.2227,82382.8434,-2.70552,0.44349,0.25412
23.2366,82382.8543,-2.0519,0.08796,0.38668
23.2414,82382.8643,-1.31214,-0.21258,0.53573
23.2585,82382.8753,-0.11851,-0.7422,0.64446
23.2625,82382.8853,0.84666,-1.03847,0.7532
23.2754,82382.8963,1.79961,-0.88331,0.9725
23.2831,82382.9063,2.16613,-0.53817,1.17103
23.2958,82382.9164,2.31701,-0.0281,1.49234
23.3032,82382.9264,2.27731,0.33537,1.70248
23.3156,82382.9364,2.34267,0.50824,1.76968
23.3231,82382.9464,2.60229,0.34208,1.76662
23.3353,82382.9563,3.29684,-0.21808,1.83015
23.3436,82382.9663,4.20214,-0.80695,1.92606
23.3626,82382.9764,5.33896,-1.47463,1.92728
23.366,82382.9864,6.3646,-1.63101,1.79961
23.3811,82382.9963,7.30595,-1.37506,1.50456
23.3858,82383.0062,7.73294,-1.10628,1.23395
23.3962,82383.0164,7.7134,-0.81123,0.8375
23.4024,82383.0263,7.35054,-0.71654,0.62003
23.4147,82383.0363,6.91377,-0.71288,0.62797
23.4223,82383.0464,6.72563,-0.78435,0.97738
23.4362,82383.0564,6.73112,-0.90347,1.63834
23.4452,82383.0664,6.66759,-0.63286,2.28769
23.4542,82383.0764,6.27297,-0.00733,3.06715
23.4623,82383.0863,5.77145,0.34758,3.78675
23.4753,82383.0963,5.04269,0.55833,4.74581
23.4827,82383.1062,4.39762,0.53756,5.45808
23.4963,82383.1164,3.69512,0.44899,5.93089
23.5047,82383.1262,3.22964,0.16371,6.15569
23.5176,82383.1374,2.78799,-0.48319,6.41775
23.524,82383.1474,2.61145,-1.03664,6.59796
23.5373,82383.1574,2.45995,-1.57176,6.7464
23.5443,82383.1674,2.27181,-1.8949,6.89361
23.5572,82383.1773,1.8387,-2.07877,7.10009
23.5652,82383.1884,1.1692,-2.07267,7.2583
23.5786,82383.1983,0.37202,-1.86742,7.444
23.5851,82383.2083,-0.25534,-1.71959,7.53624
23.6004,82383.2184,-0.88392,-1.73791,7.66025
23.6129,82383.2284,-1.15209,-1.89246,7.78181
23.6191,82383.2384,-1.22417,-2.12887,7.91071
23.6272,82383.2494,-1.22845,-2.3726,8.03227
23.6397,82383.2594,-1.26693,-2.56014,8.26012
23.6527,82383.2703,-1.34696,-2.65665,8.48614
23.666,82383.2804,-1.4056,-2.60229,8.63641
23.6695,82383.2903,-1.41049,-2.44346,8.6865
23.6827,82383.3014,-1.4447,-2.41414,8.87404
23.6952,82383.3124,-1.5968,-2.43491,9.03103
23.7061,82383.3224,-1.80266,-2.36099,9.24667
23.712,82383.3324,-2.01586,-2.31335,9.36151
23.7289,82383.3434,-2.38909,-2.44957,9.32058
23.7348,82383.3543,-2.74523,-2.72324,9.01454
23.7447,82383.3644,-3.22109,-3.17528,8.50813
23.7565,82383.3744,-3.7049,-3.58578,8.11901
23.773,82383.3844,-4.22902,-3.7611,7.69873
23.7749,82383.3944,-4.50085,-3.70062,7.33222
23.7913,82383.4043,-4.6664,-3.52897,6.72257
23.7945,82383.4143,-4.58149,-3.3506,6.0268
23.8094,82383.4244,-4.27789,-3.182,5.21374
23.8112,82383.4344,-3.94863,-3.04333,4.61142
23.8391,82383.4444,-3.44406,-2.81792,3.93031
23.8401,82383.4544,-2.98347,-2.62855,3.38664
23.8445,82383.4644,-2.48561,-2.49355,2.80998
23.8511,82383.4743,-2.15147,-2.45018,2.38054
23.8636,82383.4843,-1.83321,-2.49783,1.67255
23.8703,82383.4944,-1.71714,-2.39948,1.07696
23.882,82383.5044,-1.65911,-2.13192,0.27733
23.8904,82383.5144,-1.65789,-1.73852,-0.43127
23.9034,82383.5244,-1.74097,-0.96517,-1.12399
23.9104,82383.5343,-1.90529,-0.22541,-1.75563
23.9224,82383.5443,-2.0861,0.5455,-2.35611
23.9304,82383.5544,-2.18201,1.19058,-2.82892
23.943,82383.5644,-2.13497,1.80511,-3.39275
23.9519,82383.5744,-1.94866,2.1081,-3.83135
23.9659,82383.5844,-1.529,2.14108,-4.40923
23.9721,82383.5943,-1.03664,1.82038,-5.02864
23.9929,82383.6043,-0.48442,1.31947,-5.81605
23.9958,82383.6154,0.09529,0.77519,-6.55642
24.0064,82383.6264,0.551,0.40073,-7.45256
24.0136,82383.6364,0.69394,0.35186,-8.07075
24.0281,82383.6463,0.68967,0.49114,-8.74637
24.0339,82383.6563,0.52473,0.87354,-8.90764
24.0463,82383.6664,0.05986,1.43248,-8.63641
24.0541,82383.6764,-0.44349,1.94561,-8.28944
24.074,82383.6864,-0.80756,2.26875,-8.11351
24.0759,82383.6964,-0.94867,2.4233,-8.20026
24.0937,82383.7063,-0.99266,2.41047,-8.51241
24.0995,82383.7163,-1.06657,2.17224,-8.77874
24.1064,82383.7264,-1.15515,1.87841,-8.8551
24.1131,82383.7364,-1.22601,1.69149,-8.77997
24.1262,82383.7464,-1.28709,1.24983,-8.60587
24.1368,82383.7564,-1.32558,0.73121,-8.43605
24.1453,82383.7664,-1.39338,-0.03604,-8.14222
24.1532,82383.7763,-1.48135,-0.37324,-7.75493
24.1655,82383.7863,-1.65911,-0.37446,-6.94981
24.1775,82383.7964,-1.93095,-0.0507,-6.16913
24.1863,82383.8064,-2.15391,0.07453,-5.49901
24.1932,82383.8163,-2.39581,0.25717,-5.25161
24.2054,82383.8264,-2.95048,0.73487,-5.25772
24.2135,82383.8363,-3.39641,1.07818,-5.47457
24.2263,82383.8463,-3.3341,0.85032,-5.7794
24.2338,82383.8564,-3.09892,0.54856,-5.91256
24.2476,82383.8664,-2.84908,-0.29138,-5.91684
24.2557,82383.8774,-2.67864,-1.16064,-5.85942
24.2675,82383.8874,-2.51188,-1.85337,-5.74091
24.2736,82383.8974,-2.34389,-1.96088,-5.62118
24.2879,82383.9074,-2.08366,-1.57909,-5.42509
24.2949,82383.9184,-2.26264,-1.85398,-5.56071
24.3067,82383.9284,-2.71774,-2.53081,-5.68227
24.3157,82383.9384,-3.00912,-3.1032,-5.54299
24.3272,82383.9483,-3.19849,-3.77698,-5.16731
24.3369,82383.9583,-3.13557,-3.96207,-4.84477
24.3569,82383.9684,-2.89917,-3.48193,-4.56561
24.3617,82383.9784,-2.72202,-2.80326,-4.46481
24.3672,82383.9884,-2.56075,-2.6029,-4.30049
24.375,82383.9984,-2.45507,-3.32616,-4.09585
24.3866,82384.0082,-2.35305,-4.79835,-4.09463
24.3943,82384.0183,-2.31823,-5.82338,-4.27178
24.4061,82384.0284,-2.30785,-6.23571,-4.55339
24.4144,82384.0384,-2.25165,-5.87897,-4.6493
24.4259,82384.0484,-2.13986,-5.09889,-4.35791
24.4351,82384.0584,-2.01341,-4.83927,-3.86006
24.4456,82384.0684,-1.88635,-4.65113,-3.20338
24.4539,82384.0783,-1.87719,-4.37563,-2.62183
24.4666,82384.0882,-1.72203,-2.89306,-1.69026
24.4741,82384.0983,-1.27793,-1.82832,-0.81001
24.4856,82384.1083,-0.84116,-1.33535,-0.31215
24.4945,82384.1183,-0.66523,-1.0287,-0.34575
24.5072,82384.1283,-0.71044,-0.99754,-0.57605
24.5144,82384.1383,-0.72937,-1.09345,-0.65363
24.5263,82384.1483,-0.562,-0.7367,-0.39462
24.5363,82384.1583,-0.30543,-0.28527,0.03054
24.5541,82384.1683,0.11912,0.3824,0.73915
24.5596,82384.1793,0.50335,1.05008,1.52655
24.5714,82384.1903,0.77213,1.69026,2.35794
24.5782,82384.2003,0.78374,2.18995,3.08059
24.5926,82384.2113,0.46914,2.88756,3.84906
24.6001,82384.2223,0.05681,3.61877,4.38968
24.6153,82384.2333,-0.45387,4.75681,5.09156
24.6209,82384.2433,-0.70738,5.39272,5.47824
24.634,82384.2533,-1.01465,5.86553,6.09338
24.6412,82384.2633,-1.21684,6.0775,6.64927
24.6543,82384.2732,-1.43614,6.25037,7.29617
24.662,82384.2833,-1.58764,6.45746,7.68957
24.6761,82384.2933,-1.65422,6.67859,7.90276
24.6822,82384.3033,-1.59619,6.67126,7.89055
24.696,82384.3143,-1.59253,6.03901,7.39025
24.7021,82384.3243,-1.81244,4.79957,6.61445
24.7153,82384.3343,-2.08549,2.6933,5.55154
24.7228,82384.3453,-2.07205,1.18325,4.81056
24.7358,82384.3553,-1.80144,0.09529,3.96757
24.7432,82384.3653,-1.43614,-0.57055,3.16795
24.7561,82384.3753,-1.19974,-0.85765,2.51127
24.7629,82384.3853,-1.15148,-0.71532,2.38726
24.7769,82384.3963,-1.24372,-0.08063,2.6591
24.7851,82384.4073,-1.48868,0.4722,3.03111
24.7995,82384.4183,-1.74158,0.84788,3.12335
24.806,82384.4283,-1.79167,1.19485,2.87229
24.8197,82384.4383,-1.57542,1.52961,2.15513
24.827,82384.4493,-1.11422,1.58336,1.33291
24.8452,82384.4603,-0.31398,1.45691,0.49969
24.8522,82384.4703,0.12767,0.99632,0.08186
24.8619,82384.4813,0.24801,0.25717,-0.25962
24.8702,82384.4923,0.1912,-0.45082,-0.40867
24.8844,82384.5033,0.1179,-0.81245,-0.32987
24.8915,82384.5133,0.06903,-0.83261,-0.2364
24.9076,82384.5232,-0.06964,-0.77641,-0.19303
24.9112,82384.5333,-0.21319,-0.68906,-0.21075
24.9253,82384.5443,-0.28161,-0.54917,-0.25656
24.9322,82384.5543,-0.23579,-0.40561,-0.33109
24.9454,82384.5643,-0.12523,-0.31643,-0.49969
24.9529,82384.5753,-0.02138,0.03848,-0.74648
24.9682,82384.5863,0.02443,0.33353,-0.97372
24.9771,82384.5962,0.05315,0.31643,-1.08184
24.9911,82384.6073,0.15577,0.16249,-1.13499
24.9949,82384.6173,0.34147,0.16249,-1.18447
25.0113,82384.6273,0.67256,0.55528,-1.22784
25.017,82384.6373,0.88331,0.87781,-1.18874
25.0294,82384.6483,0.86987,0.81551,-0.99876
25.0361,82384.6583,0.72204,0.61453,-0.77397
25.0553,82384.6693,0.46853,0.63591,-0.47892
25.0602,82384.6793,0.40806,1.15392,-0.49175
25.0734,82384.6903,0.12217,1.46852,-0.45876
25.0808,82384.7003,-0.18509,1.53633,-0.416
25.1006,82384.7103,-0.29199,2.02135,-0.50213
25.1052,82384.7203,-0.10751,2.41536,-0.56077
25.1138,82384.7313,0.21319,2.87107,-0.50763
25.1196,82384.7413,0.36591,3.12702,-0.28466
25.13,82384.7513,0.27917,3.13068,0.23946
25.1377,82384.7613,0.09713,3.09342,0.70677
25.1501,82384.7713,-0.14355,3.0751,1.12827
25.1578,82384.7813,-0.25412,3.07143,1.26571
25.1725,82384.7913,-0.25656,3.07326,1.17347
25.1792,82384.8013,-0.17532,3.1148,0.98227
25.1916,82384.8113,-0.05131,3.36159,0.91813
25.199,82384.8213,0.01222,3.74949,1.01953
25.2115,82384.8313,0.09285,3.93214,1.16492
25.2189,82384.8413,0.2584,3.97918,1.16736
25.2313,82384.8513,0.416,4.34264,0.98777
25.2401,82384.8623,0.45509,4.30965,0.79962
25.2571,82384.8733,0.34758,4.01033,0.71716
25.2614,82384.8833,0.31521,3.8961,0.70372
25.2751,82384.8933,0.35552,3.90037,0.64752
25.2816,82384.9033,0.43494,3.93519,0.57605
25.299,82384.9133,0.4893,3.91565,0.54367
25.3035,82384.9233,0.46853,4.18015,0.55711
25.3178,82384.9333,0.39584,4.50208,0.70555
25.3229,82384.9433,0.30177,4.60592,0.99876
25.3364,82384.9533,0.3543,4.24674,1.27365
25.3417,82384.9643,0.66829,3.44284,1.37323
25.3593,82384.9753,1.15392,2.32373,1.28831
25.3625,82384.9853,1.3549,1.8668,1.11788
25.3745,82384.9953,1.26144,1.38056,0.9841
25.3875,82385.0063,1.09834,1.05496,0.90225
25.4026,82385.0163,1.04336,1.12277,0.81673
25.4079,82385.0263,0.956,1.13071,0.75625
25.4197,82385.0363,0.79718,0.97555,0.72388
25.4237,82385.0463,0.67623,0.75014,0.73487
25.4341,82385.0563,0.57238,0.405,0.80879
25.4424,82385.0663,0.48564,0.06781,0.86071
25.4549,82385.0763,0.36224,-0.57055,0.86193
25.4628,82385.0863,0.29383,-1.37628,0.81428
25.4751,82385.0963,0.35491,-2.80937,0.65118
25.4827,82385.1063,0.57421,-4.30477,0.44104
25.4959,82385.1163,0.89858,-5.7794,0.12401
25.5028,82385.1263,1.17775,-6.67187,-0.17471
25.5149,82385.1363,1.35856,-7.29679,-0.40623
25.5241,82385.1463,1.35856,-7.58939,-0.54367
25.5383,82385.1573,1.07696,-7.10864,-0.50152
25.5448,82385.1673,0.81612,-6.44157,-0.41294
25.5585,82385.1783,0.21319,-5.20396,-0.29566
25.5656,82385.1883,-0.29016,-4.45626,-0.26695
25.5785,82385.1983,-0.72998,-4.1044,-0.25901
25.589,82385.2082,-0.94379,-4.10196,-0.17837
25.598,82385.2183,-1.07024,-4.35303,-0.04704
25.6057,82385.2293,-1.02992,-4.91502,-0.03299
25.6183,82385.2393,-0.82894,-5.60225,-0.10996
25.6298,82385.2493,-0.61392,-6.03291,-0.21441
25.6378,82385.2593,-0.34025,-6.3866,-0.33842
25.6458,82385.2693,-0.11729,-6.55092,-0.40317
25.6609,82385.2793,0.12278,-6.58513,-0.39645
25.6669,82385.2903,0.27611,-6.5442,-0.34331
25.6831,82385.3003,0.34086,-6.50999,-0.26206
25.6879,82385.3103,0.29322,-6.48983,-0.18204
25.7006,82385.3203,0.16982,-6.47823,-0.0843
25.7088,82385.3313,0.0452,-6.5161,-0.1014
25.7214,82385.3413,-0.02382,-6.49105,-0.31765
25.73,82385.3523,0.05253,-6.45685,-0.67867
25.7439,82385.3633,0.2645,-6.31024,-1.03358
25.7519,82385.3743,0.50763,-6.26442,-1.31031
25.7662,82385.3853,0.67073,-6.3023,-1.54427
25.7783,82385.3953,0.66279,-6.31207,-1.66339
25.7857,82385.4053,0.51801,-6.25526,-1.69271
25.793,82385.4153,0.34208,-6.0665,-1.59558
25.8081,82385.4263,0.12828,-5.73175,-1.47646
25.8149,82385.4373,-0.00916,-5.42387,-1.45508
25.8366,82385.4473,-0.09591,-5.22962,-1.5516
25.8409,82385.4573,-0.09774,-5.35423,-1.72631
25.8493,82385.4683,0.04704,-5.84476,-2.04518
25.856,82385.4782,0.26756,-6.2687,-2.25348
25.8699,82385.4883,0.58704,-6.58024,-2.4398
25.8772,82385.4993,0.94379,-6.72624,-2.49111
25.9019,82385.5093,1.28465,-6.69692,-2.54242
25.9048,82385.5193,1.48807,-6.94248,-2.67131
25.911,82385.5293,1.76845,-7.68224,-2.94804
25.9215,82385.5403,2.10382,-8.25584,-3.16062
25.9297,82385.5503,2.52226,-8.33159,-3.42207
25.9368,82385.5603,2.81426,-8.03043,-3.61205
25.9493,82385.5703,3.04211,-7.63582,-3.69451
25.958,82385.5813,3.21193,-7.42507,-3.58883
25.9727,82385.5913,3.441,-7.17522,-3.43184
25.9814,82385.6013,3.58639,-7.14285,-3.41962
25.9988,82385.6113,3.69268,-7.24731,-3.48682
26.0007,82385.6213,3.70795,-7.50448,-3.58395
26.011,82385.6313,3.70429,-7.76349,-3.72383
26.0226,82385.6413,3.69635,-7.69202,-3.76232
26.03,82385.6513,3.64748,-7.29495,-3.74033
26.0376,82385.6613,3.53752,-6.5106,-3.63587
26.0597,82385.6713,3.0696,-4.81851,-3.3451
26.0624,82385.6823,2.42391,-3.24369,-2.96575
26.0726,82385.6923,1.60108,-1.70981,-2.37504
26.1001,82385.7033,0.90775,-0.55344,-1.79839
26.1039,82385.7133,0.29444,0.4777,-1.28587
26.1067,82385.7233,-0.05681,1.02748,-1.05863
26.1166,82385.7333,-0.20769,1.06535,-1.00915
26.1196,82385.7433,-0.13317,0.81489,-1.00304
26.1328,82385.7533,0.18937,0.55405,-0.94623
26.1406,82385.7643,0.58338,0.52779,-0.77824
26.1538,82385.7743,0.7929,0.95661,-0.52168
26.1626,82385.7853,0.80084,1.62734,-0.11606
26.1752,82385.7953,0.62553,2.26448,0.35552
26.1829,82385.8053,0.43738,2.80448,0.75564
26.1976,82385.8163,0.12156,3.80936,1.37933
26.21,82385.8263,-0.05315,4.49963,1.75257
26.2199,82385.8363,-0.25351,5.38661,2.21744
26.2226,82385.8463,-0.40378,6.02802,2.56869
26.2348,82385.8563,-0.61636,6.63522,2.97247
26.2451,82385.8663,-0.78802,6.8759,3.24431
26.2549,82385.8763,-0.89675,6.95226,3.47582
26.2627,82385.8863,-0.9499,7.06405,3.63037
26.2776,82385.8963,-1.04214,7.43912,3.78003
26.2847,82385.9063,-1.20646,8.05182,3.92603
26.2969,82385.9163,-1.49173,8.98705,4.07081
26.305,82385.9273,-1.83321,9.91679,4.1661
26.3217,82385.9383,-2.31946,11.02184,4.2333
26.3276,82385.9483,-2.67926,11.8459,4.27728
26.3398,82385.9583,-3.11541,12.61987,4.39029
26.3459,82385.9683,-3.46361,13.01326,4.4978
26.3597,82385.9782,-3.87166,13.21912,4.58882
26.3666,82385.9883,-4.15938,13.20935,4.5821
26.3785,82385.9983,-4.37929,13.0774,4.53995
26.3896,82386.0093,-4.51124,12.88742,4.51552
26.4055,82386.0193,-4.57049,12.49769,4.47276
26.4104,82386.0293,-4.5766,12.17638,4.44099
26.4177,82386.0393,-4.51124,11.69074,4.39212
26.4388,82386.0493,-4.38723,11.29734,4.27178
26.4468,82386.0592,-4.11968,10.82087,3.91931
26.4495,82386.0692,-4.01644,10.78116,3.77576
26.458,82386.0793,-3.88449,10.89906,3.49293
26.4654,82386.0893,-3.80569,10.96503,3.22537
26.4777,82386.0993,-3.60472,10.9632,2.77394
26.4853,82386.1093,-3.15878,10.80682,2.15208
26.4984,82386.1193,-2.25165,10.02919,1.09711
26.5053,82386.1293,-1.42637,8.91069,0.18326
26.5177,82386.1393,-0.37813,7.23448,-1.04519
26.5253,82386.1493,0.63897,5.63462,-1.87597
26.5371,82386.1593,1.42332,4.07753,-2.5974
26.5453,82386.1693,1.77823,3.20765,-2.97552
26.5572,82386.1793,2.01647,3.00057,-3.10992
26.566,82386.1893,2.08366,3.22598,-2.87229
26.5772,82386.1993,1.92545,3.587,-2.00242
26.5854,82386.2093,1.38605,3.69207,-0.89003
26.5971,82386.2193,0.57727,3.66825,0.15577
26.6087,82386.2293,0.20159,3.65053,0.65546
26.6208,82386.2393,0.20525,3.4691,0.9108
26.6267,82386.2503,0.80023,2.87595,0.95539
26.6401,82386.2603,1.7147,2.1924,0.96822
26.6468,82386.2702,2.34267,1.45875,1.06413
26.6592,82386.2803,2.7324,0.41783,1.2932
26.6669,82386.2903,2.69941,-0.28527,1.45325
26.6801,82386.3003,2.49355,-0.51496,1.4447
26.689,82386.3113,2.3274,-0.44532,1.29626
26.7022,82386.3213,2.13742,-0.27672,1.17897
26.7153,82386.3313,1.99631,-0.07636,1.12277
26.7216,82386.3413,1.88696,-0.10751,1.31153
26.7292,82386.3513,1.80511,-0.37202,1.52594
26.7427,82386.3623,1.7037,-1.03542,1.76051
26.759,82386.3722,1.75868,-1.83565,1.87536
26.7646,82386.3833,1.97432,-2.78371,1.95538
26.7721,82386.3933,2.23149,-3.21376,2.00852
26.7818,82386.4033,2.47828,-3.38114,2.15574
26.7923,82386.4133,2.59923,-3.41535,2.33045
26.8028,82386.4233,2.60656,-3.36709,2.51921
26.8109,82386.4343,2.52593,-3.31761,2.60412
26.8224,82386.4443,2.35733,-3.15268,2.59679
26.8354,82386.4543,2.15697,-2.36099,2.58274
26.8454,82386.4643,1.85764,-2.14169,2.5583
26.852,82386.4743,1.4673,-1.94927,2.51615
26.8645,82386.4843,1.03969,-1.58825,2.46057
26.8731,82386.4953,0.7367,-1.40255,2.48256
26.8866,82386.5053,0.45509,-1.24922,2.5638
26.8961,82386.5153,0.18692,-1.20096,2.68842
26.9042,82386.5251,-0.10201,-1.42881,2.92543
26.9153,82386.5353,-0.38118,-1.88269,3.20582
26.9261,82386.5453,-0.697,-2.46973,3.49232
26.9357,82386.5553,-1.00732,-3.15878,3.75743
26.9481,82386.5653,-1.29687,-4.02438,3.98101
26.9559,82386.5763,-1.48257,-4.70611,4.17832
26.9684,82386.5863,-1.52411,-5.15265,4.37257
26.9747,82386.5963,-1.50212,-5.47519,4.49658
26.9875,82386.6073,-1.44958,-5.7629,4.58943
26.9963,82386.6183,-1.43004,-5.78001,4.65113
27.0129,82386.6283,-1.47768,-5.5155,4.75314
27.0249,82386.6383,-1.5797,-5.15815,4.85027
27.0367,82386.6483,-1.77701,-4.45015,4.94984
27.0398,82386.6583,-1.97371,-3.84601,4.93457
27.052,82386.6683,-2.30541,-3.21987,4.64013
27.0597,82386.6783,-2.48439,-2.99996,4.25651
27.0719,82386.6883,-2.55281,-2.98408,3.64015
27.0749,82386.6983,-2.44896,-3.25041,3.13252
27.0871,82386.7083,-2.12825,-3.80264,2.53753
27.0946,82386.7183,-1.64995,-4.2956,2.18445
27.1095,82386.7283,-1.03908,-4.83072,1.97126
27.1147,82386.7383,-0.53206,-5.08484,1.75013
27.1294,82386.7483,-0.05986,-4.92907,1.44347
27.1361,82386.7593,0.18876,-4.32004,1.18264
27.1481,82386.7693,0.1912,-3.31578,0.98777
27.1572,82386.7793,-0.03543,-2.62183,0.92729
27.1694,82386.7893,-0.36957,-2.26631,1.03297
27.1763,82386.7993,-0.7532,-2.23821,1.19363
27.1892,82386.8093,-1.17103,-2.20095,1.27549
27.2038,82386.8193,-1.56076,-2.08855,1.24739
27.2136,82386.8293,-2.01708,-2.1704,1.09834
27.2233,82386.8403,-2.6817,-2.47095,0.93218
27.231,82386.8503,-3.37992,-3.18383,0.72998
27.2375,82386.8603,-3.83623,-4.19664,0.49052
27.2536,82386.8713,-4.0201,-5.49046,0.07086
27.2579,82386.8813,-3.91442,-6.34628,-0.49236
27.2759,82386.8913,-3.61388,-6.84658,-1.3775
27.2817,82386.9013,-3.43245,-6.86368,-1.86131
27.2944,82386.9113,-3.2498,-6.31757,-2.29991
27.3004,82386.9213,-3.1655,-5.27971,-2.29563
27.3115,82386.9313,-3.04639,-3.82096,-1.84848
27.3177,82386.9413,-2.85641,-2.55708,-1.2706
27.33,82386.9513,-2.56624,-1.43126,-0.67317
27.3378,82386.9613,-2.1478,-0.65363,-0.36224
27.3501,82386.9713,-1.73547,-0.26206,-0.34392
27.3591,82386.9813,-1.48379,-0.3824,-0.65118
27.3801,82386.9913,-1.39338,-0.93279,-1.05863
27.41,82387.0011,-1.47402,-1.46669,-1.3097
27.4137,82387.0113,-1.60596,-2.06411,-1.49418
27.4163,82387.0211,-1.77395,-2.74278,-1.77701
27.4183,82387.0311,-2.03418,-3.30661,-2.40864
27.4206,82387.0412,-2.08244,-3.34327,-2.49844
27.4316,82387.0513,-2.30113,-3.52897,-2.6872
27.4434,82387.0613,-2.56014,-3.92664,-2.59862
27.4522,82387.0713,-3.00729,-4.54423,-2.43124
27.4577,82387.0813,-3.27668,-4.91747,-2.41231
27.4691,82387.0913,-3.5308,-5.27849,-2.53753
27.4774,82387.1013,-3.51981,-5.51367,-2.79837
27.4901,82387.1113,-3.14596,-5.62301,-3.16001
27.4974,82387.1213,-2.62794,-5.52589,-3.29134
27.5092,82387.1313,-2.07694,-5.45503,-3.29989
27.5174,82387.1413,-1.66766,-5.27604,-3.27241
27.5302,82387.1513,-1.46913,-5.34385,-3.34693
27.5375,82387.1613,-1.54243,-5.52222,-3.41352
27.5502,82387.1713,-1.70248,-5.58148,-3.50759
27.5574,82387.1813,-1.81916,-5.56254,-3.55768
27.5717,82387.1913,-1.88269,-5.41104,-3.6096
27.5793,82387.2013,-1.82221,-5.19663,-3.60594
27.5927,82387.2123,-1.63712,-4.97611,-3.6377
27.5999,82387.2223,-1.53144,-4.87593,-3.71467
27.6171,82387.2333,-1.47829,-4.84844,-3.82829
27.6222,82387.2433,-1.47463,-4.73726,-3.85822
27.6387,82387.2543,-1.4166,-4.3121,-3.83257
27.6424,82387.2653,-1.34818,-3.81546,-3.83746
27.6564,82387.2753,-1.26816,-3.32127,-3.84784
27.6689,82387.2853,-1.21623,-3.11236,-3.84051
27.6765,82387.2953,-1.18813,-2.87412,-3.83135
27.6839,82387.3063,-1.26449,-2.61573,-3.88144
27.6964,82387.3161,-1.43309,-2.43124,-4.05187
27.7034,82387.3263,-1.66949,-2.22172,-4.32004
27.7216,82387.3363,-1.97004,-1.94316,-4.67495
27.7259,82387.3463,-2.17835,-1.69943,-4.93946
27.7414,82387.3573,-2.22844,-1.58886,-5.03781
27.7445,82387.3683,-2.0354,-1.72997,-4.89242
27.7589,82387.3783,-1.58642,-2.05129,-4.6719
27.7648,82387.3883,-1.30114,-2.1362,-4.58943
27.7803,82387.3983,-0.98777,-1.96454,-4.67068
