AppTimestamp(s),SensorTimestamp(s),acc_x,acc_y,acc_z,gyro_x,gyro_y,gyro_z,mag_x,mag_y,mag_z
55.0047,69361.9481,0.1461026829595991,-1.0776212257248974,0.8333962591131782,-0.025045821514373637,-0.0267151349050087,0.0927099950053786,-0.00016549619881121253,-0.13359953408072303,1.021814061903839
55.0247,69361.9681,0.1101524306926048,-0.6414464496866749,0.3870078080830718,0.1187961246877631,0.08689409680348859,0.22010344218138755,0.09076938237624702,0.05980550036957194,1.0553601571731683
55.044,69361.9881,0.0931597215725774,-0.2749312017567872,0.027013857183990263,0.14005911329516077,0.1437896580923181,0.11086762057917354,0.3500461563833174,-0.08744714971127458,0.9868604381616672
55.0686,69362.0079,0.0825312650406357,-0.016790623996954787,-0.19239172598490423,-0.015851654342705017,0.09382738282185103,-0.04922009345400736,0.11747727390887007,0.14447039522306032,0.8167840810269438
55.0963,69362.0281,0.0662481352374765,0.12166622983711753,-0.2614751408523007,-0.172264661256727,-0.08681825623073368,-0.03036323901331643,-0.033741824811010665,-0.16414838252250907,0.6450656073405773
55.1069,69362.048,0.0846166399906846,0.1238898591893571,-0.20960520911619202,-0.1722000261592615,-0.16171022155585782,0.05275241205219937,-0.18416973025185748,-0.06709758130625701,0.7079352124607219
55.1256,69362.0681,0.1008492177823884,0.046503735824358516,-0.09327458061342793,-0.04031191237983327,-0.11264874816964586,0.05589538403403589,-0.6274507383119742,0.14665702154905555,0.4625560820291058
55.1415,69362.0881,0.1205697508206354,-0.0645077064791869,0.029062619983042874,0.059546111825220384,0.011025438942678528,-0.04066392335768424,-0.8400798828617436,-0.018294191956007254,0.3802156663680195
55.179,69362.1081,0.14069408799142,-0.15615156633207308,0.11455022015814237,0.03793876341645908,-0.011276430541211734,-0.038095653070910514,-0.8896531825010088,0.34155211434313487,0.0496810633296418
55.183,69362.1281,0.12206970834867839,-0.2129750787656559,0.14336775731601087,0.024406435733756664,0.056080030933138084,-0.02814868845136983,-1.0824513180955129,0.07978228894922304,-0.06479791912793648
55.2006,69362.1481,0.0803454677883889,-0.21686676527701398,0.11550096884300007,-0.03073904772340657,-0.0345958021275668,0.013692558578599483,-0.8379369604610302,-0.23600666047702634,-0.19475971478674475
55.2203,69362.168,0.024690027905805906,-0.1791317996718973,0.04313515877610336,-0.06881485963261597,-0.14413428542806075,0.0590425004052647,-0.49854495735387583,-0.36486417915144725,-0.15722562217770367
55.2414,69362.188,-0.02811548369927669,-0.11025059858657829,-0.05479868270141303,-0.000780659978133165,-0.12238561888939549,0.08682566583262227,-0.06518367652028186,-0.6480092526393536,0.5151038116817674
55.2706,69362.2081,-0.0690535026998079,-0.022536644321078686,-0.15616406560858323,0.08040666382569263,0.02148406366659865,0.0741481741718,0.05921880169756091,-0.12400522319672108,0.8055238532442328
55.2826,69362.2281,-0.10715573241951981,0.0814203224548512,-0.23925495007835212,0.055081510689767674,0.02904769032842611,0.011783128911153849,-0.11295713166264698,-0.076924081517659,0.893494382796674
55.3026,69362.2481,-0.1386503859660193,0.1714758401570247,-0.28546252399390093,-0.015367641864832235,0.014091480515245903,-0.006028440148388357,-0.08929208477918578,0.1198338494455714,0.8754311007285712
55.3235,69362.2681,-0.1599664729444943,0.22323150170637132,-0.28379301122960976,-0.09987851128035645,-0.04799682540087008,0.020549216239995702,-0.24456267936609696,0.11773882194901579,0.44988832577355714
55.3423,69362.2881,-0.1612616125187074,0.21616388224341862,-0.23355338305594422,-0.11853525217104431,-0.12030608714525111,0.018150240350094028,-0.39972454498359195,-0.1844063520980883,0.14422005908866725
55.362,69362.3081,-0.14785298390001,0.1516088053048931,-0.14612171824081463,-0.07365887675578434,-0.07033411373763394,0.010487381657866088,-0.21481194318431282,0.09031068069276081,-0.009200544450792844
55.3816,69362.3281,-0.1300449347124336,0.048833264043087715,-0.04190603003574673,-0.09759769277784779,-0.1012526339343547,0.005594734490251166,0.24729142261320253,-0.025831819912124368,-0.2702970761624445
55.4044,69362.3481,-0.1211632918269126,-0.05901229846730209,0.054829818843922774,-0.17346699924025413,-0.1352082986262621,-0.051819915837380506,0.4619463150964853,-0.01414248153156853,-0.06104450986703195
55.4215,69362.3681,-0.10560061006642091,-0.1584048052712582,0.12352227281681627,-0.1872203147105025,-0.2031416401981734,-0.08944854744218184,0.5470214078098332,0.03894788519115103,-0.16848584996041666
55.4429,69362.3881,-0.08702486011483501,-0.2158620997490873,0.15232081934907937,0.00044182999778140673,-0.038472456938631945,-0.06484608357933555,0.285827614838664,0.039412263845960124,-0.1070237733131108
55.4615,69362.4081,-0.0664373272108752,-0.228521623682363,0.14370118896088488,0.1309739322928703,0.18618765105458138,-0.07835933436891918,-0.2752048922985477,0.2751470839480351,-0.26724743113795935
55.4816,69362.4281,-0.05185130347628031,-0.1961282679117099,0.11283408228306738,-0.007320498091465356,0.12605034093011547,-0.14560275602238618,-0.5007881632262198,0.3884979890741614,-0.5238867893522848
55.5011,69362.4481,-0.0445049759609,-0.1400259926768021,0.08068702021151938,-0.08364954296705124,0.004301710764976224,-0.05401026472919697,-0.5591553644069434,0.42007251720492444,-0.6550215254051269
55.5229,69362.4681,-0.03127338154191869,-0.08535215906171699,0.06578953760891307,-0.025101053122479185,0.030511803810798592,0.0240595140552301,-0.45222351480482,0.22308239691428952,-0.667689281660677
55.5414,69362.4881,0.004123067696903404,-0.050754008606623685,0.07829155071865707,0.0021663324222396503,0.025635294098363612,0.008790527887832284,-0.4176300894769707,0.2948000843708435,-0.6383657718098649
55.5627,69362.5081,0.0596980395561673,-0.038484167300135486,0.11759701927349708,0.02376569539293538,0.1048830447972238,-0.09801324090536832,-0.37221701467414847,0.5415276748712639,-0.6815299783102641
55.5821,69362.5281,0.11925783965581249,-0.0480988633282511,0.17368307305380049,-0.0240923848680521,0.07988026284862747,-0.11039522978292061,-0.35734586933214824,0.41001382766611794,-0.5001933933928275
55.6057,69362.5481,0.1639960540906743,-0.07198987873391569,0.22989560199617165,-0.060764555106764144,0.025166263777688644,-0.03206294693830904,-0.24274594387362805,0.8001767930796445,-0.48471058019159774
55.6317,69362.5681,0.1859799340084652,-0.10894646754443599,0.2670220710587158,-0.09314696529037426,-0.02437486600831876,0.031073893101610562,-0.25356559334860235,0.6251668900357752,-0.4122228638403849
55.6447,69362.5891,0.1991659168859548,-0.1348465256718138,0.26887107153413636,-0.010993732402614542,-0.018172132900518292,0.1189758056410025,-0.4403952141119816,0.20366158581888563,-0.2658399026651186
55.6633,69362.6091,0.1910472015611874,-0.1406730250963218,0.2287560820044648,0.09814851445822216,0.02615721876280272,0.12803329046173514,0.11567742941197133,-0.0667684695994892,0.10785890687365798
55.6842,69362.6291,0.162519626042181,-0.1134593714698034,0.15214243478499387,0.11376061827217712,0.09472633467619418,0.026909837408755476,0.10204083872444901,-0.4941860764806743,-0.18115360621596988
55.709,69362.6491,0.11409817302753039,-0.05971628856855239,0.05408127693566076,0.06366208332694737,0.07208841760351996,-0.049874320507785605,0.2474001515826182,-0.32588196646267453,-0.15042256789231545
55.7342,69362.6691,0.05029415483252139,-0.0022224041301409925,-0.04652142434234943,0.042955496596747855,0.041328438207534395,-0.03269539639877143,0.6550790830970189,-0.4169235426352647,-0.40870404265828736
55.7477,69362.6901,-0.016621234894966308,0.0372807681065678,-0.13228629116051613,0.04866569991533728,0.00033071512525392586,0.039578571114635634,0.19703565866431838,-0.3717052391253552,-0.7155452497372077
55.7739,69362.7101,-0.06410624935375211,0.04704816942293771,-0.19056966756402302,0.09081202617804353,-0.0019262974183218114,0.08037457186146936,0.13855128301639463,-0.27568011759808003,-0.14479245400095905
55.785,69362.7301,-0.0906535629491631,0.048379778413438906,-0.21604057491930043,0.03330550685096483,-0.042491782039022576,0.07244271883887665,0.13651708958509762,-0.35801779562760994,0.5500574354239375
55.8087,69362.7511,-0.09547028240711042,0.03808368025116171,-0.20961370763139742,-0.008448326097699552,0.011030718501956261,0.050811547582193646,-0.06844397910827633,0.06418407657148587,0.49586758921963275
55.8305,69362.7711,-0.07898815200609582,0.036751305719636695,-0.17884357951238644,-0.017925184903555085,0.0640782352787948,0.019723583496636155,0.1906153369599627,0.5170317195917397,0.18761885366787348
55.8457,69362.7911,-0.043261678517983904,0.046386250259421696,-0.13545250521109622,-0.01696618015905772,0.007127358090599897,-0.0008397819233327399,0.2965385353442213,0.5144723134403767,-0.2993859979344513
55.868,69362.8111,0.0017552221996580963,0.06703228242464951,-0.09241209956668803,0.015517039673922086,0.011789967909010065,-0.03933099389390562,-0.05163892380661032,0.5506576071004582,-0.9592822636171762
55.8972,69362.8311,0.045368638568196895,0.0875827753622882,-0.05935622656775343,0.031998861567623514,0.08002705867355295,-0.05567177389535726,-0.18021007235867836,0.3976279213033542,-0.801639074659197
55.9081,69362.8521,0.06830339247620129,0.100778057359667,-0.04013534523880883,0.036141451654182956,0.04618694169397597,0.03969977495535234,-0.04556168000606859,0.09087198172693316,-0.5785458117142038
55.9394,69362.8721,0.06636554093429249,0.09749063061603741,-0.03259434904234963,0.017434236740188024,-0.0306124893586212,0.063360797759935,-0.22776606956221215,0.36861279932394847,-0.18349948700403226
55.9496,69362.8921,0.0546960787903609,0.08616619393069441,-0.03170847108299443,-0.03732494854548357,-0.1225723047656606,0.03289558682758254,0.13235686474865602,0.24855610117195548,0.17635862588515913
55.9709,69362.9121,0.0350427446897314,0.0710756165844971,-0.03228501769577133,-0.014955474905200012,-0.05745848441872241,-0.02400242235449095,0.18373845438260508,0.3355482128494023,0.39405636301760627
55.9859,69362.9321,0.016277121692264196,0.04777023016918722,-0.030399387563553232,0.049380274201082444,0.06130942439863869,-0.08664682291898256,-0.14664218924426337,0.19257721659110216,0.3968714199632845
56.0067,69362.9521,0.00045148811769579744,0.02625443889740861,-0.02432586326671913,0.022939085727427623,0.037558938048126045,-0.073605367853892,0.1088005468346105,-0.24825197634182505,0.31429641622339094
56.0256,69362.9721,-0.013797507552134908,0.005728722445098422,-0.01346257831824483,-0.024552979827266435,-0.047362264476217636,0.03888680996824838,0.24942589951613153,-0.47914384158718154,-0.023510417257989205
56.0481,69362.9921,-0.02369296399428139,-0.007764289393565188,0.0019309935178779686,-0.03069259677413875,-0.025950803211927387,0.0937373343984986,-0.008833777775287113,-0.2907223524915715,-0.30243564295893655
56.0686,69363.0121,-0.0228075571583283,-0.006648587523336885,0.020764163169957862,0.00528588376595076,0.041243733780358914,0.046940218713676006,0.2967559932830539,-0.08562797966072075,-0.059636981394194606
56.087,69363.0321,-0.014289534335642007,0.007549577216822506,0.04041522303744977,-0.0006950587648007564,0.039283133999283106,-0.05120932216626033,-0.09311767720960161,0.06185685974752868,0.03959377594096414
56.1081,69363.0521,-0.006711775565968303,0.028643427564242513,0.05650642232477356,-0.03228480297027262,0.013733274645772292,-0.05644149647993455,-0.3287294043332095,0.4058674407916086,0.09003021288436104
56.1275,69363.0721,-0.0037510157284076917,0.046678587388958304,0.06394569399477368,0.00943818307571391,0.010211466426287119,0.0004492013736827838,-0.09920336650792777,0.2860429319670155,0.48061936409721157
56.1467,69363.0921,-0.002627923713816399,0.05897635857189501,0.05876338451480347,-0.003017132094867481,-0.05808595287003957,-0.009051537621954774,0.06902979995466718,0.24543539398642164,0.25869904154624557
56.1696,69363.1121,0.0022607084108660913,0.0666404885251067,0.04044287324616797,0.031726566261089856,-0.05495002926696816,0.009772787271808287,-0.0040998175986422,0.10847362277178614,0.06610222884609819
56.1905,69363.1321,0.00754527875095079,0.0714264752627273,0.012963240190455673,0.08388105907979766,0.07553246757957607,-0.0021461638361930965,-0.062358289809950174,-0.160001995648001,0.05484200106338533
56.2151,69363.1541,0.0049455798098554105,0.07307065090671122,-0.01628266808940413,0.012869661017540737,0.019196086513461816,0.025682785364544904,-0.19182936061047062,-0.4186511138563817,-0.14197739705528095
56.2306,69363.1741,-0.008563279149444991,0.0693569270714153,-0.03963161968074883,-0.01712150848958018,-0.049761003412133284,0.03471786702375154,-0.4550489015151524,-0.26492486007706434,-0.20742747104229817
56.2469,69363.1941,-0.03101215337032001,0.055360032629640815,-0.052485855719831234,-0.0390430123654175,-0.06567457705560485,0.013254699929507128,-0.4285669134191432,0.18424077472348177,0.13600947633043986
56.267,69363.2141,-0.05369207492316311,0.03187482572605882,-0.054595860888532334,-0.014013125585354329,-0.07405642138951331,-0.02701820849960122,-0.20196654577582515,0.11205870861212316,0.04522388983232055
56.287,69363.2341,-0.0704948820884814,0.002693850235423817,-0.04881379832844373,0.1190161963702101,0.051633417191325505,-0.06015627690386201,0.04243908288924629,0.09631990573642549,-0.2046124140966185
56.3099,69363.2541,-0.08339093046376939,-0.021626116332798095,-0.03915624709900403,0.1514486113435593,0.18812661373378947,-0.10349095074152673,-0.13357088839916265,-0.15017549543659456,-0.1307171692725681
56.3307,69363.2741,-0.10417909421844962,-0.035806494892685795,-0.029653147798760833,0.030172343903529998,0.029388254320354686,-0.08214597694098763,0.20097842556193057,-0.37817884282382463,-0.5815954567386861
56.3612,69363.2951,-0.1262473990336077,-0.03400097547025689,-0.02371583354566323,-0.05140100603816017,-0.05366623514619337,-0.02027829750542439,0.1474539135272688,-0.24745848598025114,-0.22431781271636572
56.3736,69363.3151,-0.12826388571630748,-0.023921862356690596,-0.02353922466811073,-0.019057166555273283,-0.01626369559735241,0.05007795156175254,0.3166957312077318,-0.48249673810011845,0.028098960079442688
56.3918,69363.3349,-0.1106996252331624,-0.0028654486572367854,-0.03002724948782233,0.04113709512166181,0.03405416647406115,0.0622318035326655,0.3819398149658163,-0.33258775948854563,-0.04720381321744831
56.4152,69363.3551,-0.07891985902500981,0.024747481138504807,-0.04093030405302703,0.030064843967091682,0.03762559265310858,0.011558901805827958,0.19973542540966877,-0.05484694189153013,0.3478425114927203
56.4306,69363.3761,-0.04665339870537871,0.0581661109629997,-0.05163354519836133,-0.00971287154996919,0.01331402179244269,0.019218867245083943,0.02857658876510884,0.03340303880229525,0.0883880963327179
56.4491,69363.3961,-0.023222928073030003,0.08740933460422101,-0.05699683906982613,-0.024253199579990933,-0.03172923209026281,0.061519320439317,-0.11993429771164033,0.2772421114445905,0.15829534381705976
56.4703,69363.4161,-0.008094640691586996,0.1104442187284437,-0.05419732291844373,-0.029152000933895902,-0.04571577629341869,0.02651494747609788,0.0374792192759843,0.06162467042012709,0.008862737617309734
56.4912,69363.4371,0.003774058483873799,0.1263841352511941,-0.04377223622970793,-0.005898671364731706,0.025143765672527123,-0.051739491224363054,-0.06630105670756159,-0.15352839194953022,-0.07910779193513301
56.5101,69363.4569,0.010360972347479597,0.1324147613944666,-0.02876738452393773,0.03394030295799781,0.12481173872195789,-0.10500470851605198,-0.3105979564032161,-0.4378397356243798,0.29060302026393364
56.5365,69363.4771,0.007851698544457192,0.1298442567741183,-0.012959533574814434,-0.013684670224467997,0.014594678939733085,-0.0429854069855535,-0.4035585829117877,-0.4779828949501677,0.13014477436027802
56.5533,69363.4981,-0.005541237812706795,0.11383892372714269,0.0008591319567626682,-0.01797097571013659,-0.018925300857824935,0.0428042353942515,-0.22856570833903125,-0.2726563327919124,0.40367447424867287
56.5748,69363.5181,-0.02642477192724499,0.0922492676872905,0.010838704885256172,-0.005781517016826436,0.016240853968967364,0.029909788858546355,0.012797075676873838,-0.17630209955786952,0.3743509643978575
56.5949,69363.5391,-0.04490154953966291,0.07188082826159681,0.01627554085734017,-0.036651234005770465,0.009350292407833794,-0.010553839678631686,0.10080628406996787,0.0647453776056582,-0.07347767804377829
56.6265,69363.5591,-0.05884112554225779,0.060710433158182114,0.016979904636361974,-0.037008853208793435,-0.010125374597668543,-0.026257243869966026,0.307575642758025,0.08938192338315008,-0.1321246977454073
56.6351,69363.5791,-0.057411505598850415,0.0451308367897143,0.014122549956486562,0.00547316441034013,0.045080893138334514,-0.022658232662929625,0.3778883190987872,-0.0260640092395289,-0.30102811448609745
56.6607,69363.6001,-0.04844159922665431,0.0387844070192592,0.008917146255456566,-0.021340007420730223,0.014740674974216097,-0.023057579769084575,-0.1602787799317857,-0.2348403902900829,0.10785890687365662
56.6776,69363.6211,-0.028497746292362902,0.03570009707158381,0.00416043137601687,-0.013333149049856791,-0.02021425539510915,0.026735303878123468,-0.08005482186228209,-0.5164954054342077,0.33376722676433096
56.6989,69363.6411,-0.0021161764995822063,0.039302369445506496,0.0023315388497385653,0.006199905754210508,0.014660887432325327,0.028396773946270604,-0.22754861162338275,-0.2314874937771475,0.056249529536224585
56.7162,69363.6611,0.03037324306204431,0.04912762390493561,0.004656898612078367,-0.0513627403560843,-0.013371340439219738,-0.0013644772595966315,-0.19791504990879677,-0.19446504163689485,0.2990481911009665
56.7353,69363.6811,0.06151649347176409,0.06208029091950401,0.009780488506205866,-0.024557246594690448,0.03332448786910292,-0.029724338380686905,0.020582326000468276,0.34640039274978274,-0.2993859979344496
56.7582,69363.7021,0.08507078361729829,0.0741515026821446,0.013985576624965072,0.001455023581369585,0.026585423606868337,-0.026434944339661967,-0.03586785621615847,0.5247631923065877,-0.42348309162309755
56.7778,69363.7221,0.0969020132579848,0.0804339264945185,0.012602405745229271,-0.010320650085717895,-0.010548856210466312,-0.014207705398095691,0.21844905417764993,0.3428153069094428,-0.2785076589206705
56.7961,69363.7421,0.0942252366649466,0.08533934700278961,0.001950757934789972,0.03985161837781119,0.009351261351612943,-0.01581123221077763,0.05123298443070402,0.4245916839048033,-0.4040122810821575
56.8159,69363.7621,0.0801636631531379,0.0958935348054277,-0.018432075613847833,0.054373876171495056,-0.03805051271702574,0.010473853745321553,0.6608301399893155,0.023441271642856448,-0.38759111556570114
56.8364,69363.7821,0.06096378088758479,0.11582457034930069,-0.044599843219218234,0.04367662158483468,-0.022439494437833236,-0.010073872469393574,1.0219701710158349,-0.05544658749437476,-0.37515794738895347
56.8629,69363.8031,0.0443903260940208,0.14232533047541,-0.06864548096748574,0.011914822793340007,0.013773964487554392,-0.022439244691363745,0.9300181957251273,-0.2900204609594359,-0.06127909794583773
56.8785,69363.8241,0.028556166717700893,0.16184662903245992,-0.08098120741667303,0.02921354939511113,0.03859493971863409,-0.01354280458673177,0.6559790053454692,-0.3113041102239921,-0.054241455581643803
56.9012,69363.8441,0.012533952927899106,0.1644910262400103,-0.07411623727366683,0.01974663652466983,0.0024464469476738293,0.008527515553477045,0.6253283469152348,-0.38949540137900973,0.050384827566062586
56.9258,69363.8641,-0.009583183171731013,0.14297733648738323,-0.04616910766030233,-0.011821703511809542,-0.06042259450101887,0.010794613845076337,0.34926340860206395,-0.2575171755190577,-0.06948968070406653
56.9389,69363.8841,-0.03264482372409949,0.09526802112862362,-0.002321194399223535,-0.024647992301052794,-0.07686499579218685,0.013656353818437007,0.5054423709352075,0.08579683754281138,-0.11124635873162496
56.9637,69363.9041,-0.05647761043096361,0.041132246457095706,0.04582085802417216,0.012350765944393445,-0.0811443368795263,-0.027034864253196494,0.8241034428386492,-0.051861501654034546,-0.39603628640273564
56.9827,69363.9241,-0.07662012656812489,-0.012474292458368189,0.08514454063299987,0.05996576466503282,-0.02279940094464876,-0.04340840838965479,0.5827406588227442,-0.14821573488807746,-0.3667127765519203
56.9976,69363.9441,-0.09423142289653968,-0.0479564148620332,0.10501388787903798,0.09029274581786502,0.07808884481676052,-0.057212548396958454,0.670741421718057,-0.14276781087858936,0.007220621065663382
57.024,69363.9641,-0.10233031387239883,-0.05518688207803549,0.10154318405359547,0.027675392678079194,0.01974029648036865,0.02061482270603523,0.7104034396285793,-0.3364050346562886,-0.057056512527321926
57.0375,69363.9841,-0.09760910344836932,-0.024626381262392097,0.07798382662031908,-0.011839889344620536,-0.02637515534536897,0.09753816954933489,0.3707855330848125,0.15695322396519304,0.4874224183825982
57.0601,69364.0051,-0.0761852063124499,0.028020936732708,0.04304163929446377,-0.013436404306480836,-0.010227495427614442,0.10492323685824274,-0.18438718819068886,0.5330027117948434,0.46818619592046373
57.0824,69364.0251,-0.0372516769782443,0.0950363300591392,0.006968391263340971,0.014253166392491133,0.05726796118967004,0.03842044886758102,-0.16060496684003078,0.6653100493615631,-0.25176461793672933
57.0994,69364.0451,0.006488100334557989,0.1582212308312622,-0.021819131281895734,-6.236419971860734e-05,0.008799779178318496,0.03759684922090448,-0.7810217718736165,0.8914505585796407,-0.19569806710197277
57.1194,69364.0651,0.036481440541303506,0.19697509820381123,-0.03842974220652583,-0.017075507446920185,-0.014501659065429051,0.05967702206042317,-0.35136890900323775,0.4858779019971813,-1.0610934898192041
57.142,69364.0861,0.04706012580663199,0.2043219134585975,-0.04197131940627713,-0.07069197014942531,-0.10508195428453229,0.07822140518014381,0.33936057237111017,0.14429146015642477,-1.2860634573946508
57.1606,69364.1061,0.044127877309904084,0.18592511467508568,-0.03438461222777663,0.013326259385520343,-0.01949449980280464,0.04103579316216858,0.12965709800330566,-0.0683021960618695,-0.8870291353447688
57.1821,69364.1261,0.02836932237970549,0.1508533664753596,-0.018293935098634334,0.08082153320165211,0.08448634373889322,-0.06291350788811438,-0.044435854321002374,-0.16800932580884784,-0.8060962481565214
57.1997,69364.1461,-0.0059767662081254,0.1012279072457333,0.004092659750858867,0.035024082847341466,0.04017133161782096,-0.11049782296938535,-0.5204017142426539,-0.11478369213808999,-0.25199920601553477
57.2217,69364.1661,-0.0556253074885012,0.04352267291655082,0.029983578832180564,-0.0040700439019621575,-0.0336883168210778,-0.012499904184384273,-0.8261086597681918,-0.2554274715724302,0.20708966420881367
57.2408,69364.1861,-0.10707847459819353,-0.015288174762884493,0.055332960330411164,-0.030684900346918963,-0.09901430975379168,0.10744236094250652,-0.9072409855839283,-0.31499144199362056,0.4484807973007167
57.259,69364.2061,-0.14085847715883748,-0.05637199055709799,0.07516596605427897,-0.0064920119070416464,-0.03843296950839028,0.11321013893810915,-0.5192843340553741,-0.6092645528279134,0.3422123976013656
57.2838,69364.2261,-0.146833253302658,-0.06557040179291869,0.08485993765658736,0.04964469083223854,0.0656625167282348,0.009878430103297493,-0.24524514367571595,-0.5879809035633571,0.3351747552371717
57.3066,69364.2471,-0.13286609526843562,-0.03886455270497789,0.08102768956787948,0.06049500503905813,0.11087047526215857,-0.09222939362636746,-0.17504119630436948,-0.4033766896354859,0.046396830226352485
57.3218,69364.2671,-0.11425914557302119,0.006939845654751808,0.06290820558503946,-0.0068966944281967524,0.011081991826797642,-0.023659532779302092,-0.012776544672900583,-0.28424874879310497,-0.4363854359574566
57.345,69364.2871,-0.09653940586273319,0.0554867286669688,0.033272109013955865,-0.03878699605513407,-0.014838300095261436,0.09861567169330633,-0.02178790415318968,-0.012420233860382402,-0.47673458551217573
57.3652,69364.3071,-0.07323257666135322,0.103576577373095,-0.0023022064961355296,0.008997450866630589,0.04736236447099365,0.11635858464178452,-0.20489221595778884,0.1597011513253576,-0.4361508478786492
57.3829,69364.3271,-0.04380865188314209,0.15202486544005842,-0.03725460851129853,0.0388174021121097,0.0939174300603632,0.017305097698180394,0.11477750716351971,-0.1723879020107647,-0.24660368020298412
57.4054,69364.3471,-0.014750097629868703,0.1950209678113529,-0.06564183183916703,0.03685701738455161,0.08121441784419386,-0.050556932719099425,0.03556220031188341,-0.08516360100591462,0.001825095253112712
57.4222,69364.3671,0.003682339171919291,0.22295461280360582,-0.08381903635576762,-0.008673679458093804,0.03450154957765533,-0.03259858971825059,-0.04940416343204555,-0.43830411427918586,0.22914094361662632
57.4494,69364.3871,0.0074357375136688,0.22871665337958422,-0.09124176496968003,-0.02882499083380449,-0.009604095606822925,0.07530997163208929,-0.12951939253213351,-0.4566992456856113,0.12310713199608105
57.4624,69364.4071,0.009282430261742997,0.2245207912652822,-0.09019336185032623,0.008023156220764745,0.006655164156802465,0.09581296971977864,-0.5650235957664382,0.04415829632331094,0.025753079291378767
57.4809,69364.4281,0.007149719244352398,0.21463513445431312,-0.08348834114316203,0.03671510953762023,0.04066844430808032,0.008773363860066271,-0.5125161804474269,-0.12773089953502303,0.015900379981505345
57.5024,69364.448,0.0005736695108269074,0.2072310293491935,-0.07331864991916903,0.03407781846500535,0.053937625966570805,-0.06930740146605158,-0.6747723865811122,-0.011259287223367125,-0.3230793938939084
57.5236,69364.4681,-0.01743029115458619,0.19819880934176,-0.060825623165177034,0.01510339333773284,-0.0043165400307647135,-0.04694157854257282,-0.4986536863232915,-0.06481403260089706,-0.27710013044783277
57.5496,69364.4881,-0.0474997074582344,0.1834324781595517,-0.04708917393101103,0.0127521668200296,-0.027490931248892958,0.010014452090992134,-0.1977978754415986,-0.2589156350334024,-0.4028393406881254
57.565,69364.5081,-0.08068821776510321,0.1610142104345397,-0.03350696194325263,0.008417037100458595,-0.012533608490297716,0.027285999393121756,0.07038152907634597,-0.3779466534964201,-0.5508644184150332
57.583,69364.5281,-0.10864564702151641,0.13971764492223512,-0.02171469201803993,0.01918674023663538,0.00882411463224144,-0.02016014330973219,0.7006008868692568,-0.4702460986853945,-0.3319937408885575
57.6027,69364.5481,-0.1273299859891467,0.1231053652250392,-0.012214966153139432,0.07511977099658312,0.06680603579036899,-0.04171433057855355,0.6056145124271707,-0.3571273828866698,-0.6193641374265375
57.6218,69364.5681,-0.1400694519741244,0.10992313397299941,-0.004050387795963131,0.06579455405238138,0.06945818326032409,-0.037199683001922175,0.32864120636776706,-0.5663681425920329,-0.27193919271408923
57.642,69364.5881,-0.1461802823260716,0.0989548385190025,0.00490004229722147,-0.011434031557517203,-0.032271434583386466,0.027731638546827867,0.11477750716351971,-0.1723879020107647,-0.24660368020298412
57.6686,69364.6081,-0.1398875598452332,0.0925226962428568,0.01671212358430247,-0.007448729358894349,-0.06128025930430304,0.06398175240453585,0.08018408183567101,-0.244105589467317,-0.27592719005380095
57.6893,69364.6281,-0.108964773608905,0.09771557196947242,0.03236668286188806,0.021598186162064645,-0.0008042246523315396,0.03430475741697326,0.19680975522770455,-0.007204499178297363,-0.13353222621824484
57.7027,69364.6481,-0.0568933587382508,0.11359885426969249,0.05085587987850867,0.02627293626290187,0.07547724836150646,-0.04779477538519212,0.6776183042954159,0.038715695863750926,-0.19921688828407086
57.7228,69364.6681,0.004175685174691607,0.135477743204537,0.06948693858321828,-0.005948076380975197,0.06797443953777736,-0.04391668256040223,0.7540082244367184,-0.536515862132456,0.012616146878212657
57.7452,69364.688,0.054118997566917695,0.1531908510287401,0.08434908371482538,0.0016698806731172448,0.006405424861967476,0.06643354971018212,0.4503354723424775,-0.5948219635372664,-0.22314487232233546
57.7614,69364.7081,0.0848552838251878,0.1680082552851835,0.09044031990894877,-0.006075768995829455,-0.024054986713130375,0.11006744064236454,0.44233276408005123,-0.5174241627438199,0.21084307346971817
57.783,69364.7281,0.08897002259400019,0.1782609565686105,0.08265828143440906,-0.014032736947764728,-0.036722333390470575,0.06918323477789955,0.36019178704645394,-0.38255741902573853,-0.022102888785150317
57.8033,69364.7481,0.072858412909278,0.1890027221353017,0.057644522244507466,0.01310280527676255,0.005294076014596583,-0.028084489513803112,0.32650672946483883,-0.11305612091697444,-0.5187258516185413
57.823,69364.7681,0.03558863965093989,0.1956670946245517,0.016570347435383874,0.12481369425150642,0.0606601746340035,-0.04156141824918484,0.7536820375284746,0.36363457751919315,-0.34700737793217473
57.8465,69364.7881,-0.020156988390124114,0.1930014152616268,-0.033895235560910036,0.13165485623590828,0.0592449404429216,-0.03990956629226877,0.6904721472016879,0.2960632769371515,-0.9665544940601771
57.8642,69364.8081,-0.09499626984991799,0.1829159920995165,-0.08343116122150043,0.02534707630684887,-0.06540591105531392,0.05788981278203573,0.38668222064024566,0.30220776892885015,-0.5004279814716333
57.8841,69364.8281,-0.16500870886553448,0.1712276368474491,-0.12056471837369404,0.028046822158365632,-0.028841871426487604,0.096518141484671,0.2570939753725283,0.10800924411698003,0.004640152198790874
57.9043,69364.8481,-0.2080036864403036,0.1659544537952918,-0.13634412593288953,-0.016559431106407427,-0.05918023737764829,0.03834913409162384,-0.4205726506545014,-0.1287565792240028,0.5237835705976058
57.9254,69364.8681,-0.2114746916863341,0.16779890141867068,-0.12682835841690243,0.017707140685519544,0.0524572489079716,-0.06014454749992166,-0.3422657115491011,-0.5571998657941665,0.7426542481240865
57.9442,69364.8881,-0.1806869970846522,0.16937337630346302,-0.09424578551912732,0.013634616539598526,0.05152216306147827,-0.06553459959063268,-0.2849071615862423,-0.39434367978565765,0.3994518888301539
57.9617,69364.9081,-0.13122937130539192,0.1654105077801523,-0.04606173132987783,-0.012639893188662182,0.022700061944770922,-0.004048790449353317,-0.03768459170862415,-0.15767477882404252,0.5111158143420572
57.9863,69364.9281,-0.081112393901695,0.15594721522383073,0.007127789479082262,-0.00274552370476817,0.0068972277431473905,0.041691388646406514,0.11162593354494219,0.2397552806495275,-0.14596539439499118
58.0031,69364.9481,-0.0328887883079208,0.145949480301686,0.05418321208073757,-0.04888145009579164,-0.06367913379202712,0.052494091479420246,0.14621935887279217,0.31147296810608277,-0.11664188454417575
58.0248,69364.9691,0.003011909333589191,0.13963099797583808,0.08523916309720347,-0.02453184516266234,-0.0258133481361859,0.042386746810002165,0.37292845548552517,-0.0607592445558273,-0.08755296277216923
58.0431,69364.9891,0.024839270455052187,0.1429246247230869,0.09434940037374998,0.036343531135018356,0.05065309469203895,0.029786473725120388,0.283910595874567,-0.10737600758008181,-0.11406141567730477
58.0673,69365.0091,0.025813584268071704,0.1546901854495504,0.08082804387060577,0.03371073481969921,0.013761367130569756,0.03437892634788925,0.1910586983354079,-0.4475693134564185,-0.15464515331083115
58.09,69365.0291,0.00512860350221489,0.1728134566280902,0.04917287589176717,0.0013412923910445184,-0.039288846921731735,0.024830565972253974,0.4650978887150621,-0.42628566419186203,-0.1616827956750281
58.1032,69365.0491,-0.030543715805400995,0.19305655161764382,0.00783728198646167,0.02863276851995404,-0.028486639791530526,0.052459763423888216,0.007954386530811958,-0.27544792827068,-0.11406141567730481
58.1257,69365.0691,-0.06896950611692229,0.20501705329117811,-0.032427059760642335,0.06958740283472073,0.025082774554676213,0.02812312695234279,0.1910586983354079,-0.4475693134564185,-0.15464515331083115
58.1475,69365.0891,-0.10438481087925788,0.210695768362081,-0.061747818104702035,0.05002437061687387,-0.0008112580000237215,0.037024258818550905,0.19713594213594962,-0.9073549388299434,0.22609129859214108
58.1672,69365.1091,-0.13580327960360272,0.21245819193940532,-0.07354656366124893,0.07910869588912359,0.060249505775274895,0.015858197526114934,-0.2194456198893265,-0.8445349942751852,0.5638981320735211
58.1873,69365.129,-0.1606015807485805,0.20998588124079912,-0.06655428630598813,0.008151871269688178,-0.0013992432148992886,-0.012114397774878898,-0.16523864354504766,-0.26953562560638133,0.32133405858758485
58.2038,69365.1501,-0.17297201399469653,0.19896113357279602,-0.04508159845848733,-0.04661325059679657,-0.04953235511268434,-0.029796161430814826,-0.7707758577388488,0.06069058956058843,-0.2630248457194418
58.2281,69365.1701,-0.1698340906965623,0.1789486243936879,-0.017230712106198934,-0.0012965662167593703,-0.049351601787960116,0.037555170738903194,-0.8937046783680371,0.6480758645921528,-0.20414323793900413
58.2433,69365.1901,-0.15060616153383688,0.15831852658948684,0.008792687373822071,0.06500504341204827,0.07904735411599499,0.07027035503310206,-0.65515883556468,0.49202239398888004,-0.5949669772306602
58.2625,69365.21,-0.12445747042432381,0.1436132920134813,0.027636470760877267,0.032595903094832644,0.03630079383126253,0.05930398791710766,-1.0250927681326554,0.24263847495772894,-0.4080002784218676
58.2826,69365.23,-0.10035801540545092,0.1435808507009528,0.037091241631442666,-0.033800687906869305,-0.012126381870538723,-0.011397965782203794,-0.7144344044916398,0.1823779365543294,-0.2588022603009246
58.3268,69365.2501,-0.08859453292524128,0.1641069998928131,0.03638245543022706,-0.03802433210762399,-0.01782905458829411,-0.0162032288904633,-0.2898501342039366,0.042160191206125984,-1.0305970395743551
58.3296,69365.2701,-0.07019314654162481,0.1779695225685908,0.026779533331773374,-0.0026622328891403473,0.005228985858353521,-0.0068307313779066405,-0.6518900874789012,0.015428617932078748,-1.3974927948277451
58.3474,69365.29,-0.05726424745646569,0.19921381591751833,0.008529399448591372,0.050593915833644636,0.021158089680172517,0.021374927179381473,-0.3430315683347857,-0.2560707852938733,-1.9572199508600867
58.3639,69365.3101,-0.05560973292534349,0.22550592070841471,-0.015230451957540032,0.08352162191764478,0.10228285454660348,0.01283697675717897,-0.2777874845767012,-0.10616180668230044,-2.0325227241569777
58.3828,69365.3301,-0.0673568157306084,0.25344686156102514,-0.039232972158488436,-0.013002544956930085,0.026993914268928963,0.015873797633355585,-0.7676073931247024,0.11974651320837255,-2.0071872116458738
58.4028,69365.3501,-0.08688059211530319,0.2765749737981448,-0.05764561618002103,-0.0499447723089721,-0.033595403288534414,0.050149500925788536,-0.7251284340016275,0.17851699326799045,-1.7099641157980203
58.4242,69365.37,-0.10247753149623862,0.2889059481098063,-0.06606552025729093,0.0015733739025080812,-0.007840668998139502,0.06136715097219783,-1.0784916602023336,0.5445077915588342,-1.5743722062478553
58.4424,69365.3901,-0.10869419410851361,0.28996139033113344,-0.06303987177716174,0.05819683480316916,0.05839290722440043,-0.0074144647140035255,-1.0713973196861435,0.12589100520007415,-1.5410606990573317
58.4644,69365.41,-0.10973182794285191,0.2832845596124832,-0.05032484300679963,0.04286347615388459,0.027517645911785987,-0.06755952478887736,-0.9892563426525429,-0.00897573851800861,-1.3081147368024633
58.4826,69365.43,-0.11486374518252301,0.26763308196611635,-0.032060258339643835,-0.005032135217041255,-0.02228786953351977,-0.04174373228443061,-0.8605764651310585,-0.15599619927145364,-1.3458834174903098
58.5027,69365.4501,-0.12371373193407181,0.24688646255487892,-0.013779918032037035,-0.021837006662885034,-0.035039502099445265,0.020522199512919802,-0.6804062690062087,-0.5160746948980003,-1.0460798527755852
58.5226,69365.47,-0.13044528720779558,0.226195373459831,-0.0005100085669868318,-0.0020371178992714912,-0.02392820079645668,0.07000390207359102,-0.8387197082422804,-0.4060766862848109,-1.2511098336524789
58.5448,69365.4901,-0.13160573517029878,0.21429129121770799,0.004769999806941268,0.03953094554758093,0.05391963201038293,0.04928168142625695,-0.608067844731934,-0.7847825026451875,-1.0880711188819523
58.5627,69365.51,-0.1300277050838204,0.2179981059379034,0.0017101153394923699,0.026345026562062966,0.04939856878387613,-0.00910197405889818,-0.8533733956454524,-0.8746631321807639,-1.192697402029657
58.5835,69365.53,-0.12996480081539752,0.2319367418198419,-0.007941204115231533,-0.0071874812513171675,0.00023213919780576146,-0.03676213713693488,-0.42507226189675495,-0.6568537412803788,-1.248529364785606
58.6026,69365.5501,-0.13009598924999488,0.24540449402893869,-0.02161117146682963,-0.012812819481861058,-0.05596078670448649,-0.008933735308380767,-0.5854198945641245,-0.6291934106967206,-0.7587094562376065
58.6251,69365.5709,-0.12486601795181612,0.25376033806452414,-0.03673722866260353,0.023126155956241356,-0.041692986583266485,0.06375517941842188,-0.5163417728778403,-0.18570788923306852,-0.8199369448061052
58.6448,69365.5911,-0.11180498043004738,0.26039260575179923,-0.05088121680357763,0.05628479829911306,0.07809660509480562,0.04038473304745423,-0.2325000297388603,-0.030583175939407715,-0.5520373588090669
58.6639,69365.611,-0.09630374835565791,0.26846168588677366,-0.06182947912903403,0.004057410622883539,0.10540915027306665,-0.04104031993012928,-0.36298819725502923,-0.3304011331625534,-0.40143181221528484
58.6849,69365.6311,-0.0868682549795598,0.2754017040559167,-0.06832151218532923,-0.015551448805670299,0.04688293457847725,-0.028514450364242314,-0.2621335914534463,-0.06760562807966033,-0.7948360203738087
58.7057,69365.6511,-0.0856790007942661,0.27642460060249874,-0.07079678296861523,-0.039158772906537576,-0.04344394611638138,0.03403240065747891,-0.3343632867583093,-0.0989479668830231,-0.6329702459973157
58.7255,69365.671,-0.0866257337748304,0.27243978832817806,-0.07094949560587283,-0.032087320357970815,-0.09364871086938414,0.05848867704921564,-0.3996073705163938,-0.24885694549459592,-0.5576674727004246
58.7453,69365.6911,-0.08499190964490938,0.270911999655139,-0.06978956769251653,0.029829968028881104,-0.0398340119788374,0.00755354494828553,-0.6321762529908371,-0.016939400560261227,-0.7277438298351452
58.7672,69365.7111,-0.08234586568790908,0.27763297382100105,-0.06560228647734984,0.06423194011445979,0.08663900089548623,-0.07737605843660166,-0.3996073705163938,-0.24885694549459592,-0.5576674727004246
58.7855,69365.731,-0.08699324296388489,0.2875695185210987,-0.054071617308136935,0.0045582473650886855,0.08474889367213582,-0.06858885818066722,-0.4302580289466295,-0.32704823664961646,-0.4530411895527167
58.8047,69365.7511,-0.09831634774685949,0.2941717205144164,-0.031107875107167133,-0.058419839933785314,-0.024695953996055914,0.028396773946270618,-0.350251528815958,-0.008602958692642134,-0.4668818862023037
58.8245,69365.7711,-0.10791813640265852,0.29225841525376484,0.0037711000198972708,-0.05449940094061853,-0.06711749266962852,0.07876432019052836,-0.127819831506866,0.29018931884152654,-0.10960424217998183
58.85,69365.7911,-0.10729396731606528,0.2834269668091548,0.04569994910913396,0.014259508239079028,-0.03302879992060973,0.010526636063053027,-0.2583079990230349,-0.009628638381619096,0.04100130441380016
58.8689,69365.811,-0.09689745276945771,0.26865056491148487,0.08588257538191307,0.04035731783092271,0.0146254861728072,-0.053062880772936874,-0.37616822706954567,0.31240172541569355,0.006282268750438711
58.8878,69365.8311,-0.08832566116103552,0.25171527642314373,0.11440304468515497,0.05629459549170899,0.08113635380339283,-0.06453935966629604,-0.4781486585561928,0.30848752786858574,0.6272369133512817
58.9068,69365.8511,-0.08795717582350349,0.23755534044712603,0.12377151956809007,0.0008587645929621802,-0.03174233625623687,0.039435706974642486,-0.26124211470278036,-0.19758574882242597,0.3813886067620545
58.9261,69365.8711,-0.09037347595923229,0.2346868371773355,0.11092439258187217,-0.025359637554251233,-0.08529958181765138,0.07510627098365896,-0.6313935052095869,0.15313062524752336,0.32860628903058897
58.9514,69365.8911,-0.08557760230600941,0.2502917575811743,0.07789247832379559,0.018030972583621394,0.01574104195496772,0.013045838343343049,-0.445363523223028,-0.06663320265145091,0.7693972891080292
58.966,69365.9111,-0.07677086914236353,0.2813437983592011,0.031115461079072072,0.07209554056441111,0.0898601851707242,-0.058293921244230225,-0.3620967205043633,-0.460381253905319,0.7747928149205783
58.986,69365.9321,-0.06985912513646131,0.3166705152246586,-0.019917877087477234,0.06280954873797805,0.06957557795274287,-0.04395050234176351,-0.8075206509651927,-0.02891418252898611,1.1043890656437296
59.0096,69365.9529,-0.07592355044800181,0.3404468276258412,-0.06521669788172824,-0.014952248021349816,-0.05354760199015332,0.0714162005040325,-0.2415282802147171,-0.22995376731476713,1.0511375717546512
59.0277,69365.973,-0.08993722277271482,0.3515696817024403,-0.09722557375952803,-0.028752708345147097,-0.08976351037529853,0.12753248401149642,-0.36998225429958825,-0.44743404650838164,0.5068932289235399
59.0474,69365.9931,-0.10613241794286649,0.35163395058770686,-0.11231256122251783,0.029112992956211812,0.014984506696919551,0.05180968075950223,-0.7033972970778328,-0.24271245350289866,-0.09154096011188084
59.068,69366.0131,-0.12207681092413669,0.34635199505961356,-0.11120993755459394,0.05087270563914811,0.07870765645091014,-0.06969759963713308,-0.4855908309759733,-0.6431662977826363,0.017073320375535588
59.0908,69366.033,-0.1417287923449509,0.33591087852185453,-0.09781176219501773,0.010764614329993335,-0.025330680747022796,-0.08667833591756889,-0.8101116887411274,-0.6458226263133614,0.16087581268393086
59.1254,69366.0531,-0.1668244691852268,0.32031824418555843,-0.07753522736514223,-0.0035529913413802775,-0.06418885399341513,0.009003025589217848,-0.48469090872752413,-0.5375468653713581,0.37153590745218107
59.1396,69366.0731,-0.18800424242875718,0.29682643981113055,-0.05479882023947223,0.007816885913745193,-0.03444556462401179,0.06783490069694596,-0.5224359076739509,-0.19712137016761982,0.44285068340936173
59.1543,69366.093,-0.1970591621645964,0.28126696698352704,-0.03283463754807893,0.03853084283025999,0.0062863604188025035,0.0119855002271376,-0.5175847730301013,0.13762401169922725,0.10950102342530432
59.1761,69366.1131,-0.19091988015111938,0.2803684855018961,-0.012689100325670728,0.03166856591244955,0.041978746755896114,-0.04847062364023369,-0.6790497858847551,0.6597652029727074,0.005109328356405243
59.1881,69366.1341,-0.17826759944807358,0.2870405759937644,0.005054620970352468,0.005459167962010202,0.05600277943131426,-0.06809645780325234,-1.0006365279701606,0.8450659848827878,-0.19147548168345394
59.2075,69366.1541,-0.16536838384596642,0.3006208314850829,0.01844273340361067,-0.03534500721718384,-0.040124131154143663,0.0001544414526624075,-0.9888082272773222,0.8256451737873839,0.21037389731210454
59.2298,69366.1741,-0.1536943882491244,0.3148186509533947,0.024711802882651464,-0.03557191384992183,-0.06220624749163088,0.049436665950321805,-0.8274519433920854,0.603554129064451,0.19489108411087602
59.2478,69366.194,-0.1384122635105744,0.33098287783540836,0.02145869349723787,0.007682314956627725,-0.023090094398099857,0.028987818610823616,-0.760973304979523,0.19453165358969282,0.0119123826417936
59.2681,69366.214,-0.1226324403049378,0.3503803369052527,0.00878856712575047,0.0786551699999481,0.09326604573278255,-0.026850908101399062,-0.9369832762679279,-0.05196374758332741,0.08580762746584704
59.2876,69366.2351,-0.11268243752902979,0.36778886081072193,-0.009126265778456731,0.016221915261534534,0.054699486495757774,-0.04384462492219549,-0.7489191008500721,-0.18938989745277182,-0.16825126188160922
59.308,69366.2551,-0.1110848414928608,0.3755716937427187,-0.02527242137071313,0.021113701821438232,-0.005895518512473667,0.05733391723129057,-1.084259608090198,-0.3670561290273689,0.048038946777995604
59.3317,69366.275,-0.11445635858572178,0.3715057747233488,-0.033269667025926236,0.015103163967536378,-0.021548072174682725,0.06769727569071282,-0.859693433878177,-0.5215758731682574,0.6521032497047728
59.3502,69366.2951,-0.11269178861120549,0.36090690986707097,-0.03068733471625103,-0.03937066937921527,-0.054002080070792956,-0.006149174812947438,-0.6915689963849937,-0.2621332645983013,0.3103084188836808
59.3722,69366.3151,-0.1048184061352645,0.3508961588499987,-0.020673382066545433,0.01899684604000453,0.0501290658349979,-0.0534551511387145,-0.4977537640748412,0.0408053998103755,0.0773624566288108
59.3917,69366.335,-0.09552615012847321,0.34101850228064545,-0.010133433796185733,-0.003029519975520455,0.023263855333537448,-0.07051728948249618,-0.41966428290826907,0.21246240634131067,0.056484117615033205
59.4149,69366.3561,-0.09385333880855862,0.3341669815886903,-0.0067274372536493335,0.0020289701713640798,-0.02559928451868947,-0.005717376355890922,-0.4770143873733429,0.2852057734868416,-0.42207556315025846
59.435,69366.3761,-0.10591666834483071,0.33238041328698953,-0.01465461273358623,0.046837058136052,0.027097976635527744,0.06501116399235195,-0.34732585863399434,-0.056245401405876555,0.01449285150866611
59.4545,69366.3961,-0.12948805120518891,0.34091838373538563,-0.03285438881520743,0.015109407008699992,-0.033770951508322836,0.07258007015901788,-0.4777052971807476,-0.6561135051795723,0.28497290637257716
59.4695,69366.4161,-0.1579342335640166,0.3595931442784982,-0.05562108794101253,0.02000130806419595,-0.027841052426159342,0.03605967173651166,-0.37978480705891404,-0.5812751105374859,0.23195600056230456
59.4914,69366.4361,-0.1840724071389439,0.37830279936930344,-0.07518963037893422,0.028797616899053968,0.010932848240522524,-0.03538706001499737,-0.43128357116006,-0.6038166288184222,0.7161457952189477
59.5114,69366.4561,-0.20746522522612382,0.384124441851852,-0.08519119959794473,0.039471712169798605,0.03700988188720495,-0.035538408423840706,-0.4985534028516603,-0.6004637323054853,0.6645364178815159
59.5292,69366.4761,-0.2273423551738185,0.3701798118386922,-0.08291591897761683,0.005663222940010499,0.007249185109564124,0.005886366570220771,-0.5997341955614863,0.03689120226327196,0.6983171012296556
59.549,69366.4961,-0.2409900072970539,0.34195579700399137,-0.07034007366484593,-0.03650804130817501,-0.0475891111207986,0.031017200982565645,-0.9518628671077126,-0.15604945353221963,0.7262330826076302
59.5689,69366.5161,-0.2418576507867135,0.31283684902708697,-0.05304083016149033,-0.016380248113985037,-0.02458223125777414,0.019774019933579558,-1.0349037663897647,-0.12680214222541233,0.13882453327611982
59.5996,69366.5361,-0.22606938669040788,0.3010929908972848,-0.03825800164388713,0.004982919609216945,0.0009550577664387352,-0.029152608134622306,-0.963691167800551,-0.1366286424368158,0.3243837036120718
59.6161,69366.5561,-0.19770460336114198,0.3031016612122809,-0.031297064883186634,0.018638918399228828,0.02149354108311429,-0.06549819934040453,-0.9686510314138129,-0.17132387775311417,0.537858855326
59.635,69366.5761,-0.16387927915155098,0.3243791256867704,-0.03442875899164423,0.02699513880572097,0.06621278425770628,-0.04223464693734639,-0.285015890555658,-0.09429353323510745,0.2795773805600249
59.6557,69366.5971,-0.13168322334144933,0.35695674278628764,-0.04498745525628453,-0.031575501392587836,0.01845187262502974,0.032424260279247115,-0.4077272532460137,-0.10700855130464043,0.5782080048807192
59.6725,69366.6171,-0.10049431485628091,0.39270459666148716,-0.05702766409488663,-0.048790901085566746,0.0046357423110157,0.04402589191264955,-0.2574080767745846,0.09599079402965344,0.39546389149044375
59.6961,69366.637,-0.0757945754421146,0.4216997969128419,-0.06425422963057884,-0.0067864454890916946,0.03314502356608971,0.015983623952250166,-0.31172378208828105,-0.1789584280885958,0.5181534567062496
59.7127,69366.6571,-0.0578085954629563,0.43450485326712773,-0.06221106874141683,0.005846744307280255,0.004545319651383676,-0.031463652592984684,-0.26822772624955893,-0.07901910901421588,0.4679516078416566
59.7328,69366.6771,-0.055522780485499995,0.42777871078092666,-0.05027965009988253,0.0007196997865876077,-0.04242005205674515,-0.02427454452590651,0.27478206192707905,0.22890310074914708,0.5474769665570646
59.7555,69366.697,-0.07048762997918451,0.40397119249282165,-0.031144174118760932,0.015060999516888097,-0.05505375494959926,0.0009593131510475449,0.2996816634650176,-0.13327042237395517,0.42173775631677524
59.7719,69366.7171,-0.09796877352490052,0.3708211870960838,-0.009444924975900035,0.006991383344039825,-0.05533065611125975,0.0036470669659600546,0.5470214078098332,0.03894788519115103,-0.16848584996041666
59.7921,69366.7371,-0.12877638211912712,0.343829618724815,0.009987125280464464,0.048153375330432915,0.029952433791567576,-0.02600287219651351,0.3819398149658163,-0.33258775948854563,-0.04720381321744831
59.8144,69366.757,-0.15686988862479512,0.329369053853956,0.024091257221755764,0.0194510024627454,0.0035922781745096654,-0.04640961097586592,0.2257608526326728,-0.6759017725504147,-0.005447135189889886
59.8358,69366.7781,-0.18046141375903713,0.32505274895884817,0.03155027607718227,0.011825570780050414,0.023305774683338814,-0.018146165555165128,-0.1671556625091446,-0.41632389703242323,0.3142964162233909
59.8543,69366.7981,-0.19643693690231478,0.3259939122439709,0.032217377212394475,0.0180659349749936,-0.01528167776863929,0.003881459554700894,-0.31544909104706237,-0.7725851174912284,0.623952680247991
59.8784,69366.8191,-0.20158424147045922,0.33026865717604414,0.026589255588068066,-0.009219312429268049,-0.07037158521581172,0.045807236489066816,-0.4382691827068378,-0.485249989010211,0.8027087962985531
59.903,69366.84,-0.19282075078342892,0.33919653622498824,0.015926267347817567,0.027775314791968393,0.009544815160600786,0.03544727955678726,-0.9012724707528003,-0.47472692081659973,0.7093427409335611
59.9281,69366.8601,-0.17465324664903298,0.35391079889058685,0.0022423506534932705,0.03598320559275944,0.04317673621368422,-0.02774238189887695,-0.18687794249499307,-0.6195554316941214,0.46630949129001037
59.945,69366.8801,-0.15671829421329558,0.3697328798881825,-0.011666391725433732,0.005296742325980201,0.012227605047931543,-0.019586810045129067,-0.33223725535316145,-0.7878595417121199,0.4355784529663592
59.958,69366.9011,-0.14321083569111348,0.3822192815186688,-0.02297043928112203,-0.003922319988239718,0.007722732925610561,0.02479389203593389,-0.28479843261682664,-0.6943938263362078,0.519326397100283
59.978,69366.9221,-0.1377414011986216,0.3884027582135744,-0.029906883948032932,-0.01302805223026251,-0.05014901987655996,0.052097129352066486,-0.05323820136024661,-0.7318806571312679,0.21506565888823548
60.0099,69366.9421,-0.1361000327389728,0.38976622396702143,-0.032088093857433234,0.017131674405278945,-0.03774816104036572,0.029913933247938597,-0.27589580210595244,-0.666172194718379,0.43980103838487633
60.0219,69366.9631,-0.1423146482235847,0.38741767873848476,-0.030668719365020733,0.05294208039761474,0.03474518619592768,-0.028375808809667676,-0.005008185344875045,-0.23274536279352898,0.5334016818286755
60.0416,69366.9831,-0.15524908719933977,0.383602312817496,-0.02772121075957963,0.03552510949067954,0.05091874605386762,-0.05362577486803311,-0.001965340695710721,-0.34483839890327384,0.3128888877505501
60.0575,69367.0031,-0.17521028848797743,0.37380568012470816,-0.025594212306863033,-0.015266134892076063,-0.033833309338568374,-0.006425949647925996,0.17809612645972336,-0.4048667479792703,0.49281794419514585
60.0789,69367.0231,-0.1939687409235039,0.36080824118555455,-0.02648805936978733,-0.0035157161958892626,-0.07013682140965452,0.04975820801033927,-0.6123536895333613,-0.3493575656031512,0.06187964342758094
60.1003,69367.0431,-0.2008800095992535,0.3502810672045936,-0.03128782708614023,0.044097788227927315,0.003464751981085249,0.05354872128570805,-0.5280697900990474,-0.701936777842253,-0.280149775472315
60.1185,69367.064,-0.1965835364067715,0.34832409209487813,-0.03931945003020893,0.06368600007918505,0.08513997323934139,-0.035560029625104045,-0.5627719443963118,-0.47360431874825515,-0.429347793593261
60.1473,69367.0841,-0.18610192405671738,0.3548358785459358,-0.04811832634034853,0.02267712018625651,0.03908501698306273,-0.05327303259353438,-0.6280160281543963,-0.623513297359828,-0.35404502029636997
60.1585,69367.1041,-0.17926886743594928,0.36116079983011595,-0.05429674112682243,0.004476600147611041,-0.006060260412906814,0.02361180270682786,-0.2629332302302674,-0.7088747601955254,-0.20766205912110527
60.1777,69367.124,-0.17513331935051663,0.36499060967316643,-0.05457175750645983,-0.01949658112151465,-0.04346241387930143,0.07586715741726789,-0.3391056924327399,-0.7337434953004218,-0.17974607774312917
60.1977,69367.145,-0.1661514242881304,0.36849173829615856,-0.04623408949369033,-0.0037083744335714886,-0.01399796610175798,0.040158942021602965,-0.4102095620525367,-1.0239671416395655,-0.24543073980895358
60.2174,69367.165,-0.15197986284081771,0.3750706791629047,-0.02784175844463323,0.07174975698611226,0.12445621466588791,-0.03499471145319348,-0.9585054007506765,-0.46643414706757813,-0.47110447162081776
60.2393,69367.1851,-0.1394774219789245,0.3815461671029997,0.00020936380175536756,0.04253738209751377,0.08890200825675014,-0.08729330856616017,-0.7963579235864077,-0.2828556128286851,-0.25199920601553627
60.2692,69367.2051,-0.13632573231773543,0.3789698070351337,0.03455000200174447,-0.038577976806826134,-0.016491640869265533,-0.0388322987363761,-0.8796247263050692,0.11089243842518144,-0.25739473182808553
60.2837,69367.2251,-0.13013229535016868,0.3534582555552592,0.06898270336434156,-0.03674876200962121,-0.04893955459039022,0.0646208876252442,-0.7828300618683011,0.4446121406030501,-0.08286120119603747
60.2987,69367.2451,-0.11489266261152808,0.3147772005838131,0.09361207199146426,0.01769897925860151,-0.001613340433923972,0.08336146457487333,-0.08027227980111472,0.08360488766688974,0.0940182102240743
60.3186,69367.2651,-0.08714618638210542,0.27396289264267626,0.09910417465162577,0.057608824856904765,0.05324668767375513,0.027104467318138644,0.009871405494909632,-0.12865965684463676,-0.10702377331310764
60.3385,69367.2851,-0.05605433406996829,0.2484372521003733,0.07894347448819036,0.062051209625374304,0.12488326021588343,-0.030858806329795232,0.1088005468346105,-0.24825197634182505,0.31429641622339094
60.3624,69367.3051,-0.03353806890728689,0.246312117067938,0.03188356916470577,-0.020285153387607207,-0.02908397753243978,0.03663894789911122,-0.0613496385920861,-0.3544327097872742,0.5291790964101566
60.3797,69367.3251,-0.01695233585958561,0.2738180559861604,-0.03755708026434003,-0.024775739366614723,-0.12485961244729409,0.11367446694209353,-0.16321289561153113,-0.4227975007308898,0.4482462092219109
60.4023,69367.3451,-0.0038285728310271105,0.32912339540193736,-0.11915255035971953,0.03358196279082925,-0.052548725080253156,0.11545588971453703,-0.04456147428598496,-0.3391582855663784,0.71755332369179
60.4226,69367.3651,0.005791163381752007,0.4159715674953903,-0.19877927772714743,0.10336167279294282,0.10854097763428928,0.05415012692374167,-0.26609324934662987,-0.532331130689273,0.714738266746112
60.4482,69367.3851,0.002250932216756707,0.5169401680743066,-0.26072939213955715,0.10417815389586661,0.1771918678152684,-0.00850021653874634,-0.06529240548969752,-0.3479591060888034,0.3952293034116383
60.4647,69367.4051,-0.033165623950786094,0.6121157371519326,-0.29321255765424975,0.0298363152267357,0.03473435375318655,-0.006083646542934165,-0.022022253087587942,0.11648095293263722,0.9270404780660065
60.4822,69367.426,-0.0921856171405348,0.6714091835672414,-0.29021778959205,-0.003687955690772644,-0.1365825988839971,0.03998092876780195,-0.14067367441313408,0.03284173776812586,0.6577333635961273
60.5099,69367.446,-0.1614566017328251,0.683194387306792,-0.25358639514737585,0.04472772615071266,-0.1366956935264063,0.0656411111799737,-0.16343035355036373,0.17730279237020763,0.20849719268165423
60.5212,69367.4661,-0.23773811339355572,0.6521074669179135,-0.19081812161111011,0.10840149693950428,-0.008555148157443794,0.010851032278029287,-0.6916777253544094,0.03791688195224892,0.19043391061355175
60.5401,69367.486,-0.3082817823676457,0.594705986476647,-0.11117574148711934,0.06801107970665082,0.07258741496288086,-0.08746987519347521,-0.7438505082673944,-0.45474480868702355,-0.2618519053254084
60.568,69367.5061,-0.3732516545600326,0.5283617898477122,-0.024247131055616433,0.0013165702358206952,0.010466175796410276,-0.10683375266849326,-0.9456600033421896,-0.4446861191482171,-0.4166800373377076
60.5838,69367.5261,-0.43578598569636584,0.4448728531017696,0.061925190577341575,0.019005548228363537,-0.01682085284670215,-0.06845361815323527,-0.7814867782444043,-0.4143694600338325,-0.07066262109810001
60.6009,69367.546,-0.48084441296776725,0.3611908499578995,0.13871875784807358,0.038089735518394195,-0.04424601681236284,-0.027657617406401526,-0.660918337954758,-0.18394197344328073,0.20568213573597294
60.6199,69367.5661,-0.49961657779099,0.2870540995307995,0.19887773824050525,0.06780723587276766,0.0014027222483356035,-0.055602844098201286,-0.9490374803973809,0.33195780345913295,0.26597127198924814
60.6425,69367.5861,-0.49226370926519214,0.23142597376002402,0.23661378363949537,0.06496196964927083,0.09961644417037938,-0.13997315040520059,-1.1786806926898632,0.5162329056802364,0.5772696525654929
60.6595,69367.606,-0.4724534139328359,0.1926044703213751,0.24828186238538535,-0.005611642749367236,0.0792027223025099,-0.08552510092215605,-1.1883745164797734,0.08234169510058179,0.4222069324743865
60.6831,69367.6261,-0.44425971372164597,0.1761757370121265,0.23380110680688887,-0.04549020707390025,0.0509013705039109,0.04698439946851792,-0.8894357245621807,-0.25854817875796404,0.2894300798699001
60.701,69367.6461,-0.3954332025064321,0.1858125533086419,0.19787051662783078,-0.07576581843123727,-0.009952679430420735,0.09528178411333443,-0.843805191820525,-0.6119208813586399,0.48601488990976077
60.7236,69367.666,-0.327461559887253,0.22051192341792888,0.14836508314151028,-0.02979493122848528,0.06199061828210312,0.030095269832856045,-0.5420494586903837,-0.7004030513798682,0.7147382667461104
60.7408,69367.6861,-0.24629780241379412,0.2756796572129878,0.09622873699951787,0.04543272815545047,0.16723044779037413,-0.039812446827642844,-0.31657491673212657,-0.5137038099554431,0.8515031166903101
60.7618,69367.7061,-0.1710107515228677,0.33038031122651634,0.05317269723842397,0.044857697333838036,0.21222358700551436,-0.03543069339765537,-0.49450190698463115,-0.906987482554502,0.918360719150165
60.7815,69367.7261,-0.11586412875619612,0.36769447491655705,0.027594303791492573,-0.06925387743271802,0.09972530467802082,0.050589940043747776,-0.04050997841895658,-0.6456820358153964,0.971377624960436
60.7994,69367.7461,-0.07512712861445653,0.3820018851549427,0.020393571613349475,-0.09493872935747097,0.0014679303502129106,0.11746865543069697,-0.23645968763204264,-0.49530867854901744,0.9575369283108524
60.8193,69367.7661,-0.038254592352456596,0.3795869689575776,0.02379839798469747,-0.005332009384087959,0.0202900465693854,0.08071718775056631,-0.11881691752436058,-0.2172387492452329,0.7525069474339602
60.8441,69367.7861,0.0052545378281942945,0.37614935163528906,0.02542379488228317,0.05196351062282589,0.07254711277309323,-0.019680215198507198,0.3370920300054149,0.19085496891991452,0.8125614956084282
60.8652,69367.8061,0.047048478802659,0.38188129151952155,0.014767996006681168,0.06113092852677103,0.13490847606739437,-0.07303484964623455,0.19680130972992013,-0.24280405233233548,0.6882298138409747
60.8843,69367.827,0.0746698557952853,0.39986971394300785,-0.011697182472377929,0.01726140545226138,0.10531321300262082,0.019856516741293177,0.05133326790233526,-0.11105801579978504,0.5376242672471913
60.9052,69367.8471,0.084223370293886,0.42936906182428625,-0.04966641069172923,0.014077583944998327,0.05450398412881544,0.13789353568814375,-0.24727933710701375,-0.6703185815928883,1.030024644662065
60.9214,69367.8671,0.083282029366062,0.4769372013628168,-0.09049813604262383,-0.006779790630059049,-0.004810373286998619,0.14631055595572146,-0.5855455145291071,-0.8003423704542512,0.7649401156107049
60.9475,69367.887,0.07366449789700459,0.5255927715012103,-0.12389040945986574,0.013308801572752554,0.009307560481532227,0.04433644743097623,-0.6034595045202684,-0.5567354871393618,0.8041163247713937
60.9629,69367.9071,0.056092793234740895,0.5697478973037634,-0.14316990976670432,0.05297787869578761,0.05954005508427037,-0.04032079919441658,-0.25020500728897793,-0.6226761388796556,0.5486499069510999
60.9861,69367.9281,0.02891560161148221,0.5902064177047059,-0.14476150878768593,0.061684316416900274,0.03391057734220547,-0.034151640995976,-0.3242345470907397,-0.8652573425055679,0.0015905071743072543
61.0009,69367.9481,-0.017369981424110004,0.5790809939872361,-0.12955810523793623,0.056199854274975196,-0.010518787100958391,0.0347383934806471,-0.4499887544302605,-0.7658793244653572,0.5207339255731238
61.0211,69367.9681,-0.0726169085228468,0.5435962991311243,-0.10194903552895283,0.015157616051710251,-0.05107844447212499,0.05860444626610665,-0.3430569048281358,-0.9628694447559892,0.5080661693175721
61.044,69367.9881,-0.1273886550810332,0.49815705437496993,-0.06830507477436613,-0.015545828302239939,-0.08548034729163934,0.018996712334454175,-0.3251429148369712,-1.2064763280708801,0.4688899601568831
61.064,69368.0081,-0.1738132894650527,0.4552844664803214,-0.03527619190210933,0.03566679777728903,0.010342665680302038,-0.014547193446141861,-0.4835735285402444,-1.0320277260611814,0.9657475110690815
61.0876,69368.0281,-0.2129821915585185,0.4225452631198394,-0.008959305511735328,0.031503855272138254,-0.007486666871201695,-0.0010600992273451999,-0.18970332920532604,-1.107562688685477,0.926571301908394
61.1022,69368.0481,-0.2482683046237542,0.3991943875530032,0.006255509567891872,-0.0009717257173183474,-0.02459935150106438,0.005362179508127616,-0.24018499659082274,-1.0889353679516471,1.0633361518525921
61.1238,69368.0681,-0.2806840147144065,0.38725387000308054,0.00804452997079657,0.0026812051498891066,-0.07289682392688851,0.03794407867555126,-0.38971297978322245,-0.8862651343241209,1.4806683440493806
61.1449,69368.0881,-0.3065216431855109,0.38339776421296135,-0.0025119308453808303,0.03573100476296747,-0.04843763667947207,0.029123097736268696,-0.03273317359314658,-0.3585790966617823,1.1194027026873485
61.1691,69368.1081,-0.32507815931418516,0.3843858510627681,-0.02136699450607213,0.09396929511372057,0.03257638458117197,0.01600051429392422,-0.27398722863963676,-0.7549834764463766,1.2686007208082897
61.1839,69368.1281,-0.34737627402189075,0.3899754054869943,-0.04324230690175443,0.0775742937497279,0.07280382055508239,0.004478720803342271,-0.34125706033123704,-0.7516305799334396,1.216991343470858
61.2132,69368.1481,-0.3694880886461994,0.39378751116404453,-0.06218492395435263,-0.012193162533166078,-0.0037759733144449546,0.006425606367370683,-0.3066636350033891,-0.6799128924768886,1.2463148533216715
61.2215,69368.1681,-0.3817540844617837,0.39542194892678695,-0.07489626908404583,-0.020869898007115365,-0.0300801944536149,0.02100216672215793,-0.48459062525589286,-1.0731965650759463,1.3131724557815296
61.2413,69368.1881,-0.3786708948547728,0.3987654080960057,-0.08170166398399142,0.00544689302380011,-0.039489748937700915,0.02798780872888458,-0.3164661877627109,-0.8137539565059932,0.9713776249604392
61.2615,69368.2081,-0.3511239421412867,0.40973230000059,-0.08438097778285443,0.04359666788955615,0.03176863075783402,-6.536757717930968e-05,-0.27397878314185553,-0.519383923292337,0.4468386807490703
61.2845,69368.228,-0.30354634947731063,0.433276052440997,-0.08458878096032343,0.05257027340139108,0.14918192476746184,-0.04034832419566319,-0.18777786474344146,-0.7251748641053984,0.11184690421336817
61.3016,69368.2481,-0.245831303021062,0.46991732294058397,-0.08177680714945383,-0.029996720318150132,0.06034777962949166,0.0018381191922698947,-0.017627679316748846,-0.6189941306599491,-0.10303577597340059
61.3217,69368.2681,-0.1842680013272558,0.512878484606229,-0.07304986944876053,-0.04996117345378976,-0.01198128724329524,0.0785585473474019,0.004120348602612217,-0.5690244711227591,-0.1281367004056971
61.3433,69368.288,-0.12141973757618879,0.5577064409191157,-0.05565216553741463,-0.03280382265984784,-0.026197091273259827,0.0943340482749561,0.046599307725687114,-0.5102539910631412,0.16908639544215667
61.3666,69368.3081,-0.06241158423767701,0.6016017903326158,-0.029044188339207532,-0.006581690962754632,0.03696063246989115,-0.0010787880776234437,-0.07014354013354383,-0.682704487955652,0.7285789633956956
61.388,69368.3281,-0.01826697377201461,0.6360535385470059,0.00487428177383057,0.006565545823335053,0.05178725171078943,-0.10034176217560177,-0.17099814593512555,-0.945499993038542,1.121983171554218
61.4129,69368.3491,-0.00033295414175998905,0.6520581747885235,0.04212801858981637,-0.00834496282952669,-0.005942513695002782,-0.09530652455408563,-0.23939380331178806,-0.6832657889898244,1.2979242306591066
61.4275,69368.3701,-0.014163591073704102,0.6302792951462683,0.07875235850046869,0.021101071448228093,0.007858625668274112,-0.052549875742600165,-0.5294299647185107,-0.31415428351344943,1.3511757245481835
61.4466,69368.3901,-0.050080635721404615,0.5836394610532258,0.10881396924028278,0.056940442361612796,-0.0863135410891921,0.021745576343895755,-0.332571887759191,-0.12330865521451193,0.8977169682151929
61.4652,69368.4101,-0.10187153355478429,0.5196528418306042,0.12792404244245198,0.08267463220182705,0.021683621355191827,-0.014012098038384208,0.04108735376756749,0.7197019532192672,0.6049510458646602
61.49,69368.4301,-0.16144579871453818,0.4497664909110348,0.13248601176423466,0.0661808293596886,0.028926754562557406,-0.04600975559554022,-0.4654119901171216,0.630285702338497,0.5617868393642628
61.5063,69368.4501,-0.23023791731835752,0.38264926263321497,0.11930886543737579,0.03988844452473301,-0.04217645587994152,0.02766837796157637,-0.32377798621773324,0.20496312295386585,0.6983171012296538
61.5283,69368.4701,-0.2947181657998082,0.32687432852547516,0.08668340023217216,0.02659570319496769,-0.09733251914595493,0.09325079872305389,-0.5740434007445125,0.08038725810199408,0.807165969795876
61.5533,69368.4911,-0.34047339113929953,0.29427331531278744,0.035655567230952666,0.037994355935622746,-0.08093435467720532,0.10218707970306982,-0.643121522430794,-0.3630982633616611,0.8683934583643792
61.5658,69368.512,-0.3643399415285681,0.30218253039836995,-0.02899461391946493,0.0842956141310385,0.046713858137839986,0.0415956376122403,-0.23555976538359102,-0.389689246137742,1.3119995153874942
61.596,69368.532,-0.3585319155071769,0.3351063534784081,-0.09636691111039333,0.07637800464046575,0.08871560044599208,-0.00429827487116406,0.1750448363127765,-0.5283732650235681,1.5350927783324921
61.608,69368.5521,-0.33889218924521014,0.39983148185298534,-0.15574290319031492,-0.005689973428989134,0.042025874814232055,0.0492182253509398,0.23634615317324884,-0.3719906827135257,1.3258402120370796
61.6314,69368.572,-0.3118152496814777,0.4662139877348389,-0.1955861664042272,-0.05887824585394269,-0.012819490920810899,0.13487466079999583,-0.3267205473952631,-0.2185935406409792,1.8604664436371279
61.6476,69368.593,-0.2654187427703716,0.5370052933120102,-0.21022934565248913,-0.0516729397818524,-0.011341248462680137,0.11776646499674179,-0.2841244138049921,-0.22427365397787308,1.455802007695888
61.6697,69368.6141,-0.21351869529756823,0.5994434297958724,-0.200796939302179,-0.00868167078312528,0.008786399024975888,0.040309039294026,-0.5965910674406908,-0.6108515335510611,1.4194408554808788
61.6992,69368.6341,-0.16542343190566078,0.6503354896645867,-0.17355700005865354,0.04206140577834777,0.09338549733498616,-0.07146572908511091,-0.7212194490951506,-0.7703548230466344,1.7110338374373764
61.7133,69368.6541,-0.14155227827057232,0.6751061742100891,-0.13589460692001984,0.014249636485567983,0.06795846851743202,-0.04396997315230444,-0.2571990643335364,-0.7397090522254821,1.45697494808992
61.7383,69368.6741,-0.14509328464707333,0.6714562248855489,-0.09443604205301823,0.002371305732323903,-0.011110663419649383,0.04094371734123702,-0.8153059012887877,-0.5516166748366401,1.7781260279760414
61.7544,69368.6941,-0.16854012674099073,0.6427499189414041,-0.05362646541539943,0.004654353103792877,-0.06413094819873205,0.06293677980749221,-0.9411688375977241,-0.15218851024587934,2.177394938104729
61.7684,69368.714,-0.1994115028600565,0.5974179753982248,-0.015985392929477434,0.05715457252085302,-0.04260898042987618,0.0008682147804443431,-1.1647263605918803,-0.1920994802442628,2.047667730524726
61.8006,69368.7341,-0.2210089790076441,0.5508484854610527,0.016350981483747272,0.06896475553971597,0.006695547229527545,-0.06741697343298929,-1.663448899650757,0.00558720802857832,2.1525286017512384
61.8098,69368.7551,-0.24190090895334682,0.4930863940140313,0.040728019202049874,0.023615072173906005,0.00786841843703473,-0.04303772012712735,-1.1961682123011517,-0.6759603503611072,1.9177059348659167
61.8299,69368.7761,-0.2506220444820776,0.4451268854278775,0.05093134557091306,-0.018053613843211015,-0.04015904102920872,-0.003912768461658674,-1.0971218964942537,-0.8600032632548062,1.6371385926133246
61.8604,69368.796,-0.2523735770237565,0.41261477905635524,0.04032162934631297,0.02525030200925359,-0.04322787290944023,0.027497480546165822,-0.7091652449656997,-1.154276374089099,1.5308701929139736
61.8749,69368.8171,-0.2621208998156179,0.4000828245343244,0.0040479335790828685,0.09066702388281718,0.10341678553680417,-0.028362280897123174,-0.2836810524295461,-1.18887468702603,1.1135380007171867
61.8949,69368.8371,-0.2886391991020854,0.41143594799624983,-0.05701271405259093,-0.006360526743931218,0.026344750696554488,-0.04537445198011904,-0.518392857304707,-0.739244673570676,1.5184370247372274
61.9142,69368.8571,-0.3336358256619545,0.4416504467318323,-0.13389937813906214,-0.010670330368963919,-0.03549236573500371,0.03221195806792722,-0.8319768911276867,-0.6313416924540437,0.8878642689053192
61.9347,69368.8771,-0.3844542102710149,0.4841779099943103,-0.21005067943948083,0.06554328449086437,0.03521057913567894,0.04186490562869707,-1.0497833572295494,-0.23088784817430455,0.7792499884179029
61.9563,69368.8971,-0.42422988364473524,0.5323498529807349,-0.26516934560748184,0.09578798312511932,0.1364516879552251,-0.06768698431169559,-1.3998862808422632,-0.5770903790943044,0.9340781204302007
61.9726,69368.9171,-0.44528686257958483,0.5734295095294839,-0.2812920112188018,0.05216856985684922,0.11125085700567729,-0.13958525901689403,-1.3730696603402244,-0.7924756307913663,0.815376552554105
61.9985,69368.9371,-0.43483140119925634,0.6034966229041264,-0.24856330726764084,-0.027988955659377913,0.010392646791178607,-0.06082794167149817,-1.3424274474077724,-0.9498838927903827,1.53251230946562
62.0158,69368.9571,-0.38034636162732915,0.6089357659076712,-0.16730802440189704,-0.09673471638911166,-0.06688486873433211,0.054298660275639364,-1.3454702920569341,-0.8377908566806405,1.7530251035437419
62.039,69368.9771,-0.2863746715689914,0.6020226300550966,-0.05161082697385793,-0.09376166614409086,-0.02663205139044084,0.052317759440184027,-0.9803874941328053,-0.9231523195163381,1.8994080647190064
62.0547,69368.9971,-0.1515211136249935,0.5927841047978547,0.07713568118963157,-0.04003965347742507,0.07269969276760553,-0.029005091331066133,-0.9309144779651719,-0.7473489261108935,1.28830611942804
62.0709,69369.0171,-0.012064076882043195,0.5882305527751135,0.19330168704586065,0.00030939194439991364,0.10654728819805696,-0.11064889769213673,-0.48864212112291877,-0.7666728148269312,1.0593481545128802
62.0919,69369.0371,0.0983248192557035,0.5878573221923381,0.2749466308116221,0.00942499478434712,0.05756642826756404,-0.09659007322727546,-0.09009172355600616,-0.5214352826702924,1.462605061981278
62.1134,69369.0571,0.1577678729911087,0.5812407770243742,0.30792436137823087,-0.01895905656825386,-0.09645480666895188,0.02486020226620986,-0.5908400105483941,-0.17048671927294,1.4405537825734651
62.1308,69369.077,0.1689047773446882,0.5706397696315625,0.28686991669711637,-0.018223737280113044,-0.12340467375443062,0.07114200613792081,-0.1753927197059654,-0.21002490944595703,2.152059425593622
62.1506,69369.0971,0.1446884110909012,0.5667710984973724,0.2171647079158886,0.09147029907204489,-0.05272511293408968,0.05136036639256147,-0.14282504231163326,0.01495465313510377,2.0544707848101127
62.1796,69369.1171,0.1021793595761977,0.5750672804400945,0.11542953888180257,0.12813549921896702,0.02031748872228674,-0.03430541348163368,-0.25054808519279187,-0.19372480553608573,1.8325504622591533
62.1946,69369.137,0.027865810112795902,0.5904927139066016,0.005365257254022468,0.057480051075370624,-0.009779093383899384,-0.012327442848448358,-0.017979202718345317,-0.42564235047042187,2.002626819393874
62.2144,69369.158,-0.06011414153831551,0.5990625818706059,-0.08867877763460123,0.006692354049042809,-0.0897354572553775,0.04439857417384683,-0.45326594801382064,-0.5248851015625956,2.1450217832294283
62.2355,69369.1781,-0.1522946406302076,0.5903516586776311,-0.14884415005644713,-0.008395853109293094,-0.133429344471145,0.0640748447738089,-0.33855729358588665,-0.43477228269961465,2.2803791047007858
62.2538,69369.1981,-0.2342743836404645,0.5633329563047691,-0.16732628758580442,0.021450301956330232,-0.13446123495399714,0.0513793680269448,-0.3810362527089608,-0.49354276275923137,1.9831560088529354
62.2803,69369.2181,-0.2989483511383289,0.5271468362131823,-0.14682011600375533,0.052043924034586825,-0.07216587961939996,0.009166924460277328,-0.18508654349587475,-0.6439161200256103,1.9969967055025188
62.2929,69369.2381,-0.3477089517149733,0.48297145176330725,-0.09735248675086733,0.01653542221187607,-0.08560898438220146,-0.02354849442200035,-0.09110882027165466,-0.5626041216850574,1.8100300066937263
62.3148,69369.2581,-0.37930090274544537,0.446084579492645,-0.03414694746416683,-0.019279745467664023,-0.0806669458403446,0.03411642228770477,-0.7292137118597892,-0.45735746909915137,1.3232597431702102
62.3438,69369.278,-0.3964696128245546,0.4215876548084754,0.027056490888629763,-0.0173529713728741,-0.06617377699613135,0.11136944357775383,-1.123930071498508,-0.40901845840370626,0.9340781204302007
62.3518,69369.2981,-0.3742972793495576,0.4281823194003168,0.07323658990755938,-0.04035845527147,-0.08552676502565823,0.09961744098583643,-1.3465792267464296,-0.10771044283677897,0.33705145986762197
62.3703,69369.318,-0.33912865710589735,0.4605354615500785,0.09376680009166857,-0.022048235353246338,-0.04057945266035621,0.026831797774539215,-1.5641597894116752,-0.07175733850409909,-0.3535758441387573
62.3904,69369.338,-0.2964233204430602,0.5139115644035901,0.08484110652766808,0.013040555741666815,0.004518087653627805,-0.02236875097368239,-0.9576054785022281,-0.36081471465630116,-0.11664188454417547
62.4103,69369.3579,-0.2649594088381138,0.5711635117524069,0.049627242811830764,0.034926959798304374,-0.0015441331828386598,-0.0008691836292098315,-0.6923601896640305,-0.6678028435601282,0.07572034007716462
62.4345,69369.3779,-0.2605392623063258,0.6153193934574915,-0.0018334859665762315,0.018589228599336798,-0.03556112784538378,0.05159378153097397,-0.9159177126581867,-0.7077138135585117,-0.05400686750283807
62.4505,69369.398,-0.2869744969257906,0.6444501151004071,-0.05623054551451413,0.016097913156576486,-0.018818926326524498,0.08859723590575593,-0.5657060600760605,-0.6615614291890605,-0.08896049124500646
62.4703,69369.418,-0.3396806996042978,0.6558389401860222,-0.10055713695255383,0.0003057072281954107,-0.004020753764728055,0.08102023645037118,-0.8942784137082412,-0.3576940074707715,-0.19898230020526364
62.493,69369.438,-0.40568278477433495,0.6576329996248206,-0.12717106271385722,-0.01573681184087993,-0.012344376435456238,0.04031967395359856,-0.8390627861460943,0.022874647058758947,0.032790721655574416
62.514,69369.458,-0.4679690013262159,0.6571748335690201,-0.13505741285975803,-0.0061592639677276574,-0.01280479722178078,-0.004862498298706847,-0.6313935052095869,0.15313062524752336,0.32860628903058897
62.5315,69369.4779,-0.5080912420147408,0.6608854761691152,-0.12899952602528522,0.0007173847441054224,0.01799360186371,-0.0033032304368930824,-1.178463234751035,-0.08386738742086251,0.8170186691057512
62.5508,69369.498,-0.5070178560568167,0.6781243023849847,-0.11667046463538122,-0.006300213641172103,-0.04550927301894217,0.06278852014168651,-1.386023786718127,-0.5141735121601771,0.6410776100008657
62.5752,69369.518,-0.4478544351510503,0.7142425223802871,-0.10454019328516692,0.008311710737647363,-0.028935720900552877,0.04127358727805212,-1.9369191086899866,-0.8091485145266042,0.2936526652884191
62.5972,69369.538,-0.33023130566658865,0.7649544142402389,-0.09632129977136593,0.022319211747649625,0.022651379926730563,-0.017671437479687014,-1.967569767120222,-0.8873398056816231,0.39827894843612227
62.6156,69369.558,-0.1789482966730298,0.8081735675502498,-0.09255538758892654,0.0014907843198303506,0.09588630119731964,-0.07097039635671094,-1.4740245496134365,-0.5196214361696667,0.2671442123832819
62.6379,69369.578,-0.03667153695876679,0.8163833644907725,-0.09218654389780073,-0.040963117888409104,0.0489196095433611,-0.017267124925863974,-1.1635836439112492,0.02021831852803265,0.17659321396396654
62.6543,69369.598,0.0642769888715207,0.7650409432816521,-0.09406802186484184,-0.10428271050367005,-0.12101695765563496,0.06558445815894198,-0.6134795152184224,-0.09047625806736737,0.2894300798699
62.6731,69369.619,0.0915950605944587,0.658668412237785,-0.09961494110254183,-0.09490846377079865,-0.18613361455398508,0.04628693001221301,-0.7814867782444043,-0.4143694600338325,-0.07066262109810001
62.6931,69369.639,0.04234577188394201,0.5249339161235816,-0.10821342843817243,0.04318096116509293,-0.14681136657183166,-0.03029622501880408,-0.7013715491443195,-0.3959743286274056,0.0353711905224454
62.716,69369.659,-0.0694718608666432,0.4047623680516079,-0.11360647739638213,0.10920465834166357,-0.05676449414895692,-0.12967516382373911,-0.8249912795809121,-0.7499083322622536,0.8013012678257141
62.7372,69369.679,-0.2226573325395652,0.31867415950743816,-0.10459623979845684,0.0010398834840567367,-0.05646854195169858,-0.20528122040851388,-0.9428515076274268,-0.4278779684649407,0.7665822321623496
62.7549,69369.699,-0.374797320040951,0.27693347480750874,-0.07176752490389163,-0.07135522748532011,-0.11444562439254631,-0.08556236132867313,-0.7767612635655405,-0.25077303792451455,1.119637290766154
62.7801,69369.719,-0.486724025762177,0.29018785967918515,-0.01250695454672933,-0.09997665929270158,-0.1080277657572454,0.1112367058231625,-0.8191314937191998,-0.6095936645346827,0.9422887031884294
62.7956,69369.739,-0.49743701393586837,0.35463627076111215,0.06996114683194726,-0.11497841206089691,-0.049582388402948395,0.17223195219364432,-0.619230572110719,-0.5308410723454885,0.2683171527773137
62.8167,69369.759,-0.4268401720018019,0.4538610170364866,0.15869970959474647,-0.1245018595548089,0.004866055053295494,0.10153551131418477,-0.6627266279494424,-0.6307803914198714,0.31851900164190816
62.836,69369.779,-0.29344717961647,0.5646001650173337,0.23048476128333256,-0.07954158396992685,0.04989161760681971,-0.01663107844819324,-0.9337229736799355,-0.7641570767941712,0.10504384992797997
62.8542,69369.799,-0.1494416351419014,0.6522483716104837,0.2616062662232311,-0.009583770973139037,0.02879176419881844,0.03993623973878931,-0.8525906478642022,-0.7045931063729793,-0.13634728316392294
62.8744,69369.819,-0.04139215530580209,0.6930267403341213,0.23822393745071807,0.011940303292924394,-0.053435545915271165,0.16065033874296664,-1.2028023004463309,-0.7507454907424277,-0.10139365942175114
62.8958,69369.839,0.00892957048117321,0.689249228850835,0.16098251364150556,0.016945943664006678,-0.09501142315538239,0.14644888472619103,-1.095187986534588,-0.242015885520688,0.0006521548590794012
62.9151,69369.859,-0.0006333761008674998,0.6653305100667714,0.04480311758987066,0.10556346351718124,0.0019949362226793386,0.05714663774837668,-1.073439958615227,-0.1920462259834981,-0.0244487695732171
62.935,69369.879,-0.05808932225450311,0.6402576001182886,-0.08456066811171803,0.13557210348714446,0.03361431347791181,-0.04809895792737792,-1.4523852506634911,-0.16960163008192655,0.12216877968085632
62.9562,69369.899,-0.14303439357164988,0.6264317210256485,-0.19978327870863433,0.07390421326662988,-0.04482450439452327,-0.0722381494325945,-1.4888956949554368,-0.3881075889645208,0.0858076274658455
62.9843,69369.92,-0.22779017708392751,0.6295104242690058,-0.28006813546551373,0.017385302934914835,-0.09268767937084434,0.003994843792790707,-1.369009718975413,-0.8633998278863403,0.24743881376353322
62.9945,69369.94,-0.2879149983109251,0.6441259589384294,-0.31441034409194424,0.012220129849012776,-0.06390499178381193,0.05096238771686623,-1.0436976679312233,-0.4550739203937914,0.33822440026165557
63.0183,69369.961,-0.3078243670412734,0.6720336970396248,-0.3022892533539843,0.003792765529569601,0.011630430553172642,0.0348833298153364,-1.1535636332130954,-0.44604091054396183,0.6912794588654603
63.0419,69369.981,-0.2897764795524816,0.7085785937371234,-0.25063853289669014,-0.010752615175904529,0.050348903550955976,0.007355083433615225,-1.0023445344932138,-0.13742213279839113,0.86299793255183
63.0654,69370.001,-0.2503847337170154,0.7438595937776852,-0.17169334900865543,-0.0663791533138984,-0.03779497756643479,0.01731936847297447,-1.1278728383961216,-0.40254485470523976,0.8001283274316806
63.0766,69370.021,-0.1969962822855038,0.7603058371426701,-0.07981537162909313,-0.07042930728486772,-0.10965430310568601,0.03284593235090183,-1.077282442041207,-0.7212223219896157,0.7832379857576132
63.1037,69370.041,-0.1623996950860921,0.7652568832975013,0.0065598228259227745,-0.06058388683080126,-0.14740305305648388,0.02608228886275241,-1.0199238920783495,-0.5583661359811097,0.4400356264636821
63.119,69370.061,-0.1423058083799129,0.7480961617579198,0.07465251987260807,0.013719146595640424,-0.06834751243850656,0.0025422353108076386,-1.1167185565151176,-0.8920858381589782,0.26550209583163403
63.1394,69370.082,-0.1519910785518434,0.7214272352748873,0.11448907618880227,0.04786142382781355,0.033276997631137714,0.003716270449207969,-1.325622392106103,-0.46341036226141175,0.07736245662881097
63.1567,69370.102,-0.19357971223245668,0.6909811908816362,0.12397410654407237,-0.013413627081194323,-0.029242483199621586,0.02767201407679788,-1.6361720267777062,-0.7031999704085609,0.04803894677799721
63.176,69370.122,-0.2578224268476255,0.66171329872588,0.10702322194938726,-0.016327098137137664,-0.09293670129019944,0.04437495897391364,-1.3719353891573771,-0.8157573851731076,-0.23393592394743193
63.1972,69370.142,-0.3242208810865101,0.6386200788927607,0.07137124942217687,0.045285651641065586,-0.11472154709307768,0.023721316241617364,-1.026792329157926,-0.5042500895694074,-0.17528890424580457
63.2206,69370.162,-0.3731487583339069,0.6247916834922709,0.02630691403582707,0.08575647234434144,-0.08280886526226093,-0.038315188414660285,-0.9832962733192026,-0.40431077049502456,-0.22549075311039907
63.2392,69370.182,-0.4038200894084236,0.6149121213530687,-0.019322642673164733,0.08156022203665325,0.007373845008957333,-0.09019617964933825,-0.9942246517635893,-0.27927052698834515,-0.27287754502931544
63.2564,69370.202,-0.41398522789458714,0.6095025023862759,-0.058043638521909934,0.0288524824857102,0.005159483508745727,-0.008850182854312523,-1.149612420817698,-0.2169149610883915,0.0034672118047575236
63.28,69370.222,-0.4068662572084911,0.6049420571731655,-0.08402122088917113,-0.009077505072374287,-0.0012412549881721995,0.10906797813260938,-1.5037668402974402,-0.2565937417593734,-0.09552895745159075
63.3081,69370.242,-0.3841768488634455,0.5999378676240109,-0.09413427300746002,-0.049049585889257535,-0.024812450473488977,0.1063685340117697,-1.7322842269048584,-0.3311999470740552,-0.01178101331766523
63.3154,69370.263,-0.32973819386244596,0.6068017388839805,-0.08885065160836923,-0.039671727116968675,-0.07249607499346704,0.06192457134545526,-1.6848454041685228,-0.2377342316981419,0.07196693081626182
63.3366,69370.2829,-0.2742399737226618,0.6118328411396742,-0.07272060130954233,0.032589640851500214,0.03632178546935119,0.006776550133265222,-1.7027593941596875,0.005872651616748938,0.11114313997695076
63.3563,69370.3029,-0.22878301837484483,0.616440581057938,-0.05225008247092813,0.014473925656500889,0.03007769721876899,-0.0403291270712142,-1.6552118424539348,-0.200711779557885,0.3147655923810054
63.3758,69370.323,-0.20496728452131308,0.6192964847829242,-0.03396629848704203,-0.048078368296887816,-0.021612710311349155,-0.007610854033977697,-1.5890678364473987,0.05481663146496331,0.5939254061607565
63.3996,69370.343,-0.20274173571291382,0.6215608289610061,-0.022411074566057634,-0.054085143143603596,-0.056452516739803504,0.06968634801091327,-1.4941901909747284,0.2417480622167888,0.7614212944286074
63.4219,69370.363,-0.2058694748138991,0.6274450612141015,-0.01823683945564753,-0.014353881522629749,-0.019202322746028518,0.08920180848285345,-1.2892291222813543,-0.18045380998230695,0.8156111406329121
63.4399,69370.383,-0.2082245027916858,0.642871556915004,-0.018457735203142034,0.0548926338168148,0.009291396472417316,0.05406352482464894,-1.448559658233076,-0.11162464038388546,0.9580061044684682
63.4654,69370.4029,-0.2142906530670023,0.6611612901318804,-0.017210174608032834,0.04458032366563972,0.07529496193007133,-0.01769067370214915,-1.47616747201415,-0.30190896764864766,0.8421195935380462
63.4778,69370.423,-0.23335758859080669,0.673121614178852,-0.010037741730144031,-0.003417586541087415,0.04660201534438084,-0.025875099889590223,-1.3276565855374,-0.5457480402909416,0.7722123460537075
63.4973,69370.4429,-0.2638371547373265,0.6703346821460712,0.003346060847905466,-0.031131605005241723,-0.0498694502777549,0.02527952845707651,-1.2219592905897574,-0.18380670649524242,0.8672205179703442
63.5218,69370.463,-0.2940963584793022,0.6500482724726697,0.01856881002945037,-0.005076640210214274,-0.07608816248925462,0.03364192880030546,-1.294297714864032,0.08490110125194479,0.9092117840767112
63.5394,69370.483,-0.3131318369989953,0.622650281564413,0.028507647939756874,0.06342947068442027,-0.033063049841521426,0.023850378782974076,-1.2278190764514676,-0.3241213742228177,0.7262330826076302
63.5639,69370.503,-0.3167651299690848,0.6029887961067439,0.027300340170763472,0.10960341161067451,0.07996840843818029,0.012907978749031072,-1.2355958812772803,-0.6112243133764291,0.578208004880721
63.5809,69370.5228,-0.3179263834062806,0.6082770387729057,0.011676190840326763,0.03568435463635661,0.10735443902547345,-0.006849185640106093,-1.6293035896981298,-0.7573160168202632,0.6633634774874839
63.599,69370.543,-0.3157436308762639,0.637022138733643,-0.016636224751207435,-0.06060722696651676,0.0020141770923159247,0.034401524999480966,-1.4531848894403083,-0.8108707621977919,0.7093427409335628
63.6191,69370.563,-0.3085575894096836,0.6800002722487297,-0.05362615247758693,-0.05335065212263337,-0.05984325182275098,0.06211450949326226,-1.198976708015915,-0.6927685010443849,0.734443665365856
63.6369,69370.583,-0.2935628288009721,0.7256069307748038,-0.09355336926251684,0.03378776514465878,0.008829805730696166,0.053838242072968424,-1.3740783115580872,-0.5980449166520901,0.34103945720733214
63.657,69370.6029,-0.279352961081068,0.7620039521479937,-0.12933249045244402,0.07050593642603081,0.09880314914833925,0.00046511426502848574,-0.8159714746028397,-0.7861372940409324,0.019888377321215574
63.6768,69370.623,-0.2765535390166036,0.7808436619823245,-0.15317965363354993,-0.010339711959521483,0.043780624912365514,-0.04332172809453577,-0.6616008022643814,-0.8896616989556552,0.0909685651995892
63.6969,69370.643,-0.2865015159197513,0.7762198152938349,-0.15863632877905093,-0.06144479543918133,-0.017980047793136195,-0.011960117015050465,-0.9178347316222868,-0.854502084984552,-0.06104450986703193
63.7168,69370.6629,-0.2973536297753463,0.7497234948008434,-0.14382404019777384,-0.038993348562698815,-0.031288732343927705,-0.03214884527316537,-1.1691172428647145,-1.0202467888511888,0.3952293034116384
63.7372,69370.683,-0.2940483671670467,0.714075242409408,-0.11350226865327903,-0.04112905194083006,-0.05745157604453097,-0.07439413117086575,-1.182071369242618,-0.7419446702200011,0.22093036085839596
63.7589,69370.7028,-0.2700191571777769,0.6874934598152004,-0.07803804764962703,-0.02376341593705325,0.04314134183303748,-0.140915099737635,-1.1257299159954082,-0.6202573232262587,0.22515294627691632
63.7827,69370.7229,-0.2327112106256175,0.6820512126004911,-0.04986947250056013,-0.01835924944684396,0.0883522650466048,-0.17910873673024177,-1.1276469349595077,-0.7670455946522976,0.21811530391271786
63.8022,69370.743,-0.1960829228029216,0.6876710675052652,-0.03828161825061243,-0.05221304155128005,0.08919573812925416,-0.12498742934296163,-1.0644285991349358,-0.46387474091621633,0.015900379981503815
63.8281,69370.763,-0.17208604482787,0.706172916749909,-0.04866903584250743,-0.07336422765443995,0.02798266447855636,-0.040312979591789665,-1.4917210816657698,-0.8761148459558764,0.546069438084229
63.839,69370.7829,-0.15537094715340788,0.7303560049138085,-0.07841344388322413,-0.017486670019065433,-0.049372071154999995,0.08919766409346121,-1.5836646114586947,-0.875089166266895,0.0381862474681238
63.8606,69370.803,-0.15361765300683883,0.7573494057788926,-0.11906980437462103,0.10987325282569821,0.03176723167090643,0.04423240761802553,-1.8655893356335747,-0.8834256081345152,-0.2226756961647208
63.8805,69370.824,-0.16896363029828299,0.7830927933195887,-0.15742044587993873,0.07833631200253133,-0.01764129131151231,-0.07270325939684155,-1.4877698692703758,-0.6469888965003044,-0.1417428089764736
63.8984,69370.844,-0.2006490516416008,0.7959097193564281,-0.17903696662984403,0.04412089134047121,0.009095820804179222,-0.10022708770307853,-1.5660768083757755,-0.21854560993013952,-0.36061348650295105
63.9196,69370.864,-0.234609392051723,0.7917074086873601,-0.17366802802746173,0.03699284189859889,-0.016277665013577938,0.04021692437508131,-1.8083395146401329,-0.4205192755754592,-0.685752563728781
63.9416,69370.884,-0.256311218083399,0.7776005165766271,-0.13890944753884263,0.04876106036399076,-0.027956670943737116,0.07241253517273688,-1.680894191773125,-0.008608282242570252,-0.6158453162444377
63.9707,69370.904,-0.2549836541477337,0.7693585150283129,-0.08078326516869552,0.01541952598658708,-0.014435058105882834,-0.028828446507724835,-2.052745143305199,-0.40478047269975886,-0.4359162597998404
63.9784,69370.924,-0.23218043843275749,0.7579710605534923,-0.00975854410661673,-0.014647252356921549,0.007025481905993989,-0.0983285663812974,-1.7093016443310156,-0.8401617416231965,-0.14455786592215017
63.9989,69370.945,-0.2026160585522493,0.7518782256502357,0.05836413111618787,-0.02837351318663175,-0.029762061590648287,-0.00967765320428936,-1.338250331575762,-1.0852586832818716,0.2626870388859591
64.0193,69370.9649,-0.1783647570222724,0.7369102078059644,0.11114362155713187,-0.008210348916189455,-0.046931796836067796,0.10355097479325091,-1.1195439432254508,-1.3800930951503338,0.7257639064500176
64.0392,69370.985,-0.16907375178926198,0.7169188301796607,0.13975472917577617,0.012058704452822956,-0.048389334381258864,0.09194101528305083,-0.8802069071430582,-1.1304769867917828,0.5695282459648792
64.0599,69371.006,-0.18095849855287488,0.7003882907834756,0.14214208018031776,0.055788786467226695,-0.03469036358617783,-0.018135569993605705,-0.8178884935669374,-0.9329255654669755,0.012850734957018389
64.0853,69371.026,-0.2130896063175674,0.6932452470274909,0.12265413598008887,0.06407510339533691,-0.006217199410780389,-0.09881764342759587,-1.1020648691119468,-0.4234993922630283,0.2070896642088136
64.1255,69371.047,-0.2521205458962593,0.6980974604793181,0.08925764758206839,0.04377979952656662,-0.02763889116095961,-0.07873143015991942,-1.050683279477998,-0.3365072805855815,0.42478740134126075
64.1395,69371.067,-0.3121053597933347,0.682553667473145,0.05162262236175207,0.046861511322586626,-0.045993042722055046,0.001276398037567679,-1.266355268676929,-0.3893654579809023,0.5629597797582965
64.1517,69371.088,-0.3600474278738294,0.6726688869384174,0.015338010124413666,0.08001999024045743,-0.0018707894643489,0.04046640879689202,-1.0518091051630627,-0.07762597304979754,0.6523378377835768
64.1699,69371.109,-0.3834565253365594,0.6718588658078986,-0.014241806300705831,0.08302431423773725,0.04334281972656082,0.06007711202882766,-1.1111934030594341,-0.08722028393379813,0.8686280464431863
64.1855,69371.1289,-0.3806842604313756,0.68835875966066,-0.034793168482198836,0.004501323987448188,-0.006325758045935156,0.06546169039769988,-0.7945580790895082,-0.07161674800613435,0.4569259681377527
64.2032,69371.149,-0.3533656562842087,0.7158721350874152,-0.04615710133972283,-0.046745533641381946,-0.029905612501604006,0.06609930079589599,-0.8329855423455539,-0.436910978314769,0.41352717355854807
64.2243,69371.169,-0.3073373375974101,0.7461946461201532,-0.051554257961929834,-0.005247200810375356,0.03346295813237139,0.055908951044593536,-1.1761028544114924,-0.9016801490429776,0.4817923044912438
64.2416,69371.1889,-0.2554246060496771,0.7745639859613624,-0.05657799443270183,0.06676500042557791,0.11780771876923778,0.03214099517408823,-0.9227945952355475,-0.8891973203008475,0.15243064184689484
64.2634,69371.2089,-0.2173891658756693,0.7931852589448861,-0.06606151678577753,0.029757808651535527,0.06125909600985215,0.029131191024987527,-1.2216246581837278,-0.8483575929928505,0.4050820027215105
64.2827,69371.229,-0.2061692335639242,0.8059918235730165,-0.08326304095344683,-0.002195700373023375,-0.036323121810717666,0.09923713461207792,-0.8716389090382123,-0.43770446867634294,0.9521414024983047
64.3069,69371.2489,-0.2218919481259118,0.8115226392033513,-0.10793945742338393,-0.007471573374001973,-0.052739249349059436,0.13061254729019967,-0.8460568431906541,-0.09415826628707061,0.9411157627943959
64.3229,69371.269,-0.2479553354610719,0.8207046463140433,-0.13808109328744794,0.01454689776550161,0.00859917128918676,0.04837327818909187,-1.241681570575603,-0.38703824115694374,1.0192335930369683
64.3461,69371.289,-0.2758710973533025,0.8286759194038101,-0.16822836486657103,0.058434107798237385,0.04578356148960603,-0.020622125432928493,-1.7481809144602916,-0.4764544920377123,0.9760693865365663
64.3793,69371.31,-0.3008396242740354,0.8338551989758732,-0.19188664413231693,0.09926392605739118,0.08145851599939286,-0.031042723383579537,-2.1903360968353436,-0.5215811967181837,0.5031398196626341
64.3878,69371.33,-0.33770171459937726,0.8316262485139505,-0.20357946236571792,0.023048915395203297,0.01098276660652262,-0.0037439432409442593,-1.9834580091778706,-0.796994797491242,0.5643673082311341
64.4083,69371.35,-0.3688271153320706,0.8195195306738965,-0.19900736418486653,-0.026791544161708192,-0.05198322833921217,0.06281452032042091,-1.9685868638358703,-0.9285086446963879,0.7457038931485706
64.4271,69371.37,-0.38112399275173303,0.8040800990450436,-0.17865236120293854,-0.02466455434163248,-0.012518908988988465,0.07751025141924187,-1.6145411733255453,-0.5887797174748588,0.7248255541347913
64.4432,69371.39,-0.369461982876502,0.7909553039475471,-0.14661700566395133,0.050759058333981553,0.03767261447527575,-0.005460072331453317,-1.6223179781513544,-0.8758826566284719,0.5768004764078819
64.4637,69371.41,-0.34125192917449954,0.7829335892382743,-0.10917688825872433,0.028198959716374396,0.045697746165292846,-0.08349004933850955,-1.66006297709778,-0.5354571614247304,0.6481152523650612
64.4832,69371.43,-0.311136107373771,0.7774323124186365,-0.07263001038747002,-0.006584593998128017,0.0070853334387918025,-0.007991746877933213,-1.453293618409724,-0.5108206156472417,0.5894682326634336
64.5035,69371.4499,-0.2850435801579116,0.7740731628886185,-0.04220169931003733,-0.046534197908888734,-0.032212478550641827,0.077753167374846,-1.2681635586716122,-0.8362038759574899,0.6757966456642303
64.5237,69371.47,-0.2576983721256182,0.7753898512837559,-0.02138015960452523,-0.04301241031640527,-0.039087268517864815,0.03790846038558581,-1.2415728416061906,-0.6870883877074926,1.1391081013070976
64.5446,69371.49,-0.22528461882827938,0.7832455105586686,-0.011351780736535734,0.042184569222528175,0.01184666764305812,-0.0321759010982544,-1.5354430409411057,-0.6115534250831985,1.178284310467785
64.5663,69371.51,-0.19368471492231581,0.7949812596676625,-0.010437416951523032,0.07549513840354444,0.060302956856985966,-0.06748203252684495,-1.0873108982371436,-0.4905626460716637,1.0903137809153403
64.6053,69371.53,-0.1723246166163226,0.8084609630108143,-0.014993421580118328,0.013239023183084727,-0.008448791726681318,-0.007135617684328842,-1.105224888228308,-0.24695576275677292,1.1294899900760293
64.6133,69371.55,-0.15974764025754679,0.8167761807325429,-0.02043547027390903,-0.040562393093175234,-0.04572667301306142,0.0662545981040659,-0.9460030812460035,-0.01573478580464724,0.8672205179703456
64.6435,69371.571,-0.16033551988200612,0.8307256377487529,-0.026017440000294732,-0.042006620187714,-0.05556446482721811,0.02204107912716571,-0.94206031434839,-0.02220838950311374,1.0011703109688657
64.647,69371.592,-0.15879154920422128,0.8333990264127039,-0.030016381346123732,0.018471801309765633,-0.013995331638555703,-0.06474927689881473,-1.5693540019593355,0.02244861297262214,1.2636743711533533
64.6682,69371.612,-0.16509223412017432,0.8387310667867243,-0.035800759348906835,0.05004252004555939,0.015512655841056657,-0.0691752110836441,-1.5505316442219372,0.12006071522304786,0.7571987090100902
64.6855,69371.6319,-0.18995192392358978,0.8319946852024205,-0.04348023641445613,0.028659860652153445,0.010926985819911987,0.0010064653548876555,-1.5314918285457118,-0.38242747562762663,0.4904720634070822
64.7092,69371.652,-0.2310528435132267,0.8158377078653076,-0.05299869511478353,0.00688450852648709,-0.08437481298419879,0.052320535399116554,-1.1831971949276834,-0.48306336268421873,0.4484807973007166
64.7255,69371.672,-0.2783805743960746,0.7934227166840809,-0.06256734646568184,0.00706385711415488,-0.11737671082420076,0.01158924186402027,-0.897103800418573,-0.8457012644621241,0.26127951041311837
64.7516,69371.6918,-0.3166506471204042,0.7748915741750939,-0.06992963701746233,0.06697708451305989,0.031103611021993927,-0.07602881910001583,-0.8238654538958479,-1.0087896397980387,0.5737508313833949
64.7691,69371.712,-0.34699112093839213,0.7521407592441353,-0.07212001567849073,0.032322473837352636,0.014962634049152015,-0.0943958145341456,-0.6706206072424525,-0.8534327371769734,0.8723814557040862
64.7857,69371.732,-0.3651373939631082,0.7312845724779835,-0.06849430051961514,-0.033237954111076704,-0.07017587547463272,-0.0038235467956859314,-0.7329305753207889,-0.8153846053477426,0.6072969266527274
64.8077,69371.752,-0.37120834384828116,0.7178469294909261,-0.06004091691024743,-0.019572041812161607,-0.03613088675042546,0.04804000672513409,-0.8964213361089539,-0.1399815389497512,0.37599308094950384
64.8281,69371.772,-0.3603284787275044,0.7129904757510618,-0.04804253340035153,-0.03127942459139954,-0.029785240382414868,0.012570289209589119,-0.9905077883025897,0.07875660926024605,0.4430852714881674
64.8492,69371.792,-0.3365473186943836,0.7193307902986422,-0.034489268559960234,-0.012296356544077925,-0.0273570864214813,0.01924647044235684,-1.1269644706498847,-0.0613258691399248,0.3328288744491063
64.8724,69371.813,-0.3107935610175037,0.7366996369607023,-0.021112508687483232,0.0519492550770597,0.06929692028773539,0.02202657376429283,-1.2150824080123965,-0.0023231997529065455,0.6607830086206112
64.8901,69371.833,-0.2927245689785426,0.7633581944516395,-0.009531965061838829,-0.0033291512324296582,-0.006545495767801839,0.0202570758858553,-0.9319231291830354,-0.5529182119716186,0.8139690240812643
64.9084,69371.8529,-0.2843483220718958,0.7952547653453617,-0.001838804215189234,-0.037908285992935595,-0.0701472741325685,0.022855099760624324,-1.0049440177669304,-0.9899301297368073,0.7412467196512474
64.9319,69371.8739,-0.2803292535582225,0.8287712144837065,-0.0008872235026084335,-0.009641835941355942,-0.028020679975322905,0.011476678684206279,-0.89417813023661,-0.8933437071753599,0.742654248124085
64.95,69371.8938,-0.2761271033180435,0.8608162164927851,-0.009110046941456132,0.05651142435055509,0.03346488532108019,0.013042984188384227,-0.7320306530723405,-0.7097651729364657,0.9617595137293696
64.9772,69371.916,-0.2731420697946726,0.8881488344827085,-0.026644085644333033,0.06953387919679398,0.06551409795665106,0.018042838108013735,-1.1802715247457183,-0.5307058053974502,0.9298555350116849
64.9928,69371.936,-0.2760956312425325,0.9147427535266394,-0.05124263404161543,-0.0006109406514192561,0.01319541573147354,0.04001580419551786,-1.6067643684997328,-0.30167677832124756,0.8728506318617004
65.0099,69371.956,-0.282118310639514,0.9313682276523564,-0.07666794494584053,-0.04263409492227641,-0.058903776048777695,0.03968542598453203,-1.8373075030406667,-0.2230211085114197,0.829686425361303
65.0356,69371.976,-0.2880406805882726,0.9321515895103952,-0.09649675626849803,0.01739806700588606,-0.02771503176564573,0.02382433950622656,-2.0635732382779586,-0.8153899288976674,0.45833349661058886
65.0543,69371.997,-0.2956352106437048,0.9123913201200732,-0.10571788565633733,0.07412110674505258,0.061245247320169706,-0.02443965543537317,-1.5184205277006104,-0.7251801876553222,-0.03711652582876719
65.0751,69372.018,-0.3107608762837313,0.8752876832073232,-0.10263437865869143,0.016865214106812094,0.013938827114530624,-0.0324269494405905,-1.5006152666788628,-0.6687369244196656,-0.19616724325958376
65.0944,69372.0379,-0.33400269258532567,0.8295794176583109,-0.08897110563406344,-0.019061821604581003,-0.05834874693236997,0.02177314044315554,-1.2690550354222796,-0.7062237552147272,-0.5004279814716315
65.114,69372.058,-0.3547158561935184,0.7886480028973657,-0.06934187300235213,-0.02109421756374391,-0.053044753968445706,0.026196806943223117,-1.2356961647489113,-0.0755746136718408,-0.3634285434486277
65.1362,69372.078,-0.3597504096574662,0.7646057840754089,-0.04966298209504803,0.01977508834789232,0.020070738563687594,-0.03084559120135579,-1.3127769946976162,-0.4416623343420507,0.13178689091192114
65.1565,69372.0979,-0.34807124673138923,0.7598671870302162,-0.03514225130776563,0.0546263436202345,0.08933382341652979,-0.07887574092639855,-0.8614932783750765,-0.7328147379908082,-0.05682192444851619
65.1719,69372.118,-0.3298590207679807,0.7714828337259553,-0.029011942378243033,0.02556616622308308,0.05527183626780219,-0.03752536945133188,-0.8665618709577542,-0.4674598267565564,0.03677871899528295
65.1916,69372.1378,-0.3133391936654996,0.7938508174537493,-0.03158324293574343,-0.031499633769724936,0.005250761264485212,0.07337872527331465,-0.9306801290307736,-0.8762501129039132,-0.1154689441501421
65.2131,69372.1579,-0.2994753137759038,0.821583147265544,-0.04081981317865723,-0.05169260330660709,-0.015460757095659647,0.08911102289635534,-1.1721516420160951,-0.6725541995874071,-0.20601994256945905
65.2336,69372.178,-0.2813374659446833,0.8514474592573997,-0.053101507842080634,-0.017668925372173076,-0.02051719476369604,0.023833723029378823,-1.6590458803821313,-0.4942883224099656,0.30069030765261295
65.2552,69372.198,-0.2621536427324792,0.876954554908948,-0.06377370482243744,0.07564396177343918,0.06877630125104314,-0.06214968910352035,-1.8765261595757472,-0.993984917781877,0.551699551975584
65.273,69372.2179,-0.2569313740815584,0.8892024079723492,-0.06788736744540753,0.08398223552719135,0.10088399395944189,-0.08301141146171799,-2.0488108219053722,-0.6468536295522677,0.5197955732578975
65.2993,69372.238,-0.2693959213042717,0.8870770145840724,-0.06214721881079413,0.0020442687270205108,0.0023029269233138176,0.006027080319491546,-1.742995147410417,-0.8062599966684747,0.18058121130367671
65.3178,69372.258,-0.2927953775229972,0.8725448709563702,-0.04668664987654613,-0.043086007251502606,-0.0522607388969363,0.06272529865444816,-1.689696538812368,-0.5724796135649873,0.4053165908003176
65.3317,69372.278,-0.3086805286482366,0.855664994416464,-0.025908738623495433,-0.04320502162489103,-0.04858110726783043,0.02761430540941148,-1.7500894879266073,-0.3876432103097147,0.14726970411315282
65.3503,69372.298,-0.3118829896550055,0.8450820970855657,-0.006765596021277728,0.03861435693627616,0.06001189486128641,-0.03576322199936361,-1.789751505837133,-0.1940059865320139,0.21154683770613825
65.3716,69372.318,-0.3062954213422339,0.8429715229668249,0.004839213646271469,0.05477994004703008,0.0740202250645163,-0.0303705503417726,-1.8234450089165306,-0.16010424157729236,0.5366859149319682
65.3932,69372.338,-0.3054071078359067,0.8451634038650769,0.006157071094396664,0.007973298475885593,0.029634365789138972,0.007177930336103173,-1.360324546403368,-0.23507790316741559,-0.07183556149213029
65.4103,69372.3579,-0.3105412244721244,0.8479435040906484,-0.001797025014311733,-0.03993105401676359,-0.021249187156061618,0.055651881608234734,-1.0111299905368878,-0.2300943578127321,0.2406357594781462
65.4306,69372.3779,-0.3150421373980799,0.8462388674927817,-0.015593010126369433,-0.005780602887095047,-0.004923015909831158,0.07540885050730622,-0.9260548978235412,-0.17700399109000683,0.1331944193847634
65.4504,69372.398,-0.3088341460671867,0.8389026993995047,-0.03185681550852723,0.05749297093171267,0.05148417202718425,0.0015758497201641974,-1.2140653112967472,0.03884563926185965,0.31335806390816623
65.4747,69372.4179,-0.2911798863569563,0.8232817627239405,-0.048795847143858734,0.04731885045395821,0.0762534000061486,-0.06451562717232345,-1.2853950843531579,0.11312273286977372,0.8296864253613047
65.4945,69372.438,-0.2723408586988483,0.7971195405483287,-0.06716831980022533,0.012749146932649726,0.014371108095717584,0.0013680046823416315,-1.629746951073575,0.2072850162278949,1.0056274844661885
65.5197,69372.458,-0.2566072242206336,0.7652968488505832,-0.08973356616717193,-0.022040250823219386,-0.025331238628946224,0.07325724774650602,-1.5051270149168996,0.13118875256943002,1.5357965425689106
65.5363,69372.479,-0.23479580863634458,0.7479776829263175,-0.12003838420679652,-0.03237866363937267,-0.0022485654766686352,0.11025163138224078,-1.4713247828680862,-0.20276313893584166,1.3305319736132097
65.5683,69372.4989,-0.2151226198001619,0.7528792357376886,-0.15884273793891993,0.009609267700972915,0.026941138603430597,0.03681825138734566,-1.721364293958253,-0.6918397437347742,0.8573678186604705
65.5764,69372.519,-0.2024476554179106,0.7966044040720605,-0.20341302919808982,0.05125574600539471,0.0948715559371671,-0.037187445323811096,-1.721364293958253,-0.6918397437347742,0.8573678186604705
65.5982,69372.539,-0.2047668626322262,0.8659844442870493,-0.24428594330275583,0.034296964895572504,0.0642518127421282,-0.03981197765148525,-1.5807389412767319,-0.9227316089801306,0.5195609851790904
65.6142,69372.5589,-0.2302394989121863,0.9458425421180902,-0.26982597689554966,0.015964582216447788,-0.003981269384309971,0.018724629261051746,-1.6056385428146698,-0.5605580858570269,0.6453001954193831
65.6331,69372.579,-0.2674757618147916,1.02071130601867,-0.26944655364660564,0.013382011599618436,0.012243192063969087,0.01957579300698805,-1.2071968742171708,-0.015270407149842602,0.9286825946176528
65.6547,69372.599,-0.3008747464131023,1.0770276309291107,-0.23792740926072872,-0.013941272427483707,-0.0028656381476691514,-0.022486826973348334,-0.767967362024082,0.07749874024386455,0.9202374237806183
65.6793,69372.6189,-0.3191182154078344,1.1026585526267234,-0.17726646305811522,0.023063754545338405,0.06634540544676203,-0.08041940868097168,-0.9627912455521038,-0.031009210025541717,0.6788462906887155
65.6929,69372.639,-0.3206724257959676,1.0798549814180949,-0.09512682160683933,-0.006610600214096151,0.024352801822880552,-0.0714522011725664,-1.5445631293908126,-0.039674763599929934,1.0180606526429348
65.7165,69372.659,-0.3106263018085637,1.019710758397859,-0.00633081547822683,-0.04126750071168694,-0.03038931734417887,0.007088161297946551,-2.1104467711718726,-0.13868532536469907,1.1911866548021421
65.7334,69372.6788,-0.2861895647042017,0.92820207199424,0.07552808396145366,-0.053291384093389745,-0.09002054354313489,0.045881640008061615,-2.508097246490337,-0.27830342511006084,1.142392334410387
65.7558,69372.699,-0.2570099944444076,0.8311399470574649,0.13674881289116186,-0.042467334044387954,-0.03585185110883832,-0.019407076478750136,-2.7731250773897007,-0.5714155893073369,1.1897791263293018
65.7741,69372.72,-0.228947663431032,0.7412626048789358,0.16921197180321867,-0.0072656169874657905,0.008214210420943271,-0.05744017702942703,-2.5207167404622086,-0.6645521929764855,0.5059548766083122
65.8056,69372.74,-0.22184881886520258,0.6762595376414694,0.16775208387834317,-0.01822991654632559,-0.02635035831699639,-0.026223463186617894,-2.115963479129771,-0.7079513264358398,-0.23370133586862635
65.8196,69372.76,-0.23096739686828388,0.635223681798703,0.13363508527617948,-0.037970825919201874,-0.07374657683898879,0.06674129017156313,-2.1435712929108455,-0.8982356537006035,-0.34958784679904376
65.8352,69372.78,-0.2596679926309274,0.6315660565454639,0.07063399094883899,-0.01929027127738071,-0.06931166022982874,0.11510909033803474,-1.8368556961674392,-0.9520225884055351,-0.33433962167662246
65.8547,69372.8,-0.2971728977724867,0.6682992053618682,-0.01191229218010953,0.02284306808957959,-0.007207036575797484,0.037241995653696486,-1.444165084462237,-0.8470997239764717,-0.072070149570939
65.8778,69372.82,-0.33331581533972465,0.7397304382126213,-0.10057655712693092,0.04704000817514935,0.04029467640197852,-0.04873570816928505,-1.5441197680153673,-1.0042757966480882,0.6757966456642301
65.9012,69372.841,-0.36812970660892663,0.8255090445260025,-0.17951568235679483,0.033101894916516994,0.021954366568675356,-0.037444710250235574,-1.372052563624574,-0.751306791776597,0.4679516078416584
65.9199,69372.8609,-0.3981997302850443,0.9036300126693039,-0.23325474806389163,-0.0037490792388582667,-0.01567324448897485,0.054309881405408926,-1.3919923015492517,-0.35443803333719937,0.3802156663680212
65.9359,69372.8819,-0.4112604872059724,0.9624620547297359,-0.2503268095386784,-0.041013811472038066,-0.03669261367453417,0.10720175176967729,-1.0486575315444853,-0.4897691557100898,0.5516995519755838
65.9565,69372.902,-0.4025278895226221,0.9959552920604456,-0.22622632629244543,-0.05182628672824407,-0.038788325517577084,0.060077112028827685,-1.1545722844309594,-0.2516101964046886,0.21694236351868895
65.9787,69372.922,-0.3696050516527085,1.005605609746039,-0.16472045139927202,-0.007471336364175439,0.04386900340933953,-0.04066056092855466,-1.3010574229741927,-0.16103299888690312,0.41376176163735373
65.9978,69372.942,-0.3219891223544549,0.9877710719951437,-0.07690360540869123,-0.019335815868011152,0.015380465939125837,-0.06823689786643117,-1.5089526073473147,0.07321176287138899,0.6999592177812988
66.0179,69372.962,-0.27357381152287863,0.9473688724496717,0.019182458207418075,-0.06850403393904814,-0.0517522524505252,-0.003534534282596294,-1.7889603125580982,0.2116635924298088,0.4461349165126528
66.0477,69372.983,-0.2343572191276616,0.8989464868220448,0.10202734533968408,-0.05181032321229908,-0.052333748346051714,0.07694051517184711,-2.013534932267903,0.1305837834166605,0.6638326536450984
66.0674,69373.003,-0.1937318202348443,0.8633702999564921,0.15217824035555216,0.020579546815037764,-0.0030657573672803473,0.034776396749413754,-2.1826680209789457,0.06557188898597904,0.5312903891194174
66.0865,69373.024,-0.1608683081506423,0.8596793917972273,0.15609756914311618,0.043152618005202585,0.01831092962691087,-0.057885307908962395,-1.9560676533356285,-0.0066101771253808134,0.4405048026212948
66.105,69373.045,-0.14553674672402128,0.8914333937575153,0.11160395325936587,0.057821142889275215,0.02695561858123944,-0.03382310039160748,-2.2369837262926437,-0.20937733313227308,0.6539799543352247
66.1224,69373.065,-0.15623947573666092,0.9494359073373909,0.028433483381924966,0.05731735906794114,-0.01126479146667975,0.02399081884615291,-1.8954488007847765,-0.5559473203277144,0.11653866578949838
66.1398,69373.0849,-0.19378763239428698,1.0182046802326077,-0.07393803878331734,0.07567455841913844,-0.06014733599503368,0.05939942616716877,-1.40382060224209,-0.33501722224179553,-0.021633712627537275
66.1619,69373.105,-0.250326088533759,1.0778840207548386,-0.17041887338017803,0.1199323227357936,0.017646712358922775,0.013148587921860282,-1.6789856183068093,-0.09741956397056793,0.21295436617897565
66.1821,69373.126,-0.3243043807212223,1.111135523408267,-0.23711460449083732,0.11981385303340976,0.005410834161315319,-0.04927139004723974,-1.2160910592302605,0.19210751438636667,0.18644591327383994
66.2018,69373.146,-0.40708210386248,1.100112142026613,-0.25601223156818814,0.14696790391306735,0.0018306469021628958,-0.09129190146743037,-1.008421778293755,0.3223634925751355,0.48226148064885316
66.2197,69373.166,-0.48810367150071776,1.0376039539250255,-0.22098850492435612,0.11246207569648821,-0.051420975428983794,-0.07534026399070559,-1.251701581273757,0.0792209879150507,0.5045473481354745
66.2415,69373.186,-0.5445010605071885,0.9381935413340784,-0.14044006874352044,0.08507912554838416,-0.09523379583481512,-0.04463370102327436,-1.0744570553308754,-0.23321506499826297,0.32297617513923116
66.2596,69373.206,-0.5692741745791575,0.8218208297037662,-0.03561251246852443,0.08532338379638356,-0.0251971390785045,-0.05248121963153614,-1.2108050087087534,-0.6733476899489812,0.33259428637029764
66.2795,69373.226,-0.5520759230672302,0.7211052939586687,0.06497349978144357,0.058650973179327826,0.005519576162982421,-0.034879020432328725,-1.6975820726075928,-0.5595324061680501,0.13741700480327926
66.3029,69373.246,-0.4994156928155188,0.6593457150438982,0.13369903121294388,0.01985440169973089,0.04327338283676205,0.01103944560332407,-1.7342012458689553,-0.47798821850009704,-0.018818655681859257
66.3295,69373.2669,-0.4269807750516267,0.6497432636960201,0.15148965896796848,0.03347770139405405,0.06714272306394921,0.06158828933448611,-1.6402235226447353,-0.39667622015954423,-0.2057853544906519
66.3412,69373.287,-0.3550277505651718,0.7040426490634343,0.11207050678375777,0.060975027961576195,0.07955611124185925,0.040039497591477305,-2.078544667091589,-0.14822638198793203,-0.6646396366361931
66.3611,69373.307,-0.2947288560696015,0.7958943388871869,0.026426435338809763,0.05443964207357289,0.04165376766434353,0.004196237658446098,-1.9300337806148433,-0.39206545463022585,-0.7345468841205348
66.3795,69373.3269,-0.2566378074695647,0.9051894768285199,-0.08372996547889973,0.0630509048586427,0.03754284043157426,-0.000900931215874981,-1.948847692854455,-0.2540780037266091,-1.0498332620364894
66.3996,69373.3469,-0.23966961240639728,1.0060218105275853,-0.18977851020227143,0.07360553416477777,0.0444243260533137,-0.0014344627031072673,-2.1189978782811516,-0.36025873717205825,-0.8349505818497237
66.4244,69373.3669,-0.23856595633641708,1.081285049507572,-0.2651961922150872,0.06549348776695929,0.043781562969548944,0.029698268607489135,-1.8558955118436657,-0.4495343975548637,-0.06761297607361301
66.4431,69373.3869,-0.2491713090747718,1.129419121638297,-0.29406480257010637,0.04471661690945171,0.07920869737365806,0.015054420572097557,-2.1061609263704453,-0.5741102624067353,0.041235892492609026
66.4607,69373.407,-0.2629259599522576,1.1502636452152715,-0.27393517698060715,-0.039248684154474855,-0.03174769394599651,-0.006989899389376855,-2.145605486342143,-0.9805733317301348,0.34526204262584964
66.481,69373.427,-0.2787152590941657,1.1491207526901226,-0.2171861606524151,-0.01254044666759307,-0.04659433795934285,-0.02217779627753388,-1.803170638585824,-1.2215238865142994,0.1622833411567685
66.5029,69373.4469,-0.3004312122073208,1.1312974344158975,-0.14575355903254322,0.04264405257929898,-0.003305163043038758,-0.044420030381494745,-1.791116434456371,-1.6054454375567597,-0.017880303366632586
66.5361,69373.467,-0.33206826625123875,1.1076901659706735,-0.08386930051657274,0.03332354453803507,0.006546881613923478,-0.06500888770602728,-1.3480528843350876,-1.2190997473109761,-0.01225018947527634
66.5419,69373.487,-0.38000239356255605,1.0572558949407733,-0.04554593854942853,-0.02317088914588337,-0.08430952181633827,-0.008632719705258873,-1.2056276871566634,-1.2387527477337816,0.35886815119662774
66.5616,69373.5069,-0.42733204275609715,1.0054380805965788,-0.03803789347098653,0.010699422708041018,-0.18178876047310513,0.031079288627423096,-1.384789232063646,-1.0731049662465095,0.5334016818286741
66.5872,69373.527,-0.4600223883161888,0.951707147714313,-0.05346031918974023,0.0433510800953538,-0.15952107659570197,-0.056908795932917144,-1.4375141053214877,-0.301115477287074,0.3035053645982926
66.6034,69373.547,-0.4615772782741898,0.8948351411785153,-0.07642092348203214,-0.01748152872040276,-0.15732715787464183,-0.10673006473766075,-1.5295748095816109,-0.23563920420158493,0.4975097057712793
66.626,69373.567,-0.426078967237697,0.871856785385745,-0.09652588727956453,-0.10730498867520104,-0.20044000177479954,-0.05281241890079775,-1.4138490584380299,-0.10435754632384202,0.28544208253019004
66.6434,69373.587,-0.3571687950156981,0.8574557320160765,-0.10491389163746703,-0.19110625475884593,-0.07550967646898053,-0.28701839282494945,-1.5898590297264348,-0.3508529474968623,0.3593373273542435
66.6633,69373.608,-0.2814734894071204,0.8616368405052385,-0.10770105370751654,-0.1449495538377018,0.1507302071579056,-0.5135778901243765,-1.7262069831043168,-0.79098557244758,0.36895543858530694
66.6844,69373.628,-0.22650750238219558,0.8593207929470332,-0.11274905383809333,-0.18516530892403066,-0.2671290782117617,0.052142326655249885,-1.6420318126394184,-0.8435146381361318,-0.09294848858471813
66.7022,69373.648,-0.1970401249372506,0.8574507077943209,-0.12731028429512514,-0.10936353043042127,-0.2509263208790729,0.37056029903121956,-1.6926222089943321,-0.5248371708517546,-0.07605814691064755
66.7218,69373.6679,-0.19892568927427,0.8818408203736764,-0.15159249596060972,-0.04825534479407605,-0.02743380304755975,0.24932283402322494,-1.6136243600815279,-0.011961178755505722,-0.5642359389070056
66.7404,69373.6879,-0.221485700228721,0.945859787104138,-0.17572473658619123,-0.06745643961231086,0.04161200361429855,-0.06062553125750127,-1.128755869649003,-0.03696518080843594,-1.1978583397634022
66.7605,69373.708,-0.2659405271946285,1.024214391117673,-0.18462431075453561,-0.08470817607654024,0.03853310620771469,-0.23647732959840115,-0.9666083924847334,0.14661335343045828,-0.9787530741581175
66.7802,69373.7279,-0.3306408494114548,1.0718617598314324,-0.16544189920179284,-0.04673156451380961,-0.06547761550440678,-0.09814234254473816,-1.1525296455018768,0.06632703477888238,-1.2996695659654287
66.8004,69373.748,-0.4062572135609903,1.0672394694829719,-0.11552116293985763,0.0013766657556602102,-0.16495386825799846,0.07841149972000334,-0.7240110538143477,-0.31596386742183297,-1.1157525121811198
66.8223,69373.769,-0.4757176488519884,1.0211456824374798,-0.04305898568805003,0.017010501378529223,-0.11234218899785614,0.02877160659819027,-1.1149018210226513,-0.20964786702834673,-0.6690968101335175
66.8455,69373.789,-0.5224832228292334,0.9598172947969027,0.03823585376486937,0.03889371819987733,-0.005658155376667565,-0.05672796762217045,-1.3849982445046927,-0.23740511999137112,-0.5281093747708037
66.863,69373.8089,-0.5427176261019251,0.9022937659459308,0.11483367690658366,0.05008573430110243,0.0841372940938881,-0.06831908189003974,-1.079299744476936,-0.3323608937110704,-0.1654362049359326
66.8833,69373.829,-0.5364471357613365,0.8573035089876221,0.17660165743796397,0.020799348750186138,0.03081226501607795,0.010404923948165579,-1.519655082355089,-0.16624873356899242,0.07055940234342109
66.9046,69373.849,-0.512020366999918,0.8270257425350177,0.21708244282417738,0.06385632726812211,0.0471300378547885,0.007193804129435729,-1.3573988762214038,-0.2827203458806483,0.4095391762188348
66.9228,69373.8689,-0.47798438602886173,0.8126814086003037,0.23349114896547596,0.07230300744841395,-0.02954019826284609,-0.005239481341348932,-1.185114213891779,-0.6298516341102577,0.4414431549365212
66.946,69373.889,-0.4340058300325562,0.8116844910338032,0.22710620418514138,0.0734954742821801,-0.01514081874221238,-0.019355858081544067,-1.0476404348288366,-0.4486003166953248,0.20427460726313548
66.9654,69373.909,-0.38348446454374063,0.8198490263717285,0.2020269986482971,0.07038268549808938,-0.012646687708170531,0.054455521504334616,-0.9268460911025767,-0.5826735700518307,-0.10139365942175427
