AppTimestamp(s),SensorTimestamp(s),acc_x,acc_y,acc_z,gyro_x,gyro_y,gyro_z,mag_x,mag_y,mag_z
50.0025,2159.8397,0.3939394194563004,0.1815264229464419,0.3924498320647072,0.0035864057122755953,0.007093574050885491,-0.0189450221847442,-0.2050700547643682,0.12357217232543037,-0.2038588067460715
50.021,2159.8597,0.33174647849236405,0.1639872433029726,0.34984202854853946,0.024639520681035858,0.01992101222665007,-0.02305611449203921,-0.2050700547643682,0.12357217232543037,-0.2038588067460715
50.0434,2159.8797,0.26762207408139727,0.1418649141242938,0.3012868814269317,0.028732310701508577,0.0357077284433819,-0.028777998879257756,-0.2050700547643682,0.12357217232543037,-0.2038588067460715
50.0617,2159.8997,0.1897330559065957,0.11333951937395008,0.24289635099780607,0.0258168507120643,0.016847850926228845,-0.03010118181745434,-0.1003240463632338,0.2158599086735849,-0.22646958832837985
50.0851,2159.9197,0.0992517778272238,0.07403687552259168,0.17365318069971736,0.04117831510576196,-0.007200778713529843,-0.0003517242739817301,-0.06414679583154252,0.15707187655958657,-0.2988240893917624
50.1019,2159.9397,0.00038193199180280857,0.02990530670473958,0.09644713687836706,0.060608914346197126,-0.02998175247923699,0.023657760257006496,-0.10803631001507825,0.16589233710783702,-0.4661438731008308
50.1248,2159.9597,-0.09362735392664119,-0.019285684010740316,0.01776260882222866,0.06209316847468221,0.002883834561974755,0.005284239143224047,-0.08798442452027946,0.29580802317878546,-0.2852576204423782
50.1407,2159.9797,-0.17412372221397418,-0.06219400871943582,-0.05394170190614453,0.026526155804194776,0.037538980151516826,-0.028825933736212245,-0.08798442452027946,0.29580802317878546,-0.2852576204423782
50.1682,2159.9997,-0.22351404717773649,-0.09661948159223732,-0.11080518369980183,-0.014061699125394402,0.06470174441209925,-0.049242112858140286,-0.08798442452027946,0.29580802317878546,-0.2852576204423782
50.1941,2160.0197,-0.2479883148690634,-0.12204581732649651,-0.14832184340203972,-0.03268671906223023,0.09091365180945746,-0.039329093996825375,-0.12416167505197075,0.3545960552927838,-0.21290311937899561
50.203,2160.0397,-0.2566184750764664,-0.14071250210622752,-0.16661142272190752,-0.0185753787671848,0.09456272383000863,-0.002317053409115833,-0.05180717398858818,0.23701999106478716,-0.3576121215057607
50.2296,2160.0597,-0.23387624814425778,-0.1440924423687341,-0.16940619145262723,-0.018471108962611834,0.09523828539757757,0.009016826966831237,-0.05180717398858818,0.23701999106478716,-0.3576121215057607
50.2476,2160.0797,-0.1905718413998404,-0.13011356324010853,-0.16346202697235654,-0.04153935090865449,0.07293167855989688,0.016449895304198756,-0.05180717398858818,0.23701999106478716,-0.3576121215057607
50.2616,2160.0997,-0.1292622727793093,-0.09709215137608491,-0.15624504457254565,-0.05432067461832969,0.07965882958811908,0.00627956574847719,-0.08798442452027946,0.29580802317878546,-0.2852576204423782
50.2858,2160.1197,-0.05164027976830679,-0.041689670039939716,-0.15423540632140906,-0.05525310275368207,0.11659777530806673,-0.01745497167847019,-0.1003240463632338,0.2158599086735849,-0.22646958832837985
50.3039,2160.1397,0.024174446949028316,0.024262298789652484,-0.16110700298286032,-0.060632073216115814,0.12296860230952154,-0.02446386175335363,-0.1365012968949251,0.27464794078758326,-0.15411508726499729
50.3226,2160.1596,0.09017078749173621,0.09530375243403867,-0.17634594902564585,-0.06594899529264375,0.08494360068387943,-0.0097437907276403,-0.00791765980505043,0.22819953051653924,-0.19029233779668855
50.3423,2160.1796,0.13767096462530212,0.16132676021305248,-0.19484902973208904,-0.06985313007258652,0.03991781970128642,0.020672232656878713,-0.00791765980505043,0.22819953051653924,-0.19029233779668855
50.3688,2160.1996,0.1611103071923576,0.2147251002399735,-0.20760586857358973,-0.0483709255388546,0.048371737333972056,0.0034401037973711083,-0.02025728164800477,0.1482514160113386,-0.13150430568269023
50.3836,2160.2196,0.1584211682363387,0.23816892088364344,-0.20315366564537804,-0.06716163538479882,0.04126039083363142,-0.015380206360477716,0.015919968883686516,0.08946338389734025,-0.2038588067460728
50.4069,2160.2396,0.13162741210852122,0.23980661693155175,-0.17138682993081103,-0.11648937973267888,0.010009225398936531,-0.03912921468763777,0.015919968883686516,0.08946338389734025,-0.2038588067460728
50.4231,2160.2596,0.08550622017954981,0.2008345151171828,-0.10553478048640905,-0.14622154161529094,-0.001762261541818838,-0.07905216729625349,0.0759348481041139,-0.1080607948358521,-0.2897797767588391
50.4444,2160.2796,0.0355380298144142,0.14150986961258666,-0.007263571939714039,-0.15985500175683964,0.04245336118819775,-0.1319247667326879,0.16834123466229725,-0.09572117299289776,-0.2536025262271478
50.4646,2160.2996,-0.012034008455637596,0.05713294733390968,0.11388506897534896,-0.1704260629759074,0.07604883566918282,-0.13832994893932374,0.20451848519398724,-0.154509205106894,-0.32595702729052783
50.489,2160.3196,-0.046801058208150295,-0.032984127799891017,0.24002573998351126,-0.13630332128578718,0.1036893804227375,-0.08631475034049038,0.3331021222838586,-0.20095761537793846,-0.3621342778222204
50.5016,2160.3396,-0.07173694963908599,-0.1292800082275158,0.34960899746548185,-0.08613104009364661,0.08309567348550909,0.005314085374912699,0.3331021222838586,-0.20095761537793846,-0.3621342778222204
50.5305,2160.3596,-0.0761170931520514,-0.19694103891354103,0.422958057307125,-0.030937379446335116,0.044930974933627896,0.0647628045267452,0.4016708801533046,-0.049881846915787974,-0.31239055834114277
50.5484,2160.3796,-0.0510365688926156,-0.2255744731517203,0.44756090392267034,0.005151390141996279,0.029810474352589378,0.07567431550273478,0.4016708801533046,-0.049881846915787974,-0.31239055834114277
50.5619,2160.3996,-4.7343439475378e-05,-0.208544415439194,0.4204983798477706,0.015518713923088501,0.061153573208314514,0.057077852082550784,0.4016708801533046,-0.049881846915787974,-0.31239055834114277
50.5856,2160.4196,0.0667135085100774,-0.1608229226970388,0.34807249187861017,0.028439861446919762,0.09291795848208871,0.05207589498091289,0.4702396380227491,0.10119392154636277,-0.2626468388600711
50.6061,2160.4396,0.1336028773813391,-0.08952898123179562,0.24441097079456955,0.035441157364855105,0.09887585261544378,0.0439911839183433,0.5064168885544391,0.04240588943236651,-0.33500133992345116
50.6231,2160.4596,0.186320237751975,-0.010406349268323917,0.12786988123268295,0.055440236786169446,0.06728859855580799,0.0374327006125794,0.5425941390861303,-0.016382142681631823,-0.4073558409868337
50.6432,2160.4796,0.2190038860106128,0.05865614355184108,0.01727672140825766,0.051149177047754665,0.041275320630732006,0.03026010847904006,0.41401050199625894,0.030066267589412617,-0.3711785904551411
50.6701,2160.4996,0.22994785460423142,0.1073470012186205,-0.07147506742929965,0.035789407380732836,0.018748696339642462,0.013020291953794469,0.5787713896178216,-0.07517017479563017,-0.4797103420502163
50.6859,2160.5196,0.2187700944744667,0.1359420197935295,-0.12811258300039685,0.022762858848022753,0.00600308770529636,0.003346042945988711,0.5425941390861303,-0.016382142681631823,-0.4073558409868337
50.7048,2160.5396,0.1918153169094486,0.1385891644550033,-0.14929136903695442,0.013369218745284671,-0.015454747127754258,0.01271142867738016,0.6350005256443136,-0.004042520838677483,-0.3711785904551424
50.7322,2160.5596,0.153555937966339,0.1186009394087383,-0.13845057612707803,0.006203785072220958,-0.02962966740902572,0.0189596920598348,0.6111628969555768,0.13469362578052146,-0.35761212150575816
50.7459,2160.5795,0.1147620496752326,0.08443203525964069,-0.10464433038483875,0.005234094339794038,-0.04309516996883198,0.024343319154582037,0.5749856464238867,0.1934816578945177,-0.2852576204423782
50.7668,2160.5995,0.0756673452470914,0.043813802205820984,-0.05956004595195874,0.01139383140148525,-0.0390422426940802,0.034260860172213414,0.5749856464238867,0.1934816578945177,-0.2852576204423782
50.7931,2160.6195,0.03954688959886132,0.005324715949851386,-0.015215245567133037,0.003986049889941362,-0.040450847737821385,0.04014599440245621,0.45874163117696604,0.3198781826707595,-0.3078684020246832
50.8071,2160.6395,0.013861154463809505,-0.02249813079111552,0.018714423334775562,0.003724884128150683,-0.027806453374911524,0.03650023198012507,0.44640200933401214,0.23993006816556173,-0.2490803699106869
50.8206,2160.6595,-0.006913412706830796,-0.03805405174979862,0.03703007385099366,0.009784242379438328,-0.017191660533253956,0.03766378280035058,0.4263501238392133,0.11001438209461324,-0.4299666225691395
50.842,2160.6795,-0.025523849799401296,-0.04293103415873382,0.03939546124004176,0.01554174263139271,-0.008532598442679819,0.026748654099307823,0.33394373728102994,0.0976747602516589,-0.4661438731008307
50.8645,2160.6995,-0.041002754472631395,-0.03867502810141012,0.029871040785536054,0.013150936522843597,0.001014961483712485,0.019482001114386086,0.35778136596976684,-0.04106138636754006,-0.47971034205021496
50.8945,2160.7195,-0.05365914009740409,-0.03087836618588822,0.015310806223588061,0.008098994553787311,-0.004831882816571045,0.02086351986906503,0.3816189946585038,-0.17979753298673898,-0.4932768109995992
50.9185,2160.7395,-0.06355586983967139,-0.022886153852978715,0.0029401552481840565,0.015722515903153614,0.005157394990708705,0.013186707306240246,0.3816189946585038,-0.17979753298673898,-0.4932768109995992
50.9336,2160.7595,-0.06919934551622209,-0.018394620542755518,-0.002104855698724137,0.006183193802418613,0.007822543404403087,0.023126859105453933,0.28921260810032373,-0.1921371548296929,-0.5294540615312892
50.9484,2160.7795,-0.0696618801644595,-0.020053841175610217,0.0014780718766609635,-0.0018528843531652305,-0.012022579592773168,0.0453636583603893,0.25303535756863244,-0.13334912271569457,-0.4570995604679066
50.9695,2160.7995,-0.06615308711948359,-0.027037560817806918,0.010671327770965564,-0.0058902731881963055,0.0012519272641523273,0.0376316754905037,0.1930204783482055,0.06417505601750066,-0.3711785904551424
50.9904,2160.8195,-0.0577531563753035,-0.03554066544977242,0.01916071112856986,-0.003785524165595744,0.002340460102426417,0.030198154937504537,0.21685810703694114,-0.07456109060169623,-0.3847450594045241
51.0009,2160.8396,-0.04489931599158349,-0.04133823706003112,0.019743842016352958,0.002684684492656379,-0.0022961289672332828,0.030455917847542837,0.19680622154214036,-0.20447677667264724,-0.5656313120629805
51.0261,2160.8596,-0.03364836684448319,-0.04490386892421082,0.0073596206820056576,0.009974617073916343,0.007320230588219277,0.030502948273234035,0.14828934916749517,-0.2256368590638467,-0.43448877888560167
51.0415,2160.8796,-0.023166898701219588,-0.038568928253641215,-0.018520248450702936,0.018220759860204747,0.024920248560500624,0.04058735685894283,0.27687298625736984,-0.2720852693348907,-0.47066602941729296
51.0632,2160.8996,-0.015037929379948786,-0.02561403599982072,-0.05293276522116375,0.02842756579946014,0.035521688909210605,0.044678551678445415,0.2283561138827242,-0.29324535172609295,-0.339523496239912
51.0919,2160.9197,-0.009733858415902186,-0.005332834407431118,-0.08671135375231803,0.006060324861897786,0.015968455432749426,0.034179009142885464,0.17212697785623213,-0.36437300568304565,-0.4480552478349859
51.1067,2160.9397,-0.0016663885669278844,0.01934150212166598,-0.10960050285301354,-0.025696730749354253,0.0018374208010339922,0.03738340910872997,0.14828934916749517,-0.2256368590638467,-0.43448877888560167
51.1287,2160.9597,0.006681339846892703,0.03967634774860579,-0.11360022226999325,-0.04071957309310287,-0.004140460390374512,0.04064433602853025,0.14828934916749517,-0.2256368590638467,-0.43448877888560167
51.1437,2160.9798,0.02076107345394762,0.04731613225544448,-0.09587836479291023,-0.021219416964450125,-0.0049807140994352125,0.024900448812770072,0.20451848519398724,-0.154509205106894,-0.32595702729052783
51.1614,2160.9998,0.03639646332013402,0.04221223180905098,-0.05951958236954513,-0.009087232989171348,-0.006913013059263227,0.03000731994094987,0.16834123466229725,-0.09572117299289776,-0.2536025262271478
51.1852,2161.0198,0.050418384054192605,0.02817273554430988,-0.012658894571681442,-0.0117254221893709,-0.000785955608938955,0.021166956557899585,0.16834123466229725,-0.09572117299289776,-0.2536025262271478
51.2032,2161.0398,0.0605065913206638,0.009876860606577283,0.03391655300090096,-0.020525732214130538,0.0013020481812954536,0.0024104088041128576,0.13216398413060598,-0.03693314087889942,-0.18124802516376526
51.2241,2161.0599,0.0635022859132614,-0.007161188870848316,0.06979306130992956,-0.014821089956878553,-0.013630495486739025,0.0030493894916288483,0.11982436228765163,-0.11688125538410005,-0.12245999304976692
51.2412,2161.0799,0.05909455638975092,-0.020671080486799918,0.08776865511035337,0.003747116232085078,-0.02050883054380492,0.006948392667681822,0.1560016128193429,-0.17566928749809838,-0.1948144941131495
51.2634,2161.0999,0.0485134687801172,-0.029002481586372118,0.08597582109969726,0.030923936057290175,0.0015325872402367972,0.009372720668936749,0.2160164920397703,-0.37319346623129074,-0.28073546412591577
51.2859,2161.12,0.03394606802893632,-0.031234753374008516,0.06852971369576656,0.029915583220053173,0.014701160600746933,0.0260318923231487,0.1921788633510329,-0.23445731961209462,-0.2671689951765295
51.3179,2161.14,0.01830544668641501,-0.03151662551397202,0.04423288814719166,0.013614839573810694,0.007597369025890954,0.02956867077825312,0.11982436228765163,-0.11688125538410005,-0.12245999304976692
51.3288,2161.16,0.004180039569553706,-0.025020408424602215,0.02356523640184996,0.016839230895323888,0.0052389831284320116,0.018737201969064903,0.1560016128193429,-0.17566928749809838,-0.1948144941131495
51.3411,2161.18,-0.007095365578201701,-0.024330282753793817,0.014952401674040161,0.017241816599633978,-0.0011239686410718871,0.00807621845300728,0.09977247679284955,-0.24679694145504896,-0.3033462457082208
51.3653,2161.2001,-0.015591213464440784,-0.031978439314051116,0.02166366359860676,-0.007919674892097814,-0.008349044967007719,-0.0028633298921443623,0.09977247679284955,-0.24679694145504896,-0.3033462457082208
51.3876,2161.2201,-0.022215563335501884,-0.050857743955222516,0.04061690231075696,-0.017183027038275935,-0.021779847729468275,-0.0033408695991626815,0.06359522626115956,-0.18800890934105272,-0.23099174464484076
51.4015,2161.2401,-0.026776188580447696,-0.07804191579304981,0.06361084578053885,0.018191352688687677,-0.007490714785784141,0.01625318150443269,0.09977247679284955,-0.24679694145504896,-0.3033462457082208
51.4213,2161.2602,-0.028245460789164886,-0.10822507676315751,0.08055478222861306,0.04473673058186841,0.021219296137797168,0.021388090001774544,-0.004973531608287718,-0.3390846778032011,-0.28073546412591577
51.4473,2161.2802,-0.02430691403905999,-0.13532071189515502,0.08322726723244256,0.04314824384156778,0.027023087090785682,0.01334905271800121,0.031203718923403564,-0.3978727099171994,-0.35308996518929836
51.464,2161.3002,-0.018547894535974885,-0.14602891486374192,0.06811377251558365,0.0441720134761864,0.03544446143453043,0.001117072097604916,-0.01731315345124206,-0.4190327923084017,-0.22194743201191744
51.4892,2161.3202,-0.004942787312453789,-0.1475189848150834,0.036460098168969154,0.054041597679348914,0.029553887104391344,0.006608778728315575,-0.10971954000942212,-0.43137241415135563,-0.2581246825436075
51.507,2161.3403,0.011244390755015099,-0.13504208770589782,-0.006621510599830641,0.04208454211240434,0.021949102400676275,0.00933835228093164,-0.21446554841055987,-0.5236601504995105,-0.2355139009613004
51.5251,2161.3603,0.03258924443416161,-0.11552940970181541,-0.05510115123261164,0.029442373965309247,0.027760125639705806,0.00421113144932777,-0.14589679054111213,-0.3725843820373594,-0.18577018148022748
51.5457,2161.3803,0.05801189696615572,-0.09268423238807932,-0.10380613760102683,0.01891726915938827,0.00797217094932739,0.012497078467979891,-0.1820740410728034,-0.31379634992336103,-0.1134156804168449
51.5639,2161.4003,0.0857717347472457,-0.06802516900949851,-0.14923283804436124,0.020342491322683533,-0.016861315066027414,0.02578543480390156,-0.2544285421361847,-0.19622028569536645,0.031293321709917665
51.5852,2161.4203,0.11389635968174219,-0.04472276454819972,-0.18881706551384772,0.025946496743349094,-0.016350323874608948,0.021413866292778375,-0.2544285421361847,-0.19622028569536645,0.031293321709917665
51.6138,2161.4403,0.1400567673221854,-0.025957137914089115,-0.21936902390483112,0.03256773566196679,-0.009307337117362703,0.01055752562384962,-0.26676816397913905,-0.2761684002005671,0.090081353823916
51.6397,2161.4603,0.1606103762478894,-0.009215086913199718,-0.23598986830917992,0.034976693413578015,-0.011554393463730947,0.015287701130868189,-0.26676816397913905,-0.2761684002005671,0.090081353823916
51.6505,2161.4803,0.17314868768779954,0.008202258677380482,-0.23261637053998532,0.03401982801166862,-0.030301987185628168,0.020754083686206664,-0.3029454145108303,-0.21738036808656874,0.16243585488729856
51.6625,2161.5003,0.17743779000607948,0.01891318705122328,-0.20412390108797204,0.004212969847672503,-0.05686459266913449,0.014759061057473863,-0.4438686734436576,-0.2508800723207246,0.25740113753298355
51.6913,2161.5203,0.16752844341310172,0.022118001426649284,-0.14901450097036742,-0.0022331173306691645,-0.09326345100432927,0.020005666815832317,-0.3391226650425203,-0.1585923359725725,0.23479035595067857
51.7029,2161.5403,0.16181482192304183,0.012531314314709684,-0.07249158592601715,0.006016891505605617,-0.10964721536327578,0.02646873262331886,-0.4800459239753489,-0.19209204020672627,0.3297556385963661
51.7217,2161.5603,0.1497080718432389,-0.009450270342778719,0.015067747688049651,0.04448291002659921,-0.10221199545989038,0.04050369696708829,-0.3752999155742116,-0.09980430385857415,0.30714485701406113
51.7439,2161.5803,0.1340708196485549,-0.03903017506305172,0.09896759811670226,0.09571514592176003,-0.07650562878952673,0.06127938751617501,-0.503883552664085,-0.05335589358753224,0.3433221075457499
51.7633,2161.6003,0.11718204848938099,-0.06013937044685812,0.16452324380839936,0.12271717536674756,-0.08784642663763145,0.06710573371430381,-0.41147716610590157,-0.0410162717445779,0.3794993580774411
51.789,2161.6204,0.09477644541054592,-0.07385312885186741,0.20113028691347276,0.08674232849310085,-0.08092980046795555,0.023237199719575594,-0.41147716610590157,-0.0410162717445779,0.3794993580774411
51.8087,2161.6404,0.0663962417024625,-0.06991108082592772,0.20470693677119126,0.09575674619976911,-0.06550572924129146,-0.001676716074704893,-0.44765441663759287,0.017771760369420436,0.4518538591408237
51.8246,2161.6604,0.028491736221627623,-0.05580863934636182,0.17854324472137606,0.1349027675874929,-0.06260676399634264,0.010482457828996358,-0.45999403848054676,-0.06217635413577735,0.51064189125482
51.847,2161.6804,-0.016996221559541086,-0.04563989297940252,0.13188615791546457,0.12590870588038877,-0.052861413722298425,0.01664253916328002,-0.42381678794885547,-0.1209643862497757,0.43828739019143736
51.8635,2161.7005,-0.06828857776173479,-0.030072774682803616,0.07710547965911846,0.08383963578206437,-0.04781417481252125,-0.0009052362071165969,-0.42381678794885547,-0.1209643862497757,0.43828739019143736
51.8945,2161.7205,-0.1158373686113319,-0.019405253299682318,0.025808069604832853,0.03171393345177824,-0.057789908525806316,-0.02645044502317509,-0.42381678794885547,-0.1209643862497757,0.43828739019143736
51.9079,2161.7405,-0.1557375219382794,-0.014104661272835519,-0.014127213102706135,0.00384324728164833,-0.05571254349934521,-0.03364293464450687,-0.45999403848054676,-0.06217635413577735,0.51064189125482
51.9216,2161.7606,-0.1785142197633444,-0.018462272619426717,-0.04001621349823625,0.004467384845000003,-0.04627426703979167,-0.01650893657706647,-0.42381678794885547,-0.1209643862497757,0.43828739019143736
51.9444,2161.7806,-0.1786461282222528,-0.030113319525416418,-0.05369748739391755,0.01459836665201084,-0.02722211247618428,9.642141697958983e-05,-0.45999403848054676,-0.06217635413577735,0.51064189125482
51.9721,2161.8007,-0.15463011335198598,-0.04511679876900242,-0.05948050906548083,0.018151228133080996,-0.014904262382923287,0.001995274854261708,-0.29523315085898544,-0.16741279652081803,0.4021101396597474
51.9861,2161.8207,-0.10906780165661879,-0.053240406737583616,-0.06185713584107225,0.012228176757447091,-0.013905553897518193,0.008352974419574714,-0.36380190872842855,-0.3184885649829709,0.35236642017867315
52.0097,2161.8408,-0.04906437781181479,-0.05185859822882602,-0.06409673867301774,0.003059580508069888,-0.03390533499228023,0.0031294316584302125,-0.39997915926011984,-0.25970053286897254,0.4247209212420557
52.0247,2161.8609,0.016415259912519603,-0.04129965873729402,-0.06802992833194094,-0.007870946440513144,-0.036676978700832814,-0.010214547200183924,-0.3075727727019398,-0.24736091102601865,0.4608981717737457
52.0462,2161.8809,0.0757942371926531,-0.021163751773865015,-0.07449561119368003,-0.02288313696529316,-0.04800966909806529,-0.015271222393251,-0.3075727727019398,-0.24736091102601865,0.4608981717737457
52.0647,2161.901,0.12041960550570549,0.002544418454550286,-0.08383388992466284,-0.021454716414377677,-0.056609602493302956,-0.019386384641230825,-0.3075727727019398,-0.24736091102601865,0.4608981717737457
52.0878,2161.9211,0.1433500413909646,0.029799387215238685,-0.09579361659066235,-0.0011028212414603588,-0.055478932149293586,-0.031233529759096264,-0.21516638614375638,-0.2350212891830643,0.497075422305437
52.1075,2161.9411,0.1405199569579875,0.056447506930131286,-0.10902910318140674,-0.007145351515053618,-0.049859820454704544,-0.03629110938342663,-0.21516638614375638,-0.2350212891830643,0.497075422305437
52.126,2161.9612,0.112807776695904,0.08180457068547368,-0.12082857763328894,-0.02109025561880849,-0.06140185128610287,-0.03725794640388607,-0.3075727727019398,-0.24736091102601865,0.4608981717737457
52.1612,2161.9813,0.0652166427649932,0.11331155140025427,-0.12743598162633124,-0.02592531765060744,-0.0837861254844296,-0.037534250154821855,-0.2875208872071377,-0.11744522495506973,0.6417844244321996
52.1716,2162.0014,0.01016746103601332,0.12563784617264318,-0.12435150244810053,-0.03280383214296701,-0.10146728943434527,-0.03082291796556157,-0.15893725011726303,-0.16389363522611372,0.6056071739005082
52.1918,2162.0215,-0.04608795263956239,0.1374064681638525,-0.10840318775697774,-0.06618510039745835,-0.09211272852079685,-0.03653892354956871,-0.2513436366754464,-0.17623325706906806,0.569429923368817
52.2114,2162.0416,-0.0937412881739123,0.13807584174835846,-0.07800379282509223,-0.07894133142678476,-0.07804010309814141,-0.040848086303524725,-0.2513436366754464,-0.17623325706906806,0.569429923368817
52.2263,2162.0617,-0.12753381460567048,0.12329839425932808,-0.034225267966827344,-0.062223072152732116,-0.06641352441847695,-0.026732627577322286,-0.2875208872071377,-0.11744522495506973,0.6417844244321996
52.2485,2162.0818,-0.14870647035323128,0.10455880895757659,0.01894629769005296,-0.04102160925886079,-0.07590340162101789,-0.01855204680084371,-0.23900401483249206,-0.09628514256386746,0.5106418912548186
52.2668,2162.1019,-0.15910104883214318,0.07699224925551508,0.07567238327953806,-0.046282888247553416,-0.036637573264392376,-0.05562920643951029,-0.27518126536418336,-0.037497110449869114,0.5829963923182012
52.2961,2162.122,-0.1618653481327283,0.05342900181411689,0.12867701809558976,-0.05679828887287885,-0.02590129724823853,-0.057779491767987655,-0.2990188940529207,0.10123903616932702,0.5965628612675875
52.3049,2162.1421,-0.16948484104790418,0.01682235747528868,0.17089157207358696,-0.017915244592315596,-0.04264874420415383,-0.04330587826152147,-0.2990188940529207,0.10123903616932702,0.5965628612675875
52.3244,2162.1622,-0.1763634807625481,-0.013493541916381219,0.19622238246970725,0.01105829309178998,-0.025061992940825388,-0.03720684603751006,-0.26284164352122946,0.04245100405532867,0.524208360204205
52.3463,2162.1823,-0.183547221926722,-0.03729772645114462,0.20127350684128686,0.02024066311617837,-0.015703344230456523,-0.02670278134563364,-0.21432477114658383,0.06361108644653098,0.3930658270268241
52.3648,2162.2023,-0.18964885429375408,-0.04957160566234762,0.18600825911957056,0.019341405444451003,-3.955051389954831e-05,-0.02637628165958513,-0.1781475206148938,0.004823054332534733,0.3207113259634441
52.3894,2162.2224,-0.1882019736361223,-0.04908069635365712,0.15393615644264105,0.01734017913812064,0.010243692233887288,-0.01799989151460378,-0.21432477114658383,0.06361108644653098,0.3930658270268241
52.407,2162.2424,-0.1805683789376108,-0.036664019360677716,0.11137268032223095,0.020613068017457038,0.017141497804965645,-0.0017065623063935512,-0.20198514930362949,0.14355920095173158,0.3342777949128257
52.4266,2162.2625,-0.16277148437359598,-0.017377532504035918,0.06616388962093936,0.02321754539839645,0.0232854720609391,0.016551191605687486,-0.09723914090249221,0.2358469372998837,0.31166701333052077
52.4447,2162.2826,-0.1354637529040432,0.006130367754296581,0.02586109409414776,0.02774866781073502,0.022181148140888934,0.022243229761217384,-0.15346827692898557,0.16471928334293312,0.2031352617354495
52.4667,2162.3026,-0.10044246330925749,0.030162155976141983,-0.004067408685547447,0.01788325595986658,0.006608692398550137,0.029120072871660154,-0.14112865508603123,0.24466739784813374,0.14434722962145116
52.4929,2162.3227,-0.061634634194233595,0.05443355804886038,-0.02152529934385214,0.0036245294558095386,-0.010543377032357165,0.030868338503604112,-0.14112865508603123,0.24466739784813374,0.14434722962145116
52.5101,2162.3428,-0.02044160272365099,0.07843054630605098,-0.028007807617833336,-0.012618325102126222,-0.01193623837571156,0.025564753575658246,-0.17730590561772122,0.30345542996213,0.21670173068483115
52.5272,2162.3628,0.017830243444224597,0.099984680580491,-0.02739929575541275,-0.023190371958445033,-0.012326662234193488,0.029040482920490433,-0.17730590561772122,0.30345542996213,0.21670173068483115
52.5521,2162.3828,0.04757675365750422,0.11784190638488488,-0.023818934519254042,-0.005895509797557479,-0.020272063245635765,0.041614338558411214,-0.16496628377476732,0.3834035444673278,0.1579136985708349
52.577,2162.4029,0.0705427159985561,0.12865840845322857,-0.019431493316525134,0.0034007043216995915,-0.0281184111894285,0.03912082156551442,-0.20114353430645862,0.4421915765813261,0.23026819963421746
52.5918,2162.4229,0.08768500121662981,0.13323213104007486,-0.01317612104501964,0.008129956284433575,-0.018938445628871224,0.012079231224338864,-0.12878903324307733,0.3246155123533315,0.0855591975074549
52.6094,2162.4429,0.09611396143894571,0.12961028693517918,-0.0012450056614798366,0.011050346580931321,0.008924670139319935,-0.006570141424747729,-0.14112865508603123,0.24466739784813374,0.14434722962145116
52.6282,2162.463,0.0974753304110475,0.12027535918350678,0.01999888718268686,-0.005978305669866234,0.014988730046865961,-0.030985263377322537,-0.17730590561772122,0.30345542996213,0.21670173068483115
52.648,2162.483,0.0944739004247096,0.10698504190828138,0.05086439165210456,-0.06875939208441502,0.030879245470507764,-0.09217591714225595,-0.21348315614941252,0.36224346207612834,0.2890562317482137
52.6782,2162.503,0.0994819242343633,0.0994683726517104,0.08589049314450856,-0.10665384989554547,0.039695239413594714,-0.13178910204319405,-0.21348315614941252,0.36224346207612834,0.2890562317482137
52.6939,2162.523,0.08061488682598311,0.06615231024890558,0.11635758096689766,-0.03738384206246162,0.07121147668483349,-0.1388070364307104,-0.08489951905953787,0.3157950518050843,0.2528789812165224
52.7134,2162.5431,0.0548453537202469,0.028607494180495782,0.13020844351431757,0.03454806199103794,0.0769646325978967,-0.09822791894057617,-0.08489951905953787,0.3157950518050843,0.2528789812165224
52.7323,2162.5631,0.015361440515927999,-0.007942485357810718,0.11956056577193155,0.059624873044783255,0.024536064635560538,-0.03126066269699503,0.007506867498642224,0.3281346736480382,0.28905623174821243
52.7495,2162.5831,-0.03239658102616769,-0.03205037559650132,0.08309601605297107,0.06752580958524211,-0.01023420724268509,0.00937136402204181,0.007506867498642224,0.3281346736480382,0.28905623174821243
52.7653,2162.6031,-0.07933908978100798,-0.03906298305999992,0.026674402054870358,0.07175146932788924,0.015355345675513334,-0.015208816636083838,-0.004832754344312116,0.2481865591428376,0.3478442638622108
52.7893,2162.6231,-0.1157907033642695,-0.03392480412944842,-0.039506491459241344,0.036186254141956066,0.023137570352654725,-0.040157553034001085,0.08757363221387125,0.26052618098579194,0.38402151439390203
52.8078,2162.643,-0.1459409714248752,-0.023918190010123318,-0.10504192904785795,-0.006997247755309802,-0.004131739064288238,-0.03537763380750144,0.12375088274556124,0.2017381488717957,0.31166701333052205
52.8264,2162.663,-0.1670025814808597,-0.01950328562915412,-0.16244277741835836,-0.021744444901012374,-0.01374754370252156,-0.0079186484383165,0.26467414167838693,0.23523785310595188,0.21670173068483115
52.8444,2162.683,-0.17737024614609828,-0.02517501093792192,-0.20766214814249181,0.018013351455364687,0.003874787218365711,0.007772781764172724,0.26467414167838693,0.23523785310595188,0.21670173068483115
52.8628,2162.703,-0.17573852435686488,-0.038039081904491116,-0.23860870178342067,0.03913042891327903,0.024299536349254903,0.01608224399567045,0.30085139221007695,0.17644982099195564,0.14434722962145113
52.8981,2162.723,-0.160871562552673,-0.05359834976346422,-0.25311117791181625,-0.0016819960504844854,0.03206472691537062,0.004569738445223154,0.320903277704879,0.30636550706290455,0.325233482279905
52.9165,2162.743,-0.14343886682549478,-0.06382707840469792,-0.24807576863366235,-0.036401252345387734,0.023808518394588404,-0.0035525065147730753,0.320903277704879,0.30636550706290455,0.325233482279905
52.9425,2162.763,-0.12476617555565118,-0.06774364742527311,-0.22038966657724826,-0.03592827077313551,0.007229923339678533,-0.004191939417920707,0.46182653663770756,0.3398652112970584,0.23026819963421746
52.9521,2162.783,-0.10251433256278658,-0.08099118717412032,-0.16916868302127844,-0.06908097801885284,-0.014184427386030775,0.003375436962045717,0.4980037871693976,0.28107717918306213,0.15791369857083745
52.9718,2162.803,-0.07822498542968509,-0.09011760294976881,-0.09745770346155844,-0.08517880715779043,-0.007425455035257226,0.005037781623976901,0.6265874242592689,0.23462876891201767,0.1217364480391449
52.9871,2162.823,-0.04812153335603149,-0.10212972944900892,-0.01299956324709474,-0.05125710824708162,0.013518034234840975,-0.0009332735762786655,0.5703582882327801,0.16350111495506545,0.013204696444072324
53.0113,2162.843,-0.013417966603768289,-0.10612779877904721,0.07313177743317675,-0.040142033062052516,0.04797603705916867,-0.027588219552396778,0.5703582882327801,0.16350111495506545,0.013204696444072324
53.0239,2162.863,0.018091260099148604,-0.11025439447705682,0.14877367417207596,-0.0543973431972473,0.025480916028860184,-0.020653945056734943,0.5264687740492411,0.17232157550331545,-0.15411508726499729
53.0436,2162.883,0.045556158359254306,-0.10611089207651472,0.20355829792914656,-0.03577534143554422,-0.004327336833907307,0.01962083131330145,0.6188751606074244,0.1846611973462698,-0.117937836733306
53.0652,2162.903,0.06760891807773961,-0.09659132662894612,0.23106802486092906,0.011304697036169216,0.010572600649558358,0.031054651343842315,0.5626460245809324,0.11353354338931711,-0.22646958832837985
53.0849,2162.923,0.08430002345556012,-0.07937804370098381,0.23001266130711176,0.03675719787072707,0.03938478679340183,0.015312572990608725,0.5626460245809324,0.11353354338931711,-0.22646958832837985
53.1069,2162.943,0.09441030885902052,-0.05420854514016592,0.20378054700376608,0.0133327609969766,0.029048246713246354,0.007769616254751201,0.5988232751126225,0.05474551127532085,-0.29882408939175986
53.1251,2162.963,0.09617320538056012,-0.022886449890507816,0.15880463703329106,-0.0024198232465209983,-0.01927255389107005,0.010448089440991256,0.5988232751126225,0.05474551127532085,-0.29882408939175986
53.144,2162.983,0.0906697131924967,0.00782660153169918,0.10262050448831526,0.021703058390275535,-0.04029598655086441,0.006669827838587802,0.6350005256443136,-0.004042520838677483,-0.3711785904551424
53.1639,2163.003,0.07952365965841451,0.03223641534949648,0.04270121403206886,0.03846788646517954,0.002093667827416586,0.0034012132530495402,0.6350005256443136,-0.004042520838677483,-0.3711785904551424
53.186,2163.0229,0.06406683749295641,0.04641761531425288,-0.013933415249865147,0.03684662745498339,0.020233213718985323,0.013185802874976957,0.6711777761760049,-0.06283055295267582,-0.443533091518525
53.2084,2163.0429,0.045431755443528815,0.048888369228185485,-0.06077412441897384,0.017747615364461223,-0.012183391633916163,0.013928793157771555,0.6711777761760049,-0.06283055295267582,-0.443533091518525
53.2265,2163.0629,0.0235004720392952,0.03942428161519489,-0.09216944917205686,0.031184795516773153,-0.02363255938142304,-0.002971409428107784,0.6711777761760049,-0.06283055295267582,-0.443533091518525
53.2459,2163.0829,-0.001120462917072601,0.01644512643445288,-0.10438149703097535,0.042556479189175156,-0.0018777953490763009,-0.034379593908458426,0.6711777761760049,-0.06283055295267582,-0.443533091518525
53.2767,2163.1029,-0.027280284440486385,-0.015312484338291316,-0.09704264912768565,0.009601156593788839,-0.01483039613157353,-0.04540551543925448,0.5988232751126225,0.05474551127532085,-0.29882408939175986
53.2903,2163.1229,-0.05909004974433059,-0.05786667633967622,-0.07403587113848145,-0.030374854231669923,-0.04814437854020305,-0.018064558349929174,0.5626460245809324,0.11353354338931711,-0.22646958832837985
53.3083,2163.1429,-0.087539013184675,-0.09984000352392962,-0.04335476082358694,-0.0283430784661492,-0.06365351415917424,0.009069283980102191,0.550306402737978,0.03358542888411651,-0.1676815562143815
53.3297,2163.1629,-0.10502596790565359,-0.13487636717785442,-0.01472183297760904,-0.00356105769542043,-0.028484297911608468,0.008074409590480695,0.6788900398278515,-0.012862981386925395,-0.20385880674607024
53.3469,2163.1829,-0.10464931719000979,-0.15464385947511483,0.0035312100819642617,0.009747364487576708,0.013030766041021184,0.012246551008047932,0.6427127892961614,0.04592505072707085,-0.13150430568269023
53.365,2163.2029,-0.08644233375818579,-0.1507495875641956,0.007232753934025754,0.0218702774805085,0.023498532427507015,0.03006429911053728,0.7112815471656045,0.19700081918922369,-0.08176058620161598
53.3852,2163.2229,-0.05342691287642959,-0.11950463886391072,-0.0026454601298382396,0.005154755240374735,-0.014936243932275607,0.033516513242523874,0.6989419253226502,0.11705270468402308,-0.022972554087617652
53.4036,2163.2429,-0.010142991967659387,-0.06388580883191282,-0.020903303851682847,-0.018288523694748673,-0.03609591566270008,0.019568826515662146,0.6989419253226502,0.11705270468402308,-0.022972554087617652
53.4253,2163.2629,0.0363503921493292,0.004983008942712683,-0.03999474309001874,-0.013527298037816543,-0.008854157355214784,0.015004614145457708,0.5703582882327801,0.16350111495506545,0.013204696444072324
53.4446,2163.2829,0.08328070262273102,0.06865073270065698,-0.05180017708048254,-0.02965602414839997,-0.03815122742551672,0.020613444624764717,0.5580186663898262,0.08355300044986765,0.07199272855806857
53.4668,2163.3029,0.12788067740243,0.11059519100621927,-0.04873099273411324,-0.01060315750390584,-0.06332088572281969,0.01428287799735048,0.5218414158581349,0.142341032563866,0.14434722962145113
53.4892,2163.3229,0.17300406554193123,0.11939265510687698,-0.02495474345505383,0.044974934799504464,-0.04352528571586143,-0.022979237834659372,0.5341810377010888,0.22228914706906377,0.08555919750745489
53.5036,2163.3429,0.2129113694937839,0.09436957910185238,0.022286927036371765,0.053687203447465116,-0.02645272226879749,-0.06963115904216954,0.46561227983164283,0.0712133786069133,0.0358154780263773
53.5252,2163.3629,0.25132761364188483,0.04284428957283068,0.08963225366843666,0.010793467229591371,-0.05723915091475265,-0.09139765404019295,0.42943502929995153,0.13000141072091165,0.10816997908975987
53.5491,2163.3829,0.27723789807940225,-0.023010163007791018,0.16587938331883045,-0.04123058287237587,-0.1506988194990559,-0.07355186856854154,0.42943502929995153,0.13000141072091165,0.10816997908975987
53.5648,2163.4029,0.29580906870751844,-0.09890978101608451,0.23023202373015755,-0.03352039070558535,-0.21537788177009046,-0.01545889188038415,0.4779519016745968,0.1511614931121111,-0.022972554087618943
53.5889,2163.4229,0.29837434442737654,-0.1597703065904429,0.2575277944713197,0.0033997323898758993,-0.21077558180021502,0.047385966665110836,0.34936826458472214,0.1976099033831551,0.013204696444072328
53.6077,2163.4429,0.2986470856107952,-0.1904856559111998,0.22562951399483844,0.07797211948634966,-0.14311696083198486,0.031385673186207295,0.3617078864276765,0.27755801788835566,-0.045583335669926006
53.6271,2163.4628,0.2793984127903798,-0.17603964515748283,0.12806448314698146,0.14660669360668888,-0.08528564377753609,-0.011677012552927525,0.26930149986949636,0.26521839604540176,-0.081760586201616
53.6582,2163.4828,0.22542795485772152,-0.12485352972418562,-0.021321919273236345,0.14389739398217397,-0.08316678188769937,-0.029113090662307536,0.26930149986949636,0.26521839604540176,-0.081760586201616
53.6685,2163.5028,0.11220364453271481,-0.02363874143014242,-0.18929399458084253,0.09376713999322192,-0.1339538691556523,-0.02557359891341324,0.30547875040118766,0.20643036393140346,-0.15411508726499856
53.6844,2163.5228,-0.051799388329365384,0.07751175233795929,-0.3350438876286759,0.039753636330951976,-0.19371692570446364,-0.009081294827278711,0.17689511331131302,0.2528787742024474,-0.11793783673330728
53.7043,2163.5428,-0.2521685481312888,0.154304162987645,-0.42077267674435137,-0.029000665012279797,-0.212949936021712,0.012691078973956089,0.26930149986949636,0.26521839604540176,-0.081760586201616
53.726,2163.5628,-0.4570057393007877,0.18776128779145806,-0.4231006399343069,-0.086371099494778,-0.19783047998765238,0.013930149804666489,0.26930149986949636,0.26521839604540176,-0.081760586201616
53.7444,2163.5828,-0.6276502232577642,0.16526953450720167,-0.3380996862747121,-0.11627514012762029,-0.14442766395928372,-0.003888954944717805,0.24546387118075944,0.40395454266460074,-0.06819411725223179
53.7637,2163.6028,-0.7431557455073498,0.09754520032055049,-0.18278557174074875,-0.139866243497213,-0.019662120983695564,-0.06048781118591636,0.2939807435554046,0.42511462505580017,-0.1993366504296106
53.7854,2163.6228,-0.7915265439966567,5.7260750979580555e-05,0.010442112641043652,-0.12497811671105312,0.08573967298879463,-0.08548629130331468,0.20157435699722126,0.4127750032128458,-0.23551390096130187
53.8053,2163.6428,-0.7796676675205106,-0.11447996420070251,0.20204039699090715,-0.0558279103442011,0.12181558764266011,-0.04477241355494988,0.30632036539835894,0.5050627395610008,-0.25812468254360893
53.8305,2163.6628,-0.7137361916237867,-0.2257857187271181,0.35610159299234856,-0.025856262364730192,0.1047066596760199,0.0161925846097921,0.34249761593005024,0.4462747074470025,-0.33047918360699147
53.8508,2163.6828,-0.6043255890663429,-0.3149123904306153,0.4470958263543008,0.01000338290936804,0.08813098610561027,0.06870838591285772,0.4710812530199204,0.39982629717596013,-0.3666564341386815
53.8654,2163.7028,-0.4565270156205189,-0.3624764455933551,0.46306731717056526,0.05958069946246719,0.12454659670682415,0.05799404095226585,0.5072585035516116,0.3410382650619618,-0.4390109352020641
53.8869,2163.7228,-0.2756497523404214,-0.37178361337614074,0.40337667129005017,0.0666122119940736,0.17368038884296372,0.004699524331505585,0.5434357540833017,0.28225023294796553,-0.5113654362654441
53.9104,2163.7428,-0.0838207891654835,-0.33887158074224283,0.27704476433729675,0.06018057654356876,0.19114429645003414,-0.01860721710790454,0.635842140641485,0.29458985479091987,-0.47518818573375277
53.9318,2163.7628,0.08780143534107251,-0.26871152084205013,0.10128731009031826,0.07349450283323615,0.1663191662293246,-0.020485720841762586,0.599664890109795,0.3533778869049161,-0.4028336846703728
53.9446,2163.7828,0.2135836940587281,-0.16613805439445323,-0.09990547935677685,0.0934172712484244,0.13247841755464373,-0.004133151385806722,0.6481817624844389,0.37453796929611766,-0.533976217847749
53.9943,2163.8028,0.3278932322605044,-0.07854277252156441,-0.3012541027785651,0.09217387078181397,0.10823894331288567,-0.0061785226877421814,0.6481817624844389,0.37453796929611766,-0.533976217847749
53.9979,2163.8228,0.36036220492159643,0.04260545417429748,-0.47116505160520705,0.04585545054567736,0.08041887619660762,-0.023609174209542436,0.6481817624844389,0.37453796929611766,-0.533976217847749
54.0099,2163.8428,0.36051618229199733,0.14679243238308487,-0.5872003084787589,-0.01583972595692522,0.038874788013336804,-0.049408075994954406,0.7405881490426223,0.386877591139072,-0.4977989673160577
54.0292,2163.8628,0.33296813787815316,0.22817225713606348,-0.6316086306422128,-0.06841337596260987,-0.024195530727425626,-0.07764668111309729,0.7405881490426223,0.386877591139072,-0.4977989673160577
54.0454,2163.8829,0.28327914320172976,0.268553738238025,-0.5966566366667585,-0.10261013022269397,-0.07019955505478898,-0.05905293098670318,0.7405881490426223,0.386877591139072,-0.4977989673160577
54.0656,2163.9029,0.2213348024684044,0.272117134901689,-0.48726561703121685,-0.11960751006406081,-0.09075881281256784,-0.02719976632481275,0.7282485271996684,0.3069294766338742,-0.43901093520206147
54.0858,2163.9229,0.15730965450670972,0.23857634213339834,-0.3191791701129503,-0.13872075866541325,-0.11253728383537011,-0.018218311664688867,0.8768840497843418,0.3903967524337787,-0.29430193307530017
54.1083,2163.943,0.09683022475060932,0.1816338026273578,-0.11625979176028944,-0.14117753026342755,-0.12311877998859685,-0.013392266443761312,0.8768840497843418,0.3903967524337787,-0.29430193307530017
54.1274,2163.963,0.047103780033212916,0.10611733962684249,0.09438607071899635,-0.11403464775173594,-0.10484471407009575,-0.01296854039690889,0.7844776632261584,0.37805713059082435,-0.33047918360699147
54.1494,2163.983,0.00288394343833831,0.031542932021165676,0.28689511584001715,-0.07578151841031085,-0.07193354924991155,-0.0256545455114779,0.7483004126944671,0.4368451627048227,-0.25812468254360893
54.1692,2164.003,-0.038131664300861096,-0.03757645221550242,0.440811620649588,-0.05276450667953352,-0.057112443312424696,-0.028717401984617166,0.8407067992526505,0.44918478454777705,-0.2219474320119176
54.1933,2164.0231,-0.07985081369214579,-0.09086430695652611,0.5433409147126398,-0.020728878563493085,-0.05014783900099041,-0.01667218642009073,0.8407067992526505,0.44918478454777705,-0.2219474320119176
54.2091,2164.0431,-0.12042772322414688,-0.1281265788809174,0.5899459676436037,0.022914983119936783,-0.041356614236563935,-0.002836196954245595,0.8530464210956044,0.5291328990529748,-0.2807354641259139
54.2313,2164.0631,-0.1547355578767524,-0.14929837540314592,0.5833371939730841,0.04460412143320161,-0.024437713995619288,0.0018632278898210327,0.7968172850691123,0.45800524509602214,-0.3892672157209877
54.2494,2164.0832,-0.178081784342111,-0.15492985105513432,0.5314560568665965,0.059236447419725835,-0.0012589937237211407,0.00216349906923407,0.8329945356008024,0.3992172129820259,-0.4616217167843677
54.278,2164.1032,-0.1835832250747366,-0.15943047869332122,0.44492680194238976,0.0944336846546767,0.0279779957694837,0.017111486773297054,0.8691717861324936,0.34042918086802754,-0.5339762178477503
54.289,2164.1232,-0.1818302409939202,-0.14026360232220703,0.33543146047898026,0.10277426814032926,0.03191204760529828,0.023157609768405876,0.8091569069120667,0.5379533596012228,-0.44805524783498607
54.3091,2164.1432,-0.1663244517556182,-0.12519774986458612,0.21336793763069226,0.09695099267173317,0.026403620241766932,0.019649320898095162,0.8453341574437567,0.47916532748722657,-0.520409748898366
54.3301,2164.1633,-0.1447569228058743,-0.10860187728237052,0.08808613152749636,0.09018331496556613,0.02908359651428837,0.007329610445159512,0.8815114079754479,0.4203772953732282,-0.5927642499617486
54.3445,2164.1833,-0.12549960824556278,-0.08788022879373042,-0.03226787127851585,0.08854072518501141,0.02923030490768982,0.0030168299661503264,0.8938510298184023,0.5003254098784288,-0.6515522820757469
54.3722,2164.2033,-0.10295526309345068,-0.08110121986480612,-0.14014162195168883,0.08570732265779135,0.03948708401442238,-0.003361219302586757,0.9500801658448944,0.5714530638353815,-0.5430205304806731
54.387,2164.2234,-0.09359085602001749,-0.06875010403394312,-0.22771386189961865,0.07924138910971175,0.04236297603005176,-0.00808777708455215,0.9862574163765856,0.5126650317213831,-0.6153750315440556
54.4044,2164.2434,-0.08797160575819109,-0.060385927716757416,-0.2877799861478276,0.05800883758925329,0.03555587225079673,-0.007257961400481496,0.9862574163765856,0.5126650317213831,-0.6153750315440556
54.4248,2164.2634,-0.08255656438830809,-0.052654612598891516,-0.3148915491761197,0.01815439617701005,0.013730589545692003,-0.0026937490302770626,0.9862574163765856,0.5126650317213831,-0.6153750315440556
54.4481,2164.2834,-0.07307150610469439,-0.04304502754922462,-0.30731160873383234,-0.02160825186660448,-0.0038938573834343855,-0.004882924903076,1.0424865524030744,0.5837926856783354,-0.5068432799489831
54.4672,2164.3035,-0.055134593248571395,-0.03370777293201592,-0.2683135610608509,-0.044862964458260754,-0.014831199421992942,0.007579233473828179,1.03014693056012,0.5038445711731349,-0.4480552478349848
54.4935,2164.3235,-0.030900783237865492,-0.020919562102282616,-0.20601049953187703,-0.045364363188302226,-0.021715176485675555,0.036555402287185894,1.03014693056012,0.5038445711731349,-0.4480552478349848
54.513,2164.3435,0.003281087113478409,-0.007455182524499216,-0.13180711339346973,-0.04565376888975365,-0.03789739222081698,0.05293103474035572,1.0178073087171657,0.42389645666793413,-0.38926721572098644
54.5311,2164.3636,0.0398786348803368,0.011119506609834483,-0.05757059660391553,-0.04341292959062362,-0.046657506081903284,0.05188144225930505,1.1102136952753492,0.43623607851088847,-0.35308996518929514
54.5457,2164.3836,0.07318225626245711,0.03476833515728238,0.006993251237516859,-0.03702475644477169,-0.05719078744391266,0.03578482685086089,1.1102136952753492,0.43623607851088847,-0.35308996518929514
54.5671,2164.4036,0.09210330045857931,0.06334829135100088,0.05631485067643396,-0.014707153970588074,-0.05229564146446105,0.015946579306176607,1.1102136952753492,0.43623607851088847,-0.35308996518929514
54.5878,2164.4236,0.0981274336279522,0.09102262330087317,0.08893537572727726,-0.0008530280606402553,-0.05388984606812626,-0.0020077379170698774,1.1102136952753492,0.43623607851088847,-0.35308996518929514
54.6051,2164.4436,0.09312952664430751,0.11395097859632049,0.10643308527652735,0.0007861901315561517,-0.07548982563044541,-0.012344030609605572,1.1102136952753492,0.43623607851088847,-0.35308996518929514
54.6287,2164.4636,0.07967412745973801,0.13153840750748996,0.11121014021637265,0.007742994709201307,-0.11282963306911879,-0.0055467774503325205,1.1902804599905785,0.368627585848645,-0.2581246825436076
54.6532,2164.4836,0.05818176218789531,0.14085146955513367,0.10477263642112906,0.022938963843090795,-0.17195933291168922,0.018015918036589317,1.1340513239640866,0.2974999318916923,-0.3666564341386815
54.6773,2164.5036,0.025495674631775905,0.1357761869504553,0.08746273741453625,0.04508403739737241,-0.31500632743739687,0.1149221101733028,1.1340513239640866,0.2974999318916923,-0.3666564341386815
54.6944,2164.5236,0.003520684112716721,0.1137970629541711,0.05954452301938606,0.08420160187401218,-0.5111261197119364,0.24401791540185147,1.053984559248857,0.3651084245539358,-0.46162171678436903
54.7059,2164.5436,0.008489703351378108,0.08030360474934108,0.024486153540812752,0.16953368391408116,-0.6477320030270486,0.39514702285109465,1.053984559248857,0.3651084245539358,-0.46162171678436903
54.7319,2164.5636,-0.07722585121803319,-0.010898076842639416,-0.007594191091197841,0.2320398171479233,-0.758605719532042,0.5130988782689876,0.9615781726906769,0.3527688027109819,-0.497798967316059
54.7477,2164.5836,-0.09089648748861849,-0.08085683225409292,-0.02730160795912323,0.23797150625884728,-0.7595484643372935,0.4881248177956982,0.9053490366641849,0.28164114875402924,-0.6063307189111329
54.7645,2164.6036,-0.10347720032350088,-0.14811308204794843,-0.022545708478610732,0.14479079687911064,-0.7149560615952215,0.3546497563902884,0.8129426501060047,0.26930152691107534,-0.6425079694428228
54.79,2164.6236,-0.14632947747174438,-0.20546437358817532,0.010997037982247465,-0.021890393981627156,-0.5985016264465226,0.20370967507507323,0.6643071275213281,0.1858342511111704,-0.7872169715695854
54.807,2164.6436,-0.1572515400929048,-0.26173899927178623,0.06688413298997387,-0.038020419247216886,-0.45943408538993924,0.09954135210975448,0.6080779914948393,0.11470659715421817,-0.895748723164658
54.8255,2164.6636,-0.18746032040515598,-0.3253047038898783,0.12948724519588875,0.08317966510076588,-0.34582672245541124,0.11425961427294122,0.4232652183784758,0.09002735346830994,-0.9681032242280393
54.8503,2164.6835,-0.2598084676617976,-0.40801200772109464,0.17968277441027355,0.20414577366418882,-0.2927816488709735,0.23465026859230176,0.33085883182029246,0.0776877316253556,-1.0042804747597305
54.8766,2164.7035,-0.3564435639995059,-0.48959634758235904,0.20446124488554066,0.31202951039457894,-0.3424102210578574,0.36437962792078665,0.182223309235619,-0.005779544174548893,-1.148989476886492
54.9137,2164.7235,-0.47808324117772105,-0.5715056256184939,0.20005913787393864,0.3071984302253397,-0.3504322157828438,0.338933002112427,0.03358778665094689,-0.08924681997445547,-1.2936984790132557
54.9343,2164.7435,-0.5009281522477064,-0.5483973864881384,0.18317469129471065,0.22074250823079464,-0.21568384254170797,0.23180311897545766,-0.12738735777668247,-0.25266221027956026,-1.3796194490260245
54.946,2164.7635,-0.46685873597702876,-0.4721577136076434,0.16048787118971675,0.14966746234458356,-0.040388142976615006,0.11547878761585918,-0.4169461392941804,-0.369629190313623,-1.4293631685070975
54.9577,2164.7835,-0.4076903426972063,-0.3832221826567003,0.13579720080348887,0.1054985196381683,0.06389888892130985,0.04749766392612742,-0.601758912410547,-0.3943084339995317,-1.5017176695704801
54.9698,2164.8035,-0.3410982353221683,-0.29727101955141993,0.10946604710991636,0.117522003647308,0.03253072740645788,0.0832113934353809,-0.6703276702799912,-0.5453842024616796,-1.5514613890515538
54.9896,2164.8235,-0.2833476240003977,-0.23484466077964494,0.07769297354699245,0.17866288323805027,-0.013746951928498416,0.12351963376215912,-0.8674800652393089,-0.6500115606527885,-1.5650278580009367
55.012,2164.8435,-0.2370100727795837,-0.1861833749313183,0.03691439198339036,0.19718061716650798,0.002355480437757859,0.11293688355037626,-1.0284552096669388,-0.8134269509578961,-1.6509488280137035
55.0304,2164.8635,-0.19919631181537617,-0.12952619711170182,-0.013717987440986248,0.17144177767096608,0.07198484461801345,0.053624281303669245,-1.225607604626256,-0.9180543091490022,-1.6645152969630885
55.0515,2164.8835,-0.17217252502880678,-0.07397083895566911,-0.07108581030403793,0.11041853041138341,0.0885926214148353,0.006246554007367017,-1.2941763624957006,-1.069130077611153,-1.7142590164441602
55.0647,2164.9035,-0.1657790091205748,-0.016219998316613617,-0.12824098583085755,0.06888452746397443,0.07201037620437489,-0.018779511263561727,-1.3989223708968377,-1.161417813959305,-1.6916482348618553
55.089,2164.9235,-0.1669618644175595,0.02247010028084858,-0.17719180901120232,0.05079596310242219,0.017496793291897288,-0.01982503380392758,-1.5036683792979755,-1.25370555030746,-1.6690374532795482
55.1069,2164.9436,-0.17795014885140198,0.043690991268388685,-0.21174700763467483,0.03850477522349779,0.013033723595149432,-0.013913671067049306,-1.6445916382307995,-1.2872052545416182,-1.5740721706338598
55.1252,2164.9636,-0.1865398246179322,0.04666669685560769,-0.22903256353848242,0.048049832696963515,0.055174255200767616,-0.013831367822089708,-1.7855148971636283,-1.320704958775772,-1.4791068879881724
55.1454,2164.9836,-0.1872208850240043,0.03864220906599898,-0.22963361778867394,0.02520217119261332,0.05939295514533669,-0.02952596353400047,-1.7978545190065827,-1.4006530732809725,-1.420318855874174
55.1665,2165.0036,-0.1800408514097352,0.028014660230103586,-0.21663013507159581,-0.014353785996893355,0.030588885578285038,-0.05206348618398051,-1.8101941408495366,-1.4806011877861704,-1.3615308237601778
55.1902,2165.0237,-0.1650219407254811,0.01962072011042728,-0.19429973643110074,-0.0357441882668675,0.02091203926699303,-0.05828235555037816,-1.9387777779394066,-1.4341527775151282,-1.3253535732284878
55.2052,2165.0437,-0.1511596577291654,0.00889324588872318,-0.16695515511709116,-0.036971708394156616,0.04878550947383784,-0.06634038589068064,-1.8587110132241809,-1.5017612701773748,-1.2303882905827994
55.2305,2165.0637,-0.12646432642852448,0.00582999724050598,-0.13807577438989924,-0.02298327444930022,0.08034055431344621,-0.0672525048197109,-1.8710506350671352,-1.5817093846825754,-1.1716002584688012
55.2471,2165.0838,-0.10989406808405609,0.002614363378026785,-0.10967815391241123,-0.030598245578321522,0.0668298823981058,-0.05502414192436777,-1.9072278855988265,-1.522921352568577,-1.0992457574054186
55.268,2165.1038,-0.09590209416315748,0.003967243002360385,-0.08238314598010874,-0.05564483739633579,0.03170559410237901,-0.04153816735741673,-1.9634570216253153,-1.5940490065255295,-1.2077775090004912
55.2941,2165.1238,-0.08690065917184499,0.005080495710198384,-0.05568755046681123,-0.05701331115996908,-0.002256886031716923,-0.01631403163982699,-2.0119738939999605,-1.6152090889167288,-1.0766349758231122
55.3082,2165.1439,-0.0794626825374442,-0.006640015084547018,-0.028480947682280044,-0.027257119688868337,-0.010060697172255623,0.003218518137864501,-1.9557447579734717,-1.5440814349597767,-0.9681032242280397
55.3381,2165.1639,-0.0699372051634465,-0.023464201752184916,0.00033825401910836383,-0.008339844557534117,-0.002100019260673727,0.00450914155058257,-1.887176000104024,-1.393005666497628,-0.9183595047469647
55.3547,2165.184,-0.06577595311856929,-0.049212049404930014,0.03142393055936246,-0.007929070799058071,0.0202337233818027,-0.015960851231511357,-2.015759637193899,-1.3465572562265842,-0.8821822542152734
55.3657,2165.2041,-0.07324527375310019,-0.08030543844799293,0.06407288324945636,-0.014847700145774675,0.02023524607021718,-0.023636759363072846,-1.8748363782610697,-1.3130575519924275,-0.9771475368609631
55.3858,2165.2241,-0.0933955509141928,-0.11316462721433991,0.09562504918438226,-0.007597791333570539,-0.00444585574961454,-0.015161333994760993,-1.78242999170289,-1.3007179301494736,-0.940970286329273
55.4129,2165.2442,-0.11273433996514329,-0.14816039384975793,0.12161721722574825,0.024163539387854007,0.007924481828070564,-0.0228345288325326,-1.726200855676398,-1.229590276192521,-0.8324385347341993
55.4258,2165.2642,-0.1419879123654512,-0.17038270390218024,0.13739064451178357,0.0771283488412452,0.1110854164663099,-0.10211787780399623,-1.6776839833017523,-1.2084301938013187,-0.9635810679115802
55.448,2165.2843,-0.1412824955740521,-0.1746502779148274,0.13948033697297035,0.0844423452226049,0.28565392234660036,-0.23101018599830409,-1.6900236051447066,-1.2883783083065192,-0.9047930357975819
55.477,2165.3044,-0.12296536650668599,-0.1523384501927365,0.12698560917391355,-0.014674583193141279,0.30072768102218794,-0.23963348587816424,-1.5976172185865234,-1.2760386864635649,-0.8686157852658906
55.49,2165.3244,-0.1602127888167717,-0.12014199788592791,0.10153726862805115,-0.036130856656009666,0.17783787539934906,-0.11927855659370373,-1.5290484607170802,-1.1249629180014122,-0.8188720657848162
55.5068,2165.3445,-0.19526818017277298,-0.08301735033960903,0.06738140758874717,0.020775996754584133,0.06657173860713413,0.006336997133696243,-1.4366420741588968,-1.112623296158458,-0.7826948152531249
55.5281,2165.3646,-0.2182121032889772,-0.05106932546767032,0.03067997129482096,0.07629727771527142,0.0340771570460173,0.07147323228474217,-1.3804129381324068,-1.0414956422015076,-0.6741630636580549
55.5586,2165.3846,-0.2146219490595243,-0.027857814688287116,-0.001758674969075641,0.06723097437954606,0.05950864996657101,0.06569527315919953,-1.2641689228854878,-1.1678921669777502,-0.6515522820757453
55.5674,2165.4047,-0.1791193250281049,0.00941053499340358,-0.024563635630164837,0.010816351908346764,0.09155116148226984,0.0350870581312309,-1.2079397868589943,-1.0967645130207997,-0.543020530480674
55.5884,2165.4247,-0.1252784254658447,0.037295651424308185,-0.03545688040149805,-0.025369009060217825,0.0702486230561873,0.018270515437206092,-1.1155334003008144,-1.0844248911778458,-0.506843279948984
55.6089,2165.4448,-0.07025420061409439,0.052145581639475885,-0.03578542766414364,-0.00950641701735656,0.033321910986537744,0.027498879832208757,-1.0916957716120788,-1.2231610377970425,-0.5204097488983657
55.6264,2165.4649,-0.024484134161745996,0.04959267393374768,-0.030196905573041333,0.019798480134170317,-0.007808546884693434,0.035890193093034435,-0.9992893850538953,-1.2108214159540882,-0.4842324983666744
55.6514,2165.4849,0.0066308214055067205,0.03243175839426908,-0.025336163653689736,0.008986082091878128,-0.004449650065968623,0.004950504007069197,-0.9192226203386691,-1.278429908616332,-0.3892672157209882
55.6668,2165.505,0.019202992355650123,0.010767514617280885,-0.02768937629447943,0.007856530685822915,0.018693370968871095,-0.02200561757972524,-0.9553998708703592,-1.2196418765023358,-0.3169127146576082
55.6896,2165.525,0.015236331822080007,-0.008385183704053417,-0.041556335620776236,0.004486703503007637,0.023715590140945923,-0.03874483140073856,-0.9915771214020505,-1.1608538443883374,-0.24455821359422564
55.711,2165.545,-0.0067074580817066964,-0.021445120633451817,-0.06765321494703505,-0.003033151751272059,-0.016063395070849567,-0.04143325333087483,-0.9553998708703592,-1.2196418765023358,-0.3169127146576082
55.7284,2165.5651,-0.0406760282789464,-0.027949911903823118,-0.10289478267799515,0.0077168963383697385,-0.027038473216517492,-0.03642858293544706,-0.899170734843867,-1.148514222545383,-0.20838096306253434
55.7551,2165.5851,-0.072257449669314,-0.026989093953744415,-0.14077719200837605,0.020238480709500406,-0.010352297819604825,-0.03189466901256291,-0.8429415988173748,-1.0773865685884305,-0.09984921146746048
55.7734,2165.6051,-0.0995054993982156,-0.019531448868166615,-0.17252838767543352,0.01112446212568445,-0.0121145176209039,-0.02996144718727569,-0.866779227506111,-0.9386504219692365,-0.08628274251807673
55.7939,2165.6252,-0.11541303915517229,-0.005177698606639018,-0.18955472069646426,-0.027048554918628585,-0.02659336492389521,-0.038970034785298334,-0.8429415988173748,-1.0773865685884305,-0.09984921146746048
55.8071,2165.6452,-0.11971723757755579,0.008344177224354085,-0.18596576686125912,-0.07573580835076972,-0.04475282809666586,-0.04687295516394618,-0.8791188493490649,-1.0185985364744343,-0.02749471040408048
55.8298,2165.6652,-0.11186645411919718,0.03454010966068688,-0.16086188249255143,-0.12621019127378924,-0.07627945584675917,-0.0473378328332784,-0.9353479853755582,-1.0897261904313849,-0.13602646199915178
55.8477,2165.6852,-0.09504075374860418,0.04594448415062498,-0.11864276555609155,-0.15927263236067488,-0.07737798908057,-0.08070863315497327,-0.94684599222134,-0.8710419293069902,-0.18124802516376637
55.8675,2165.7053,-0.07564179937419009,0.04477631926095159,-0.06809655739295614,-0.1584691839763589,-0.08829734270508348,-0.10267003309023616,-0.91066874168965,-0.9298299614209864,-0.25360252622714635
55.9031,2165.7254,-0.0660986392923567,0.037455366668986176,-0.01947721237743205,-0.0435597500890269,-0.09956017277199795,-0.0377504092267487,-0.91066874168965,-0.9298299614209864,-0.25360252622714635
55.9147,2165.7454,-0.05463339627419109,0.008487457438433085,0.018593473701064456,0.027344201111103347,-0.12192784347220961,0.0454242552550299,-0.91066874168965,-0.9298299614209864,-0.25360252622714635
55.9372,2165.7654,-0.05324476132340719,-0.010647420383119919,0.041073860883700464,-0.03315997558328023,-0.1091985563438363,0.05211071558454965,-0.8983291198466956,-0.8498818469157857,-0.3123905583411447
55.9503,2165.7854,-0.046868545909327694,-0.020497251544808918,0.04691616104408356,-0.08350977011183085,-0.09512014023494153,0.008738714353368864,-0.8859894980037417,-0.7699337324105879,-0.37117859045514096
55.9818,2165.8055,-0.05741441015714199,-0.007409260367977316,0.03817212696518736,-0.0882005112206688,-0.11293393593307985,-0.04244621634576217,-0.8498122474720505,-0.8287217645245863,-0.4435330915185235
55.9977,2165.8256,-0.08144004748229379,-0.009730568219612216,0.018271867416262952,-0.0006941373475080738,-0.22656929347696603,-0.0009264903418039652,-0.8136349969403592,-0.8875097966385846,-0.5158875925819061
56.0103,2165.8456,-0.12656751315444378,-0.02257979639510472,-0.00853365225160084,0.039830678810148464,-0.36701461973315797,0.07012065533048861,-0.8374726256290962,-0.7487736500193858,-0.5023211236325218
56.0309,2165.8657,-0.2019821053415607,-0.045540142887126316,-0.037356213073268946,-0.040116070420768236,-0.3297349022329183,0.08428902328559364,-0.8736498761607874,-0.6899856179053874,-0.42996662256913926
56.0476,2165.8858,-0.2623389198424413,-0.07636495993694362,-0.06210550904720935,0.005627106187630019,-0.14978756422156544,0.017522098566831734,-0.8251330037861423,-0.668825535514188,-0.5611091557465181
56.0735,2165.9058,-0.2828523267652,-0.10262699283165432,-0.07580676990878804,0.018159733139100475,0.1265806669822951,-0.09861094558058045,-0.8813621398126344,-0.7399531894711406,-0.669640907341592
56.0915,2165.9259,-0.2803454371471344,-0.11896565741655021,-0.07372279729513023,-0.023542707245493386,0.21105088260726013,-0.23874759545576948,-0.83284526743799,-0.7187931070799363,-0.8007834405189703
56.1098,2165.946,-0.2575781293300784,-0.12084520182719342,-0.05476374604199455,-0.09892390528328901,0.17755532941867797,-0.28974576109903066,-0.7404388808798066,-0.7064534852369819,-0.764606189987279
56.139,2165.9661,-0.2106976839358271,-0.10755810655041112,-0.02230007919538113,-0.17813591346357213,0.353842342711638,-0.16949393697858547,-0.6356928724786689,-0.614165748888827,-0.787216971569586
56.1506,2165.9862,-0.1975595307740562,-0.11318023646291962,0.016700044217288865,-0.0910987691708339,0.2801469832359384,0.11119585336853866,-0.5871760001040237,-0.5930056664976275,-0.9183595047469648
56.1749,2166.0063,-0.1874843374748087,-0.12979296099542081,0.05654520091910806,0.14973536191579354,0.008367770220168819,0.11219208440505508,-0.623353250635715,-0.5342176343836292,-0.8460050036835822
56.1949,2166.0264,-0.1711196893901022,-0.13216179113101684,0.09387571330163286,0.1009736737988074,-0.08902198658972867,0.03185552522748762,-0.6471908793244507,-0.3954814877644323,-0.8324385347342006
56.214,2166.0465,-0.14361433751960379,-0.11529259941830962,0.12778423697191876,-0.037293754876175166,-0.008799914992881994,-0.08134037839238291,-0.6110136287927607,-0.45426951987842856,-0.9047930357975806
56.2313,2166.0666,-0.10843198177155909,-0.09123684674079352,0.15815179261084217,-0.07448976711813896,-0.0008238950996908668,-0.11570650531933092,-0.6348512574814968,-0.31553337325923453,-0.8912265668481969
56.2534,2166.0867,-0.0605011688277419,-0.07268085930060111,0.18414021278565607,-0.0068956639310827,0.12186068722134273,-0.20692427702556768,-0.5062676203916266,-0.3619817835302769,-0.9274038173798869
56.2706,2166.1068,-0.028328976036911896,-0.07365019267880922,0.20407492178560385,0.06541793876198716,0.2017985828451042,-0.17238992588364732,-0.5424448709233167,-0.30319375141628063,-0.8550493163165069
56.2968,2166.1269,0.012495375721442298,-0.08755042141563271,0.21568190659193506,0.08514289917202106,0.18631927217879915,-0.10098326878419608,-0.41386123383344336,-0.34964216168732254,-0.8912265668481956
56.3282,2166.147,0.050211135757887604,-0.09738824533792471,0.21773389748921906,0.04087047275803235,0.15733071510153077,-0.04891289987830191,-0.28527759674357195,-0.396090571958367,-0.9274038173798882
56.3322,2166.1671,0.0480243446022397,-0.08881082717170362,0.21031176749284974,-0.004088757751512945,0.1472294646795419,-0.060656035400888736,-0.22904846071707988,-0.3249629180014143,-0.8188720657848143
56.3524,2166.1871,0.0673588882367992,-0.07221080218916572,0.19086069074472894,-0.01775948049013614,0.14104063912980458,-0.08441047031562854,-0.22904846071707988,-0.3249629180014143,-0.8188720657848143
56.3715,2166.2072,0.08463322884880692,-0.05268060265336462,0.15672640359631906,-0.004032292898214012,0.1296527092929311,-0.04297440420352485,-0.1728193246905865,-0.2538352640444637,-0.7103403141897431
56.3986,2166.2273,0.10152168356856031,-0.029962168609086716,0.10350313689426585,0.0003553901631536936,0.07754397431820857,0.015917637505751255,0.011993448425776916,-0.22915602035855548,-0.6379858131263617
56.4119,2166.2474,0.1099993459162481,-0.0020081271879797205,0.028004371284201954,-0.009099546501624312,0.05029449639847284,0.02572890784994579,-0.1165901886640977,-0.1827076100875115,-0.6018085625946704
56.4382,2166.2675,0.11823346275085692,0.029567330090160576,-0.06870436663641644,-0.02129354578080905,0.04651974522714804,0.0024375417420116246,-0.06036105263760565,-0.1115799561305588,-0.49327681099959664
56.452,2166.2876,0.12278372750761449,0.05931039088487848,-0.17727443152128933,0.007182638412697492,0.06446094591269991,-0.01394758723942277,-0.07270067448055954,-0.19152807063575658,-0.4344887788856004
56.4752,2166.3077,0.13097875227014802,0.07755128031107318,-0.2797914340623009,0.02791566709057394,0.10561727431115069,-0.06065422653836213,-0.016471538454069477,-0.12040041667880644,-0.3259570272905304
56.5051,2166.3277,0.15106113534416413,0.08889397269923738,-0.35306400314385544,0.004861275134209304,0.15329441124024323,-0.14299726647354352,0.11211209863580389,-0.16684882694984834,-0.3621342778222191
56.5093,2166.3478,0.09695505867962712,0.049310981892724884,-0.3723719444928306,-0.12644804075760457,0.23022329956444074,-0.30493477973476096,0.16834123466229725,-0.09572117299289776,-0.2536025262271478
56.5385,2166.3679,0.12037022606128359,0.04685687167274598,-0.33193793327805987,-0.2445188289489339,0.2514358303753509,-0.4681660819181181,0.22457037068878608,-0.02459351903594553,-0.14507077463207524
56.5533,2166.3879,0.0663405080674021,-0.035422190343158515,-0.23405106032833414,-0.2738173550755239,0.2532921853310597,-0.5341339416157613,0.22457037068878608,-0.02459351903594553,-0.14507077463207524
56.5747,2166.408,0.019868541149987512,-0.12466106162354042,-0.10969229966347063,-0.19671053713765801,0.21734360618202764,-0.45877084995503803,0.24462225618358815,0.1053221670350034,0.035815478026378585
56.5931,2166.428,-0.05855947868125479,-0.24098790217805882,-0.001534740600111148,-0.1186209207556916,0.1322929795613322,-0.3117858465542,0.3131910140530309,0.25639793549715345,0.08555919750745489
56.611,2166.448,-0.14622941466370698,-0.3472567191839203,0.04478510979976076,-0.05069834573531458,0.06375379515321956,-0.14446334955134027,0.4541142729858598,0.28989763973131,-0.009406085138234713
56.6293,2166.468,-0.2234353828476236,-0.4098074791998501,-0.001384663286203347,0.0638500163759783,0.08234270672236862,-0.002672042679958044,0.5826979100757345,0.24344922946026604,-0.04558333566992601
56.656,2166.4881,-0.27220667474376137,-0.41011265616915654,-0.14518915106644562,0.10192164162330447,0.09980006569546354,0.06127757865364844,0.6150894174134863,0.4533130300364172,0.0765148848745308
56.6802,2166.5081,-0.28961219696375906,-0.3279315435735,-0.36437410967213313,0.026371026411842986,0.10994606541408848,0.009343326652879748,0.7637249399981598,0.5367803058363217,0.22122388700129206
56.701,2166.5281,-0.2834006129395876,-0.18029096028250263,-0.6186650143422792,-0.0754673158981833,0.09844587166788123,-0.04742104050950131,0.8199540760246519,0.6079079597932744,0.3297556385963659
56.7135,2166.5481,-0.2731315099648048,-0.007426492883428719,-0.8607390568954835,-0.11342183630916937,0.10147821733573356,-0.0865942196008477,0.9809292204522791,0.7713233500983767,0.4156766086091309
56.7319,2166.5681,-0.2601969625547837,0.17201941836914197,-1.0469068421240528,-0.1414517299273742,0.10434179446531638,-0.11559571248957762,1.1580297299167983,0.746035022218537,0.24835682490006133
56.762,2166.5881,-0.25044810057474887,0.3574471349855576,-1.1479182173018185,-0.2810617408930331,0.06844431228451209,-0.16046319081461216,1.2265984877862408,0.897110790680687,0.29810054438113764
56.7731,2166.6081,-0.2650987726860796,0.44532692052045175,-1.1461305046957466,-0.3858365324391247,0.025370848546910966,-0.20570239038885982,1.3313444961873786,0.989398527028842,0.2754897627988306
56.7919,2166.6281,-0.2804629304212601,0.5063543871323581,-1.0461881313791028,-0.4097995262698716,0.038488213521874585,-0.2874534800622164,1.492319640615006,1.1528139173339471,0.36141073281159347
56.8207,2166.6481,-0.2808001374094954,0.5607073684292841,-0.8633813157681558,-0.3913189656691266,0.113454802545664,-0.38217547069807906,1.6332428995478336,1.186313621568103,0.26644545016590854
56.8315,2166.6681,-0.3249615754650512,0.4882819606487161,-0.6119870066332431,-0.439452425112343,0.12576792414089064,-0.4170896829705822,1.737988907948968,1.2786013579162574,0.24383466858360028
56.8583,2166.6881,-0.3389728637517828,0.4777045681865162,-0.3270168675715339,-0.5511157077943853,0.05776575849920946,-0.44468930740120904,1.9474809247512432,1.4631768306125645,0.19861310541898816
56.876,2166.7081,-0.3769448059638236,0.390811309660849,-0.027743406585531344,-0.5729398837996897,0.02200004450782919,-0.4459600333261346,1.9959977971258889,1.4843369130037671,0.06747057224160727
56.8974,2166.728,-0.40276093218590203,0.30296223899353975,0.25644274082880897,-0.4729259066621057,0.05753608165925519,-0.37247273210547954,2.100743805527023,1.5766246493519187,0.044859790659301096
56.9177,2166.748,-0.4184919910954339,0.18963710143090046,0.5031825198973979,-0.3442592097597586,0.10670394919294106,-0.27548740223322804,2.1939918070823774,1.8875966468244703,-0.022972554087617957
56.9333,2166.768,-0.42662214907452956,0.05538166579385899,0.694174079101644,-0.28739507718193397,0.10439973375397595,-0.18355603426025366,2.347254687858157,2.001044465563824,-0.17672586884730512
56.9584,2166.788,-0.4123882188435958,-0.040967455790392016,0.8197191661934629,-0.25640793732519374,0.07595688148677322,-0.12637743757928474,2.4442884326074465,2.043364630346228,-0.4390109352020623
56.9759,2166.808,-0.3977023330530408,-0.1345551345356132,0.8789333235672949,-0.19490340659794705,0.07322701905499733,-0.08496262560186844,2.59755131338323,2.1568124490855856,-0.5927642499617503
56.9908,2166.828,-0.3792523284987381,-0.20990068268805723,0.8787015045872562,-0.143588773024207,0.0726119894976697,-0.033471997135744634,2.7431019305071636,2.220292696259191,-0.9861918494938836
57.009,2166.848,-0.3557023232154994,-0.2622007016393459,0.8316624893870295,-0.10201388953775953,0.08048780383219258,0.012994515662790647,2.8039584247247635,2.3214008931555936,-1.176122414785263
57.0304,2166.868,-0.3240642516636263,-0.2977618593233273,0.7536911738291565,-0.07719139312861245,0.10879499716732857,0.019295236058516237,2.8409772902536257,2.5612452366711898,-1.3524865111272537
57.0506,2166.888,-0.2842958934407619,-0.3209561683718242,0.661695490061301,-0.04591037132096827,0.1592158367299068,-0.00012968639884348637,2.994240171029409,2.674693055410547,-1.5062398258869416
57.0766,2166.908,-0.2304575117669263,-0.33453828082285403,0.5714369800154817,-0.03206850087136369,0.15757154724929934,0.0005395927359927896,3.078934293935744,2.6370651056877503,-1.7097368601277005
57.0946,2166.928,-0.1697363309174983,-0.33866994592483024,0.4951045982698059,-0.01974119305533706,0.10134592204825606,0.05238656711985379,3.2445367965544767,2.830461038932307,-1.9222782070013835
57.1087,2166.948,-0.09023117314734769,-0.3373265302075734,0.4398482817409797,-0.028049015137550724,0.04391363293185326,0.0712489333314457,3.256876418397431,2.9104091534375076,-1.9810662391153817
57.1293,2166.968,0.009042635212126199,-0.33624133914403714,0.4071385950573039,-0.03668538103345081,0.0273914775126909,0.08542725003044696,3.410139299173214,3.023856972176862,-2.1348195538750674
57.1507,2166.988,0.1251301704962612,-0.33941212169428703,0.3939903509289391,-0.02831411995272484,-0.0311868217434888,0.10934493478821102,3.446316549704905,2.9650689400628636,-2.20717405493845
57.1725,2167.008,0.24705370404293234,-0.3456374952392374,0.3949636185037547,0.009807914395135469,-0.0886913775587618,0.11603049068646747,3.494833422079549,2.986229022454065,-2.338316588115826
57.1908,2167.028,0.3654696742765208,-0.3454260967159029,0.403638182250041,0.019312114736239755,-0.16141945311305628,0.10641638635767066,3.5071730439225033,3.0661771369592654,-2.3971046202298245
57.2182,2167.048,0.44610499291234407,-0.3259160390223623,0.41458125154461734,-0.03895767777071509,-0.22196229028925465,0.03782567599647991,3.438604286053057,2.9151013684971128,-2.4468483397109
57.2315,2167.068,0.5102840991415847,-0.3097000779192212,0.4179848292325029,-0.1273286494241484,-0.25902321135242556,-0.05813628990135646,3.4024270355213657,2.9738894006111107,-2.3744938386475174
57.2585,2167.088,0.5114492699462254,-0.2732805863694639,0.4092317793149658,-0.09631346646528609,-0.24436288366057676,-0.06805699642840936,3.4024270355213657,2.9738894006111107,-2.3744938386475174
57.2743,2167.108,0.4789426849962686,-0.26056934410516663,0.3787140350037348,0.0162773926648712,-0.21330177974708237,-0.003220580241144816,3.5310106726112402,2.927440990340067,-2.4106710891792087
57.2972,2167.1279,0.39991289612158176,-0.2588771620612872,0.3245922073481744,0.07980411159573714,-0.18319894800973946,0.07078360344648182,3.4024270355213657,2.9738894006111107,-2.3744938386475174
57.3433,2167.1479,0.2734642383819629,-0.2899368834637308,0.24851016204736637,0.1271381383565094,-0.13443299149599444,0.10548165664705811,3.4024270355213657,2.9738894006111107,-2.3744938386475174
57.3504,2167.1679,0.1795228530730166,-0.25153569399447534,0.15742079029768624,0.13996177099979681,-0.0925113945413365,0.1090672743903803,3.3662497849896758,3.032677432725107,-2.3021393375841375
57.3529,2167.1879,0.09389166979563701,-0.1956753904713211,0.06240246234231006,0.104436961727595,-0.10601607947400857,0.09467596412887369,3.2738433984314956,3.020337810882153,-2.3383165881158274
57.37,2167.2079,0.0014417730532822193,-0.1486935922553842,-0.026713387651906728,0.06197374587441582,-0.15544460371259233,0.10686046210794715,3.28618302027445,3.1002859253873534,-2.397104620229826
57.3923,2167.2279,-0.0836823855933167,-0.11252677697422442,-0.10387345058017483,0.09583575405269769,-0.1474066170023004,0.11556063864518713,3.1937766337162667,3.087946303544399,-2.433281870761517
57.4091,2167.2479,-0.1481416392649704,-0.08391084284081111,-0.16665037007563724,0.13890292095787082,-0.09758326322320678,0.09155431962362044,3.1575993831845754,3.1467343356583974,-2.3609273696981345
57.4317,2167.2679,-0.20555415016130868,-0.07532554192533161,-0.21524503057894392,0.13081362242449474,-0.04969690310647063,0.06041882116915241,2.9966242387569486,2.9833189453532905,-2.4468483397109
57.4533,2167.2879,-0.2613822484867544,-0.07492167350249292,-0.25074035672527795,0.08602290534989038,-0.021120737860238516,0.004674652471765057,3.008963860599903,3.063267059858491,-2.5056363718248984
57.4688,2167.3079,-0.3308581792560545,-0.08073867403026662,-0.27438547610421504,0.053084102241652366,-0.017841432809351767,-0.0507665317524194,2.9403951027304553,2.91219129139634,-2.555380091305971
57.4986,2167.3279,-0.4096177648443693,-0.09643572287484711,-0.2875385484247033,0.05494391195890865,-0.030858623599893234,-0.07639675710722738,2.9765723532621466,2.853403259282342,-2.627734592369354
57.5117,2167.3479,-0.5119539644694708,-0.11952175169707172,-0.29354723632744384,0.04540166255143129,-0.02466496831274252,-0.057508162388999966,2.932682839078611,2.8622237198305918,-2.7950543760784226
57.5294,2167.3679,-0.6159964493637861,-0.1412394074685438,-0.29671117739171105,-0.004991143435441182,-0.016230408584074745,-0.029602840191380302,2.9203432172356565,2.7822756053253914,-2.736266343964424
57.5494,2167.3879,-0.7105572212827509,-0.15252129511201062,-0.302464852183143,-0.01842620594007555,0.040030317985956104,-0.0026729471112213452,2.8402764525204276,2.8498840979876374,-2.831231626610114
57.574,2167.4079,-0.7872363576807507,-0.14596133071738943,-0.31499465994480746,-0.028540170519599915,0.0890767604276832,0.03177910078573943,2.7355304441192896,2.7575963616394827,-2.8086208450278067
57.5939,2167.4279,-0.8437963923787015,-0.11946057178249862,-0.3346599416492324,-0.061462850146180734,0.10500861482087703,0.07666014557972335,2.6431240575611095,2.745256739796529,-2.8447980955594967
57.6192,2167.4479,-0.8804194643207194,-0.07900436550740711,-0.35586368184820993,-0.08275890258518112,0.07454095003425265,0.09415320285869078,2.666961686249847,2.6065205931773328,-2.858364564508883
57.6315,2167.4679,-0.8885142561323666,-0.034486666886817514,-0.3664074702685187,-0.07177717036551579,0.04357688517729647,0.08343659681994069,2.703138936781538,2.5477325610633343,-2.9307190655722657
57.6493,2167.4879,-0.8729003391789522,0.002056820144349082,-0.3523347278929332,-0.06869456669438476,0.07612640421170858,0.05768834318527307,2.703138936781538,2.5477325610633343,-2.9307190655722657
57.6693,2167.5079,-0.8304224744117705,0.023765709382542285,-0.3012612298337245,-0.10116416538329409,0.05734950208118623,0.003513362729697786,2.690799314938584,2.467784446558134,-2.8719310334582673
57.6948,2167.5279,-0.7593723312890016,0.03152270176419898,-0.20828187898745185,-0.1444996731178406,-0.004942797850175704,-0.030012095338020055,2.67845969309563,2.3878363320529363,-2.813143001344271
57.711,2167.5478,-0.6533320320781592,0.0019341651125650838,-0.07858485506805366,-0.18081472052171718,0.008711654181123716,-0.012839658941889738,2.819382952028454,2.4213360362870917,-2.9081082839899572
57.7336,2167.5678,-0.5108708045291542,-0.043428154137414715,0.07144684573125136,-0.1798725391235238,0.05421935940905951,0.023271115891949058,2.819382952028454,2.4213360362870917,-2.9081082839899572
57.7517,2167.5878,-0.3343209234682547,-0.10797149894934611,0.21860281863691816,-0.12242988977252672,0.14344130421368928,0.05378662671543021,2.8070433301855,2.341387921781894,-2.849320251875961
57.7703,2167.6078,-0.1409157751109047,-0.17048558279868264,0.33905527941272695,-0.07436528731487825,0.1969113252200105,0.07321109695715827,2.8994497167436837,2.3537275436248484,-2.8131430013442698
57.7955,2167.6278,0.04589957972555192,-0.21702818299475063,0.4157765710550577,-0.05570133200411611,0.15130864784002201,0.06809879924139872,2.8270952156803024,2.471303607852843,-2.6684339992175072
57.8129,2167.6478,0.19838554132913402,-0.2420445147135034,0.4427093769967324,-0.052808009822035255,0.06978699929414062,0.05136410757670187,2.8509328443690394,2.332567461233644,-2.6820004681668914
57.8319,2167.6678,0.3029053010650923,-0.2504510839195297,0.4245643062351665,-0.02436947452984472,0.058840629444331,0.046614486797522524,2.9071619803955313,2.4036951151905965,-2.5734687165718175
57.8521,2167.6878,0.3520291197980884,-0.2490317183944798,0.37394681794294127,0.011861327605621485,0.07504307597419842,0.07519903687387469,2.8586451080208857,2.3825350327993937,-2.4423261833944365
57.8794,2167.7078,0.3421416001550772,-0.2440761962892815,0.3066986385915922,-0.002562384311506742,0.028149107839531787,0.10608853002472722,2.8586451080208857,2.3825350327993937,-2.4423261833944365
57.932,2167.7278,0.25189972154441664,-0.24404128512565482,0.23743134439862526,-0.030367922895632917,-0.07319564196126319,0.13906409388436336,2.8586451080208857,2.3825350327993937,-2.4423261833944365
57.9365,2167.7478,0.2049067250537636,-0.2261788090615438,0.17038517972444928,-0.030387972592889348,-0.08584431120322147,0.1603186807873633,2.894822358552577,2.3237470006853957,-2.514680684457819
57.9467,2167.7678,0.14261035878705222,-0.21133741637025033,0.11125277888998326,-0.0183270071993125,-0.05786462996778384,0.19258290945842008,2.79007635015144,2.2314592643372437,-2.492069902875514
57.9627,2167.7878,0.07370600121179441,-0.20154253916462234,0.05910677259332186,0.0040650201162909265,-0.043486674355639424,0.20644286635274248,2.8024159719943937,2.3114073788424414,-2.5508579349895104
57.9685,2167.8078,0.021790531854239598,-0.183504938421858,0.011683899455689359,0.031200456479522024,-0.07008800844588996,0.17492479347390183,2.6738323349045188,2.357855789113485,-2.514680684457819
57.9989,2167.8278,-0.08000939127678959,-0.17937782351865733,-0.03206550902243663,0.014145854047007658,-0.16264177949305408,0.12340160548229946,2.6738323349045188,2.357855789113485,-2.514680684457819
58.017,2167.8478,-0.1741228842879004,-0.16956861824068714,-0.07354148766062774,0.0061627262113696036,-0.2985654467601423,0.1259982276392116,2.5690863265033848,2.2655680527653335,-2.492069902875513
58.0325,2167.8679,-0.27259924775598565,-0.1627173267223807,-0.11243245358463014,0.0372339920957661,-0.3050025038222866,0.1653391787298987,2.4766799399452015,2.253228430922379,-2.528247153407204
58.053,2167.8879,-0.38100776388776836,-0.16136363829375522,-0.14778863300149395,0.005273440589845854,-0.1915116076251662,0.1643696284156494,2.384273553387022,2.2408888090794252,-2.564424403938894
58.0697,2167.9079,-0.46704342234772545,-0.1611880320914908,-0.17613056369926275,-0.005181582455098005,-0.10878969517713243,0.11050577231464666,2.31191905232364,2.35846487330742,-2.4197154018121316
58.0913,2167.9279,-0.534282679337617,-0.16453177982872463,-0.19256931894586835,0.013567280759231512,-0.03211409790041787,0.007770972901646138,2.1632835297389645,2.274997597507513,-2.564424403938897
58.1113,2167.948,-0.5807319901615099,-0.17248478151445573,-0.19051263324619752,0.05148629624287992,-0.021039998061346536,-0.05233888550365301,2.0346998926490936,2.3214460077785573,-2.528247153407204
58.1296,2167.968,-0.6115107320456205,-0.18627259494283482,-0.16367633686280555,0.07352826679062328,-0.04296820020142952,-0.05052097866443555,1.9784707566226014,2.250318353821605,-2.636778905002278
58.1561,2167.988,-0.6223337945885364,-0.20362667366381004,-0.10780448262682965,0.04172895132800447,-0.05382556257467394,-0.01791939713217077,1.9222416205961113,2.1791906998646544,-2.745310656597348
58.1712,2168.008,-0.6108299173200472,-0.21982829507010732,-0.023700165561451242,-0.03808188703274962,-0.008511700238448544,-0.013583101440315984,1.9222416205961113,2.1791906998646544,-2.745310656597348
58.1926,2168.0281,-0.5699306471471411,-0.22808028184174722,0.08175851160999345,-0.050365448191639656,0.030084086644747772,-0.002116721884296592,1.8298352340379278,2.1668510780217,-2.7814879071290393
58.213,2168.0481,-0.499231150042893,-0.23120712571298563,0.19548336493904125,-0.05535737015310587,0.04429845983213038,0.046308336814898085,1.7012515969480546,2.2132994882927424,-2.7453106565973506
58.2326,2168.0681,-0.406100250826138,-0.2318132662424332,0.30104788706398644,-0.04439335338389513,0.06695943258216291,0.08150247056339016,1.5726679598581832,2.2597478985637864,-2.709133406065658
58.2521,2168.0882,-0.3037468974163909,-0.23071864876802084,0.3824609110680469,0.017882137593344914,0.11405175974414788,0.10561279918023549,1.4802615732999997,2.247408276720832,-2.7453106565973493
58.2713,2168.1082,-0.20622371424189667,-0.224920178987925,0.4271629342769315,0.06882859878371327,0.09310876030979928,0.17512195948929954,1.5040992019887367,2.1086721301016333,-2.7588771255467335
58.3023,2168.1282,-0.135416887634127,-0.23087366300405193,0.42658091345446103,0.06377280622451474,0.07826567321849684,0.250510375225395,1.4802615732999997,2.247408276720832,-2.7453106565973493
58.3121,2168.1482,-0.056424424214567295,-0.2007551498464727,0.3771535806786439,0.010032530889495269,0.11335737063790353,0.28799045899185827,1.3755155648988653,2.1551205403726774,-2.722699875015041
58.3402,2168.1683,-0.01887249627258089,-0.2164452679440736,0.27685641915396453,0.06114169473352762,0.03618122939135099,0.2664993633135074,1.3631759430559114,2.0751724258674797,-2.6639118429010447
58.3546,2168.1883,0.02497496749515052,-0.2027104897445111,0.13092440333535577,0.3701231238800372,-0.19704859297172717,0.2271959461202469,1.3993531935876027,2.0163843937534818,-2.7362663439644273
58.3703,2168.2083,0.055674059979558405,-0.18746884897693733,-0.04902458705401244,0.359109081103264,-0.1251607734594708,0.32368474322895097,1.3870135717446483,1.9364362792482812,-2.677478311850429
58.3929,2168.2284,0.06685611818861162,-0.1771313765509248,-0.24156435451560013,0.2067561535009162,-0.1540822661056555,0.43732698367725625,1.3384966993700027,1.9152761968570788,-2.546335778673048
58.433,2168.2484,0.044738524552427605,-0.1854219367974016,-0.417169850138827,0.17910306781313476,-0.1183160018630107,0.3471592566677018,1.3261570775270488,1.8353280823518812,-2.4875477465590516
58.4347,2168.2684,0.12259397574528488,-0.07092574069327091,-0.5452358583461236,0.15289936157919876,-0.06603497923286464,0.2527425115832003,1.3014778338411406,1.6754318533414827,-2.369971682331057
58.4559,2168.2884,0.1671176259559756,0.01223835616801848,-0.598922595717801,0.07839558489777645,-0.05980759212555342,0.1842680206393426,1.2205694541287397,1.4444079703741288,-2.3609273696981345
58.4717,2168.3085,0.2062027364820059,0.07670655275131358,-0.5644895048241778,-0.017925679378338322,-0.1340417876768669,0.09425902131649598,1.1720525817540945,1.4232478879829291,-2.2297848365207553
58.4943,2168.3285,0.2135483867154329,0.09443868728310738,-0.44304068399848684,-0.027354171182860668,-0.1772154884945181,0.014872114965385402,1.0911442020416944,1.1922240050155781,-2.2207405238878346
58.5142,2168.3485,0.18885552874149833,0.058648309971642984,-0.2526434627701313,0.13898665381900685,-0.26899057912255275,-0.05112197323889326,0.9987378154835143,1.1798843831726242,-2.256917774419525
58.5321,2168.3686,0.1332600599104445,-0.018387329333524716,-0.02366762415691845,0.18421609061274993,-0.3645596639123853,-0.04794877615163233,1.0102358223292955,0.9612001220482267,-2.211696211254908
58.5502,2168.3886,0.0587812425719981,-0.11457306032735182,0.20765192734636276,0.05053777838452944,-0.27254740654152704,0.01898094619452217,0.9054898139281583,0.8689123857000747,-2.1890854296726032
58.5706,2168.4086,-0.01399089752769389,-0.21068826831945503,0.4066658491021038,0.040889964610860356,-0.18280720915931475,0.016387037331399956,0.8808105702422501,0.7090161566896762,-2.0715093654446086
58.6004,2168.4286,-0.06416536690012078,-0.3043476164852069,0.5466497605788725,0.12470911741912515,-0.05526833247274503,0.02558600771034561,0.6836581752829323,0.6043887984985674,-2.0850758343939915
58.6128,2168.4486,-0.08394938020525258,-0.3502784173300663,0.6150041860301674,0.21169210456215465,0.015809313419831977,0.05945107971742969,0.6150894174134859,0.4533130300364141,-2.134819553875067
58.6323,2168.4686,-0.07896360296213428,-0.37742167926459275,0.6116015789261475,0.22676597160541176,-0.010131970525460818,0.05851635000681714,0.5665725450388407,0.43215294764521456,-2.003677020697688
58.6542,2168.4886,-0.06544560168052119,-0.37734380755932073,0.5492500387259878,0.2059310361012142,-0.059131450331139694,0.0592050744138142,0.4618265366377063,0.3398652112970601,-1.98106623911538
58.6719,2168.5086,-0.050832837598931396,-0.3449287105372059,0.4472660807866272,0.19232040031741982,-0.10794041718247388,0.10218771798614763,0.3694201500795229,0.32752558945410576,-2.0172434896470715
58.6987,2168.5286,-0.047421544089170486,-0.32390820712004065,0.3238894684014604,0.21073636861013437,-0.12832386565813503,0.1583492817115444,0.3008513922100802,0.17644982099195564,-2.0669872091281474
58.715,2168.5486,-0.026847036750903386,-0.27648912908715273,0.19528264869207065,0.2272030615737859,-0.13981724172406873,0.20125459641086635,0.2446222561835881,0.10532216703500295,-2.1755189607232213
58.7306,2168.5686,-0.0004904614530155949,-0.2278433743727007,0.07015729871739686,0.21170308375969407,-0.13273227777616955,0.15566990409404102,0.15221586962540476,0.09298254519204861,-2.2116962112549126
58.7547,2168.5886,0.016925964678442623,-0.1992695242173645,-0.04699507265132105,0.19104419454772242,-0.12512158280671556,0.11805234677555733,0.04746986122427031,0.0006948088438941592,-2.189085429672604
58.7716,2168.6086,0.0338174566536546,-0.15883264846017053,-0.15323428911459194,0.19949083007956883,-0.16350986554596597,0.13826322000071803,0.03513023938131597,-0.07925330566130641,-2.130297397558606
58.79,2168.6286,0.03525533280570792,-0.12745150093222532,-0.24592346997597112,0.2195864113948437,-0.20883768518328769,0.1733230457066112,-0.10579301955151255,-0.1127530098954602,-2.035332114912918
58.8195,2168.6486,0.008867636231935205,-0.12196091345822811,-0.3206920545288845,0.1992276474566514,-0.22256094378372523,0.1472740686768989,-0.10579301955151255,-0.1127530098954602,-2.035332114912918
58.8466,2168.6686,-0.019301057149190795,-0.10958617654468862,-0.3724787054749015,0.14889420628048805,-0.20482910187245978,0.08912501725041741,-0.13047226323742078,-0.2726492389058587,-1.9177560506849238
58.8517,2168.6886,-0.037730695434738795,-0.07788938667960041,-0.3969982027600032,0.1083528841241998,-0.17018195336849132,0.010311520320234118,-0.23521827163855524,-0.36493697525401325,-1.8951452691026154
58.8722,2168.7086,-0.07327417415654329,-0.06535462433373981,-0.39271933044706553,0.07157135525718702,-0.16133821895959558,-0.018637063339593186,-0.24755789348150958,-0.4448850897592138,-1.8363572369886172
58.8943,2168.7286,-0.1183145588807151,-0.06481249784322791,-0.36224140372496083,0.07414786297322296,-0.19477879399815398,-0.0053812665291500476,-0.24755789348150958,-0.4448850897592138,-1.8363572369886172
58.9118,2168.7486,-0.16737475572858,-0.07415335159465591,-0.3118139429660658,0.077743301691335,-0.19115638191508605,-0.009055970751906542,-0.36464352372560116,-0.6171209406125665,-1.7549584232923139
58.9353,2168.7686,-0.21886229644789248,-0.09275952174380352,-0.24977754809738315,0.09312455856222683,-0.16315467433028527,-0.007227662953161201,-0.34080589503686376,-0.7558570872317627,-1.7685248922417003
58.9525,2168.7885,-0.2636468804027151,-0.10825595678415352,-0.18447966847904304,0.07674589589200688,-0.15287934749117785,-0.0060473801545648034,-0.4332122815950472,-0.768196709074717,-1.8047021427733916
58.97,2168.8085,-0.303113279576674,-0.12001837393015452,-0.12303611921336594,0.06700136303604316,-0.1604857316002368,-0.017399349155777722,-0.5379582899961817,-0.8604844454228715,-1.7820913611910831
59.0021,2168.8285,-0.33949582713456583,-0.12943392448144922,-0.07059126926666504,0.053164512596675484,-0.1587795996362643,-0.03667775374848409,-0.514120661307446,-0.9992205920420684,-1.7956578301404649
59.0123,2168.8485,-0.3716718772037496,-0.13553933693497602,-0.02998146876776775,0.05135716486863045,-0.12575015957819116,-0.05344410050739616,-0.550297911839136,-0.9404325599280722,-1.7233033290770847
59.0303,2168.8685,-0.4018141302073063,-0.1431825172238108,-0.001986687023902048,0.0641419180018629,-0.10917663341969389,-0.05628853683045035,-0.6912211707719647,-0.9739322641622259,-1.6283380464313972
59.0562,2168.8885,-0.42936443606737495,-0.1535761617225528,0.01469437314273786,0.06774983096768085,-0.09656074198914805,-0.05291817372779171,-0.6912211707719647,-0.9739322641622259,-1.6283380464313972
59.0715,2168.9085,-0.4576614025946857,-0.1613823937802465,0.022838162674801155,0.05432700116744507,-0.0939898935637649,-0.03977090866894364,-0.7836275573301446,-0.9862718860051798,-1.6645152969630872
59.0886,2168.9285,-0.4794212297057102,-0.1670200382954231,0.026192363942010063,0.048285524284462276,-0.08654624362891787,-0.018447584989933444,-0.7474503067984533,-1.0450599181191782,-1.7368697980264698
59.1092,2168.9485,-0.4893487740491661,-0.169501585281277,0.028238044046785163,0.0427953900910868,-0.07555977556468271,0.0036589761630878358,-0.7351106849554994,-0.9651118036139804,-1.795657830140466
59.1312,2168.9685,-0.48189077144570536,-0.168775924028423,0.03145499488125596,0.027636187196051445,-0.06093107086025028,0.025559326988078494,-0.8275170715136828,-0.9774514254569348,-1.8318350806721573
59.1493,2168.9885,-0.45338481343027026,-0.16392620882397363,0.036950425391260255,0.03720101103732135,-0.02402765960231388,0.03412202997329805,-0.8275170715136828,-0.9774514254569348,-1.8318350806721573
59.178,2169.0085,-0.4104592438675524,-0.161863941207113,0.04418404942348996,0.04350853250175368,-0.015411131982016405,0.047163928789972574,-0.7913398209819928,-1.036239457570931,-1.9041895817355374
59.1953,2169.0285,-0.3557194768478626,-0.15134943922990982,0.05208338830085006,0.0578937478596231,-0.018929606938554194,0.045398478964026066,-0.7551625704503016,-1.0950274896849292,-1.97654408279892
59.2194,2169.0485,-0.3030419884329816,-0.14288955534620942,0.05832041653720956,0.04879994948430137,-0.020502184578656397,0.04550158412804138,-0.7913398209819928,-1.036239457570931,-1.9041895817355374
59.2332,2169.0685,-0.2549357355811119,-0.13107287772071513,0.060504461047915556,0.022704325646202502,-0.028414295841745724,0.04901303850777362,-0.8837462075401763,-1.0485790794138854,-1.9403668322672287
59.2543,2169.0885,-0.2217611949773743,-0.12661163021856053,0.05578654817691426,0.03980443721588868,-0.03222697714248577,0.0505302219519464,-0.9761525940983562,-1.0609187012568393,-1.9765440827989187
59.2695,2169.1085,-0.2003914366536727,-0.12215724599252312,0.042273488048601565,0.07036021102131902,-0.016966359576310083,0.05172271457259726,-0.9199234580718663,-0.9897910472998891,-1.8680123312038486
59.3118,2169.1285,-0.1976225764280215,-0.13154469555803672,0.019319277816417554,0.04834898560509764,-0.030606868274950332,0.0399831967750636,-1.0123298446300462,-1.0021306691428429,-1.9041895817355385
59.3157,2169.1485,-0.1977569991701706,-0.11806098645101112,-0.010884401568349744,0.03702946732084885,-0.019773901063046044,0.02636472302804026,-1.1047362311882296,-1.0144702909857972,-1.9403668322672298
59.3292,2169.1685,-0.2064279215094989,-0.10350822741366132,-0.04458256067447114,0.01960222449990679,-0.023445881479015208,0.033294475367385626,-1.0323817301248484,-1.1320463552137918,-2.0850758343939924
59.3495,2169.1884,-0.218774403518446,-0.08714684972490253,-0.07610753118340763,0.026682219563313844,-0.04028587345705167,0.051360037636017056,-1.0685589806565396,-1.0732583230997936,-2.0127213333306098
59.3709,2169.2084,-0.228560784205159,-0.06984649433240012,-0.09930272468767384,0.021201161702985114,-0.039941654434017475,0.03820915485211582,-1.0447213519678022,-1.2119944697189897,-2.026287802279996
59.3957,2169.2284,-0.2340316071407034,-0.05413807895201542,-0.10894133886420646,0.020927723049679457,-0.03095356662239579,0.022325080790545335,-1.1733049890576737,-1.1655460594479452,-1.9901105517483038
59.4176,2169.2484,-0.23290606046332257,-0.04156387695058432,-0.10198988727991204,0.00941195131940551,-0.048276687560700624,0.030642230687781047,-1.185644610900628,-1.2454941739531458,-1.9313225196343053
59.4462,2169.2684,-0.22875136294849407,-0.036135193770742015,-0.07856249520789294,-0.00520078770568139,-0.05880973664493442,0.022606358913429235,-1.265711375615857,-1.1778856812908995,-2.026287802279995
59.4583,2169.2884,-0.21761402848850098,-0.04175935369441212,-0.04192694992725235,-0.003138729761368582,-0.05078558080444272,0.0027717290937981217,-1.2780509974588112,-1.2578337957961,-1.9674997701659966
59.4705,2169.3084,-0.2067795152776403,-0.057088271003335814,0.0019963893538765543,0.028265060417156374,-0.04073173984454577,0.0001742025056227224,-1.2780509974588112,-1.2578337957961,-1.9674997701659966
59.4983,2169.3284,-0.19986206263220718,-0.08026479290198982,0.04607212637621426,0.032068162571932374,-0.04294678084605678,-0.002039845226916753,-1.3504054985221925,-1.1402577315681055,-1.8227907680392341
59.5098,2169.3484,-0.19779349653668,-0.10256730478718291,0.08338710483899206,0.023468394374976196,-0.04492465752600299,-0.0013465986636032256,-1.3627451203651464,-1.2202058460733034,-1.764002735925238
59.5306,2169.3684,-0.2003764973467466,-0.12324738863277962,0.10831812865005046,0.017649394016552612,-0.05219378194356466,-0.009323682405841045,-1.3627451203651464,-1.2202058460733034,-1.764002735925238
59.5511,2169.3884,-0.20502190679364718,-0.13832247318957422,0.11728207610195546,0.04374266712497408,-0.03899035074474956,-0.012920153324322751,-1.3550328567132988,-1.170238274507555,-1.5243284511527857
59.5693,2169.4084,-0.2106402834128012,-0.14450756594536182,0.10898147232073996,0.05478190512306364,-0.02472536249164509,-0.00886016138340375,-1.2264492196234287,-1.2166866847785973,-1.5605057016844757
59.5912,2169.4284,-0.21596596768777238,-0.14153568311530002,0.08433016240208185,0.04207682568918655,-0.01216835841159482,-0.01106923474399512,-1.2950179774928718,-1.3677624532407502,-1.6102494211655498
59.611,2169.4484,-0.220616855416412,-0.12889201153577692,0.046219222510919956,0.0235653568165175,-0.0461434714935076,0.0022213826700847768,-1.2588407269611805,-1.4265504853547486,-1.6826039222289324
59.6303,2169.4684,-0.22127042110983147,-0.11086881477328102,-0.0008199198008920355,0.025711067186210933,-0.05727900084425944,0.03428934975700712,-1.2950179774928718,-1.3677624532407502,-1.6102494211655498
59.6506,2169.4884,-0.2156402495887562,-0.09195491068844841,-0.050949163321340335,0.04711649914320461,-0.03501532777437417,0.024373617601902323,-1.3073575993358257,-1.447710567745948,-1.5514613890515536
59.6716,2169.5084,-0.2045295694908386,-0.07413438071253592,-0.09761837915395755,0.05252768805441356,-0.0017447597550887001,0.004262231815703781,-1.399763985894009,-1.4600501895889024,-1.587638639583245
59.6925,2169.5284,-0.19200728324100788,-0.058137451394882717,-0.13457254274403385,0.016779224159339613,-0.04528350592559354,0.017547874857835568,-1.375926357205272,-1.5987863362081014,-1.601205108532629
59.7123,2169.5484,-0.1820502182219049,-0.046366390248038514,-0.15709184023496794,-0.0011027052119761411,-0.06623787069720545,0.011272478537482167,-1.352088728516536,-1.7375224828272953,-1.6147715774820128
59.7408,2169.5684,-0.1782283217565179,-0.04086483146434112,-0.16304941608218534,-0.002091200813018567,-0.0511815653455115,-0.004827302380383525,-1.328251099827799,-1.8762586294464942,-1.6283380464313972
59.7516,2169.5883,-0.1753295083738221,-0.047925546547754216,-0.15326170795377322,-0.008128621373191498,-0.05444200693523049,-0.013641437256798334,-1.4568347369176737,-1.8298102191754504,-1.5921607958997057
59.7751,2169.6083,-0.17628290448109568,-0.06028050194941752,-0.13106632325082115,0.0027668362514515943,-0.06626337557527552,-0.008719522321961807,-1.4892262442554265,-2.0396740197515992,-1.71425901644416
59.7915,2169.6283,-0.17955464060053827,-0.07739037060548992,-0.10121757955341934,-0.002056632440686558,-0.04735148895055101,-0.034941697938594564,-1.4892262442554265,-2.0396740197515992,-1.71425901644416
59.8101,2169.6483,-0.18483724370057247,-0.09329973359546571,-0.06876266080434654,-0.015216961947307308,-0.02519595350229229,-0.05952323524361515,-1.5816326308136102,-2.0520136415945536,-1.7504362669758513
59.8322,2169.6683,-0.1929251192589134,-0.10508138968892392,-0.03825669567279874,-0.022704572426511006,-0.027151086473586283,-0.06167849494404063,-1.5816326308136102,-2.0520136415945536,-1.7504362669758513
59.8531,2169.6883,-0.206913531244458,-0.11442708630300712,-0.013380225160592743,-0.021448657091256706,-0.054781948893374524,-0.06054795586492529,-1.7302681533982822,-2.13548091739446,-1.8951452691026152
59.8964,2169.7083,-0.2170735558881774,-0.10889637368202852,0.0035283043420826637,-0.015893765044299527,-0.04746489846967994,-0.06708789832979169,-1.7302681533982822,-2.13548091739446,-1.8951452691026152
59.9169,2169.7283,-0.2386989871340583,-0.10870544987999571,0.010967029724228555,-0.017751878063552416,-0.034436714813394,-0.06847167816262886,-1.7302681533982822,-2.13548091739446,-1.8951452691026152
59.9261,2169.7483,-0.2672369399508572,-0.10899284787554152,0.009183838380719053,-0.029491566013237505,-0.01735472189515573,-0.07471768046692527,-1.7664454039299735,-2.076692885280462,-1.8227907680392326
59.9367,2169.7683,-0.29450698569238487,-0.10425087086246201,-3.105811457504437e-05,-0.04171841618213377,-0.017794840370699297,-0.07371511841156579,-1.637861766840099,-2.123141295551506,-1.8589680185709239
59.9519,2169.7883,-0.31677184044930307,-0.09584024199430291,-0.013685279678720547,-0.029191608256336918,-0.008228403250119176,-0.05496309281409553,-1.6255221449971446,-2.0431931810463055,-1.9177560506849223
59.9741,2169.8083,-0.33146064369457606,-0.08612173860488823,-0.02804638258273573,-0.018565287848526183,-0.014639923912811612,-0.029251468645591257,-1.661699395528836,-1.9844051489323071,-1.8454015496215397
59.9903,2169.8283,-0.33761157167586386,-0.07992280845914972,-0.039522211610438146,-0.018953610715705192,-0.02073264925364573,-0.012664651492442683,-1.5331157584389645,-2.0308535592033516,-1.8815788001532323
60.0112,2169.8483,-0.33160591026737307,-0.07261621448198842,-0.04553475857800454,-0.0439342481276217,-0.017785363459281396,-0.01910510651834693,-1.6131825231541903,-1.9632450665411048,-1.9765440827989207
60.0321,2169.8683,-0.31600229071720287,-0.06805283187300021,-0.04554308125715134,-0.059583569063149745,-0.002813966939048341,-0.03319252787538732,-1.5446137652847476,-1.8121692980789548,-1.9268003633178443
60.0499,2169.8883,-0.2958101587088094,-0.07090782493647721,-0.040925147063122835,-0.037865583672557226,-0.026811943198761172,-0.006207464488167527,-1.5446137652847476,-1.8121692980789548,-1.9268003633178443
60.0697,2169.9083,-0.27612645979502626,-0.07919812055855661,-0.03407958969839234,-0.013685284578402143,-0.03670367922676318,0.0113905068173418,-1.4398677568836096,-1.7198815617307999,-1.9494111449001512
60.0937,2169.9283,-0.2602398972528387,-0.08944203764805161,-0.027178056489744334,0.008247420292593791,-0.048668074642131576,0.010116615382994638,-1.4036905063519183,-1.778669593844798,-2.021765645963534
60.1093,2169.9483,-0.24818099454630987,-0.09823398395041602,-0.021229366699258234,-0.0071849509809899514,-0.035809221322558,-0.008890459830724043,-1.3598009921683842,-1.7874900543930465,-1.8544458622544628
60.1346,2169.9683,-0.2424885154473092,-0.09997181205350082,-0.01602704553657544,-0.034813210692823685,-0.03749704929082818,-0.03567926163380941,-1.2312173550785095,-1.8339384646640904,-1.8906231127861544
60.1538,2169.9883,-0.2455341062111651,-0.10227113024155891,-0.010903993960341238,-0.019655881713920235,-0.046772708881546284,-0.022250266236445798,-1.2188777332355551,-1.7539903501588898,-1.9494111449001525
60.1716,2170.0083,-0.2572355885413558,-0.10629933112650732,-0.005565944045461846,-0.012829183715140611,-0.06343609312956318,-0.01542859343306386,-1.2188777332355551,-1.7539903501588898,-1.9494111449001525
60.1976,2170.0282,-0.27706719989017126,-0.10969219288627402,-0.0007992199248778448,-0.01042088334864872,-0.0639283312251125,-0.006236858504224523,-1.2427153619242925,-1.6152542035396937,-1.9358446759507664
60.2132,2170.0482,-0.29822965825103953,-0.11307418242284392,0.0015989427059903555,-0.0005013904073502185,-0.06591875725472256,0.004569286229591508,-1.335121748482476,-1.627593825382648,-1.9720219264824574
60.2319,2170.0682,-0.32035167536010045,-0.11071510035592642,-0.0005387690674225482,-0.008613522565908693,-0.06831404249706505,-0.007671286487806066,-1.395136627702903,-1.430069646649453,-1.8861009564696933
60.26,2170.0882,-0.3423163579874038,-0.10035536250782202,-0.008576937964032139,-0.01475725516978591,-0.06695672701576456,-0.0008722244660064293,-1.4074762495458573,-1.5100177611546535,-1.827312924355695
60.2776,2170.1082,-0.3602962807041783,-0.08940976541435833,-0.02191541077553144,-0.01838357699872823,-0.04747145404373329,0.005116467143883328,-1.4074762495458573,-1.5100177611546535,-1.827312924355695
60.293,2170.1282,-0.3764684999114354,-0.07771539163526751,-0.037470059864967736,0.011993594858251747,-0.03330935831132576,0.0037399227611524958,-1.4074762495458573,-1.5100177611546535,-1.827312924355695
60.3114,2170.1482,-0.3923254850793946,-0.06629002149878502,-0.050067513103393635,0.013500456528456075,-0.05582550852540779,0.01602933476676785,-1.395136627702903,-1.430069646649453,-1.8861009564696933
60.3318,2170.1682,-0.40667999278603284,-0.055328573108661516,-0.05392737334083075,-0.02170540874053521,-0.06002222746329696,0.0195683743000305,-1.4313138782345929,-1.3712816145354567,-1.8137464554063132
60.3513,2170.1882,-0.41658468458011566,-0.047516234663295416,-0.04488030007558724,-0.04499184123450793,-0.02821427466059127,0.00910093907431742,-1.395136627702903,-1.430069646649453,-1.8861009564696933
60.3723,2170.2082,-0.42147802228829145,-0.04605055266511432,-0.022461507456409846,-0.05517686475095304,-0.002877361446367964,-0.015734743415688292,-1.395136627702903,-1.430069646649453,-1.8861009564696933
60.4046,2170.2282,-0.4206555223808942,-0.050007287636588016,0.009197309447002852,-0.03719403045653199,0.004394282825197801,-0.04051435116736988,-1.3827970058599486,-1.3501215321442523,-1.9448889885836917
60.412,2170.2482,-0.4198146155531557,-0.06700619332871761,0.04158566995675565,0.010168073537320554,-0.030800386164812565,0.010919298129166527,-1.4752033924181283,-1.3624611539872062,-1.9810662391153817
60.445,2170.2682,-0.4093062543754069,-0.07850095019864092,0.06423123157380425,0.0004681458628928634,0.006650746306132429,0.0026600318327815267,-1.4952552779129307,-1.4923768400581552,-2.1619524917738357
60.4585,2170.2882,-0.39427168428241754,-0.07483953348790612,0.06634319472477056,-0.0377049161788349,0.07807322212394005,-0.0474513389568216,-1.5514844139394195,-1.5635044940151075,-2.2704842433689083
60.4707,2170.3082,-0.3700121599815459,-0.05016203444368102,0.04041788465628146,0.02736050137706742,0.003570668595598773,0.009321168086929088,-1.5514844139394195,-1.5635044940151075,-2.2704842433689083
60.5,2170.3282,-0.3292188332438457,-0.007432230277191618,-0.015236046454176047,0.02636394323568211,0.0633725755753499,-0.0051587764383801415,-1.5153071634077282,-1.6222925261291057,-2.342838744432291
60.5217,2170.3482,-0.2922366581964888,0.03824642232628578,-0.09505748322019045,-0.03834879494889693,0.05598827512529086,-0.002809516231978472,-1.5153071634077282,-1.6222925261291057,-2.342838744432291
60.5307,2170.3682,-0.2667314613293777,0.09261069969466708,-0.18543468453005893,0.16358040121544778,0.0658783313582307,-0.023861058316369338,-1.442952662344347,-1.7398685903571003,-2.4875477465590534
60.5504,2170.3882,-0.2543101108902383,0.13234479022400886,-0.2674727198995537,0.13091245010394967,-0.1099499980855849,0.0959209137627955,-1.3705981612809657,-1.857444654585095,-2.632256748685816
60.5712,2170.4081,-0.2532228280162374,0.17782590460800668,-0.3232918944746561,-0.002506891823853086,-0.053874817452905406,0.01741447124649996,-1.2543541460340486,-1.98384117936134,-2.60964596710351
60.5912,2170.4281,-0.2594172230594946,0.22800607174671095,-0.3414896551854809,-0.221506172194005,-0.06864098685140856,-0.07670155044295686,-1.2420145241910943,-1.9038930648561394,-2.6684339992175086
60.6099,2170.4481,-0.27532972196985817,0.27058898281004184,-0.321774479731469,-0.3322959355972109,-0.08621512132119899,-0.1456802618161,-1.2543541460340486,-1.98384117936134,-2.60964596710351
60.6309,2170.4681,-0.3056875534861667,0.3098115786207531,-0.276425991610737,-0.09432122962778983,-0.0631115185215082,-0.08092886216758494,-1.2181768955023586,-2.042629211475336,-2.68200046816689
60.6503,2170.4881,-0.34238731248966636,0.34386384591176916,-0.22478391945703421,-0.13540126095349733,-0.2253652176172335,0.16881943023104734,-1.1134308871012206,-1.9503414751271813,-2.704611249749197
60.6708,2170.5081,-0.3726218747895901,0.3858807869647495,-0.18515494556009385,-0.10835765820753393,-0.046573572079424044,0.053962086380508915,-1.0410763860378394,-2.0679175393551756,-2.8493202518759597
60.694,2170.5281,-0.3849232194469139,0.43291955589364806,-0.16480709539689073,-0.0040816828197487295,0.021911717915425018,-0.012871314036104966,-1.0772536365695293,-2.0091295072411794,-2.77696575081258
60.7103,2170.5481,-0.3828583430409104,0.4911711549387653,-0.15748955170270376,0.23528339798766007,-0.026571538396614275,0.02547883260564547,-0.9486699994796596,-2.0555779175122217,-2.8131430013442698
60.7295,2170.5682,-0.3757124729811815,0.5485151264488687,-0.14560606736051865,0.22409653304337218,-0.08650288286214651,0.05591972784990503,-0.9725076281683956,-1.9168417708930279,-2.799576532394886
60.7517,2170.5882,-0.3675486548472417,0.6100594792640128,-0.11186044158293273,0.04081030396619998,-0.18329401061174164,0.003239772272551875,-0.9725076281683956,-1.9168417708930279,-2.799576532394886
60.7768,2170.6082,-0.3511718788037449,0.680331838610229,-0.049771047596208345,-0.08261661844032073,-0.2361577617011455,-0.03325402920129118,-0.8439239910785222,-1.9632901811640697,-2.8357537829265747
60.7927,2170.6283,-0.3044106174063751,0.7388472900520066,0.03169939392291646,-0.06098596184148153,-0.2733575786742592,-0.033579624456076394,-0.9363303776367057,-1.975629803007024,-2.871931033458266
60.8116,2170.6483,-0.2327571925289887,0.7951863548273506,0.10552272029706097,0.05993442339079449,-0.21703195467670772,-0.08642644760150697,-0.9725076281683956,-1.9168417708930279,-2.799576532394886
60.8352,2170.6683,-0.1393350700454876,0.8485518860631666,0.14132627500048145,0.08073942422865552,-0.1502838310382319,-0.07960341815123011,-0.9963452568571326,-1.778105624273829,-2.7860100634455014
60.8557,2170.6883,-0.043676814830372196,0.9092810863420258,0.11836780914932915,0.16787191442225363,-0.05141162760282881,-0.091037238181771,-1.05636013607756,-1.5805814455406366,-2.700089093432735
60.878,2170.7084,0.041015799974164296,0.9760607538944174,0.03820525690891796,0.245497712646138,-0.008738549716640965,-0.11645899213039008,-1.0925373866092514,-1.5217934134266382,-2.627734592369353
60.8965,2170.7284,0.0920238425952227,1.0487978508484679,-0.07603723595592163,0.19099797004805677,-0.07349896799475891,-0.15777657774700246,-1.080197764766297,-1.4418452989214376,-2.686522624483351
60.9118,2170.7484,0.1051892532278236,1.102089471322946,-0.18708367998334616,0.04687451171648673,-0.1601583482059576,-0.18223194689079378,-1.0678581429233427,-1.3618971844162369,-2.7453106565973493
60.9326,2170.7685,0.09267911067829021,1.121829164559994,-0.26250684480234976,-0.07143597895391489,-0.19063255086655498,-0.15498595508411417,-1.0678581429233427,-1.3618971844162369,-2.7453106565973493
60.9525,2170.7885,0.05589770831741911,1.100451393962608,-0.28712380007135674,-0.12237476390818186,-0.19291827531587116,-0.08150679374482869,-1.0678581429233427,-1.3618971844162369,-2.7453106565973493
60.9759,2170.8085,0.006783695944037604,1.0607808924097812,-0.2725590188641369,-0.12859812980738725,-0.2224503057296624,0.02042170519694676,-1.0793561497691244,-1.1432129232918422,-2.790532219761964
61.0001,2170.8286,-0.034799083318483484,1.026702270119071,-0.24876895350372832,-0.1180692234935695,-0.24558852848961626,0.07740720580320277,-1.0431788992374345,-1.2020009554058386,-2.862886720825344
61.0098,2170.8486,-0.036605489532341495,1.0160722585000304,-0.24940489895246884,-0.059451517027525984,-0.1756673014969369,0.06426491511630279,-1.1109060421097061,-1.054444348238394,-3.0166400355850285
61.0311,2170.8686,-0.029503635208138992,1.0563981262038586,-0.29657572905950746,0.027060004452770094,-0.027078523902418074,0.047576349446033846,-1.0385515410463235,-1.1720204124663907,-3.1613490377117937
61.0527,2170.8886,-0.013563169619537296,1.1365734093313635,-0.3858867943102584,0.1081943401174025,0.01325943064255425,0.1018069524243016,-0.8976282821134992,-1.1385207082322324,-3.256314320357482
61.0705,2170.9087,0.00036621360951100135,1.2434138541197888,-0.4908500076649165,0.14743880288033975,-0.022577821347218793,0.14547470267857893,-1.0262119192033692,-1.09207229796119,-3.220137069825792
61.0921,2170.9287,0.0011541223423868208,1.3382837457468966,-0.5713378041658508,0.08223407813864429,-0.07788889364196361,0.11476066919280513,-0.8614510315818079,-1.1973087403462308,-3.3286688214208646
61.112,2170.9487,-0.005716621836452496,1.3957076170159028,-0.594428305296202,-0.00969021554343991,-0.1397894164085768,0.06843931761202827,-0.849111409738854,-1.117360625841033,-3.387456853534861
61.1315,2170.9687,-0.021675723653358195,1.3905480707843203,-0.5447054855298272,-0.015574513139752728,-0.12777993281456848,0.03885039661779003,-0.825273781050118,-1.256096772460227,-3.4010233224842445
61.1514,2170.9888,-0.05119439915616519,1.318982050846032,-0.432330940107321,-0.051253753798249,-0.13149616674451206,0.05020688777531942,-0.8453256665449153,-1.3860124585311777,-3.5819095751426997
61.1838,2171.0088,-0.11198707313909119,1.1985217789855391,-0.2889819630112125,-0.004061487121615916,-0.1373298500940408,0.08022903134467464,-0.7606315436385801,-1.4236404082539744,-3.7854066093834584
61.2007,2171.0288,-0.1700197647738907,1.0760870081657148,-0.15618823167311183,0.11034141199595347,-0.14477956116009108,0.15022794118281146,-0.8530379301967635,-1.4359800300969288,-3.8215838599151497
61.2214,2171.0489,-0.2387137735596768,0.9837995039509225,-0.06212745771617345,0.193154526886019,-0.09174712285644757,0.19921284283398405,-0.8168606796650736,-1.494768062210925,-3.89393836097853
61.2339,2171.0689,-0.2902570850550795,0.9694468014231726,-0.013047550113679945,0.16950139948549373,0.029010459169406016,0.20155124986522624,-0.8730898156915624,-1.5658957161678773,-4.002470112573603
61.269,2171.0889,-0.35406085694060396,0.955136136507719,0.02227891515713526,0.16185494999746328,0.12092843958745551,0.19818857442830556,-0.9416585735610082,-1.7169714846300277,-4.05221383205468
61.2808,2171.1089,-0.3963309305040025,1.0255781141393352,0.07443694241785016,0.16830058749468083,0.185968028654477,0.20174932031188725,-0.9178209448722726,-1.8557076312492247,-4.065780301004062
61.3103,2171.129,-0.46772819084395056,1.0620938950289645,0.19060484144018658,0.04805759820242673,0.1412141362543899,0.17799036324083098,-0.930160566715227,-1.9356557457544252,-4.006992268890063
61.3143,2171.149,-0.5200508398108616,1.0549622127117442,0.39007141557058944,-0.14473181801235568,0.06162943760341133,0.13528447563506496,-0.9548398104011352,-2.0955519747648235,-3.889416204662069
61.3511,2171.169,-0.6178769566220809,1.0561135223852045,0.6534987549917546,-0.32449206768435235,-0.03926015667959412,0.0497040239929289,-1.0595858188022722,-2.1878397111129755,-3.866805423079764
61.3536,2171.189,-0.7040854848524248,0.836072015157998,0.9677159711426377,-0.43072750967258844,-0.08097881344871047,-0.0750532244656067,-1.0719254406452265,-2.2677878256181763,-3.8080173909657655
61.37,2171.209,-0.8098287748376588,0.5694533740554393,1.2555052903644335,-0.3002137793012571,0.012376374697876056,-0.143059220015079,-1.1643318272034067,-2.28012744746113,-3.8441946414974555
61.3912,2171.229,-0.9524491030007877,0.23686023060845596,1.4585881156303728,-0.05983078026144461,-0.061732248741819186,0.0061104371022415345,-1.2567382137615903,-2.2924670693040845,-3.880371892029147
61.4115,2171.2489,-1.1202842057744118,-0.09830148343578722,1.5304680858835618,-0.05800190186962081,-0.3399841761285328,0.2027125396072935,-1.325306971631033,-2.4435428377662376,-3.930115611510221
61.4295,2171.2689,-1.2571285623936714,-0.35198417688952455,1.4592315002340235,-0.23975854103134472,-0.29798338749073155,0.1562247726740709,-1.3453588571258355,-2.5734585238371865,-4.111001864168675
61.4497,2171.2889,-1.3167284353426905,-0.46978903323532484,1.263967598380556,-0.4258640065618487,0.03467424399633736,-0.0019557331194305747,-1.4139276149952795,-2.7245342922993365,-4.160745583649752
61.4719,2171.3089,-1.2723874580067913,-0.46810868842154224,0.9798870118818634,-0.5918680526464686,0.3865120688838447,-0.13189130277594607,-1.5186736233964158,-2.816822028647491,-4.138134802067444
61.492,2171.3289,-1.1530511629524691,-0.4155007141182626,0.6462685477958481,-0.40888628652401027,0.54404169893485,0.10514882594216655,-1.611080009954599,-2.8291616504904455,-4.174312052599135
61.5112,2171.3489,-0.9882016184427558,-0.33624866517360685,0.31477852076767937,-0.11161453866727084,0.6236426086676485,0.36724577059415986,-1.667309145981091,-2.900289304447396,-4.282843804194206
61.5338,2171.3689,-0.7933108274723417,-0.24640777126657382,0.04300743622921675,-0.03431228780890122,0.6230277010227978,0.4823834881363188,-1.723538282007581,-2.9714169584043484,-4.3913755557892795
61.5528,2171.3889,-0.5691432029151305,-0.1374372054044391,-0.12038636320144994,-0.11904544902293734,0.5414890879956066,0.3973588095054759,-1.7435901675023817,-3.1013326444752973,-4.572261808447733
61.5753,2171.4089,-0.33774776878831303,-0.03227735479293252,-0.15601674350686315,-0.27558097225700895,0.4889868132509729,0.19542915464400085,-1.9645801911504381,-3.067223856047207,-4.572261808447732
61.5972,2171.4289,-0.1325133860721685,0.042468232040057785,-0.08031561232466153,-0.40491717226415236,0.4264806382625809,0.021971900382229684,-2.020809327176929,-3.13835151000416,-4.6807935600428054
61.6107,2171.4489,0.007122501675054599,0.02465531573753408,0.056593243428552556,-0.4746173578404265,0.2865446898240265,-0.042695839374430875,-2.077038463203419,-3.209479163961112,-4.789325311637878
61.6306,2171.4689,0.07187198809588552,-0.023226526402087118,0.17980661509946144,-0.3885033330741147,0.15852314957876976,-0.009601795019303423,-2.169444849761601,-3.2218187858040666,-4.825502562169569
61.6548,2171.4889,0.07741349656347801,-0.09084584293104142,0.21252052996057386,-0.11042259181580628,0.13706444503401854,0.01854727140377353,-2.169444849761601,-3.2218187858040666,-4.825502562169569
61.6704,2171.5089,0.0396246570939682,-0.13299662606711712,0.10491424335981606,0.11857606151687694,0.2488953833684083,-0.03380301897810961,-2.133267599229911,-3.2806068179180627,-4.897857063232949
61.6972,2171.5289,0.010841149872575118,-0.11568504820889772,-0.14468986956801963,0.15556413764227034,0.32913850966464403,-0.06446052550992766,-2.1094299705411736,-3.419342964537259,-4.911423532182335
61.7145,2171.5489,-0.052820200877344084,-0.001759755720233215,-0.48566175307238235,0.16011937045115193,0.30494125635021146,-0.06109785007300701,-2.2380136076310464,-3.3728945542662143,-4.875246281650643
61.7329,2171.5689,-0.12109556890253309,0.166663800489892,-0.8371818447277702,0.1640446748939014,0.15302888663074357,0.03135854024830852,-2.145607221072865,-3.3605549324232604,-4.839069031118952
61.7581,2171.5889,-0.1891996526026425,0.34158584163228695,-1.113861023862033,0.11305465126306163,0.030471425030858167,0.07843554414956608,-2.1941240934475092,-3.381715014814465,-4.707926497941575
61.7754,2171.6089,-0.2498515246497026,0.4961811006206842,-1.2550921775836812,0.038075047161431536,-0.12402671830399291,0.06768411750717922,-2.2064637152904636,-3.4616631293196654,-4.649138465827576
61.7987,2171.6289,-0.3119037309711692,0.5965856958045243,-1.2406902235227448,-0.015310637476464562,-0.19593498076741175,0.015842117495266355,-2.254980587665109,-3.4828232117108646,-4.517995932650197
61.8111,2171.6488,-0.3719555324474515,0.6281436921014716,-1.092063962531539,-0.01920760943739904,-0.21397115133089323,-0.027177607758862077,-2.267320209508063,-3.5627713262160654,-4.459207900536199
61.8321,2171.6688,-0.4512223387614419,0.5986343066681019,-0.861010984988989,0.07480502783829403,-0.22455918690389448,-0.03742481397196349,-2.267320209508063,-3.5627713262160654,-4.459207900536199
61.8501,2171.6888,-0.5496576398404518,0.5228519225730799,-0.6071347889409242,0.20145861702963466,-0.184798769339823,-0.02327860458280912,-2.2033788098297262,-3.4416761006933623,-4.111001864168676
61.8701,2171.7088,-0.6640833214562015,0.41980091545649034,-0.3771698690292282,0.29228403690073707,-0.1622675766303644,0.013958187173828566,-2.1233120451144987,-3.5092845933556087,-4.016036581522987
61.8903,2171.7288,-0.7847592303637061,0.32045983523365684,-0.19141826693947264,0.2790869194223489,-0.17793601072798365,0.02937783578169845,-2.1233120451144987,-3.5092845933556087,-4.016036581522987
61.9113,2171.7488,-0.8966435559675299,0.24491834229648757,-0.040290638389843536,0.18690008482571166,-0.1985574045084482,0.02874518611302552,-2.171828917489143,-3.530444675746813,-3.884894048345609
61.934,2171.7688,-0.984170966525425,0.1945362752028877,0.10641751733351086,-0.0020953946813150963,-0.17114850030952963,-0.029767446681299495,-2.171828917489143,-3.530444675746813,-3.884894048345609
