AppTimestamp(s),SensorTimestamp(s),acc_x,acc_y,acc_z,gyro_x,gyro_y,gyro_z,mag_x,mag_y,mag_z,ble_rssi_BE:AC:20:23:00:02,ble_rssi_BE:AC:20:23:00:06,wifi_rssi_20:23:00:00:00:01,wifi_rssi_20:23:00:00:00:09,wifi_rssi_20:23:00:00:00:12,wifi_rssi_20:23:00:00:00:15,wifi_rssi_20:23:00:00:00:38,wifi_rssi_20:23:00:00:00:44,wifi_rssi_20:23:00:00:00:45,wifi_rssi_20:23:00:00:00:55,wifi_rssi_20:23:00:00:00:65,wifi_rssi_20:23:00:00:00:69,wifi_rssi_20:23:00:00:00:73,wifi_rssi_20:23:00:00:00:79,wifi_rssi_20:23:00:00:00:80,wifi_rssi_20:23:00:00:00:82,wifi_rssi_20:23:00:00:00:88,wifi_rssi_20:23:00:00:00:89,wifi_rssi_20:23:00:00:00:90,wifi_rssi_20:23:00:00:01:16,wifi_rssi_20:23:00:00:01:62,wifi_rssi_20:23:00:00:01:71,wifi_rssi_20:23:00:00:01:74,wifi_rssi_20:23:00:00:01:81,wifi_rssi_20:23:00:00:01:82,wifi_rssi_20:23:00:00:01:88,wifi_rssi_20:23:00:00:01:89,wifi_rssi_20:23:00:00:01:90,wifi_rssi_20:23:00:00:01:91,wifi_rssi_20:23:00:00:01:94,wifi_rssi_20:23:00:00:02:55,wifi_rssi_20:23:00:00:02:61,wifi_rssi_20:23:00:00:02:73,wifi_rssi_20:23:00:00:02:88,wifi_rssi_20:23:00:00:03:11,wifi_rssi_20:23:00:00:03:20,wifi_freq_20:23:00:00:00:01,wifi_freq_20:23:00:00:00:09,wifi_freq_20:23:00:00:00:12,wifi_freq_20:23:00:00:00:15,wifi_freq_20:23:00:00:00:38,wifi_freq_20:23:00:00:00:44,wifi_freq_20:23:00:00:00:45,wifi_freq_20:23:00:00:00:55,wifi_freq_20:23:00:00:00:65,wifi_freq_20:23:00:00:00:69,wifi_freq_20:23:00:00:00:73,wifi_freq_20:23:00:00:00:79,wifi_freq_20:23:00:00:00:80,wifi_freq_20:23:00:00:00:82,wifi_freq_20:23:00:00:00:88,wifi_freq_20:23:00:00:00:89,wifi_freq_20:23:00:00:00:90,wifi_freq_20:23:00:00:01:16,wifi_freq_20:23:00:00:01:62,wifi_freq_20:23:00:00:01:71,wifi_freq_20:23:00:00:01:74,wifi_freq_20:23:00:00:01:81,wifi_freq_20:23:00:00:01:82,wifi_freq_20:23:00:00:01:88,wifi_freq_20:23:00:00:01:89,wifi_freq_20:23:00:00:01:90,wifi_freq_20:23:00:00:01:91,wifi_freq_20:23:00:00:01:94,wifi_freq_20:23:00:00:02:55,wifi_freq_20:23:00:00:02:61,wifi_freq_20:23:00:00:02:73,wifi_freq_20:23:00:00:02:88,wifi_freq_20:23:00:00:03:11,wifi_freq_20:23:00:00:03:20,Latitude_degrees,Longitude_degrees,floor_ID
0.0384,2109.8329,-4.51081,5.28177,7.81252,0.56433,-0.60656,0.02082,11.7,-3.4,23.3,-110.0,-97.0,-65.0,-71.0,-77.0,-87.0,-110.0,-88.0,-83.0,-77.0,-82.0,-110.0,-64.0,-92.0,-90.0,-88.0,-110.0,-94.0,-56.0,-110.0,-110.0,-110.0,-110.0,-110.0,-110.0,-110.0,-110.0,-110.0,-110.0,-110.0,-110.0,-110.0,-110.0,-110.0,-89.0,-110.0,2437.0,5200.0,2417.0,2452.0,-1.0,2462.0,2412.0,2427.0,2437.0,-1.0,2437.0,5220.0,5220.0,2462.0,-1.0,2452.0,2437.0,-1.0,-1.0,-1.0,-1.0,-1.0,-1.0,-1.0,-1.0,-1.0,-1.0,-1.0,-1.0,-1.0,-1.0,-1.0,2462.0,-1.0,49.461057929696,11.110709726607,-2.0
0.0402,2109.8529,-4.79573,5.46134,6.88593,0.08907,-0.9407,0.29816,11.9,-3.4,23.4,-110.0,-97.0,-65.0,-71.0,-77.0,-87.0,-110.0,-88.0,-83.0,-77.0,-82.0,-110.0,-64.0,-92.0,-90.0,-88.0,-110.0,-94.0,-56.0,-110.0,-110.0,-110.0,-110.0,-110.0,-110.0,-110.0,-110.0,-110.0,-110.0,-110.0,-110.0,-110.0,-110.0,-110.0,-89.0,-110.0,2437.0,5200.0,2417.0,2452.0,-1.0,2462.0,2412.0,2427.0,2437.0,-1.0,2437.0,5220.0,5220.0,2462.0,-1.0,2452.0,2437.0,-1.0,-1.0,-1.0,-1.0,-1.0,-1.0,-1.0,-1.0,-1.0,-1.0,-1.0,-1.0,-1.0,-1.0,-1.0,2462.0,-1.0,49.461057929696,11.110709726607,-2.0
0.0417,2109.8729,-4.25702,5.64331,6.89312,-0.33548,-1.47154,0.3513,12.0,-3.5,23.4,-110.0,-97.0,-65.0,-71.0,-77.0,-87.0,-110.0,-88.0,-83.0,-77.0,-82.0,-110.0,-64.0,-92.0,-90.0,-88.0,-110.0,-94.0,-56.0,-110.0,-110.0,-110.0,-110.0,-110.0,-110.0,-110.0,-110.0,-110.0,-110.0,-110.0,-110.0,-110.0,-110.0,-110.0,-89.0,-110.0,2437.0,5200.0,2417.0,2452.0,-1.0,2462.0,2412.0,2427.0,2437.0,-1.0,2437.0,5220.0,5220.0,2462.0,-1.0,2452.0,2437.0,-1.0,-1.0,-1.0,-1.0,-1.0,-1.0,-1.0,-1.0,-1.0,-1.0,-1.0,-1.0,-1.0,-1.0,-1.0,2462.0,-1.0,49.461057929696,11.110709726607,-2.0
0.0633,2109.8929,-3.4717,5.74865,7.51084,-0.41184,-1.8344,0.17476,12.1,-3.5,23.4,-110.0,-97.0,-65.0,-71.0,-77.0,-87.0,-110.0,-88.0,-83.0,-77.0,-82.0,-110.0,-64.0,-92.0,-90.0,-88.0,-110.0,-94.0,-56.0,-110.0,-110.0,-110.0,-110.0,-110.0,-110.0,-110.0,-110.0,-110.0,-110.0,-110.0,-110.0,-110.0,-110.0,-110.0,-89.0,-110.0,2437.0,5200.0,2417.0,2452.0,-1.0,2462.0,2412.0,2427.0,2437.0,-1.0,2437.0,5220.0,5220.0,2462.0,-1.0,2452.0,2437.0,-1.0,-1.0,-1.0,-1.0,-1.0,-1.0,-1.0,-1.0,-1.0,-1.0,-1.0,-1.0,-1.0,-1.0,-1.0,2462.0,-1.0,49.461057929696,11.110709726607,-2.0
0.0945,2109.9129,-2.85876,5.70556,8.04955,-0.24385,-2.14655,-0.17588,12.2,-3.5,23.4,-110.0,-97.0,-65.0,-71.0,-77.0,-87.0,-110.0,-88.0,-83.0,-77.0,-82.0,-110.0,-64.0,-92.0,-90.0,-88.0,-110.0,-94.0,-56.0,-110.0,-110.0,-110.0,-110.0,-110.0,-110.0,-110.0,-110.0,-110.0,-110.0,-110.0,-110.0,-110.0,-110.0,-110.0,-89.0,-110.0,2437.0,5200.0,2417.0,2452.0,-1.0,2462.0,2412.0,2427.0,2437.0,-1.0,2437.0,5220.0,5220.0,2462.0,-1.0,2452.0,2437.0,-1.0,-1.0,-1.0,-1.0,-1.0,-1.0,-1.0,-1.0,-1.0,-1.0,-1.0,-1.0,-1.0,-1.0,-1.0,2462.0,-1.0,49.461057929696,11.110709726607,-2.0
0.0949,2109.9329,-2.86595,5.61936,8.46137,-0.05081,-2.13678,-0.28156,12.0,-3.4,23.2,-110.0,-97.0,-65.0,-71.0,-77.0,-87.0,-110.0,-88.0,-83.0,-77.0,-82.0,-110.0,-64.0,-92.0,-90.0,-88.0,-110.0,-94.0,-56.0,-110.0,-110.0,-110.0,-110.0,-110.0,-110.0,-110.0,-110.0,-110.0,-110.0,-110.0,-110.0,-110.0,-110.0,-110.0,-89.0,-110.0,2437.0,5200.0,2417.0,2452.0,-1.0,2462.0,2412.0,2427.0,2437.0,-1.0,2437.0,5220.0,5220.0,2462.0,-1.0,2452.0,2437.0,-1.0,-1.0,-1.0,-1.0,-1.0,-1.0,-1.0,-1.0,-1.0,-1.0,-1.0,-1.0,-1.0,-1.0,-1.0,2462.0,-1.0,49.461057929696,11.110709726607,-2.0
0.1188,2109.9529,-2.99524,5.33923,8.24109,0.07502,-2.28949,0.08313,9.7,-3.3,21.4,-110.0,-97.0,-65.0,-71.0,-77.0,-87.0,-110.0,-88.0,-83.0,-77.0,-82.0,-110.0,-64.0,-92.0,-90.0,-88.0,-110.0,-94.0,-56.0,-110.0,-110.0,-110.0,-110.0,-110.0,-110.0,-110.0,-110.0,-110.0,-110.0,-110.0,-110.0,-110.0,-110.0,-110.0,-89.0,-110.0,2437.0,5200.0,2417.0,2452.0,-1.0,2462.0,2412.0,2427.0,2437.0,-1.0,2437.0,5220.0,5220.0,2462.0,-1.0,2452.0,2437.0,-1.0,-1.0,-1.0,-1.0,-1.0,-1.0,-1.0,-1.0,-1.0,-1.0,-1.0,-1.0,-1.0,-1.0,-1.0,2462.0,-1.0,49.461057929696,11.110709726607,-2.0
0.1337,2109.9729,-2.93059,5.73189,7.7359,-0.39962,-2.75925,0.55044,6.5,-3.2,18.2,-110.0,-97.0,-65.0,-71.0,-77.0,-87.0,-110.0,-88.0,-83.0,-77.0,-82.0,-110.0,-64.0,-92.0,-90.0,-88.0,-110.0,-94.0,-56.0,-110.0,-110.0,-110.0,-110.0,-110.0,-110.0,-110.0,-110.0,-110.0,-110.0,-110.0,-110.0,-110.0,-110.0,-110.0,-89.0,-110.0,2437.0,5200.0,2417.0,2452.0,-1.0,2462.0,2412.0,2427.0,2437.0,-1.0,2437.0,5220.0,5220.0,2462.0,-1.0,2452.0,2437.0,-1.0,-1.0,-1.0,-1.0,-1.0,-1.0,-1.0,-1.0,-1.0,-1.0,-1.0,-1.0,-1.0,-1.0,-1.0,2462.0,-1.0,49.461057929696,11.110709726607,-2.0
0.159,2109.9929,-2.16921,5.66007,7.16846,-1.0227,-2.67189,1.01776,4.7,-2.7,17.1,-110.0,-97.0,-65.0,-71.0,-77.0,-87.0,-110.0,-88.0,-83.0,-77.0,-82.0,-110.0,-64.0,-92.0,-90.0,-88.0,-110.0,-94.0,-56.0,-110.0,-110.0,-110.0,-110.0,-110.0,-110.0,-110.0,-110.0,-110.0,-110.0,-110.0,-110.0,-110.0,-110.0,-110.0,-89.0,-110.0,2437.0,5200.0,2417.0,2452.0,-1.0,2462.0,2412.0,2427.0,2437.0,-1.0,2437.0,5220.0,5220.0,2462.0,-1.0,2452.0,2437.0,-1.0,-1.0,-1.0,-1.0,-1.0,-1.0,-1.0,-1.0,-1.0,-1.0,-1.0,-1.0,-1.0,-1.0,-1.0,2462.0,-1.0,49.461057929696,11.110709726607,-2.0
0.1754,2110.0129,-1.41741,5.38951,6.68003,-1.77834,-2.21069,1.24133,1.7,-3.3,14.7,-110.0,-97.0,-65.0,-71.0,-77.0,-87.0,-110.0,-88.0,-83.0,-77.0,-82.0,-110.0,-64.0,-92.0,-90.0,-88.0,-110.0,-94.0,-56.0,-110.0,-110.0,-110.0,-110.0,-110.0,-110.0,-110.0,-110.0,-110.0,-110.0,-110.0,-110.0,-110.0,-110.0,-110.0,-89.0,-110.0,2437.0,5200.0,2417.0,2452.0,-1.0,2462.0,2412.0,2427.0,2437.0,-1.0,2437.0,5220.0,5220.0,2462.0,-1.0,2452.0,2437.0,-1.0,-1.0,-1.0,-1.0,-1.0,-1.0,-1.0,-1.0,-1.0,-1.0,-1.0,-1.0,-1.0,-1.0,-1.0,2462.0,-1.0,49.461057929696,11.110709726607,-2.0
0.194,2110.0329,-0.49561,5.09981,6.71594,-2.59324,-2.14777,1.30731,0.5,-1.2,13.2,-110.0,-97.0,-65.0,-71.0,-77.0,-87.0,-110.0,-88.0,-83.0,-77.0,-82.0,-110.0,-64.0,-92.0,-90.0,-88.0,-110.0,-94.0,-56.0,-110.0,-110.0,-110.0,-110.0,-110.0,-110.0,-110.0,-110.0,-110.0,-110.0,-110.0,-110.0,-110.0,-110.0,-110.0,-89.0,-110.0,2437.0,5200.0,2417.0,2452.0,-1.0,2462.0,2412.0,2427.0,2437.0,-1.0,2437.0,5220.0,5220.0,2462.0,-1.0,2452.0,2437.0,-1.0,-1.0,-1.0,-1.0,-1.0,-1.0,-1.0,-1.0,-1.0,-1.0,-1.0,-1.0,-1.0,-1.0,-1.0,2462.0,-1.0,49.461057929696,11.110709726607,-2.0
0.2136,2110.0529,0.54111,4.9346,8.2794,-2.60912,-1.26079,1.49912,-1.4,-0.5,11.8,-110.0,-97.0,-65.0,-71.0,-77.0,-87.0,-110.0,-88.0,-83.0,-77.0,-82.0,-110.0,-64.0,-92.0,-90.0,-88.0,-110.0,-94.0,-56.0,-110.0,-110.0,-110.0,-110.0,-110.0,-110.0,-110.0,-110.0,-110.0,-110.0,-110.0,-110.0,-110.0,-110.0,-110.0,-89.0,-110.0,2437.0,5200.0,2417.0,2452.0,-1.0,2462.0,2412.0,2427.0,2437.0,-1.0,2437.0,5220.0,5220.0,2462.0,-1.0,2452.0,2437.0,-1.0,-1.0,-1.0,-1.0,-1.0,-1.0,-1.0,-1.0,-1.0,-1.0,-1.0,-1.0,-1.0,-1.0,-1.0,2462.0,-1.0,49.461057929696,11.110709726607,-2.0
0.2353,2110.0729,1.52994,4.38152,10.39355,-1.26216,-0.54669,1.43498,-2.6,-0.8,9.8,-110.0,-97.0,-65.0,-71.0,-77.0,-87.0,-110.0,-88.0,-83.0,-77.0,-82.0,-110.0,-64.0,-92.0,-90.0,-88.0,-110.0,-94.0,-56.0,-110.0,-110.0,-110.0,-110.0,-110.0,-110.0,-110.0,-110.0,-110.0,-110.0,-110.0,-110.0,-110.0,-110.0,-110.0,-89.0,-110.0,2437.0,5200.0,2417.0,2452.0,-1.0,2462.0,2412.0,2427.0,2437.0,-1.0,2437.0,5220.0,5220.0,2462.0,-1.0,2452.0,2437.0,-1.0,-1.0,-1.0,-1.0,-1.0,-1.0,-1.0,-1.0,-1.0,-1.0,-1.0,-1.0,-1.0,-1.0,-1.0,2462.0,-1.0,49.461057929696,11.110709726607,-2.0
0.2632,2110.0929,1.95133,3.73986,10.65213,0.37557,-0.17468,0.77585,-2.5,-0.3,11.0,-110.0,-97.0,-65.0,-71.0,-77.0,-87.0,-110.0,-88.0,-83.0,-77.0,-82.0,-110.0,-64.0,-92.0,-90.0,-88.0,-110.0,-94.0,-56.0,-110.0,-110.0,-110.0,-110.0,-110.0,-110.0,-110.0,-110.0,-110.0,-110.0,-110.0,-110.0,-110.0,-110.0,-110.0,-89.0,-110.0,2437.0,5200.0,2417.0,2452.0,-1.0,2462.0,2412.0,2427.0,2437.0,-1.0,2437.0,5220.0,5220.0,2462.0,-1.0,2452.0,2437.0,-1.0,-1.0,-1.0,-1.0,-1.0,-1.0,-1.0,-1.0,-1.0,-1.0,-1.0,-1.0,-1.0,-1.0,-1.0,2462.0,-1.0,49.461057929696,11.110709726607,-2.0
0.2744,2110.1129,1.38629,3.85478,9.68963,1.06218,-0.34389,-0.3402,-4.0,-1.3,10.1,-110.0,-97.0,-65.0,-71.0,-77.0,-87.0,-110.0,-88.0,-83.0,-77.0,-82.0,-110.0,-64.0,-92.0,-90.0,-88.0,-110.0,-94.0,-56.0,-110.0,-110.0,-110.0,-110.0,-110.0,-110.0,-110.0,-110.0,-110.0,-110.0,-110.0,-110.0,-110.0,-110.0,-110.0,-89.0,-110.0,2437.0,5200.0,2417.0,2452.0,-1.0,2462.0,2412.0,2427.0,2437.0,-1.0,2437.0,5220.0,5220.0,2462.0,-1.0,2452.0,2437.0,-1.0,-1.0,-1.0,-1.0,-1.0,-1.0,-1.0,-1.0,-1.0,-1.0,-1.0,-1.0,-1.0,-1.0,-1.0,2462.0,-1.0,49.461057929696,11.110709726607,-2.0
0.2952,2110.1329,0.73025,3.85478,8.49489,0.64679,-0.19239,-0.31149,-4.3,-2.2,10.0,-110.0,-97.0,-65.0,-71.0,-77.0,-87.0,-110.0,-88.0,-83.0,-77.0,-82.0,-110.0,-64.0,-92.0,-90.0,-88.0,-110.0,-94.0,-56.0,-110.0,-110.0,-110.0,-110.0,-110.0,-110.0,-110.0,-110.0,-110.0,-110.0,-110.0,-110.0,-110.0,-110.0,-110.0,-89.0,-110.0,2437.0,5200.0,2417.0,2452.0,-1.0,2462.0,2412.0,2427.0,2437.0,-1.0,2437.0,5220.0,5220.0,2462.0,-1.0,2452.0,2437.0,-1.0,-1.0,-1.0,-1.0,-1.0,-1.0,-1.0,-1.0,-1.0,-1.0,-1.0,-1.0,-1.0,-1.0,-1.0,2462.0,-1.0,49.461057929696,11.110709726607,-2.0
0.3138,2110.1529,0.00718,3.76859,7.99448,0.24484,0.44596,-0.04393,-3.9,-2.3,9.7,-110.0,-97.0,-65.0,-71.0,-77.0,-87.0,-110.0,-88.0,-83.0,-77.0,-82.0,-110.0,-64.0,-92.0,-90.0,-88.0,-110.0,-94.0,-56.0,-110.0,-110.0,-110.0,-110.0,-110.0,-110.0,-110.0,-110.0,-110.0,-110.0,-110.0,-110.0,-110.0,-110.0,-110.0,-89.0,-110.0,2437.0,5200.0,2417.0,2452.0,-1.0,2462.0,2412.0,2427.0,2437.0,-1.0,2437.0,5220.0,5220.0,2462.0,-1.0,2452.0,2437.0,-1.0,-1.0,-1.0,-1.0,-1.0,-1.0,-1.0,-1.0,-1.0,-1.0,-1.0,-1.0,-1.0,-1.0,-1.0,2462.0,-1.0,49.461057929696,11.110709726607,-2.0
0.3439,2110.1729,-0.15084,3.69197,8.1549,0.1019,0.93954,0.24745,-2.9,-1.9,10.9,-110.0,-97.0,-65.0,-71.0,-77.0,-87.0,-110.0,-88.0,-83.0,-77.0,-82.0,-110.0,-64.0,-92.0,-90.0,-88.0,-110.0,-94.0,-56.0,-110.0,-110.0,-110.0,-110.0,-110.0,-110.0,-110.0,-110.0,-110.0,-110.0,-110.0,-110.0,-110.0,-110.0,-110.0,-89.0,-110.0,2437.0,5200.0,2417.0,2452.0,-1.0,2462.0,2412.0,2427.0,2437.0,-1.0,2437.0,5220.0,5220.0,2462.0,-1.0,2452.0,2437.0,-1.0,-1.0,-1.0,-1.0,-1.0,-1.0,-1.0,-1.0,-1.0,-1.0,-1.0,-1.0,-1.0,-1.0,-1.0,2462.0,-1.0,49.461057929696,11.110709726607,-2.0
0.3591,2110.1929,-0.16042,3.74943,8.25067,0.20758,0.85891,0.20469,-3.3,-2.4,10.5,-110.0,-97.0,-65.0,-71.0,-77.0,-87.0,-110.0,-88.0,-83.0,-77.0,-82.0,-110.0,-64.0,-92.0,-90.0,-88.0,-110.0,-94.0,-56.0,-110.0,-110.0,-110.0,-110.0,-110.0,-110.0,-110.0,-110.0,-110.0,-110.0,-110.0,-110.0,-110.0,-110.0,-110.0,-89.0,-110.0,2437.0,5200.0,2417.0,2452.0,-1.0,2462.0,2412.0,2427.0,2437.0,-1.0,2437.0,5220.0,5220.0,2462.0,-1.0,2452.0,2437.0,-1.0,-1.0,-1.0,-1.0,-1.0,-1.0,-1.0,-1.0,-1.0,-1.0,-1.0,-1.0,-1.0,-1.0,-1.0,2462.0,-1.0,49.461057929696,11.110709726607,-2.0
0.3733,2110.2128,-0.10295,3.84521,7.9059,0.15321,0.31768,0.02388,-2.3,-2.5,10.5,-110.0,-97.0,-65.0,-71.0,-77.0,-87.0,-110.0,-88.0,-83.0,-77.0,-82.0,-110.0,-64.0,-92.0,-90.0,-88.0,-110.0,-94.0,-56.0,-110.0,-110.0,-110.0,-110.0,-110.0,-110.0,-110.0,-110.0,-110.0,-110.0,-110.0,-110.0,-110.0,-110.0,-110.0,-89.0,-110.0,2437.0,5200.0,2417.0,2452.0,-1.0,2462.0,2412.0,2427.0,2437.0,-1.0,2437.0,5220.0,5220.0,2462.0,-1.0,2452.0,2437.0,-1.0,-1.0,-1.0,-1.0,-1.0,-1.0,-1.0,-1.0,-1.0,-1.0,-1.0,-1.0,-1.0,-1.0,-1.0,2462.0,-1.0,49.461057929696,11.110709726607,-2.0
0.3936,2110.2328,-0.14605,3.7231,8.17645,0.03532,-0.15513,-0.23146,-2.5,-2.5,10.4,-110.0,-97.0,-65.0,-71.0,-77.0,-87.0,-110.0,-88.0,-83.0,-77.0,-82.0,-110.0,-64.0,-92.0,-90.0,-88.0,-110.0,-94.0,-56.0,-110.0,-110.0,-110.0,-110.0,-110.0,-110.0,-110.0,-110.0,-110.0,-110.0,-110.0,-110.0,-110.0,-110.0,-110.0,-89.0,-110.0,2437.0,5200.0,2417.0,2452.0,-1.0,2462.0,2412.0,2427.0,2437.0,-1.0,2437.0,5220.0,5220.0,2462.0,-1.0,2452.0,2437.0,-1.0,-1.0,-1.0,-1.0,-1.0,-1.0,-1.0,-1.0,-1.0,-1.0,-1.0,-1.0,-1.0,-1.0,-1.0,2462.0,-1.0,49.461057929696,11.110709726607,-2.0
0.4156,2110.2528,-0.63927,3.46212,8.447,0.07136,0.24316,-0.1435,-2.7,-2.1,10.8,-110.0,-97.0,-65.0,-71.0,-77.0,-87.0,-110.0,-88.0,-83.0,-77.0,-82.0,-110.0,-64.0,-92.0,-90.0,-88.0,-110.0,-94.0,-56.0,-110.0,-110.0,-110.0,-110.0,-110.0,-110.0,-110.0,-110.0,-110.0,-110.0,-110.0,-110.0,-110.0,-110.0,-110.0,-89.0,-110.0,2437.0,5200.0,2417.0,2452.0,-1.0,2462.0,2412.0,2427.0,2437.0,-1.0,2437.0,5220.0,5220.0,2462.0,-1.0,2452.0,2437.0,-1.0,-1.0,-1.0,-1.0,-1.0,-1.0,-1.0,-1.0,-1.0,-1.0,-1.0,-1.0,-1.0,-1.0,-1.0,2462.0,-1.0,49.461057929696,11.110709726607,-2.0
0.4336,2110.2728,-0.84039,3.35438,8.43982,-0.04226,0.51133,0.09779,-3.0,-2.0,10.4,-110.0,-97.0,-65.0,-71.0,-77.0,-87.0,-110.0,-88.0,-83.0,-77.0,-82.0,-110.0,-64.0,-92.0,-90.0,-88.0,-110.0,-94.0,-56.0,-110.0,-110.0,-110.0,-110.0,-110.0,-110.0,-110.0,-110.0,-110.0,-110.0,-110.0,-110.0,-110.0,-110.0,-110.0,-89.0,-110.0,2437.0,5200.0,2417.0,2452.0,-1.0,2462.0,2412.0,2427.0,2437.0,-1.0,2437.0,5220.0,5220.0,2462.0,-1.0,2452.0,2437.0,-1.0,-1.0,-1.0,-1.0,-1.0,-1.0,-1.0,-1.0,-1.0,-1.0,-1.0,-1.0,-1.0,-1.0,-1.0,2462.0,-1.0,49.461057929696,11.110709726607,-2.0
0.457,2110.2928,-0.74223,3.34001,8.59066,-0.12106,0.42275,0.26945,-3.2,-2.0,10.1,-110.0,-97.0,-65.0,-71.0,-77.0,-87.0,-110.0,-88.0,-83.0,-77.0,-82.0,-110.0,-64.0,-92.0,-90.0,-88.0,-110.0,-94.0,-56.0,-110.0,-110.0,-110.0,-110.0,-110.0,-110.0,-110.0,-110.0,-110.0,-110.0,-110.0,-110.0,-110.0,-110.0,-110.0,-89.0,-110.0,2437.0,5200.0,2417.0,2452.0,-1.0,2462.0,2412.0,2427.0,2437.0,-1.0,2437.0,5220.0,5220.0,2462.0,-1.0,2452.0,2437.0,-1.0,-1.0,-1.0,-1.0,-1.0,-1.0,-1.0,-1.0,-1.0,-1.0,-1.0,-1.0,-1.0,-1.0,-1.0,2462.0,-1.0,49.461057929696,11.110709726607,-2.0
0.4757,2110.3128,-0.59378,3.35677,8.79896,-0.01477,0.04279,-0.11784,-3.1,-2.1,10.1,-110.0,-97.0,-65.0,-71.0,-77.0,-87.0,-110.0,-88.0,-83.0,-77.0,-82.0,-110.0,-64.0,-92.0,-90.0,-88.0,-110.0,-94.0,-56.0,-110.0,-110.0,-110.0,-110.0,-110.0,-110.0,-110.0,-110.0,-110.0,-110.0,-110.0,-110.0,-110.0,-110.0,-110.0,-89.0,-110.0,2437.0,5200.0,2417.0,2452.0,-1.0,2462.0,2412.0,2427.0,2437.0,-1.0,2437.0,5220.0,5220.0,2462.0,-1.0,2452.0,2437.0,-1.0,-1.0,-1.0,-1.0,-1.0,-1.0,-1.0,-1.0,-1.0,-1.0,-1.0,-1.0,-1.0,-1.0,-1.0,2462.0,-1.0,49.461057929696,11.110709726607,-2.0
0.5054,2110.3328,-0.54829,3.29931,9.19641,0.10373,-0.16612,-0.11173,-3.0,-2.2,10.1,-110.0,-97.0,-65.0,-71.0,-77.0,-87.0,-110.0,-88.0,-83.0,-77.0,-82.0,-110.0,-64.0,-92.0,-90.0,-88.0,-110.0,-94.0,-56.0,-110.0,-110.0,-110.0,-110.0,-110.0,-110.0,-110.0,-110.0,-110.0,-110.0,-110.0,-110.0,-110.0,-110.0,-110.0,-89.0,-110.0,2437.0,5200.0,2417.0,2452.0,-1.0,2462.0,2412.0,2427.0,2437.0,-1.0,2437.0,5220.0,5220.0,2462.0,-1.0,2452.0,2437.0,-1.0,-1.0,-1.0,-1.0,-1.0,-1.0,-1.0,-1.0,-1.0,-1.0,-1.0,-1.0,-1.0,-1.0,-1.0,2462.0,-1.0,49.461057929696,11.110709726607,-2.0
0.5159,2110.3528,-0.36393,3.26819,9.22993,0.26378,-0.32495,-0.20275,-2.9,-2.5,10.1,-110.0,-97.0,-65.0,-71.0,-77.0,-87.0,-110.0,-88.0,-83.0,-77.0,-82.0,-110.0,-64.0,-92.0,-90.0,-88.0,-110.0,-94.0,-56.0,-110.0,-110.0,-110.0,-110.0,-110.0,-110.0,-110.0,-110.0,-110.0,-110.0,-110.0,-110.0,-110.0,-110.0,-110.0,-89.0,-110.0,2437.0,5200.0,2417.0,2452.0,-1.0,2462.0,2412.0,2427.0,2437.0,-1.0,2437.0,5220.0,5220.0,2462.0,-1.0,2452.0,2437.0,-1.0,-1.0,-1.0,-1.0,-1.0,-1.0,-1.0,-1.0,-1.0,-1.0,-1.0,-1.0,-1.0,-1.0,-1.0,2462.0,-1.0,49.461057929696,11.110709726607,-2.0
0.5375,2110.3728,-0.34478,3.25621,9.41429,0.18437,-0.10259,-0.19787,-2.5,-2.8,10.3,-110.0,-97.0,-65.0,-71.0,-77.0,-87.0,-110.0,-88.0,-83.0,-77.0,-82.0,-110.0,-64.0,-92.0,-90.0,-88.0,-110.0,-94.0,-56.0,-110.0,-110.0,-110.0,-110.0,-110.0,-110.0,-110.0,-110.0,-110.0,-110.0,-110.0,-110.0,-110.0,-110.0,-110.0,-89.0,-110.0,2437.0,5200.0,2417.0,2452.0,-1.0,2462.0,2412.0,2427.0,2437.0,-1.0,2437.0,5220.0,5220.0,2462.0,-1.0,2452.0,2437.0,-1.0,-1.0,-1.0,-1.0,-1.0,-1.0,-1.0,-1.0,-1.0,-1.0,-1.0,-1.0,-1.0,-1.0,-1.0,2462.0,-1.0,49.461057929696,11.110709726607,-2.0
0.563,2110.3928,-0.20591,3.28734,9.59865,0.20697,-0.16246,-0.16305,-2.4,-3.0,10.5,-110.0,-97.0,-65.0,-71.0,-77.0,-87.0,-110.0,-88.0,-83.0,-77.0,-82.0,-110.0,-64.0,-92.0,-90.0,-88.0,-110.0,-94.0,-56.0,-110.0,-110.0,-110.0,-110.0,-110.0,-110.0,-110.0,-110.0,-110.0,-110.0,-110.0,-110.0,-110.0,-110.0,-110.0,-89.0,-110.0,2437.0,5200.0,2417.0,2452.0,-1.0,2462.0,2412.0,2427.0,2437.0,-1.0,2437.0,5220.0,5220.0,2462.0,-1.0,2452.0,2437.0,-1.0,-1.0,-1.0,-1.0,-1.0,-1.0,-1.0,-1.0,-1.0,-1.0,-1.0,-1.0,-1.0,-1.0,-1.0,2462.0,-1.0,49.461057929696,11.110709726607,-2.0
0.5737,2110.4128,0.06943,3.36874,9.67287,0.31265,-0.39642,-0.27728,-1.1,-3.6,11.3,-110.0,-97.0,-65.0,-71.0,-77.0,-87.0,-110.0,-88.0,-83.0,-77.0,-82.0,-110.0,-64.0,-92.0,-90.0,-88.0,-110.0,-94.0,-56.0,-110.0,-110.0,-110.0,-110.0,-110.0,-110.0,-110.0,-110.0,-110.0,-110.0,-110.0,-110.0,-110.0,-110.0,-110.0,-89.0,-110.0,2437.0,5200.0,2417.0,2452.0,-1.0,2462.0,2412.0,2427.0,2437.0,-1.0,2437.0,5220.0,5220.0,2462.0,-1.0,2452.0,2437.0,-1.0,-1.0,-1.0,-1.0,-1.0,-1.0,-1.0,-1.0,-1.0,-1.0,-1.0,-1.0,-1.0,-1.0,-1.0,2462.0,-1.0,49.461057929696,11.110709726607,-2.0
0.5952,2110.4328,0.30407,3.46452,9.45739,0.3719,-0.33472,-0.37746,-1.0,-3.8,11.4,-110.0,-97.0,-65.0,-71.0,-77.0,-87.0,-110.0,-88.0,-83.0,-77.0,-82.0,-110.0,-64.0,-92.0,-90.0,-88.0,-110.0,-94.0,-56.0,-110.0,-110.0,-110.0,-110.0,-110.0,-110.0,-110.0,-110.0,-110.0,-110.0,-110.0,-110.0,-110.0,-110.0,-110.0,-89.0,-110.0,2437.0,5200.0,2417.0,2452.0,-1.0,2462.0,2412.0,2427.0,2437.0,-1.0,2437.0,5220.0,5220.0,2462.0,-1.0,2452.0,2437.0,-1.0,-1.0,-1.0,-1.0,-1.0,-1.0,-1.0,-1.0,-1.0,-1.0,-1.0,-1.0,-1.0,-1.0,-1.0,2462.0,-1.0,49.461057929696,11.110709726607,-2.0
0.6178,2110.4528,0.249,3.54353,8.99768,0.27478,-0.15207,-0.42633,-0.3,-3.9,12.0,-110.0,-97.0,-65.0,-71.0,-77.0,-87.0,-110.0,-88.0,-83.0,-77.0,-82.0,-110.0,-64.0,-92.0,-90.0,-88.0,-110.0,-94.0,-56.0,-110.0,-110.0,-110.0,-110.0,-110.0,-110.0,-110.0,-110.0,-110.0,-110.0,-110.0,-110.0,-110.0,-110.0,-110.0,-89.0,-110.0,2437.0,5200.0,2417.0,2452.0,-1.0,2462.0,2412.0,2427.0,2437.0,-1.0,2437.0,5220.0,5220.0,2462.0,-1.0,2452.0,2437.0,-1.0,-1.0,-1.0,-1.0,-1.0,-1.0,-1.0,-1.0,-1.0,-1.0,-1.0,-1.0,-1.0,-1.0,-1.0,2462.0,-1.0,49.461057929696,11.110709726607,-2.0
0.6389,2110.4728,0.17478,3.61296,8.6577,0.06036,-0.00424,-0.36708,-0.5,-3.9,11.6,-110.0,-97.0,-65.0,-71.0,-77.0,-87.0,-110.0,-88.0,-83.0,-77.0,-82.0,-110.0,-64.0,-92.0,-90.0,-88.0,-110.0,-94.0,-56.0,-110.0,-110.0,-110.0,-110.0,-110.0,-110.0,-110.0,-110.0,-110.0,-110.0,-110.0,-110.0,-110.0,-110.0,-110.0,-89.0,-110.0,2437.0,5200.0,2417.0,2452.0,-1.0,2462.0,2412.0,2427.0,2437.0,-1.0,2437.0,5220.0,5220.0,2462.0,-1.0,2452.0,2437.0,-1.0,-1.0,-1.0,-1.0,-1.0,-1.0,-1.0,-1.0,-1.0,-1.0,-1.0,-1.0,-1.0,-1.0,-1.0,2462.0,-1.0,49.461057929696,11.110709726607,-2.0
0.6577,2110.4928,0.02394,3.66563,8.54517,-0.03005,0.02202,-0.34509,-0.3,-4.0,11.9,-110.0,-97.0,-65.0,-71.0,-77.0,-87.0,-110.0,-88.0,-83.0,-77.0,-82.0,-110.0,-64.0,-92.0,-90.0,-88.0,-110.0,-94.0,-56.0,-110.0,-110.0,-110.0,-110.0,-110.0,-110.0,-110.0,-110.0,-110.0,-110.0,-110.0,-110.0,-110.0,-110.0,-110.0,-89.0,-110.0,2437.0,5200.0,2417.0,2452.0,-1.0,2462.0,2412.0,2427.0,2437.0,-1.0,2437.0,5220.0,5220.0,2462.0,-1.0,2452.0,2437.0,-1.0,-1.0,-1.0,-1.0,-1.0,-1.0,-1.0,-1.0,-1.0,-1.0,-1.0,-1.0,-1.0,-1.0,-1.0,2462.0,-1.0,49.461057929696,11.110709726607,-2.0
0.6797,2110.5128,-0.07422,3.73986,8.47094,-0.08869,-0.01646,-0.25284,-0.2,-4.1,12.1,-110.0,-97.0,-65.0,-71.0,-77.0,-87.0,-110.0,-88.0,-83.0,-77.0,-82.0,-110.0,-64.0,-92.0,-90.0,-88.0,-110.0,-94.0,-56.0,-110.0,-110.0,-110.0,-110.0,-110.0,-110.0,-110.0,-110.0,-110.0,-110.0,-110.0,-110.0,-110.0,-110.0,-110.0,-89.0,-110.0,2437.0,5200.0,2417.0,2452.0,-1.0,2462.0,2412.0,2427.0,2437.0,-1.0,2437.0,5220.0,5220.0,2462.0,-1.0,2452.0,2437.0,-1.0,-1.0,-1.0,-1.0,-1.0,-1.0,-1.0,-1.0,-1.0,-1.0,-1.0,-1.0,-1.0,-1.0,-1.0,2462.0,-1.0,49.461057929696,11.110709726607,-2.0
0.7007,2110.5328,-0.1245,3.85957,8.5332,-0.13145,0.05745,-0.15755,-0.1,-4.1,12.2,-110.0,-97.0,-65.0,-71.0,-77.0,-87.0,-110.0,-88.0,-83.0,-77.0,-82.0,-110.0,-64.0,-92.0,-90.0,-88.0,-110.0,-94.0,-56.0,-110.0,-110.0,-110.0,-110.0,-110.0,-110.0,-110.0,-110.0,-110.0,-110.0,-110.0,-110.0,-110.0,-110.0,-110.0,-89.0,-110.0,2437.0,5200.0,2417.0,2452.0,-1.0,2462.0,2412.0,2427.0,2437.0,-1.0,2437.0,5220.0,5220.0,2462.0,-1.0,2452.0,2437.0,-1.0,-1.0,-1.0,-1.0,-1.0,-1.0,-1.0,-1.0,-1.0,-1.0,-1.0,-1.0,-1.0,-1.0,-1.0,2462.0,-1.0,49.461057929696,11.110709726607,-2.0
0.7155,2110.5528,-0.35675,3.96731,8.66249,-0.17665,0.27675,0.08374,0.0,-4.1,12.1,-110.0,-97.0,-65.0,-71.0,-77.0,-87.0,-110.0,-88.0,-83.0,-77.0,-82.0,-110.0,-64.0,-92.0,-90.0,-88.0,-110.0,-94.0,-56.0,-110.0,-110.0,-110.0,-110.0,-110.0,-110.0,-110.0,-110.0,-110.0,-110.0,-110.0,-110.0,-110.0,-110.0,-110.0,-89.0,-110.0,2437.0,5200.0,2417.0,2452.0,-1.0,2462.0,2412.0,2427.0,2437.0,-1.0,2437.0,5220.0,5220.0,2462.0,-1.0,2452.0,2437.0,-1.0,-1.0,-1.0,-1.0,-1.0,-1.0,-1.0,-1.0,-1.0,-1.0,-1.0,-1.0,-1.0,-1.0,-1.0,2462.0,-1.0,49.461057929696,11.110709726607,-2.0
0.7387,2110.5728,-0.09817,4.38392,8.87318,-0.0386,0.34639,0.13994,0.0,-4.1,12.2,-110.0,-97.0,-65.0,-71.0,-77.0,-87.0,-110.0,-88.0,-83.0,-77.0,-82.0,-110.0,-64.0,-92.0,-90.0,-88.0,-110.0,-94.0,-56.0,-110.0,-110.0,-110.0,-110.0,-110.0,-110.0,-110.0,-110.0,-110.0,-110.0,-110.0,-110.0,-110.0,-110.0,-110.0,-89.0,-110.0,2437.0,5200.0,2417.0,2452.0,-1.0,2462.0,2412.0,2427.0,2437.0,-1.0,2437.0,5220.0,5220.0,2462.0,-1.0,2452.0,2437.0,-1.0,-1.0,-1.0,-1.0,-1.0,-1.0,-1.0,-1.0,-1.0,-1.0,-1.0,-1.0,-1.0,-1.0,-1.0,2462.0,-1.0,49.461057929696,11.110709726607,-2.0
0.7612,2110.5928,0.13169,4.93221,8.62897,0.14649,-0.0409,-0.16183,-0.1,-4.1,12.2,-110.0,-97.0,-65.0,-71.0,-77.0,-87.0,-110.0,-88.0,-83.0,-77.0,-82.0,-110.0,-64.0,-92.0,-90.0,-88.0,-110.0,-94.0,-56.0,-110.0,-110.0,-110.0,-110.0,-110.0,-110.0,-110.0,-110.0,-110.0,-110.0,-110.0,-110.0,-110.0,-110.0,-110.0,-89.0,-110.0,2437.0,5200.0,2417.0,2452.0,-1.0,2462.0,2412.0,2427.0,2437.0,-1.0,2437.0,5220.0,5220.0,2462.0,-1.0,2452.0,2437.0,-1.0,-1.0,-1.0,-1.0,-1.0,-1.0,-1.0,-1.0,-1.0,-1.0,-1.0,-1.0,-1.0,-1.0,-1.0,2462.0,-1.0,49.461057929696,11.110709726607,-2.0
0.7738,2110.6128,-0.06943,5.50204,8.19081,0.26012,-0.69086,-0.09219,-0.4,-3.9,12.0,-110.0,-97.0,-65.0,-71.0,-77.0,-87.0,-110.0,-88.0,-83.0,-77.0,-82.0,-110.0,-64.0,-92.0,-90.0,-88.0,-110.0,-94.0,-56.0,-110.0,-110.0,-110.0,-110.0,-110.0,-110.0,-110.0,-110.0,-110.0,-110.0,-110.0,-110.0,-110.0,-110.0,-110.0,-89.0,-110.0,2437.0,5200.0,2417.0,2452.0,-1.0,2462.0,2412.0,2427.0,2437.0,-1.0,2437.0,5220.0,5220.0,2462.0,-1.0,2452.0,2437.0,-1.0,-1.0,-1.0,-1.0,-1.0,-1.0,-1.0,-1.0,-1.0,-1.0,-1.0,-1.0,-1.0,-1.0,-1.0,2462.0,-1.0,49.461057929696,11.110709726607,-2.0
0.7973,2110.6327,-0.30168,6.09343,7.51802,0.35602,-1.46666,0.09046,-0.5,-3.9,12.0,-110.0,-97.0,-65.0,-71.0,-77.0,-87.0,-110.0,-88.0,-83.0,-77.0,-82.0,-110.0,-64.0,-92.0,-90.0,-88.0,-110.0,-94.0,-56.0,-110.0,-110.0,-110.0,-110.0,-110.0,-110.0,-110.0,-110.0,-110.0,-110.0,-110.0,-110.0,-110.0,-110.0,-110.0,-89.0,-110.0,2437.0,5200.0,2417.0,2452.0,-1.0,2462.0,2412.0,2427.0,2437.0,-1.0,2437.0,5220.0,5220.0,2462.0,-1.0,2452.0,2437.0,-1.0,-1.0,-1.0,-1.0,-1.0,-1.0,-1.0,-1.0,-1.0,-1.0,-1.0,-1.0,-1.0,-1.0,-1.0,2462.0,-1.0,49.461057929696,11.110709726607,-2.0
0.8356,2110.6527,-0.10295,6.73749,7.04875,0.13733,-2.27789,0.33786,-0.8,-3.8,11.6,-110.0,-97.0,-65.0,-71.0,-77.0,-87.0,-110.0,-88.0,-83.0,-77.0,-82.0,-110.0,-64.0,-92.0,-90.0,-88.0,-110.0,-94.0,-56.0,-110.0,-110.0,-110.0,-110.0,-110.0,-110.0,-110.0,-110.0,-110.0,-110.0,-110.0,-110.0,-110.0,-110.0,-110.0,-89.0,-110.0,2437.0,5200.0,2417.0,2452.0,-1.0,2462.0,2412.0,2427.0,2437.0,-1.0,2437.0,5220.0,5220.0,2462.0,-1.0,2452.0,2437.0,-1.0,-1.0,-1.0,-1.0,-1.0,-1.0,-1.0,-1.0,-1.0,-1.0,-1.0,-1.0,-1.0,-1.0,-1.0,2462.0,-1.0,49.461057929696,11.110709726607,-2.0
0.838,2110.6727,0.78772,7.1924,8.13335,0.15749,-3.8979,0.19797,-1.8,-3.8,11.0,-110.0,-97.0,-65.0,-71.0,-77.0,-87.0,-110.0,-88.0,-83.0,-77.0,-82.0,-110.0,-64.0,-92.0,-90.0,-88.0,-110.0,-94.0,-56.0,-110.0,-110.0,-110.0,-110.0,-110.0,-110.0,-110.0,-110.0,-110.0,-110.0,-110.0,-110.0,-110.0,-110.0,-110.0,-89.0,-110.0,2437.0,5200.0,2417.0,2452.0,-1.0,2462.0,2412.0,2427.0,2437.0,-1.0,2437.0,5220.0,5220.0,2462.0,-1.0,2452.0,2437.0,-1.0,-1.0,-1.0,-1.0,-1.0,-1.0,-1.0,-1.0,-1.0,-1.0,-1.0,-1.0,-1.0,-1.0,-1.0,2462.0,-1.0,49.461057929696,11.110709726607,-2.0
0.862,2110.6927,1.83162,7.39352,10.08229,0.79035,-5.22531,-0.0366,-4.6,-3.9,10.3,-110.0,-97.0,-65.0,-71.0,-77.0,-87.0,-110.0,-88.0,-83.0,-77.0,-82.0,-110.0,-64.0,-92.0,-90.0,-88.0,-110.0,-94.0,-56.0,-110.0,-110.0,-110.0,-110.0,-110.0,-110.0,-110.0,-110.0,-110.0,-110.0,-110.0,-110.0,-110.0,-110.0,-110.0,-89.0,-110.0,2437.0,5200.0,2417.0,2452.0,-1.0,2462.0,2412.0,2427.0,2437.0,-1.0,2437.0,5220.0,5220.0,2462.0,-1.0,2452.0,2437.0,-1.0,-1.0,-1.0,-1.0,-1.0,-1.0,-1.0,-1.0,-1.0,-1.0,-1.0,-1.0,-1.0,-1.0,-1.0,2462.0,-1.0,49.461057929696,11.110709726607,-2.0
0.8741,2110.7128,2.31766,7.36239,11.57632,2.10432,-6.83372,-0.23085,-9.6,-4.9,9.3,-110.0,-97.0,-65.0,-71.0,-77.0,-87.0,-110.0,-88.0,-83.0,-77.0,-82.0,-110.0,-64.0,-92.0,-90.0,-88.0,-110.0,-94.0,-56.0,-110.0,-110.0,-110.0,-110.0,-110.0,-110.0,-110.0,-110.0,-110.0,-110.0,-110.0,-110.0,-110.0,-110.0,-110.0,-89.0,-110.0,2437.0,5200.0,2417.0,2452.0,-1.0,2462.0,2412.0,2427.0,2437.0,-1.0,2437.0,5220.0,5220.0,2462.0,-1.0,2452.0,2437.0,-1.0,-1.0,-1.0,-1.0,-1.0,-1.0,-1.0,-1.0,-1.0,-1.0,-1.0,-1.0,-1.0,-1.0,-1.0,2462.0,-1.0,49.461057929696,11.110709726607,-2.0
0.8955,2110.7328,2.46131,7.07748,12.55318,3.33949,-8.2662,-0.1887,-16.0,-6.8,9.7,-110.0,-97.0,-65.0,-71.0,-77.0,-87.0,-110.0,-88.0,-83.0,-77.0,-82.0,-110.0,-64.0,-92.0,-90.0,-88.0,-110.0,-94.0,-56.0,-110.0,-110.0,-110.0,-110.0,-110.0,-110.0,-110.0,-110.0,-110.0,-110.0,-110.0,-110.0,-110.0,-110.0,-110.0,-89.0,-110.0,2437.0,5200.0,2417.0,2452.0,-1.0,2462.0,2412.0,2427.0,2437.0,-1.0,2437.0,5220.0,5220.0,2462.0,-1.0,2452.0,2437.0,-1.0,-1.0,-1.0,-1.0,-1.0,-1.0,-1.0,-1.0,-1.0,-1.0,-1.0,-1.0,-1.0,-1.0,-1.0,2462.0,-1.0,49.461057929696,11.110709726607,-2.0
0.9136,2110.7528,2.91383,6.62256,12.16292,4.70844,-9.1379,-0.27606,-21.8,-9.9,10.6,-110.0,-97.0,-65.0,-71.0,-77.0,-87.0,-110.0,-88.0,-83.0,-77.0,-82.0,-110.0,-64.0,-92.0,-90.0,-88.0,-110.0,-94.0,-56.0,-110.0,-110.0,-110.0,-110.0,-110.0,-110.0,-110.0,-110.0,-110.0,-110.0,-110.0,-110.0,-110.0,-110.0,-110.0,-89.0,-110.0,2437.0,5200.0,2417.0,2452.0,-1.0,2462.0,2412.0,2427.0,2437.0,-1.0,2437.0,5220.0,5220.0,2462.0,-1.0,2452.0,2437.0,-1.0,-1.0,-1.0,-1.0,-1.0,-1.0,-1.0,-1.0,-1.0,-1.0,-1.0,-1.0,-1.0,-1.0,-1.0,2462.0,-1.0,49.461057929696,11.110709726607,-2.0
0.9345,2110.7728,2.66722,6.25863,10.4127,5.3865,-9.44456,-0.41961,-27.7,-13.6,14.1,-110.0,-97.0,-65.0,-71.0,-77.0,-87.0,-110.0,-88.0,-83.0,-77.0,-82.0,-110.0,-64.0,-92.0,-90.0,-88.0,-110.0,-94.0,-56.0,-110.0,-110.0,-110.0,-110.0,-110.0,-110.0,-110.0,-110.0,-110.0,-110.0,-110.0,-110.0,-110.0,-110.0,-110.0,-89.0,-110.0,2437.0,5200.0,2417.0,2452.0,-1.0,2462.0,2412.0,2427.0,2437.0,-1.0,2437.0,5220.0,5220.0,2462.0,-1.0,2452.0,2437.0,-1.0,-1.0,-1.0,-1.0,-1.0,-1.0,-1.0,-1.0,-1.0,-1.0,-1.0,-1.0,-1.0,-1.0,-1.0,2462.0,-1.0,49.461057929696,11.110709726607,-2.0
0.9591,2110.7929,1.63529,5.65288,9.05515,5.54593,-9.53069,-0.27545,-32.6,-16.7,20.1,-110.0,-97.0,-65.0,-71.0,-77.0,-87.0,-110.0,-88.0,-83.0,-77.0,-82.0,-110.0,-64.0,-92.0,-90.0,-88.0,-110.0,-94.0,-56.0,-110.0,-110.0,-110.0,-110.0,-110.0,-110.0,-110.0,-110.0,-110.0,-110.0,-110.0,-110.0,-110.0,-110.0,-110.0,-89.0,-110.0,2437.0,5200.0,2417.0,2452.0,-1.0,2462.0,2412.0,2427.0,2437.0,-1.0,2437.0,5220.0,5220.0,2462.0,-1.0,2452.0,2437.0,-1.0,-1.0,-1.0,-1.0,-1.0,-1.0,-1.0,-1.0,-1.0,-1.0,-1.0,-1.0,-1.0,-1.0,-1.0,2462.0,-1.0,49.461057929696,11.110709726607,-2.0
0.9742,2110.8129,-0.65124,4.55152,8.51165,6.16657,-9.33155,0.41972,-36.0,-19.2,25.8,-110.0,-97.0,-65.0,-71.0,-77.0,-87.0,-110.0,-88.0,-83.0,-77.0,-82.0,-110.0,-64.0,-92.0,-90.0,-88.0,-110.0,-94.0,-56.0,-110.0,-110.0,-110.0,-110.0,-110.0,-110.0,-110.0,-110.0,-110.0,-110.0,-110.0,-110.0,-110.0,-110.0,-110.0,-89.0,-110.0,2437.0,5200.0,2417.0,2452.0,-1.0,2462.0,2412.0,2427.0,2437.0,-1.0,2437.0,5220.0,5220.0,2462.0,-1.0,2452.0,2437.0,-1.0,-1.0,-1.0,-1.0,-1.0,-1.0,-1.0,-1.0,-1.0,-1.0,-1.0,-1.0,-1.0,-1.0,-1.0,2462.0,-1.0,49.461057929696,11.110709726607,-2.0
0.9941,2110.8329,-3.35677,2.89468,7.45577,7.19588,-9.02306,1.85403,-39.3,-19.9,31.5,-110.0,-97.0,-65.0,-71.0,-77.0,-87.0,-110.0,-88.0,-83.0,-77.0,-82.0,-110.0,-64.0,-92.0,-90.0,-88.0,-110.0,-94.0,-56.0,-110.0,-110.0,-110.0,-110.0,-110.0,-110.0,-110.0,-110.0,-110.0,-110.0,-110.0,-110.0,-110.0,-110.0,-110.0,-89.0,-110.0,2437.0,5200.0,2417.0,2452.0,-1.0,2462.0,2412.0,2427.0,2437.0,-1.0,2437.0,5220.0,5220.0,2462.0,-1.0,2452.0,2437.0,-1.0,-1.0,-1.0,-1.0,-1.0,-1.0,-1.0,-1.0,-1.0,-1.0,-1.0,-1.0,-1.0,-1.0,-1.0,2462.0,-1.0,49.461057929696,11.110709726607,-2.0
1.0158,2110.853,-4.25941,0.9601,4.68799,7.855,-8.60401,3.01284,-41.7,-19.5,42.6,-110.0,-97.0,-65.0,-71.0,-77.0,-87.0,-110.0,-88.0,-83.0,-77.0,-82.0,-110.0,-64.0,-92.0,-90.0,-88.0,-110.0,-94.0,-56.0,-110.0,-110.0,-110.0,-110.0,-110.0,-110.0,-110.0,-110.0,-110.0,-110.0,-110.0,-110.0,-110.0,-110.0,-110.0,-89.0,-110.0,2437.0,5200.0,2417.0,2452.0,-1.0,2462.0,2412.0,2427.0,2437.0,-1.0,2437.0,5220.0,5220.0,2462.0,-1.0,2452.0,2437.0,-1.0,-1.0,-1.0,-1.0,-1.0,-1.0,-1.0,-1.0,-1.0,-1.0,-1.0,-1.0,-1.0,-1.0,-1.0,2462.0,-1.0,49.461057929696,11.110709726607,-2.0
1.0363,2110.873,-3.34241,-0.85715,1.64247,7.51048,-6.93451,3.48382,-43.3,-16.9,49.2,-110.0,-97.0,-65.0,-71.0,-77.0,-87.0,-110.0,-88.0,-83.0,-77.0,-82.0,-110.0,-64.0,-92.0,-90.0,-88.0,-110.0,-94.0,-56.0,-110.0,-110.0,-110.0,-110.0,-110.0,-110.0,-110.0,-110.0,-110.0,-110.0,-110.0,-110.0,-110.0,-110.0,-110.0,-89.0,-110.0,2437.0,5200.0,2417.0,2452.0,-1.0,2462.0,2412.0,2427.0,2437.0,-1.0,2437.0,5220.0,5220.0,2462.0,-1.0,2452.0,2437.0,-1.0,-1.0,-1.0,-1.0,-1.0,-1.0,-1.0,-1.0,-1.0,-1.0,-1.0,-1.0,-1.0,-1.0,-1.0,2462.0,-1.0,49.461057929696,11.110709726607,-2.0
1.055,2110.893,-1.29051,-2.5499,0.07662,6.94298,-4.16363,3.63653,-44.1,-13.5,56.5,-110.0,-97.0,-65.0,-71.0,-77.0,-87.0,-110.0,-88.0,-83.0,-77.0,-82.0,-110.0,-64.0,-92.0,-90.0,-88.0,-110.0,-94.0,-56.0,-110.0,-110.0,-110.0,-110.0,-110.0,-110.0,-110.0,-110.0,-110.0,-110.0,-110.0,-110.0,-110.0,-110.0,-110.0,-89.0,-110.0,2437.0,5200.0,2417.0,2452.0,-1.0,2462.0,2412.0,2427.0,2437.0,-1.0,2437.0,5220.0,5220.0,2462.0,-1.0,2452.0,2437.0,-1.0,-1.0,-1.0,-1.0,-1.0,-1.0,-1.0,-1.0,-1.0,-1.0,-1.0,-1.0,-1.0,-1.0,-1.0,2462.0,-1.0,49.461057929696,11.110709726607,-2.0
1.0787,2110.913,1.0032,-3.93858,0.41182,6.8483,-1.17711,3.72206,-40.9,-8.8,61.3,-110.0,-97.0,-65.0,-71.0,-77.0,-87.0,-110.0,-88.0,-83.0,-77.0,-82.0,-110.0,-64.0,-92.0,-90.0,-88.0,-110.0,-94.0,-56.0,-110.0,-110.0,-110.0,-110.0,-110.0,-110.0,-110.0,-110.0,-110.0,-110.0,-110.0,-110.0,-110.0,-110.0,-110.0,-89.0,-110.0,2437.0,5200.0,2417.0,2452.0,-1.0,2462.0,2412.0,2427.0,2437.0,-1.0,2437.0,5220.0,5220.0,2462.0,-1.0,2452.0,2437.0,-1.0,-1.0,-1.0,-1.0,-1.0,-1.0,-1.0,-1.0,-1.0,-1.0,-1.0,-1.0,-1.0,-1.0,-1.0,2462.0,-1.0,49.461057929696,11.110709726607,-2.0
1.0945,2110.9331,2.55469,-5.35599,0.93616,7.11647,0.13381,3.54368,-41.3,-5.7,65.6,-110.0,-97.0,-65.0,-71.0,-77.0,-87.0,-110.0,-88.0,-83.0,-77.0,-82.0,-110.0,-64.0,-92.0,-90.0,-88.0,-110.0,-94.0,-56.0,-110.0,-110.0,-110.0,-110.0,-110.0,-110.0,-110.0,-110.0,-110.0,-110.0,-110.0,-110.0,-110.0,-110.0,-110.0,-89.0,-110.0,2437.0,5200.0,2417.0,2452.0,-1.0,2462.0,2412.0,2427.0,2437.0,-1.0,2437.0,5220.0,5220.0,2462.0,-1.0,2452.0,2437.0,-1.0,-1.0,-1.0,-1.0,-1.0,-1.0,-1.0,-1.0,-1.0,-1.0,-1.0,-1.0,-1.0,-1.0,-1.0,2462.0,-1.0,49.461057929696,11.110709726607,-2.0
1.115,2110.9531,2.91862,-7.48929,1.49403,7.3095,0.47773,3.44106,-47.2,0.9,66.0,-110.0,-97.0,-65.0,-71.0,-77.0,-87.0,-110.0,-88.0,-83.0,-77.0,-82.0,-110.0,-64.0,-92.0,-90.0,-88.0,-110.0,-94.0,-56.0,-110.0,-110.0,-110.0,-110.0,-110.0,-110.0,-110.0,-110.0,-110.0,-110.0,-110.0,-110.0,-110.0,-110.0,-110.0,-89.0,-110.0,2437.0,5200.0,2417.0,2452.0,-1.0,2462.0,2412.0,2427.0,2437.0,-1.0,2437.0,5220.0,5220.0,2462.0,-1.0,2452.0,2437.0,-1.0,-1.0,-1.0,-1.0,-1.0,-1.0,-1.0,-1.0,-1.0,-1.0,-1.0,-1.0,-1.0,-1.0,-1.0,2462.0,-1.0,49.461057929696,11.110709726607,-2.0
1.1369,2110.9731,3.75901,-10.19961,2.01837,7.93442,0.23094,3.66158,-44.3,9.1,68.4,-110.0,-97.0,-65.0,-71.0,-77.0,-87.0,-110.0,-88.0,-83.0,-77.0,-82.0,-110.0,-64.0,-92.0,-90.0,-88.0,-110.0,-94.0,-56.0,-110.0,-110.0,-110.0,-110.0,-110.0,-110.0,-110.0,-110.0,-110.0,-110.0,-110.0,-110.0,-110.0,-110.0,-110.0,-89.0,-110.0,2437.0,5200.0,2417.0,2452.0,-1.0,2462.0,2412.0,2427.0,2437.0,-1.0,2437.0,5220.0,5220.0,2462.0,-1.0,2452.0,2437.0,-1.0,-1.0,-1.0,-1.0,-1.0,-1.0,-1.0,-1.0,-1.0,-1.0,-1.0,-1.0,-1.0,-1.0,-1.0,2462.0,-1.0,49.461057929696,11.110709726607,-2.0
1.1577,2110.9932,5.73668,-12.35446,1.27854,8.64607,-0.49294,3.46183,-50.0,17.6,66.7,-110.0,-97.0,-65.0,-71.0,-77.0,-87.0,-110.0,-88.0,-83.0,-77.0,-82.0,-110.0,-64.0,-92.0,-90.0,-88.0,-110.0,-94.0,-56.0,-110.0,-110.0,-110.0,-110.0,-110.0,-110.0,-110.0,-110.0,-110.0,-110.0,-110.0,-110.0,-110.0,-110.0,-110.0,-89.0,-110.0,2437.0,5200.0,2417.0,2452.0,-1.0,2462.0,2412.0,2427.0,2437.0,-1.0,2437.0,5220.0,5220.0,2462.0,-1.0,2452.0,2437.0,-1.0,-1.0,-1.0,-1.0,-1.0,-1.0,-1.0,-1.0,-1.0,-1.0,-1.0,-1.0,-1.0,-1.0,-1.0,2462.0,-1.0,49.461057929696,11.110709726607,-2.0
1.1742,2111.0132,8.9498,-13.33611,-1.31925,8.66684,-0.50088,2.52171,-45.3,21.5,67.3,-110.0,-97.0,-65.0,-71.0,-77.0,-87.0,-110.0,-88.0,-83.0,-77.0,-82.0,-110.0,-64.0,-92.0,-90.0,-88.0,-110.0,-94.0,-56.0,-110.0,-110.0,-110.0,-110.0,-110.0,-110.0,-110.0,-110.0,-110.0,-110.0,-110.0,-110.0,-110.0,-110.0,-110.0,-89.0,-110.0,2437.0,5200.0,2417.0,2452.0,-1.0,2462.0,2412.0,2427.0,2437.0,-1.0,2437.0,5220.0,5220.0,2462.0,-1.0,2452.0,2437.0,-1.0,-1.0,-1.0,-1.0,-1.0,-1.0,-1.0,-1.0,-1.0,-1.0,-1.0,-1.0,-1.0,-1.0,-1.0,2462.0,-1.0,49.461057929696,11.110709726607,-2.0
1.1955,2111.0332,11.95461,-13.49892,-4.20435,7.38097,0.80576,1.14787,-46.2,26.0,67.1,-110.0,-97.0,-65.0,-71.0,-77.0,-87.0,-110.0,-88.0,-83.0,-77.0,-82.0,-110.0,-64.0,-92.0,-90.0,-88.0,-110.0,-94.0,-56.0,-110.0,-110.0,-110.0,-110.0,-110.0,-110.0,-110.0,-110.0,-110.0,-110.0,-110.0,-110.0,-110.0,-110.0,-110.0,-89.0,-110.0,2437.0,5200.0,2417.0,2452.0,-1.0,2462.0,2412.0,2427.0,2437.0,-1.0,2437.0,5220.0,5220.0,2462.0,-1.0,2452.0,2437.0,-1.0,-1.0,-1.0,-1.0,-1.0,-1.0,-1.0,-1.0,-1.0,-1.0,-1.0,-1.0,-1.0,-1.0,-1.0,2462.0,-1.0,49.461057929696,11.110709726607,-2.0
1.2159,2111.0532,13.95144,-13.4678,-5.13093,6.00225,1.67502,-0.13983,-46.5,30.2,66.5,-110.0,-97.0,-65.0,-71.0,-77.0,-87.0,-110.0,-88.0,-83.0,-77.0,-82.0,-110.0,-64.0,-92.0,-90.0,-88.0,-110.0,-94.0,-56.0,-110.0,-110.0,-110.0,-110.0,-110.0,-110.0,-110.0,-110.0,-110.0,-110.0,-110.0,-110.0,-110.0,-110.0,-110.0,-89.0,-110.0,2437.0,5200.0,2417.0,2452.0,-1.0,2462.0,2412.0,2427.0,2437.0,-1.0,2437.0,5220.0,5220.0,2462.0,-1.0,2452.0,2437.0,-1.0,-1.0,-1.0,-1.0,-1.0,-1.0,-1.0,-1.0,-1.0,-1.0,-1.0,-1.0,-1.0,-1.0,-1.0,2462.0,-1.0,49.461057929696,11.110709726607,-2.0
1.2459,2111.0733,15.14618,-13.92271,-3.96971,5.50684,1.30667,-1.23756,-47.4,30.5,61.8,-110.0,-97.0,-65.0,-71.0,-77.0,-87.0,-110.0,-88.0,-83.0,-77.0,-82.0,-110.0,-64.0,-92.0,-90.0,-88.0,-110.0,-94.0,-56.0,-110.0,-110.0,-110.0,-110.0,-110.0,-110.0,-110.0,-110.0,-110.0,-110.0,-110.0,-110.0,-110.0,-110.0,-110.0,-89.0,-110.0,2437.0,5200.0,2417.0,2452.0,-1.0,2462.0,2412.0,2427.0,2437.0,-1.0,2437.0,5220.0,5220.0,2462.0,-1.0,2452.0,2437.0,-1.0,-1.0,-1.0,-1.0,-1.0,-1.0,-1.0,-1.0,-1.0,-1.0,-1.0,-1.0,-1.0,-1.0,-1.0,2462.0,-1.0,49.461057929696,11.110709726607,-2.0
1.2649,2111.0933,15.99136,-14.88281,-2.53554,5.41704,1.10997,-2.26626,-50.4,32.4,58.0,-110.0,-97.0,-65.0,-71.0,-77.0,-87.0,-110.0,-88.0,-83.0,-77.0,-82.0,-110.0,-64.0,-92.0,-90.0,-88.0,-110.0,-94.0,-56.0,-110.0,-110.0,-110.0,-110.0,-110.0,-110.0,-110.0,-110.0,-110.0,-110.0,-110.0,-110.0,-110.0,-110.0,-110.0,-89.0,-110.0,2437.0,5200.0,2417.0,2452.0,-1.0,2462.0,2412.0,2427.0,2437.0,-1.0,2437.0,5220.0,5220.0,2462.0,-1.0,2452.0,2437.0,-1.0,-1.0,-1.0,-1.0,-1.0,-1.0,-1.0,-1.0,-1.0,-1.0,-1.0,-1.0,-1.0,-1.0,-1.0,2462.0,-1.0,49.461057929696,11.110709726607,-2.0
1.2743,2111.1133,17.15498,-16.10629,-1.30727,5.37611,1.68052,-3.11902,-51.5,32.6,56.0,-110.0,-97.0,-65.0,-71.0,-77.0,-87.0,-110.0,-88.0,-83.0,-77.0,-82.0,-110.0,-64.0,-92.0,-90.0,-88.0,-110.0,-94.0,-56.0,-110.0,-110.0,-110.0,-110.0,-110.0,-110.0,-110.0,-110.0,-110.0,-110.0,-110.0,-110.0,-110.0,-110.0,-110.0,-89.0,-110.0,2437.0,5200.0,2417.0,2452.0,-1.0,2462.0,2412.0,2427.0,2437.0,-1.0,2437.0,5220.0,5220.0,2462.0,-1.0,2452.0,2437.0,-1.0,-1.0,-1.0,-1.0,-1.0,-1.0,-1.0,-1.0,-1.0,-1.0,-1.0,-1.0,-1.0,-1.0,-1.0,2462.0,-1.0,49.461057929696,11.110709726607,-2.0
1.3046,2111.1334,18.64422,-17.09033,-0.59857,5.39505,2.52779,-3.91804,-53.0,31.4,53.4,-110.0,-97.0,-65.0,-71.0,-77.0,-87.0,-110.0,-88.0,-83.0,-77.0,-82.0,-110.0,-64.0,-92.0,-90.0,-88.0,-110.0,-94.0,-56.0,-110.0,-110.0,-110.0,-110.0,-110.0,-110.0,-110.0,-110.0,-110.0,-110.0,-110.0,-110.0,-110.0,-110.0,-110.0,-89.0,-110.0,2437.0,5200.0,2417.0,2452.0,-1.0,2462.0,2412.0,2427.0,2437.0,-1.0,2437.0,5220.0,5220.0,2462.0,-1.0,2452.0,2437.0,-1.0,-1.0,-1.0,-1.0,-1.0,-1.0,-1.0,-1.0,-1.0,-1.0,-1.0,-1.0,-1.0,-1.0,-1.0,2462.0,-1.0,49.461057929696,11.110709726607,-2.0
1.3178,2111.1534,20.11909,-17.33934,-0.39027,5.39749,3.07207,-4.74393,-57.1,30.5,47.0,-110.0,-97.0,-65.0,-71.0,-77.0,-87.0,-110.0,-88.0,-83.0,-77.0,-82.0,-110.0,-64.0,-92.0,-90.0,-88.0,-110.0,-94.0,-56.0,-110.0,-110.0,-110.0,-110.0,-110.0,-110.0,-110.0,-110.0,-110.0,-110.0,-110.0,-110.0,-110.0,-110.0,-110.0,-89.0,-110.0,2437.0,5200.0,2417.0,2452.0,-1.0,2462.0,2412.0,2427.0,2437.0,-1.0,2437.0,5220.0,5220.0,2462.0,-1.0,2452.0,2437.0,-1.0,-1.0,-1.0,-1.0,-1.0,-1.0,-1.0,-1.0,-1.0,-1.0,-1.0,-1.0,-1.0,-1.0,-1.0,2462.0,-1.0,49.461057929696,11.110709726607,-2.0
1.361,2111.1734,21.18694,-17.1885,-0.43336,5.24722,3.0739,-6.00597,-59.4,26.4,44.1,-110.0,-97.0,-65.0,-71.0,-77.0,-87.0,-110.0,-88.0,-83.0,-77.0,-82.0,-110.0,-64.0,-92.0,-90.0,-88.0,-110.0,-94.0,-56.0,-110.0,-110.0,-110.0,-110.0,-110.0,-110.0,-110.0,-110.0,-110.0,-110.0,-110.0,-110.0,-110.0,-110.0,-110.0,-89.0,-110.0,2437.0,5200.0,2417.0,2452.0,-1.0,2462.0,2412.0,2427.0,2437.0,-1.0,2437.0,5220.0,5220.0,2462.0,-1.0,2452.0,2437.0,-1.0,-1.0,-1.0,-1.0,-1.0,-1.0,-1.0,-1.0,-1.0,-1.0,-1.0,-1.0,-1.0,-1.0,-1.0,2462.0,-1.0,49.461057929696,11.110709726607,-2.0
1.3637,2111.1934,21.44791,-17.00653,-0.09338,5.05174,2.70067,-7.10858,-60.6,22.1,41.2,-110.0,-97.0,-65.0,-71.0,-77.0,-87.0,-110.0,-88.0,-83.0,-77.0,-82.0,-110.0,-64.0,-92.0,-90.0,-88.0,-110.0,-94.0,-56.0,-110.0,-110.0,-110.0,-110.0,-110.0,-110.0,-110.0,-110.0,-110.0,-110.0,-110.0,-110.0,-110.0,-110.0,-110.0,-89.0,-110.0,2437.0,5200.0,2417.0,2452.0,-1.0,2462.0,2412.0,2427.0,2437.0,-1.0,2437.0,5220.0,5220.0,2462.0,-1.0,2452.0,2437.0,-1.0,-1.0,-1.0,-1.0,-1.0,-1.0,-1.0,-1.0,-1.0,-1.0,-1.0,-1.0,-1.0,-1.0,-1.0,2462.0,-1.0,49.461057929696,11.110709726607,-2.0
1.3823,2111.2135,20.17655,-17.13343,0.27534,4.77624,2.59865,-7.80864,-60.6,16.1,40.1,-110.0,-97.0,-65.0,-71.0,-77.0,-87.0,-110.0,-88.0,-83.0,-77.0,-82.0,-110.0,-64.0,-92.0,-90.0,-88.0,-110.0,-94.0,-56.0,-110.0,-110.0,-110.0,-110.0,-110.0,-110.0,-110.0,-110.0,-110.0,-110.0,-110.0,-110.0,-110.0,-110.0,-110.0,-89.0,-110.0,2437.0,5200.0,2417.0,2452.0,-1.0,2462.0,2412.0,2427.0,2437.0,-1.0,2437.0,5220.0,5220.0,2462.0,-1.0,2452.0,2437.0,-1.0,-1.0,-1.0,-1.0,-1.0,-1.0,-1.0,-1.0,-1.0,-1.0,-1.0,-1.0,-1.0,-1.0,-1.0,2462.0,-1.0,49.461057929696,11.110709726607,-2.0
1.3937,2111.2335,18.15579,-17.01611,1.28573,4.57282,2.74831,-8.00106,-59.7,6.0,35.2,-110.0,-97.0,-65.0,-71.0,-77.0,-87.0,-110.0,-88.0,-83.0,-77.0,-82.0,-110.0,-64.0,-92.0,-90.0,-88.0,-110.0,-94.0,-56.0,-110.0,-110.0,-110.0,-110.0,-110.0,-110.0,-110.0,-110.0,-110.0,-110.0,-110.0,-110.0,-110.0,-110.0,-110.0,-89.0,-110.0,2437.0,5200.0,2417.0,2452.0,-1.0,2462.0,2412.0,2427.0,2437.0,-1.0,2437.0,5220.0,5220.0,2462.0,-1.0,2452.0,2437.0,-1.0,-1.0,-1.0,-1.0,-1.0,-1.0,-1.0,-1.0,-1.0,-1.0,-1.0,-1.0,-1.0,-1.0,-1.0,2462.0,-1.0,49.461057929696,11.110709726607,-2.0
1.4159,2111.2535,16.64021,-16.35769,1.74782,4.73409,2.62125,-8.06398,-56.6,-0.1,35.9,-110.0,-97.0,-65.0,-71.0,-77.0,-87.0,-110.0,-88.0,-83.0,-77.0,-82.0,-110.0,-64.0,-92.0,-90.0,-88.0,-110.0,-94.0,-56.0,-110.0,-110.0,-110.0,-110.0,-110.0,-110.0,-110.0,-110.0,-110.0,-110.0,-110.0,-110.0,-110.0,-110.0,-110.0,-89.0,-110.0,2437.0,5200.0,2417.0,2452.0,-1.0,2462.0,2412.0,2427.0,2437.0,-1.0,2437.0,5220.0,5220.0,2462.0,-1.0,2452.0,2437.0,-1.0,-1.0,-1.0,-1.0,-1.0,-1.0,-1.0,-1.0,-1.0,-1.0,-1.0,-1.0,-1.0,-1.0,-1.0,2462.0,-1.0,49.461057929696,11.110709726607,-2.0
1.4358,2111.2736,15.90756,-15.14139,0.13169,4.3242,2.44105,-8.5429,-53.7,-6.9,36.1,-110.0,-97.0,-65.0,-71.0,-77.0,-87.0,-110.0,-88.0,-83.0,-77.0,-82.0,-110.0,-64.0,-92.0,-90.0,-88.0,-110.0,-94.0,-56.0,-110.0,-110.0,-110.0,-110.0,-110.0,-110.0,-110.0,-110.0,-110.0,-110.0,-110.0,-110.0,-110.0,-110.0,-110.0,-89.0,-110.0,2437.0,5200.0,2417.0,2452.0,-1.0,2462.0,2412.0,2427.0,2437.0,-1.0,2437.0,5220.0,5220.0,2462.0,-1.0,2452.0,2437.0,-1.0,-1.0,-1.0,-1.0,-1.0,-1.0,-1.0,-1.0,-1.0,-1.0,-1.0,-1.0,-1.0,-1.0,-1.0,2462.0,-1.0,49.461057929696,11.110709726607,-2.0
1.4579,2111.2936,15.17491,-14.0089,-1.78613,3.37064,2.40501,-9.1055,-48.2,-13.1,35.9,-110.0,-97.0,-65.0,-71.0,-77.0,-87.0,-110.0,-88.0,-83.0,-77.0,-82.0,-110.0,-64.0,-92.0,-90.0,-88.0,-110.0,-94.0,-56.0,-110.0,-110.0,-110.0,-110.0,-110.0,-110.0,-110.0,-110.0,-110.0,-110.0,-110.0,-110.0,-110.0,-110.0,-110.0,-89.0,-110.0,2437.0,5200.0,2417.0,2452.0,-1.0,2462.0,2412.0,2427.0,2437.0,-1.0,2437.0,5220.0,5220.0,2462.0,-1.0,2452.0,2437.0,-1.0,-1.0,-1.0,-1.0,-1.0,-1.0,-1.0,-1.0,-1.0,-1.0,-1.0,-1.0,-1.0,-1.0,-1.0,2462.0,-1.0,49.461057929696,11.110709726607,-2.0
1.4742,2111.3136,13.10147,-13.55399,-3.3448,2.34805,2.70555,-9.30281,-43.2,-18.9,36.7,-110.0,-97.0,-65.0,-71.0,-77.0,-87.0,-110.0,-88.0,-83.0,-77.0,-82.0,-110.0,-64.0,-92.0,-90.0,-88.0,-110.0,-94.0,-56.0,-110.0,-110.0,-110.0,-110.0,-110.0,-110.0,-110.0,-110.0,-110.0,-110.0,-110.0,-110.0,-110.0,-110.0,-110.0,-89.0,-110.0,2437.0,5200.0,2417.0,2452.0,-1.0,2462.0,2412.0,2427.0,2437.0,-1.0,2437.0,5220.0,5220.0,2462.0,-1.0,2452.0,2437.0,-1.0,-1.0,-1.0,-1.0,-1.0,-1.0,-1.0,-1.0,-1.0,-1.0,-1.0,-1.0,-1.0,-1.0,-1.0,2462.0,-1.0,49.461057929696,11.110709726607,-2.0
1.4965,2111.3336,9.82131,-12.59867,-3.54832,1.28331,2.93768,-8.84466,-35.7,-22.1,36.6,-110.0,-97.0,-65.0,-71.0,-77.0,-87.0,-110.0,-88.0,-83.0,-77.0,-82.0,-110.0,-64.0,-92.0,-90.0,-88.0,-110.0,-94.0,-56.0,-110.0,-110.0,-110.0,-110.0,-110.0,-110.0,-110.0,-110.0,-110.0,-110.0,-110.0,-110.0,-110.0,-110.0,-110.0,-89.0,-110.0,2437.0,5200.0,2417.0,2452.0,-1.0,2462.0,2412.0,2427.0,2437.0,-1.0,2437.0,5220.0,5220.0,2462.0,-1.0,2452.0,2437.0,-1.0,-1.0,-1.0,-1.0,-1.0,-1.0,-1.0,-1.0,-1.0,-1.0,-1.0,-1.0,-1.0,-1.0,-1.0,2462.0,-1.0,49.461057929696,11.110709726607,-2.0
1.5146,2111.3536,6.96734,-10.81973,-3.14368,0.71643,1.9658,-8.03649,-31.3,-25.7,35.4,-110.0,-97.0,-65.0,-71.0,-77.0,-87.0,-110.0,-88.0,-83.0,-77.0,-82.0,-110.0,-64.0,-92.0,-90.0,-88.0,-110.0,-94.0,-56.0,-110.0,-110.0,-110.0,-110.0,-110.0,-110.0,-110.0,-110.0,-110.0,-110.0,-110.0,-110.0,-110.0,-110.0,-110.0,-89.0,-110.0,2437.0,5200.0,2417.0,2452.0,-1.0,2462.0,2412.0,2427.0,2437.0,-1.0,2437.0,5220.0,5220.0,2462.0,-1.0,2452.0,2437.0,-1.0,-1.0,-1.0,-1.0,-1.0,-1.0,-1.0,-1.0,-1.0,-1.0,-1.0,-1.0,-1.0,-1.0,-1.0,2462.0,-1.0,49.461057929696,11.110709726607,-2.0
1.5346,2111.3736,5.59781,-8.8253,-2.54511,0.03959,0.25843,-7.7506,-5.4,-40.8,-5.2,-110.0,-97.0,-65.0,-71.0,-77.0,-87.0,-110.0,-88.0,-83.0,-77.0,-82.0,-110.0,-64.0,-92.0,-90.0,-88.0,-110.0,-94.0,-56.0,-110.0,-110.0,-110.0,-110.0,-110.0,-110.0,-110.0,-110.0,-110.0,-110.0,-110.0,-110.0,-110.0,-110.0,-110.0,-89.0,-110.0,2437.0,5200.0,2417.0,2452.0,-1.0,2462.0,2412.0,2427.0,2437.0,-1.0,2437.0,5220.0,5220.0,2462.0,-1.0,2452.0,2437.0,-1.0,-1.0,-1.0,-1.0,-1.0,-1.0,-1.0,-1.0,-1.0,-1.0,-1.0,-1.0,-1.0,-1.0,-1.0,2462.0,-1.0,49.461057929696,11.110709726607,-2.0
1.5716,2111.3936,5.38951,-7.64013,-2.20034,-0.74109,-0.71163,-7.80925,0.6,-41.6,-5.3,-110.0,-97.0,-65.0,-71.0,-77.0,-87.0,-110.0,-88.0,-83.0,-77.0,-82.0,-110.0,-64.0,-92.0,-90.0,-88.0,-110.0,-94.0,-56.0,-110.0,-110.0,-110.0,-110.0,-110.0,-110.0,-110.0,-110.0,-110.0,-110.0,-110.0,-110.0,-110.0,-110.0,-110.0,-89.0,-110.0,2437.0,5200.0,2417.0,2452.0,-1.0,2462.0,2412.0,2427.0,2437.0,-1.0,2437.0,5220.0,5220.0,2462.0,-1.0,2452.0,2437.0,-1.0,-1.0,-1.0,-1.0,-1.0,-1.0,-1.0,-1.0,-1.0,-1.0,-1.0,-1.0,-1.0,-1.0,-1.0,2462.0,-1.0,49.461057929696,11.110709726607,-2.0
1.5846,2111.4136,4.92263,-7.37676,-1.26897,-1.74719,-0.42452,-7.92042,6.3,-41.3,-7.8,-110.0,-97.0,-65.0,-71.0,-77.0,-87.0,-110.0,-88.0,-83.0,-77.0,-82.0,-110.0,-64.0,-92.0,-90.0,-88.0,-110.0,-94.0,-56.0,-110.0,-110.0,-110.0,-110.0,-110.0,-110.0,-110.0,-110.0,-110.0,-110.0,-110.0,-110.0,-110.0,-110.0,-110.0,-89.0,-110.0,2437.0,5200.0,2417.0,2452.0,-1.0,2462.0,2412.0,2427.0,2437.0,-1.0,2437.0,5220.0,5220.0,2462.0,-1.0,2452.0,2437.0,-1.0,-1.0,-1.0,-1.0,-1.0,-1.0,-1.0,-1.0,-1.0,-1.0,-1.0,-1.0,-1.0,-1.0,-1.0,2462.0,-1.0,49.461057929696,11.110709726607,-2.0
1.6002,2111.4336,4.00562,-7.58506,0.16042,-2.30491,0.20406,-7.85506,12.4,-38.5,-7.6,-110.0,-97.0,-65.0,-71.0,-77.0,-87.0,-110.0,-88.0,-83.0,-77.0,-82.0,-110.0,-64.0,-92.0,-90.0,-88.0,-110.0,-94.0,-56.0,-110.0,-110.0,-110.0,-110.0,-110.0,-110.0,-110.0,-110.0,-110.0,-110.0,-110.0,-110.0,-110.0,-110.0,-110.0,-89.0,-110.0,2437.0,5200.0,2417.0,2452.0,-1.0,2462.0,2412.0,2427.0,2437.0,-1.0,2437.0,5220.0,5220.0,2462.0,-1.0,2452.0,2437.0,-1.0,-1.0,-1.0,-1.0,-1.0,-1.0,-1.0,-1.0,-1.0,-1.0,-1.0,-1.0,-1.0,-1.0,-1.0,2462.0,-1.0,49.461057929696,11.110709726607,-2.0
1.6212,2111.4536,3.29213,-7.58746,1.07982,-2.46679,0.18635,-7.70723,17.2,-36.7,-10.6,-110.0,-97.0,-65.0,-71.0,-77.0,-87.0,-110.0,-88.0,-83.0,-77.0,-82.0,-110.0,-64.0,-92.0,-90.0,-88.0,-110.0,-94.0,-56.0,-110.0,-110.0,-110.0,-110.0,-110.0,-110.0,-110.0,-110.0,-110.0,-110.0,-110.0,-110.0,-110.0,-110.0,-110.0,-89.0,-110.0,2437.0,5200.0,2417.0,2452.0,-1.0,2462.0,2412.0,2427.0,2437.0,-1.0,2437.0,5220.0,5220.0,2462.0,-1.0,2452.0,2437.0,-1.0,-1.0,-1.0,-1.0,-1.0,-1.0,-1.0,-1.0,-1.0,-1.0,-1.0,-1.0,-1.0,-1.0,-1.0,2462.0,-1.0,49.461057929696,11.110709726607,-2.0
1.6352,2111.4737,3.13411,-7.83167,0.98884,-2.92371,-0.59129,-7.83979,24.7,-30.4,-12.1,-110.0,-97.0,-65.0,-71.0,-77.0,-87.0,-110.0,-88.0,-83.0,-77.0,-82.0,-110.0,-64.0,-92.0,-90.0,-88.0,-110.0,-94.0,-56.0,-110.0,-110.0,-110.0,-110.0,-110.0,-110.0,-110.0,-110.0,-110.0,-110.0,-110.0,-110.0,-110.0,-110.0,-110.0,-89.0,-110.0,2437.0,5200.0,2417.0,2452.0,-1.0,2462.0,2412.0,2427.0,2437.0,-1.0,2437.0,5220.0,5220.0,2462.0,-1.0,2452.0,2437.0,-1.0,-1.0,-1.0,-1.0,-1.0,-1.0,-1.0,-1.0,-1.0,-1.0,-1.0,-1.0,-1.0,-1.0,-1.0,2462.0,-1.0,49.461057929696,11.110709726607,-2.0
1.6592,2111.4937,2.2602,-8.67685,1.13489,-3.75938,-1.15512,-7.82635,27.7,-26.1,-16.0,-110.0,-97.0,-65.0,-71.0,-77.0,-87.0,-110.0,-88.0,-83.0,-77.0,-82.0,-110.0,-64.0,-92.0,-90.0,-88.0,-110.0,-94.0,-56.0,-110.0,-110.0,-110.0,-110.0,-110.0,-110.0,-110.0,-110.0,-110.0,-110.0,-110.0,-110.0,-110.0,-110.0,-110.0,-89.0,-110.0,2437.0,5200.0,2417.0,2452.0,-1.0,2462.0,2412.0,2427.0,2437.0,-1.0,2437.0,5220.0,5220.0,2462.0,-1.0,2452.0,2437.0,-1.0,-1.0,-1.0,-1.0,-1.0,-1.0,-1.0,-1.0,-1.0,-1.0,-1.0,-1.0,-1.0,-1.0,-1.0,2462.0,-1.0,49.461057929696,11.110709726607,-2.0
1.6889,2111.5137,1.01038,-9.33049,2.91144,-4.1375,-1.92908,-7.31567,30.1,-19.5,-17.5,-110.0,-97.0,-65.0,-71.0,-77.0,-87.0,-110.0,-88.0,-83.0,-77.0,-82.0,-110.0,-64.0,-92.0,-90.0,-88.0,-110.0,-94.0,-56.0,-110.0,-110.0,-110.0,-110.0,-110.0,-110.0,-110.0,-110.0,-110.0,-110.0,-110.0,-110.0,-110.0,-110.0,-110.0,-89.0,-110.0,2437.0,5200.0,2417.0,2452.0,-1.0,2462.0,2412.0,2427.0,2437.0,-1.0,2437.0,5220.0,5220.0,2462.0,-1.0,2452.0,2437.0,-1.0,-1.0,-1.0,-1.0,-1.0,-1.0,-1.0,-1.0,-1.0,-1.0,-1.0,-1.0,-1.0,-1.0,-1.0,2462.0,-1.0,49.461057929696,11.110709726607,-2.0
1.6992,2111.5338,-0.11014,-9.42865,5.9785,-3.83635,-3.16242,-6.78055,34.6,-15.3,-19.9,-110.0,-97.0,-65.0,-71.0,-77.0,-87.0,-110.0,-88.0,-83.0,-77.0,-82.0,-110.0,-64.0,-92.0,-90.0,-88.0,-110.0,-94.0,-56.0,-110.0,-110.0,-110.0,-110.0,-110.0,-110.0,-110.0,-110.0,-110.0,-110.0,-110.0,-110.0,-110.0,-110.0,-110.0,-89.0,-110.0,2437.0,5200.0,2417.0,2452.0,-1.0,2462.0,2412.0,2427.0,2437.0,-1.0,2437.0,5220.0,5220.0,2462.0,-1.0,2452.0,2437.0,-1.0,-1.0,-1.0,-1.0,-1.0,-1.0,-1.0,-1.0,-1.0,-1.0,-1.0,-1.0,-1.0,-1.0,-1.0,2462.0,-1.0,49.461057929696,11.110709726607,-2.0
1.7191,2111.5538,-0.81645,-8.77502,8.6984,-3.04161,-3.64561,-5.72009,34.6,-8.5,-22.3,-110.0,-97.0,-65.0,-71.0,-77.0,-87.0,-110.0,-88.0,-83.0,-77.0,-82.0,-110.0,-64.0,-92.0,-90.0,-88.0,-110.0,-94.0,-56.0,-110.0,-110.0,-110.0,-110.0,-110.0,-110.0,-110.0,-110.0,-110.0,-110.0,-110.0,-110.0,-110.0,-110.0,-110.0,-89.0,-110.0,2437.0,5200.0,2417.0,2452.0,-1.0,2462.0,2412.0,2427.0,2437.0,-1.0,2437.0,5220.0,5220.0,2462.0,-1.0,2452.0,2437.0,-1.0,-1.0,-1.0,-1.0,-1.0,-1.0,-1.0,-1.0,-1.0,-1.0,-1.0,-1.0,-1.0,-1.0,-1.0,2462.0,-1.0,49.461057929696,11.110709726607,-2.0
1.7405,2111.5738,-0.20591,-7.68323,10.42707,-2.33667,-4.23754,-5.243,28.4,-2.9,-24.7,-110.0,-97.0,-65.0,-71.0,-77.0,-87.0,-110.0,-88.0,-83.0,-77.0,-82.0,-110.0,-64.0,-92.0,-90.0,-88.0,-110.0,-94.0,-56.0,-110.0,-110.0,-110.0,-110.0,-110.0,-110.0,-110.0,-110.0,-110.0,-110.0,-110.0,-110.0,-110.0,-110.0,-110.0,-89.0,-110.0,2437.0,5200.0,2417.0,2452.0,-1.0,2462.0,2412.0,2427.0,2437.0,-1.0,2437.0,5220.0,5220.0,2462.0,-1.0,2452.0,2437.0,-1.0,-1.0,-1.0,-1.0,-1.0,-1.0,-1.0,-1.0,-1.0,-1.0,-1.0,-1.0,-1.0,-1.0,-1.0,2462.0,-1.0,49.461057929696,11.110709726607,-2.0
1.7605,2111.5938,0.40463,-6.98171,11.64336,-1.93228,-5.01273,-4.94551,29.6,-1.0,-27.4,-110.0,-97.0,-65.0,-71.0,-77.0,-87.0,-110.0,-88.0,-83.0,-77.0,-82.0,-110.0,-64.0,-92.0,-90.0,-88.0,-110.0,-94.0,-56.0,-110.0,-110.0,-110.0,-110.0,-110.0,-110.0,-110.0,-110.0,-110.0,-110.0,-110.0,-110.0,-110.0,-110.0,-110.0,-89.0,-110.0,2437.0,5200.0,2417.0,2452.0,-1.0,2462.0,2412.0,2427.0,2437.0,-1.0,2437.0,5220.0,5220.0,2462.0,-1.0,2452.0,2437.0,-1.0,-1.0,-1.0,-1.0,-1.0,-1.0,-1.0,-1.0,-1.0,-1.0,-1.0,-1.0,-1.0,-1.0,-1.0,2462.0,-1.0,49.461057929696,11.110709726607,-2.0
1.7837,2111.6139,1.45093,-6.75185,12.22038,-1.57798,-5.79464,-4.35114,21.9,4.3,-32.1,-110.0,-97.0,-65.0,-71.0,-77.0,-87.0,-110.0,-88.0,-83.0,-77.0,-82.0,-110.0,-64.0,-92.0,-90.0,-88.0,-110.0,-94.0,-56.0,-110.0,-110.0,-110.0,-110.0,-110.0,-110.0,-110.0,-110.0,-110.0,-110.0,-110.0,-110.0,-110.0,-110.0,-110.0,-89.0,-110.0,2437.0,5200.0,2417.0,2452.0,-1.0,2462.0,2412.0,2427.0,2437.0,-1.0,2437.0,5220.0,5220.0,2462.0,-1.0,2452.0,2437.0,-1.0,-1.0,-1.0,-1.0,-1.0,-1.0,-1.0,-1.0,-1.0,-1.0,-1.0,-1.0,-1.0,-1.0,-1.0,2462.0,-1.0,49.461057929696,11.110709726607,-2.0
1.8085,2111.6339,4.00562,-7.21634,13.33132,-1.90601,-6.47331,-4.33403,22.2,6.1,-30.1,-110.0,-97.0,-65.0,-71.0,-77.0,-87.0,-110.0,-88.0,-83.0,-77.0,-82.0,-110.0,-64.0,-92.0,-90.0,-88.0,-110.0,-94.0,-56.0,-110.0,-110.0,-110.0,-110.0,-110.0,-110.0,-110.0,-110.0,-110.0,-110.0,-110.0,-110.0,-110.0,-110.0,-110.0,-89.0,-110.0,2437.0,5200.0,2417.0,2452.0,-1.0,2462.0,2412.0,2427.0,2437.0,-1.0,2437.0,5220.0,5220.0,2462.0,-1.0,2452.0,2437.0,-1.0,-1.0,-1.0,-1.0,-1.0,-1.0,-1.0,-1.0,-1.0,-1.0,-1.0,-1.0,-1.0,-1.0,-1.0,2462.0,-1.0,49.461057929696,11.110709726607,-2.0
1.8189,2111.6539,6.56031,-7.9035,16.12544,-1.61952,-6.77874,-4.90153,17.5,8.4,-33.0,-110.0,-97.0,-65.0,-71.0,-77.0,-87.0,-110.0,-88.0,-83.0,-77.0,-82.0,-110.0,-64.0,-92.0,-90.0,-88.0,-110.0,-94.0,-56.0,-110.0,-110.0,-110.0,-110.0,-110.0,-110.0,-110.0,-110.0,-110.0,-110.0,-110.0,-110.0,-110.0,-110.0,-110.0,-89.0,-110.0,2437.0,5200.0,2417.0,2452.0,-1.0,2462.0,2412.0,2427.0,2437.0,-1.0,2437.0,5220.0,5220.0,2462.0,-1.0,2452.0,2437.0,-1.0,-1.0,-1.0,-1.0,-1.0,-1.0,-1.0,-1.0,-1.0,-1.0,-1.0,-1.0,-1.0,-1.0,-1.0,2462.0,-1.0,49.461057929696,11.110709726607,-2.0
1.8347,2111.674,7.96575,-8.51883,19.37687,-0.46071,-6.53928,-5.32425,11.6,10.2,-33.0,-110.0,-97.0,-65.0,-71.0,-77.0,-87.0,-110.0,-88.0,-83.0,-77.0,-82.0,-110.0,-64.0,-92.0,-90.0,-88.0,-110.0,-94.0,-56.0,-110.0,-110.0,-110.0,-110.0,-110.0,-110.0,-110.0,-110.0,-110.0,-110.0,-110.0,-110.0,-110.0,-110.0,-110.0,-89.0,-110.0,2437.0,5200.0,2417.0,2452.0,-1.0,2462.0,2412.0,2427.0,2437.0,-1.0,2437.0,5220.0,5220.0,2462.0,-1.0,2452.0,2437.0,-1.0,-1.0,-1.0,-1.0,-1.0,-1.0,-1.0,-1.0,-1.0,-1.0,-1.0,-1.0,-1.0,-1.0,-1.0,2462.0,-1.0,49.461057929696,11.110709726607,-2.0
1.863,2111.694,8.447,-8.89952,21.51256,1.1196,-7.21245,-5.50018,4.6,9.8,-35.4,-110.0,-97.0,-65.0,-71.0,-77.0,-87.0,-110.0,-88.0,-83.0,-77.0,-82.0,-110.0,-64.0,-92.0,-90.0,-88.0,-110.0,-94.0,-56.0,-110.0,-110.0,-110.0,-110.0,-110.0,-110.0,-110.0,-110.0,-110.0,-110.0,-110.0,-110.0,-110.0,-110.0,-110.0,-89.0,-110.0,2437.0,5200.0,2417.0,2452.0,-1.0,2462.0,2412.0,2427.0,2437.0,-1.0,2437.0,5220.0,5220.0,2462.0,-1.0,2452.0,2437.0,-1.0,-1.0,-1.0,-1.0,-1.0,-1.0,-1.0,-1.0,-1.0,-1.0,-1.0,-1.0,-1.0,-1.0,-1.0,2462.0,-1.0,49.461057929696,11.110709726607,-2.0
1.8806,2111.714,9.35204,-8.75107,21.93156,2.25642,-8.14341,-5.61746,-2.8,11.4,-36.0,-110.0,-97.0,-65.0,-71.0,-77.0,-87.0,-110.0,-88.0,-83.0,-77.0,-82.0,-110.0,-64.0,-92.0,-90.0,-88.0,-110.0,-94.0,-56.0,-110.0,-110.0,-110.0,-110.0,-110.0,-110.0,-110.0,-110.0,-110.0,-110.0,-110.0,-110.0,-110.0,-110.0,-110.0,-89.0,-110.0,2437.0,5200.0,2417.0,2452.0,-1.0,2462.0,2412.0,2427.0,2437.0,-1.0,2437.0,5220.0,5220.0,2462.0,-1.0,2452.0,2437.0,-1.0,-1.0,-1.0,-1.0,-1.0,-1.0,-1.0,-1.0,-1.0,-1.0,-1.0,-1.0,-1.0,-1.0,-1.0,2462.0,-1.0,49.461057929696,11.110709726607,-2.0
1.8986,2111.734,11.23394,-8.29856,20.76554,2.69319,-8.09393,-5.91984,-11.0,7.4,-33.1,-110.0,-91.0,-65.0,-71.0,-77.0,-87.0,-110.0,-88.0,-83.0,-77.0,-82.0,-110.0,-64.0,-92.0,-90.0,-88.0,-110.0,-94.0,-56.0,-110.0,-110.0,-110.0,-110.0,-110.0,-110.0,-110.0,-110.0,-110.0,-110.0,-110.0,-110.0,-110.0,-110.0,-110.0,-89.0,-110.0,2437.0,5200.0,2417.0,2452.0,-1.0,2462.0,2412.0,2427.0,2437.0,-1.0,2437.0,5220.0,5220.0,2462.0,-1.0,2452.0,2437.0,-1.0,-1.0,-1.0,-1.0,-1.0,-1.0,-1.0,-1.0,-1.0,-1.0,-1.0,-1.0,-1.0,-1.0,-1.0,2462.0,-1.0,49.461057929696,11.110709726607,-2.0
1.9207,2111.7541,11.69603,-7.4869,19.24997,2.34194,-6.43604,-6.28453,-17.3,3.0,-32.5,-110.0,-91.0,-65.0,-71.0,-77.0,-87.0,-110.0,-88.0,-83.0,-77.0,-82.0,-110.0,-64.0,-92.0,-90.0,-88.0,-110.0,-94.0,-56.0,-110.0,-110.0,-110.0,-110.0,-110.0,-110.0,-110.0,-110.0,-110.0,-110.0,-110.0,-110.0,-110.0,-110.0,-110.0,-89.0,-110.0,2437.0,5200.0,2417.0,2452.0,-1.0,2462.0,2412.0,2427.0,2437.0,-1.0,2437.0,5220.0,5220.0,2462.0,-1.0,2452.0,2437.0,-1.0,-1.0,-1.0,-1.0,-1.0,-1.0,-1.0,-1.0,-1.0,-1.0,-1.0,-1.0,-1.0,-1.0,-1.0,2462.0,-1.0,49.461057929696,11.110709726607,-2.0
1.9351,2111.7741,10.38397,-6.273,18.44549,2.28636,-5.45927,-5.68405,-23.0,-0.1,-32.9,-110.0,-91.0,-65.0,-71.0,-77.0,-87.0,-110.0,-88.0,-83.0,-77.0,-82.0,-110.0,-64.0,-92.0,-90.0,-88.0,-110.0,-94.0,-56.0,-110.0,-110.0,-110.0,-110.0,-110.0,-110.0,-110.0,-110.0,-110.0,-110.0,-110.0,-110.0,-110.0,-110.0,-110.0,-89.0,-110.0,2437.0,5200.0,2417.0,2452.0,-1.0,2462.0,2412.0,2427.0,2437.0,-1.0,2437.0,5220.0,5220.0,2462.0,-1.0,2452.0,2437.0,-1.0,-1.0,-1.0,-1.0,-1.0,-1.0,-1.0,-1.0,-1.0,-1.0,-1.0,-1.0,-1.0,-1.0,-1.0,2462.0,-1.0,49.461057929696,11.110709726607,-2.0
1.9572,2111.7941,9.17486,-4.4318,17.54046,2.8007,-6.07747,-4.7482,-27.2,-4.8,-29.3,-110.0,-91.0,-65.0,-71.0,-77.0,-87.0,-110.0,-88.0,-83.0,-77.0,-82.0,-110.0,-64.0,-92.0,-90.0,-88.0,-110.0,-94.0,-56.0,-110.0,-110.0,-110.0,-110.0,-110.0,-110.0,-110.0,-110.0,-110.0,-110.0,-110.0,-110.0,-110.0,-110.0,-110.0,-89.0,-110.0,2437.0,5200.0,2417.0,2452.0,-1.0,2462.0,2412.0,2427.0,2437.0,-1.0,2437.0,5220.0,5220.0,2462.0,-1.0,2452.0,2437.0,-1.0,-1.0,-1.0,-1.0,-1.0,-1.0,-1.0,-1.0,-1.0,-1.0,-1.0,-1.0,-1.0,-1.0,-1.0,2462.0,-1.0,49.461057929696,11.110709726607,-2.0
1.9768,2111.8142,9.0312,-2.43498,15.24435,3.27474,-6.78912,-3.90765,-30.5,-9.0,-24.3,-110.0,-91.0,-65.0,-71.0,-77.0,-87.0,-110.0,-88.0,-83.0,-77.0,-82.0,-110.0,-64.0,-92.0,-90.0,-88.0,-110.0,-94.0,-56.0,-110.0,-110.0,-110.0,-110.0,-110.0,-110.0,-110.0,-110.0,-110.0,-110.0,-110.0,-110.0,-110.0,-110.0,-110.0,-89.0,-110.0,2437.0,5200.0,2417.0,2452.0,-1.0,2462.0,2412.0,2427.0,2437.0,-1.0,2437.0,5220.0,5220.0,2462.0,-1.0,2452.0,2437.0,-1.0,-1.0,-1.0,-1.0,-1.0,-1.0,-1.0,-1.0,-1.0,-1.0,-1.0,-1.0,-1.0,-1.0,-1.0,2462.0,-1.0,49.461057929696,11.110709726607,-2.0
1.9982,2111.8342,9.17726,-0.82842,11.2914,2.99129,-6.55883,-3.38047,-32.1,-12.1,-19.6,-110.0,-91.0,-65.0,-71.0,-77.0,-87.0,-110.0,-88.0,-83.0,-77.0,-82.0,-110.0,-64.0,-92.0,-90.0,-88.0,-110.0,-94.0,-56.0,-110.0,-110.0,-110.0,-110.0,-110.0,-110.0,-110.0,-110.0,-110.0,-110.0,-110.0,-110.0,-110.0,-110.0,-110.0,-89.0,-110.0,2437.0,5200.0,2417.0,2452.0,-1.0,2462.0,2412.0,2427.0,2437.0,-1.0,2437.0,5220.0,5220.0,2462.0,-1.0,2452.0,2437.0,-1.0,-1.0,-1.0,-1.0,-1.0,-1.0,-1.0,-1.0,-1.0,-1.0,-1.0,-1.0,-1.0,-1.0,-1.0,2462.0,-1.0,49.461057929696,11.110709726607,-2.0
2.019,2111.8542,11.06873,1.58022,8.75107,1.71825,-5.05915,-3.58084,-33.4,-15.0,-15.8,-110.0,-91.0,-65.0,-71.0,-77.0,-87.0,-110.0,-88.0,-83.0,-77.0,-82.0,-110.0,-64.0,-92.0,-90.0,-88.0,-110.0,-94.0,-56.0,-110.0,-110.0,-110.0,-110.0,-110.0,-110.0,-110.0,-110.0,-110.0,-110.0,-110.0,-110.0,-110.0,-110.0,-110.0,-89.0,-110.0,2437.0,5200.0,2417.0,2452.0,-1.0,2462.0,2412.0,2427.0,2437.0,-1.0,2437.0,5220.0,5220.0,2462.0,-1.0,2452.0,2437.0,-1.0,-1.0,-1.0,-1.0,-1.0,-1.0,-1.0,-1.0,-1.0,-1.0,-1.0,-1.0,-1.0,-1.0,-1.0,2462.0,-1.0,49.461057929696,11.110709726607,-2.0
2.0852,2111.8742,10.57791,2.68638,8.9091,1.90823,-4.50938,-3.995,-33.7,-17.8,-12.8,-110.0,-91.0,-65.0,-71.0,-77.0,-87.0,-110.0,-88.0,-83.0,-77.0,-82.0,-110.0,-64.0,-92.0,-90.0,-88.0,-110.0,-94.0,-56.0,-110.0,-110.0,-110.0,-110.0,-110.0,-110.0,-110.0,-110.0,-110.0,-110.0,-110.0,-110.0,-110.0,-110.0,-110.0,-89.0,-110.0,2437.0,5200.0,2417.0,2452.0,-1.0,2462.0,2412.0,2427.0,2437.0,-1.0,2437.0,5220.0,5220.0,2462.0,-1.0,2452.0,2437.0,-1.0,-1.0,-1.0,-1.0,-1.0,-1.0,-1.0,-1.0,-1.0,-1.0,-1.0,-1.0,-1.0,-1.0,-1.0,2462.0,-1.0,49.461057929696,11.110709726607,-2.0
2.1104,2111.8943,9.4095,3.47888,9.20838,3.16661,-4.86918,-3.74027,-31.7,-21.1,-8.6,-110.0,-91.0,-65.0,-71.0,-77.0,-87.0,-110.0,-88.0,-83.0,-77.0,-82.0,-110.0,-64.0,-92.0,-90.0,-88.0,-110.0,-94.0,-56.0,-110.0,-110.0,-110.0,-110.0,-110.0,-110.0,-110.0,-110.0,-110.0,-110.0,-110.0,-110.0,-110.0,-110.0,-110.0,-89.0,-110.0,2437.0,5200.0,2417.0,2452.0,-1.0,2462.0,2412.0,2427.0,2437.0,-1.0,2437.0,5220.0,5220.0,2462.0,-1.0,2452.0,2437.0,-1.0,-1.0,-1.0,-1.0,-1.0,-1.0,-1.0,-1.0,-1.0,-1.0,-1.0,-1.0,-1.0,-1.0,-1.0,2462.0,-1.0,49.461057929696,11.110709726607,-2.0
2.1147,2111.9143,7.64492,3.52916,7.89153,3.94119,-5.45133,-3.60772,-31.5,-23.7,-4.8,-110.0,-91.0,-65.0,-71.0,-77.0,-87.0,-110.0,-88.0,-83.0,-77.0,-82.0,-110.0,-64.0,-92.0,-90.0,-88.0,-110.0,-94.0,-56.0,-110.0,-110.0,-110.0,-110.0,-110.0,-110.0,-110.0,-110.0,-110.0,-110.0,-110.0,-110.0,-110.0,-110.0,-110.0,-89.0,-110.0,2437.0,5200.0,2417.0,2452.0,-1.0,2462.0,2412.0,2427.0,2437.0,-1.0,2437.0,5220.0,5220.0,2462.0,-1.0,2452.0,2437.0,-1.0,-1.0,-1.0,-1.0,-1.0,-1.0,-1.0,-1.0,-1.0,-1.0,-1.0,-1.0,-1.0,-1.0,-1.0,2462.0,-1.0,49.461057929696,11.110709726607,-2.0
2.1222,2111.9343,5.71035,3.32325,5.43261,4.20325,-6.30471,-3.13674,-30.3,-26.2,0.5,-110.0,-91.0,-65.0,-71.0,-77.0,-87.0,-110.0,-88.0,-83.0,-77.0,-82.0,-110.0,-64.0,-92.0,-90.0,-88.0,-110.0,-94.0,-56.0,-110.0,-110.0,-110.0,-110.0,-110.0,-110.0,-110.0,-110.0,-110.0,-110.0,-110.0,-110.0,-110.0,-110.0,-110.0,-89.0,-110.0,2437.0,5200.0,2417.0,2452.0,-1.0,2462.0,2412.0,2427.0,2437.0,-1.0,2437.0,5220.0,5220.0,2462.0,-1.0,2452.0,2437.0,-1.0,-1.0,-1.0,-1.0,-1.0,-1.0,-1.0,-1.0,-1.0,-1.0,-1.0,-1.0,-1.0,-1.0,-1.0,2462.0,-1.0,49.461057929696,11.110709726607,-2.0
2.1247,2111.9544,3.92422,3.261,3.48846,4.04748,-6.05914,-2.48861,-28.3,-27.4,6.7,-110.0,-91.0,-65.0,-71.0,-77.0,-87.0,-110.0,-88.0,-83.0,-77.0,-82.0,-110.0,-64.0,-92.0,-90.0,-88.0,-110.0,-94.0,-56.0,-110.0,-110.0,-110.0,-110.0,-110.0,-110.0,-110.0,-110.0,-110.0,-110.0,-110.0,-110.0,-110.0,-110.0,-110.0,-89.0,-110.0,2437.0,5200.0,2417.0,2452.0,-1.0,2462.0,2412.0,2427.0,2437.0,-1.0,2437.0,5220.0,5220.0,2462.0,-1.0,2452.0,2437.0,-1.0,-1.0,-1.0,-1.0,-1.0,-1.0,-1.0,-1.0,-1.0,-1.0,-1.0,-1.0,-1.0,-1.0,-1.0,2462.0,-1.0,49.461057929696,11.110709726607,-2.0
2.1439,2111.9744,2.74623,3.12453,2.54033,4.0316,-4.14897,-1.77817,-26.6,-28.1,9.1,-110.0,-91.0,-65.0,-71.0,-77.0,-87.0,-110.0,-88.0,-83.0,-77.0,-82.0,-110.0,-64.0,-92.0,-90.0,-88.0,-110.0,-94.0,-56.0,-110.0,-110.0,-110.0,-110.0,-110.0,-110.0,-110.0,-110.0,-110.0,-110.0,-110.0,-110.0,-110.0,-110.0,-110.0,-89.0,-110.0,2437.0,5200.0,2417.0,2452.0,-1.0,2462.0,2412.0,2427.0,2437.0,-1.0,2437.0,5220.0,5220.0,2462.0,-1.0,2452.0,2437.0,-1.0,-1.0,-1.0,-1.0,-1.0,-1.0,-1.0,-1.0,-1.0,-1.0,-1.0,-1.0,-1.0,-1.0,-1.0,2462.0,-1.0,49.461057929696,11.110709726607,-2.0
2.1595,2111.9944,1.27375,2.43737,2.78694,4.5038,-2.19725,-1.08484,-24.0,-26.4,15.0,-110.0,-91.0,-65.0,-71.0,-77.0,-87.0,-110.0,-88.0,-83.0,-77.0,-82.0,-110.0,-64.0,-92.0,-90.0,-88.0,-110.0,-94.0,-56.0,-110.0,-110.0,-110.0,-110.0,-110.0,-110.0,-110.0,-110.0,-110.0,-110.0,-110.0,-110.0,-110.0,-110.0,-110.0,-89.0,-110.0,2437.0,5200.0,2417.0,2452.0,-1.0,2462.0,2412.0,2427.0,2437.0,-1.0,2437.0,5220.0,5220.0,2462.0,-1.0,2452.0,2437.0,-1.0,-1.0,-1.0,-1.0,-1.0,-1.0,-1.0,-1.0,-1.0,-1.0,-1.0,-1.0,-1.0,-1.0,-1.0,2462.0,-1.0,49.461057929696,11.110709726607,-2.0
2.1776,2112.0144,-0.24422,1.08461,2.53793,5.52333,-2.78979,-0.18015,-23.1,-24.9,20.0,-110.0,-91.0,-65.0,-71.0,-77.0,-87.0,-110.0,-88.0,-83.0,-77.0,-82.0,-110.0,-64.0,-92.0,-90.0,-88.0,-110.0,-94.0,-56.0,-110.0,-110.0,-110.0,-110.0,-110.0,-110.0,-110.0,-110.0,-110.0,-110.0,-110.0,-110.0,-110.0,-110.0,-110.0,-89.0,-110.0,2437.0,5200.0,2417.0,2452.0,-1.0,2462.0,2412.0,2427.0,2437.0,-1.0,2437.0,5220.0,5220.0,2462.0,-1.0,2452.0,2437.0,-1.0,-1.0,-1.0,-1.0,-1.0,-1.0,-1.0,-1.0,-1.0,-1.0,-1.0,-1.0,-1.0,-1.0,-1.0,2462.0,-1.0,49.461057929696,11.110709726607,-2.0
2.1953,2112.0344,-0.60336,-0.36393,1.49642,6.20689,-3.07934,0.50157,-21.7,-20.9,24.2,-110.0,-91.0,-65.0,-71.0,-77.0,-87.0,-110.0,-88.0,-83.0,-77.0,-82.0,-110.0,-64.0,-92.0,-90.0,-88.0,-110.0,-94.0,-56.0,-110.0,-110.0,-110.0,-110.0,-110.0,-110.0,-110.0,-110.0,-110.0,-110.0,-110.0,-110.0,-110.0,-110.0,-110.0,-89.0,-110.0,2437.0,5200.0,2417.0,2452.0,-1.0,2462.0,2412.0,2427.0,2437.0,-1.0,2437.0,5220.0,5220.0,2462.0,-1.0,2452.0,2437.0,-1.0,-1.0,-1.0,-1.0,-1.0,-1.0,-1.0,-1.0,-1.0,-1.0,-1.0,-1.0,-1.0,-1.0,-1.0,2462.0,-1.0,49.461057929696,11.110709726607,-2.0
2.2167,2112.0544,-0.16999,-1.90824,0.4166,6.63022,-2.15632,0.72026,-21.4,-17.7,27.5,-110.0,-91.0,-65.0,-71.0,-77.0,-87.0,-110.0,-88.0,-83.0,-77.0,-82.0,-110.0,-64.0,-92.0,-90.0,-88.0,-110.0,-94.0,-56.0,-110.0,-110.0,-110.0,-110.0,-110.0,-110.0,-110.0,-110.0,-110.0,-110.0,-110.0,-110.0,-110.0,-110.0,-110.0,-89.0,-110.0,2437.0,5200.0,2417.0,2452.0,-1.0,2462.0,2412.0,2427.0,2437.0,-1.0,2437.0,5220.0,5220.0,2462.0,-1.0,2452.0,2437.0,-1.0,-1.0,-1.0,-1.0,-1.0,-1.0,-1.0,-1.0,-1.0,-1.0,-1.0,-1.0,-1.0,-1.0,-1.0,2462.0,-1.0,49.461057929696,11.110709726607,-2.0
2.2351,2112.0744,0.81645,-3.29213,-0.71349,6.88861,-0.64749,0.92674,-21.1,-12.5,27.8,-110.0,-91.0,-65.0,-71.0,-77.0,-87.0,-110.0,-88.0,-83.0,-77.0,-82.0,-110.0,-64.0,-92.0,-90.0,-88.0,-110.0,-94.0,-56.0,-110.0,-110.0,-110.0,-110.0,-110.0,-110.0,-110.0,-110.0,-110.0,-110.0,-110.0,-110.0,-110.0,-110.0,-110.0,-89.0,-110.0,2437.0,5200.0,2417.0,2452.0,-1.0,2462.0,2412.0,2427.0,2437.0,-1.0,2437.0,5220.0,5220.0,2462.0,-1.0,2452.0,2437.0,-1.0,-1.0,-1.0,-1.0,-1.0,-1.0,-1.0,-1.0,-1.0,-1.0,-1.0,-1.0,-1.0,-1.0,-1.0,2462.0,-1.0,49.461057929696,11.110709726607,-2.0
2.2596,2112.0944,1.77416,-4.46532,-1.86753,6.88373,-0.02379,0.65063,-21.7,-7.9,30.5,-110.0,-91.0,-65.0,-71.0,-77.0,-87.0,-110.0,-88.0,-83.0,-77.0,-82.0,-110.0,-64.0,-92.0,-90.0,-88.0,-110.0,-94.0,-56.0,-110.0,-110.0,-110.0,-110.0,-110.0,-110.0,-110.0,-110.0,-110.0,-110.0,-110.0,-110.0,-110.0,-110.0,-110.0,-89.0,-110.0,2437.0,5200.0,2417.0,2452.0,-1.0,2462.0,2412.0,2427.0,2437.0,-1.0,2437.0,5220.0,5220.0,2462.0,-1.0,2452.0,2437.0,-1.0,-1.0,-1.0,-1.0,-1.0,-1.0,-1.0,-1.0,-1.0,-1.0,-1.0,-1.0,-1.0,-1.0,-1.0,2462.0,-1.0,49.461057929696,11.110709726607,-2.0
2.2774,2112.1144,1.8412,-5.89231,-2.85637,6.83975,-0.17651,0.66712,-21.7,-3.1,30.9,-110.0,-91.0,-65.0,-71.0,-77.0,-87.0,-110.0,-88.0,-83.0,-77.0,-82.0,-110.0,-64.0,-92.0,-90.0,-88.0,-110.0,-94.0,-56.0,-110.0,-110.0,-110.0,-110.0,-110.0,-110.0,-110.0,-110.0,-110.0,-110.0,-110.0,-110.0,-110.0,-110.0,-110.0,-89.0,-110.0,2437.0,5200.0,2417.0,2452.0,-1.0,2462.0,2412.0,2427.0,2437.0,-1.0,2437.0,5220.0,5220.0,2462.0,-1.0,2452.0,2437.0,-1.0,-1.0,-1.0,-1.0,-1.0,-1.0,-1.0,-1.0,-1.0,-1.0,-1.0,-1.0,-1.0,-1.0,-1.0,2462.0,-1.0,49.461057929696,11.110709726607,-2.0
2.3005,2112.1344,2.10217,-7.39831,-3.06228,6.97414,-0.69208,0.8125,-20.9,2.9,33.4,-110.0,-91.0,-65.0,-71.0,-77.0,-87.0,-110.0,-88.0,-83.0,-77.0,-82.0,-110.0,-64.0,-92.0,-90.0,-88.0,-110.0,-94.0,-56.0,-110.0,-110.0,-110.0,-110.0,-110.0,-110.0,-110.0,-110.0,-110.0,-110.0,-110.0,-110.0,-110.0,-110.0,-110.0,-89.0,-110.0,2437.0,5200.0,2417.0,2452.0,-1.0,2462.0,2412.0,2427.0,2437.0,-1.0,2437.0,5220.0,5220.0,2462.0,-1.0,2452.0,2437.0,-1.0,-1.0,-1.0,-1.0,-1.0,-1.0,-1.0,-1.0,-1.0,-1.0,-1.0,-1.0,-1.0,-1.0,-1.0,2462.0,-1.0,49.461057929696,11.110709726607,-2.0
2.324,2112.1544,3.24185,-9.11022,-2.67201,7.43412,-1.1936,0.64818,-15.9,6.7,34.7,-110.0,-91.0,-64.0,-74.0,-75.0,-87.0,-110.0,-82.0,-90.0,-81.0,-86.0,-110.0,-69.0,-92.0,-88.0,-81.0,-110.0,-110.0,-58.0,-110.0,-110.0,-110.0,-110.0,-110.0,-110.0,-110.0,-110.0,-110.0,-110.0,-110.0,-110.0,-110.0,-110.0,-110.0,-85.0,-110.0,2437.0,5200.0,2417.0,2452.0,-1.0,2462.0,2412.0,2427.0,2437.0,-1.0,2437.0,5220.0,5220.0,2462.0,-1.0,-1.0,2437.0,-1.0,-1.0,-1.0,-1.0,-1.0,-1.0,-1.0,-1.0,-1.0,-1.0,-1.0,-1.0,-1.0,-1.0,-1.0,2462.0,-1.0,49.461057929696,11.110709726607,-2.0
2.3372,2112.1744,5.90907,-10.44622,-3.13411,7.76154,-0.59434,-0.13983,-15.8,10.9,35.6,-110.0,-91.0,-64.0,-74.0,-75.0,-87.0,-110.0,-82.0,-90.0,-81.0,-86.0,-110.0,-69.0,-92.0,-88.0,-81.0,-110.0,-110.0,-58.0,-110.0,-110.0,-110.0,-110.0,-110.0,-110.0,-110.0,-110.0,-110.0,-110.0,-110.0,-110.0,-110.0,-110.0,-110.0,-85.0,-110.0,2437.0,5200.0,2417.0,2452.0,-1.0,2462.0,2412.0,2427.0,2437.0,-1.0,2437.0,5220.0,5220.0,2462.0,-1.0,-1.0,2437.0,-1.0,-1.0,-1.0,-1.0,-1.0,-1.0,-1.0,-1.0,-1.0,-1.0,-1.0,-1.0,-1.0,-1.0,-1.0,2462.0,-1.0,49.461057929696,11.110709726607,-2.0
2.3619,2112.1944,9.11261,-11.66251,-3.99844,7.55751,0.69397,-1.56437,-19.6,17.9,30.1,-110.0,-91.0,-64.0,-74.0,-75.0,-87.0,-110.0,-82.0,-90.0,-81.0,-86.0,-110.0,-69.0,-92.0,-88.0,-81.0,-110.0,-110.0,-58.0,-110.0,-110.0,-110.0,-110.0,-110.0,-110.0,-110.0,-110.0,-110.0,-110.0,-110.0,-110.0,-110.0,-110.0,-110.0,-85.0,-110.0,2437.0,5200.0,2417.0,2452.0,-1.0,2462.0,2412.0,2427.0,2437.0,-1.0,2437.0,5220.0,5220.0,2462.0,-1.0,-1.0,2437.0,-1.0,-1.0,-1.0,-1.0,-1.0,-1.0,-1.0,-1.0,-1.0,-1.0,-1.0,-1.0,-1.0,-1.0,-1.0,2462.0,-1.0,49.461057929696,11.110709726607,-2.0
2.3751,2112.2144,11.59308,-13.03443,-4.6018,7.23131,1.45389,-3.15323,-17.3,19.6,30.5,-110.0,-91.0,-64.0,-74.0,-75.0,-87.0,-110.0,-82.0,-90.0,-81.0,-86.0,-110.0,-69.0,-92.0,-88.0,-81.0,-110.0,-110.0,-58.0,-110.0,-110.0,-110.0,-110.0,-110.0,-110.0,-110.0,-110.0,-110.0,-110.0,-110.0,-110.0,-110.0,-110.0,-110.0,-85.0,-110.0,2437.0,5200.0,2417.0,2452.0,-1.0,2462.0,2412.0,2427.0,2437.0,-1.0,2437.0,5220.0,5220.0,2462.0,-1.0,-1.0,2437.0,-1.0,-1.0,-1.0,-1.0,-1.0,-1.0,-1.0,-1.0,-1.0,-1.0,-1.0,-1.0,-1.0,-1.0,-1.0,2462.0,-1.0,49.461057929696,11.110709726607,-2.0
2.3986,2112.2344,13.53244,-14.70085,-5.24825,6.69802,2.20159,-4.78302,-23.7,24.2,25.0,-110.0,-91.0,-64.0,-74.0,-75.0,-87.0,-110.0,-82.0,-90.0,-81.0,-86.0,-110.0,-69.0,-92.0,-88.0,-81.0,-110.0,-110.0,-58.0,-110.0,-110.0,-110.0,-110.0,-110.0,-110.0,-110.0,-110.0,-110.0,-110.0,-110.0,-110.0,-110.0,-110.0,-110.0,-85.0,-110.0,2437.0,5200.0,2417.0,2452.0,-1.0,2462.0,2412.0,2427.0,2437.0,-1.0,2437.0,5220.0,5220.0,2462.0,-1.0,-1.0,2437.0,-1.0,-1.0,-1.0,-1.0,-1.0,-1.0,-1.0,-1.0,-1.0,-1.0,-1.0,-1.0,-1.0,-1.0,-1.0,2462.0,-1.0,49.461057929696,11.110709726607,-2.0
2.4162,2112.2544,15.02886,-16.27389,-5.67922,6.02241,3.46058,-5.72314,-23.1,23.4,23.5,-110.0,-91.0,-64.0,-74.0,-75.0,-87.0,-110.0,-82.0,-90.0,-81.0,-86.0,-110.0,-69.0,-92.0,-88.0,-81.0,-110.0,-110.0,-58.0,-110.0,-110.0,-110.0,-110.0,-110.0,-110.0,-110.0,-110.0,-110.0,-110.0,-110.0,-110.0,-110.0,-110.0,-110.0,-85.0,-110.0,2437.0,5200.0,2417.0,2452.0,-1.0,2462.0,2412.0,2427.0,2437.0,-1.0,2437.0,5220.0,5220.0,2462.0,-1.0,-1.0,2437.0,-1.0,-1.0,-1.0,-1.0,-1.0,-1.0,-1.0,-1.0,-1.0,-1.0,-1.0,-1.0,-1.0,-1.0,-1.0,2462.0,-1.0,49.461057929696,11.110709726607,-2.0
2.4349,2112.2743,16.14938,-17.80143,-5.41824,5.43537,4.6927,-6.48672,-28.4,21.1,17.7,-110.0,-91.0,-64.0,-74.0,-75.0,-87.0,-110.0,-82.0,-90.0,-81.0,-86.0,-110.0,-69.0,-92.0,-88.0,-81.0,-110.0,-110.0,-58.0,-110.0,-110.0,-110.0,-110.0,-110.0,-110.0,-110.0,-110.0,-110.0,-110.0,-110.0,-110.0,-110.0,-110.0,-110.0,-85.0,-110.0,2437.0,5200.0,2417.0,2452.0,-1.0,2462.0,2412.0,2427.0,2437.0,-1.0,2437.0,5220.0,5220.0,2462.0,-1.0,-1.0,2437.0,-1.0,-1.0,-1.0,-1.0,-1.0,-1.0,-1.0,-1.0,-1.0,-1.0,-1.0,-1.0,-1.0,-1.0,-1.0,2462.0,-1.0,49.461057929696,11.110709726607,-2.0
2.4568,2112.2943,16.64021,-19.08955,-4.22829,5.50562,4.90833,-7.10064,-32.2,17.0,13.3,-110.0,-91.0,-64.0,-74.0,-75.0,-87.0,-110.0,-82.0,-90.0,-81.0,-86.0,-110.0,-69.0,-92.0,-88.0,-81.0,-110.0,-110.0,-58.0,-110.0,-110.0,-110.0,-110.0,-110.0,-110.0,-110.0,-110.0,-110.0,-110.0,-110.0,-110.0,-110.0,-110.0,-110.0,-85.0,-110.0,2437.0,5200.0,2417.0,2452.0,-1.0,2462.0,2412.0,2427.0,2437.0,-1.0,2437.0,5220.0,5220.0,2462.0,-1.0,-1.0,2437.0,-1.0,-1.0,-1.0,-1.0,-1.0,-1.0,-1.0,-1.0,-1.0,-1.0,-1.0,-1.0,-1.0,-1.0,-1.0,2462.0,-1.0,49.461057929696,11.110709726607,-2.0
2.4755,2112.3143,16.44388,-19.82699,-3.3017,5.76829,4.34878,-7.47144,-36.2,14.1,7.8,-110.0,-91.0,-64.0,-74.0,-75.0,-87.0,-110.0,-82.0,-90.0,-81.0,-86.0,-110.0,-69.0,-92.0,-88.0,-81.0,-110.0,-110.0,-58.0,-110.0,-110.0,-110.0,-110.0,-110.0,-110.0,-110.0,-110.0,-110.0,-110.0,-110.0,-110.0,-110.0,-110.0,-110.0,-85.0,-110.0,2437.0,5200.0,2417.0,2452.0,-1.0,2462.0,2412.0,2427.0,2437.0,-1.0,2437.0,5220.0,5220.0,2462.0,-1.0,-1.0,2437.0,-1.0,-1.0,-1.0,-1.0,-1.0,-1.0,-1.0,-1.0,-1.0,-1.0,-1.0,-1.0,-1.0,-1.0,-1.0,2462.0,-1.0,49.461057929696,11.110709726607,-2.0
2.4957,2112.3343,15.90756,-19.89164,-2.88989,5.70415,3.85276,-7.69624,-36.8,7.7,4.0,-110.0,-91.0,-64.0,-74.0,-75.0,-87.0,-110.0,-82.0,-90.0,-81.0,-86.0,-110.0,-69.0,-92.0,-88.0,-81.0,-110.0,-110.0,-58.0,-110.0,-110.0,-110.0,-110.0,-110.0,-110.0,-110.0,-110.0,-110.0,-110.0,-110.0,-110.0,-110.0,-110.0,-110.0,-85.0,-110.0,2437.0,5200.0,2417.0,2452.0,-1.0,2462.0,2412.0,2427.0,2437.0,-1.0,2437.0,5220.0,5220.0,2462.0,-1.0,-1.0,2437.0,-1.0,-1.0,-1.0,-1.0,-1.0,-1.0,-1.0,-1.0,-1.0,-1.0,-1.0,-1.0,-1.0,-1.0,-1.0,2462.0,-1.0,49.461057929696,11.110709726607,-2.0
2.5188,2112.3543,15.32575,-19.26194,-2.94735,5.21607,3.86436,-7.78787,-37.4,1.6,0.5,-110.0,-91.0,-64.0,-74.0,-75.0,-87.0,-110.0,-82.0,-90.0,-81.0,-86.0,-110.0,-69.0,-92.0,-88.0,-81.0,-110.0,-110.0,-58.0,-110.0,-110.0,-110.0,-110.0,-110.0,-110.0,-110.0,-110.0,-110.0,-110.0,-110.0,-110.0,-110.0,-110.0,-110.0,-85.0,-110.0,2437.0,5200.0,2417.0,2452.0,-1.0,2462.0,2412.0,2427.0,2437.0,-1.0,2437.0,5220.0,5220.0,2462.0,-1.0,-1.0,2437.0,-1.0,-1.0,-1.0,-1.0,-1.0,-1.0,-1.0,-1.0,-1.0,-1.0,-1.0,-1.0,-1.0,-1.0,-1.0,2462.0,-1.0,49.461057929696,11.110709726607,-2.0
2.5448,2112.3743,14.76549,-18.33296,-3.20833,4.63391,4.0128,-7.73655,-36.0,-5.0,-0.7,-110.0,-91.0,-64.0,-74.0,-75.0,-87.0,-110.0,-82.0,-90.0,-81.0,-86.0,-110.0,-69.0,-92.0,-88.0,-81.0,-110.0,-110.0,-58.0,-110.0,-110.0,-110.0,-110.0,-110.0,-110.0,-110.0,-110.0,-110.0,-110.0,-110.0,-110.0,-110.0,-110.0,-110.0,-85.0,-110.0,2437.0,5200.0,2417.0,2452.0,-1.0,2462.0,2412.0,2427.0,2437.0,-1.0,2437.0,5220.0,5220.0,2462.0,-1.0,-1.0,2437.0,-1.0,-1.0,-1.0,-1.0,-1.0,-1.0,-1.0,-1.0,-1.0,-1.0,-1.0,-1.0,-1.0,-1.0,-1.0,2462.0,-1.0,49.461057929696,11.110709726607,-2.0
2.5552,2112.3943,14.07834,-16.99935,-3.29692,3.94791,3.92301,-7.55391,-37.0,-10.1,-5.5,-110.0,-91.0,-64.0,-74.0,-75.0,-87.0,-110.0,-82.0,-90.0,-81.0,-86.0,-110.0,-69.0,-92.0,-88.0,-81.0,-110.0,-110.0,-58.0,-110.0,-110.0,-110.0,-110.0,-110.0,-110.0,-110.0,-110.0,-110.0,-110.0,-110.0,-110.0,-110.0,-110.0,-110.0,-85.0,-110.0,2437.0,5200.0,2417.0,2452.0,-1.0,2462.0,2412.0,2427.0,2437.0,-1.0,2437.0,5220.0,5220.0,2462.0,-1.0,-1.0,2437.0,-1.0,-1.0,-1.0,-1.0,-1.0,-1.0,-1.0,-1.0,-1.0,-1.0,-1.0,-1.0,-1.0,-1.0,-1.0,2462.0,-1.0,49.461057929696,11.110709726607,-2.0
2.5764,2112.4143,13.57554,-15.29223,-3.13411,3.39263,3.48074,-7.46838,-33.2,-17.4,-7.1,-110.0,-91.0,-64.0,-74.0,-75.0,-87.0,-110.0,-82.0,-90.0,-81.0,-86.0,-110.0,-69.0,-92.0,-88.0,-81.0,-110.0,-110.0,-58.0,-110.0,-110.0,-110.0,-110.0,-110.0,-110.0,-110.0,-110.0,-110.0,-110.0,-110.0,-110.0,-110.0,-110.0,-110.0,-85.0,-110.0,2437.0,5200.0,2417.0,2452.0,-1.0,2462.0,2412.0,2427.0,2437.0,-1.0,2437.0,5220.0,5220.0,2462.0,-1.0,-1.0,2437.0,-1.0,-1.0,-1.0,-1.0,-1.0,-1.0,-1.0,-1.0,-1.0,-1.0,-1.0,-1.0,-1.0,-1.0,-1.0,2462.0,-1.0,49.461057929696,11.110709726607,-2.0
2.5959,2112.4343,13.33611,-13.3816,-2.73426,2.82208,2.97494,-7.55085,-29.1,-23.1,-8.4,-110.0,-91.0,-64.0,-74.0,-75.0,-87.0,-110.0,-82.0,-90.0,-81.0,-86.0,-110.0,-69.0,-92.0,-88.0,-81.0,-110.0,-110.0,-58.0,-110.0,-110.0,-110.0,-110.0,-110.0,-110.0,-110.0,-110.0,-110.0,-110.0,-110.0,-110.0,-110.0,-110.0,-110.0,-85.0,-110.0,2437.0,5200.0,2417.0,2452.0,-1.0,2462.0,2412.0,2427.0,2437.0,-1.0,2437.0,5220.0,5220.0,2462.0,-1.0,-1.0,2437.0,-1.0,-1.0,-1.0,-1.0,-1.0,-1.0,-1.0,-1.0,-1.0,-1.0,-1.0,-1.0,-1.0,-1.0,-1.0,2462.0,-1.0,49.461057929696,11.110709726607,-2.0
2.6186,2112.4543,12.56037,-11.66491,-2.35118,2.34866,2.8375,-7.77931,-24.1,-27.2,-7.9,-110.0,-91.0,-64.0,-74.0,-75.0,-87.0,-110.0,-82.0,-90.0,-81.0,-86.0,-110.0,-69.0,-92.0,-88.0,-81.0,-110.0,-110.0,-58.0,-110.0,-110.0,-110.0,-110.0,-110.0,-110.0,-110.0,-110.0,-110.0,-110.0,-110.0,-110.0,-110.0,-110.0,-110.0,-85.0,-110.0,2437.0,5200.0,2417.0,2452.0,-1.0,2462.0,2412.0,2427.0,2437.0,-1.0,2437.0,5220.0,5220.0,2462.0,-1.0,-1.0,2437.0,-1.0,-1.0,-1.0,-1.0,-1.0,-1.0,-1.0,-1.0,-1.0,-1.0,-1.0,-1.0,-1.0,-1.0,-1.0,2462.0,-1.0,49.461057929696,11.110709726607,-2.0
2.6406,2112.4743,10.8724,-10.15172,-1.80528,1.80438,2.91752,-7.82574,-19.7,-32.3,-8.3,-110.0,-91.0,-64.0,-74.0,-75.0,-87.0,-110.0,-82.0,-90.0,-81.0,-86.0,-110.0,-69.0,-92.0,-88.0,-81.0,-110.0,-110.0,-58.0,-110.0,-110.0,-110.0,-110.0,-110.0,-110.0,-110.0,-110.0,-110.0,-110.0,-110.0,-110.0,-110.0,-110.0,-110.0,-85.0,-110.0,2437.0,5200.0,2417.0,2452.0,-1.0,2462.0,2412.0,2427.0,2437.0,-1.0,2437.0,5220.0,5220.0,2462.0,-1.0,-1.0,2437.0,-1.0,-1.0,-1.0,-1.0,-1.0,-1.0,-1.0,-1.0,-1.0,-1.0,-1.0,-1.0,-1.0,-1.0,-1.0,2462.0,-1.0,49.461057929696,11.110709726607,-2.0
2.6589,2112.4943,8.58826,-8.73671,-1.27136,1.46169,2.7642,-7.61499,-13.8,-35.2,-8.6,-110.0,-91.0,-64.0,-74.0,-75.0,-87.0,-110.0,-82.0,-90.0,-81.0,-86.0,-110.0,-69.0,-92.0,-88.0,-81.0,-110.0,-110.0,-58.0,-110.0,-110.0,-110.0,-110.0,-110.0,-110.0,-110.0,-110.0,-110.0,-110.0,-110.0,-110.0,-110.0,-110.0,-110.0,-85.0,-110.0,2437.0,5200.0,2417.0,2452.0,-1.0,2462.0,2412.0,2427.0,2437.0,-1.0,2437.0,5220.0,5220.0,2462.0,-1.0,-1.0,2437.0,-1.0,-1.0,-1.0,-1.0,-1.0,-1.0,-1.0,-1.0,-1.0,-1.0,-1.0,-1.0,-1.0,-1.0,-1.0,2462.0,-1.0,49.461057929696,11.110709726607,-2.0
2.6779,2112.5143,6.43342,-7.01523,-1.36953,0.99865,2.21136,-7.05666,-8.7,-37.2,-8.4,-110.0,-91.0,-64.0,-74.0,-75.0,-87.0,-110.0,-82.0,-90.0,-81.0,-86.0,-110.0,-69.0,-92.0,-88.0,-81.0,-110.0,-110.0,-58.0,-110.0,-110.0,-110.0,-110.0,-110.0,-110.0,-110.0,-110.0,-110.0,-110.0,-110.0,-110.0,-110.0,-110.0,-110.0,-85.0,-110.0,2437.0,5200.0,2417.0,2452.0,-1.0,2462.0,2412.0,2427.0,2437.0,-1.0,2437.0,5220.0,5220.0,2462.0,-1.0,-1.0,2437.0,-1.0,-1.0,-1.0,-1.0,-1.0,-1.0,-1.0,-1.0,-1.0,-1.0,-1.0,-1.0,-1.0,-1.0,-1.0,2462.0,-1.0,49.461057929696,11.110709726607,-2.0
2.6991,2112.5343,5.05192,-5.36318,-1.10855,0.13061,1.15762,-6.98091,-1.6,-37.5,-8.8,-110.0,-91.0,-64.0,-74.0,-75.0,-87.0,-110.0,-82.0,-90.0,-81.0,-86.0,-110.0,-69.0,-92.0,-88.0,-81.0,-110.0,-110.0,-58.0,-110.0,-110.0,-110.0,-110.0,-110.0,-110.0,-110.0,-110.0,-110.0,-110.0,-110.0,-110.0,-110.0,-110.0,-110.0,-85.0,-110.0,2437.0,5200.0,2417.0,2452.0,-1.0,2462.0,2412.0,2427.0,2437.0,-1.0,2437.0,5220.0,5220.0,2462.0,-1.0,-1.0,2437.0,-1.0,-1.0,-1.0,-1.0,-1.0,-1.0,-1.0,-1.0,-1.0,-1.0,-1.0,-1.0,-1.0,-1.0,-1.0,2462.0,-1.0,49.461057929696,11.110709726607,-2.0
2.7212,2112.5543,4.07984,-4.30012,-0.53871,-0.72888,0.49422,-6.83614,2.5,-37.4,-10.3,-110.0,-91.0,-64.0,-74.0,-75.0,-87.0,-110.0,-82.0,-90.0,-81.0,-86.0,-110.0,-69.0,-92.0,-88.0,-81.0,-110.0,-110.0,-58.0,-110.0,-110.0,-110.0,-110.0,-110.0,-110.0,-110.0,-110.0,-110.0,-110.0,-110.0,-110.0,-110.0,-110.0,-110.0,-85.0,-110.0,2437.0,5200.0,2417.0,2452.0,-1.0,2462.0,2412.0,2427.0,2437.0,-1.0,2437.0,5220.0,5220.0,2462.0,-1.0,-1.0,2437.0,-1.0,-1.0,-1.0,-1.0,-1.0,-1.0,-1.0,-1.0,-1.0,-1.0,-1.0,-1.0,-1.0,-1.0,-1.0,2462.0,-1.0,49.461057929696,11.110709726607,-2.0
2.7348,2112.5743,4.01041,-3.10298,-0.09817,-1.52117,0.52599,-6.38899,6.9,-37.1,-12.1,-110.0,-91.0,-64.0,-74.0,-75.0,-87.0,-110.0,-82.0,-90.0,-81.0,-86.0,-110.0,-69.0,-92.0,-88.0,-81.0,-110.0,-110.0,-58.0,-110.0,-110.0,-110.0,-110.0,-110.0,-110.0,-110.0,-110.0,-110.0,-110.0,-110.0,-110.0,-110.0,-110.0,-110.0,-85.0,-110.0,2437.0,5200.0,2417.0,2452.0,-1.0,2462.0,2412.0,2427.0,2437.0,-1.0,2437.0,5220.0,5220.0,2462.0,-1.0,-1.0,2437.0,-1.0,-1.0,-1.0,-1.0,-1.0,-1.0,-1.0,-1.0,-1.0,-1.0,-1.0,-1.0,-1.0,-1.0,-1.0,2462.0,-1.0,49.461057929696,11.110709726607,-2.0
2.7647,2112.5943,5.33923,-3.08143,0.42618,-2.26826,1.16678,-6.68281,12.0,-35.8,-12.7,-110.0,-91.0,-64.0,-74.0,-75.0,-87.0,-110.0,-82.0,-90.0,-81.0,-86.0,-110.0,-69.0,-92.0,-88.0,-81.0,-110.0,-110.0,-58.0,-110.0,-110.0,-110.0,-110.0,-110.0,-110.0,-110.0,-110.0,-110.0,-110.0,-110.0,-110.0,-110.0,-110.0,-110.0,-85.0,-110.0,2437.0,5200.0,2417.0,2452.0,-1.0,2462.0,2412.0,2427.0,2437.0,-1.0,2437.0,5220.0,5220.0,2462.0,-1.0,-1.0,2437.0,-1.0,-1.0,-1.0,-1.0,-1.0,-1.0,-1.0,-1.0,-1.0,-1.0,-1.0,-1.0,-1.0,-1.0,-1.0,2462.0,-1.0,49.461057929696,11.110709726607,-2.0
2.7784,2112.6143,5.40148,-3.49085,0.86194,-2.7991,1.20893,-7.7897,16.7,-33.1,-13.9,-110.0,-91.0,-64.0,-74.0,-75.0,-87.0,-110.0,-82.0,-90.0,-81.0,-86.0,-110.0,-69.0,-92.0,-88.0,-81.0,-110.0,-110.0,-58.0,-110.0,-110.0,-110.0,-110.0,-110.0,-110.0,-110.0,-110.0,-110.0,-110.0,-110.0,-110.0,-110.0,-110.0,-110.0,-85.0,-110.0,2437.0,5200.0,2417.0,2452.0,-1.0,2462.0,2412.0,2427.0,2437.0,-1.0,2437.0,5220.0,5220.0,2462.0,-1.0,-1.0,2437.0,-1.0,-1.0,-1.0,-1.0,-1.0,-1.0,-1.0,-1.0,-1.0,-1.0,-1.0,-1.0,-1.0,-1.0,-1.0,2462.0,-1.0,49.461057929696,11.110709726607,-2.0
2.795,2112.6343,5.22431,-4.1828,0.81405,-3.42096,0.02202,-8.22647,21.5,-28.9,-17.8,-110.0,-91.0,-64.0,-74.0,-75.0,-87.0,-110.0,-82.0,-90.0,-81.0,-86.0,-110.0,-69.0,-92.0,-88.0,-81.0,-110.0,-110.0,-58.0,-110.0,-110.0,-110.0,-110.0,-110.0,-110.0,-110.0,-110.0,-110.0,-110.0,-110.0,-110.0,-110.0,-110.0,-110.0,-85.0,-110.0,2437.0,5200.0,2417.0,2452.0,-1.0,2462.0,2412.0,2427.0,2437.0,-1.0,2437.0,5220.0,5220.0,2462.0,-1.0,-1.0,2437.0,-1.0,-1.0,-1.0,-1.0,-1.0,-1.0,-1.0,-1.0,-1.0,-1.0,-1.0,-1.0,-1.0,-1.0,-1.0,2462.0,-1.0,49.461057929696,11.110709726607,-2.0
2.8328,2112.6543,5.08544,-5.94259,0.84039,-4.40812,-1.32127,-8.78541,25.7,-22.7,-18.4,-110.0,-91.0,-64.0,-74.0,-75.0,-87.0,-110.0,-82.0,-90.0,-81.0,-86.0,-110.0,-69.0,-92.0,-88.0,-81.0,-110.0,-110.0,-58.0,-110.0,-110.0,-110.0,-110.0,-110.0,-110.0,-110.0,-110.0,-110.0,-110.0,-110.0,-110.0,-110.0,-110.0,-110.0,-85.0,-110.0,2437.0,5200.0,2417.0,2452.0,-1.0,2462.0,2412.0,2427.0,2437.0,-1.0,2437.0,5220.0,5220.0,2462.0,-1.0,-1.0,2437.0,-1.0,-1.0,-1.0,-1.0,-1.0,-1.0,-1.0,-1.0,-1.0,-1.0,-1.0,-1.0,-1.0,-1.0,-1.0,2462.0,-1.0,49.461057929696,11.110709726607,-2.0
2.8468,2112.6742,4.18759,-7.99448,1.75261,-5.46308,-2.34508,-8.64735,28.7,-15.6,-19.6,-110.0,-91.0,-64.0,-74.0,-75.0,-87.0,-110.0,-82.0,-90.0,-81.0,-86.0,-110.0,-69.0,-92.0,-88.0,-81.0,-110.0,-110.0,-58.0,-110.0,-110.0,-110.0,-110.0,-110.0,-110.0,-110.0,-110.0,-110.0,-110.0,-110.0,-110.0,-110.0,-110.0,-110.0,-85.0,-110.0,2437.0,5200.0,2417.0,2452.0,-1.0,2462.0,2412.0,2427.0,2437.0,-1.0,2437.0,5220.0,5220.0,2462.0,-1.0,-1.0,2437.0,-1.0,-1.0,-1.0,-1.0,-1.0,-1.0,-1.0,-1.0,-1.0,-1.0,-1.0,-1.0,-1.0,-1.0,-1.0,2462.0,-1.0,49.461057929696,11.110709726607,-2.0
2.8581,2112.6942,4.37913,-9.60344,4.46772,-5.83815,-3.37011,-8.13301,27.9,-7.6,-24.6,-110.0,-91.0,-64.0,-74.0,-75.0,-87.0,-110.0,-82.0,-90.0,-81.0,-86.0,-110.0,-69.0,-92.0,-88.0,-81.0,-110.0,-110.0,-58.0,-110.0,-110.0,-110.0,-110.0,-110.0,-110.0,-110.0,-110.0,-110.0,-110.0,-110.0,-110.0,-110.0,-110.0,-110.0,-85.0,-110.0,2437.0,5200.0,2417.0,2452.0,-1.0,2462.0,2412.0,2427.0,2437.0,-1.0,2437.0,5220.0,5220.0,2462.0,-1.0,-1.0,2437.0,-1.0,-1.0,-1.0,-1.0,-1.0,-1.0,-1.0,-1.0,-1.0,-1.0,-1.0,-1.0,-1.0,-1.0,-1.0,2462.0,-1.0,49.461057929696,11.110709726607,-2.0
2.8815,2112.7142,5.44937,-10.9969,8.86839,-5.47469,-4.01519,-7.99923,26.7,0.4,-26.4,-110.0,-91.0,-64.0,-74.0,-75.0,-87.0,-110.0,-82.0,-90.0,-81.0,-86.0,-110.0,-69.0,-92.0,-88.0,-81.0,-110.0,-110.0,-58.0,-110.0,-110.0,-110.0,-110.0,-110.0,-110.0,-110.0,-110.0,-110.0,-110.0,-110.0,-110.0,-110.0,-110.0,-110.0,-85.0,-110.0,2437.0,5200.0,2417.0,2452.0,-1.0,2462.0,2412.0,2427.0,2437.0,-1.0,2437.0,5220.0,5220.0,2462.0,-1.0,-1.0,2437.0,-1.0,-1.0,-1.0,-1.0,-1.0,-1.0,-1.0,-1.0,-1.0,-1.0,-1.0,-1.0,-1.0,-1.0,-1.0,2462.0,-1.0,49.461057929696,11.110709726607,-2.0
2.8955,2112.7342,3.10298,-11.13338,13.06077,-4.1821,-4.0439,-7.47449,23.9,7.2,-29.7,-110.0,-91.0,-64.0,-74.0,-75.0,-87.0,-110.0,-82.0,-90.0,-81.0,-86.0,-110.0,-69.0,-92.0,-88.0,-81.0,-110.0,-110.0,-58.0,-110.0,-110.0,-110.0,-110.0,-110.0,-110.0,-110.0,-110.0,-110.0,-110.0,-110.0,-110.0,-110.0,-110.0,-110.0,-85.0,-110.0,2437.0,5200.0,2417.0,2452.0,-1.0,2462.0,2412.0,2427.0,2437.0,-1.0,2437.0,5220.0,5220.0,2462.0,-1.0,-1.0,2437.0,-1.0,-1.0,-1.0,-1.0,-1.0,-1.0,-1.0,-1.0,-1.0,-1.0,-1.0,-1.0,-1.0,-1.0,-1.0,2462.0,-1.0,49.461057929696,11.110709726607,-2.0
2.915,2112.7542,0.84039,-10.42707,14.78704,-2.92371,-4.0891,-5.73719,20.1,14.2,-30.6,-110.0,-91.0,-64.0,-74.0,-75.0,-87.0,-110.0,-82.0,-90.0,-81.0,-86.0,-110.0,-69.0,-92.0,-88.0,-81.0,-110.0,-110.0,-58.0,-110.0,-110.0,-110.0,-110.0,-110.0,-110.0,-110.0,-110.0,-110.0,-110.0,-110.0,-110.0,-110.0,-110.0,-110.0,-85.0,-110.0,2437.0,5200.0,2417.0,2452.0,-1.0,2462.0,2412.0,2427.0,2437.0,-1.0,2437.0,5220.0,5220.0,2462.0,-1.0,-1.0,2437.0,-1.0,-1.0,-1.0,-1.0,-1.0,-1.0,-1.0,-1.0,-1.0,-1.0,-1.0,-1.0,-1.0,-1.0,-1.0,2462.0,-1.0,49.461057929696,11.110709726607,-2.0
2.9366,2112.7742,2.49723,-9.49091,14.83253,-2.35622,-4.37499,-4.71216,21.3,16.3,-27.1,-110.0,-91.0,-64.0,-74.0,-75.0,-87.0,-110.0,-82.0,-90.0,-81.0,-86.0,-110.0,-69.0,-92.0,-88.0,-81.0,-110.0,-110.0,-58.0,-110.0,-110.0,-110.0,-110.0,-110.0,-110.0,-110.0,-110.0,-110.0,-110.0,-110.0,-110.0,-110.0,-110.0,-110.0,-85.0,-110.0,2437.0,5200.0,2417.0,2452.0,-1.0,2462.0,2412.0,2427.0,2437.0,-1.0,2437.0,5220.0,5220.0,2462.0,-1.0,-1.0,2437.0,-1.0,-1.0,-1.0,-1.0,-1.0,-1.0,-1.0,-1.0,-1.0,-1.0,-1.0,-1.0,-1.0,-1.0,-1.0,2462.0,-1.0,49.461057929696,11.110709726607,-2.0
2.9569,2112.7942,5.435,-8.6984,16.00812,-1.88463,-4.57657,-5.19474,9.8,21.7,-31.0,-99.0,-110.0,-64.0,-74.0,-75.0,-87.0,-110.0,-82.0,-90.0,-81.0,-86.0,-110.0,-69.0,-92.0,-88.0,-81.0,-110.0,-110.0,-58.0,-110.0,-110.0,-110.0,-110.0,-110.0,-110.0,-110.0,-110.0,-110.0,-110.0,-110.0,-110.0,-110.0,-110.0,-110.0,-85.0,-110.0,2437.0,5200.0,2417.0,2452.0,-1.0,2462.0,2412.0,2427.0,2437.0,-1.0,2437.0,5220.0,5220.0,2462.0,-1.0,-1.0,2437.0,-1.0,-1.0,-1.0,-1.0,-1.0,-1.0,-1.0,-1.0,-1.0,-1.0,-1.0,-1.0,-1.0,-1.0,-1.0,2462.0,-1.0,49.461057929696,11.110709726607,-2.0
2.975,2112.8142,7.32888,-8.46376,17.72482,-0.62442,-4.23204,-6.02247,11.3,22.4,-30.4,-99.0,-110.0,-64.0,-74.0,-75.0,-87.0,-110.0,-82.0,-90.0,-81.0,-86.0,-110.0,-69.0,-92.0,-88.0,-81.0,-110.0,-110.0,-58.0,-110.0,-110.0,-110.0,-110.0,-110.0,-110.0,-110.0,-110.0,-110.0,-110.0,-110.0,-110.0,-110.0,-110.0,-110.0,-85.0,-110.0,2437.0,5200.0,2417.0,2452.0,-1.0,2462.0,2412.0,2427.0,2437.0,-1.0,2437.0,5220.0,5220.0,2462.0,-1.0,-1.0,2437.0,-1.0,-1.0,-1.0,-1.0,-1.0,-1.0,-1.0,-1.0,-1.0,-1.0,-1.0,-1.0,-1.0,-1.0,-1.0,2462.0,-1.0,49.461057929696,11.110709726607,-2.0
2.9976,2112.8342,8.4901,-9.03599,18.30184,0.68711,-3.82521,-6.43969,5.1,22.5,-30.4,-99.0,-110.0,-64.0,-74.0,-75.0,-87.0,-110.0,-82.0,-90.0,-81.0,-86.0,-110.0,-69.0,-92.0,-88.0,-81.0,-110.0,-110.0,-58.0,-110.0,-110.0,-110.0,-110.0,-110.0,-110.0,-110.0,-110.0,-110.0,-110.0,-110.0,-110.0,-110.0,-110.0,-110.0,-85.0,-110.0,2437.0,5200.0,2417.0,2452.0,-1.0,2462.0,2412.0,2427.0,2437.0,-1.0,2437.0,5220.0,5220.0,2462.0,-1.0,-1.0,2437.0,-1.0,-1.0,-1.0,-1.0,-1.0,-1.0,-1.0,-1.0,-1.0,-1.0,-1.0,-1.0,-1.0,-1.0,-1.0,2462.0,-1.0,49.461057929696,11.110709726607,-2.0
3.0217,2112.8542,9.85723,-10.00807,17.51651,1.58814,-4.33528,-6.8001,-4.5,22.4,-30.2,-99.0,-110.0,-64.0,-74.0,-75.0,-87.0,-110.0,-82.0,-90.0,-81.0,-86.0,-110.0,-69.0,-92.0,-88.0,-81.0,-110.0,-110.0,-58.0,-110.0,-110.0,-110.0,-110.0,-110.0,-110.0,-110.0,-110.0,-110.0,-110.0,-110.0,-110.0,-110.0,-110.0,-110.0,-85.0,-110.0,2437.0,5200.0,2417.0,2452.0,-1.0,2462.0,2412.0,2427.0,2437.0,-1.0,2437.0,5220.0,5220.0,2462.0,-1.0,-1.0,2437.0,-1.0,-1.0,-1.0,-1.0,-1.0,-1.0,-1.0,-1.0,-1.0,-1.0,-1.0,-1.0,-1.0,-1.0,-1.0,2462.0,-1.0,49.461057929696,11.110709726607,-2.0
3.0388,2112.8742,11.20999,-10.98733,16.69767,1.71703,-4.70669,-7.14035,-5.4,20.0,-30.8,-99.0,-110.0,-64.0,-74.0,-75.0,-87.0,-110.0,-82.0,-90.0,-81.0,-86.0,-110.0,-69.0,-92.0,-88.0,-81.0,-110.0,-110.0,-58.0,-110.0,-110.0,-110.0,-110.0,-110.0,-110.0,-110.0,-110.0,-110.0,-110.0,-110.0,-110.0,-110.0,-110.0,-110.0,-85.0,-110.0,2437.0,5200.0,2417.0,2452.0,-1.0,2462.0,2412.0,2427.0,2437.0,-1.0,2437.0,5220.0,5220.0,2462.0,-1.0,-1.0,2437.0,-1.0,-1.0,-1.0,-1.0,-1.0,-1.0,-1.0,-1.0,-1.0,-1.0,-1.0,-1.0,-1.0,-1.0,-1.0,2462.0,-1.0,49.461057929696,11.110709726607,-2.0
3.0611,2112.8942,12.11503,-11.27943,17.76312,1.78728,-4.92538,-7.30345,-9.8,17.2,-30.5,-99.0,-110.0,-64.0,-74.0,-75.0,-87.0,-110.0,-82.0,-90.0,-81.0,-86.0,-110.0,-69.0,-92.0,-88.0,-81.0,-110.0,-110.0,-58.0,-110.0,-110.0,-110.0,-110.0,-110.0,-110.0,-110.0,-110.0,-110.0,-110.0,-110.0,-110.0,-110.0,-110.0,-110.0,-85.0,-110.0,2437.0,5200.0,2417.0,2452.0,-1.0,2462.0,2412.0,2427.0,2437.0,-1.0,2437.0,5220.0,5220.0,2462.0,-1.0,-1.0,2437.0,-1.0,-1.0,-1.0,-1.0,-1.0,-1.0,-1.0,-1.0,-1.0,-1.0,-1.0,-1.0,-1.0,-1.0,-1.0,2462.0,-1.0,49.461057929696,11.110709726607,-2.0
3.0756,2112.9142,12.87402,-11.09268,19.77431,2.49283,-5.23569,-7.60278,-15.4,13.6,-28.4,-99.0,-110.0,-64.0,-74.0,-75.0,-87.0,-110.0,-82.0,-90.0,-81.0,-86.0,-110.0,-69.0,-92.0,-88.0,-81.0,-110.0,-110.0,-58.0,-110.0,-110.0,-110.0,-110.0,-110.0,-110.0,-110.0,-110.0,-110.0,-110.0,-110.0,-110.0,-110.0,-110.0,-110.0,-85.0,-110.0,2437.0,5200.0,2417.0,2452.0,-1.0,2462.0,2412.0,2427.0,2437.0,-1.0,2437.0,5220.0,5220.0,2462.0,-1.0,-1.0,2437.0,-1.0,-1.0,-1.0,-1.0,-1.0,-1.0,-1.0,-1.0,-1.0,-1.0,-1.0,-1.0,-1.0,-1.0,-1.0,2462.0,-1.0,49.461057929696,11.110709726607,-2.0
3.0951,2112.9342,12.90754,-10.79818,21.12469,3.6272,-6.01821,-8.09696,-22.2,8.6,-27.3,-99.0,-110.0,-64.0,-74.0,-75.0,-87.0,-110.0,-82.0,-90.0,-81.0,-86.0,-110.0,-69.0,-92.0,-88.0,-81.0,-110.0,-110.0,-58.0,-110.0,-110.0,-110.0,-110.0,-110.0,-110.0,-110.0,-110.0,-110.0,-110.0,-110.0,-110.0,-110.0,-110.0,-110.0,-85.0,-110.0,2437.0,5200.0,2417.0,2452.0,-1.0,2462.0,2412.0,2427.0,2437.0,-1.0,2437.0,5220.0,5220.0,2462.0,-1.0,-1.0,2437.0,-1.0,-1.0,-1.0,-1.0,-1.0,-1.0,-1.0,-1.0,-1.0,-1.0,-1.0,-1.0,-1.0,-1.0,-1.0,2462.0,-1.0,49.461057929696,11.110709726607,-2.0
3.1209,2112.9542,11.5021,-10.0368,19.82699,4.63269,-6.05853,-8.09819,-25.5,2.0,-26.2,-99.0,-110.0,-64.0,-74.0,-75.0,-87.0,-110.0,-82.0,-90.0,-81.0,-86.0,-110.0,-69.0,-92.0,-88.0,-81.0,-110.0,-110.0,-58.0,-110.0,-110.0,-110.0,-110.0,-110.0,-110.0,-110.0,-110.0,-110.0,-110.0,-110.0,-110.0,-110.0,-110.0,-110.0,-85.0,-110.0,2437.0,5200.0,2417.0,2452.0,-1.0,2462.0,2412.0,2427.0,2437.0,-1.0,2437.0,5220.0,5220.0,2462.0,-1.0,-1.0,2437.0,-1.0,-1.0,-1.0,-1.0,-1.0,-1.0,-1.0,-1.0,-1.0,-1.0,-1.0,-1.0,-1.0,-1.0,-1.0,2462.0,-1.0,49.461057929696,11.110709726607,-2.0
3.1371,2112.9742,9.35683,-8.3656,17.36807,4.73654,-5.18683,-7.02978,-27.0,-5.2,-23.6,-99.0,-110.0,-64.0,-74.0,-75.0,-87.0,-110.0,-82.0,-90.0,-81.0,-86.0,-110.0,-69.0,-92.0,-88.0,-81.0,-110.0,-110.0,-58.0,-110.0,-110.0,-110.0,-110.0,-110.0,-110.0,-110.0,-110.0,-110.0,-110.0,-110.0,-110.0,-110.0,-110.0,-110.0,-85.0,-110.0,2437.0,5200.0,2417.0,2452.0,-1.0,2462.0,2412.0,2427.0,2437.0,-1.0,2437.0,5220.0,5220.0,2462.0,-1.0,-1.0,2437.0,-1.0,-1.0,-1.0,-1.0,-1.0,-1.0,-1.0,-1.0,-1.0,-1.0,-1.0,-1.0,-1.0,-1.0,-1.0,2462.0,-1.0,49.461057929696,11.110709726607,-2.0
3.163,2112.9942,6.83326,-6.30652,15.19646,4.5826,-4.40064,-5.93328,-28.6,-12.0,-19.4,-99.0,-110.0,-64.0,-74.0,-75.0,-87.0,-110.0,-82.0,-90.0,-81.0,-86.0,-110.0,-69.0,-92.0,-88.0,-81.0,-110.0,-110.0,-58.0,-110.0,-110.0,-110.0,-110.0,-110.0,-110.0,-110.0,-110.0,-110.0,-110.0,-110.0,-110.0,-110.0,-110.0,-110.0,-85.0,-110.0,2437.0,5200.0,2417.0,2452.0,-1.0,2462.0,2412.0,2427.0,2437.0,-1.0,2437.0,5220.0,5220.0,2462.0,-1.0,-1.0,2437.0,-1.0,-1.0,-1.0,-1.0,-1.0,-1.0,-1.0,-1.0,-1.0,-1.0,-1.0,-1.0,-1.0,-1.0,-1.0,2462.0,-1.0,49.461057929696,11.110709726607,-2.0
3.1772,2113.0142,4.25463,-4.25223,14.3441,5.0548,-4.30229,-4.64558,-31.4,-16.3,-16.8,-99.0,-110.0,-64.0,-74.0,-75.0,-87.0,-110.0,-82.0,-90.0,-81.0,-86.0,-110.0,-69.0,-92.0,-88.0,-81.0,-110.0,-110.0,-58.0,-110.0,-110.0,-110.0,-110.0,-110.0,-110.0,-110.0,-110.0,-110.0,-110.0,-110.0,-110.0,-110.0,-110.0,-110.0,-85.0,-110.0,2437.0,5200.0,2417.0,2452.0,-1.0,2462.0,2412.0,2427.0,2437.0,-1.0,2437.0,5220.0,5220.0,2462.0,-1.0,-1.0,2437.0,-1.0,-1.0,-1.0,-1.0,-1.0,-1.0,-1.0,-1.0,-1.0,-1.0,-1.0,-1.0,-1.0,-1.0,-1.0,2462.0,-1.0,49.461057929696,11.110709726607,-2.0
3.1942,2113.0342,1.87711,-2.74144,13.83173,5.98148,-4.34444,-3.31939,-31.2,-19.4,-13.2,-99.0,-110.0,-64.0,-74.0,-75.0,-87.0,-110.0,-82.0,-90.0,-81.0,-86.0,-110.0,-69.0,-92.0,-88.0,-81.0,-110.0,-110.0,-58.0,-110.0,-110.0,-110.0,-110.0,-110.0,-110.0,-110.0,-110.0,-110.0,-110.0,-110.0,-110.0,-110.0,-110.0,-110.0,-85.0,-110.0,2437.0,5200.0,2417.0,2452.0,-1.0,2462.0,2412.0,2427.0,2437.0,-1.0,2437.0,5220.0,5220.0,2462.0,-1.0,-1.0,2437.0,-1.0,-1.0,-1.0,-1.0,-1.0,-1.0,-1.0,-1.0,-1.0,-1.0,-1.0,-1.0,-1.0,-1.0,-1.0,2462.0,-1.0,49.461057929696,11.110709726607,-2.0
3.2205,2113.0542,-0.06943,-2.20034,12.76388,7.10669,-4.13797,-1.9822,-30.4,-23.8,-4.0,-99.0,-110.0,-64.0,-74.0,-75.0,-87.0,-110.0,-82.0,-90.0,-81.0,-86.0,-110.0,-69.0,-92.0,-88.0,-81.0,-110.0,-110.0,-58.0,-110.0,-110.0,-110.0,-110.0,-110.0,-110.0,-110.0,-110.0,-110.0,-110.0,-110.0,-110.0,-110.0,-110.0,-110.0,-85.0,-110.0,2437.0,5200.0,2417.0,2452.0,-1.0,2462.0,2412.0,2427.0,2437.0,-1.0,2437.0,5220.0,5220.0,2462.0,-1.0,-1.0,2437.0,-1.0,-1.0,-1.0,-1.0,-1.0,-1.0,-1.0,-1.0,-1.0,-1.0,-1.0,-1.0,-1.0,-1.0,-1.0,2462.0,-1.0,49.461057929696,11.110709726607,-2.0
3.2446,2113.0741,-2.43977,-2.89228,10.58509,8.12073,-3.72503,-0.39762,-29.5,-23.9,2.2,-99.0,-110.0,-64.0,-74.0,-75.0,-87.0,-110.0,-82.0,-90.0,-81.0,-86.0,-110.0,-69.0,-92.0,-88.0,-81.0,-110.0,-110.0,-58.0,-110.0,-110.0,-110.0,-110.0,-110.0,-110.0,-110.0,-110.0,-110.0,-110.0,-110.0,-110.0,-110.0,-110.0,-110.0,-85.0,-110.0,2437.0,5200.0,2417.0,2452.0,-1.0,2462.0,2412.0,2427.0,2437.0,-1.0,2437.0,5220.0,5220.0,2462.0,-1.0,-1.0,2437.0,-1.0,-1.0,-1.0,-1.0,-1.0,-1.0,-1.0,-1.0,-1.0,-1.0,-1.0,-1.0,-1.0,-1.0,-1.0,2462.0,-1.0,49.461057929696,11.110709726607,-2.0
3.2674,2113.0941,-4.7239,-4.17562,7.01283,8.70716,-3.57536,1.44597,-30.5,-22.1,6.7,-99.0,-110.0,-64.0,-74.0,-75.0,-87.0,-110.0,-82.0,-90.0,-81.0,-86.0,-110.0,-69.0,-92.0,-88.0,-81.0,-110.0,-110.0,-58.0,-110.0,-110.0,-110.0,-110.0,-110.0,-110.0,-110.0,-110.0,-110.0,-110.0,-110.0,-110.0,-110.0,-110.0,-110.0,-85.0,-110.0,2437.0,5200.0,2417.0,2452.0,-1.0,2462.0,2412.0,2427.0,2437.0,-1.0,2437.0,5220.0,5220.0,2462.0,-1.0,-1.0,2437.0,-1.0,-1.0,-1.0,-1.0,-1.0,-1.0,-1.0,-1.0,-1.0,-1.0,-1.0,-1.0,-1.0,-1.0,-1.0,2462.0,-1.0,49.461057929696,11.110709726607,-2.0
3.2768,2113.1141,-4.57306,-5.67443,2.18597,8.14577,-3.7293,2.79904,-30.5,-19.3,13.5,-99.0,-110.0,-64.0,-74.0,-75.0,-87.0,-110.0,-82.0,-90.0,-81.0,-86.0,-110.0,-69.0,-92.0,-88.0,-81.0,-110.0,-110.0,-58.0,-110.0,-110.0,-110.0,-110.0,-110.0,-110.0,-110.0,-110.0,-110.0,-110.0,-110.0,-110.0,-110.0,-110.0,-110.0,-85.0,-110.0,2437.0,5200.0,2417.0,2452.0,-1.0,2462.0,2412.0,2427.0,2437.0,-1.0,2437.0,5220.0,5220.0,2462.0,-1.0,-1.0,2437.0,-1.0,-1.0,-1.0,-1.0,-1.0,-1.0,-1.0,-1.0,-1.0,-1.0,-1.0,-1.0,-1.0,-1.0,-1.0,2462.0,-1.0,49.461057929696,11.110709726607,-2.0
3.3257,2113.1341,-1.57543,-6.32567,1.66642,7.66686,-2.43854,3.07943,-31.1,-14.7,17.4,-99.0,-110.0,-64.0,-74.0,-75.0,-87.0,-110.0,-82.0,-90.0,-81.0,-86.0,-110.0,-69.0,-92.0,-88.0,-81.0,-110.0,-110.0,-58.0,-110.0,-110.0,-110.0,-110.0,-110.0,-110.0,-110.0,-110.0,-110.0,-110.0,-110.0,-110.0,-110.0,-110.0,-110.0,-85.0,-110.0,2437.0,5200.0,2417.0,2452.0,-1.0,2462.0,2412.0,2427.0,2437.0,-1.0,2437.0,5220.0,5220.0,2462.0,-1.0,-1.0,2437.0,-1.0,-1.0,-1.0,-1.0,-1.0,-1.0,-1.0,-1.0,-1.0,-1.0,-1.0,-1.0,-1.0,-1.0,-1.0,2462.0,-1.0,49.461057929696,11.110709726607,-2.0
3.3274,2113.1541,0.22267,-7.35042,1.33601,9.18302,-1.50514,2.6341,-30.9,-10.0,20.9,-99.0,-110.0,-64.0,-74.0,-75.0,-87.0,-110.0,-82.0,-90.0,-81.0,-86.0,-110.0,-69.0,-92.0,-88.0,-81.0,-110.0,-110.0,-58.0,-110.0,-110.0,-110.0,-110.0,-110.0,-110.0,-110.0,-110.0,-110.0,-110.0,-110.0,-110.0,-110.0,-110.0,-110.0,-85.0,-110.0,2437.0,5200.0,2417.0,2452.0,-1.0,2462.0,2412.0,2427.0,2437.0,-1.0,2437.0,5220.0,5220.0,2462.0,-1.0,-1.0,2437.0,-1.0,-1.0,-1.0,-1.0,-1.0,-1.0,-1.0,-1.0,-1.0,-1.0,-1.0,-1.0,-1.0,-1.0,-1.0,2462.0,-1.0,49.461057929696,11.110709726607,-2.0
3.3439,2113.1741,1.47966,-7.92266,-1.95852,9.02909,-1.15512,2.40992,-31.8,-3.7,24.8,-99.0,-110.0,-64.0,-74.0,-75.0,-87.0,-110.0,-82.0,-90.0,-81.0,-86.0,-110.0,-69.0,-92.0,-88.0,-81.0,-110.0,-110.0,-58.0,-110.0,-110.0,-110.0,-110.0,-110.0,-110.0,-110.0,-110.0,-110.0,-110.0,-110.0,-110.0,-110.0,-110.0,-110.0,-85.0,-110.0,2437.0,5200.0,2417.0,2452.0,-1.0,2462.0,2412.0,2427.0,2437.0,-1.0,2437.0,5220.0,5220.0,2462.0,-1.0,-1.0,2437.0,-1.0,-1.0,-1.0,-1.0,-1.0,-1.0,-1.0,-1.0,-1.0,-1.0,-1.0,-1.0,-1.0,-1.0,-1.0,2462.0,-1.0,49.461057929696,11.110709726607,-2.0
3.3583,2113.1941,2.60018,-7.38394,-4.0966,7.77559,-1.13007,1.88824,-31.8,1.9,25.4,-99.0,-110.0,-64.0,-74.0,-75.0,-87.0,-110.0,-82.0,-90.0,-81.0,-86.0,-110.0,-69.0,-92.0,-88.0,-81.0,-110.0,-110.0,-58.0,-110.0,-110.0,-110.0,-110.0,-110.0,-110.0,-110.0,-110.0,-110.0,-110.0,-110.0,-110.0,-110.0,-110.0,-110.0,-85.0,-110.0,2437.0,5200.0,2417.0,2452.0,-1.0,2462.0,2412.0,2427.0,2437.0,-1.0,2437.0,5220.0,5220.0,2462.0,-1.0,-1.0,2437.0,-1.0,-1.0,-1.0,-1.0,-1.0,-1.0,-1.0,-1.0,-1.0,-1.0,-1.0,-1.0,-1.0,-1.0,-1.0,2462.0,-1.0,49.461057929696,11.110709726607,-2.0
3.375,2113.2141,3.51958,-7.05832,-5.37036,7.30156,-1.89182,1.07884,-31.5,6.3,24.3,-99.0,-110.0,-64.0,-74.0,-75.0,-87.0,-110.0,-82.0,-90.0,-81.0,-86.0,-110.0,-69.0,-92.0,-88.0,-81.0,-110.0,-110.0,-58.0,-110.0,-110.0,-110.0,-110.0,-110.0,-110.0,-110.0,-110.0,-110.0,-110.0,-110.0,-110.0,-110.0,-110.0,-110.0,-85.0,-110.0,2437.0,5200.0,2417.0,2452.0,-1.0,2462.0,2412.0,2427.0,2437.0,-1.0,2437.0,5220.0,5220.0,2462.0,-1.0,-1.0,2437.0,-1.0,-1.0,-1.0,-1.0,-1.0,-1.0,-1.0,-1.0,-1.0,-1.0,-1.0,-1.0,-1.0,-1.0,-1.0,2462.0,-1.0,49.461057929696,11.110709726607,-2.0
3.3974,2113.2341,4.5587,-7.29775,-6.33525,6.71879,-2.43915,0.30488,-31.5,10.6,25.8,-99.0,-110.0,-64.0,-74.0,-75.0,-87.0,-110.0,-82.0,-90.0,-81.0,-86.0,-110.0,-69.0,-92.0,-88.0,-81.0,-110.0,-110.0,-58.0,-110.0,-110.0,-110.0,-110.0,-110.0,-110.0,-110.0,-110.0,-110.0,-110.0,-110.0,-110.0,-110.0,-110.0,-110.0,-85.0,-110.0,2437.0,5200.0,2417.0,2452.0,-1.0,2462.0,2412.0,2427.0,2437.0,-1.0,2437.0,5220.0,5220.0,2462.0,-1.0,-1.0,2437.0,-1.0,-1.0,-1.0,-1.0,-1.0,-1.0,-1.0,-1.0,-1.0,-1.0,-1.0,-1.0,-1.0,-1.0,-1.0,2462.0,-1.0,49.461057929696,11.110709726607,-2.0
3.4189,2113.2541,5.90428,-8.10223,-5.605,6.11343,-1.88754,-0.46543,-29.8,14.0,24.1,-99.0,-110.0,-64.0,-74.0,-75.0,-87.0,-110.0,-82.0,-90.0,-81.0,-86.0,-110.0,-69.0,-92.0,-88.0,-81.0,-110.0,-110.0,-58.0,-110.0,-110.0,-110.0,-110.0,-110.0,-110.0,-110.0,-110.0,-110.0,-110.0,-110.0,-110.0,-110.0,-110.0,-110.0,-85.0,-110.0,2437.0,5200.0,2417.0,2452.0,-1.0,2462.0,2412.0,2427.0,2437.0,-1.0,2437.0,5220.0,5220.0,2462.0,-1.0,-1.0,2437.0,-1.0,-1.0,-1.0,-1.0,-1.0,-1.0,-1.0,-1.0,-1.0,-1.0,-1.0,-1.0,-1.0,-1.0,-1.0,2462.0,-1.0,49.461057929696,11.110709726607,-2.0
3.4372,2113.2742,7.04875,-9.40471,-4.21871,5.97965,-0.328,-1.38233,-29.8,17.6,26.2,-99.0,-110.0,-64.0,-74.0,-75.0,-87.0,-110.0,-82.0,-90.0,-81.0,-86.0,-110.0,-69.0,-92.0,-88.0,-81.0,-110.0,-110.0,-58.0,-110.0,-110.0,-110.0,-110.0,-110.0,-110.0,-110.0,-110.0,-110.0,-110.0,-110.0,-110.0,-110.0,-110.0,-110.0,-85.0,-110.0,2437.0,5200.0,2417.0,2452.0,-1.0,2462.0,2412.0,2427.0,2437.0,-1.0,2437.0,5220.0,5220.0,2462.0,-1.0,-1.0,2437.0,-1.0,-1.0,-1.0,-1.0,-1.0,-1.0,-1.0,-1.0,-1.0,-1.0,-1.0,-1.0,-1.0,-1.0,-1.0,2462.0,-1.0,49.461057929696,11.110709726607,-2.0
3.4577,2113.2942,8.46137,-11.23873,-2.71032,6.25576,0.84974,-2.06284,-30.7,20.2,24.8,-99.0,-110.0,-64.0,-74.0,-75.0,-87.0,-110.0,-82.0,-90.0,-81.0,-86.0,-110.0,-69.0,-92.0,-88.0,-81.0,-110.0,-110.0,-58.0,-110.0,-110.0,-110.0,-110.0,-110.0,-110.0,-110.0,-110.0,-110.0,-110.0,-110.0,-110.0,-110.0,-110.0,-110.0,-85.0,-110.0,2437.0,5200.0,2417.0,2452.0,-1.0,2462.0,2412.0,2427.0,2437.0,-1.0,2437.0,5220.0,5220.0,2462.0,-1.0,-1.0,2437.0,-1.0,-1.0,-1.0,-1.0,-1.0,-1.0,-1.0,-1.0,-1.0,-1.0,-1.0,-1.0,-1.0,-1.0,-1.0,2462.0,-1.0,49.461057929696,11.110709726607,-2.0
3.479,2113.3142,10.07271,-13.26907,-1.78613,6.60029,2.01222,-2.69569,-32.1,22.6,19.6,-99.0,-110.0,-64.0,-74.0,-75.0,-87.0,-110.0,-82.0,-90.0,-81.0,-86.0,-110.0,-69.0,-92.0,-88.0,-81.0,-110.0,-110.0,-58.0,-110.0,-110.0,-110.0,-110.0,-110.0,-110.0,-110.0,-110.0,-110.0,-110.0,-110.0,-110.0,-110.0,-110.0,-110.0,-85.0,-110.0,2437.0,5200.0,2417.0,2452.0,-1.0,2462.0,2412.0,2427.0,2437.0,-1.0,2437.0,5220.0,5220.0,2462.0,-1.0,-1.0,2437.0,-1.0,-1.0,-1.0,-1.0,-1.0,-1.0,-1.0,-1.0,-1.0,-1.0,-1.0,-1.0,-1.0,-1.0,-1.0,2462.0,-1.0,49.461057929696,11.110709726607,-2.0
3.4971,2113.3343,11.86842,-15.18688,-1.29291,6.91977,3.02565,-3.24242,-34.2,22.4,14.6,-99.0,-110.0,-64.0,-74.0,-75.0,-87.0,-110.0,-82.0,-90.0,-81.0,-86.0,-110.0,-69.0,-92.0,-88.0,-81.0,-110.0,-110.0,-58.0,-110.0,-110.0,-110.0,-110.0,-110.0,-110.0,-110.0,-110.0,-110.0,-110.0,-110.0,-110.0,-110.0,-110.0,-110.0,-85.0,-110.0,2437.0,5200.0,2417.0,2452.0,-1.0,2462.0,2412.0,2427.0,2437.0,-1.0,2437.0,5220.0,5220.0,2462.0,-1.0,-1.0,2437.0,-1.0,-1.0,-1.0,-1.0,-1.0,-1.0,-1.0,-1.0,-1.0,-1.0,-1.0,-1.0,-1.0,-1.0,-1.0,2462.0,-1.0,49.461057929696,11.110709726607,-2.0
3.5172,2113.3543,13.7575,-16.92274,-1.40305,7.01201,3.86986,-3.6969,-35.3,21.9,10.3,-99.0,-110.0,-64.0,-74.0,-75.0,-87.0,-110.0,-82.0,-90.0,-81.0,-86.0,-110.0,-69.0,-92.0,-88.0,-81.0,-110.0,-110.0,-58.0,-110.0,-110.0,-110.0,-110.0,-110.0,-110.0,-110.0,-110.0,-110.0,-110.0,-110.0,-110.0,-110.0,-110.0,-110.0,-85.0,-110.0,2437.0,5200.0,2417.0,2452.0,-1.0,2462.0,2412.0,2427.0,2437.0,-1.0,2437.0,5220.0,5220.0,2462.0,-1.0,-1.0,2437.0,-1.0,-1.0,-1.0,-1.0,-1.0,-1.0,-1.0,-1.0,-1.0,-1.0,-1.0,-1.0,-1.0,-1.0,-1.0,2462.0,-1.0,49.461057929696,11.110709726607,-2.0
3.5386,2113.3743,15.46223,-18.13424,-1.74543,6.79088,4.46423,-4.18132,-34.6,19.1,3.2,-99.0,-110.0,-64.0,-74.0,-75.0,-87.0,-110.0,-82.0,-90.0,-81.0,-86.0,-110.0,-69.0,-92.0,-88.0,-81.0,-110.0,-110.0,-58.0,-110.0,-110.0,-110.0,-110.0,-110.0,-110.0,-110.0,-110.0,-110.0,-110.0,-110.0,-110.0,-110.0,-110.0,-110.0,-85.0,-110.0,2437.0,5200.0,2417.0,2452.0,-1.0,2462.0,2412.0,2427.0,2437.0,-1.0,2437.0,5220.0,5220.0,2462.0,-1.0,-1.0,2437.0,-1.0,-1.0,-1.0,-1.0,-1.0,-1.0,-1.0,-1.0,-1.0,-1.0,-1.0,-1.0,-1.0,-1.0,-1.0,2462.0,-1.0,49.461057929696,11.110709726607,-2.0
3.5605,2113.3943,16.53486,-18.4024,-2.01598,6.43047,4.44408,-4.43788,-36.0,15.7,2.4,-99.0,-110.0,-64.0,-74.0,-75.0,-87.0,-110.0,-82.0,-90.0,-81.0,-86.0,-110.0,-69.0,-92.0,-88.0,-81.0,-110.0,-110.0,-58.0,-110.0,-110.0,-110.0,-110.0,-110.0,-110.0,-110.0,-110.0,-110.0,-110.0,-110.0,-110.0,-110.0,-110.0,-110.0,-85.0,-110.0,2437.0,5200.0,2417.0,2452.0,-1.0,2462.0,2412.0,2427.0,2437.0,-1.0,2437.0,5220.0,5220.0,2462.0,-1.0,-1.0,2437.0,-1.0,-1.0,-1.0,-1.0,-1.0,-1.0,-1.0,-1.0,-1.0,-1.0,-1.0,-1.0,-1.0,-1.0,-1.0,2462.0,-1.0,49.461057929696,11.110709726607,-2.0
3.5847,2113.4144,17.1023,-17.61707,-2.08302,5.84892,3.79717,-4.8606,-40.9,13.7,-3.9,-99.0,-110.0,-64.0,-74.0,-75.0,-87.0,-110.0,-82.0,-90.0,-81.0,-86.0,-110.0,-69.0,-92.0,-88.0,-81.0,-110.0,-110.0,-58.0,-110.0,-110.0,-110.0,-110.0,-110.0,-110.0,-110.0,-110.0,-110.0,-110.0,-110.0,-110.0,-110.0,-110.0,-110.0,-85.0,-110.0,2437.0,5200.0,2417.0,2452.0,-1.0,2462.0,2412.0,2427.0,2437.0,-1.0,2437.0,5220.0,5220.0,2462.0,-1.0,-1.0,2437.0,-1.0,-1.0,-1.0,-1.0,-1.0,-1.0,-1.0,-1.0,-1.0,-1.0,-1.0,-1.0,-1.0,-1.0,-1.0,2462.0,-1.0,49.461057929696,11.110709726607,-2.0
3.6011,2113.4344,16.99935,-16.41515,-1.40305,5.19591,2.88026,-5.34746,-37.2,6.8,-6.8,-99.0,-110.0,-64.0,-74.0,-75.0,-87.0,-110.0,-82.0,-90.0,-81.0,-86.0,-110.0,-69.0,-92.0,-88.0,-81.0,-110.0,-110.0,-58.0,-110.0,-110.0,-110.0,-110.0,-110.0,-110.0,-110.0,-110.0,-110.0,-110.0,-110.0,-110.0,-110.0,-110.0,-110.0,-85.0,-110.0,2437.0,5200.0,2417.0,2452.0,-1.0,2462.0,2412.0,2427.0,2437.0,-1.0,2437.0,5220.0,5220.0,2462.0,-1.0,-1.0,2437.0,-1.0,-1.0,-1.0,-1.0,-1.0,-1.0,-1.0,-1.0,-1.0,-1.0,-1.0,-1.0,-1.0,-1.0,-1.0,2462.0,-1.0,49.461057929696,11.110709726607,-2.0
3.6186,2113.4544,16.16614,-15.29702,-0.32083,4.66751,2.58521,-5.74574,-36.6,2.3,-8.3,-99.0,-110.0,-64.0,-74.0,-75.0,-87.0,-110.0,-82.0,-90.0,-81.0,-86.0,-110.0,-69.0,-92.0,-88.0,-81.0,-110.0,-110.0,-58.0,-110.0,-110.0,-110.0,-110.0,-110.0,-110.0,-110.0,-110.0,-110.0,-110.0,-110.0,-110.0,-110.0,-110.0,-110.0,-85.0,-110.0,2437.0,5200.0,2417.0,2452.0,-1.0,2462.0,2412.0,2427.0,2437.0,-1.0,2437.0,5220.0,5220.0,2462.0,-1.0,-1.0,2437.0,-1.0,-1.0,-1.0,-1.0,-1.0,-1.0,-1.0,-1.0,-1.0,-1.0,-1.0,-1.0,-1.0,-1.0,-1.0,2462.0,-1.0,49.461057929696,11.110709726607,-2.0
3.6429,2113.4745,15.29942,-14.3848,1.01278,4.38162,2.9163,-5.86914,-40.7,-2.1,-11.1,-99.0,-110.0,-64.0,-74.0,-75.0,-87.0,-110.0,-82.0,-90.0,-81.0,-86.0,-110.0,-69.0,-92.0,-88.0,-81.0,-110.0,-110.0,-58.0,-110.0,-110.0,-110.0,-110.0,-110.0,-110.0,-110.0,-110.0,-110.0,-110.0,-110.0,-110.0,-110.0,-110.0,-110.0,-85.0,-110.0,2437.0,5200.0,2417.0,2452.0,-1.0,2462.0,2412.0,2427.0,2437.0,-1.0,2437.0,5220.0,5220.0,2462.0,-1.0,-1.0,2437.0,-1.0,-1.0,-1.0,-1.0,-1.0,-1.0,-1.0,-1.0,-1.0,-1.0,-1.0,-1.0,-1.0,-1.0,-1.0,2462.0,-1.0,49.461057929696,11.110709726607,-2.0
3.6665,2113.4945,14.90436,-13.48216,1.82923,4.37246,3.32436,-6.09821,-34.4,-9.1,-11.6,-99.0,-110.0,-64.0,-74.0,-75.0,-87.0,-110.0,-82.0,-90.0,-81.0,-86.0,-110.0,-69.0,-92.0,-88.0,-81.0,-110.0,-110.0,-58.0,-110.0,-110.0,-110.0,-110.0,-110.0,-110.0,-110.0,-110.0,-110.0,-110.0,-110.0,-110.0,-110.0,-110.0,-110.0,-85.0,-110.0,2437.0,5200.0,2417.0,2452.0,-1.0,2462.0,2412.0,2427.0,2437.0,-1.0,2437.0,5220.0,5220.0,2462.0,-1.0,-1.0,2437.0,-1.0,-1.0,-1.0,-1.0,-1.0,-1.0,-1.0,-1.0,-1.0,-1.0,-1.0,-1.0,-1.0,-1.0,-1.0,2462.0,-1.0,49.461057929696,11.110709726607,-2.0
3.6765,2113.5145,14.61944,-12.76627,1.58022,4.26739,3.58398,-6.52521,-32.0,-14.9,-11.1,-99.0,-110.0,-64.0,-74.0,-75.0,-87.0,-110.0,-82.0,-90.0,-81.0,-86.0,-110.0,-69.0,-92.0,-88.0,-81.0,-110.0,-110.0,-58.0,-110.0,-110.0,-110.0,-110.0,-110.0,-110.0,-110.0,-110.0,-110.0,-110.0,-110.0,-110.0,-110.0,-110.0,-110.0,-85.0,-110.0,2437.0,5200.0,2417.0,2452.0,-1.0,2462.0,2412.0,2427.0,2437.0,-1.0,2437.0,5220.0,5220.0,2462.0,-1.0,-1.0,2437.0,-1.0,-1.0,-1.0,-1.0,-1.0,-1.0,-1.0,-1.0,-1.0,-1.0,-1.0,-1.0,-1.0,-1.0,-1.0,2462.0,-1.0,49.461057929696,11.110709726607,-2.0
3.6957,2113.5345,14.32973,-11.91152,0.5004,3.87094,3.53083,-6.93632,-27.9,-19.7,-12.2,-99.0,-110.0,-64.0,-74.0,-75.0,-87.0,-110.0,-82.0,-90.0,-81.0,-86.0,-110.0,-69.0,-92.0,-88.0,-81.0,-110.0,-110.0,-58.0,-110.0,-110.0,-110.0,-110.0,-110.0,-110.0,-110.0,-110.0,-110.0,-110.0,-110.0,-110.0,-110.0,-110.0,-110.0,-85.0,-110.0,2437.0,5200.0,2417.0,2452.0,-1.0,2462.0,2412.0,2427.0,2437.0,-1.0,2437.0,5220.0,5220.0,2462.0,-1.0,-1.0,2437.0,-1.0,-1.0,-1.0,-1.0,-1.0,-1.0,-1.0,-1.0,-1.0,-1.0,-1.0,-1.0,-1.0,-1.0,-1.0,2462.0,-1.0,49.461057929696,11.110709726607,-2.0
3.7196,2113.5546,13.28344,-10.84846,-0.80926,3.17455,3.3659,-7.30101,-22.9,-27.6,-13.4,-99.0,-110.0,-64.0,-74.0,-75.0,-87.0,-110.0,-82.0,-90.0,-81.0,-86.0,-110.0,-69.0,-92.0,-88.0,-81.0,-110.0,-110.0,-58.0,-110.0,-110.0,-110.0,-110.0,-110.0,-110.0,-110.0,-110.0,-110.0,-110.0,-110.0,-110.0,-110.0,-110.0,-110.0,-85.0,-110.0,2437.0,5200.0,2417.0,2452.0,-1.0,2462.0,2412.0,2427.0,2437.0,-1.0,2437.0,5220.0,5220.0,2462.0,-1.0,-1.0,2437.0,-1.0,-1.0,-1.0,-1.0,-1.0,-1.0,-1.0,-1.0,-1.0,-1.0,-1.0,-1.0,-1.0,-1.0,-1.0,2462.0,-1.0,49.461057929696,11.110709726607,-2.0
3.7373,2113.5746,11.09028,-9.76625,-1.92979,2.23138,2.99938,-7.06888,-18.4,-32.2,-16.5,-99.0,-110.0,-64.0,-74.0,-75.0,-87.0,-110.0,-82.0,-90.0,-81.0,-86.0,-110.0,-69.0,-92.0,-88.0,-81.0,-110.0,-110.0,-58.0,-110.0,-110.0,-110.0,-110.0,-110.0,-110.0,-110.0,-110.0,-110.0,-110.0,-110.0,-110.0,-110.0,-110.0,-110.0,-85.0,-110.0,2437.0,5200.0,2417.0,2452.0,-1.0,2462.0,2412.0,2427.0,2437.0,-1.0,2437.0,5220.0,5220.0,2462.0,-1.0,-1.0,2437.0,-1.0,-1.0,-1.0,-1.0,-1.0,-1.0,-1.0,-1.0,-1.0,-1.0,-1.0,-1.0,-1.0,-1.0,-1.0,2462.0,-1.0,49.461057929696,11.110709726607,-2.0
3.7583,2113.5946,8.93304,-8.28658,-1.72627,1.05485,2.52962,-6.61562,-12.8,-34.7,-16.0,-99.0,-110.0,-64.0,-74.0,-75.0,-87.0,-110.0,-82.0,-90.0,-81.0,-86.0,-110.0,-69.0,-92.0,-88.0,-81.0,-110.0,-110.0,-58.0,-110.0,-110.0,-110.0,-110.0,-110.0,-110.0,-110.0,-110.0,-110.0,-110.0,-110.0,-110.0,-110.0,-110.0,-110.0,-85.0,-110.0,2437.0,5200.0,2417.0,2452.0,-1.0,2462.0,2412.0,2427.0,2437.0,-1.0,2437.0,5220.0,5220.0,2462.0,-1.0,-1.0,2437.0,-1.0,-1.0,-1.0,-1.0,-1.0,-1.0,-1.0,-1.0,-1.0,-1.0,-1.0,-1.0,-1.0,-1.0,-1.0,2462.0,-1.0,49.461057929696,11.110709726607,-2.0
3.7768,2113.6147,8.13335,-6.51961,-0.51716,0.44704,1.77459,-6.37677,-11.3,-35.3,-15.1,-99.0,-110.0,-64.0,-74.0,-75.0,-87.0,-110.0,-82.0,-90.0,-81.0,-86.0,-110.0,-69.0,-92.0,-88.0,-81.0,-110.0,-110.0,-58.0,-110.0,-110.0,-110.0,-110.0,-110.0,-110.0,-110.0,-110.0,-110.0,-110.0,-110.0,-110.0,-110.0,-110.0,-110.0,-85.0,-110.0,2437.0,5200.0,2417.0,2452.0,-1.0,2462.0,2412.0,2427.0,2437.0,-1.0,2437.0,5220.0,5220.0,2462.0,-1.0,-1.0,2437.0,-1.0,-1.0,-1.0,-1.0,-1.0,-1.0,-1.0,-1.0,-1.0,-1.0,-1.0,-1.0,-1.0,-1.0,-1.0,2462.0,-1.0,49.461057929696,11.110709726607,-2.0
3.7949,2113.6347,7.54915,-5.34402,0.52195,0.00294,1.31522,-6.86668,-6.8,-37.4,-18.7,-99.0,-110.0,-64.0,-74.0,-75.0,-87.0,-110.0,-82.0,-90.0,-81.0,-86.0,-110.0,-69.0,-92.0,-88.0,-81.0,-110.0,-110.0,-58.0,-110.0,-110.0,-110.0,-110.0,-110.0,-110.0,-110.0,-110.0,-110.0,-110.0,-110.0,-110.0,-110.0,-110.0,-110.0,-85.0,-110.0,2437.0,5200.0,2417.0,2452.0,-1.0,2462.0,2412.0,2427.0,2437.0,-1.0,2437.0,5220.0,5220.0,2462.0,-1.0,-1.0,2437.0,-1.0,-1.0,-1.0,-1.0,-1.0,-1.0,-1.0,-1.0,-1.0,-1.0,-1.0,-1.0,-1.0,-1.0,-1.0,2462.0,-1.0,49.461057929696,11.110709726607,-2.0
3.8187,2113.6547,6.65369,-4.71433,0.62969,-0.63786,1.64326,-7.00901,-1.4,-37.1,-19.9,-99.0,-110.0,-64.0,-74.0,-75.0,-87.0,-110.0,-82.0,-90.0,-81.0,-86.0,-110.0,-69.0,-92.0,-88.0,-81.0,-110.0,-110.0,-58.0,-110.0,-110.0,-110.0,-110.0,-110.0,-110.0,-110.0,-110.0,-110.0,-110.0,-110.0,-110.0,-110.0,-110.0,-110.0,-85.0,-110.0,2437.0,5200.0,2417.0,2452.0,-1.0,2462.0,2412.0,2427.0,2437.0,-1.0,2437.0,5220.0,5220.0,2462.0,-1.0,-1.0,2437.0,-1.0,-1.0,-1.0,-1.0,-1.0,-1.0,-1.0,-1.0,-1.0,-1.0,-1.0,-1.0,-1.0,-1.0,-1.0,2462.0,-1.0,49.461057929696,11.110709726607,-2.0
3.8404,2113.6747,5.15248,-4.69996,0.60096,-1.34035,1.93647,-6.80254,2.9,-36.5,-19.9,-99.0,-110.0,-64.0,-74.0,-75.0,-87.0,-110.0,-82.0,-90.0,-81.0,-86.0,-110.0,-69.0,-92.0,-88.0,-81.0,-110.0,-110.0,-58.0,-110.0,-110.0,-110.0,-110.0,-110.0,-110.0,-110.0,-110.0,-110.0,-110.0,-110.0,-110.0,-110.0,-110.0,-110.0,-85.0,-110.0,2437.0,5200.0,2417.0,2452.0,-1.0,2462.0,2412.0,2427.0,2437.0,-1.0,2437.0,5220.0,5220.0,2462.0,-1.0,-1.0,2437.0,-1.0,-1.0,-1.0,-1.0,-1.0,-1.0,-1.0,-1.0,-1.0,-1.0,-1.0,-1.0,-1.0,-1.0,-1.0,2462.0,-1.0,49.461057929696,11.110709726607,-2.0
3.8567,2113.6948,3.24903,-4.63532,1.20671,-1.7252,2.01772,-6.13487,9.2,-34.3,-20.2,-99.0,-110.0,-64.0,-74.0,-75.0,-87.0,-110.0,-82.0,-90.0,-81.0,-86.0,-110.0,-69.0,-92.0,-88.0,-81.0,-110.0,-110.0,-58.0,-110.0,-110.0,-110.0,-110.0,-110.0,-110.0,-110.0,-110.0,-110.0,-110.0,-110.0,-110.0,-110.0,-110.0,-110.0,-85.0,-110.0,2437.0,5200.0,2417.0,2452.0,-1.0,2462.0,2412.0,2427.0,2437.0,-1.0,2437.0,5220.0,5220.0,2462.0,-1.0,-1.0,2437.0,-1.0,-1.0,-1.0,-1.0,-1.0,-1.0,-1.0,-1.0,-1.0,-1.0,-1.0,-1.0,-1.0,-1.0,-1.0,2462.0,-1.0,49.461057929696,11.110709726607,-2.0
3.8783,2113.7148,2.57624,-4.11097,1.97528,-2.00742,1.43984,-5.88685,11.8,-32.7,-20.8,-99.0,-110.0,-64.0,-74.0,-75.0,-87.0,-110.0,-82.0,-90.0,-81.0,-86.0,-110.0,-69.0,-92.0,-88.0,-81.0,-110.0,-110.0,-58.0,-110.0,-110.0,-110.0,-110.0,-110.0,-110.0,-110.0,-110.0,-110.0,-110.0,-110.0,-110.0,-110.0,-110.0,-110.0,-85.0,-110.0,2437.0,5200.0,2417.0,2452.0,-1.0,2462.0,2412.0,2427.0,2437.0,-1.0,2437.0,5220.0,5220.0,2462.0,-1.0,-1.0,2437.0,-1.0,-1.0,-1.0,-1.0,-1.0,-1.0,-1.0,-1.0,-1.0,-1.0,-1.0,-1.0,-1.0,-1.0,-1.0,2462.0,-1.0,49.461057929696,11.110709726607,-2.0
3.9042,2113.7348,2.75342,-3.58902,2.44455,-2.13814,0.63044,-6.09821,16.3,-29.3,-22.0,-99.0,-110.0,-64.0,-74.0,-75.0,-87.0,-110.0,-82.0,-90.0,-81.0,-86.0,-110.0,-69.0,-92.0,-88.0,-81.0,-110.0,-110.0,-58.0,-110.0,-110.0,-110.0,-110.0,-110.0,-110.0,-110.0,-110.0,-110.0,-110.0,-110.0,-110.0,-110.0,-110.0,-110.0,-85.0,-110.0,2437.0,5200.0,2417.0,2452.0,-1.0,2462.0,2412.0,2427.0,2437.0,-1.0,2437.0,5220.0,5220.0,2462.0,-1.0,-1.0,2437.0,-1.0,-1.0,-1.0,-1.0,-1.0,-1.0,-1.0,-1.0,-1.0,-1.0,-1.0,-1.0,-1.0,-1.0,-1.0,2462.0,-1.0,49.461057929696,11.110709726607,-2.0
3.9154,2113.7549,3.04791,-3.56508,2.29611,-2.65738,0.15947,-6.45496,19.3,-25.8,-24.7,-99.0,-110.0,-64.0,-74.0,-75.0,-87.0,-110.0,-82.0,-90.0,-81.0,-86.0,-110.0,-69.0,-92.0,-88.0,-81.0,-110.0,-110.0,-58.0,-110.0,-110.0,-110.0,-110.0,-110.0,-110.0,-110.0,-110.0,-110.0,-110.0,-110.0,-110.0,-110.0,-110.0,-110.0,-85.0,-110.0,2437.0,5200.0,2417.0,2452.0,-1.0,2462.0,2412.0,2427.0,2437.0,-1.0,2437.0,5220.0,5220.0,2462.0,-1.0,-1.0,2437.0,-1.0,-1.0,-1.0,-1.0,-1.0,-1.0,-1.0,-1.0,-1.0,-1.0,-1.0,-1.0,-1.0,-1.0,-1.0,2462.0,-1.0,49.461057929696,11.110709726607,-2.0
3.9428,2113.7749,2.60976,-4.14449,2.33681,-3.24931,-0.28769,-6.43236,22.0,-21.9,-24.4,-99.0,-110.0,-64.0,-74.0,-75.0,-87.0,-110.0,-82.0,-90.0,-81.0,-86.0,-110.0,-69.0,-92.0,-88.0,-81.0,-110.0,-110.0,-58.0,-110.0,-110.0,-110.0,-110.0,-110.0,-110.0,-110.0,-110.0,-110.0,-110.0,-110.0,-110.0,-110.0,-110.0,-110.0,-85.0,-110.0,2437.0,5200.0,2417.0,2452.0,-1.0,2462.0,2412.0,2427.0,2437.0,-1.0,2437.0,5220.0,5220.0,2462.0,-1.0,-1.0,2437.0,-1.0,-1.0,-1.0,-1.0,-1.0,-1.0,-1.0,-1.0,-1.0,-1.0,-1.0,-1.0,-1.0,-1.0,-1.0,2462.0,-1.0,49.461057929696,11.110709726607,-2.0
3.9609,2113.7949,2.28174,-4.77418,3.02397,-3.6873,-0.66764,-6.1929,22.9,-18.1,-28.8,-99.0,-110.0,-64.0,-74.0,-75.0,-87.0,-110.0,-82.0,-90.0,-81.0,-86.0,-110.0,-69.0,-92.0,-88.0,-81.0,-110.0,-110.0,-58.0,-110.0,-110.0,-110.0,-110.0,-110.0,-110.0,-110.0,-110.0,-110.0,-110.0,-110.0,-110.0,-110.0,-110.0,-110.0,-85.0,-110.0,2437.0,5200.0,2417.0,2452.0,-1.0,2462.0,2412.0,2427.0,2437.0,-1.0,2437.0,5220.0,5220.0,2462.0,-1.0,-1.0,2437.0,-1.0,-1.0,-1.0,-1.0,-1.0,-1.0,-1.0,-1.0,-1.0,-1.0,-1.0,-1.0,-1.0,-1.0,-1.0,2462.0,-1.0,49.461057929696,11.110709726607,-2.0
3.9779,2113.8149,2.2602,-5.3536,4.53476,-3.83451,-1.39152,-5.97604,24.2,-9.0,-29.4,-110.0,-95.0,-64.0,-74.0,-75.0,-87.0,-110.0,-82.0,-90.0,-81.0,-86.0,-110.0,-69.0,-92.0,-88.0,-81.0,-110.0,-110.0,-58.0,-110.0,-110.0,-110.0,-110.0,-110.0,-110.0,-110.0,-110.0,-110.0,-110.0,-110.0,-110.0,-110.0,-110.0,-110.0,-85.0,-110.0,2437.0,5200.0,2417.0,2452.0,-1.0,2462.0,2412.0,2427.0,2437.0,-1.0,2437.0,5220.0,5220.0,2462.0,-1.0,-1.0,2437.0,-1.0,-1.0,-1.0,-1.0,-1.0,-1.0,-1.0,-1.0,-1.0,-1.0,-1.0,-1.0,-1.0,-1.0,-1.0,2462.0,-1.0,49.461057929696,11.110709726607,-2.0
3.9979,2113.835,2.48286,-5.6888,6.31131,-3.59322,-2.273,-5.83432,24.6,-2.7,-31.5,-110.0,-95.0,-64.0,-74.0,-75.0,-87.0,-110.0,-82.0,-90.0,-81.0,-86.0,-110.0,-69.0,-92.0,-88.0,-81.0,-110.0,-110.0,-58.0,-110.0,-110.0,-110.0,-110.0,-110.0,-110.0,-110.0,-110.0,-110.0,-110.0,-110.0,-110.0,-110.0,-110.0,-110.0,-85.0,-110.0,2437.0,5200.0,2417.0,2452.0,-1.0,2462.0,2412.0,2427.0,2437.0,-1.0,2437.0,5220.0,5220.0,2462.0,-1.0,-1.0,2437.0,-1.0,-1.0,-1.0,-1.0,-1.0,-1.0,-1.0,-1.0,-1.0,-1.0,-1.0,-1.0,-1.0,-1.0,-1.0,2462.0,-1.0,49.461057929696,11.110709726607,-2.0
4.0197,2113.855,2.12851,-5.86597,8.63375,-3.27374,-3.16059,-5.60036,22.3,1.0,-33.9,-110.0,-95.0,-64.0,-74.0,-75.0,-87.0,-110.0,-82.0,-90.0,-81.0,-86.0,-110.0,-69.0,-92.0,-88.0,-81.0,-110.0,-110.0,-58.0,-110.0,-110.0,-110.0,-110.0,-110.0,-110.0,-110.0,-110.0,-110.0,-110.0,-110.0,-110.0,-110.0,-110.0,-110.0,-85.0,-110.0,2437.0,5200.0,2417.0,2452.0,-1.0,2462.0,2412.0,2427.0,2437.0,-1.0,2437.0,5220.0,5220.0,2462.0,-1.0,-1.0,2437.0,-1.0,-1.0,-1.0,-1.0,-1.0,-1.0,-1.0,-1.0,-1.0,-1.0,-1.0,-1.0,-1.0,-1.0,-1.0,2462.0,-1.0,49.461057929696,11.110709726607,-2.0
4.0385,2113.875,2.22668,-6.13413,10.46059,-2.54009,-3.70731,-5.0066,20.3,6.5,-34.5,-110.0,-95.0,-64.0,-74.0,-75.0,-87.0,-110.0,-82.0,-90.0,-81.0,-86.0,-110.0,-69.0,-92.0,-88.0,-81.0,-110.0,-110.0,-58.0,-110.0,-110.0,-110.0,-110.0,-110.0,-110.0,-110.0,-110.0,-110.0,-110.0,-110.0,-110.0,-110.0,-110.0,-110.0,-85.0,-110.0,2437.0,5200.0,2417.0,2452.0,-1.0,2462.0,2412.0,2427.0,2437.0,-1.0,2437.0,5220.0,5220.0,2462.0,-1.0,-1.0,2437.0,-1.0,-1.0,-1.0,-1.0,-1.0,-1.0,-1.0,-1.0,-1.0,-1.0,-1.0,-1.0,-1.0,-1.0,-1.0,2462.0,-1.0,49.461057929696,11.110709726607,-2.0
4.059,2113.8949,3.44297,-6.65369,11.61942,-2.07767,-4.08055,-4.87099,16.3,9.8,-34.8,-110.0,-95.0,-64.0,-74.0,-75.0,-87.0,-110.0,-82.0,-90.0,-81.0,-86.0,-110.0,-69.0,-92.0,-88.0,-81.0,-110.0,-110.0,-58.0,-110.0,-110.0,-110.0,-110.0,-110.0,-110.0,-110.0,-110.0,-110.0,-110.0,-110.0,-110.0,-110.0,-110.0,-110.0,-85.0,-110.0,2437.0,5200.0,2417.0,2452.0,-1.0,2462.0,2412.0,2427.0,2437.0,-1.0,2437.0,5220.0,5220.0,2462.0,-1.0,-1.0,2437.0,-1.0,-1.0,-1.0,-1.0,-1.0,-1.0,-1.0,-1.0,-1.0,-1.0,-1.0,-1.0,-1.0,-1.0,-1.0,2462.0,-1.0,49.461057929696,11.110709726607,-2.0
4.0792,2113.9149,3.87394,-7.41746,13.39357,-1.61891,-4.40675,-4.9504,13.1,13.0,-37.2,-110.0,-95.0,-64.0,-74.0,-75.0,-87.0,-110.0,-82.0,-90.0,-81.0,-86.0,-110.0,-69.0,-92.0,-88.0,-81.0,-110.0,-110.0,-58.0,-110.0,-110.0,-110.0,-110.0,-110.0,-110.0,-110.0,-110.0,-110.0,-110.0,-110.0,-110.0,-110.0,-110.0,-110.0,-85.0,-110.0,2437.0,5200.0,2417.0,2452.0,-1.0,2462.0,2412.0,2427.0,2437.0,-1.0,2437.0,5220.0,5220.0,2462.0,-1.0,-1.0,2437.0,-1.0,-1.0,-1.0,-1.0,-1.0,-1.0,-1.0,-1.0,-1.0,-1.0,-1.0,-1.0,-1.0,-1.0,-1.0,2462.0,-1.0,49.461057929696,11.110709726607,-2.0
4.0978,2113.9349,4.36476,-7.93702,15.32096,-0.66779,-5.1911,-4.85571,8.7,16.8,-37.8,-110.0,-95.0,-64.0,-74.0,-75.0,-87.0,-110.0,-82.0,-90.0,-81.0,-86.0,-110.0,-69.0,-92.0,-88.0,-81.0,-110.0,-110.0,-58.0,-110.0,-110.0,-110.0,-110.0,-110.0,-110.0,-110.0,-110.0,-110.0,-110.0,-110.0,-110.0,-110.0,-110.0,-110.0,-85.0,-110.0,2437.0,5200.0,2417.0,2452.0,-1.0,2462.0,2412.0,2427.0,2437.0,-1.0,2437.0,5220.0,5220.0,2462.0,-1.0,-1.0,2437.0,-1.0,-1.0,-1.0,-1.0,-1.0,-1.0,-1.0,-1.0,-1.0,-1.0,-1.0,-1.0,-1.0,-1.0,-1.0,2462.0,-1.0,49.461057929696,11.110709726607,-2.0
4.1185,2113.9549,5.79893,-8.2818,15.42631,0.33281,-6.27844,-5.05241,4.0,16.7,-39.3,-110.0,-95.0,-64.0,-74.0,-75.0,-87.0,-110.0,-82.0,-90.0,-81.0,-86.0,-110.0,-69.0,-92.0,-88.0,-81.0,-110.0,-110.0,-58.0,-110.0,-110.0,-110.0,-110.0,-110.0,-110.0,-110.0,-110.0,-110.0,-110.0,-110.0,-110.0,-110.0,-110.0,-110.0,-85.0,-110.0,2437.0,5200.0,2417.0,2452.0,-1.0,2462.0,2412.0,2427.0,2437.0,-1.0,2437.0,5220.0,5220.0,2462.0,-1.0,-1.0,2437.0,-1.0,-1.0,-1.0,-1.0,-1.0,-1.0,-1.0,-1.0,-1.0,-1.0,-1.0,-1.0,-1.0,-1.0,-1.0,2462.0,-1.0,49.461057929696,11.110709726607,-2.0
4.1377,2113.9749,7.79336,-8.58587,14.76549,0.24179,-6.62297,-5.50873,-2.4,17.1,-40.5,-110.0,-95.0,-64.0,-74.0,-75.0,-87.0,-110.0,-82.0,-90.0,-81.0,-86.0,-110.0,-69.0,-92.0,-88.0,-81.0,-110.0,-110.0,-58.0,-110.0,-110.0,-110.0,-110.0,-110.0,-110.0,-110.0,-110.0,-110.0,-110.0,-110.0,-110.0,-110.0,-110.0,-110.0,-85.0,-110.0,2437.0,5200.0,2417.0,2452.0,-1.0,2462.0,2412.0,2427.0,2437.0,-1.0,2437.0,5220.0,5220.0,2462.0,-1.0,-1.0,2437.0,-1.0,-1.0,-1.0,-1.0,-1.0,-1.0,-1.0,-1.0,-1.0,-1.0,-1.0,-1.0,-1.0,-1.0,-1.0,2462.0,-1.0,49.461057929696,11.110709726607,-2.0
4.1612,2113.9949,9.13416,-8.72953,15.61785,-0.05326,-6.65474,-5.97054,-3.8,15.0,-39.7,-110.0,-95.0,-64.0,-74.0,-75.0,-87.0,-110.0,-82.0,-90.0,-81.0,-86.0,-110.0,-69.0,-92.0,-88.0,-81.0,-110.0,-110.0,-58.0,-110.0,-110.0,-110.0,-110.0,-110.0,-110.0,-110.0,-110.0,-110.0,-110.0,-110.0,-110.0,-110.0,-110.0,-110.0,-85.0,-110.0,2437.0,5200.0,2417.0,2452.0,-1.0,2462.0,2412.0,2427.0,2437.0,-1.0,2437.0,5220.0,5220.0,2462.0,-1.0,-1.0,2437.0,-1.0,-1.0,-1.0,-1.0,-1.0,-1.0,-1.0,-1.0,-1.0,-1.0,-1.0,-1.0,-1.0,-1.0,-1.0,2462.0,-1.0,49.461057929696,11.110709726607,-2.0
4.176,2114.0149,9.94103,-8.64333,17.09273,0.28089,-6.1465,-5.95161,-9.4,13.1,-35.9,-110.0,-95.0,-64.0,-74.0,-75.0,-87.0,-110.0,-82.0,-90.0,-81.0,-86.0,-110.0,-69.0,-92.0,-88.0,-81.0,-110.0,-110.0,-58.0,-110.0,-110.0,-110.0,-110.0,-110.0,-110.0,-110.0,-110.0,-110.0,-110.0,-110.0,-110.0,-110.0,-110.0,-110.0,-85.0,-110.0,2437.0,5200.0,2417.0,2452.0,-1.0,2462.0,2412.0,2427.0,2437.0,-1.0,2437.0,5220.0,5220.0,2462.0,-1.0,-1.0,2437.0,-1.0,-1.0,-1.0,-1.0,-1.0,-1.0,-1.0,-1.0,-1.0,-1.0,-1.0,-1.0,-1.0,-1.0,-1.0,2462.0,-1.0,49.461057929696,11.110709726607,-2.0
4.1974,2114.0349,10.90353,-8.12856,18.12466,1.3218,-5.64864,-5.7097,-18.8,13.9,-36.5,-110.0,-95.0,-64.0,-74.0,-75.0,-87.0,-110.0,-82.0,-90.0,-81.0,-86.0,-110.0,-69.0,-92.0,-88.0,-81.0,-110.0,-110.0,-58.0,-110.0,-110.0,-110.0,-110.0,-110.0,-110.0,-110.0,-110.0,-110.0,-110.0,-110.0,-110.0,-110.0,-110.0,-110.0,-85.0,-110.0,2437.0,5200.0,2417.0,2452.0,-1.0,2462.0,2412.0,2427.0,2437.0,-1.0,2437.0,5220.0,5220.0,2462.0,-1.0,-1.0,2437.0,-1.0,-1.0,-1.0,-1.0,-1.0,-1.0,-1.0,-1.0,-1.0,-1.0,-1.0,-1.0,-1.0,-1.0,-1.0,2462.0,-1.0,49.461057929696,11.110709726607,-2.0
