AppTimestamp(s),SensorTimestamp(s),acc_x,acc_y,acc_z,gyro_x,gyro_y,gyro_z,mag_x,mag_y,mag_z,Quat_1,Quat_2,Quat_3,Quat_4,q_w,q_x,q_y,q_z,quat_angle_error_deg
0.0542,65093.5471,-1.0471019715176872,8.46254492300163,-3.7319347968282126,-0.7688944051843496,-0.5340230797506396,0.09333369490844272,-0.024457081094122327,-10.845020957663673,-45.31704407533803,0.8985339810865751,0.42904782,0.03004867,-0.08747417,0.9999703107955707,-0.005704208518172899,-0.005092705895656917,0.0009507256444821859,52.77113497916664
0.058,65093.5672,-0.9934573652215254,8.051007025883301,-3.343283472768882,-0.563726660099108,-0.3169117622205737,-0.04229029552930586,0.08131312066699463,-11.259283262489703,-45.53741108218095,0.9018255984996674,0.42204267,0.02582911,-0.08901366,0.9999239945948513,-0.00936237235699751,-0.008003745723212292,0.0005395106327472072,52.324002411302565
0.0606,65093.5871,-1.0106668307955788,7.667813571166193,-3.1466683958244483,-0.3828928355740871,-0.14345627387372323,-0.13440312265922488,0.05295301550529111,-11.506645283858528,-45.76808933544004,0.9037282752209168,0.41735595,0.0244292,-0.09215438,0.9998948464909216,-0.011221878408099585,-0.009150423270531642,-0.000796969171400554,51.99853934471745
0.064,65093.6071,-1.1178931934482994,7.378980394844391,-3.2268528577352122,-0.24641539659195805,-0.04801090745445032,-0.1624677408753931,-0.0008044769530506715,-11.613074864811246,-45.975984084557595,0.9048595563998992,0.41396657,0.0272883,-0.09547885,0.9998851030926132,-0.01172654117716563,-0.009296200888984599,-0.0024185728283513835,51.715813411541426
0.0883,65093.6272,-1.2456303906151276,7.238540992825288,-3.49568878406571,-0.17007833100811104,-0.03963799268125946,-0.14015824709941915,0.016385611470546707,-11.623628712019366,-46.137179452560304,0.9057620168087048,0.41142273,0.03093288,-0.09679702,0.9998834536625008,-0.01147306689678139,-0.009318536871555403,-0.0038226559491193633,51.41560816730338
0.1178,65093.6471,-1.3247034705494771,7.234475399983609,-3.7743056866413984,-0.1634106248002838,-0.09248360181430207,-0.10295361667133829,0.16008156053584077,-11.609948835453793,-46.253924250064195,0.9059826183798818,0.41094044,0.03146946,-0.09660809,0.999877466044271,-0.011151123594831865,-0.009853663415261843,-0.004859079826406297,51.30175324886137
0.1208,65093.6671,-1.3522275186410349,7.290161117357804,-3.8902667917024165,-0.2200381326616137,-0.15921122304763521,-0.08096155483314472,0.4305431506100841,-11.651441709673236,-46.35474985932543,0.9060099760818138,0.41108778,0.02887898,-0.09653375,0.9998578691346279,-0.011390489683773172,-0.011058479220578326,-0.0056752367045839296,51.30738789776837
0.1529,65093.6871,-1.3776325657015145,7.318489981736427,-3.764628800404189,-0.309368984548075,-0.20004841782291422,-0.07947077853938712,0.7842321937505988,-11.795192954578107,-46.4744066749231,0.9066449022016312,0.40973049,0.02482155,-0.09746711,0.9998203625960392,-0.012521490747421165,-0.01267241738467547,-0.006470289438298419,51.24369822879559
0.1589,65093.7081,-1.439651971250819,7.277914019610451,-3.450037686346104,-0.38399699838491175,-0.205302165260008,-0.08101539987104592,1.1634348711361797,-12.026955500402185,-46.63088596425446,0.9083309727245876,0.40545949,0.02134999,-0.10040729,0.9997672139337797,-0.014402498207911193,-0.014324842496488499,-0.0072721988359704115,50.96832696025168
0.1791,65093.728,-1.5222058747408909,7.185841020337509,-3.0912822445374277,-0.4026363334580011,-0.1947724833525231,-0.0640705243428257,1.5192720038743948,-12.276751115100655,-46.818512168143094,0.9107425563435708,0.3993285,0.02132215,-0.10310243,0.9997074566628016,-0.016474438591773805,-0.01584839471931083,-0.007900781651179719,50.521772746797176
0.1991,65093.7481,-1.5725888308075155,7.083455411492148,-2.8489794001863804,-0.35464141132511307,-0.19511415995463713,-0.02088837956849177,1.8177468827042826,-12.460045485145054,-47.015936919585194,0.9135783022758386,0.39238843,0.02295199,-0.10430346,0.9996532580965747,-0.0180643588828621,-0.017359666819831907,-0.00810459640935635,49.9152285489509
0.2195,65093.7681,-1.5516730488212662,6.998807636823879,-2.8222392585848692,-0.26760931162621465,-0.21726576714047086,0.03948657486599033,2.040401057051068,-12.530508950597387,-47.19924612660228,0.9155194713089264,0.38779417,0.02249395,-0.10456482,0.9996115485774006,-0.018771621985922127,-0.019098285924895726,-0.007722281621359325,49.46741287931985
0.2405,65093.7881,-1.4575166433181652,6.944928409191092,-2.989482217344841,-0.18722880038430362,-0.2536999589328112,0.10026172915477692,2.186966246571203,-12.503812707572745,-47.35334390712089,0.9158098645272648,0.38712758,0.0203142,-0.10493742,0.9995777307642786,-0.018655316117867467,-0.021230596574514385,-0.006752859377177454,49.408136770066776
0.2648,65093.8081,-1.3185961380824673,6.929245006329123,-3.2244199108493388,-0.1433867081348225,-0.29029054252645603,0.1467506801055576,2.2742123324331804,-12.432254328088746,-47.476739436166255,0.915698675583203,0.38761416,0.01662744,-0.10476033,0.9995396456926802,-0.018079938468783387,-0.02377317341691485,-0.005333735952009846,49.420730707590124
0.2982,65093.8281,-1.179763151644817,6.950078329441954,-3.3979947099916123,-0.13311813286548865,-0.31727444680777556,0.1717669604595638,2.330778741607026,-12.357937497376083,-47.582055812511555,0.9161025768482304,0.38690248,0.01280161,-0.10439664,0.9994874084741536,-0.017386486714551425,-0.026629887353623108,-0.0036714412535602905,49.27911286219493
0.3098,65093.8482,-1.0828560310133597,6.996005540321412,-3.4706269961481833,-0.1333290842749275,-0.33350830636683537,0.17627889356210452,2.3896081966106353,-12.290665229542356,-47.69254285472915,0.9173699684382304,0.38407657,0.00861223,-0.10413145,0.9994182271904439,-0.016687942149801623,-0.029679149660447775,-0.0019666778454476177,48.885269907221165
0.3207,65093.8681,-1.0451473086925847,7.061608616065959,-3.483491093057141,-0.12615856322068578,-0.34482945719016594,0.16513344544587408,2.478453720416333,-12.22095396706189,-47.82981686180868,0.9187652379453508,0.38082817,0.00530454,-0.10398175,0.9993333502760368,-0.015918329412031893,-0.03285300043154187,-0.0003770642482671109,48.44598776538018
0.3403,65093.8881,-1.053203454734245,7.154863069567301,-3.4758560000523047,-0.11178399841169534,-0.35716547534174836,0.1399211011633228,2.614846268160398,-12.140022399763417,-47.998666870437226,0.9195389432572036,0.37888369,0.00273677,-0.10434458,0.9992332282781349,-0.015012662052051913,-0.03614781540374806,0.0009544236502857227,48.16824492247809
0.36,65093.9082,-1.0872836949045661,7.271239425874136,-3.438299196661292,-0.10113280482184245,-0.36935590520672146,0.0965566464904598,2.8044702818201057,-12.0445385353274,-48.181298707842046,0.9198028734030688,0.37833965,-0.00070526,-0.10402541,0.9991174272604137,-0.014016651436293994,-0.03955359435380524,0.001847484976950571,48.00611945826659
0.3802,65093.9281,-1.1518650972906617,7.371431510023366,-3.3460756160432594,-0.10200237089314118,-0.37409449857683685,0.032746218170391125,3.041820170116086,-11.930525094179522,-48.343678647642236,0.920029505740914,0.3778061,-0.00551606,-0.10381634,0.9989882126607068,-0.013056382148791228,-0.04298440620935781,0.0021030152115594,47.81960497296375
0.3992,65093.9481,-1.264891413129379,7.407986439998613,-3.204423229036355,-0.11409922475765485,-0.36616533692807207,-0.0439224467550294,3.319562441795763,-11.791685281823305,-48.45093382357854,0.9204169444289804,0.37641671,-0.00969288,-0.10511497,0.9988512814151845,-0.012254274078693696,-0.0462968030096279,0.001598878712077213,47.58070215333518
0.43,65093.9682,-1.4206324279782274,7.366504353562544,-3.043423055558384,-0.13353418108393456,-0.3476512393008547,-0.11872226534513357,3.6393039774808438,-11.62824851487916,-48.486834291018624,0.92086842411265,0.37454242,-0.01250371,-0.10753129,0.998712052880864,-0.01168857724479156,-0.04937088157341919,0.0003586713625359086,47.33704573316557
0.4443,65093.9881,-1.5836910624939036,7.267315944612353,-2.8839277345341343,-0.15614966952452308,-0.3258929199929637,-0.17833185988375325,4.0073828298265965,-11.456422118724994,-48.464999942215925,0.9210733093544108,0.3731474,-0.01475271,-0.11030564,0.9985721384296308,-0.011388380914097045,-0.05217132994855479,-0.0014633740563899306,47.17796787475283
0.4647,65094.0081,-1.7181138145391868,7.13890897470963,-2.7248438103253805,-0.1751320231327071,-0.30931723450473914,-0.2147914344636783,4.416161684965413,-11.30403512367472,-48.4228942158657,0.9212383452495168,0.37169284,-0.01668479,-0.11351635,0.9984289856712074,-0.011307399414625446,-0.05475829005620515,-0.003637713589979721,47.041743264880004
0.4811,65094.0282,-1.81289215480815,6.99884667331949,-2.5621475372836175,-0.1810779495232532,-0.3033351829001192,-0.22451707703855683,4.830348144735025,-11.193983643400601,-48.402766561248114,0.9219479772346344,0.36897737,-0.01730389,-0.11648263,0.9982784692505995,-0.011300340796871944,-0.05724974763440947,-0.005904788256203018,46.76678749325955
0.5043,65094.0481,-1.8843811361352,6.853500930800903,-2.407200181317273,-0.16980832340546267,-0.3053962678237979,-0.20586762683097642,5.1929435112189966,-11.134505610185359,-48.43150820104393,0.9229605007558208,0.36558408,-0.01818534,-0.11900205,0.998119767725227,-0.011178149457757702,-0.059733698811351765,-0.007991462766836904,46.38821603203362
0.5292,65094.0681,-1.9530174523996384,6.714266583117087,-2.2737530638757915,-0.14825242529967247,-0.3042451030642623,-0.1577508013766987,5.449591642989242,-11.119407095453832,-48.51186943453863,0.9234946513988496,0.36313033,-0.02013521,-0.12201871,0.9979599823249516,-0.010820742932679818,-0.06218070650698521,-0.009609627394392568,46.11685031992485
0.5485,65094.0882,-2.0068754292871938,6.611956624490416,-2.1529514349616465,-0.12860621603508218,-0.28635602570316615,-0.08289657324517974,5.5790659761525845,-11.126833336896066,-48.63170215207181,0.9235295842217028,0.36167794,-0.02201114,-0.12568884,0.9978145241043933,-0.010229759172510547,-0.06443190988651078,-0.010490781761728706,45.98730104909207
0.5592,65094.1081,-1.996793082230555,6.582085685036214,-2.0226693160798352,-0.1169103896492198,-0.2429721480639556,0.006577467596245865,5.60245498166786,-11.125044221093424,-48.78439625885709,0.9236504086307712,0.36033392,-0.0235275,-0.12835827,0.9977026142680474,-0.009469363291639582,-0.06625646367239064,-0.010483590185809626,45.84845008030403
0.5799,65094.1281,-1.8841573625625982,6.627600903012519,-1.8885812111914917,-0.1088242895657487,-0.174161781819386,0.09141668590549694,5.558197254439533,-11.087300270243121,-48.97925714827604,0.9242580943957932,0.3583774,-0.02582361,-0.12901843,0.9976405281038585,-0.00856924686232373,-0.06743269373036286,-0.00963205632946114,45.562363585992074
0.6009,65094.1481,-1.6860859526705423,6.70828266243681,-1.7977544132700438,-0.09538794672901266,-0.0918149292488079,0.15683489306320467,5.472120330445748,-10.998135906659858,-49.22694407259683,0.9251836939573,0.35625237,-0.0283868,-0.12772459,0.9976344490456894,-0.0074822505260456786,-0.06784803420230656,-0.008134264518190213,45.17486452033271
0.6192,65094.1681,-1.4600860625981875,6.780632724847822,-1.792876992611229,-0.07068586932537249,-0.01745818060366513,0.1997032002600784,5.3497105980274995,-10.848875535475413,-49.513275984615454,0.9259963989120514,0.3545678,-0.02902598,-0.12637182,0.9976752932746176,-0.00610917863274511,-0.06758659709227191,-0.006224067747531015,44.83610408265521
0.6438,65094.1881,-1.2569163259803238,6.83306936798381,-1.8625516191245155,-0.03444946294415171,0.029721798223317594,0.22263135998401307,5.188834085420763,-10.632647254150553,-49.790901010067245,0.9266138161980214,0.35366279,-0.02756923,-0.12469725,0.9977409914601069,-0.0043490203795433745,-0.06691123016085279,-0.004109411186846153,44.56075344603167
0.6827,65094.2081,-1.1063838896553266,6.870923907438627,-1.9540191503012188,0.008846361887652176,0.04607737568229256,0.22635881091220647,4.999158714852974,-10.345961270517748,-50.000049512424425,0.9272261721324508,0.35312483,-0.02701487,-0.12175663,0.9978077550579164,-0.0021464413605358015,-0.06611451396452694,-0.0019869018600281265,44.21983445646493
0.6859,65094.2281,-1.0306337094173477,6.894931792668565,-2.0214706017899915,0.051344404734104954,0.044018029070978244,0.21211335037761914,4.807617336691504,-9.998216052224015,-50.10395438820709,0.9274633287848532,0.35337937,-0.02795596,-0.11896747,0.9978616685800246,0.00047493103868489177,-0.06535949523601162,-3.4665421081852154e-05,43.909551525874996
0.6997,65094.2481,-1.0398490872027666,6.9085182117158235,-2.0469746780958205,0.08462962125852001,0.040321789390098776,0.1868109660000508,4.643728438145191,-9.6186930344454,-50.115850875419284,0.9273535565533676,0.35418117,-0.02908252,-0.11715497,0.9979015202048845,0.0034117867909602764,-0.06463910553061253,0.0016436909307730083,43.65631294997045
0.7198,65094.2691,-1.1188840738991417,6.925143239608438,-2.031667691606559,0.10369487502921237,0.04526648402274801,0.16159412621273656,4.524427921265092,-9.246399220608508,-50.09494998720549,0.9271129984002656,0.35517928,-0.02993488,-0.11581481,0.9979336450243141,0.006519132079545732,-0.06384817644478671,0.0030580075361359687,43.419437733936675
0.7403,65094.2891,-1.237783537058588,6.961485842640106,-1.9834030794236823,0.10959991546005354,0.0591364689203636,0.14680102600933664,4.45021506144571,-8.906394315334614,-50.10575568238072,0.9266723296769674,0.35659865,-0.03068128,-0.11478003,0.9979644314953405,0.00967063430111902,-0.06288729966102233,0.004319704126526072,43.2336930920886
0.7618,65094.31,-1.3780617319531498,7.030918744312416,-1.9087517339616222,0.10896507151004552,0.07446100964959995,0.14904437058967934,4.408995127225862,-8.597512596902273,-50.16930383058425,0.9264561974500346,0.35757014,-0.03063765,-0.11350702,0.9979945029932024,0.01281084383725603,-0.06173709912281304,0.0056022198661528355,42.99468818666769
0.7919,65094.3311,-1.5417330839586907,7.136561347245399,-1.8074444504168619,0.10960154536024294,0.08351775882080764,0.17122996317153633,4.38390483619195,-8.302827743716609,-50.2493707824929,0.9265509462333242,0.35806805,-0.02947507,-0.11145329,0.9980179926461291,0.015963299061226732,-0.06045484862241738,0.007104274467770409,42.685297646688234
0.8095,65094.3512,-1.7345494788655165,7.25991514303994,-1.6727075034204586,0.11715893576376026,0.08666914726379321,0.214457059747932,4.356671935664034,-8.00780921522786,-50.28383046278383,0.9262383936601944,0.35962951,-0.02859349,-0.10923125,0.9980269018391728,0.01920734419946612,-0.05909140757985861,0.009032534768080056,42.49573550315526
0.8268,65094.3711,-1.9541480206509896,7.3667945085406865,-1.5135438342737868,0.13803004094081026,0.09016733408685376,0.2804344791558758,4.305066469004476,-7.709449708625302,-50.232669611143514,0.9256810256834856,0.36160454,-0.02960976,-0.10714503,0.9980125481505702,0.022686278772425312,-0.057633194043671246,0.011606094682979413,42.341684649918484
0.8415,65094.3911,-2.1977882976527026,7.442951271502006,-1.3814888652991173,0.18213069215749497,0.09260418369392324,0.3711374719919288,4.209132444974827,-7.4070984497002215,-50.10842091979958,0.925441013139918,0.36266741,-0.03135797,-0.10510927,0.9979571162657869,0.02664220961921266,-0.05608046768081985,0.015058814886347286,42.06134210567006
0.8616,65094.4111,-2.4555392506493066,7.50983338135105,-1.345090141817066,0.2568102551189529,0.07893748824389768,0.4825550084132149,4.067704811003785,-7.083273664239204,-49.96450965156249,0.9254478945203712,0.36348814,-0.03069178,-0.10237471,0.9978232639173698,0.031386063462274634,-0.0545898235752207,0.019585713355796328,41.70101529037965
0.8822,65094.4311,-2.6833435415921545,7.575092493558316,-1.4228641553606995,0.3569479874401645,0.035075374542412614,0.5980565102563576,3.90261586680662,-6.700594806934287,-49.84973014445657,0.9252691437374378,0.36537349,-0.02899294,-0.09766593,0.9975584323144395,0.03716704436325913,-0.05347385905047108,0.025225608613224093,41.32454799024094
0.9063,65094.4511,-2.8070336091465484,7.579553110798722,-1.5569155087068602,0.46371805948297407,-0.032207192933671025,0.6927833556367538,3.7392370338916523,-6.2208527985807756,-49.771731667440086,0.9240971939107944,0.37004471,-0.02841583,-0.09112535,0.997117164862299,0.04403499632683233,-0.05299356870084286,0.03177987274700434,41.10921248246142
0.9301,65094.4711,-2.781776258063741,7.43019861724208,-1.6624356957333046,0.5547844271626737,-0.09248293907630716,0.7488658868157964,3.5832434481307227,-5.6270975209801986,-49.69696844825279,0.92199369692928,0.37671015,-0.02955259,-0.08452059,0.9964856449206908,0.05181414650008193,-0.05310980979470029,0.03887160651470238,41.0378446042228
0.9418,65094.4911,-2.650609885803589,7.086375244195642,-1.6976013147125966,0.6171740072790493,-0.10995107097516907,0.7673018595234944,3.4148215807659055,-4.935001198367008,-49.57729624283703,0.9195503481709136,0.38354179,-0.03449992,-0.07831097,0.9956882212510156,0.060209828341867756,-0.05341076663892788,0.046119764093857984,40.92230527588977
0.9616,65094.5111,-2.5146000009078606,6.596307019533052,-1.6815255876048938,0.6542363762593724,-0.06748967731415545,0.7642174593877135,3.1976525805102285,-4.184193651020976,-49.37976281080562,0.9167376192983212,0.39062533,-0.03941502,-0.07382713,0.9947679490222276,0.06897690355804055,-0.05328858816719688,0.05328452631676879,40.875588963754396
0.9835,65094.5332,-2.436674295250289,6.057344266053349,-1.6719172438018846,0.680119544606206,0.025624731921378416,0.7544846729885604,2.89140210707758,-3.410331971346041,-49.10108875006014,0.914896680439737,0.39562616,-0.04106422,-0.06897634,0.9937578807735035,0.07801964874878402,-0.05221649178699721,0.06026314624320804,40.550107803901014
1.0059,65094.5531,-2.401439783009391,5.5517167601583814,-1.7456206690571627,0.7013587707976936,0.1461966213775643,0.7407384512451042,2.4603145116613625,-2.6285943656406143,-48.759072274957056,0.913523798669348,0.39986479,-0.04131779,-0.06225158,0.9926730795506791,0.08730417028588161,-0.04991041315288594,0.06698574210213147,40.02011614594936
1.0234,65094.5731,-2.3552728191667742,5.113897084066562,-1.9627237650975995,0.7036282937595275,0.2719562322234196,0.7195273453788074,1.8765694365218504,-1.8497399208412837,-48.3727993380968,0.9115010013684544,0.40557665,-0.0404866,-0.05508485,0.9915292569105425,0.09664771469640279,-0.04632128125871302,0.07337091274436476,39.62334775758927
1.0608,65094.5932,-2.248180655496004,4.745562099314968,-2.313024313402036,0.661102154272837,0.3878296571554175,0.6941500624087956,1.1298251869740883,-1.1027991286880443,-47.95413323327811,0.9087797775569026,0.41273031,-0.03814009,-0.04814915,0.9903618465858771,0.10561105207414832,-0.041545332584839015,0.07939586794801085,39.43368925507126
1.069,65094.6131,-2.049835279538253,4.444569548028565,-2.704946464740884,0.5589089347712426,0.48624830925469054,0.6773022889817466,0.24484591403118938,-0.43773710267101684,-47.5132691638842,0.9059526680385926,0.41980293,-0.03434941,-0.04284135,0.9892215541316015,0.11361419370664837,-0.03573927203340831,0.08517767468280081,39.40291344669045
1.0883,65094.6331,-1.7601549438941273,4.2098293927644415,-3.022324488071845,0.4072965893713004,0.5642596068044653,0.6815089994252865,-0.7161172721810427,0.08900470495269097,-47.067328440423005,0.903718187911151,0.425383,-0.03009576,-0.03790759,0.9881485690090852,0.12018147414423366,-0.02908391324291586,0.09095573004651479,39.370130543741034
1.1052,65094.6532,-1.4106005990298778,4.03178499626809,-3.1959131120518616,0.23814985127710425,0.6194256723577959,0.7099085071843284,-1.6770039062071342,0.4384089286499524,-46.65056593493075,0.9025163952136044,0.42876384,-0.02552686,-0.03121066,0.987145858048282,0.1251417852093347,-0.021797257488206,0.09699210328029152,39.18518231751948
1.1256,65094.6751,-1.042854384345684,3.900366369126942,-3.2269397566204545,0.08806603906825347,0.6489606209902695,0.7562692419757433,-2.577789643387092,0.6078969117728263,-46.31826664858927,0.9024300397156624,0.42976391,-0.01985094,-0.02299881,0.9861724764615534,0.12866605372526183,-0.014150728240571063,0.10348260809777014,38.82553347792569
1.1461,65094.6951,-0.6817682897924701,3.8202085509554826,-3.1629250491949006,-0.02034211833711988,0.6536325861166798,0.8101986428930942,-3.3913858611038328,0.6297382683650543,-46.127690191984186,0.9030424066664676,0.42911893,-0.01331379,-0.01393193,0.9851638741045726,0.13113378727936698,-0.006434570938316704,0.11051998592960031,38.369922177442646
1.166,65094.7151,-0.3330359781366139,3.8042750111294716,-3.0620754328766195,-0.08626937968299601,0.640211347945417,0.8624091883928964,-4.123349489210218,0.5559950062923349,-46.103607454680024,0.9035665699776636,0.42834637,-0.00837335,-0.00408998,0.9840631749894371,0.13292932308586564,0.0011185678249667243,0.1181025465418221,37.96640671342482
1.186,65094.7351,0.0008279303713591007,3.8586386610501973,-2.968538191532762,-0.12389918982714901,0.6177924496266077,0.9085599339360105,-4.796118158000544,0.4393141604694719,-46.21532272643777,0.9039897683065544,0.42748889,-0.0045119,0.00594899,0.9828384721617633,0.13430304483907038,0.008384105606918194,0.1261781936740942,37.616876937029765
1.2058,65094.7551,0.3125375850719313,3.978243804116345,-2.906261942325028,-0.1498149821754672,0.591654990237555,0.9486510080374367,-5.428282292707895,0.3135576195041967,-46.38403158564373,0.9044860868447396,0.42620292,-0.00112354,0.01596018,0.9814808601824493,0.1353503643188609,0.015322484922395732,0.13468786667726887,37.27662014238894
1.2329,65094.775,0.5895417361083578,4.146263377755758,-2.8843170461565415,-0.17473874152141539,0.5590826214090697,0.98301623638327,-6.02508307329527,0.18674895644084266,-46.52022756593035,0.9051205522338855,0.42429256,0.00081554,0.02705447,0.9799963194588279,0.1360639370654207,0.021893194611589627,0.14357752925547568,36.88268836535064
1.2558,65094.7962,0.8210697831774115,4.340431599603515,-2.8935837765491565,-0.20057035242218293,0.5103759904762342,1.0101731827212603,-6.582560162255534,0.04821790504977663,-46.566913945225615,0.9055450101866912,0.42245531,0.00223959,0.03891953,0.9783992250907916,0.13641006565810965,0.02796479006164247,0.15279142922853,36.52861588503347
1.2674,65094.8161,1.0169523315578306,4.548329975345242,-2.8997785829329623,-0.22113907707888003,0.43846937481913806,1.026309407474627,-7.096095049371323,-0.11626452050517244,-46.5201458408403,0.9059846704037487,0.42013991,0.00451272,0.05151571,0.9767080863277697,0.13640570702980367,0.03331414061152623,0.16224970023688953,36.131683073538206
1.2935,65094.8361,1.2088926067574473,4.763878955603643,-2.8675156747941206,-0.2288790634516354,0.35142594404331146,1.0248407075648216,-7.567618279798918,-0.30913886381776834,-46.41965509198552,0.9065186569187073,0.41722918,0.0059695,0.06409447,0.9749465650465577,0.13615107063061085,0.03776050793479817,0.17180286758538826,35.704405581342044
1.3131,65094.8571,1.4152849146640671,4.965736677624153,-2.8091555191181947,-0.22557066543833837,0.27235864300373724,0.9994422824998236,-8.003245862934133,-0.5213489328408585,-46.32524476411558,0.9072111962776724,0.41346124,0.00440418,0.07744838,0.973150422011358,0.1357670393850442,0.041332962246723864,0.18121024636495148,35.195005863067976
1.3305,65094.8772,1.6101055458963405,5.118548542594963,-2.7952210658042964,-0.22693986784804604,0.22148156230310428,0.9505508820245452,-8.397236464941173,-0.7455646866728394,-46.29278805986549,0.9075849552484953,0.41008452,-4.053e-05,0.09011234,0.9713728691774993,0.13526360095450246,0.0442896375465562,0.1902023535308875,34.81135369592184
1.348,65094.8971,1.7458350354428611,5.205221354116526,-2.890336401162149,-0.2534048461733288,0.19626851574905552,0.8876790074505982,-8.722835741156485,-0.986346421344658,-46.3509569229808,0.9075132673587136,0.40759689,-0.00562305,0.10125624,0.9696797368432732,0.13445644837997642,0.046926387139855585,0.1985965398354252,34.6440074720946
1.3683,65094.9181,1.8116217372382857,5.255450322774146,-3.06945734677381,-0.3130705713694095,0.1718133109574031,0.8231045101052664,-8.952054267770517,-1.2616537905878342,-46.49028561973516,0.9068065274494164,0.40623957,-0.00856812,0.11224046,0.9681338683029955,0.13303635434892075,0.04933615688657922,0.20635911680827115,34.62578283085663
1.3885,65094.9381,1.8508360173628766,5.34065329298247,-3.2202924572028997,-0.39275058996040396,0.12348836544226482,0.7625628306255215,-9.091118659261044,-1.5875726109963662,-46.67375325106406,0.9062898939762496,0.4045313,-0.00967957,0.12206294,0.9667777441821085,0.13076600929249507,0.05135156820538854,0.2135510726049298,34.64288066575772
1.4121,65094.9581,1.9125593296272743,5.536876634721631,-3.246255768402419,-0.46550966913969405,0.04569012928974575,0.7007140535425307,-9.191232594490419,-1.9545808842396317,-46.86168610506773,0.906765613488654,0.40048185,-0.01313896,0.13121653,0.9656297246360236,0.12765218861297398,0.05268312023939022,0.22020136803280113,34.537028279956765
1.432,65094.9781,2.00496223773581,5.879854645777525,-3.141142997135536,-0.5077176325183292,-0.05386134960729094,0.6241941814479417,-9.311161385519156,-2.3232925471407953,-47.04080159126279,0.9080989274933258,0.39420551,-0.01790875,0.14013433,0.9647026899062884,0.12395002506911487,0.05304778279069844,0.22621017685755937,34.25294642704677
1.451,65094.9981,2.1033574676563247,6.339458741383297,-2.946754880630897,-0.5120622503582215,-0.1683626148049414,0.5201711739284407,-9.464249004533123,-2.640563392842349,-47.235063130528786,0.9091831928026468,0.38827854,-0.02263694,0.1487053,0.9640292302820878,0.12000544812894148,0.0521961509545005,0.23134800065406289,34.00349964440994
1.4708,65095.0191,2.1739816478445406,6.831978950831656,-2.673502295785315,-0.48746928493164715,-0.2924032541509466,0.38465700779582057,-9.607000836997909,-2.8604884917411786,-47.486164517186275,0.909558830775216,0.38406557,-0.02759973,0.15631579,0.9636630121577792,0.1160895189954908,0.04994452287535303,0.23533458567143276,33.92251037939164
1.4914,65095.0401,2.1726549884947532,7.267512737525974,-2.2916323851507374,-0.44749997348641984,-0.4156487391806737,0.22539586342693665,-9.678157794112408,-2.9607521094321925,-47.82455661387943,0.9096230430489352,0.38097101,-0.03559961,0.16180135,0.9636488834696784,0.11236092445554556,0.04625152529872696,0.23794253182371308,34.03462419404722
1.5134,65095.0601,2.049327622274918,7.606990282858671,-1.777863433192389,-0.3987444879534407,-0.5251790158431391,0.057912848391183505,-9.641639764940486,-2.941253801866832,-48.25285679005311,0.9099696874466332,0.3779943,-0.04484424,0.16451283,0.9639894454882367,0.10893971363009422,0.041241790565443186,0.23907237919180674,34.17358023855261
1.5315,65095.0802,1.7821544192450478,7.885923470586978,-1.144776568793381,-0.3389849402159083,-0.6131707929453483,-0.10433505602513496,-9.493866337629433,-2.8091793996465704,-48.74794520799409,0.9109695470481648,0.37461373,-0.05354975,0.16410808,0.9646424289683095,0.10598156209540566,0.03513216846062953,0.23874384488231676,34.21266917752988
1.5518,65095.1001,1.3979139815761878,8.170270008389844,-0.4325316915575965,-0.2624733756885509,-0.6803089838086345,-0.2598619990662189,-9.24238712175432,-2.5692414279272686,-49.27391757904647,0.9121760711238004,0.37127912,-0.06254452,0.16178632,0.9655526218993941,0.10369163449230563,0.028118738431890816,0.23699264931326233,34.18323180612192
1.5781,65095.1201,0.9486307669516257,8.476017293726494,0.3152905071543155,-0.16419399131290374,-0.7319817720387765,-0.41827583521916456,-8.885043190698944,-2.221021941616903,-49.7917680345318,0.9130296466593728,0.36881903,-0.0702684,0.1594106,0.9666817151411913,0.10230549792230294,0.020312551333602265,0.23376793399624815,34.049240034615075
1.5934,65095.1411,0.4809637183920378,8.736702078998169,1.063443439372111,-0.04110114608727905,-0.7697942458358995,-0.5868433906884679,-8.411013482027029,-1.7600342120824646,-50.264318036814046,0.9137385139363132,0.36706808,-0.07804433,0.15573065,0.9680000099770518,0.10207830577024776,0.011783397348393362,0.22894792360367366,33.843500785595666
1.612,65095.1612,0.03538745929574939,8.851797860621035,1.7759600851380166,0.10828995710042871,-0.7873545625251487,-0.7585984026653979,-7.8173197079003565,-1.1835732905806715,-50.65671807440792,0.9142956441471648,0.36655518,-0.08606702,0.14930922,0.9694499462968511,0.10328812027368979,0.002661364619974344,0.2224663636906039,33.642639667540635
1.6319,65095.1811,-0.34140938600746396,8.760610338057973,2.4053367628032265,0.2857556406355855,-0.7753149330143819,-0.9148749664152149,-7.118096142522175,-0.4918703968797997,-50.93034043338163,0.9147545539333338,0.36744443,-0.0936058,0.13945125,0.970921420979686,0.10624702209303075,-0.0068188443996347785,0.21442170585135234,33.435141330578915
1.6529,65095.2011,-0.6032007663020128,8.472094814919709,2.884927515314089,0.49428472610832164,-0.7302667708828927,-1.038804094432115,-6.341653369470933,0.3203282399208929,-51.04156338022606,0.9151031211001772,0.36899748,-0.10106979,0.12732649,0.9722610901311528,0.11130280063994412,-0.016377033997618487,0.20506548208835146,33.10660373268962
1.6766,65095.2221,-0.7264974699283241,8.036127157616226,3.126413214841335,0.7338055726482959,-0.6612527148691496,-1.126432102661309,-5.518985315914243,1.2684971438229473,-50.95257356977372,0.915042931193714,0.37141445,-0.10842006,0.1139861,0.9733036655077792,0.11878425194780567,-0.025810845838560054,0.19468969267893782,32.63351682309586
1.6969,65095.2421,-0.7243187270381429,7.497141086050842,3.0508978606737567,0.993516935865884,-0.5894318003114312,-1.1868550906203736,-4.666666606156344,2.3707030550729105,-50.64462343285762,0.9138065479675308,0.37605634,-0.11499046,0.10156976,0.9739002517840945,0.12887135440963418,-0.03510116711267709,0.18351670674582124,32.06907698403246
1.7155,65095.2621,-0.6406437968292146,6.878576243383405,2.6511025286581797,1.250380369920494,-0.5387855381040294,-1.233927878898349,-3.7763704923642374,3.6328366250286965,-50.12592205642326,0.9108241811529106,0.38451529,-0.12070151,0.08932216,0.9739317387581506,0.1414709234907987,-0.04442129147087266,0.17166739617715981,31.618622842101686
1.7355,65095.2821,-0.5263509521008235,6.202534725751509,2.0229363140849297,1.4782134132737097,-0.5230633843683027,-1.2786745272437845,-2.820385709957123,5.039421766999252,-49.425145762153676,0.906400491168445,0.39585564,-0.12631248,0.07603696,0.9733126758935532,0.15620792255503727,-0.054036085697192,0.15919051893406286,31.279116248436154
1.7564,65095.3021,-0.4100953627623892,5.507669020403264,1.3226367551528617,1.6584810737384241,-0.5375790571448781,-1.3282734990623737,-1.770200332114268,6.554101754423177,-48.565558210763975,0.9012559879311144,0.40812263,-0.13186985,0.06151346,0.9719964295265021,0.17253391307145266,-0.06414554910032395,0.14608332676456293,30.89386723097257
1.7756,65095.3222,-0.29027109342575297,4.840086244893739,0.6810929028687815,1.7824986295586935,-0.5598426156201648,-1.3890191134395877,-0.6208644357994246,8.117991867829629,-47.54457605036226,0.8956947448406296,0.42015705,-0.13805363,0.046262,0.9699876014823534,0.18984754669560883,-0.07474266797229578,0.13227053930695595,30.40013801163105
1.7992,65095.3421,-0.1586768014717782,4.2289876757877956,0.14142195140177938,1.8469359464732908,-0.5585529014606088,-1.4671882076670026,0.592134625639074,9.648694061674563,-46.34238973342515,0.8895858780227495,0.43196893,-0.14532189,0.03035387,0.9673572337787345,0.20755062257111692,-0.08554578007180738,0.11757823284180786,29.876865294406137
1.8258,65095.3621,-0.03608074204909971,3.6703945152677675,-0.3421151289188811,1.8513872959246804,-0.5088677903784428,-1.5646382249796882,1.800160020851059,11.051548214544352,-44.95132147393633,0.8830984517264284,0.443097,-0.15360551,0.01440557,0.9642421115621131,0.22506312313983243,-0.09605294871603832,0.10177215697692775,29.310406215751875
1.8453,65095.382,0.017592121872350833,3.133785727721763,-0.8474867321178263,1.8007157529575912,-0.40714101500206545,-1.6718159143077522,2.9299838056699534,12.242617029418303,-43.406546900673156,0.8760435657969418,0.45417809,-0.16207567,-0.00118768,0.9608102882838274,0.2418585008917581,-0.10571226992512327,0.08469339680056501,28.79624892064965
1.8617,65095.4021,-0.05617790387644482,2.59432527998206,-1.4135594531592273,1.7083751454203908,-0.27321101079987087,-1.767250381366201,3.9307670681229316,13.180355701694577,-41.79257039823251,0.8691546875809809,0.46494693,-0.16744313,-0.01890184,0.9572048777060048,0.25754062789668436,-0.11411041530625926,0.0664112957037189,28.349416472537996
1.873,65095.4221,-0.2558317152685541,2.0672459154914367,-2.016648693704235,1.5964538744099763,-0.13749891089087074,-1.8286105815569318,4.784598081006574,13.885689401136428,-40.21807536868301,0.8630300593746744,0.47401384,-0.1702186,-0.03893102,0.9535023335583168,0.27192484059150474,-0.12106808895595748,0.04725144235556758,27.87178258611996
1.9201,65095.4422,-0.5127659605431975,1.6112194262736645,-2.611962166501343,1.4887731096359262,-0.025442172063157353,-1.8472373740018762,5.50672841947074,14.424778290846316,-38.77491526924056,0.8582274443578947,0.48020804,-0.17107244,-0.05983404,0.9497073685604179,0.28504901275145167,-0.12664049794465948,0.027661502341666058,27.201776503266764
1.9262,65095.4519,-0.744565320116877,1.2998833160179504,-3.1856727163860055,1.398428353853368,0.050548311049483985,-1.8336168326414257,6.14816211826111,14.860445440088295,-37.491356478559325,0.8569727756767783,0.48018485,-0.1692584,-0.07982334,0.9457762729914682,0.2970831599186994,-0.13108950227341953,0.00802371066248821,25.827868919254723
1.9291,65095.4619,-0.9062348628514846,1.1856813449423078,-3.7639020014381352,1.3193620071028105,0.09196209221923834,-1.8110391779908834,6.79238288116917,15.211391487672397,-36.32169794744153,0.8569727756767783,0.48018485,-0.1692584,-0.07982334,0.9416564748611169,0.30818155376467626,-0.13481689826499424,-0.011472454555626566,23.697668042587065
1.9361,65095.4821,-1.0035931090250239,1.2741750334325137,-4.3796071926953655,1.2290929863297362,0.11116480695924547,-1.80538420529789,7.528313259826856,15.456066198875103,-35.205383809788735,0.8527909070542268,0.48423132,-0.16837257,-0.09959104,0.9373486882275183,0.3183074891759866,-0.1382189025036331,-0.03087578344465304,23.04627380974944
1.9532,65095.5022,-1.0892421080512598,1.5167229649552034,-5.029750099041972,1.0999217968622403,0.12696625416278273,-1.8359054858640116,8.413128052721534,15.564926163713322,-34.13129152147537,0.8483065706077288,0.48832488,-0.16706529,-0.11833834,0.9329644825981741,0.32710897229751784,-0.14153723510261254,-0.050440118281887505,22.49704585013051
1.9721,65095.5221,-1.2516577605675803,1.8264725403864581,-5.653415581145074,0.9129199838773907,0.15828306860593533,-1.9062714316272436,9.454114383099824,15.515483251893482,-33.14442416889806,0.8432035273694122,0.49247211,-0.16638187,-0.13709889,0.9287224244264566,0.33397599357084656,-0.14479009491187408,-0.07050193260628422,22.176532836080494
1.9924,65095.5421,-1.5781361582392948,2.113166300575109,-6.141364604065468,0.6706212501173447,0.215319953945162,-2.0005051310818485,10.61895693913679,15.28801738581609,-32.31550862155783,0.8372439908182695,0.49672079,-0.16615842,-0.15710613,0.9248675441725578,0.33828089805878875,-0.14782134282098341,-0.09129573019239512,22.210018643487622
2.013,65095.5622,-2.1002134827459713,2.3206935901065573,-6.375096889011441,0.4016881175901894,0.2951815884738265,-2.0890574537477087,11.8606098905036,14.86885132551449,-31.70867916015074,0.8315324466236481,0.49933201,-0.16566247,-0.17826183,0.9215587580366578,0.33967384666015693,-0.15042088249913643,-0.11280377426844294,22.406736292295278
2.032,65095.5821,-2.77193581963304,2.453165010822428,-6.287340040130583,0.15014545170083582,0.38920229131857054,-2.140983924440948,13.132962219356875,14.264315280219199,-31.361613624241173,0.8280727352703298,0.49733904,-0.16396062,-0.20016578,0.918801134858483,0.33827612597889145,-0.15238175003175441,-0.13473507127966652,22.358136272899095
2.0674,65095.6021,-3.509743287432028,2.571380407873919,-5.9083413406715755,-0.0469933533706588,0.4937936886601708,-2.134731687204574,14.383612852533247,13.511587727244152,-31.281841717548716,0.8258912260225912,0.49188745,-0.16183819,-0.22306685,0.9164812120448311,0.3346380140670493,-0.15344617959284376,-0.15663287483302843,22.200939687137488
2.0793,65095.6221,-4.260262167192675,2.7501548773790754,-5.354741341011156,-0.17780980602594568,0.6094442396670178,-2.062449835863547,15.539865413170798,12.676346868868539,-31.45547953718647,0.8239659576744339,0.48513025,-0.1563538,-0.24755248,0.9144768170454469,0.32947318654164476,-0.15328590645432225,-0.17799719469418526,22.156511782014867
2.0993,65095.6431,-5.028275621970577,3.033308506843039,-4.764318997922135,-0.25759484221216755,0.7315084299768705,-1.924988047075,16.511900803580495,11.83619453784062,-31.85529381049959,0.8217682160359084,0.47848132,-0.14539935,-0.27315134,0.9127550722982042,0.3233678237741107,-0.15160471877839174,-0.19831146660145646,22.367123563399577
2.1133,65095.6631,-5.827557133781682,3.433724544175597,-4.227052177860212,-0.3170973855744413,0.8519498113116367,-1.7213828765318722,17.212584591827788,11.061188531134487,-32.445454545588596,0.8197923404732558,0.47214204,-0.1308849,-0.2964651,0.9114229979770296,0.316634066309941,-0.14821267343611597,-0.21698845647525758,22.723940825606757
2.134,65095.6831,-6.602329900933997,3.9601841393416253,-3.755882739106856,-0.3871783610726116,0.9727623284777593,-1.4460203672638676,17.578491633641875,10.397370319518256,-33.19639956383182,0.8179760447279665,0.46458858,-0.11431235,-0.31938273,0.910736613845095,0.30930290327094145,-0.14294902020829398,-0.23335833358083843,23.2253233554415
2.1553,65095.7031,-7.214510401838343,4.610490388737962,-3.296948189992467,-0.48901298929211556,1.1075130073664305,-1.1003451882630186,17.57751082126756,9.852687169093796,-34.09517923260255,0.8162355185750658,0.45629641,-0.09836566,-0.34040764,0.9110474566152099,0.30117296140959227,-0.13559735543433055,-0.24678074541979364,23.86181480838283
2.1732,65095.7231,-7.512767863024344,5.338478439478312,-2.759374278489075,-0.6310178608010777,1.2621744188174722,-0.7044939551616336,17.203118825550288,9.392864051633374,-35.133834129136936,0.8151698353563468,0.44937691,-0.0809534,-0.35637772,0.9126744016605488,0.2918994908433865,-0.1259877720915976,-0.25680187904749896,24.691511322869474
2.1946,65095.7431,-7.406714649050837,6.073216095646185,-2.0553106794501805,-0.8086804511658542,1.417728062425002,-0.29329033888048706,16.473200934219957,8.95239828260866,-36.2933144340799,0.8160362771825534,0.44186434,-0.06051276,-0.36766684,0.915761737657071,0.28114894484518727,-0.11423134049836894,-0.26322407090478167,25.565657118030558
2.2163,65095.7631,-6.902643754289858,6.777953259817076,-1.1295001536167324,-1.0063458213146874,1.5313980926933148,0.09697931696173617,15.443277241911268,8.464883524382712,-37.53453854944975,0.8193587437165641,0.43259501,-0.03879684,-0.37417591,0.9202088700921003,0.26877796934549375,-0.10090378201847762,-0.2660685351045859,26.32689881246585
2.2357,65095.7832,-6.102767995222166,7.435166332629746,0.045754922159737095,-1.19798649477616,1.5498184136349036,0.4390798030591927,14.224387926758766,7.901192715126227,-38.80360184715595,0.8241309877224815,0.42339638,-0.01675855,-0.3758494,0.9256951333858013,0.2549871203927081,-0.08707840032066577,-0.2654947092830134,27.132177010577124
2.2537,65095.8031,-5.1505501110271705,7.973670876025041,1.470779617406588,-1.3425851318992066,1.4321802532359134,0.7219398791538956,12.979148968547758,7.28931245744439,-40.05635139727038,0.8302334659076033,0.41443217,0.00720836,-0.3727015,0.931765939911504,0.24045412132870234,-0.0741132343574542,-0.2617274866152775,28.022985290824405
2.2758,65095.8231,-4.146525995148544,8.278851657316888,3.057385602474962,-1.3871695130454786,1.1837964515552444,0.9541428089323212,11.870338616704018,6.713004844039081,-41.275492222484225,0.8388781270726411,0.40260383,0.02928697,-0.36515191,0.937948002554338,0.2263533353642464,-0.06314422027601871,-0.255010822357684,28.503603118557336
2.2973,65095.8441,-3.111749975888794,8.282569261051028,4.571031188680401,-1.2945542023800063,0.8709808499491352,1.1568499201651554,10.984427381458577,6.284807203951538,-42.45808256844261,0.8492580405832966,0.38804287,0.04093198,-0.35567975,0.9438647911993664,0.21407067676146088,-0.054553669130044745,-0.24559498868974555,28.246284773536022
2.3233,65095.8642,-2.0188984393116187,8.009791625272209,5.692249611628606,-1.0771859936551267,0.5882754627135189,1.3444352875279155,10.292558643198062,6.0882921864148996,-43.58672543526421,0.8592564286706377,0.3745189,0.04313343,-0.34576508,0.9492971737238924,0.2046661506051345,-0.047868269208787825,-0.23378466921349167,27.611232815723508
2.3416,65095.8841,-0.8666100092802328,7.564154198305755,6.160910313044077,-0.8013765154041421,0.4041730959441611,1.5077854563379174,9.681475633849841,6.126422429055921,-44.61245778280159,0.8672012119852137,0.36672649,0.04417092,-0.3339501,0.9541649616981225,0.19841656693455986,-0.04217171860328234,-0.22004917174024805,27.258757808043992
2.364,65095.9041,0.2309579283235429,7.084898147905412,5.879825136132997,-0.5609573406028422,0.3355655332147378,1.6198117116971567,9.027834497225424,6.311035869434453,-45.475014404125524,0.8747196103450403,0.36255234,0.04617078,-0.31826037,0.9584901028372914,0.1946639715991782,-0.03662673551019919,-0.20508813512745908,26.90342926485183
2.3803,65095.9241,1.030891528212059,6.657905909912047,4.955805548102379,-0.4423445865149082,0.35860203090112747,1.6618843990851757,8.260625293837816,6.493738242227852,-46.149887266188514,0.881068039111672,0.36255577,0.04953442,-0.29969779,0.9623962034364504,0.19198777014844348,-0.030738047270095752,-0.18970876673089274,26.750687702437993
2.396,65095.9451,1.3077033653542056,6.2318315973401734,3.6838520859261084,-0.4882968443109025,0.4304427615069498,1.6479794579641092,7.378963098812758,6.524789867679042,-46.67471121299739,0.8857209103264568,0.36574674,0.05351849,-0.28082657,0.9661004978045953,0.18868405053023946,-0.024354868846571294,-0.1745136028528479,26.98001966542969
2.4193,65095.9651,1.049038381816767,5.647534189486496,2.4219777424331563,-0.6691664037676717,0.5071977940506642,1.6240392638199443,6.430445291585416,6.315789131320807,-47.133151511931246,0.8896472341523131,0.3676728,0.05793313,-0.26455295,0.969827334732013,0.18344655365149504,-0.017537996894367133,-0.15960802431244597,27.442479449373238
2.439,65095.9851,0.4816834276840548,4.7702978679823715,1.3968338514009075,-0.8883930957936579,0.5558633657847645,1.641092425142992,5.471461295313103,5.87465680654514,-47.61326675912399,0.8954126420967827,0.36324722,0.05987699,-0.25040448,0.9736702882257807,0.17594804892805227,-0.010401383910465302,-0.1445692398730941,27.50711658091758
2.4598,65096.0051,-0.08728568108617539,3.6107344349858375,0.6168881329028824,-1.0296459984109207,0.5605157947578949,1.7276025738544176,4.533032106667031,5.291607872127521,-48.16737604096945,0.9035431123456676,0.35363168,0.06331746,-0.23354952,0.9775236552552052,0.16697315921055678,-0.0030162535807507604,-0.12867932908624125,27.110783365972917
2.4779,65096.025,-0.4328083472554357,2.3406150645574733,-0.035281638084513116,-1.0126979218085796,0.5267192740349376,1.8831795710498507,3.6032010105319725,4.689832559655361,-48.79805569804444,0.9121968229984476,0.3411946,0.06827536,-0.21638317,0.9811411609477981,0.15801767213075252,0.004655354259589299,-0.11122394195991551,26.54286120932034
2.498,65096.0451,-0.4865801457560809,1.1957779902374632,-0.6551997421384343,-0.82233878521394,0.4827082596477379,2.084332023645086,2.6212879946494727,4.171209941600329,-49.467055739133905,0.9201796227834648,0.3297483,0.07297291,-0.19801635,0.9842503898521997,0.15056188255295042,0.012850682048910489,-0.09174502476310317,25.96463419287302
2.52,65096.0661,-0.33434935089091067,0.35843686612218173,-1.2473824105953377,-0.5029276553384193,0.4691013755586594,2.2881049524073527,1.494360450286524,3.748770058404091,-50.109361652553524,0.9273493695368256,0.32151279,0.07488111,-0.17619731,0.9866683371788919,0.14515315200700493,0.021958259461498954,-0.07024236408673326,25.326356117189952
2.5494,65096.0871,-0.13521704245414012,-0.11571351755457557,-1.7742953627012956,-0.13662752383313292,0.5190686257711288,2.4402757127849606,0.2177646664681121,3.3672553442694575,-50.64536876558909,0.9335579239108396,0.31607169,0.07505637,-0.1514425,0.9883046084065671,0.14153439363569287,0.03160657478369841,-0.04714913414858589,24.685008718015595
2.565,65096.1071,0.03559323228495474,-0.3085744778801425,-2.250809421590859,0.18510131161503648,0.6490586353726431,2.501515266275072,-1.2332704761652398,3.1017786424567184,-50.99636485646683,0.9384082486982802,0.31251335,0.08197475,-0.12249696,0.9889281253736251,0.14038894267336544,0.04201000907867662,-0.023393733290590617,23.970468042307786
2.5794,65096.1281,0.22102068820305604,-0.29658359456692374,-2.779934116513083,0.3685842035653296,0.8819656818140651,2.4672808273651894,-2.9143382763447145,2.8989355049384216,-51.109091504836314,0.9416460685404336,0.31150272,0.08650268,-0.09373379,0.9885525684221046,0.14089508129681705,0.05396651322855531,-0.00010479683069687201,23.280409114587776
2.6032,65096.1481,0.4594897022876508,-0.07944050398609412,-3.5028186644010675,0.3203501211504983,1.2155051725017412,2.3671295252118276,-4.796230426666084,2.6565959100654215,-50.963038861019115,0.943829638513932,0.31129694,0.08450478,-0.07168522,0.9873378033582346,0.1417290441901123,0.06780299528713359,0.02190191596153351,22.865442848725024
2.6227,65096.168,0.6941468174094944,0.36477302665334177,-4.466239520826862,-0.01331756566159012,1.5767930797142513,2.238202531485529,-6.928851582817038,2.2220487576845773,-50.57855616510116,0.944768319870007,0.31102511,0.09081686,-0.04927982,0.9854575305794779,0.14112791324713603,0.0848081041227151,0.04199944049409091,22.6344764530059
2.641,65096.1881,0.7853203907847826,0.9536981272562541,-5.525710621462749,-0.6265481638946135,1.846085170145906,2.107257532395284,-9.224550254584539,1.2480282498398285,-50.04581773776003,0.9454996281979574,0.30667451,0.10651761,-0.02520311,0.9834019144783099,0.13535526624683433,0.10496410897499286,0.05985116813169918,22.380469896414894
2.6597,65096.2081,0.6691432511022136,1.4581678581832982,-6.42378830691141,-1.453929053824752,1.9098140187995654,2.0066099576063934,-11.45019194563419,-0.46974496411690225,-49.511500325427335,0.9463023395039438,0.29844579,0.12425032,-0.00196231,0.9815594986384276,0.1217753409126048,0.12643260488266517,0.07567372992578969,22.517084129014886
2.6795,65096.2281,0.4504261100232018,1.681331205525137,-6.919104688242288,-2.3788795590852763,1.710452609554787,1.9818051981899565,-13.378702446555991,-3.001905780742641,-49.12913990488022,0.9469565903389632,0.28564459,0.14612757,0.01808639,0.9800567466101,0.09900929723292927,0.14678258173803435,0.09022641621933548,23.28063306832942
2.702,65096.2481,0.35124784926410024,1.6194550278179713,-6.826372561243888,-3.247356612614622,1.271467787280802,2.076328475167831,-14.82036125182881,-6.311548802368379,-49.006056016775474,0.948965520912182,0.26295722,0.1704638,0.03549695,0.9786540567001144,0.06710839290417046,0.1635787727789757,0.10476013555906165,24.103992099603385
2.7222,65096.2681,0.5836225077698757,1.4909318260849709,-6.047249080135471,-3.9007630984722566,0.7153264918688667,2.296969930455746,-15.627622395999644,-10.270389787257196,-49.17475483698264,0.9528831383595924,0.22859873,0.19254261,0.05180433,0.9767536684641069,0.0275793550005364,0.1750277384174352,0.12065214918989871,24.631322641310355
2.7416,65096.2891,1.2096214681927095,1.6272825629354526,-4.655658600144615,-4.225131190503081,0.24118571146783951,2.5832989264108974,-15.816042589739222,-14.659208078005282,-49.56778612845823,0.959006524933771,0.18404046,0.20453155,0.06784128,0.973442052785558,-0.016795030148999635,0.1813913804955396,0.1386566403489414,24.64962959336511
2.7628,65096.3092,2.101371057093221,2.257209875637648,-2.928183496706295,-4.179283491901018,0.01978004658822874,2.798698079663701,-15.642767322611807,-19.0854257914904,-50.078868740663104,0.9664821233860852,0.13403761,0.20093149,0.08702161,0.9679263930200204,-0.06156733444339349,0.1849879426220661,0.1584532174152471,23.976634404381617
2.7837,65096.3291,3.0285426711735064,3.3504365843395036,-1.2199949361643232,-3.7701655079465506,0.0723788352254977,2.7675336469147958,-15.478725208440261,-23.081645948832453,-50.67361417500675,0.9714536178515965,0.08940782,0.18881464,0.11239725,0.9604079274431034,-0.10200274967216623,0.1881246452003583,0.1783848923872184,23.275490730819673
2.8034,65096.3491,3.7779397090734688,4.636244728359085,0.20744189688067705,-2.9976124442952266,0.2515651874137381,2.3749790868027825,-15.67306534654631,-26.163174450359527,-51.4364838140207,0.9716284122124218,0.0486831,0.18377134,0.14069925,0.952356839630325,-0.13363777769424448,0.19179801602801724,0.1958849545779349,21.992958073834927
2.8465,65096.3692,4.222477375273515,5.7291916698380065,1.2344224908078458,-1.8536408855801003,0.3471351739279513,1.6339439815548398,-16.37464705374207,-27.84712029264749,-52.550274693154314,0.9686692916975616,0.0133239,0.18550652,0.16458921,0.9461669150359804,-0.15251753390504327,0.19506095496033202,0.208465331872672,19.881411739503605
2.8565,65096.3891,4.337554015103175,6.275204663159534,1.8218255810444268,-0.39615181359137974,0.20863275904216524,0.6717919744641673,-17.415962753858935,-27.711601397097613,-54.179497391990445,0.96500203632814,-0.01124166,0.18964471,0.18077494,0.9441826962323083,-0.15588622648850944,0.19546381837101062,0.21450504943820395,17.215258304111423
2.8837,65096.4091,4.1629228450512805,6.10574220185577,1.9483429409121178,1.1768348850992785,-0.19659023116861835,-0.3228532722879658,-18.334956565551906,-25.55366613369732,-56.291926224652094,0.9627778581709788,-0.01645977,0.19274186,0.18878148,0.9474612953813663,-0.14326558138648762,0.1902248827880631,0.21355692663204084,14.922628722062603
2.8954,65096.4292,3.752216576545741,5.342827287118234,1.6028188040939635,2.5377572181115955,-0.7836066024398753,-1.1485795692015137,-18.56957556413738,-21.624186772328976,-58.54024428891381,0.965393442356224,0.00301138,0.18285134,0.18593499,0.9550338199904987,-0.11735580090602414,0.17758571064181483,0.20640090611211664,14.063075604824022
2.9065,65096.4491,3.1835784598379715,4.342876616872543,0.8556759560102996,3.3446654440480175,-1.3884933166218758,-1.6341212907224518,-17.762387854379174,-16.75531691011266,-60.376675941581006,0.9710903368369206,0.04194227,0.16054937,0.17160508,0.9643613533205078,-0.0840010578462425,0.15781163631388231,0.19505509464375956,14.713769852480773
2.9249,65096.4691,2.613773233996055,3.4877541093064894,-0.0222113835936466,3.3975650100606165,-1.817358263881907,-1.6950149522254452,-16.01233263554911,-12.149002746285948,-61.37990368618724,0.9758431438015568,0.09318615,0.12996067,0.14885135,0.9727744126074628,-0.05074724084958607,0.13352765371974323,0.18249664494028492,16.962239402038758
2.9477,65096.4892,2.2443250176294525,3.0034419298558865,-0.6032433302058782,2.743318141744435,-1.9001675631657229,-1.3859332370188029,-13.873397270853555,-8.852841329483585,-61.499751768908396,0.9782505771066826,0.13761422,0.10305144,0.11605402,0.9787691231328178,-0.024343382555755654,0.10921017937704357,0.17173101073479102,19.661904494002428
2.9623,65096.5091,2.1581440141528354,2.960947465798941,-0.6495235181384982,1.674746387838764,-1.6109299708411977,-0.8879922567875707,-11.994226705335027,-7.283486088169049,-61.02124141847354,0.9826111179456384,0.15222161,0.04451578,0.09655215,0.9822796275321757,-0.008413960700456564,0.0892928018234581,0.16456832667040755,20.665636665217132
2.9791,65096.5291,2.2424422449081423,3.33860419723148,-0.3190780542109626,0.6113771180980392,-1.1819975376375387,-0.4227839879559377,-10.63311625102293,-7.135567850268619,-60.35727164872539,0.9841779931910616,0.14911903,0.019022,0.09378356,0.9840758565725777,-0.0025919636693560763,0.07528299879485938,0.16099832399046032,20.103625525639863
3.0,65096.5491,2.3184902312274973,3.963858102371356,0.11346173970514029,-0.09755657578480598,-0.9733562331494762,-0.14823756513857772,-9.516560191315257,-7.682190627614718,-59.87248124364344,0.9851443106433024,0.1343134,0.03781938,0.10010141,0.9850663251507065,-0.003538420730199146,0.0645240975293319,0.15958839391022114,17.49170996741024
3.0195,65096.569,2.2813139836292606,4.512263275259752,0.5159282532084464,-0.33297443817136657,-1.1643405199651617,-0.09739156262247456,-8.151333832678553,-8.207500881056978,-59.783501985444985,0.9857708502193688,0.11901286,0.05012123,0.1076087,0.9859437311536404,-0.007072290338012194,0.052327889783383305,0.15851414340376968,15.595528306622494
3.0391,65096.5891,2.0737359784096077,4.684871510565556,0.8420998597475058,-0.20634913551624184,-1.6456041616662425,-0.19304031295872065,-6.207482484491226,-8.298167206343413,-60.08665168945489,0.9869671356585158,0.11616509,0.03089988,0.10698945,0.9869968166247137,-0.0100249778363378,0.03523735968888319,0.15650914437891036,15.553758098769746
3.0592,65096.6091,1.6329186967286424,4.388661634123273,1.0753596016349962,0.07967993692971975,-2.17962093115852,-0.31614082209665567,-3.6676720426081424,-7.884940555981736,-60.57175867001235,0.9878871306225332,0.11887451,0.00096097,0.09973437,0.9880425000566362,-0.010900768094484935,0.012486453339667402,0.15328822466118744,16.155132679195823
3.0846,65096.6291,0.982780226563567,3.794217149437308,1.2623134044109796,0.35367231237102054,-2.5618110025357277,-0.37928496991420907,-0.7895913859891526,-7.1208466098742615,-60.960734423933026,0.9887940105459092,0.11830945,-0.02370521,0.0879053,0.988633402726175,-0.009568189825167281,-0.014345730651777092,0.14935409190779186,16.306834100279303
3.1002,65096.6491,0.31008112342581085,3.234577436702469,1.51151625698235,0.514329618941649,-2.6743306223489416,-0.3651708470268991,2.013231636146026,-6.233546272372727,-61.07133804542719,0.9881804897932334,0.11933341,-0.05879613,0.07617002,0.9884423272763274,-0.006698290328546329,-0.04230816326050993,0.1454197987784125,16.601199045453196
3.1212,65096.6691,-0.177107847539981,2.976256015343544,1.9171359559827645,0.5508141629926424,-2.5194231717534357,-0.3115977260773012,4.376500856160456,-5.396126462576669,-60.89016299680322,0.9849998714858847,0.12416569,-0.09893588,0.06760049,0.987503375875642,-0.0031215628416100065,-0.06849963316311894,0.1418983394411457,17.264102660845076
3.142,65096.6891,-0.4455424511677565,3.0395083588123764,2.477437266955437,0.5537594747289543,-2.2256287969829573,-0.26538481887547255,6.187006619252172,-4.620712664317715,-60.51556352720553,0.9826814822345558,0.12591177,-0.1210005,0.06198556,0.9860876328660076,0.0009771167911861776,-0.09154880891793309,0.13874091371040498,17.158499410287014
3.162,65096.7091,-0.6564414949957659,3.213879283764189,3.095415956779211,0.6670435363722976,-1.9672128004190021,-0.24984533106876403,7.602113682814206,-3.7254501866052916,-60.04634725526159,0.9816605526405898,0.1237089,-0.13293453,0.05802653,0.9843968050079924,0.006579414246881614,-0.11200644817109574,0.13555145578827263,16.29011317646916
3.2105,65096.7291,-1.034937520962242,3.219535262989265,3.6119654035596027,0.9991793929118313,-1.8644557272694526,-0.259618298883244,8.911860130099399,-2.412433892625253,-59.50843101009277,0.9802656856979446,0.12015468,-0.14683765,0.05550444,0.9823712863764982,0.015576501697119298,-0.13162902847707408,0.13182498685774824,14.95026273021605
3.2155,65096.7491,-1.6937523918110815,2.9083583335957996,3.838412241021311,1.5629514819559842,-1.9535180890164647,-0.2702221219123543,10.387076298342299,-0.4219080782430087,-58.82620226809653,0.9777131817003656,0.12199929,-0.16308279,0.05096186,0.9796369309115921,0.029919814772521064,-0.15242419190003,0.12721302606933468,13.764117956447409
3.2208,65096.7691,-2.5067248264075355,2.404258865897007,3.654999179992728,2.2737245012057397,-2.1954107977409416,-0.2544628984351025,12.181933161322583,2.328141656834603,-57.827778055778296,0.9738836438358328,0.13320698,-0.17839298,0.0445252,0.975535662923068,0.05075648318380413,-0.17591616343350397,0.1216858793077455,12.951539015098701
3.2432,65096.7891,-3.1586333057231486,2.035256154549333,3.1379734648500377,2.9814088832814227,-2.474758657179862,-0.20223282666126213,14.266840098589116,5.688288282525548,-56.3047582944415,0.9692139031585272,0.14913191,-0.19287741,0.03438587,0.9693267941774253,0.07800430197934745,-0.2024569881871042,0.11546455255461165,12.41410298231658
3.2608,65096.8092,-3.3883333694324698,2.0517566090632413,2.5225310611644356,3.5025007527693965,-2.622585329887899,-0.13695956695980638,16.389967838921947,9.277285550567163,-54.13817834358608,0.9607627853839168,0.16774957,-0.21993683,0.02056071,0.9606661416279331,0.11008168327120957,-0.23059335359561237,0.10876255153041442,12.143042568840857
3.2822,65096.8311,-3.1891228849865634,2.4073514066608572,1.9691236846226867,3.657173802261397,-2.4885340358661345,-0.1108919018583997,18.165067806871154,12.537200323942006,-51.43605863755441,0.9465144672991092,0.19622643,-0.25585881,0.01190885,0.9501814344827062,0.14367844261430515,-0.25727768979067955,0.10158709085452386,11.9245200539318
3.3079,65096.8512,-2.735903671000445,2.8262690397891594,1.4976645584143955,3.3412173481964356,-2.0093365780255965,-0.1647155844110283,19.254671042175104,14.914691781681636,-48.561962080006325,0.9271474331732124,0.23635298,-0.29066053,0.00716675,0.9396744305668008,0.17437837756326632,-0.2789265979824377,0.09383015994500458,12.372348707395696
3.3291,65096.8711,-2.184567657770755,3.0247213876845374,1.1948778038559165,2.6205117661882626,-1.233184351635118,-0.2800354044882496,19.50819742465215,16.117924463336287,-45.97642395407081,0.905961036115679,0.28273198,-0.31511003,-0.00170221,0.9314822832158804,0.19844011683034585,-0.2926556930906764,0.08552731370097434,14.445206191610039
3.3572,65096.8921,-1.5510273928743095,2.90928674947676,1.208778102396486,1.7529322688477755,-0.3079743269027004,-0.3912790076519834,18.99602080346561,16.262534928349464,-43.99188066846236,0.8966678032863595,0.29858664,-0.32623225,-0.02013425,0.9271865466053341,0.2146408751525368,-0.2972327377539211,0.0768576744062469,15.482351028684555
3.367,65096.9121,-0.7358178001333854,2.6219674923229377,1.4848548550206817,1.065322718097503,0.5698144939733082,-0.46400812416481113,17.968779469672757,15.78501952049375,-42.65474410690308,0.8999497522727223,0.29640812,-0.31824017,-0.03091705,0.9267183664888144,0.22469514057633147,-0.2934605073178964,0.06772070332187291,14.596226846120926
3.3859,65096.9321,0.2969525778744381,2.3250836232166994,1.7178051092559872,0.7741896861365059,1.2382706635823173,-0.5426029899141847,16.763547758594502,15.205744207673202,-41.823746726283815,0.906568653456375,0.2932156,-0.30137238,-0.03650448,0.9286284322166946,0.23202982161765265,-0.28377137662121155,0.05731668665708815,13.243830721912564
3.4116,65096.9531,1.3981469197502627,2.008324728711755,1.5640514261455798,0.902179654540588,1.630248250968116,-0.7106163890842265,15.686924844898442,14.913018213064689,-41.29974446586642,0.9113207132323666,0.29531693,-0.28362784,-0.0428686,0.9310627379700219,0.2400341377892444,-0.2712041344997368,0.044205294816218495,12.123213902619417
3.4348,65096.9731,2.312800794618426,1.573677750152775,0.8318127047249795,1.3182739922710973,1.77381284151066,-1.023309572638519,14.945590815892569,15.058425701514036,-40.881502206421175,0.9130650931211872,0.30265227,-0.26832861,-0.05209123,0.9325146180838404,0.25082557152104273,-0.2584254695412215,0.026819702151419215,11.108086253334594
3.4465,65096.9931,2.8236921634681313,0.9967874152916267,-0.4499719290810096,1.828352796803524,1.7578812729238757,-1.471387153469779,14.63594578883552,15.558182216221823,-40.38513603355174,0.9113994859789224,0.31524441,-0.25610802,-0.06618626,0.9320832926451256,0.26483903982712387,-0.2471121432601295,0.0040751943086834,10.24389539818996
3.466,65097.0131,2.8248409185367627,0.3567798544558385,-2.0811223431496573,2.258843937570027,1.6925398925702624,-1.983528778697804,14.753238649590376,16.17111412444467,-39.686919900170416,0.9054949224859092,0.33106521,-0.25021297,-0.08870311,0.9294551735085822,0.28110896394863266,-0.23770549444187405,-0.02422661218581664,9.849491596362512
3.4849,65097.033,2.3024951333848516,-0.21350069364199117,-3.825584088535248,2.509140462432525,1.6663414442252016,-2.4604752042192946,15.208911681569612,16.623634782800394,-38.76872545968869,0.8964961013525531,0.34753728,-0.24826688,-0.11779701,0.924785958716229,0.2979249425714265,-0.22961755487508226,-0.057336180970708375,9.770173265326148
3.509,65097.0531,1.285139554267621,-0.5605505761566116,-5.522103409310579,2.5569874208159606,1.7106739917336151,-2.8197560632149967,15.86955684956993,16.715896648985474,-37.72341923130314,0.8868526238079565,0.36051124,-0.2473453,-0.14948034,0.9185881127978547,0.3133904273896913,-0.22177825894695744,-0.09379084659730226,9.578217729728504
3.536,65097.0731,-0.1502437852048079,-0.5360927855211759,-7.070260886325833,2.4111278826771536,1.793758967301948,-3.0330857899841273,16.4754446039229,16.33655394367463,-36.782252081559506,0.8780141142422995,0.3695581,-0.24283861,-0.18315959,0.9121211810390536,0.32518396629716306,-0.2116265031060228,-0.13230480847756135,9.377270483620807
3.5466,65097.0932,-1.8832028863575034,-0.09495870681481586,-8.304511417707303,2.1058280247113825,1.8782807817327138,-3.0827436308185288,17.07682479867789,15.718455438116836,-35.95742990386913,0.8692323307016047,0.37677595,-0.23252006,-0.2200215,0.9047857766338999,0.3347334011292433,-0.199893903593441,-0.17134373602678296,9.216681732132946
3.567,65097.1151,-3.708390480685592,0.6561530891252076,-8.967539776874426,1.6765909787185127,1.928430334663971,-2.98388613303549,17.70507045648296,14.84738657115706,-35.3685672324099,0.8580501102313469,0.39050022,-0.21250005,-0.25710565,0.897462920300452,0.340302169594724,-0.18770606483516353,-0.20861728902228024,9.616962792633016
3.5879,65097.1351,-5.4296982963718605,1.4805410521354594,-8.887909933637307,1.1760377089121161,1.970896084773866,-2.7339867684918917,18.296839628710526,13.808552271645993,-35.090691853879235,0.8487043538623898,0.39673203,-0.19310489,-0.29157352,0.8910391523560491,0.3414132461011421,-0.17501321254885366,-0.24260379178533892,9.978376163277348
3.6102,65097.1551,-6.92985630026367,2.2251084656980185,-8.155010786412221,0.6792451672802768,2.0685087930643964,-2.306364597285311,18.734305476129478,12.726498066128652,-35.17103507314424,0.8408016588281702,0.3929435,-0.18483977,-0.32323712,0.8863910185127242,0.33827042418135816,-0.1609531828080242,-0.2719892559791769,10.42099543284259
3.6338,65097.1751,-8.14008255713677,2.890233705640427,-7.029042466047327,0.2499113538848793,2.2553159910233274,-1.6975493274211018,18.8671066406709,11.743174243110722,-35.645724529426616,0.8331299389488579,0.38747561,-0.17011385,-0.35611576,0.8842461426087358,0.3315083691653022,-0.14416362056166074,-0.2956819422309831,11.504514449704079
3.6559,65097.1951,-9.000653851351611,3.5233531722106957,-5.733502092168419,-0.08881417774353206,2.4918268063511713,-0.9739879673942256,18.569302604205667,10.963056251435543,-36.52469010557747,0.8285212028909283,0.37900478,-0.13995928,-0.38771045,0.8849255418350572,0.3218627191923723,-0.12374552190573018,-0.3130466757694463,12.707178589904073
3.6729,65097.2151,-9.488054606992282,4.1275035522981565,-4.37694822072085,-0.35635002762643886,2.6793974336806468,-0.25821337029965186,17.792274947218274,10.402199656907836,-37.764316754279186,0.829570758091857,0.36985132,-0.09852652,-0.40658933,0.8881826416453564,0.3099426783561434,-0.10008958248791332,-0.3241129535990375,13.483468630672727
3.6894,65097.2362,-9.643613355132727,4.6437096535357565,-2.9753536404118504,-0.5955894780574611,2.7186790083167915,0.33925729551671757,16.587959267397842,9.990268920129276,-39.26048678289985,0.8334750746898727,0.35961902,-0.04875445,-0.41667309,0.8933693486148283,0.2961644750998128,-0.07492272790922573,-0.3294911159454979,14.458707308163017
3.7078,65097.2561,-9.544396166775893,4.978180979041129,-1.494866329908485,-0.8405399673140482,2.561979648344233,0.7807361670031514,15.09831543221398,9.623092808536018,-40.87753162160081,0.83802403566033,0.34908077,-0.00502528,-0.41932455,0.8998189170204153,0.2808344093499971,-0.05059844307447528,-0.32999658885461886,15.611922722440706
3.7283,65097.2761,-9.242345000250817,5.041007359226969,0.11947872759179878,-1.0895954728615656,2.2232323554166893,1.106844226056649,13.511268685474786,9.226228371413807,-42.49781923220594,0.8428803949686018,0.33693001,0.03310863,-0.41825187,0.9071153684441553,0.264332351665921,-0.029197737215564484,-0.32621711839920214,16.914802456957467
3.7484,65097.2962,-8.701431090540455,4.772910207855439,1.927421138620701,-1.2993147252718544,1.757979991331751,1.393027481489155,11.99541943950269,8.793960609375073,-44.05154784082026,0.8471949571009874,0.32503185,0.06506856,-0.41518801,0.9150822888121488,0.24731552663461664,-0.011933155073448857,-0.31830336912724405,18.484719250272875
3.7708,65097.3161,-7.808996080233692,4.193757638903117,3.903312089427249,-1.4008564034411672,1.235511334642919,1.6919831243536436,10.654855000143389,8.387710066089062,-45.50668904437797,0.8531863939227267,0.31090161,0.08719909,-0.40964556,0.9235736189674608,0.23085941130379847,0.0009649786435072488,-0.30612868434047324,19.710432083862496
3.7885,65097.3361,-6.501304067265811,3.4366126232686245,5.826897183176353,-1.338162125670036,0.70843841041077,1.9990036029274907,9.532062640099692,8.101627147876474,-46.84084359456861,0.8647675957329273,0.2933341,0.09239072,-0.39698371,0.9322809346030301,0.21640600097079124,0.009877869437496734,-0.289694890211937,19.468633209587058
3.809,65097.3562,-4.864544476150309,2.6771828520055143,7.368533401903495,-1.0999589171316897,0.20032762490229317,2.2646950787990248,8.640570708067044,8.02332404917408,-48.02114205602854,0.8768992977184075,0.28039378,0.09975767,-0.37745908,0.9407092535644781,0.2054901051478991,0.015267478381205974,-0.2694565290512495,19.363359627812464
3.8377,65097.3761,-3.103924247168635,2.027329469849247,8.320403872564402,-0.7136466388073277,-0.27027067229931456,2.4389537148001215,7.986816093518274,8.222944554554438,-48.99863244801731,0.8881450329419615,0.27343971,0.10649525,-0.35367766,0.9482820906297139,0.19943969770231335,0.017479844409223524,-0.24633176533037415,19.381726824529416
3.8491,65097.3961,-1.4647754315462365,1.5153624760642344,8.669945795009905,-0.22206998220716156,-0.6614121325202341,2.505684587254833,7.568125534854323,8.763745981528233,-49.70997798499775,0.8988168075600982,0.27108058,0.10645003,-0.32758519,0.9544715408773482,0.19918010394291294,0.016838790807821875,-0.22142226394976894,19.04821778175042
3.8675,65097.4162,-0.1493770257939394,1.1392877260446954,8.472947814320229,0.3227459429875836,-0.9188291604584505,2.4882755907232883,7.344628385246381,9.675592118145723,-50.086993636679196,0.9077707288917124,0.27337232,0.09847855,-0.30252579,0.9589316791833745,0.2048414739608182,0.013855654063029485,-0.19569881464791483,18.45706679257214
3.8897,65097.4361,0.7973347028530123,0.9087875832564589,7.7587939940909045,0.8585148747755186,-1.0163917510224902,2.424847510410413,7.153599231198314,10.9390774592777,-50.07859408731139,0.9135020027430446,0.28057829,0.0899516,-0.28053275,0.9614984072704229,0.2156734365938337,0.010053641669555373,-0.17001384018198604,18.17898415626584
3.9085,65097.4571,1.4256121542429705,0.841858117664263,6.575970987387027,1.314350693549785,-0.9751227936837901,2.3357654820248657,6.828924498089845,12.480053075726897,-49.65787824251986,0.9169573653400828,0.2939119,0.08347239,-0.25658789,0.9621527414495136,0.23060136347173535,0.0069323398350531725,-0.14504156628557724,17.900282220747037
3.9284,65097.4771,1.7295148512372414,0.898566627993366,5.07772036658136,1.6321450880573674,-0.8467737476021183,2.2234984200797148,6.296430976863784,14.138915980013882,-48.84962747012632,0.9176024404699988,0.31338254,0.07829122,-0.23166275,0.96106889697257,0.24820767462599425,0.005194564286524849,-0.12129526796440758,17.644123505982392
3.9486,65097.4971,1.633574922867591,0.9097402570687074,3.4884240598943985,1.79651709014601,-0.6914119573535287,2.0985408162363397,5.572190830379201,15.724790428770318,-47.74441544823078,0.9155623463152464,0.33579147,0.07552424,-0.20805232,0.9585817237895096,0.2669963228070611,0.004916308500071901,-0.09904479963618376,17.565631558817735
3.9667,65097.5171,1.1178895426052686,0.6683799204379475,1.9442356927328492,1.8434023151014878,-0.5627396906354906,1.9964412198742967,4.723823994908191,17.105939623534283,-46.47197307907949,0.9140568593705763,0.35378706,0.06993555,-0.18559039,0.9550835270317297,0.28580357293194286,0.0058428072577302835,-0.07808735938239665,17.00056204338748
3.988,65097.5371,0.3193887936507329,0.12976653361427684,0.3909901669488387,1.8326508154718812,-0.5054756949356158,1.9623003446499854,3.8185064941606726,18.240557028192093,-45.14975937993785,0.9128518850948388,0.36696538,0.06261718,-0.16768105,0.950932975380652,0.3038722816823605,0.007675844047785931,-0.05769916963883069,16.43929481343243
4.0076,65097.5571,-0.4693440260415044,-0.5228375088785913,-1.3093905969124369,1.8072381278923422,-0.5552235203162533,2.015750427274168,2.9024244714558485,19.124244897804605,-43.84851462522418,0.911409997323494,0.378021,0.05948571,-0.15130562,0.9464671690009544,0.32052113599249477,0.01016069398128458,-0.03691692949336776,16.240728743736074
4.0281,65097.5771,-0.925404382763662,-1.050698034320639,-3.1741630895314645,1.769338197243228,-0.7265226221809605,2.139248041523757,2.1081491361748026,19.821165668966593,-42.549559701551864,0.9095193039186704,0.38950539,0.05942007,-0.1323988,0.9417201925735279,0.3358707206614371,0.011914994517271627,-0.01455921726253485,16.24215042715609
4.05,65097.5971,-0.8274305476795424,-1.3306237829356764,-5.0146230744888545,1.695518314758728,-0.9894385117715365,2.2983172962300187,1.535867811590429,20.372680795319482,-41.21297331728181,0.9065072414688496,0.40330666,0.05997084,-0.10950734,0.936648553336101,0.34993188825884913,0.011502552557888015,0.010239745975278474,16.399343686561796
4.0696,65097.6171,-0.15819225902991357,-1.3808781776813275,-6.545564982863009,1.5624627924406325,-1.2742846535392856,2.473016296565708,1.179157036891815,20.765633965909153,-39.83478612079168,0.904170857689168,0.41534534,0.05332359,-0.08437952,0.9313026847249734,0.36217417590959405,0.00821586937816783,0.03791668786464116,16.442863083479914
4.0907,65097.6381,0.9087217728921413,-1.2613115792600078,-7.582306025058797,1.3611374665471818,-1.517770978936285,2.6555148006171807,0.9204646226056556,21.01141311330688,-38.44068726691199,0.9028516320353834,0.42405245,0.04021526,-0.05849088,0.9255360262480468,0.3723974830600834,0.00221489800480302,0.06854394907151357,16.526917102161715
4.116,65097.6591,2.112807152109677,-0.9867504948994203,-8.13091945410291,1.1030870967456483,-1.7035746438765988,2.822313512161988,0.5539767864970429,21.09232952818474,-37.126599209927555,0.8985691684545684,0.43726012,0.02574152,-0.02672847,0.919284319344482,0.3802287591348474,-0.005336253439071293,0.10155764537128985,16.661971935563628
4.1348,65097.6792,3.2054375859357687,-0.5587873266183907,-8.350551035457297,0.8172421532486859,-1.868871633281424,2.930579287704982,-0.0223681012698993,20.973337649345634,-36.03496515783711,0.8946498583059501,0.44648838,0.0141749,0.00698783,0.9126319060218128,0.3851840952038117,-0.01393524603050022,0.13616910747700234,16.84082651103627
4.1559,65097.6991,4.063532343641665,-0.019974052526697622,-8.43263817606466,0.5416674832367903,-2.0753188106509057,2.946984611820165,-0.7600587501933163,20.653282924791032,-35.28757522454853,0.8917700534489078,0.45023912,0.00768181,0.04440604,0.9056038953782728,0.38710811889980906,-0.02405757043057476,0.17161037923892486,16.764623222310735
4.1755,65097.7201,4.779797419245883,0.5906928662137797,-8.406514912108035,0.29776574607865924,-2.3583818126299625,2.8796779291255774,-1.5194631922779518,20.161962695720135,-34.94736617013795,0.8886160558922346,0.45166063,0.00437898,0.07965554,0.8981493679953831,0.38599579327754824,-0.03658846780948921,0.20735535769515143,17.162061055264864
4.1968,65097.7411,5.556180745743015,1.3377255506305445,-8.027421675194619,0.07343752558884219,-2.6882126248336746,2.7620729025795363,-2.1616613335591826,19.535490073739403,-35.008281367937435,0.8839565846146709,0.45414269,-0.00825215,0.11093726,0.8902079783612687,0.3817612476275303,-0.05201575014603731,0.2430688519916926,18.01056157235956
4.212,65097.7611,6.4273027215027465,2.3519076902476788,-6.956101214163528,-0.1524137466274798,-2.9775519710359633,2.599056430260414,-2.604993364079723,18.8015566655502,-35.41151178789773,0.87954339510953,0.45350546,-0.0292977,0.14098886,0.8818381434972691,0.37431681059667593,-0.06996712395958055,0.27812410097445156,18.758034908474826
4.2327,65097.7819,7.160474461384147,3.656428171022398,-5.0900843506950775,-0.3688631940390237,-3.1314651628690218,2.3503145045468306,-2.833456759584288,17.9985302162894,-36.07252151221426,0.8737156139339235,0.44461936,-0.0672726,0.18549676,0.8733308901922073,0.36394629111257004,-0.08940112693596751,0.3111971913820398,17.318878931432092
4.2527,65097.8021,7.463754466619834,5.107880770389044,-2.6800839145782223,-0.529027334136212,-3.092829753324308,1.9726641967794678,-2.8923872416564356,17.204916990385343,-36.901348921214655,0.8667425949089963,0.42879504,-0.10788622,0.23076536,0.8652143890969805,0.35158536898415,-0.1091105778414715,0.34042131399035264,15.381171128876696
4.2728,65097.8222,7.2161769149760975,6.491977098321649,-0.16606352824240078,-0.5880773579706381,-2.8571824668605883,1.4603458253498955,-2.8774387804014445,16.538002822126785,-37.81547948655234,0.8601315579921013,0.41038328,-0.14315614,0.26695615,0.8581645862560497,0.3386735465496915,-0.12809595601428508,0.36393021009009846,13.938387387992023
4.2963,65097.8421,6.51126194785523,7.599255971943318,2.043342092250773,-0.540749458983637,-2.4676083382761362,0.8489538539034842,-2.8949972442771683,16.110519203016366,-38.74585391183704,0.8526886224364885,0.39418823,-0.1740043,0.29539847,0.8528674665887281,0.3266311413054827,-0.14571170198136527,0.380390959237593,12.863592307970073
4.318,65097.8621,5.563279958775,8.293462423220584,3.727974932358831,-0.4287031208829646,-1.9986781899053878,0.1978699945618407,-2.9992574909124263,15.976974602358622,-39.63273395003679,0.846807320525892,0.38176182,-0.19986778,0.31181428,0.8498618582290679,0.3163012084546847,-0.1616525491860221,0.3893029935656837,12.432454360324392
4.3365,65097.8831,4.575782616803737,8.581132723932425,4.928598768405013,-0.3097202882858773,-1.5288880401876455,-0.43996134834644784,-3.145959569129626,16.117546470324523,-40.4250686308136,0.8442787652183905,0.37428263,-0.22003017,0.31415379,0.8494317505817236,0.3077543409770392,-0.17589550548061547,0.3909139775771336,12.711491619692211
4.3579,65097.9041,3.662788713482072,8.538013969222352,5.888225092128076,-0.19797607953609586,-1.1112980551740836,-1.0399939577673336,-3.200882531389028,16.479488392006076,-41.08711865478679,0.8430272024146491,0.37230656,-0.23432519,0.30949098,0.8515384835163321,0.3007151812919065,-0.1887146799997554,0.38579704558727634,13.123124741428812
4.3792,65097.9251,2.853418063461643,8.183042294618726,6.870291155437364,-0.03341184738094616,-0.7594376884789533,-1.5922894826654395,-3.0079112626425175,17.04310636971116,-41.58934848623158,0.8455433647816621,0.366496,-0.24254245,0.30316705,0.8557320974035576,0.29534276993244646,-0.2006751419828481,0.3744659038044744,12.560727654018644
4.4006,65097.9451,2.1468383771566786,7.51730519207557,7.966054801507909,0.26273109322009947,-0.455427869764123,-2.0782955872431748,-2.4712951799022376,17.84058251063008,-41.88785802284311,0.8546373272274405,0.35219845,-0.24729808,0.29050809,0.8611758807798151,0.29255792899118516,-0.21239720819235144,0.35731412860338047,11.043706932730432
4.421,65097.9651,1.5773566956315768,6.608911705775473,9.032762880033488,0.6995049142413899,-0.1682443898302436,-2.480959046323671,-1.5901374857911903,18.901009041611673,-41.916732795708185,0.8633925786700282,0.34187043,-0.25498995,0.26955146,0.8669312826474201,0.2935127549952376,-0.2241625994724618,0.3347111333973719,9.958162786948096
4.4375,65097.9851,1.217737513475424,5.510681219053687,9.791206805330791,1.2086059247002123,0.13165590606915334,-2.807265083238759,-0.4323857969180611,20.18962802729329,-41.59052211471754,0.8662865883893526,0.34384358,-0.2681154,0.2437894,0.8722855850147648,0.2988499698636991,-0.23571881935760608,0.3069905403893935,9.661465343712491
4.4586,65098.0051,1.0941046183040197,4.162620297093148,9.95652526111703,1.7211074027317648,0.4589675147682053,-3.079281492355447,0.91937906417242,21.60967546072056,-40.81719537173719,0.8655682850249237,0.35373899,-0.28162178,0.21528921,0.8767787047126935,0.3085680584798613,-0.2464758904622023,0.27439841775995144,9.518127068969768
4.4808,65098.0251,1.1245326899085577,2.511312608683506,9.308449868163702,2.216768428944069,0.8003129610011501,-3.3087641632577536,2.4190602614745793,23.044493905051738,-39.5300953714545,0.8666875352835358,0.36257783,-0.29029191,0.18199077,0.8799737538785056,0.32235062609277276,-0.25589434574761144,0.2371799952714608,8.896040843344604
4.4961,65098.0462,1.1615703529408665,0.686191890438463,7.751281305186037,2.6882411203915617,1.118002479558916,-3.495123298964595,4.0831825167060325,24.36927062388485,-37.72573000756488,0.8685829369558611,0.37149307,-0.29507777,0.14312823,0.8813492220746552,0.3396478709749125,-0.26370680369093663,0.19575902068032283,8.048586890501161
4.517,65098.0661,1.0610908236899625,-1.0389055176218878,5.379186245090416,3.0867954482532047,1.3797043663467756,-3.6353539106712267,5.965423081233977,25.41982389288708,-35.49510880147288,0.8664802761776558,0.38821197,-0.29769629,0.09939978,0.8805122986400985,0.35936654600180784,-0.2697901678782363,0.15088751729183453,7.653097050516882
4.5382,65098.0861,0.7136216419631917,-2.4084391680219244,2.4707766505600097,3.3274015951864526,1.5853158764027682,-3.7172372644961467,8.079412259917884,25.992335905433468,-33.03433080479826,0.8594075021188603,0.40961292,-0.30121765,0.05388811,0.8775414440335333,0.3797007831408048,-0.27383926543008447,0.10373228038808527,7.6521510182693095
4.5582,65098.1062,0.07029013490486626,-3.2760498603268022,-0.5789927624851221,3.343607393275548,1.760788257656461,-3.71179238255661,10.3364793175485,25.930470694045855,-30.59699985010679,0.848247067608958,0.43269858,-0.30533975,0.00406057,0.8730412302094466,0.3986761323381574,-0.2752227292865584,0.05575662420127356,8.384925919447856
4.5769,65098.1261,-0.8411610065387375,-3.635109658858178,-3.341886389876754,3.136665686500748,1.9328179047315441,-3.584131091297688,12.573486910324329,25.23641481024776,-28.390792724787772,0.8387744657180353,0.44774714,-0.30686092,-0.04261772,0.867671613331963,0.4151639066715873,-0.27333696606860725,0.008473782833141975,8.600898937111051
4.6077,65098.1461,-1.9269793839481464,-3.5851242873927345,-5.47572080996496,2.78029473839776,2.1039916679592645,-3.315617799820148,14.624647486956004,24.048886010964758,-26.549296871208362,0.8319017212103385,0.45661029,-0.3032876,-0.08638982,0.8620861183401455,0.4286216692313305,-0.26787863589076993,-0.03649692677293381,8.451872844033657
4.624,65098.1662,-3.050111780322003,-3.2349068400157996,-6.858577303233448,2.377114966363467,2.2533606720380046,-2.914764545714859,16.37256289387153,22.59845118952476,-25.124520033657873,0.8296120888744077,0.45723009,-0.29428777,-0.12680353,0.8568733428902315,0.4390377644649217,-0.25879331729008687,-0.07771701579291362,7.893815658455443
4.6393,65098.1861,-4.056960023562877,-2.6032657444366167,-7.610021818390267,2.0003764919462586,2.355483353848648,-2.4103654033973605,17.77388998366184,21.140282966176937,-24.100694578543173,0.8306340195581312,0.45248389,-0.2804566,-0.1632469,0.8523860256556272,0.4469442734331771,-0.2462744018841264,-0.11413938272528676,7.324183468951011
4.6571,65098.2061,-4.807284488782825,-1.6443727484066493,-7.951623228021155,1.663339435928686,2.396855326673628,-1.8426827619338233,18.836920412270153,19.87396678214439,-23.44160359023102,0.8318658757220506,0.4461377,-0.26351634,-0.19879501,0.8488549532151164,0.4529503868929653,-0.23071185125282687,-0.14509740558386686,7.510903287429756
4.679,65098.226,-5.212434025451879,-0.3838479420761025,-8.027271843616262,1.3381449373167382,2.378434993503715,-1.2645773095151567,19.580736330225015,18.903972972945745,-23.118656728981055,0.8316391744459566,0.44267854,-0.24145281,-0.23262101,0.8465073684894041,0.4573484272093098,-0.2127001344367287,-0.17034184463282115,8.218607079847958
4.6985,65098.2471,-5.274273960186814,1.00526118944277,-7.858916264756962,1.000779125782563,2.30495699688618,-0.7476647271627296,20.016337401513958,18.239085613195357,-23.102358132636844,0.8272178187808363,0.44707993,-0.218914,-0.26058948,0.8454849413106376,0.46007825935685104,-0.19317000715478128,-0.19018032921398445,8.968920109285373
4.7234,65098.2681,-5.102058917833419,2.294583830309716,-7.457091347005235,0.6538096830949773,2.174578875257167,-0.37392861152352164,20.165734737989904,17.809399450704394,-23.340000394098215,0.825532670355139,0.45035523,-0.19588454,-0.27803817,0.8457031019885596,0.46090180891900145,-0.17350901952855646,-0.20554903542551506,9.078586380149936
4.742,65098.2881,-4.885488966326376,3.336807113171506,-6.903516527443102,0.30952787741486043,1.9818650393350836,-0.20259564199116242,20.09062095989695,17.49517091050161,-23.758568475899565,0.8274155801004623,0.44977736,-0.17057621,-0.28980604,0.8468850229656939,0.45953810696528585,-0.15538958350513762,-0.21786363501341255,8.789672141459704
4.7616,65098.3081,-4.817520976984804,4.090450124073557,-6.299811693147292,-0.032728068397479576,1.7327004842288756,-0.22855621942225002,19.891040579485782,17.17245994177344,-24.295505295776884,0.8291725058453087,0.44916835,-0.14246701,-0.30070567,0.848748451845466,0.4557339338135122,-0.1402883062097926,-0.22858660984750023,8.601908042882446
4.7806,65098.3281,-5.0121967276302595,4.585466929319772,-5.696942451289192,-0.38534364167732305,1.4589004026191406,-0.3676951984720087,19.66765221635782,16.759241339113633,-24.931200043197457,0.8280392773617106,0.44926554,-0.11178557,-0.31625214,0.8512194837541083,0.44926684718227855,-0.12895870653298874,-0.2386510894792296,9.489731111333823
4.8031,65098.3482,-5.499317074671355,4.90512683295273,-5.105286120357407,-0.7614328994395116,1.2151176765588334,-0.490240262524767,19.47156054248795,16.238914264389084,-25.700556432543486,0.8269462971440843,0.44421393,-0.0908173,-0.33254477,0.8545585969398827,0.43988252456486066,-0.12111198013678151,-0.24812266572389496,10.76950881203733
4.8278,65098.3692,-6.271872569478232,5.104298200943579,-4.498393192666581,-1.1711644840681812,1.0486873382566717,-0.48383548190546877,19.281361487278183,15.648914406066151,-26.67432522088255,0.8256730684317163,0.43611696,-0.07960802,-0.34889618,0.8593195460589601,0.42723333385755385,-0.11560094669937811,-0.2562772274787409,12.07026127237763
4.8408,65098.3891,-7.280311611900867,5.0773945564369045,-3.731815823550662,-1.60970930929121,0.9668031446217581,-0.29807925255440826,19.021999110780143,15.045607586799708,-27.920635635886747,0.8239528798248059,0.43068305,-0.06511877,-0.36245456,0.8661137209009483,0.41098166105017436,-0.11102567900873021,-0.2619434964800697,13.74757469863828
4.8732,65098.4091,-8.373764025084967,4.5819610575805605,-2.5105153868997943,-2.0300063513377875,0.9354857164669712,0.061545660358837684,18.599439030192784,14.481483555446715,-29.469407807216744,0.8256522497315398,0.42296115,-0.04564494,-0.37056547,0.8752541136514511,0.391196495684723,-0.10623568017021845,-0.2638361585510536,15.611564540489283
4.8815,65098.4292,-9.252838097426059,3.4594473604159717,-0.5360879433544938,-2.3323100547503284,0.9046892416212508,0.5671868865992049,17.92859366955166,14.012032652988733,-31.297917312037857,0.8323158406398035,0.40890875,-0.02780982,-0.37318975,0.8864861384790805,0.3688752792730624,-0.10043956518697211,-0.26073980971597116,17.188474965048314
4.9104,65098.4491,-9.474834735417332,1.8414917887353175,2.266077306033942,-2.3931687536885127,0.8344137143370357,1.1842984625366029,16.95348943278395,13.713648594425273,-33.3299643260037,0.8428186838386398,0.38904148,-0.00861126,-0.37179193,0.8989651741691325,0.3462130157702685,-0.09309637743170239,-0.25165696463919074,18.69487864956776
4.9485,65098.4691,-8.602677168965482,0.19456298705551725,5.573456789578092,-2.120580115599926,0.7141058139442038,1.8604390430686508,15.656620124396028,13.69524259039448,-35.43520051473861,0.8569332920577171,0.36460444,0.01107801,-0.36415136,0.9114616104770333,0.3263129870533949,-0.0838091021080989,-0.236079650776466,19.8213673700302
4.9511,65098.4892,-6.516479939746109,-0.8247931040713357,8.63565987039419,-1.518276514161919,0.5633393712809848,2.5081808436060524,14.056632141009864,14.080045689507124,-37.437592571645645,0.8742949052084655,0.34057289,0.01879751,-0.34534791,0.9226684044588197,0.3122513433006118,-0.07241129441952147,-0.21433319495791733,19.411199993984933
4.968,65098.5091,-3.653516056245702,-0.7033716256190439,10.584707231942701,-0.7262690827829473,0.3980623570399351,3.0026996860413524,12.226633759151511,14.9351082696287,-39.13516448140794,0.8883638158958596,0.32612553,0.0260582,-0.32213792,0.9314576564677972,0.3059193974352424,-0.05949044314702131,-0.1877787092685116,19.071911296881044
4.9807,65098.5291,-0.9075006091280776,0.5309615336903657,11.046139880987095,0.027216267255025017,0.1918650020812429,3.215103130479218,10.373306504561057,16.21455776055689,-40.32335028120457,0.8950436136604042,0.33525631,0.04089367,-0.2912522,0.93699756968065,0.30765448552569874,-0.047292881504038126,-0.15858012267468516,19.16314078930343
5.002,65098.5491,0.942216596501876,2.1997721840044995,10.435191721462093,0.578979345502127,-0.09706205803846424,3.0777322247286185,8.702902664521492,17.689266845006152,-40.9264741417909,0.8968171246827389,0.35671234,0.05844903,-0.25506678,0.9393176709653498,0.3153269169165552,-0.0379914088390668,-0.12964529044494288,19.38547292103836
5.0194,65098.5691,1.6719073050378446,3.2592810439710465,9.49522300368962,0.9281789222329329,-0.4617977203205379,2.632382346172191,7.405872256217189,19.12099580525756,-40.9754396839528,0.8964842180895797,0.37600321,0.0710535,-0.22335853,0.9389134056007706,0.32647961887113214,-0.03316745062939004,-0.10369472244849216,19.683994216243754
5.039,65098.5891,1.5631483177905958,2.922898926029094,8.645367253915733,1.1940488806621095,-0.8113145813893033,2.0374665835601817,6.59304004320944,20.427295329923503,-40.535744334280395,0.8964029131364789,0.38962972,0.07564078,-0.19730426,0.9362356774861982,0.34000275172022987,-0.03327558241277834,-0.08218041518343534,19.593790324411582
5.0619,65098.6091,1.037204853629453,1.1606965263197035,7.69434672093448,1.49474564023533,-1.0084185776033339,1.524626975462139,6.16118049781783,21.65273169940172,-39.67343336160068,0.897582930004846,0.39745063,0.06790392,-0.17823282,0.9315916529884261,0.3557879184365283,-0.03671097384774562,-0.06484021573101473,18.743385433057075
5.092,65098.6291,0.4633473309955244,-1.287012505103521,6.089716117729383,1.845345799201254,-0.968968636359289,1.305542031098126,5.81376568606534,22.828000494632313,-38.46321317813694,0.896705217675479,0.40510362,0.04863643,-0.17159635,0.9254078293556095,0.37352100299278074,-0.04030470183260484,-0.04977891823644832,17.980942399078064
5.1013,65098.6491,0.21456873474531862,-3.3858944148361245,3.526133498081014,2.155140863436448,-0.7350156313546251,1.4519645620671204,5.22332157682375,23.931041560329867,-36.972340251964674,0.8893040697036584,0.42337504,0.03335079,-0.16964543,0.9181425290358518,0.3926345493053227,-0.04089829125067661,-0.03434729742251635,18.3525187918354
5.1284,65098.6691,0.5762174518008004,-4.396249484861159,0.3125833927044055,2.3129120331630135,-0.44013081371998375,1.8513230102827491,4.226142118469012,24.91476237666444,-35.2286306268383,0.8783970265602549,0.44910872,0.03240102,-0.16021921,0.9099112962735344,0.4128048881153578,-0.03721464267819526,-0.016389863703440602,19.14371559080516
5.1401,65098.6891,1.5473305877683459,-4.1301349616222325,-2.836323845860742,2.2667687800564433,-0.19920566001195583,2.2955906336371905,2.844796127307968,25.61894866735917,-33.32538214546899,0.8718510085449852,0.46823052,0.03827509,-0.13845944,0.901147121059849,0.4324576240682119,-0.029852120101619622,0.004808379795840063,18.956957646292334
5.1599,65098.7091,2.8155610969808347,-2.9227786837907677,-5.312036146701908,2.032828007168886,-0.045150443853781974,2.6195948563415734,1.214739629516688,25.92980632576088,-31.391567897177264,0.8667895251635683,0.48492694,0.04293401,-0.10806689,0.8923147879080386,0.450052745289291,-0.020253067778504903,0.02857724590935036,17.966513532840874
5.1816,65098.7291,3.99415667847697,-1.318633856378994,-6.910552970902893,1.6647734196634674,0.04264588624092047,2.7705907963994036,-0.5304244761069146,25.844330181074284,-29.56656964662877,0.8629124485727758,0.49764886,0.03972379,-0.07842027,0.883840313328571,0.4646149163878645,-0.009559445741187052,0.053552749717190186,16.76843584105525
5.2119,65098.7491,4.887273792202506,0.26420715041524223,-7.741165245565082,1.2344463790072384,0.08105974987839515,2.767273286068388,-2.3016759298301332,25.438975771801346,-27.977129792282053,0.8592653576536893,0.50765795,0.03424045,-0.05266918,0.8761778856539422,0.47557279337277253,0.0015604648944125446,0.07836067791895952,16.036365860646708
5.2262,65098.7691,5.533006172406177,1.6596976859500718,-7.9842809356441204,0.82300687493126,0.06968466300241705,2.6277801306306636,-4.027554577373681,24.839312995045145,-26.690386301164843,0.8573529980218693,0.51315522,0.03286299,-0.02318579,0.8696223425657406,0.4829322982053531,0.012296596061090312,0.1018929358978329,15.009368359416412
5.2493,65098.7891,6.035945862149859,2.873863569244245,-7.787877007831312,0.497685901706789,0.01527113501212296,2.355922447804952,-5.650025245100464,24.181271542127238,-25.694662754576893,0.8563049323022497,0.51528198,0.03380786,0.00913086,0.8641980367566626,0.4873637377249377,0.021673990960253832,0.12316078325734575,13.56259152164004
5.264,65098.8091,6.417926014742161,3.9518096921118255,-7.294928150911051,0.279736838852429,-0.06010969347376072,1.972787861452796,-7.125408909158849,23.56455736779187,-24.928128443115266,0.8542990105385586,0.51733357,0.02738992,0.04229622,0.8598092095665727,0.48981744756047946,0.028896319619348392,0.14132230511245972,11.8008741230707
5.2874,65098.8291,6.633646850780995,4.9076961656163345,-6.641341597349407,0.14250816746294048,-0.13875331067787045,1.5236744104614914,-8.415809558196818,23.031905710643073,-24.32479900799069,0.850623869709296,0.52105856,0.01482817,0.0686814,0.8564117992514539,0.49105950717663444,0.03352981316558254,0.15586899032010676,10.80535628190993
5.2996,65098.8491,6.669056240086704,5.727024693731848,-5.900036336299822,0.04507077069545168,-0.21978627166017772,1.0472685189021371,-9.47562963068384,22.58834671274062,-23.84810025535935,0.8448563688066217,0.52747697,0.00085622,0.08935899,0.8540636783296014,0.4914889332191464,0.03537643940039997,0.16662043517097855,10.593972978876172
5.3204,65098.8691,6.57014010220096,6.3905975471176255,-5.063744548823643,-0.037253173359734965,-0.30775017593534404,0.5533419505902011,-10.247428829494876,22.24394565917467,-23.493897662156638,0.8392597881010608,0.532875,-0.01234516,0.10740037,0.852874093310568,0.4912544936882769,0.034276404104234694,0.1734933183509802,10.54331657958443
5.3396,65098.8891,6.3769889847932095,6.889498306418386,-4.107914009015345,-0.11459858590720501,-0.3990668566961968,0.037633005788792695,-10.670371985872782,22.035937967331716,-23.275401648369694,0.8348426681481721,0.53583336,-0.02675167,0.12330725,0.8529452596878125,0.49039134058296946,0.030092019865971546,0.176338275475616,10.5287838944094
5.3619,65098.9091,6.079472051865915,7.229661451370161,-3.047045558723894,-0.200964187093344,-0.4873277000927221,-0.4933829911701213,-10.6894345352329,22.00930196434288,-23.21485475802309,0.8311520531291826,0.53789192,-0.0450303,0.13353209,0.8543633898978915,0.48878923907502836,0.022797531116815782,0.17501014353921238,11.037763484340308
5.3825,65098.9291,5.672539320695989,7.414371027560621,-1.8895647562437197,-0.3152248662237471,-0.5748850421001448,-1.0256249937210606,-10.26108928065442,22.178054085612803,-23.34138230870208,0.8277457453466085,0.54074621,-0.06597855,0.13445203,0.8572058260879912,0.4861284992133599,0.012449705124804806,0.16947642554549178,12.148441783966692
5.4001,65098.9491,5.207157537273575,7.390862049890661,-0.5599569570748693,-0.45924112349942364,-0.6669187921029514,-1.5563046978214192,-9.357707170509851,22.504340645622527,-23.681060434899685,0.8235281726979018,0.54544306,-0.08496328,0.13066927,0.8614765386907783,0.48201423745338445,-0.0009302720585551099,0.15974849849524517,13.257686738454565
5.42,65098.9691,4.717194339559491,7.0389252140448875,1.0417909688922218,-0.6037223845208779,-0.7537164340644489,-2.0879692430656736,-7.975754221775414,22.90769925278476,-24.23689309609849,0.8214852082881469,0.54685897,-0.1032923,0.12424983,0.866961596294904,0.47626638230849216,-0.017304382240587782,0.1457685905394055,14.000327986084987
5.4468,65098.9891,4.1126448053815805,6.257328458194262,2.860734179767474,-0.7075057486252689,-0.8089840085832303,-2.600804704082209,-6.149951606933545,23.287274798996897,-24.97104908049254,0.82395322978561,0.54136807,-0.12401437,0.1124372,0.8731554501120087,0.4690621638486115,-0.036354635934438335,0.12750916371550747,14.303585706142652
5.4654,65099.0091,3.1862875027757758,5.023778207640866,4.640034093073037,-0.7446791482308582,-0.8092495501976924,-3.043952813974755,-3.962168769860696,23.5483792225663,-25.8071820489201,0.8256898221015936,0.53628594,-0.14804848,0.09335607,0.8793569038818524,0.4608377642325778,-0.05729536722236872,0.10524842776638382,14.929540969879852
5.4803,65099.0291,1.7118773155243057,3.4051259351394054,6.091404637872653,-0.696262545432724,-0.7543232849937099,-3.355789730417792,-1.5321782217795819,23.63239962691768,-26.64824592340435,0.8259766136282987,0.53293651,-0.17085579,0.06745079,0.8847999371087352,0.45224840917048587,-0.07897557684555426,0.07977033256201868,15.625385417227173
5.5029,65099.0491,-0.4166633914572807,1.6446968796275105,7.032316577251219,-0.5303813653859022,-0.6758114622642677,-3.4887979544861634,1.0077450497663056,23.53928803972397,-27.387270089174713,0.8290682701801982,0.52449727,-0.19030201,0.03651797,0.8887207695400661,0.44429750849597294,-0.10017501960954235,0.05234580383002488,15.54057104458802
5.5252,65099.0701,-3.0363784873567923,0.18968485346960542,7.36041483637986,-0.2252447349122943,-0.6271628236192799,-3.426702384818577,3.5476987446627133,23.331070188074793,-27.911000569376125,0.8330068405969977,0.51276064,-0.20776908,0.00285289,0.890435857528042,0.43831773075437513,-0.11999335667194666,0.024559008311303258,14.9583706999516
5.5476,65099.0901,-5.731624567986597,-0.5482471417197332,7.039006810413795,0.18965754722782646,-0.6531954067203913,-3.1922547525160754,6.037288631653731,23.108583054061587,-28.104692386682576,0.833198293322488,0.50459617,-0.22422026,-0.02980913,0.8893987105479967,0.4356767411272623,-0.13839193543897746,-0.0018393264373425496,14.530425672597742
5.5617,65099.1101,-8.042467589372826,-0.46938467032607134,6.171307225841456,0.6308594885901976,-0.7606689715036357,-2.834349201958034,8.451208781281279,22.950869230540345,-27.881154272482483,0.8283253944259994,0.50377619,-0.2386384,-0.05602058,0.8854532777828248,0.437102895263708,-0.15579415069998398,-0.025332477640503427,14.28215001599121
5.5875,65099.1301,-9.670876087443489,0.1886712489437197,5.016323844245875,1.0046650871868803,-0.9109585364755803,-2.402618780284743,10.73334734579762,22.880209318163548,-27.20995995085896,0.8188660552975103,0.50859916,-0.25426674,-0.07831796,0.8789838449143732,0.44234162181106007,-0.17233450990160282,-0.04496784062060997,14.426824983070963
5.6039,65099.1501,-10.552457657278397,1.0353970962232535,3.8532488091007226,1.2538137961855946,-1.0402360175124703,-1.9320115380596385,12.791167046533408,22.875828871647077,-26.122522538241615,0.8067494090235517,0.51605731,-0.27138212,-0.09587486,0.8707471426849956,0.4504851499599795,-0.18767968446104777,-0.0603231233612123,14.803454610637154
5.6267,65099.1701,-10.793418389507739,1.746651148059343,2.8344228544082717,1.3693000698667734,-1.094210902616651,-1.4447979601855871,14.51840480146919,22.896155962339847,-24.709873457727273,0.7937210266716296,0.52400923,-0.28900018,-0.10908783,0.8616505516637128,0.4604430414187749,-0.20113104059396752,-0.0713921349746269,15.298504928769592
5.6449,65099.1901,-10.542160476460626,2.1682827972872496,1.9786731719498536,1.3730881257034762,-1.0516842538450804,-0.9622957592626022,15.834322128354565,22.8985033408697,-23.107218930330387,0.7809424304998445,0.53216273,-0.30474451,-0.11858555,0.8525598214639835,0.4712450576263389,-0.21191955689097672,-0.07848533554226204,15.834744852260565
5.6612,65099.2101,-9.893106153917964,2.2502771426874553,1.2729990424907363,1.2982913533762772,-0.9218197882741253,-0.5110805405646957,16.711706280234964,22.857308337736807,-21.464739561226473,0.769556179295864,0.5415802,-0.31527936,-0.12277255,0.8441642913605256,0.4821432121502647,-0.21948511055014264,-0.08216360761309247,16.188636926325124
5.6815,65099.2301,-8.883123180411998,1.932868777894218,0.7385938058547779,1.1832429622583525,-0.7258004062335772,-0.11182028413159922,17.174699063029383,22.774664698853083,-19.917839825311702,0.759483832910036,0.55171853,-0.32219389,-0.12240126,0.8369050100051797,0.4926546545478712,-0.22353779598684193,-0.08313993833226399,16.523872605467496
5.7032,65099.2499,-7.534724466263786,1.1443196987211315,0.4031859880243913,1.0735444589018026,-0.4851015862163629,0.23831894294951955,17.278839148463028,22.678802894082303,-18.563353658280008,0.7520701141480862,0.56132787,-0.3230544,-0.12221874,0.8309427360049079,0.5026430034206755,-0.2239327661443745,-0.08208712956273645,16.660231713368105
5.7215,65099.2701,-5.862303792126554,-0.06355213739048035,0.23012704305698106,1.0153962403333625,-0.2196303695842949,0.5695606538899574,17.084400188143036,22.614152645301935,-17.442646888425454,0.7504707452625046,0.56864053,-0.31194749,-0.1270054,0.8261672920716724,0.5123549143737801,-0.22053676536310454,-0.07939510281607817,16.023381754672933
5.7458,65099.2911,-3.8554926453447216,-1.3553575330633314,0.07537058398711016,1.0304518445128796,0.05331759475346687,0.9194482800121229,16.635549112425448,22.625224446773526,-16.537356948612533,0.7524179667979741,0.57149065,-0.29989371,-0.13164119,0.8222793740882943,0.522248101111651,-0.21327738294041948,-0.07500873122726158,15.392073139994073
5.7721,65099.3111,-1.5306369210079098,-2.164804303641327,-0.24021355643828324,1.091614223840828,0.314502346334731,1.2886626112672117,15.969207048412446,22.73753994883627,-15.771059491991664,0.7542562477114643,0.57265675,-0.29094946,-0.13605209,0.8188251880592852,0.5327356219179392,-0.20252579765830164,-0.06856653573173485,15.443679310097872
5.7838,65099.3311,0.9836685051102507,-2.058256390499878,-0.7532009418694003,1.1389177507184554,0.5359977785669829,1.6073541613362738,15.12971089832727,22.943949631470446,-15.027098203365838,0.7544096346575244,0.58029658,-0.27564371,-0.1346942,0.8151942444958901,0.5441121454629031,-0.18915114774846734,-0.060184385067631116,15.401350110778274
5.802,65099.3511,3.4429972519190266,-1.0586639120732064,-1.3140989545652517,1.1268055023185561,0.7007418334038391,1.7680784906129983,14.166836012635386,23.17780949288674,-14.234147606956064,0.7571549215992356,0.59016651,-0.25149727,-0.12316265,0.8112454570905325,0.5558696195676732,-0.17400590160945528,-0.051104995810034415,14.18291073038882
5.8229,65099.3711,5.544993006960011,0.39784085898352917,-1.790014955655931,1.037264217706876,0.8299415577563443,1.7181190640736825,13.156276752351515,23.33761945185922,-13.38596938077094,0.7597454299630148,0.5987466,-0.23106867,-0.10438707,0.8073548125095641,0.5668421301206222,-0.15819015505785466,-0.04294276517335863,12.75214290613037
5.8452,65099.3911,7.04394044452808,1.7860903718586851,-2.21537919866836,0.8620035119757559,0.9649692131686338,1.509085132834691,12.16865289550507,23.34769544916597,-12.53755066568731,0.7571033653850966,0.60807723,-0.22163804,-0.08895592,0.8041077570185471,0.575968499606516,-0.1424980154247703,-0.036950211956387036,12.66771236727485
5.8661,65099.4121,7.86613454364201,2.792287188348481,-2.69540292197011,0.6047839279798718,1.1239745046920124,1.244288468334995,11.242786274886866,23.187860434184422,-11.788087309311484,0.7518870406018741,0.61708337,-0.21731508,-0.08153618,0.8021246388383859,0.582504380878409,-0.12709701959466915,-0.03363120033544563,13.640936925013326
5.8879,65099.4331,8.116482311035343,3.387547684783772,-3.2713880587869526,0.29742008528230013,1.290227446752472,0.9890402539466667,10.398081654053534,22.893342547507576,-11.232699549173637,0.7485464889537795,0.62416661,-0.21060704,-0.07575534,0.8017934387639024,0.5861040686643759,-0.11191541828628479,-0.03292782106406265,14.440004528219527
5.9076,65099.4541,7.95154897124963,3.7128810924626534,-3.9310587706984204,-0.012417790064272669,1.4334034768934678,0.7363502133012019,9.656423594576985,22.524950937457664,-10.928280691320236,0.7494310806448553,0.62636995,-0.20320766,-0.06870508,0.8031300145782193,0.5868048712757026,-0.09713818651081053,-0.034733203884556106,14.886990171939688
5.9274,65099.4741,7.46321341482812,3.9180393693612774,-4.652967234420689,-0.29477728771896194,1.527737668301047,0.43942869076097324,9.054613188548874,22.12693445252397,-10.893272079546405,0.7515703934514889,0.6269232,-0.19564421,-0.0619079,0.805894974378911,0.5848418341542344,-0.08340641992693623,-0.039200617455555954,15.31481523936302
5.949,65099.4941,6.672155467743181,4.040673776591248,-5.37930379829254,-0.5500793300644709,1.5561495067035318,0.06100009739748974,8.647639975152767,21.704897294530618,-11.131915684459756,0.7529823642529373,0.62760329,-0.18936522,-0.05720562,0.8098044831059157,0.5804275483234931,-0.07170245107128242,-0.04668317468970903,15.977625861277549
5.9688,65099.5141,5.587180408507287,3.998033764991508,-5.9811373804747525,-0.7897438112265307,1.5099571465758508,-0.40155685919792367,8.501267350916137,21.233632751441878,-11.65406490956678,0.7524128929636343,0.62936419,-0.18598272,-0.05644451,0.8146152814980993,0.5736864499989391,-0.0630834516127072,-0.057500246695247836,17.041124728583654
5.9844,65099.5341,4.260460332213188,3.72038668804911,-6.289690734958157,-1.0132711035635726,1.3881677902103113,-0.9276799638744726,8.679831438507733,20.68049788938675,-12.46417991191363,0.7520160264879164,0.62870121,-0.18765786,-0.06317604,0.8200519219652853,0.5647465737051661,-0.05847187058970635,-0.07181359981965568,18.312076954965928
6.0046,65099.5541,2.7926177141788204,3.2652196341794686,-6.177979868222346,-1.2080690720004605,1.1935860522518327,-1.5022716709320538,9.240038922560752,20.02380253588699,-13.536398485758696,0.752660880021065,0.62505734,-0.193169,-0.07409898,0.8257140296087947,0.5538147238109025,-0.05862527786086095,-0.08971437896567827,19.4560511235066
6.0272,65099.5741,1.2901607733454483,2.754824111467265,-5.612972511998084,-1.3672748435694553,0.9289565096773114,-2.1157235528827467,10.228428209755648,19.24788488588355,-14.810042660189001,0.7550500483125115,0.61882883,-0.19876753,-0.08626571,0.8310914160777578,0.5411017526142136,-0.06414683309848085,-0.1112705497565692,20.061695575995405
6.0441,65099.5941,-0.16083174328069505,2.248482957912222,-4.63367344092621,-1.5004784549146737,0.6054892212958415,-2.7247614515270664,11.667539235597983,18.322358599720552,-16.208130567925743,0.7569716239467236,0.61212093,-0.20419756,-0.10298196,0.8356941131434136,0.526672349106706,-0.07528555456329997,-0.13624856409505445,20.27501500776337
6.0657,65099.6141,-1.473689250897053,1.7237497091799265,-3.3098318132022144,-1.619289075728622,0.2602604795116783,-3.2354212319793523,13.529129342198225,17.19982682212686,-17.660373864499928,0.7557339234070731,0.60439086,-0.21496782,-0.13178301,0.8391732672363045,0.5104800477085659,-0.09159298230651707,-0.1637347673513607,20.533789434448245
6.0888,65099.6341,-2.554511803999944,1.1463910536574593,-1.7271262513318963,-1.7063490112908393,-0.051079413442390864,-3.565775153301828,15.722978511558068,15.841677392193262,-19.113070382142695,0.7498095344213322,0.59510154,-0.23194754,-0.17274304,0.8412728319586465,0.492708580461757,-0.11186288870948169,-0.1923147708243156,21.05120021828614
6.1055,65099.6541,-3.3569186032772556,0.533911008925247,-0.00410468207996794,-1.702904201898658,-0.3120546999642684,-3.7540733024790502,18.140081761736628,14.230113187780436,-20.509673220417255,0.7410948288068333,0.58093578,-0.2556141,-0.21898289,0.8415195291746056,0.47413933628019406,-0.13489226118810949,-0.22099965991169823,21.795713948586606
6.126,65099.6741,-3.9297324442309445,-0.03082934668307044,1.6487358574347648,-1.5429601901053016,-0.6126636358011852,-3.992400422869215,20.73963068644032,12.328712795861257,-21.73908525368346,0.7374210486560691,0.55947196,-0.27702457,-0.25779587,0.8387178937228652,0.45617354290192896,-0.16092659757217553,-0.2501212180108392,21.305625447772062
6.1489,65099.6941,-4.363508672847654,-0.4393433694035056,2.9301432695677962,-1.2148747660625436,-1.1243977056468613,-4.500845269185875,23.59053551470545,10.017237473455976,-22.583505712213835,0.741996510747863,0.53851724,-0.28105667,-0.2836327,0.8306761144097506,0.44034307403868883,-0.19239202126337662,-0.28117695540258864,18.271338180974375
6.1675,65099.7141,-4.634811709067209,-0.6023603809431592,3.588142353516577,-0.7956583958914761,-1.956266645346186,-5.346697595712178,26.788399010399807,7.061551556950675,-22.72233013484155,0.7424357609903917,0.51676345,-0.28776515,-0.31454077,0.8145569951909089,0.42746448715628843,-0.23274668174601731,-0.3155946703320372,14.596755248041458
6.1868,65099.7341,-4.532889089759658,-0.5349180519144796,3.5936711505117667,-0.4206614511504341,-3.0284139922716182,-6.41007003638423,30.275240028445243,3.1459025021331684,-21.81701891230023,0.7249196258551011,0.49612251,-0.31383401,-0.36036399,0.7876610623151696,0.41687153129430526,-0.28422609264308213,-0.3535869137421881,12.100195599756516
6.2058,65099.7541,-3.932053385464552,-0.47148374463385156,3.2227778980442525,-0.19456972931614747,-4.099645187279203,-7.5031760017495595,33.68636084372741,-2.030213255164583,-19.635904772616815,0.6868677675308407,0.48215738,-0.35959551,-0.40795588,0.7481261137252815,0.40636989909405996,-0.3462940992521878,-0.3940193141150656,11.387661083050283
6.2285,65099.7741,-3.17098781520933,-0.7196310696090067,2.8924570032674093,-0.10896859965042882,-4.916501837594867,-8.47194993879583,36.345737196341986,-8.597066608872776,-16.181794896378022,0.6353069014973772,0.46664557,-0.41557515,-0.45378888,0.6953473938726105,0.3931638578730798,-0.4154443473774459,-0.4351093850160593,11.08679281676359
6.2522,65099.7951,-2.906333971283907,-1.2517537255917497,2.7834844660829883,-0.05251102050205336,-5.357790684845282,-9.214087780249011,37.46578378586603,-16.36801556527328,-11.774602141801779,0.5687879255494012,0.44187635,-0.47808316,-0.50265503,0.6301382671286252,0.37519501173506464,-0.4861649681144099,-0.47518216638208627,10.893519205505694
6.2685,65099.8151,-3.4773993245222603,-1.5722529549652142,2.6552805593294404,0.08922579377015105,-5.488934613787627,-9.683394684030214,36.46977681906851,-24.84330086474922,-6.963737011067501,0.4894048803636125,0.40218741,-0.5447889,-0.54948449,0.5542668569642385,0.35205136104139795,-0.5530319696581124,-0.5128388938018962,10.336808730183877
6.2941,65099.8361,-4.513821057744005,-1.1272192772503882,2.117645584597122,0.32571709555505834,-5.492061932723447,-9.905501861674955,33.16054490436866,-33.39169159673732,-2.3216342539548847,0.4097605566122075,0.35517815,-0.59780228,-0.59040427,0.4696599939804529,0.32461539455453725,-0.6124146405365422,-0.5468021979920902,9.337883336666794
6.3178,65099.8561,-5.246352468339776,0.17993291501351297,1.0607730753870324,0.5589726003107662,-5.5030930245055725,-9.947862286139651,27.658357906837704,-41.40879135687012,1.7150253719052482,0.3357980520720869,0.31495708,-0.63049084,-0.6249184,0.3781347397196679,0.2940101112377235,-0.6626713102223205,-0.5757073108058933,8.644779316706234
6.3341,65099.8761,-5.1080651479775385,1.9303475343278313,-0.26425709057631197,0.6955203357873017,-5.491294968822595,-9.816863682278266,20.34931841676848,-48.34072489788056,4.8658514251467375,0.2594835489535785,0.27557215,-0.65630418,-0.65268147,0.28222716232850287,0.26117842463223834,-0.7030683537490647,-0.5981877207927317,8.789846565189283
6.3492,65099.8961,-3.9944059093052577,3.5212610414069165,-1.491755931439251,0.7352108012171006,-5.290452121344983,-9.374031705139545,11.99982567688265,-53.739932355038704,6.975880626612851,0.1725738388637833,0.22712535,-0.68057251,-0.67487288,0.18659139395807353,0.22752307344050593,-0.7328568931601571,-0.6134636720300651,9.38332288185154
6.3697,65099.9161,-2.2261983725961807,4.501124258991366,-2.3310890979161827,0.7471857474998158,-4.742679801843466,-8.391289069599798,3.828630964947958,-57.47739459314992,8.057096417378158,0.0714601293048827,0.17241783,-0.70221734,-0.68706357,0.09844003247917578,0.195712209486976,-0.7516233574277574,-0.6221483903637866,10.204903256934173
6.39,65099.9361,-0.40723747438135394,4.785563722841414,-2.64292990218318,0.7800749014007408,-3.8375874209613094,-6.733474803662211,-2.7609226685381802,-59.91454985322348,8.35191933811446,0.029338242838953,-0.11786004,0.7150144,0.68847853,0.025897044739943375,0.16954742400887995,-0.7603368927053472,-0.6264749186335139,12.35909699122534
6.4156,65099.9561,0.8878899430708779,4.620731803313289,-2.467204396948724,0.8064735234905553,-2.7443226886609593,-4.528385960028381,-6.724667739576575,-61.71543933519214,8.250579171633671,0.1102389992399166,-0.07397051,0.7147764,0.68663704,-0.02515517838736229,0.15268875850530217,-0.7615720526805481,-0.6293340675685261,15.770044839655291
6.4406,65099.9771,1.434713192178903,4.262823349699345,-1.9645442454803503,0.7595615535250012,-1.718077353247676,-2.1536901661152696,-7.764425507794176,-63.36887884861372,8.087432281826548,0.1504157826410017,-0.05695128,0.7036674,0.69208658,-0.053487170898241405,0.1471876293791853,-0.758443633557588,-0.6326438010626524,17.796802104128297
6.4487,65099.9971,1.452088330693595,3.7703426645715994,-1.3284308234839526,0.6065469472004107,-0.9467348579151368,-0.00033073916203857356,-6.260851991508415,-64.91584412474641,8.032172664359114,0.145829070985015,-0.06519148,0.69157887,0.70441651,-0.06205346155049196,0.15307733369329,-0.7533191539741675,-0.6365743869137365,17.454636850459348
6.4703,65100.0171,1.4270337344948283,3.156813972373214,-0.7344170234163934,0.3747193533252473,-0.4414512635486355,1.779333536634269,-2.8661630536771576,-66.10390082937289,8.132670845831553,0.1343524756101925,-0.08068965,0.6805445,0.7157498,-0.055045873103952286,0.16920006700505733,-0.7472621552374107,-0.6402660076324899,17.871117020116543
6.4903,65100.0371,1.7761230281602853,2.6160085081728464,-0.30952551787593174,0.11649080440830217,-0.04900261678375317,3.2911446458878233,1.9159033992136525,-66.64829704699268,8.38128256729022,0.128222696715886,-0.09551515,0.67505735,0.72023147,-0.03496386469792368,0.19412207143858468,-0.7401305146148118,-0.6428848815159613,19.41512133370957
6.5133,65100.0571,2.551171430597272,2.511263792714489,-0.12904318363424006,-0.1451448352406557,0.44155168829767727,4.718386029234649,7.886586289546255,-66.29668277125592,8.72552812784753,0.1183334061070324,-0.12014479,0.67194158,0.72114974,-0.0016257023055342363,0.22625864286086572,-0.73091643823437,-0.6438676447388513,21.262854093304355
6.5303,65100.0781,3.334136427855031,3.143159916233516,-0.25557384395952143,-0.4404083547402342,1.1853178041338237,6.176881507572547,15.031270181574563,-64.7408191996834,9.038765747876058,0.0947192408353633,-0.16146797,0.66506386,0.72294289,0.04702254142964646,0.2635953350132036,-0.7180174012193709,-0.6424619766981973,22.899599410055643
6.5534,65100.0981,3.3844608716549245,4.459130832738583,-0.7470326507086988,-0.8273036626433841,2.218796970763464,7.714177908171573,23.312941337695143,-61.53124292368105,9.071584883944045,0.0510175491842013,-0.21805926,0.65349388,0.72304434,0.11351483301149279,0.30372302069370666,-0.6992002325748498,-0.6371701061367672,24.0462093297196
6.5741,65100.1181,2.021750848923631,5.893881634187935,-1.5393538210073978,-1.3408593649059624,3.4556172661659557,9.352045021380382,32.46825554243942,-56.06772175873428,8.401451531989112,0.0045126520309303,0.27224648,-0.63870907,-0.71966118,0.19951452208713955,0.3441127355825693,-0.6713062435737603,-0.6254025168042645,26.474058546345937
6.589,65100.1381,-0.9203954010283095,6.492532342742122,-2.2854543887141596,-1.9501581235511944,4.720850033732981,11.062420247447147,41.748172623757505,-47.7309394491011,6.458257277789645,0.0788742045294838,0.32317644,-0.61953419,-0.71099454,0.30438158996150944,0.382044190912528,-0.6303023010523411,-0.6034178429335839,29.52239870444371
6.6183,65100.1581,-4.7718868515582855,5.316558338316722,-2.3865179266502268,-2.560996346516607,5.808262315241228,12.704793615383382,49.69827614444796,-36.25328200444868,2.772996398157443,0.1804939837082932,0.37615398,-0.58965677,-0.69154537,0.42350980288030304,0.41442676247683496,-0.5726349032067359,-0.5665502387579305,31.78277072482349
6.6344,65100.1791,-7.990055594365053,2.0126763073893836,-1.3421824273651102,-3.0558375475128092,6.511392336977551,14.038885832322796,54.36648626918051,-22.274615176429073,-2.7015892429758717,0.3131348613546165,0.42742065,-0.534289,-0.65862995,0.547126806837535,0.43845998367778977,-0.4970801110377598,-0.5111912197639192,32.10794860843027
6.6513,65100.2001,-8.73888599246775,-2.6192018574476488,0.7330728245703102,-3.288717535343193,6.672238295116931,14.819119969029432,54.17197056035856,-7.544486661406047,-9.391211998558031,0.4576051631649129,0.4685244,-0.45299423,-0.60487902,0.6625364753060142,0.4524826990690473,-0.4061376553979086,-0.43744374586929774,30.945322867278392
6.6753,65100.2201,-6.1682770922326045,-6.701963183645999,2.9529372563493737,-3.1139932591155985,6.279660513983801,14.873903086904061,48.857716358602325,5.65409659782714,-16.17495094830917,0.5902512014367106,0.49677846,-0.356107,-0.52725941,0.7581554438705047,0.45709128129513343,-0.30633622799300847,-0.3498942681904159,28.999476148460065
6.6955,65100.2401,-1.2648993297999613,-8.39650316310417,4.210496605209739,-2.4720432670660215,5.517119769277748,14.155343995703262,39.690056688351575,15.554755895465725,-21.90657050215981,0.6982570145434435,0.51235515,-0.25221518,-0.43164435,0.8271658631915524,0.4554043715859922,-0.2061688139604801,-0.2567058886373088,26.33529272609541
6.7129,65100.2601,3.724134032532221,-7.120612319651699,3.9130043597540722,-1.481823355689766,4.693687843182831,12.757961844372995,28.69728187065833,21.622930163217397,-25.936118855960654,0.7742829659010064,0.5171982,-0.1596216,-0.32789153,0.8690032103112646,0.4518253596555095,-0.11290732575925021,-0.16715023371440393,23.3182448452664
6.7354,65100.2811,6.683230958115976,-3.8180452771962092,2.2411160956634855,-0.4392149833371921,4.067015736470864,10.91156842686502,17.6424369282977,24.429161145775588,-28.227149921273735,0.8129816930430632,0.52867389,-0.08172368,-0.2299694,0.8881845176353846,0.4498132590925184,-0.030297880861629982,-0.08875997404607938,21.30250265469109
6.7604,65100.3011,6.742137892492477,-0.26961156511968243,-0.07033483411695807,0.3292492262428279,3.695597687243106,8.944198699559873,7.547021868525925,24.98973032476009,-29.11171436574434,0.8277315232749903,0.54280996,-0.0128134,-0.14161105,0.8916481922917349,0.4501424843130504,0.041237160582968564,-0.02519407839971279,19.587464699298973
6.7716,65100.3211,4.565559396127613,1.9924430995625038,-2.169840067167868,0.6693013562297557,3.445970266961174,7.194040664896594,-1.199302818677141,24.244155321189254,-29.015635440029854,0.8279062141038359,0.55446035,0.0353055,-0.07680197,0.8859994869569218,0.45148464414812695,0.10286939154605872,0.024174645673811935,19.44989705463666
6.7948,65100.3411,1.731664321723706,2.4965901364881735,-3.4899051470441758,0.6800519502562143,3.1475920010376406,5.865436552142059,-8.591078537752155,22.85388559090613,-28.336792072720257,0.8222523349623881,0.56272948,0.07833548,-0.033169,0.8759366596219249,0.4521440715758826,0.15609898121975763,0.06272013178653846,19.98961469616831
6.8187,65100.3611,-0.337253615023113,1.8784518415976381,-3.8973574940434417,0.5916581514203907,2.7300218355821166,4.928278881794882,-14.780387241237328,21.214097610698452,-27.394063372838527,0.8172094660272581,0.56375206,0.11973999,0.003826,0.8641098036893331,0.45137917087545815,0.20173409614261795,0.09420427655519056,19.779069632735652
6.8364,65100.3811,-1.1131075802198667,1.2522174216628827,-3.5757704914644575,0.573562189519192,2.2281907278456545,4.165288671139796,-19.90510590580899,19.578420158273865,-26.36626235809016,0.8172794341248835,0.5532313,0.15572499,0.04170351,0.8517818174893294,0.45003760901604123,0.23940493963653667,0.12090972145913594,18.179311369227477
6.8557,65100.4011,-0.9166976345090807,1.394355925647631,-2.753159073133808,0.6393845487000667,1.7102731055334481,3.3369142349610503,-23.980619477749475,18.11452592997271,-25.22662249293136,0.8140095190730392,0.54194087,0.19204988,0.08249509,0.8398286054508488,0.44974888394945955,0.2683042739771279,0.1429219067123877,15.653862132959711
6.875,65100.4211,-0.3492934832667927,2.2909502519807847,-1.5269287555981124,0.6930249315133604,1.2262595310236293,2.3505832197241343,-26.808837268182096,16.853734416462412,-23.69957365670006,0.8023806578796916,0.53964037,0.22428286,0.12112287,0.8293899065866822,0.451478792483847,0.28808783281156364,0.15901158251963368,13.570745219559436
6.9007,65100.4411,0.08319366963030955,3.320538384402936,0.019760215649293318,0.6469379854872142,0.790928646814019,1.3150840584143875,-27.963140715759348,15.596797355883616,-21.25914635675232,0.7913687059566749,0.5445658,0.2363065,0.14609209,0.8216124279099888,0.4549409696969537,0.2993791349280053,0.16838606226409636,13.283485891704002
6.9159,65100.4609,-0.027088574217235664,3.7930202756222244,1.6489142715934526,0.5107143125607246,0.3593030600817227,0.4310903168264206,-26.897403630435594,13.882702750997378,-17.23588169340648,0.7848101431019439,0.5557726,0.22841837,0.15170664,0.8170970055357367,0.45909074773838193,0.30330528915558047,0.17202927208994184,14.689804061988925
6.9334,65100.4811,-0.9158735500469862,3.3640471115271353,3.010297006576175,0.3992838848064132,-0.1796718879495711,-0.18435518587862698,-23.258114767918208,11.165709698106317,-11.085576807636844,0.7803094653390634,0.56617332,0.22136305,0.14684451,0.8157713683984084,0.46313865661535825,0.3003403369396159,0.17267119405652892,15.715168664781848
6.9537,65100.5011,-2.4364407894526185,2.1168410703824585,3.753181501663231,0.46796692687998137,-0.9424173988090595,-0.56398821386729,-17.48307234768802,7.2145138664650466,-2.8913196411409547,0.7787844461512989,0.56835312,0.22411084,0.14228088,0.8170459426232721,0.4673647573877979,0.28950417043786897,0.17376261535144652,14.9206474978116
6.9717,65100.5211,-4.081433822444038,0.39329505985217095,3.56664555597335,0.8274689220098328,-1.9606873017072366,-0.8009498013724774,-11.242557396869664,2.412403517264722,6.170099781574084,0.780159383329789,0.56544638,0.22765358,0.14069675,0.819802318339065,0.4730948873936712,0.26881441762675484,0.17844941928695826,13.182725947295632
6.991,65100.5411,-5.294918053668094,-1.4310981335015778,2.235525839107422,1.497795908111739,-3.1506190287424207,-0.9273074218832176,-6.720112995547911,-2.473801444315935,14.18764795518581,0.783180226882539,0.5657683,0.21354793,0.1446798,0.8221929083913044,0.48189234644177187,0.23664705534150798,0.18914745314194586,12.061179578449112
7.011,65100.5611,-5.717172863001283,-2.997857337164956,-0.2708618051527538,2.410038082931255,-4.371896251691359,-0.8824142726787758,-5.1316783896243745,-6.858139353098124,19.634656915509083,0.7882134642392141,0.56926197,0.17914169,0.15022849,0.8216263732714417,0.49459987453418763,0.19281826223749174,0.2076588177836356,11.564544360385717
