AppTimestamp(s),SensorTimestamp(s),gyro_x,gyro_y,gyro_z
0.0447,16441.1245,0.21193,-0.12609,-0.15211
0.0467,16441.1445,-0.01531,-0.11632,0.09041
0.0488,16441.1645,-0.22178,-0.32584,0.17104
0.0625,16441.1846,-0.17841,-0.62578,0.16677
0.0828,16441.2046,-0.18635,-0.9923,-0.011
0.1104,16441.2246,-0.48506,-1.30323,0.0562
0.1167,16441.2446,-1.43679,-1.86461,0.50396
0.1416,16441.2647,-2.2804,-2.27145,0.50091
0.1593,16441.2847,-2.81307,-2.53168,0.60659
0.1783,16441.3047,-2.33965,-0.897,0.62308
0.1971,16441.3247,-0.67687,0.22088,0.51679
0.2194,16441.3447,0.79226,-0.34173,0.09041
0.237,16441.3647,1.09341,0.09871,-0.17776
0.258,16441.3847,0.5247,0.82991,-0.00977
0.279,16441.4047,-0.39343,0.67964,0.02566
0.2975,16441.4247,-0.45818,-0.12792,-0.09468
0.317,16441.4447,0.32739,-0.44741,-0.20586
0.3413,16441.4647,0.78187,-0.10044,-0.49663
0.3576,16441.4847,0.40986,0.17873,-0.58216
0.3781,16441.5046,-0.10694,0.83358,-0.33292
0.3993,16441.5246,-0.11243,0.69674,-0.22663
0.4177,16441.5446,0.10748,-0.04118,-0.0733
0.4367,16441.5646,0.28524,-0.11937,0.00855
0.4589,16441.5846,0.22415,0.0645,-0.06536
0.4783,16441.6046,0.07571,0.30884,-0.08186
0.4974,16441.6246,0.02868,0.41025,-0.10507
0.5195,16441.6446,0.01829,0.32289,-0.02749
0.5365,16441.6646,0.09343,0.08344,0.08002
0.5575,16441.6846,0.17956,0.09748,-0.11118
0.5792,16441.7046,0.22904,0.30212,-0.13806
0.6015,16441.7246,0.13374,0.33511,-0.15638
0.6243,16441.7446,-0.09289,0.25387,0.12034
0.6396,16441.7646,0.02134,0.05778,0.34819
0.658,16441.7846,0.2828,-0.59157,0.26695
0.6778,16441.8047,0.26752,-0.56775,0.10568
0.7,16441.8247,0.12886,-0.10532,0.0562
0.7185,16441.8447,-0.00859,0.08405,0.03054
0.7381,16441.8648,-0.09777,0.12314,0.00916
0.76,16441.8848,-0.03485,-0.00148,-0.00672
0.7786,16441.9048,0.19422,-0.1151,0.04581
0.8016,16441.9248,0.21927,-0.087,0.04093
0.8224,16441.9449,0.07816,-0.07539,0.08735
0.8459,16441.9649,-0.02752,0.06267,0.50946
0.8607,16441.9849,0.01035,-0.10227,0.34514
0.8851,16442.005,0.15268,-0.15358,0.08613
0.9001,16442.025,0.19361,-0.2055,0.0562
0.9219,16442.045,0.08671,-0.01064,0.08002
0.9434,16442.065,0.01707,0.08038,0.06597
0.9636,16442.0851,-0.06662,-0.01797,0.06475
0.9807,16442.1051,-0.05257,-0.12548,0.11667
1.0002,16442.1251,-0.05135,-0.00392,0.06597
1.0199,16442.1452,-0.04402,-0.17191,0.05253
1.0398,16442.1652,-0.06967,-0.23421,0.05498
1.0608,16442.1852,0.04089,-0.31302,0.03299
1.081,16442.2052,0.10809,-0.42236,0.03665
1.1063,16442.2253,0.02929,-0.32523,0.06231
1.1206,16442.2453,-0.02142,-0.25865,0.12645
1.1418,16442.2653,0.05128,-0.32462,0.12462
1.163,16442.2854,0.15818,-0.52926,0.00611
1.1852,16442.3054,0.10503,-0.28797,0.00489
1.2057,16442.3254,-0.01347,-0.00025,-0.05742
1.2262,16442.3454,-0.0825,0.1659,-0.11362
1.2566,16442.3654,-0.04585,0.10359,-0.13561
1.2678,16442.3854,-0.02203,0.03823,-0.18021
1.2826,16442.4054,-0.01225,0.00097,-0.16371
1.3036,16442.4254,0.03051,0.00402,-0.10751
1.3188,16442.4454,0.07693,-0.02652,0.04887
1.3388,16442.4654,0.10626,-0.0705,0.02566
1.3628,16442.4854,0.06838,-0.06378,-0.01283
1.3789,16442.5054,-0.00187,0.07061,-0.07086
1.3987,16442.5254,0.0189,0.14086,-0.09102
1.4216,16442.5454,0.03173,0.06267,-0.0452
1.4407,16442.5654,0.03539,0.07549,0.00244
1.4997,16442.5854,0.11786,0.07672,-0.04032
1.5035,16442.6054,0.11542,0.00341,-0.04276
1.5063,16442.6254,-0.00981,-0.04424,-0.06597
1.518,16442.6454,-0.06418,-0.08211,-0.09346
1.5392,16442.6654,-0.04646,-0.09555,-0.03665
1.5573,16442.6854,-0.01042,-0.03568,-0.02138
1.5751,16442.7054,-0.00675,-0.06439,-0.02077
1.5992,16442.7254,-0.06173,-0.01491,0.00489
1.6185,16442.7453,-0.12832,0.0028,0.01649
1.6379,16442.7653,-0.17108,0.05839,0.00611
1.6603,16442.7853,-0.04157,0.07366,0.00733
1.6788,16442.8053,0.02562,-0.02041,0.09468
1.6986,16442.8253,-0.01836,-0.13892,0.06903
1.7201,16442.8453,-0.03852,-0.28736,0.05681
1.7382,16442.8653,0.03112,-0.29713,0.08919
1.7639,16442.8853,-0.01592,-0.13342,0.08796
1.7881,16442.9053,-0.10388,-0.06745,0.08491
1.8029,16442.9253,-0.15092,-0.20856,0.04948
1.8253,16442.9453,-0.13015,-0.28675,0.02443
1.8459,16442.9653,-0.14053,-0.23238,0.03054
1.8636,16442.9853,-0.08678,-0.22261,0.10201
1.8883,16443.0053,0.02929,-0.25621,0.12339
1.9058,16443.0253,0.00974,-0.25071,0.14905
1.9225,16443.0453,-0.04646,-0.29897,0.08674
1.9412,16443.0653,0.01157,-0.38632,0.15455
1.9634,16443.0853,0.19178,-0.65205,0.19487
1.9898,16443.1053,0.32067,-0.87318,0.26023
2.0017,16443.1253,0.08793,-0.61601,0.33353
2.0246,16443.1452,-0.03058,-0.58668,0.38362
2.0865,16443.1652,0.18322,-1.04239,0.39706
2.0925,16443.1852,0.70674,-2.0436,0.51985
2.0983,16443.2052,1.34142,-3.00754,0.73976
2.103,16443.2252,1.40129,-3.36856,0.91263
2.1234,16443.2452,1.24185,-3.48952,0.96883
2.1401,16443.2652,1.26812,-3.78823,0.98471
2.1575,16443.2852,1.41167,-4.50661,1.18202
2.178,16443.3052,1.8796,-5.63732,1.10689
2.2064,16443.3252,2.75558,-6.75581,1.09039
2.2252,16443.3452,3.50083,-7.82238,1.18202
2.2469,16443.3652,4.09643,-8.70508,1.48929
2.2602,16443.3852,4.74028,-8.38988,1.97615
2.2798,16443.4052,5.15689,-7.43204,2.2376
2.3011,16443.4252,5.39635,-5.94275,2.67681
2.3219,16443.4452,5.61198,-4.68498,3.06288
2.3467,16443.4652,5.64375,-2.96662,3.24858
2.3649,16443.4852,5.66146,-1.96785,3.40557
2.3807,16443.5052,6.3945,-1.72045,3.34998
2.3987,16443.5252,7.0408,-1.45656,2.95659
2.4183,16443.5452,7.30347,-0.88112,2.3274
2.4398,16443.5652,7.46962,-0.81576,1.90346
2.4623,16443.5851,7.47451,-1.4535,1.29931
2.4824,16443.6051,7.11471,-1.86706,0.53267
2.5032,16443.6251,6.38412,-1.25497,0.04215
2.5194,16443.6451,5.64314,-0.51033,-0.61087
2.5407,16443.6651,4.99562,-0.29041,-1.69088
2.5638,16443.6851,4.35971,-0.27209,-2.82892
2.5867,16443.7051,3.76534,0.05961,-3.67374
2.6106,16443.7251,3.25649,0.80975,-4.25956
2.6325,16443.7451,3.02741,1.26668,-4.6328
2.6513,16443.7651,3.11354,1.33082,-4.97183
2.668,16443.7851,3.27603,1.22209,-5.50878
2.6788,16443.8051,3.07934,1.19582,-6.19723
2.6989,16443.8251,2.59492,1.35037,-6.86857
2.717,16443.8451,1.88937,1.80608,-7.13918
2.7399,16443.8651,1.29011,2.10418,-6.92782
2.7569,16443.8851,1.29927,1.88671,-6.75861
2.7774,16443.9051,1.7,1.40046,-6.78488
2.7991,16443.9251,1.565,1.43223,-6.95715
2.8188,16443.9451,0.86861,2.24956,-7.18927
2.8382,16443.9651,0.27363,3.36989,-7.44278
2.8664,16443.985,-0.0544,3.90379,-7.4269
2.8778,16444.005,-0.1161,4.14141,-7.49837
2.8986,16444.025,-0.43375,4.56047,-7.46111
2.9209,16444.045,-0.96765,5.018,-7.174
2.9434,16444.065,-1.6451,4.77244,-6.89911
2.9592,16444.085,-2.28834,3.78833,-6.7018
2.9866,16444.105,-2.69639,2.44932,-6.49411
2.9994,16444.125,-3.25717,1.04921,-6.24854
3.0263,16444.145,-3.80817,-0.26109,-6.37194
3.0436,16444.165,-4.45324,-0.79193,-6.48372
3.0613,16444.185,-4.79716,-0.62334,-6.49411
3.0807,16444.205,-4.72691,-0.95565,-6.20089
3.102,16444.225,-4.12765,-1.6557,-5.48191
3.1192,16444.245,-3.67011,-1.8078,-4.95534
3.1416,16444.265,-3.46486,-1.71312,-4.90219
3.1759,16444.285,-3.28771,-2.50541,-4.89914
3.1844,16444.305,-3.08429,-2.87315,-4.50941
3.2003,16444.325,-2.89981,-2.39851,-4.1325
3.2218,16444.345,-2.4942,-2.38324,-4.31149
3.2383,16444.365,-2.20343,-2.34109,-4.39029
3.259,16444.3849,-1.62555,-2.60315,-4.31699
3.2844,16444.4049,-0.26149,-2.92752,-4.74948
3.3052,16444.4249,1.04332,-3.36551,-5.60469
3.3225,16444.4449,2.01582,-3.77601,-6.06284
3.3444,16444.4649,2.51429,-3.73447,-6.10988
3.3566,16444.4849,3.14226,-3.68744,-5.97854
3.3781,16444.5049,3.75129,-3.43209,-6.22166
3.4003,16444.5249,4.42263,-3.24395,-6.72196
3.4406,16444.5449,5.36764,-2.95501,-7.14957
3.4429,16444.5649,5.69078,-2.22197,-6.68592
3.4583,16444.5849,5.53685,-1.58117,-5.58331
3.4766,16444.6049,4.96202,-1.28368,-4.7452
3.4964,16444.6249,3.93638,-0.94465,-4.19054
3.5194,16444.6449,3.52588,-0.87013,-3.76232
3.5387,16444.6649,4.00358,-0.91655,-3.31944
3.5577,16444.6849,4.52709,-1.06072,-3.00301
3.5774,16444.7049,5.08175,-0.54026,-2.34267
3.6068,16444.7249,5.56434,0.09015,-1.76723
3.6172,16444.7449,6.01821,-0.06501,-1.57603
3.6389,16444.7649,6.3212,-0.50666,-1.42026
3.6575,16444.7848,6.72864,-1.46389,-1.11055
3.6787,16444.8048,7.83126,-2.45349,-0.51191
3.7022,16444.8248,8.10737,-1.49626,0.21686
3.7218,16444.8448,7.71641,0.13292,0.97066
3.7411,16444.8648,6.64557,0.66681,1.80755
3.7653,16444.8848,6.22346,1.01928,2.10321
3.7875,16444.9048,6.84776,1.37847,1.83198
3.801,16444.9248,7.32363,1.7737,0.92363
3.8246,16444.9448,6.65473,1.59655,0.84238
3.8414,16444.9648,6.27905,0.86168,1.04152
3.8636,16444.9848,6.46964,-0.21833,0.7929
3.8835,16445.0048,6.75613,-0.47184,-0.07086
3.9033,16445.0248,6.0964,1.09991,-0.74648
3.9229,16445.0448,4.92904,2.70954,-0.8882
3.9439,16445.0648,4.58145,3.0388,-1.26999
3.963,16445.0848,4.73295,2.62097,-2.10443
3.9815,16445.1048,4.65903,2.36074,-2.77089
4.0031,16445.1248,4.48799,2.73031,-3.39214
4.0228,16445.1448,4.20944,3.15425,-4.00178
4.0392,16445.1648,3.88262,3.44075,-4.68228
4.064,16445.1847,3.29864,3.23855,-5.35546
4.0783,16445.2047,2.44709,2.62525,-5.72625
4.098,16445.2247,1.77147,2.35341,-5.68471
4.1242,16445.2447,1.39335,1.85372,-5.59064
4.1432,16445.2647,1.39885,1.51347,-5.6786
4.1629,16445.2847,1.36219,1.49759,-6.06406
4.1843,16445.3047,1.01644,2.15732,-6.20578
4.2012,16445.3247,0.77943,2.52995,-6.4037
4.2214,16445.3447,0.45323,2.44809,-6.63522
4.2512,16445.3647,-0.04707,2.4652,-6.84108
4.2614,16445.3847,-0.92977,3.10722,-6.62361
4.2824,16445.4047,-1.19306,3.72847,-6.08911
4.3038,16445.4247,-0.97375,3.62034,-5.87836
4.3214,16445.4447,-1.05805,3.35217,-6.13003
4.3418,16445.4647,-1.63838,3.51161,-6.6059
4.3609,16445.4847,-2.41662,4.09071,-6.52893
4.3811,16445.5047,-3.12461,4.39248,-6.17524
4.4026,16445.5247,-3.58643,4.01557,-6.37255
4.4247,16445.5447,-3.89552,3.21045,-6.97486
4.4429,16445.5647,-4.07329,2.11517,-7.33344
4.4625,16445.5847,-4.33046,0.82319,-7.11719
4.4942,16445.6046,-4.46302,-0.52621,-6.65171
4.5022,16445.6246,-3.97677,-1.95563,-6.39087
4.5184,16445.6446,-3.34819,-3.10223,-6.13187
4.5439,16445.6646,-3.08368,-2.7351,-5.92784
4.5616,16445.6846,-3.13255,-2.49625,-5.3524
4.5831,16445.7046,-3.01099,-3.25372,-5.23878
4.6095,16445.7246,-2.8033,-3.69721,-5.0317
4.6202,16445.7446,-2.52596,-3.58176,-4.90464
4.6397,16445.7646,-1.89922,-3.00143,-5.20213
4.6617,16445.7846,-0.37205,-3.21096,-5.77023
4.6794,16445.8046,1.23452,-3.41071,-6.31146
4.698,16445.8247,2.44709,-3.18653,-6.25893
4.7198,16445.8447,2.75436,-2.64591,-6.10499
4.7418,16445.8647,2.74275,-1.9483,-5.83499
4.7639,16445.8847,3.43181,-2.2403,-5.80994
4.786,16445.9048,4.62788,-3.16209,-6.45624
4.802,16445.9248,6.0909,-4.18957,-7.17461
4.835,16445.9448,6.77141,-3.59153,-7.36032
4.8526,16445.9649,5.33526,-1.87011,-6.59796
4.8651,16445.9849,4.83496,-2.15722,-5.65539
4.8846,16446.0049,5.64497,-3.60558,-4.91808
4.901,16446.0249,6.14038,-4.44552,-4.16183
4.9191,16446.045,6.20208,-4.08633,-3.23698
4.9448,16446.065,6.37923,-3.42049,-2.33473
4.9625,16446.085,6.90457,-3.2189,-1.74463
4.9791,16446.1051,7.17702,-3.81083,-1.46363
4.999,16446.1251,6.84776,-3.31725,-0.89736
5.0254,16446.1451,6.18681,-1.6838,-0.63408
5.0496,16446.1651,5.52952,-0.211,-0.2529
5.066,16446.1852,5.64375,0.24837,0.45509
5.0835,16446.2052,6.06402,0.13963,0.83261
5.0976,16446.2252,6.58265,0.31862,0.68661
5.1183,16446.2453,6.74575,1.16955,0.24007
5.1503,16446.2653,6.70604,1.87999,0.07086
5.1716,16446.2853,6.49102,1.94413,0.45632
5.1847,16446.3053,6.84227,1.03333,0.89614
5.2052,16446.3254,7.54293,-0.01614,0.97677
5.2204,16446.3454,7.73963,0.13169,0.14355
5.2413,16446.3654,6.78484,1.65397,-0.83689
5.2592,16446.3855,5.36642,3.17441,-2.18384
5.278,16446.4055,4.27724,3.85125,-3.02867
5.298,16446.4254,3.98769,3.69731,-3.51675
5.3199,16446.4454,4.10437,3.10661,-3.9804
5.338,16446.4654,4.40125,2.73398,-4.71527
5.3632,16446.4854,4.22654,2.97588,-5.84537
5.3891,16446.5055,3.23144,3.4267,-6.86246
5.4032,16446.5255,2.32492,3.75046,-7.26746
5.423,16446.5455,1.81912,3.46824,-7.05183
5.4459,16446.5655,1.91686,3.19763,-6.69386
5.4646,16446.5856,2.07202,3.04186,-6.32001
5.4904,16446.6056,2.19297,2.68816,-5.95899
5.5028,16446.6256,1.79896,2.60936,-5.85392
5.5258,16446.6457,0.98773,2.96794,-5.56559
5.54,16446.6657,0.54425,3.14082,-5.57781
5.5928,16446.6857,-0.00309,3.15059,-5.70182
5.5974,16446.7057,-0.6054,3.31369,-5.9651
5.6003,16446.7258,-1.45451,3.92333,-6.21983
5.6214,16446.7458,-2.2804,4.56719,-6.52587
5.637,16446.7658,-2.7587,4.92882,-6.57047
5.6575,16446.7859,-3.12339,4.57391,-6.69569
5.6791,16446.8059,-3.76113,3.45052,-6.93699
5.6992,16446.8259,-4.36772,1.99178,-7.39697
5.7196,16446.8459,-4.7935,0.82319,-7.65781
5.7426,16446.866,-4.83687,0.16163,-7.36032
5.761,16446.886,-4.68171,-0.39243,-6.97303
5.7821,16446.906,-4.1979,-0.69786,-6.91744
5.8042,16446.9261,-3.51068,-1.23787,-6.68042
5.8231,16446.9461,-2.88027,-2.31116,-6.53992
5.8428,16446.9661,-2.35736,-3.46814,-6.46112
5.8651,16446.9861,-2.04155,-3.93545,-6.62056
5.8894,16447.0062,-1.27369,-3.84321,-6.77327
5.9044,16447.0262,-0.07517,-4.14497,-6.37804
5.9298,16447.0462,0.24798,-3.95561,-5.91806
5.9422,16447.0663,0.76782,-3.3594,-5.53688
5.9626,16447.0863,1.21253,-2.76381,-5.27727
5.9883,16447.1063,1.61631,-2.46448,-5.06652
6.0089,16447.1263,1.93641,-2.33315,-5.04453
6.0195,16447.1463,2.35057,-2.34292,-5.23817
6.0413,16447.1663,2.72992,-2.24396,-5.41105
6.0604,16447.1863,2.98954,-2.23907,-5.30109
6.0843,16447.2063,2.7623,-1.70823,-5.08301
6.1102,16447.2263,2.50451,-1.60377,-4.80873
6.1209,16447.2462,2.47824,-1.81208,-4.86371
6.1411,16447.2662,2.63402,-1.92998,-4.98527
6.1629,16447.2862,2.85759,-1.97824,-4.76597
6.1808,16447.3062,2.87286,-1.89821,-4.21131
6.2012,16447.3262,2.89058,-1.80964,-3.61816
6.2226,16447.3462,2.45686,-1.4926,-3.25041
6.2408,16447.3662,1.97672,-1.33622,-3.07876
6.2601,16447.3862,2.98587,-2.37285,-2.91505
6.2812,16447.4062,3.76351,-2.9825,-2.73546
6.303,16447.4262,3.94554,-3.0442,-2.54303
6.3233,16447.4462,4.20272,-2.69906,-2.20828
6.3467,16447.4662,4.64132,-2.21647,-1.72447
6.363,16447.4862,5.14712,-2.40401,-1.29076
6.3836,16447.5062,5.71644,-2.63797,-0.81062
6.4052,16447.5262,6.02065,-1.34721,-0.17593
6.4232,16447.5462,6.10862,0.04923,0.67256
6.4431,16447.5662,5.60404,1.17322,1.60474
6.4667,16447.5862,5.57472,1.7792,2.16674
6.49,16447.6062,6.44581,1.27829,2.15635
6.5006,16447.6262,7.3163,1.0431,1.87902
6.5225,16447.6462,7.65655,0.94598,1.44286
6.5395,16447.6661,7.37861,0.69735,0.79351
6.5605,16447.6861,6.99498,0.35038,0.26634
6.5855,16447.7061,6.61197,0.42796,-0.12523
6.611,16447.7261,6.25339,1.18788,-0.73182
6.623,16447.7461,5.71217,2.17015,-1.40316
6.6403,16447.7661,5.12696,2.73642,-1.89368
6.659,16447.7861,5.02922,2.19886,-1.87047
6.6785,16447.8061,5.2589,1.5996,-2.12031
6.7002,16447.8261,5.31632,1.9032,-2.83747
6.7187,16447.8461,4.93026,2.89341,-3.83685
6.7387,16447.8661,4.24426,3.58553,-4.94862
6.761,16447.8861,3.31757,3.57392,-5.34996
6.783,16447.9061,2.86431,3.12371,-5.43059
6.8023,16447.9261,2.66089,2.48536,-5.52222
6.8244,16447.9461,2.48252,2.27217,-5.72442
6.8447,16447.9661,2.21924,2.42061,-6.16607
6.871,16447.9861,1.846,2.54033,-6.73662
6.8981,16448.0061,1.43122,2.67289,-7.17034
6.903,16448.0261,0.94131,3.07545,-7.22959
6.9225,16448.0461,0.45139,3.38272,-6.93821
6.9446,16448.066,0.21255,3.27765,-6.56558
6.9615,16448.086,-0.25354,3.00704,-6.48861
6.9786,16448.106,-1.05011,3.36195,-6.53687
7.0008,16448.126,-1.63838,4.28558,-6.45257
7.0203,16448.146,-2.28345,5.47127,-5.92051
7.039,16448.166,-2.70311,5.24341,-5.38783
7.0627,16448.186,-3.03298,3.96854,-5.05613
7.0813,16448.206,-3.62186,2.19031,-5.02864
7.0999,16448.226,-4.25654,0.54036,-5.26138
7.1233,16448.246,-4.54426,0.04556,-5.60102
7.139,16448.266,-4.90162,0.30701,-6.12454
7.16,16448.286,-5.21255,0.51226,-6.52954
7.185,16448.306,-5.5699,0.44446,-6.51915
7.2003,16448.326,-5.34205,-0.14992,-5.78123
7.2199,16448.346,-4.63956,-1.79314,-5.0653
7.2432,16448.366,-3.56566,-2.92569,-4.73115
7.2617,16448.386,-2.75076,-2.99594,-4.79163
7.2867,16448.406,-2.30666,-2.95257,-4.79713
7.3006,16448.426,-1.75444,-3.02892,-4.75681
7.3184,16448.446,-1.21016,-2.84566,-4.74459
7.3384,16448.466,-0.223,-3.05214,-4.80995
7.3597,16448.4859,0.72384,-3.86214,-5.24367
7.3781,16448.5059,1.23391,-4.2476,-5.70121
7.3991,16448.5259,1.74826,-4.17735,-5.96693
7.4201,16448.5459,2.39211,-4.12237,-6.03107
7.4385,16448.5659,3.02008,-4.08633,-6.32001
7.4724,16448.5859,3.52405,-4.14681,-6.49777
7.4896,16448.6059,3.75801,-4.19629,-6.42447
7.5058,16448.6259,3.82887,-4.05334,-6.3249
7.5398,16448.6459,3.48923,-3.4828,-5.85575
7.5418,16448.6659,3.11416,-3.18408,-4.93885
7.559,16448.6859,3.29558,-3.47608,-4.02988
7.578,16448.7059,3.4031,-3.57504,-3.58028
7.6006,16448.7259,2.88386,-3.26533,-3.33838
7.623,16448.7459,2.87775,-3.06558,-2.96697
7.639,16448.7659,3.53932,-3.06558,-2.36588
7.6597,16448.7859,4.63949,-4.10344,-1.96699
7.6776,16448.8059,5.5454,-5.81691,-1.51556
7.6979,16448.8259,5.63459,-6.11624,-0.7929
7.7228,16448.8459,5.24852,-4.60618,-0.01405
7.7405,16448.8659,4.80198,-2.42966,0.08247
7.7596,16448.8859,4.2015,-1.01673,-0.25168
7.7849,16448.9058,4.53686,-0.54453,-0
7.8043,16448.9258,5.18193,-0.84447,0.4441
7.8244,16448.9458,5.69873,-0.85913,0.60537
7.842,16448.9658,6.38106,-0.22016,0.21502
7.8627,16448.9858,6.42199,0.82197,-0.38362
7.8793,16449.0058,5.53685,1.40107,-0.6127
7.9055,16449.0258,4.82091,1.60877,-0.3989
7.9184,16449.0458,5.21187,0.7053,-0.20342
7.9385,16449.0658,5.7537,0.41452,-0.42638
7.9602,16449.0858,5.6468,1.95574,-1.30298
7.9777,16449.1058,5.05365,4.25503,-2.50699
8.0008,16449.1258,4.5839,6.01677,-3.7947
8.0199,16449.1458,4.45378,6.4175,-4.67312
8.039,16449.1658,4.49166,6.04304,-5.10256
8.0619,16449.1858,4.13552,5.7376,-5.41043
8.0799,16449.2058,3.59491,5.85367,-6.05673
8.0979,16449.2258,3.13431,5.96301,-7.00113
8.118,16449.2458,2.76596,5.50425,-7.4721
8.1394,16449.2658,2.25345,4.74495,-7.88383
8.1574,16449.2858,1.61082,4.5116,-7.89788
8.1784,16449.3057,1.09586,4.18784,-7.63643
8.1996,16449.3257,0.81791,3.71259,-7.56557
8.2178,16449.3457,0.37442,3.36317,-7.33344
8.2378,16449.3657,-0.3745,4.07116,-6.95959
8.2593,16449.3857,-0.63961,4.44685,-6.30474
8.2774,16449.4057,-0.27492,3.75046,-6.0103
8.2975,16449.4257,-0.31952,2.93556,-6.06834
8.3194,16449.4457,-0.8021,2.48536,-6.16241
8.3373,16449.4657,-1.34638,2.74375,-5.93883
8.3636,16449.4857,-1.81308,2.89952,-5.56315
8.3849,16449.5057,-2.12951,2.24956,-5.67311
8.4024,16449.5257,-2.24863,1.10908,-6.23755
8.4225,16449.5457,-2.55467,0.14635,-6.69875
8.4438,16449.5657,-3.27672,-0.03446,-6.45013
8.4656,16449.5857,-3.90408,-0.30324,-6.21617
8.4792,16449.6057,-4.02197,-1.41807,-6.34445
8.5018,16449.6257,-3.67317,-3.04481,-6.19967
8.5227,16449.6457,-3.35002,-3.74302,-5.6615
8.5409,16449.6657,-3.06169,-3.29526,-4.96939
8.5665,16449.6857,-2.42578,-4.56403,-5.07629
8.5852,16449.7056,-1.84179,-6.05393,-5.67616
8.6002,16449.7256,-1.47344,-5.59578,-5.83682
8.6226,16449.7456,-0.67871,-4.46446,-5.38661
8.6383,16449.7656,0.77637,-4.24943,-4.78857
8.6578,16449.7856,1.76781,-4.49439,-4.71466
8.6843,16449.8056,2.22779,-4.59518,-5.04269
8.7018,16449.8256,2.85087,-4.91528,-5.55765
8.7235,16449.8456,3.01764,-4.20056,-5.75496
8.7517,16449.8656,2.85698,-3.78273,-5.26077
8.7634,16449.8856,3.10438,-3.87436,-4.824
8.7816,16449.9056,3.32429,-3.71187,-4.60165
8.8064,16449.9256,3.25343,-3.01243,-4.21497
8.8321,16449.9456,2.9199,-2.70028,-4.07386
8.8496,16449.9656,3.2687,-3.35574,-4.03843
8.8626,16449.9856,4.5503,-4.00509,-3.43856
8.8811,16450.0056,5.16117,-4.1633,-2.51799
8.9,16450.0256,6.04203,-4.11932,-1.85092
8.9208,16450.0456,6.96383,-4.09488,-1.4111
8.9399,16450.0656,7.77811,-4.36977,-0.94501
8.9598,16450.0856,7.74451,-4.27142,0.35003
8.9813,16450.1055,7.1532,-3.6856,1.38178
8.9994,16450.1255,6.60525,-2.3869,1.71775
9.0219,16450.1455,6.76835,-1.40036,1.02014
9.0462,16450.1655,6.65901,-1.19572,0.59376
9.0707,16450.1855,6.1355,-0.74429,0.91508
9.0836,16450.2055,5.91497,-0.22444,0.95234
9.1012,16450.2255,6.02004,0.01502,0.45387
9.1241,16450.2455,5.46354,0.83969,0.37629
9.1383,16450.2655,4.89361,2.08768,0.75686
9.1607,16450.2855,4.76166,2.07669,0.94134
9.1778,16450.3055,4.58084,1.12924,0.56933
9.1977,16450.3255,3.83681,1.38946,-0.3091
9.2215,16450.3455,3.04024,2.73337,-1.25289
9.2396,16450.3655,2.59981,3.6686,-1.79167
9.2635,16450.3855,2.65295,3.82193,-2.16124
9.2879,16450.4055,2.56254,3.99542,-2.96086
9.3069,16450.4255,2.15265,4.61789,-3.87472
9.3216,16450.4455,1.66763,5.32527,-4.824
9.3473,16450.4655,1.26629,5.51891,-5.46908
9.3622,16450.4855,0.89488,5.0345,-5.76351
9.3801,16450.5055,0.57601,4.36927,-5.86003
9.4017,16450.5254,0.36282,3.9325,-5.92356
9.4238,16450.5454,0.18994,3.60935,-6.11232
9.4393,16450.5654,0.06777,3.29842,-6.4935
9.4614,16450.5854,-0.19612,2.90746,-6.85452
9.4898,16450.6054,-0.88029,2.90319,-6.78794
9.5022,16450.6254,-1.21016,2.89708,-6.50877
9.5368,16450.6454,-0.9371,2.11823,-6.38782
9.5458,16450.6654,-0.63045,1.47499,-6.62422
9.5593,16450.6854,-1.05866,1.59533,-6.72868
9.6055,16450.7054,-1.44534,2.0999,-6.5552
9.6091,16450.7254,-1.31645,2.12067,-6.61628
9.6217,16450.7454,-1.28469,1.82318,-7.06893
9.6386,16450.7654,-1.68175,1.73094,-7.80319
9.6567,16450.7854,-2.2694,2.0828,-7.97668
9.6775,16450.8054,-2.62248,2.24468,-7.45256
9.6995,16450.8254,-2.00734,1.23247,-7.1233
9.7171,16450.8454,-1.58157,-0.18473,-7.13613
9.7372,16450.8654,-2.08431,-0.72718,-7.08909
9.7591,16450.8854,-2.57361,-0.48284,-6.75434
9.7772,16450.9054,-2.47282,-0.60501,-6.13309
9.7971,16450.9253,-1.84851,-1.63737,-5.49534
9.8232,16450.9453,-1.33172,-2.93974,-5.3634
9.852,16450.9653,-0.84364,-3.36918,-5.03475
9.8673,16450.9853,-0.29631,-4.12298,-4.273
9.8805,16451.0053,0.14169,-5.33127,-3.62182
9.8992,16451.0253,0.54363,-6.564,-3.68046
9.9207,16451.0453,0.8454,-7.16082,-3.87228
9.9415,16451.0653,1.55278,-7.41433,-3.73422
9.96,16451.0853,2.43121,-7.08262,-3.34693
9.9817,16451.1053,3.13065,-6.50352,-3.09892
10.0046,16451.1253,3.02069,-5.0124,-2.97858
10.0188,16451.1453,2.73664,-4.55181,-2.39276
10.0377,16451.1653,3.26137,-5.33922,-1.98348
10.0607,16451.1853,4.12086,-6.03072,-1.62246
10.0786,16451.2053,4.73661,-5.79736,-1.64812
10.0982,16451.2253,4.41163,-5.00752,-2.0464
10.1189,16451.2453,3.82276,-4.99163,-2.17957
10.141,16451.2653,4.66942,-6.59699,-2.15819
10.1599,16451.2853,6.05242,-8.71852,-2.01158
10.1832,16451.3053,6.76408,-9.70324,-1.61513
10.2007,16451.3253,6.69321,-9.7179,-1.16736
10.221,16451.3453,6.21552,-9.28785,-0.67317
10.2437,16451.3653,6.10251,-8.44363,-0.10263
10.2643,16451.3854,6.27966,-6.73138,0.51068
10.282,16451.4054,6.4,-4.96109,0.8094
10.3048,16451.4254,6.28332,-3.54083,0.35674
10.3224,16451.4455,5.36947,-2.49258,-0.23213
10.3425,16451.4655,5.09458,-1.75649,-0.29077
10.3653,16451.4855,4.69813,-1.67036,-0.39767
10.3834,16451.5055,4.24731,-1.4199,-0.70555
10.4106,16451.5256,3.60163,-0.61601,-1.23395
10.4255,16451.5456,3.18624,0.4579,-2.10321
10.4452,16451.5656,2.59736,1.79447,-3.05799
10.4606,16451.5857,2.21252,2.90624,-3.76476
10.4827,16451.6057,2.27299,3.6405,-4.16977
10.4997,16451.6257,1.846,4.82497,-4.07508
10.5196,16451.6457,1.46115,5.77181,-4.38296
10.5447,16451.6658,1.48559,5.74249,-4.75436
10.565,16451.6858,1.72444,5.45538,-5.17525
10.5824,16451.7058,1.77697,5.16583,-5.31392
10.6065,16451.7259,1.40618,4.93615,-5.27177
10.631,16451.7459,1.02255,4.78038,-5.24917
10.6421,16451.7659,0.91199,4.38026,-5.20091
10.6607,16451.7859,0.99384,3.89768,-5.10378
10.6785,16451.806,0.91993,3.54032,-5.14837
10.6992,16451.826,0.42513,3.59102,-5.47824
10.7202,16451.846,-0.10205,3.79688,-5.8582
10.7435,16451.8661,-0.45452,4.13103,-6.14408
10.7643,16451.8861,-0.785,4.22816,-6.2577
10.7829,16451.9061,-0.96459,3.98198,-6.16302
10.799,16451.9261,-0.94138,3.60629,-5.96938
10.82,16451.9461,-0.89679,3.30086,-5.89363
10.8417,16451.9661,-1.21688,3.57025,-5.91501
10.8598,16451.9861,-1.71657,3.58675,-6.00297
10.8855,16452.0061,-1.95175,3.16403,-5.95288
10.9054,16452.0261,-2.46182,2.52201,-5.7794
10.9286,16452.0461,-3.02504,1.96307,-5.53139
10.9421,16452.0661,-3.31642,1.23492,-5.60347
10.9616,16452.0861,-3.45142,0.60939,-5.8075
10.9786,16452.1061,-3.7483,0.52631,-5.88019
10.9992,16452.1261,-4.34573,0.3797,-5.96693
11.0208,16452.1461,-4.75684,-0.22627,-6.26687
11.0391,16452.166,-4.46913,-1.14318,-6.20761
11.0645,16452.186,-4.02808,-2.09613,-5.80017
11.0875,16452.206,-3.12522,-2.99044,-5.64928
11.1009,16452.226,-2.49298,-3.13033,-5.06163
11.1191,16452.246,-1.99512,-3.3539,-4.36647
11.1411,16452.266,-1.24437,-4.65199,-4.16488
11.1586,16452.286,-0.86685,-5.29523,-4.61814
11.179,16452.306,-0.44963,-4.64466,-5.02559
11.2003,16452.326,0.72262,-4.01791,-5.07079
11.225,16452.346,2.0543,-4.29403,-5.12821
11.2416,16452.366,2.73236,-4.80043,-5.40677
11.2642,16452.386,2.52284,-4.57441,-5.67555
11.2863,16452.406,2.34874,-4.27753,-5.46724
11.3138,16452.426,2.46603,-3.99837,-5.14532
11.3288,16452.446,3.04268,-4.18346,-4.84111
11.3401,16452.466,3.86613,-4.50538,-4.70977
11.358,16452.486,3.6285,-4.37283,-4.78308
11.3801,16452.506,3.37988,-4.26287,-4.63097
11.4006,16452.526,4.11353,-4.31785,-4.32859
11.441,16452.546,5.58022,-4.70147,-3.67863
11.4431,16452.566,6.53622,-5.55119,-3.29379
11.4579,16452.5859,6.12572,-5.08021,-2.45568
11.4781,16452.6059,4.95408,-2.82489,-1.76846
11.5007,16452.6259,4.68897,-1.03139,-1.08978
11.5179,16452.6459,5.72194,-1.60133,-0.54062
11.5406,16452.6659,5.838,-1.54086,-0.4832
11.5623,16452.6859,5.22347,-0.52438,-0.61392
11.5817,16452.7059,5.2644,0.58984,-0.53573
11.6027,16452.7259,5.97545,1.11274,-0.2865
11.635,16452.7459,6.56127,0.3797,0.00061
11.6403,16452.7659,6.88991,-0.07967,0.2248
11.6576,16452.7859,6.90091,0.06205,-0.03543
11.6805,16452.8059,6.72803,0.55014,-0.6298
11.699,16452.8259,5.8942,0.58679,-0.90347
11.7184,16452.8459,5.05487,0.1769,-0.6353
11.7394,16452.8659,5.10435,-0.85424,-0.29566
11.7593,16452.8859,5.43911,-1.05888,-0.40867
11.7807,16452.9059,5.17338,0.26547,-0.93829
11.8023,16452.9259,4.54114,2.22818,-1.70737
11.8205,16452.9459,3.85513,3.33507,-2.6481
11.8511,16452.9659,3.65172,3.27948,-3.22109
11.8649,16452.9858,3.47273,3.27521,-3.78126
11.8829,16453.0058,3.32857,3.26849,-4.23757
11.9011,16453.0258,3.36705,3.12005,-4.83011
11.9247,16453.0458,3.50205,2.96183,-5.65967
11.942,16453.0658,3.23694,2.96855,-6.59307
11.9631,16453.0858,2.61202,3.34607,-7.26502
11.9848,16453.1058,1.98772,3.55804,-7.60894
12.0102,16453.1258,1.74154,3.22756,-7.7641
12.0218,16453.1458,1.45321,2.97588,-7.60283
12.041,16453.1658,1.26079,2.74559,-7.42751
12.0607,16453.1858,0.97674,2.24651,-7.35543
12.0788,16453.2058,0.62916,1.99422,-6.93454
12.1013,16453.2258,0.2211,1.74255,-6.80199
12.1193,16453.2458,-0.20773,1.29661,-6.8704
12.1453,16453.2658,-0.909,1.06021,-7.07015
12.1634,16453.2858,-1.56507,1.23431,-7.18439
12.1824,16453.3058,-2.09408,1.28195,-7.37437
12.2032,16453.3258,-2.73427,1.44689,-7.77754
12.2237,16453.3458,-3.28954,1.53057,-7.72012
12.2434,16453.3658,-3.79656,1.43345,-7.23936
12.2718,16453.3857,-4.09405,1.4701,-6.48861
12.2853,16453.4057,-4.06351,1.18238,-6.10132
12.3032,16453.4257,-3.82711,0.21416,-5.74274
12.3228,16453.4457,-3.64507,-1.42418,-5.04514
12.3451,16453.4657,-3.03237,-2.73632,-3.7446
12.3628,16453.4857,-2.62615,-3.12849,-2.87412
12.3809,16453.5057,-2.8821,-3.16392,-2.96636
12.3994,16453.5257,-3.3824,-4.73018,-2.88206
12.4183,16453.5457,-3.08429,-7.21152,-2.27303
12.438,16453.5657,-1.04278,-9.03739,-1.46913
12.46,16453.5857,0.99018,-9.91093,-2.08061
12.4801,16453.6057,0.89794,-9.50287,-3.71101
12.4994,16453.6257,0.89488,-8.60307,-4.06348
12.5214,16453.6457,2.36279,-7.5084,-3.90099
12.5497,16453.6657,4.09093,-7.67883,-3.52775
12.5616,16453.6857,4.59367,-8.30924,-3.56073
12.5819,16453.7057,1.85394,-7.33186,-4.05126
12.6037,16453.7257,1.38113,-6.52613,-3.8173
12.6245,16453.7457,2.41838,-7.10217,-3.55463
12.64,16453.7657,3.55215,-7.97938,-3.70734
12.6573,16453.7857,3.35178,-7.68738,-3.73361
12.6834,16453.8056,2.51429,-6.53346,-3.28462
12.6991,16453.8256,1.51796,-4.51577,-2.47767
12.7189,16453.8456,1.77086,-3.2977,-1.62979
12.74,16453.8656,3.33773,-2.59093,-0.68356
12.7654,16453.8856,4.55396,-1.67525,0.1686
12.7827,16453.9056,4.90399,-0.41564,0.61392
12.8044,16453.9256,5.35909,0.35527,0.8155
12.823,16453.9456,6.36457,-0.12182,1.32863
12.8388,16453.9656,7.26743,-0.25193,1.63956
12.8598,16453.9856,7.62173,0.5202,1.38666
12.8817,16454.0056,7.48551,1.06571,0.50091
12.9017,16454.0256,7.02858,1.2001,0.78069
12.9207,16454.0457,5.59793,1.36931,0.9334
12.9442,16454.0657,4.71707,-0.53415,0.42333
12.9659,16454.0858,4.28885,-2.59215,-0.08613
12.9827,16454.1058,4.36215,-3.30503,-0.75564
13.0025,16454.1259,4.69446,-2.06192,-1.63529
13.0197,16454.146,3.99502,0.89405,-2.12887
13.0403,16454.166,3.19662,3.09195,-2.81853
13.0624,16454.1861,3.083,3.25688,-3.57112
13.0807,16454.2062,3.26993,2.3192,-4.28705
13.1009,16454.2262,3.18318,2.17687,-4.8576
13.1232,16454.2463,2.65784,2.66068,-5.31392
13.1421,16454.2663,2.43365,3.0217,-5.9425
13.1607,16454.2864,2.3799,2.88608,-6.55275
13.1859,16454.3065,2.1722,2.75719,-6.8533
13.201,16454.3265,2.02193,2.8366,-6.81359
13.2246,16454.3466,1.96084,2.78468,-6.95104
13.2485,16454.3666,1.73727,2.73215,-7.12147
13.2656,16454.3867,1.23819,2.83294,-7.31389
13.2912,16454.4068,0.43795,2.89036,-7.15629
13.3084,16454.4268,-0.0208,3.0443,-6.81542
13.3281,16454.4469,-0.32563,2.76758,-6.34139
13.3419,16454.467,-0.60357,2.27461,-6.29619
13.365,16454.487,-1.09165,1.98445,-6.7635
13.3825,16454.5071,-1.86684,2.45237,-7.2809
13.4057,16454.5271,-3.02687,3.33874,-7.24792
13.4241,16454.5472,-3.58459,3.34301,-7.01334
13.4424,16454.5673,-3.59681,1.97284,-7.09581
13.4759,16454.5874,-3.71043,0.42185,-6.97364
13.4832,16454.6075,-4.2541,-0.37655,-6.62606
13.5004,16454.6275,-4.94499,-0.62334,-6.37071
13.5206,16454.6476,-5.21621,-1.10164,-6.00358
13.5421,16454.6676,-4.88513,-1.89943,-5.71892
13.5612,16454.6876,-4.35673,-2.67218,-5.56743
13.5811,16454.7077,-3.99204,-3.06619,-5.24428
13.6033,16454.7277,-3.88758,-3.03686,-4.89181
13.6272,16454.7477,-3.6133,-3.61596,-4.60104
13.6448,16454.7677,-2.87599,-5.00935,-4.46665
13.6633,16454.7878,-2.2975,-6.25796,-5.00604
13.6805,16454.8078,-1.79476,-5.62327,-5.46053
13.7007,16454.8278,-0.72147,-4.54814,-5.51428
13.7222,16454.8479,0.75377,-4.03258,-5.56193
13.7442,16454.8679,1.69512,-3.72775,-5.88263
13.7665,16454.8879,2.17098,-4.17124,-6.21311
13.7892,16454.9079,2.59859,-4.80837,-6.60651
13.8052,16454.928,3.30658,-5.2708,-7.25708
13.8266,16454.948,4.26197,-5.19016,-7.49776
13.8476,16454.968,4.60528,-4.4779,-6.89117
13.8621,16454.9881,3.72808,-3.19752,-6.03779
13.8814,16455.0081,3.26748,-3.19325,-5.39272
13.9034,16455.0281,3.64011,-3.7302,-4.69816
13.9278,16455.0481,4.33589,-3.70943,-3.93275
13.9458,16455.0682,4.51548,-2.4712,-3.20093
13.9684,16455.0882,4.01885,-1.29407,-2.75378
13.9917,16455.1082,3.83498,-1.67158,-2.5241
14.0018,16455.1283,4.80075,-2.18165,-1.73547
14.0242,16455.1483,5.56556,-1.81452,-0.85949
14.0424,16455.1683,5.87466,-0.73757,-0.08797
14.0713,16455.1883,6.41466,0.08771,0.6298
14.0832,16455.2083,6.91618,0.52081,0.81673
14.1017,16455.2283,6.56066,0.51593,0.60964
14.1248,16455.2483,6.83249,0.51348,1.01648
14.1478,16455.2683,7.67365,0.79876,1.46913
14.1651,16455.2883,7.87952,1.17261,1.13926
14.1855,16455.3083,6.91985,0.90016,0.26878
14.2073,16455.3283,6.3609,0.22577,-0.21014
14.2265,16455.3483,6.42321,-0.70153,-0.63469
14.2415,16455.3683,5.94796,-0.96176,-1.09773
14.2653,16455.3883,5.13856,0.02724,-1.52411
14.2816,16455.4083,4.57718,1.47621,-1.99264
14.303,16455.4283,4.29862,2.27827,-2.38971
14.3247,16455.4482,4.26075,2.58065,-2.766
14.3424,16455.4682,4.04817,2.80606,-3.10136
14.3666,16455.4882,3.59552,2.87814,-3.59128
14.3875,16455.5082,3.18379,2.75658,-4.15877
14.4058,16455.5282,2.72748,2.7181,-4.6273
14.4257,16455.5482,2.26994,2.73154,-5.07507
14.4475,16455.5682,1.83684,2.60875,-5.47274
14.4671,16455.5882,1.37014,2.51773,-5.79467
14.4878,16455.6082,0.77454,2.68633,-5.95471
14.5085,16455.6282,0.35121,2.77002,-6.07017
14.536,16455.6482,0.06349,2.66068,-6.12026
14.5459,16455.6682,-0.22728,2.52934,-5.99748
14.5687,16455.6882,-0.44719,2.30393,-5.93578
14.5914,16455.7082,-1.14235,2.139,-5.88813
14.612,16455.7282,-1.73306,2.25934,-5.82949
14.6306,16455.7482,-1.90716,2.36257,-5.7458
14.6409,16455.7682,-1.91143,2.40472,-5.67249
14.6605,16455.7882,-1.98718,2.29538,-5.7067
14.6829,16455.8082,-2.27856,2.51957,-5.76718
14.7006,16455.8282,-2.76054,2.95084,-5.66394
14.7205,16455.8481,-2.95846,3.27032,-5.2455
14.7423,16455.8681,-2.68906,3.06201,-4.77574
14.7611,16455.8881,-2.52535,2.43282,-4.56316
14.7825,16455.9081,-2.55956,1.74193,-4.71344
14.8078,16455.9281,-2.89554,1.12618,-4.85821
14.822,16455.9481,-3.35857,0.87451,-4.82584
14.8457,16455.9681,-3.70493,0.66009,-4.80018
14.8683,16455.9881,-3.97738,0.20927,-4.66701
14.8862,16456.0081,-3.95783,-0.45168,-4.50269
14.9012,16456.0281,-3.4557,-1.64348,-4.28461
14.9249,16456.0481,-2.81979,-2.43516,-4.17588
14.9468,16456.0681,-2.55651,-2.44188,-4.0928
14.9604,16456.0881,-2.61332,-2.83589,-3.90648
14.9827,16456.1081,-3.02993,-3.8597,-3.5644
15.0011,16456.1281,-3.33108,-4.09916,-3.46238
15.0215,16456.1481,-2.97678,-4.71858,-3.56562
15.0429,16456.1681,-2.32988,-5.07227,-3.61632
15.0617,16456.1882,-1.77032,-4.82181,-3.52286
15.0853,16456.2082,-0.52355,-5.15046,-3.57845
15.1043,16456.2282,1.26873,-5.92076,-4.27667
15.1252,16456.2483,2.41777,-5.89755,-5.79833
15.1439,16456.2683,3.3695,-5.55119,-6.81237
15.1652,16456.2884,4.45378,-5.11197,-7.15812
15.1865,16456.3085,4.59611,-4.75462,-6.9321
15.208,16456.3285,3.92844,-5.18894,-6.33345
15.2254,16456.3486,3.37988,-5.44062,-5.9596
15.2425,16456.3687,2.05919,-4.34228,-5.33835
15.2633,16456.3887,1.01278,-3.4156,-4.58882
15.2883,16456.4088,1.26873,-3.82305,-3.93458
15.312,16456.4288,1.73299,-3.84199,-3.41962
15.3258,16456.4489,1.42878,-3.57565,-3.30478
15.3587,16456.469,0.80264,-3.01243,-3.09892
15.367,16456.489,0.59128,-2.38568,-2.84785
15.3899,16456.5091,1.3286,-1.82369,-2.41414
15.4063,16456.5291,2.56071,-1.21954,-2.06045
15.4484,16456.5492,3.09094,-0.73635,-1.74158
15.4503,16456.5693,4.14224,0.29907,-1.17042
15.4635,16456.5893,4.76532,0.32473,-0.64752
15.482,16456.6094,5.56922,0.51104,0.01283
15.5019,16456.6295,6.55149,1.70895,0.4215
15.5237,16456.6495,7.64739,2.39861,0.59376
15.5417,16456.6696,8.17151,2.02476,0.73243
15.5697,16456.6896,8.59973,1.37908,1.09162
15.5845,16456.7097,8.29246,1.18299,0.70982
15.6049,16456.7298,7.22345,1.60571,0.23091
15.6312,16456.7498,6.56066,2.3192,-0.40317
15.6487,16456.7698,6.35785,2.4988,-1.30847
15.6642,16456.7899,6.18314,1.69245,-2.14964
15.6829,16456.8099,5.64253,1.68818,-2.26692
15.7051,16456.83,4.45562,2.53545,-2.39643
15.7231,16456.85,3.7012,3.23367,-2.78555
15.7425,16456.8701,3.4483,3.49145,-3.17467
15.7643,16456.8901,3.2852,3.68082,-3.39702
15.7827,16456.9101,3.06345,3.63195,-3.27974
15.8052,16456.9302,2.96816,3.12371,-3.13557
15.8272,16456.9502,2.88081,2.31981,-3.29379
15.8458,16456.9702,2.54911,1.82196,-3.65359
15.8676,16456.9902,1.90403,1.65214,-4.07508
15.892,16457.0103,0.95597,1.75476,-4.46543
15.9077,16457.0303,0.3842,1.92458,-4.59921
15.9282,16457.0503,0.13435,1.93558,-4.64197
15.949,16457.0703,-0.02814,1.69551,-4.7733
15.9692,16457.0904,-0.36045,1.54646,-4.94495
15.9892,16457.1104,-0.78378,1.56539,-4.93701
16.0061,16457.1304,-1.1674,1.64969,-4.73054
16.025,16457.1505,-1.30912,1.65336,-4.54789
16.0469,16457.1705,-1.37631,1.60449,-4.58271
16.069,16457.1905,-1.55652,1.78592,-4.71832
16.0892,16457.2105,-1.75749,2.14205,-4.85943
16.1043,16457.2306,-1.94259,2.49941,-4.79285
16.1257,16457.2506,-2.08614,2.8195,-4.57416
16.1464,16457.2706,-2.26268,3.03391,-4.24674
16.1696,16457.2907,-2.37874,3.23245,-3.93642
16.1887,16457.3107,-2.45999,3.10172,-3.79286
16.2082,16457.3307,-2.51313,2.41266,-3.77332
16.2307,16457.3507,-2.34942,1.29906,-3.78553
16.248,16457.3708,-2.25902,0.52631,-3.70734
16.2646,16457.3908,-2.76787,0.70957,-3.64381
16.2836,16457.4108,-3.27366,1.01439,-3.75621
16.3051,16457.4308,-3.51556,0.28563,-3.96268
16.3227,16457.4508,-3.686,-1.18167,-4.23391
16.3424,16457.4708,-3.80878,-2.43822,-4.33959
16.3648,16457.4907,-4.11788,-3.18286,-4.37685
16.3824,16457.5107,-4.40498,-3.83832,-4.26812
16.4041,16457.5307,-4.10322,-4.81143,-4.37746
16.4243,16457.5507,-2.51008,-6.23658,-4.20642
16.4428,16457.5707,-0.2737,-7.41677,-4.03843
16.4681,16457.5907,0.80264,-7.8798,-4.39151
16.4867,16457.6107,1.00301,-7.24206,-4.91258
16.505,16457.6307,1.36219,-6.89631,-5.2003
16.5276,16457.6507,1.91503,-8.20356,-5.43487
16.5462,16457.6707,2.53872,-9.84984,-5.69265
16.5654,16457.6907,2.5546,-9.39475,-6.08727
16.5838,16457.7107,1.72627,-6.64647,-6.12881
16.6157,16457.7307,1.57966,-4.43452,-5.61446
16.631,16457.7507,2.59736,-5.3105,-5.22046
16.643,16457.7707,3.03352,-6.30133,-4.97733
16.6653,16457.7907,2.84232,-5.01607,-4.38846
16.683,16457.8107,2.55949,-2.99594,-3.79836
16.7074,16457.8307,2.72137,-1.60133,-3.05311
16.7336,16457.8507,3.57597,-1.98679,-2.3219
16.751,16457.8707,4.47455,-2.37102,-1.87902
16.7659,16457.8906,4.63216,-1.68991,-1.72753
16.786,16457.9106,4.88017,-0.20123,-1.39155
16.8033,16457.9306,5.58449,0.78104,-1.23028
16.8251,16457.9506,6.44704,0.78715,-1.16003
16.8464,16457.9706,6.89419,-0.00514,-0.95295
16.8714,16457.9906,7.26499,-0.30752,-0.76114
16.8864,16458.0106,7.48429,-0.05829,-0.89675
16.9065,16458.0306,7.96687,0.67842,-1.26816
16.9254,16458.0506,8.34194,0.9527,-1.99081
16.945,16458.0706,6.85632,0.77921,-2.60595
16.9648,16458.0906,5.33343,0.84335,-2.4905
16.9835,16458.1106,5.27906,0.52143,-2.10993
17.0067,16458.1306,6.265,-0.46818,-2.58579
17.0261,16458.1506,6.57226,-0.49505,-3.10075
17.0442,16458.1706,5.51852,1.06876,-3.1594
17.0647,16458.1906,4.23326,2.41266,-3.30906
17.0884,16458.2106,3.38721,2.69855,-3.67374
17.1062,16458.2306,2.98404,2.41144,-4.06897
17.1271,16458.2506,2.6554,2.24223,-4.58577
17.1569,16458.2706,2.25345,2.59715,-5.03658
17.1721,16458.2906,2.05492,3.0669,-5.3805
17.1884,16458.3105,2.07324,2.94167,-5.76657
17.2102,16458.3305,1.81179,2.79079,-6.14836
17.2272,16458.3505,1.28828,3.09683,-6.48678
17.2491,16458.3705,0.7104,3.63928,-6.71341
17.272,16458.3905,0.43246,4.17318,-6.77877
17.2943,16458.4105,0.24248,4.22205,-6.80626
17.3072,16458.4305,0.06166,4.55008,-7.00052
17.3292,16458.4505,-0.3971,4.68692,-7.03839
17.3445,16458.4705,-0.70558,4.96608,-6.97242
17.3641,16458.4905,-1.10509,5.59955,-7.0897
17.3869,16458.5105,-1.82408,6.74736,-6.99441
17.4095,16458.5305,-2.39707,6.82067,-6.53443
17.4293,16458.5505,-2.86988,5.4114,-6.11843
17.4606,16458.5705,-2.48565,2.47681,-5.9089
17.4637,16458.5905,-1.58951,0.25264,-5.74885
17.4824,16458.6105,-1.74161,0.31923,-5.21068
17.5067,16458.6305,-2.35003,0.97835,-4.58943
17.5224,16458.6505,-1.9658,0.4921,-4.14411
17.5445,16458.6705,-1.47161,-0.357,-3.9413
17.5669,16458.6905,-1.74039,-0.86341,-3.90771
17.5846,16458.7104,-1.90593,-0.9923,-3.8961
17.6039,16458.7304,-1.98107,-1.43518,-3.87411
17.6315,16458.7504,-1.94259,-2.55367,-3.81791
17.6438,16458.7704,-1.72817,-3.76441,-3.86311
17.6646,16458.7905,-1.606,-4.25004,-4.14533
17.686,16458.8105,-1.34638,-3.93056,-4.18076
17.7037,16458.8305,-1.28469,-4.53776,-3.70673
17.7273,16458.8506,-0.64144,-5.9116,-2.91749
17.7498,16458.8706,-0.26821,-6.79796,-3.12702
17.7675,16458.8906,-0.03058,-5.71307,-3.84479
17.7891,16458.9106,0.60839,-4.45774,-4.06958
17.8109,16458.9307,1.61631,-3.98737,-4.05065
17.8278,16458.9507,2.57965,-4.3209,-3.96207
17.8494,16458.9707,3.12393,-4.77233,-4.0482
17.8693,16458.9907,3.13187,-4.65566,-4.273
17.8921,16459.0108,2.87592,-4.53715,-4.26812
17.9092,16459.0308,2.90096,-4.99041,-4.13006
17.9296,16459.0508,3.52588,-5.77537,-4.00605
17.9598,16459.0709,3.99014,-5.73322,-4.00422
17.9688,16459.0909,3.64255,-4.99774,-3.85273
17.9941,16459.1109,3.09827,-4.19812,-3.44833
18.0084,16459.1309,2.70121,-3.99837,-3.22659
18.029,16459.151,2.81544,-3.82549,-3.10075
18.0529,16459.171,3.23999,-4.02769,-3.01829
18.0688,16459.191,4.25708,-4.92444,-2.80754
18.086,16459.2111,5.01395,-5.04111,-2.47523
18.1063,16459.2311,5.34748,-4.19445,-1.96638
18.1245,16459.2511,5.12818,-2.32032,-1.40071
18.1443,16459.2711,4.74089,-0.64044,-0.76786
18.1711,16459.2912,4.85023,0.06939,-0.14966
18.1883,16459.3112,5.43972,0.36504,0.46304
18.2101,16459.3312,6.32975,0.74256,0.80512
18.2274,16459.3513,6.50934,1.307,0.64324
18.2447,16459.3713,6.17581,1.88732,0.29749
18.2651,16459.3913,6.2259,2.00583,0.36957
18.2855,16459.4113,6.67855,1.71811,0.46365
18.3125,16459.4313,6.79584,1.22575,-0.37385
18.3281,16459.4513,6.26317,1.71445,-1.28221
18.3504,16459.4713,5.4837,2.61853,-1.79533
18.3694,16459.4913,5.10802,2.89341,-1.87963
18.3864,16459.5113,4.97058,2.61181,-1.89979
18.4071,16459.5312,4.93087,2.20558,-2.2321
18.4266,16459.5512,4.70241,2.17382,-3.16673
18.4483,16459.5712,4.18561,2.32959,-3.96024
18.4697,16459.5912,3.49778,2.66495,-4.51491
18.488,16459.6112,2.92357,2.88181,-4.79529
18.5137,16459.6312,2.67006,2.63563,-5.17953
18.5294,16459.6512,2.50512,2.21047,-5.63768
18.5475,16459.6712,2.22718,2.07913,-6.15691
18.569,16459.6912,1.88754,2.18115,-6.50205
18.5928,16459.7112,1.65541,2.4652,-6.769
18.6203,16459.7312,1.23513,2.97955,-6.8649
18.6347,16459.7512,0.87656,3.49695,-6.54176
18.6519,16459.7713,0.71407,3.71503,-6.38538
18.6666,16459.7913,0.45689,3.6796,-6.49411
18.6842,16459.8113,0.12886,3.76695,-6.73357
18.7071,16459.8313,-0.45452,4.01619,-6.70608
18.7264,16459.8514,-1.23765,4.47128,-6.39881
18.7477,16459.8714,-1.42274,4.63438,-6.00542
18.7715,16459.8914,-1.46,4.24282,-5.78428
18.7891,16459.9115,-1.7746,3.63501,-5.93517
18.8122,16459.9315,-2.14967,2.3583,-6.16607
18.8321,16459.9515,-2.18327,1.0034,-6.39698
18.8494,16459.9715,-2.5278,-0.0705,-6.52526
18.8694,16459.9916,-3.07024,-0.8573,-6.50694
18.9105,16460.0116,-3.26022,-1.26841,-6.38904
18.9168,16460.0316,-3.34391,-1.49871,-6.29252
18.9277,16460.0517,-3.37629,-2.35392,-6.22166
18.9496,16460.0717,-3.19853,-3.11506,-5.8979
18.9662,16460.0917,-2.89676,-3.06619,-5.26077
18.9866,16460.1117,-2.56872,-3.81083,-4.72749
19.0062,16460.1318,-2.843,-5.10892,-4.67312
19.0254,16460.1518,-3.79045,-5.16145,-4.86004
19.0485,16460.1718,-4.27304,-4.42292,-5.01093
19.0711,16460.1919,-3.16248,-3.88719,-5.05858
19.0969,16460.2119,-0.86319,-3.16942,-5.29009
19.1112,16460.2319,1.67923,-2.3191,-5.76412
19.1261,16460.2519,2.62669,-2.49075,-6.1392
19.1461,16460.272,2.92845,-3.48341,-6.488
19.1701,16460.292,3.09827,-4.09794,-6.4318
19.1933,16460.312,3.10011,-3.94461,-6.04451
19.2114,16460.3321,3.31757,-3.60802,-5.99015
19.2252,16460.352,3.76289,-3.75524,-6.15997
19.2484,16460.372,3.9767,-3.70637,-5.73053
19.2695,16460.392,3.88568,-3.2751,-4.65846
19.2899,16460.412,3.82948,-3.22562,-3.69818
19.3116,16460.432,4.06894,-3.6404,-3.08426
19.3294,16460.452,4.22898,-3.92323,-2.82525
19.3501,16460.472,4.07627,-3.14865,-2.46362
19.3758,16460.492,4.80381,-3.28793,-2.09649
19.3951,16460.512,6.04692,-4.06923,-1.81549
19.4072,16460.532,6.75675,-4.81143,-1.43309
19.4269,16460.552,6.91985,-5.04234,-1.02992
19.4459,16460.572,6.23262,-3.49135,-0.65118
19.4687,16460.592,5.20881,-0.97764,-0.29199
19.4944,16460.612,5.05549,0.745,0.40989
19.5092,16460.632,5.33465,0.8403,0.37141
19.5342,16460.652,5.24302,-0.40342,0.0336
19.5509,16460.672,5.60526,-1.12363,0.12217
19.6115,16460.692,6.3609,-0.68198,0.39889
19.6226,16460.712,6.85632,0.35222,0.28222
19.6268,16460.732,6.55882,1.0651,-0.0788
19.6382,16460.752,6.28699,0.87878,-0.08735
19.6436,16460.7719,6.29799,-0.11815,-0.29383
19.6655,16460.7919,6.41466,-0.65571,-0.85399
19.6829,16460.8119,5.91803,0.22699,-1.37506
19.7026,16460.8319,4.98707,1.82929,-1.73608
19.7275,16460.8519,4.48066,2.30271,-1.95294
19.7465,16460.8719,4.52709,1.81951,-2.24554
19.7637,16460.8919,4.55824,1.41634,-2.82953
19.7875,16460.9119,4.20455,1.79386,-3.37503
19.8071,16460.9319,3.7574,2.34608,-3.9578
19.8276,16460.9519,3.58208,2.46703,-4.82034
19.8495,16460.9719,3.52466,2.46764,-5.8582
19.8698,16460.9919,3.18135,2.81461,-6.95043
19.8893,16461.0119,2.71343,3.31491,-7.54785
19.9079,16461.0319,2.18198,3.86958,-7.59244
19.9292,16461.0519,1.8796,3.81338,-7.28579
19.949,16461.0719,1.71466,3.23306,-7.02984
19.9734,16461.0919,1.34631,2.80728,-7.01518
19.996,16461.1119,0.70429,2.95756,-7.1288
20.0073,16461.1319,-0.03608,3.36256,-6.95531
20.0326,16461.1519,-0.63228,3.73091,-6.52771
20.0491,16461.1718,-0.87907,3.39799,-6.30841
20.0694,16461.1918,-1.01163,2.85676,-6.27786
20.09,16461.2118,-1.40014,2.50246,-6.20395
20.1057,16461.2318,-2.14967,2.19459,-6.07811
20.1258,16461.2518,-3.17104,1.73705,-5.98465
20.148,16461.2718,-4.00426,0.99057,-6.00542
20.1692,16461.2919,-4.40682,0.13353,-5.9596
20.1906,16461.3119,-4.31641,0.02724,-5.95288
20.2133,16461.3319,-4.18446,-0.10593,-5.89302
20.2297,16461.3519,-3.8662,-0.77727,-5.50573
20.2498,16461.372,-3.3769,-1.5659,-4.9871
20.2714,16461.392,-3.04337,-2.01794,-4.4245
20.291,16461.412,-3.16126,-1.94342,-4.25712
20.3108,16461.432,-3.18264,-2.05398,-4.08608
20.3329,16461.4521,-3.16859,-2.63553,-4.0366
20.3465,16461.4721,-2.94502,-3.05275,-3.98834
20.3665,16461.4921,-2.77092,-2.75403,-4.18198
20.3915,16461.5122,-2.71655,-2.21647,-4.33592
20.4146,16461.5322,-1.69396,-2.5555,-4.24002
20.4271,16461.5522,0.03417,-3.16881,-4.33287
20.4479,16461.5722,1.17649,-2.94707,-4.77025
20.4659,16461.5923,1.56989,-2.73815,-5.23817
20.5024,16461.6123,1.79041,-3.06069,-5.57964
20.5125,16461.6323,2.23512,-3.49196,-5.791
20.5261,16461.6524,2.63768,-3.59581,-5.82155
20.5468,16461.6724,2.92112,-2.54939,-5.5155
20.5685,16461.6924,2.85026,-1.90432,-5.16975
20.5983,16461.7124,3.00053,-2.39668,-5.46358
20.6222,16461.7325,3.17341,-2.81207,-5.71098
20.6321,16461.7525,3.85819,-3.23295,-5.82521
20.6479,16461.7725,4.63704,-3.66667,-5.68716
20.6668,16461.7926,5.30961,-4.70941,-5.4196
20.6872,16461.8126,5.94552,-6.14189,-5.13188
20.7044,16461.8326,6.1752,-7.22618,-4.56622
20.7252,16461.8526,5.98217,-6.88287,-3.7501
20.7465,16461.8727,5.47698,-4.61045,-2.59557
20.7707,16461.8927,5.02128,-2.0552,-1.12583
20.7909,16461.9127,4.7977,-0.40831,0.44227
20.8282,16461.9327,4.89971,-0.15236,1.31519
20.8329,16461.9527,5.06465,-0.36861,1.2987
20.8505,16461.9727,5.80502,-0.29591,0.94501
20.8706,16461.9926,6.72926,0.14391,0.74037
20.891,16462.0126,7.08539,0.9924,1.00365
20.9136,16462.0326,6.31448,1.84395,1.37445
20.9307,16462.0526,5.88504,2.05103,1.19607
20.9461,16462.0726,6.16421,2.07363,0.91324
20.9659,16462.0926,6.23018,2.14083,0.16615
20.9949,16462.1126,5.63825,2.91357,-0.71777
21.0127,16462.1326,5.11169,4.21655,-1.48746
21.025,16462.1526,4.65781,5.54518,-2.20767
21.047,16462.1726,4.46967,6.71499,-2.98102
21.0667,16462.1926,4.56924,7.37594,-3.71162
21.098,16462.2126,4.76227,7.9752,-4.14411
21.1091,16462.2326,4.99134,7.86647,-4.35058
21.126,16462.2526,5.15017,7.12182,-4.74765
21.1458,16462.2726,4.81725,6.86893,-5.20885
21.1702,16462.2926,4.1453,6.74553,-5.33957
21.1898,16462.3126,3.12576,6.14505,-5.00604
21.2112,16462.3326,2.19419,5.35581,-4.9248
21.2314,16462.3526,1.43489,4.89522,-4.98772
21.2467,16462.3726,0.8338,4.54947,-4.60226
21.2676,16462.3925,0.53386,3.71381,-3.73605
21.2889,16462.4125,0.48927,2.45542,-2.91077
21.3091,16462.4325,0.27608,2.01866,-2.8839
21.3292,16462.4525,-0.14603,1.72178,-2.99629
21.3494,16462.4725,-0.33418,1.38641,-2.91138
21.3701,16462.4925,-0.49361,1.2679,-2.76233
21.3876,16462.5125,-0.78133,1.35892,-2.59007
21.4169,16462.5325,-0.74407,1.16161,-2.15941
21.4321,16462.5525,-0.21139,0.64177,-1.52716
21.4468,16462.5725,0.16734,-0.02774,-1.01282
21.4694,16462.5925,0.10076,-0.05767,-0.63408
21.493,16462.6125,-0.23094,-0.02652,-0.50213
21.508,16462.6325,-0.69764,-0.09982,-0.82039
21.5302,16462.6525,-1.05195,-0.17191,-1.02442
21.5626,16462.6725,-0.71108,-0.44924,-0.86621
21.573,16462.6925,-0.21017,-0.36922,-0.58826
21.5972,16462.7125,0.0018,-0.11937,-0.40439
21.6056,16462.7325,-0.03608,0.07672,-0.32804
21.6746,16462.7525,-0.30913,0.20744,-0.53878
21.6768,16462.7725,-0.43803,0.09321,-0.697
21.6784,16462.7924,-0.27615,-0.17924,-0.58154
21.6871,16462.8124,-0.11121,-0.11143,-0.37324
21.7052,16462.8324,-0.02936,-0.02774,-0.1857
21.7238,16462.8524,-0.02875,0.01074,-0.17898
21.7435,16462.8724,-0.02752,0.0254,-0.25107
21.7714,16462.8924,-0.09716,-0.0424,-0.29871
21.7847,16462.9124,-0.12893,-0.20245,-0.29749
21.8076,16462.9324,-0.16375,-0.13464,-0.23946
21.8302,16462.9524,-0.17535,0.10298,-0.24618
21.8474,16462.9724,-0.10999,0.11948,-0.28039
21.868,16462.9924,0.0415,-0.03446,-0.19364
21.8912,16463.0124,0.1258,-0.18901,-0.07025
21.907,16463.0324,0.12764,-0.19878,-0.02016
21.938,16463.0524,0.00791,-0.09555,-0.07025
21.9502,16463.0724,-0.11732,0.04739,-0.16127
21.9663,16463.0924,-0.18146,0.13353,-0.24435
21.9859,16463.1124,-0.23949,0.09687,-0.28711
22.008,16463.1324,-0.22239,0.0138,-0.28589
22.0285,16463.1524,-0.12648,-0.04057,-0.20403
22.0546,16463.1724,-0.088,0.08832,-0.15394
22.0711,16463.1924,-0.11854,0.27158,-0.20098
22.0882,16463.2123,-0.16008,0.34061,-0.2419
22.1072,16463.2323,-0.16069,0.27097,-0.26695
22.129,16463.2523,-0.17047,0.27464,-0.29322
22.1472,16463.2723,-0.29325,0.47011,-0.37874
22.1666,16463.2923,-0.51805,0.79631,-0.54795
22.1907,16463.3123,-0.84181,1.40779,-0.80695
22.2071,16463.3323,-1.37815,2.20069,-1.21135
22.2295,16463.3523,-1.71229,2.59776,-1.61818
22.2508,16463.3723,-1.87112,2.52384,-2.00364
22.2695,16463.3923,-2.10019,2.32409,-2.49111
22.296,16463.4123,-2.27795,1.97345,-3.05066
22.3152,16463.4323,-2.34576,1.45605,-3.50576
22.3293,16463.4523,-2.34881,0.68758,-3.8289
22.3501,16463.4723,-2.54368,0.12192,-4.2895
22.3715,16463.4923,-2.73182,-0.24582,-4.64624
22.3894,16463.5123,-2.84789,-0.76872,-4.78918
22.4103,16463.5323,-2.91264,-1.36554,-4.55583
22.4312,16463.5523,-2.87293,-1.47671,-4.23574
22.4506,16463.5723,-2.50092,-1.64776,-3.73544
22.4681,16463.5923,-2.13012,-2.37163,-3.51858
22.4935,16463.6123,-2.12707,-2.60682,-3.47643
22.507,16463.6322,-2.11241,-2.28794,-3.28951
22.5257,16463.6522,-1.70496,-1.68807,-2.86679
22.5503,16463.6722,-0.86563,-1.24947,-2.66582
22.5682,16463.6922,0.04211,-1.25925,-2.99141
22.5943,16463.7122,0.43246,-1.75955,-3.70001
22.61,16463.7322,0.59128,-2.18532,-4.34325
22.6295,16463.7523,0.70551,-2.01672,-4.59676
22.6485,16463.7723,1.18993,-1.85484,-4.70733
22.6677,16463.7923,1.73543,-1.42174,-5.0036
22.6853,16463.8123,2.28704,-1.43823,-5.36706
22.709,16463.8324,2.98343,-1.87561,-5.73175
22.7334,16463.8524,3.07201,-1.74305,-5.58148
22.7496,16463.8724,3.1392,-1.49382,-5.1441
22.7879,16463.8924,3.32918,-1.36798,-4.37441
22.8037,16463.9125,3.26565,-0.99535,-3.68474
22.8071,16463.9325,2.69755,-0.36799,-2.98286
22.8274,16463.9525,2.11295,0.19706,-2.40314
22.8498,16463.9726,1.92358,0.47683,-2.0464
22.8693,16463.9926,2.19419,0.32289,-2.01524
22.8888,16464.0126,2.88019,0.18056,-2.1869
22.9187,16464.0326,3.53565,0.19767,-2.17285
22.9372,16464.0527,4.13002,0.11153,-2.13559
22.9505,16464.0727,4.31084,0.17873,-1.81061
22.9689,16464.0927,4.45378,-0.14381,-1.53144
22.9907,16464.1128,4.72928,-0.65327,-1.47524
23.0078,16464.1328,4.44157,-0.56042,-1.42026
23.0279,16464.1528,4.59795,-0.79743,-1.32985
23.0476,16464.1728,5.71339,-1.85789,-1.42759
23.0699,16464.1929,6.69444,-2.6734,-1.28832
23.0909,16464.2129,7.21612,-3.45042,-1.04702
23.1052,16464.2329,7.12937,-4.14253,-0.57849
23.1306,16464.2529,6.43054,-3.69721,0.04154
23.15,16464.2729,5.72255,-2.18837,0.70311
23.1678,16464.2929,5.73355,0.24165,0.97799
23.1937,16464.3128,6.10495,1.24041,0.98838
23.2082,16464.3328,6.21674,0.93559,0.85704
23.227,16464.3528,6.45742,0.47195,0.99754
23.2464,16464.3728,6.77079,0.32167,1.21073
23.2688,16464.3927,7.1703,0.08649,0.75992
23.2857,16464.4127,6.93451,-0.02286,0.08857
23.3044,16464.4327,6.23507,0.22699,-0.17043
23.3269,16464.4526,5.31999,0.67414,-0.34025
23.3456,16464.4726,4.77571,0.95758,-0.75381
23.3657,16464.4925,4.6346,1.35098,-1.17897
23.3895,16464.5125,4.49227,1.69612,-1.22967
23.4084,16464.5325,4.1624,1.76698,-1.43859
23.4311,16464.5524,3.59002,2.01743,-2.03724
23.4521,16464.5724,3.03108,2.60142,-3.01829
23.4817,16464.5923,2.62546,3.41021,-3.97857
23.4987,16464.6123,2.44892,3.71075,-4.7507
23.5321,16464.6323,2.53261,3.39799,-5.3634
23.5349,16464.6522,2.4251,3.10539,-5.73114
23.5448,16464.6722,1.78186,3.522,-6.09644
23.565,16464.6922,1.18688,3.88974,-6.19784
23.5833,16464.7121,0.83624,3.84209,-6.19356
23.6096,16464.7321,0.64687,3.45113,-6.06834
23.6254,16464.752,0.42818,3.1738,-5.94372
23.6449,16464.772,0.09831,3.16953,-5.78489
23.6655,16464.792,-0.35006,3.48534,-5.45014
23.6935,16464.8121,-0.7966,3.66249,-5.03048
23.7084,16464.8321,-1.01346,3.52872,-4.73298
23.7286,16464.8521,-0.98414,2.60264,-4.59493
23.7539,16464.8721,-1.00491,1.87205,-4.72138
23.7692,16464.8922,-1.26636,2.14938,-4.7226
23.7872,16464.9122,-1.55713,2.97466,-4.60165
23.8092,16464.9322,-1.89616,3.75351,-4.48925
23.8275,16464.9523,-2.09042,3.71686,-4.41961
23.8494,16464.9723,-2.05865,2.90869,-4.60837
23.8722,16464.9923,-2.20343,2.70099,-4.7055
23.8901,16465.0123,-2.71044,2.7407,-4.88448
23.9092,16465.0324,-3.11484,2.62952,-5.22473
23.9314,16465.0524,-3.23396,2.11334,-5.64989
23.9501,16465.0724,-2.97617,1.45483,-5.92784
23.9701,16465.0925,-2.76115,0.58068,-5.926
23.9916,16465.1125,-2.88271,-0.03996,-5.96143
24.0118,16465.1325,-3.11484,-0.17557,-5.90707
24.0339,16465.1525,-3.01221,-0.65938,-5.52406
24.05,16465.1726,-2.91936,-1.65081,-5.17036
24.0732,16465.1926,-2.81307,-1.97946,-4.78674
24.0911,16465.2126,-2.77275,-2.16394,-4.37685
24.108,16465.2327,-2.8033,-2.87132,-3.87899
24.1255,16465.2527,-3.33292,-3.36612,-3.48743
24.1459,16465.2727,-4.09467,-3.06069,-3.30539
24.1664,16465.2927,-4.39093,-2.73998,-3.61999
24.1845,16465.3128,-3.69455,-2.34781,-4.13434
24.2045,16465.3328,-2.10508,-1.77115,-4.37441
24.2265,16465.3528,-0.28226,-1.01429,-4.57172
24.2448,16465.3728,0.3451,-0.89395,-4.7171
24.2686,16465.3928,0.45811,-1.00513,-4.87837
24.29,16465.4128,0.70307,-1.23909,-5.06774
24.3099,16465.4328,1.18138,-1.27635,-5.26016
24.3311,16465.4528,1.68045,-1.33133,-5.40677
24.3517,16465.4728,2.3689,-1.50054,-5.53505
24.3698,16465.4928,2.73236,-1.5488,-5.63951
24.3894,16465.5128,2.91807,-1.7571,-5.59675
24.4133,16465.5328,3.23633,-2.15233,-5.22168
24.43,16465.5528,3.47334,-2.29466,-4.74703
24.4517,16465.5728,3.0494,-1.77604,-4.48192
24.4751,16465.5928,2.43487,-1.21954,-4.24246
24.4894,16465.6128,2.21802,-0.99596,-3.91931
24.5055,16465.6328,2.6108,-1.07782,-3.53263
24.5288,16465.6528,3.12821,-1.03689,-3.09281
24.548,16465.6727,3.68409,-1.03017,-2.70491
24.5703,16465.6927,4.10192,-0.97275,-2.44835
24.5979,16465.7127,4.21738,-1.06621,-2.35061
24.6123,16465.7327,4.2919,-0.92816,-2.06167
24.6278,16465.7527,4.75005,-1.40585,-1.90957
24.6472,16465.7727,5.50691,-2.15478,-1.74891
24.6652,16465.7927,6.44765,-2.88842,-1.44714
24.6853,16465.8127,7.44214,-2.97028,-0.98288
24.7071,16465.8327,7.94976,-2.46082,-0.5003
24.7262,16465.8527,7.38533,-1.04605,0.12645
24.75,16465.8727,6.17948,0.94109,1.11605
24.77,16465.8927,5.62115,1.75354,1.70309
24.7918,16465.9127,5.72499,1.65763,1.30725
24.8096,16465.9327,5.98034,0.85251,0.55894
24.8305,16465.9527,6.19597,0.57213,0.47586
24.8495,16465.9727,6.26683,0.43224,0.85765
24.8777,16465.9927,6.48002,0.03457,0.73609
24.9007,16466.0127,6.38839,-0.29897,0.20892
24.9059,16466.0327,6.00782,-0.1432,-0.43494
24.9258,16466.0527,5.34992,0.464,-0.72265
24.9517,16466.0727,5.06159,1.08586,-0.72754
24.9642,16466.0926,5.2027,1.4591,-0.94623
24.9866,16466.1126,5.2644,1.69795,-1.49662
25.0099,16466.1326,4.75433,1.91664,-2.24493
25.0261,16466.1526,3.94799,1.97773,-2.95414
25.0472,16466.1726,3.24671,2.2349,-3.70307
25.0808,16466.1926,2.51429,2.41266,-4.57905
25.0942,16466.2126,2.09157,2.3137,-5.28704
25.1065,16466.2326,1.72016,2.18787,-5.4984
25.1282,16466.2526,1.54118,1.86838,-5.37195
25.1479,16466.2726,1.50819,1.49942,-5.30231
25.1712,16466.2926,1.35059,1.28379,-5.24978
25.1881,16466.3126,1.01889,1.40962,-5.30781
25.2064,16466.3326,0.49232,1.97406,-5.32247
25.2252,16466.3526,0.03234,2.61914,-5.36706
25.2494,16466.3726,-0.17352,2.88547,-5.32736
25.2694,16466.3926,-0.15764,2.93251,-5.23328
25.2924,16466.4126,-0.28164,3.02597,-5.28337
25.3143,16466.4326,-0.72697,3.53116,-5.3634
25.3271,16466.4526,-1.29385,4.32345,-5.2455
25.3461,16466.4726,-1.77643,5.04122,-4.91502
25.369,16466.4925,-2.04155,5.26296,-4.7171
25.3864,16466.5125,-2.35675,5.23669,-4.68717
25.4065,16466.5325,-2.8375,5.05038,-5.06224
25.4438,16466.5525,-3.24251,4.07483,-5.41105
25.4479,16466.5725,-3.18997,2.63502,-5.45503
25.4652,16466.5925,-2.90165,1.43039,-5.21496
25.4858,16466.6125,-2.86377,0.46889,-5.10073
25.5045,16466.6325,-2.9047,0.13841,-5.10134
25.5253,16466.6525,-3.08735,0.01502,-5.3188
25.5483,16466.6725,-3.2926,0.048,-5.55949
25.5668,16466.6925,-3.28649,-0.25926,-5.40433
25.5834,16466.7125,-3.12828,-0.91228,-5.13432
25.6088,16466.7325,-3.13194,-1.47366,-4.91441
25.6241,16466.7525,-3.2193,-1.50298,-4.74887
25.6444,16466.7725,-3.35857,-1.4138,-4.67007
25.6661,16466.7925,-3.35002,-1.77237,-4.50208
25.6845,16466.8125,-3.20708,-2.35208,-4.43549
25.7069,16466.8325,-2.70373,-2.25679,-4.61875
25.7275,16466.8525,-1.50215,-2.18959,-4.92419
25.7489,16466.8725,-0.51072,-2.01611,-5.05796
25.7707,16466.8924,0.03051,-1.77482,-5.20763
25.7923,16466.9124,0.463,-1.61782,-5.56804
25.8096,16466.9324,0.89122,-1.62271,-5.89852
25.8305,16466.9524,1.46787,-1.75832,-5.937
25.8515,16466.9724,2.15693,-2.27817,-5.96693
25.87,16466.9924,2.51429,-2.45776,-6.04818
25.8889,16467.0124,2.59553,-2.24396,-6.16546
25.9121,16467.0324,2.72259,-2.34414,-6.10988
25.9294,16467.0524,3.02314,-2.52191,-5.81544
25.9486,16467.0724,3.02802,-2.13034,-5.14593
25.9732,16467.0924,2.75497,-1.44006,-4.37929
25.9914,16467.1124,2.18992,-0.58485,-3.73117
26.0189,16467.1324,1.58455,-0.346,-3.35793
26.0333,16467.1524,1.07203,-0.44985,-3.26874
26.0483,16467.1724,0.93031,-0.5256,-3.35548
26.0723,16467.1924,1.18199,-0.52926,-3.39214
26.0925,16467.2124,1.73421,-0.2953,-3.1093
26.1088,16467.2324,2.31087,-0.17924,-2.78982
26.1256,16467.2524,3.03841,-0.37227,-2.49783
26.1498,16467.2724,3.79771,-0.58974,-2.1533
26.1684,16467.2923,4.77693,-0.99047,-1.94072
26.189,16467.3123,5.89665,-1.29223,-1.56504
26.2109,16467.3323,6.95528,-1.35393,-1.17775
26.2291,16467.3523,7.56492,-1.12852,-0.78374
26.2493,16467.3723,7.99008,-0.908,-0.35369
26.2725,16467.3923,8.18495,-0.20734,0.27978
26.289,16467.4123,8.19717,0.6381,1.17164
26.3132,16467.4323,8.09515,1.3577,1.97187
26.3313,16467.4523,8.23137,1.65519,2.30479
26.3517,16467.4723,8.86179,1.41756,2.03113
26.3706,16467.4923,9.47021,0.79509,1.39705
26.3913,16467.5123,9.15928,0.1042,0.69272
26.4101,16467.5323,7.31935,0.50982,0.55467
26.4289,16467.5523,5.55273,1.03516,0.61453
26.4591,16467.5723,5.30533,0.75417,0.21686
26.4661,16467.5923,5.27295,0.3455,-1.0513
26.4857,16467.6123,4.7525,1.27523,-1.95355
26.5078,16467.6323,4.44157,2.128,-2.72568
26.5252,16467.6523,4.48066,2.19581,-3.33594
26.5454,16467.6723,4.53197,2.12556,-4.06042
26.568,16467.6923,4.28396,2.53789,-4.9871
26.5945,16467.7122,3.92477,3.44442,-5.85026
26.6086,16467.7322,3.5662,4.26603,-6.39271
26.6327,16467.7522,3.15814,4.44746,-6.55825
26.6447,16467.7722,2.64501,4.05589,-6.42142
26.6638,16467.7922,1.96512,3.34912,-6.24671
26.6865,16467.8122,1.35059,3.05346,-6.31329
26.7066,16467.8322,0.57051,3.68876,-6.50205
26.725,16467.8522,-0.19307,4.20433,-6.41775
26.7468,16467.8722,-0.42275,4.25809,-6.40859
26.7674,16467.8922,-0.82531,3.916,-6.33834
26.7893,16467.9122,-1.42641,3.53421,-6.18929
26.8117,16467.9322,-1.9884,3.46274,-6.09888
26.8324,16467.9522,-2.43372,3.49939,-5.94189
26.8479,16467.9722,-2.91508,3.45602,-5.39944
26.8695,16467.9922,-3.12522,3.17136,-5.26994
26.8939,16468.0122,-3.2419,2.73826,-5.15815
26.9149,16468.0322,-3.1411,2.2123,-4.86676
26.945,16468.0522,-2.8204,1.40351,-4.13067
26.9502,16468.0722,-2.18144,0.28441,-3.48193
26.969,16468.0922,-1.31462,-0.31424,-2.89978
26.9859,16468.1121,-0.18513,-0.49078,-2.3109
27.0074,16468.1321,0.28829,-0.64411,-1.89979
27.025,16468.1521,-0.01958,-0.7058,-1.59314
27.0515,16468.1721,-0.37083,-0.39854,-1.28221
27.0649,16468.1921,-0.52721,-0.19451,-1.113
27.0902,16468.2121,-0.45513,-0.32401,-1.26571
27.1053,16468.2321,-0.16436,-0.70336,-1.49296
27.1254,16468.2521,0.11481,-0.99474,-1.43859
27.1467,16468.2721,-0.02508,-0.63739,-1.32313
27.1667,16468.2921,-0.27187,-0.15541,-1.23761
27.1856,16468.3121,-0.10633,-0.17007,-1.1527
27.2081,16468.3321,0.11236,-0.35272,-1.27182
27.2304,16468.3521,0.23393,-0.39487,-1.11483
27.249,16468.3721,0.15207,-0.10105,-0.83444
27.2687,16468.3921,-0.10755,0.2557,-0.68295
27.2911,16468.4121,-0.08067,0.18728,-0.74342
27.311,16468.4321,0.13191,-0.06439,-0.70066
27.3295,16468.4521,0.28035,-0.1658,-0.56627
27.3534,16468.4721,0.19361,-0.02958,-0.53878
27.37,16468.4921,0.05739,0.10176,-0.53268
27.3885,16468.5121,-0.09777,0.1714,-0.5455
27.4076,16468.5321,-0.0489,0.0419,-0.55222
27.4277,16468.552,0.08854,-0.09005,-0.54856
27.4485,16468.572,0.08243,0.03273,-0.50824
27.473,16468.592,0.00974,0.07855,-0.49419
27.4868,16468.612,-0.08372,0.15857,-0.54184
27.5079,16468.632,-0.10633,0.1488,-0.59254
27.5287,16468.652,-0.02386,0.05472,-0.58643
27.5463,16468.672,0.01768,0.03518,-0.55955
27.6077,16468.692,0.02929,-0.03507,-0.54489
27.6115,16468.712,0.03723,-0.21711,-0.56139
27.6144,16468.732,-0.07517,-0.26781,-0.56627
27.631,16468.752,-0.39527,0.11764,-0.50519
27.6452,16468.772,-0.7624,0.4298,-0.44532
27.6628,16468.792,-1.41052,0.46584,-0.61881
27.6833,16468.812,-1.95358,0.25692,-1.04641
27.7063,16468.832,-2.29445,0.07061,-1.53083
27.7258,16468.852,-2.60232,0.04678,-1.89246
27.7469,16468.872,-2.99999,-0.26598,-2.34694
27.7679,16468.892,-3.24251,-1.05155,-3.0189
27.7867,16468.912,-3.36407,-2.16821,-3.95352
27.8082,16468.9319,-3.86681,-2.83956,-4.77025
27.8292,16468.9519,-4.41781,-3.22196,-5.26627
27.8492,16468.9719,-4.36283,-3.6233,-5.48435
27.8677,16468.9919,-3.86009,-3.96904,-5.4196
27.8913,16469.0119,-2.88332,-3.32764,-5.31819
27.9134,16469.0319,-1.70435,-2.16883,-5.40066
27.9288,16469.0519,-0.35373,-1.52375,-5.46969
27.9528,16469.0719,0.84418,-1.57201,-5.98831
27.9703,16469.0919,1.80629,-1.96907,-6.95653
27.9917,16469.1119,2.44098,-2.02161,-7.28579
28.0112,16469.1319,2.84293,-1.64043,-7.41652
28.0257,16469.1519,3.353,-1.77665,-8.02494
28.0451,16469.1719,3.96326,-2.54267,-9.18436
28.0675,16469.1919,4.3762,-2.64163,-9.8276
28.0928,16469.2119,4.47089,-1.98679,-9.45803
28.1062,16469.2319,4.39514,-1.3185,-8.36641
28.127,16469.2519,4.477,-1.10531,-7.17828
28.145,16469.2719,4.95836,-1.13402,-5.68716
28.1639,16469.2919,4.92293,-1.01612,-4.08913
28.1889,16469.3119,4.70363,-0.52743,-2.51554
28.2106,16469.3319,4.80259,0.50676,-0.98227
28.2289,16469.3519,5.07076,1.89709,0.40378
28.251,16469.3718,5.47271,2.55561,1.43309
28.2669,16469.3918,6.19169,1.60999,1.91995
28.2901,16469.4118,7.11593,0.64726,1.98959
28.3135,16469.4318,7.70298,0.93681,1.51983
28.3291,16469.4518,7.66571,1.50309,1.16614
28.3495,16469.4718,7.61196,1.11396,1.89368
28.3725,16469.4918,7.28881,0.4078,2.53814
28.3886,16469.5118,7.26193,-0.09738,2.12459
28.4069,16469.5318,7.26621,-0.16458,0.91752
28.4318,16469.5518,6.72498,0.1769,0.1857
28.4508,16469.5718,6.28882,0.77921,0.21319
28.465,16469.5918,5.63214,0.64482,0.05192
28.4865,16469.6118,5.26196,0.04556,-0.42883
28.5043,16469.6318,5.33037,-0.10715,-0.97128
28.5234,16469.6518,5.20881,0.52876,-1.89063
28.5491,16469.6718,4.8148,1.70284,-2.92849
28.5653,16469.6918,4.37865,2.89525,-3.93947
28.5865,16469.7118,4.11048,3.69182,-4.9248
28.6088,16469.7318,3.72563,4.11515,-5.74824
28.6256,16469.7518,3.24977,4.4499,-6.56802
28.6427,16469.7717,2.78612,4.57879,-7.06221
28.6664,16469.7917,2.58515,4.90255,-7.50448
28.6845,16469.8117,2.34691,5.18233,-7.71279
28.7041,16469.8317,1.99994,5.28007,-7.82763
28.7317,16469.8517,1.38602,5.04977,-7.53563
28.7511,16469.8717,0.97491,4.82253,-6.77083
28.773,16469.8917,0.49415,4.3656,-5.99015
28.7999,16469.9117,-0.06845,3.56292,-5.44831
28.8094,16469.9317,-0.5211,2.76269,-5.20091
28.8285,16469.9517,-0.9316,2.19397,-5.20396
28.8515,16469.9717,-1.36776,1.95513,-5.08973
28.8682,16469.9917,-1.76483,2.28194,-4.67495
28.8886,16470.0117,-1.82836,2.19336,-4.25651
28.9169,16470.0317,-1.56874,1.6051,-3.76782
28.9321,16470.0517,-1.26514,0.85068,-3.27974
28.947,16470.0717,-1.02446,-0.0815,-2.98286
28.9713,16470.0917,-0.89251,-0.76994,-2.62611
28.9874,16470.1117,-0.88274,-0.62761,-2.22966
29.013,16470.1317,-1.03362,-0.26842,-1.99814
29.0293,16470.1517,-0.92244,-0.50849,-1.90712
29.0454,16470.1716,-0.69459,-1.15845,-1.91445
29.0688,16470.1916,-0.87113,-1.31972,-1.93339
29.0901,16470.2116,-1.26392,-1.01857,-1.92667
29.1046,16470.2316,-1.24254,-0.72352,-1.8833
29.1248,16470.2516,-0.99269,-0.46451,-1.69882
29.145,16470.2716,-0.89617,-0.45474,-1.52533
29.1644,16470.2916,-0.7123,-0.65449,-1.38911
29.187,16470.3116,-0.4087,-0.82737,-1.24494
29.2086,16470.3316,-0.30119,-0.91777,-1.16797
29.2274,16470.3517,-0.4252,-0.79071,-1.13499
29.2519,16470.3717,-0.5828,-1.00696,-1.36223
29.268,16470.3917,-0.54065,-1.46694,-1.01526
29.2869,16470.4118,-0.17352,-1.65753,-1.09284
29.3117,16470.4318,-0.03547,-1.21771,-1.08368
29.3329,16470.4518,-0.34456,-0.62273,-0.8546
29.3505,16470.4718,-0.69398,-0.13342,-0.50458
29.3688,16470.4919,-0.39832,-0.55797,-0.76725
29.3998,16470.5119,-0.01775,-1.23726,-1.03542
29.4156,16470.5319,-0.00065,-0.77788,-0.69333
29.4299,16470.552,-0.20284,-0.31851,-0.57482
29.45,16470.572,0.01646,-0.492,-0.47098
29.4786,16470.592,0.23209,-0.6325,-0.23396
29.4925,16470.612,0.30601,-0.56897,-0.06475
29.5062,16470.6321,0.33044,-0.36922,0.00977
29.5248,16470.6521,0.3842,-0.34295,0.01161
29.5446,16470.6721,0.41108,-0.28492,0.02199
29.5663,16470.6922,0.50271,-0.20367,0.00183
29.583,16470.7122,0.43124,-0.10532,-0.14478
29.6111,16470.7322,0.39458,-0.1212,-0.35736
29.6259,16470.7522,0.46972,-0.30813,-0.34514
29.6449,16470.7723,0.63649,-0.41075,-0.22969
29.6651,16470.7923,0.74583,-0.31729,-0.15638
29.6874,16470.8123,0.70307,-0.17802,-0.17532
29.7052,16470.8324,0.58517,-0.22016,-0.38607
29.7251,16470.8524,0.5302,-0.22872,-0.66768
29.7496,16470.8724,0.77882,-0.08211,-1.00365
29.7681,16470.8924,1.20337,-0.09799,-0.99938
29.7918,16470.9125,1.35792,0.67964,-1.16248
29.8115,16470.9325,1.1771,0.17018,-1.12277
29.8276,16470.9525,0.50148,-0.1212,-0.56872
29.845,16470.9725,0.0018,0.43041,-0.06964
29.8673,16470.9925,-0.15275,0.6155,0.29993
29.889,16471.0124,0.22598,0.62955,0.42211
29.9059,16471.0324,0.474,0.46339,0.27733
29.9291,16471.0524,0.37565,0.05411,0.30299
29.9473,16471.0724,0.27302,-0.06867,0.5455
29.9674,16471.0924,0.21132,-0.24521,0.60598
29.99,16471.1124,0.08976,-0.08211,0.53756
30.0112,16471.1324,-0.37999,0.32595,0.68172
30.0274,16471.1524,-0.78072,0.53609,0.86987
30.0488,16471.1724,-0.48384,0.15796,0.77335
30.0722,16471.1924,0.07144,-0.55614,0.57116
30.1019,16471.2124,0.29135,-1.30506,0.2584
30.117,16471.2324,0.45689,-0.99841,0.42638
30.1288,16471.2524,0.14413,-0.20123,0.24618
30.145,16471.2724,-0.22239,0.37299,0.02688
30.169,16471.2924,-0.01592,0.46706,-0.01405
30.1857,16471.3124,0.25958,0.32961,0.13683
30.2072,16471.3324,0.29013,0.06939,0.08552
30.2335,16471.3524,0.36587,-0.08333,-0.05864
30.2514,16471.3724,0.47888,-0.01736,-0.14172
30.2665,16471.3924,0.3506,0.21966,-0.22724
30.2883,16471.4123,0.13313,0.42063,-0.25962
30.3062,16471.4323,0.02929,0.48355,-0.18326
30.3251,16471.4523,0.00546,0.51226,-0.14722
30.3478,16471.4723,0.06349,0.27586,-0.18448
30.3658,16471.4923,0.15512,0.01807,-0.16188
30.3892,16471.5123,0.25653,-0.04912,-0.11912
30.4115,16471.5323,0.29257,-0.00086,-0.15516
30.4315,16471.5523,0.22598,-0.06378,-0.09835
30.4495,16471.5723,0.19239,-0.15725,-0.03665
30.4686,16471.5923,0.19117,-0.05829,0.04032
30.4888,16471.6123,-0.02997,0.48538,0.3598
30.5098,16471.6323,-0.62495,1.23186,0.69394
30.5322,16471.6523,-0.07945,1.01684,0.40012
30.5533,16471.6723,0.69879,0.24409,0.1405
30.5657,16471.6923,0.76294,0.02418,0.10446
30.587,16471.7123,0.44284,-0.24338,0.28039
30.6134,16471.7323,0.31456,-0.31485,0.30177
30.6292,16471.7523,0.40741,-0.41198,0.1576
30.6457,16471.7723,0.46422,-0.26842,0.06842
30.6649,16471.7923,0.29135,-0.04912,-0.00183
30.6846,16471.8122,-0.0147,0.05167,-0.19548
30.7088,16471.8322,-0.2621,0.01196,-0.26451
30.7248,16471.8522,-0.35739,-0.00758,-0.1405
30.7453,16471.8722,-0.35556,-0.13525,-0.11118
30.7691,16471.8922,-0.3464,-0.13464,-0.1515
30.7852,16471.9122,-0.33784,0.048,-0.09285
30.8073,16471.9322,-0.25416,0.1323,0.00428
30.8342,16471.9522,-0.14603,-0.12976,-0.04154
30.8515,16471.9722,-0.02386,-0.18657,0.03971
30.8731,16471.9922,0.09037,0.20378,0.12889
30.8874,16472.0122,0.05494,0.47928,0.11729
30.9052,16472.0322,-0.02752,0.2276,0.01588
30.9275,16472.0522,0.05128,0.04373,0.0452
30.9517,16472.0722,0.09648,0.12558,0.07697
30.9743,16472.0922,0.02073,0.27158,-0.00183
30.9867,16472.1122,-0.04952,0.23554,-0.03726
31.0074,16472.1322,-0.077,0.07733,-0.06109
31.0273,16472.1522,0.14596,-0.04668,-0.1014
31.0455,16472.1722,0.24187,0.06755,0.0507
31.0675,16472.1922,0.09037,0.22454,0.05253
31.0848,16472.2121,-0.13626,0.27769,0.00611
31.1047,16472.2321,-0.17169,0.10115,0.0507
31.1268,16472.2521,-0.18085,0.1543,0.18448
31.1478,16472.2721,-0.15092,0.13353,0.3091
31.1644,16472.2921,-0.08861,-0.00086,0.31582
31.1877,16472.3121,-0.01897,-0.02163,0.2645
31.2049,16472.3321,0.09098,0.0816,0.35064
31.2319,16472.3521,0.1539,0.15735,0.34697
31.2466,16472.3721,0.16979,0.10176,0.17104
31.2643,16472.3921,0.16429,-0.09494,-0.04765
31.2866,16472.4121,0.10442,-0.13281,-0.13806
31.3115,16472.4321,0.01951,-0.14136,-0.15088
31.3377,16472.4521,-0.12771,-0.22933,-0.21625
31.3498,16472.4721,-0.16986,-0.07478,-0.08735
31.3686,16472.4921,0.05983,-0.16763,0.00916
31.3852,16472.5121,0.0751,-0.22016,0.07575
31.4054,16472.5321,-0.02752,0.0138,-0.22908
31.4329,16472.5521,-0.32563,0.29724,-0.03482
31.4463,16472.5721,-0.18146,0.1659,0.06964
31.4708,16472.5921,0.10992,-0.00331,-0.13378
31.4893,16472.6121,-0.14725,0.24165,0.12462
31.507,16472.632,-0.19001,0.0871,0.04337
31.5354,16472.652,-0.10938,0.23737,0.18998
31.5467,16472.672,0.02868,0.12864,0.15821
31.5665,16472.692,0.12275,-0.09372,0.13805
31.6101,16472.712,0.23148,-0.20306,0.00366
31.6148,16472.732,0.03967,0.18606,-0.0281
31.6264,16472.752,-0.30852,0.39742,-0.18631
31.6437,16472.772,-0.34701,-0.08577,-0.40439
31.6652,16472.792,-0.13931,-0.26293,-0.25779
31.683,16472.812,0.02318,-0.35822,-0.20647
31.7038,16472.832,-0.10022,-0.40281,-0.18631
31.728,16472.852,-0.16253,-0.52132,-0.146
31.7475,16472.872,-0.00675,-0.74184,-0.12462
31.7666,16472.892,0.10931,-0.72596,-0.08002
31.7881,16472.912,0.00302,-0.40342,-0.0391
31.8084,16472.932,-0.11305,-0.28369,0.00061
31.8297,16472.952,-0.07151,-0.48284,0.00428
31.8565,16472.972,0.04395,-0.65144,-0.0055
31.8663,16472.992,0.01768,-0.75284,-0.03543
31.8853,16473.012,-0.10083,-0.5708,-0.16188
31.907,16473.0319,-0.36167,-0.27453,-0.35186
31.9278,16473.0519,-0.29875,0.01929,-0.36652
31.9487,16473.0719,0.14352,0.01074,-0.28344
31.9758,16473.0919,0.37442,-0.10899,-0.19853
31.9921,16473.1119,0.24798,-0.08333,-0.12523
32.0118,16473.1319,0.11786,-0.13831,-0.08797
32.0289,16473.1519,0.19727,-0.23299,-0.04093
32.0482,16473.1719,0.25958,-0.22139,0.00916
32.0727,16473.1919,0.39336,0.43285,-0.08369
32.0953,16473.2119,0.29746,0.56785,-0.21014
32.1142,16473.2319,0.06777,-0.40465,-0.28222
32.1264,16473.2519,0.40863,0.96003,-0.39584
32.1464,16473.2719,0.51431,0.71812,-0.48075
32.1644,16473.2919,0.43368,-0.70458,-0.42577
32.1851,16473.3119,0.27913,-0.26537,-0.30971
32.206,16473.3319,-0.04585,-0.01919,-0.17226
32.2286,16473.3519,-0.35556,-0.1829,0.01588
32.2487,16473.3719,-0.44719,-0.16824,0.01955
32.2696,16473.3919,-0.33235,-0.00086,-0.0843
32.2888,16473.4119,-0.05074,0.26547,-0.13134
32.3086,16473.4319,0.10809,0.29541,-0.13439
32.3302,16473.4518,0.00852,-0.02286,-0.0788
32.3498,16473.4718,-0.22544,-0.18657,-0.0171
32.3686,16473.4918,-0.22422,-0.05523,-0.05192
32.391,16473.5118,-0.04952,0.22088,-0.13073
32.4098,16473.5318,0.12458,0.17568,-0.12889
32.4297,16473.5518,0.14352,0.00891,-0.02749
32.4515,16473.5718,-0.00309,-0.15786,0.00122
32.4668,16473.5918,-0.22483,-0.08211,-0.02688
32.4887,16473.6118,-0.35984,0.04006,-0.02077
32.5117,16473.6318,-0.32013,0.07305,-0.08002
32.5309,16473.6518,-0.16375,-0.1994,-0.12401
32.5495,16473.6718,0.05678,-0.36005,-0.12828
32.5709,16473.6918,0.13619,-0.30446,-0.146
32.5937,16473.7118,0.06838,-0.10349,-0.16799
32.621,16473.7318,-0.26087,-0.02224,-0.10446
32.6393,16473.7518,-0.60662,-0.11449,-0.02138
32.6563,16473.7718,-0.73796,-0.11998,0.04887
32.6639,16473.7918,-0.43192,-0.07539,0.01466
32.6861,16473.8118,0.08304,0.02785,-0.10751
32.7049,16473.8318,0.32922,0.01746,-0.1234
32.7245,16473.8518,0.22904,0.03762,-0.07697
32.7466,16473.8718,0.00913,0.05289,-0.01894
32.7646,16473.8917,-0.19734,0.01257,-0.02505
32.7841,16473.9117,-0.30547,0.03823,-0.05254
32.8059,16473.9317,-0.1271,0.10604,-0.03665
32.8237,16473.9517,0.193,0.16835,-0.01222
32.8441,16473.9717,0.39519,0.12986,0.0507
32.8683,16473.9917,0.33228,0.08221,0.19853
32.8902,16474.0117,0.2156,0.01257,0.22235
32.9099,16474.0317,0.14779,-0.04668,0.13317
32.9278,16474.0517,0.08671,-0.06256,0.07208
32.9464,16474.0717,0.0299,-0.04179,0.05925
32.9718,16474.0917,0.02318,-0.05401,0.0733
32.9968,16474.1117,0.01218,-0.14992,0.13378
33.0076,16474.1318,0.00913,-0.2446,0.14539
33.0255,16474.1518,-0.09716,-0.1774,0.14294
33.0471,16474.1718,-0.23766,-0.10227,0.20769
33.0729,16474.1918,-0.2456,-0.14625,0.22419
33.0923,16474.2119,-0.21323,0.01929,0.17593
33.1076,16474.2319,-0.15153,0.20378,0.10996
33.1254,16474.2519,0.02012,0.18117,-0.00672
33.1469,16474.272,0.18261,-0.04362,-0.05376
33.1735,16474.292,0.25897,-0.0534,-0.00733
33.1919,16474.312,0.24187,0.10604,0.00122
33.2055,16474.332,0.12519,0.18545,0.01527
33.2281,16474.3521,0.03417,0.13902,0.05864
33.2459,16474.3721,0.01585,0.07366,0.09102
33.2677,16474.3921,0.03173,0.07305,0.08857
33.2879,16474.4121,0.04517,0.04495,0.08613
33.3059,16474.4322,0.08304,0.00524,0.09407
33.3264,16474.4522,0.12214,0.09077,0.06475
33.3478,16474.4722,0.03356,0.07733,0.04276
33.3653,16474.4923,-0.15153,0.04006,0.06964
33.3995,16474.5123,-0.31585,0.05411,0.15027
33.4133,16474.5323,-0.26576,-0.13159,0.1967
33.429,16474.5523,-0.11121,-0.28247,0.35003
33.4474,16474.5724,0.06716,-0.10227,0.2248
33.4819,16474.5924,0.04334,0.21049,0.05437
33.4858,16474.6124,0.04578,0.14391,-0.08797
33.5066,16474.6325,0.15635,-0.03507,-0.05498
33.5264,16474.6525,0.26752,-0.10044,-0.02627
33.5439,16474.6725,0.27608,-0.10593,-0.08247
33.5644,16474.6925,0.06288,-0.10349,-0.1295
33.5861,16474.7125,-0.15886,-0.12487,-0.08735
33.6074,16474.7325,-0.10816,-0.21894,-0.05009
33.6256,16474.7525,0.12397,-0.26781,-0.08002
33.647,16474.7726,0.26569,-0.26598,-0.14233
33.6656,16474.7926,0.22232,-0.2446,-0.15821
33.6892,16474.8126,-0.04341,0.01135,0.0843
33.7099,16474.8326,-0.08739,0.27647,0.23152
33.7293,16474.8527,0.11053,0.2331,0.05131
33.7489,16474.8727,0.08243,0.07244,-0.02382
33.7715,16474.8928,-0.0263,-0.09372,-0.00061
33.7909,16474.9128,-0.02569,-0.23238,-0.00367
33.8122,16474.9329,0.07021,0.33022,0.09407
33.8338,16474.9529,0.13619,0.34794,0.11423
33.8507,16474.973,0.15207,0.17201,0.02321
33.8734,16474.9931,0.11053,-0.00881,-0.00733
33.8913,16475.0131,0.05616,0.00341,0.03665
33.9111,16475.0332,0.04028,0.1097,0.05376
33.9324,16475.0533,-0.00065,0.14086,0.02199
33.9631,16475.0733,-0.08372,0.16163,-0.00367
33.9724,16475.0934,-0.15214,0.22393,0.01588
33.9918,16475.1134,-0.12465,0.25936,0.01894
34.0158,16475.1335,-0.20284,0.28013,-0.03177
34.0323,16475.1536,-0.30547,0.2783,-0.05987
34.0531,16475.1737,-0.30425,0.24654,-0.04582
34.0864,16475.1938,-0.29325,0.23554,0.00244
34.0975,16475.2139,-0.30608,0.22149,-0.06658
34.1181,16475.234,-0.28348,0.16773,-0.12095
34.1291,16475.2541,-0.21873,0.12253,-0.08247
34.1485,16475.2742,-0.06906,0.048,-0.04398
34.168,16475.2943,0.07021,-0.10838,-0.01588
34.1926,16475.3144,0.13497,-0.08211,0.00366
34.2123,16475.3345,0.09648,0.19095,-0.03238
34.2335,16475.3546,-0.02691,0.2331,-0.03543
34.2544,16475.3746,-0.10144,0.0871,-0.00244
34.2754,16475.3947,0.01646,0.06389,-0.011
34.2931,16475.4148,0.11786,0.02235,0.0171
34.3147,16475.4348,0.13558,0.05717,0.14111
34.3342,16475.4549,0.1087,0.01319,0.12889
34.3529,16475.475,0.05372,-0.16213,0.02749
34.3752,16475.495,0.05189,-0.30385,-0.08552
34.3922,16475.515,0.07266,-0.40526,-0.06292
34.4125,16475.535,0.0415,-0.28492,-0.0055
34.4343,16475.5551,-0.0208,-0.02774,0.03971
34.4534,16475.5751,0.00974,0.10115,0.02504
34.4729,16475.5951,0.08121,0.07427,0.02932
34.4948,16475.6152,0.10687,-0.00392,0.03665
34.5177,16475.6352,0.16368,-0.03324,0.00855
34.5327,16475.6552,0.1765,-0.06256,0.01283
34.5564,16475.6752,0.13069,-0.03874,0.02932
34.5738,16475.6953,0.04089,0.04617,0.04581
34.6035,16475.7153,-0.05074,0.04373,0.02382
34.6121,16475.7353,-0.05868,0.00097,0.00244
34.631,16475.7553,-0.01225,-0.00636,-0.00977
34.6494,16475.7753,-0.02569,-0.0027,-0.00916
34.6693,16475.7953,-0.07762,0.02601,-0.00122
34.6883,16475.8153,-0.13748,0.05595,0.03238
34.7083,16475.8353,-0.16863,0.04067,0.0055
34.7296,16475.8553,-0.23216,-0.01553,-0.01222
34.7484,16475.8753,-0.16436,-0.09127,-0.01772
34.7738,16475.8953,-0.12587,-0.11326,-0.01344
34.7934,16475.9153,-0.12465,-0.06562,-0.00916
34.8084,16475.9352,-0.10083,-0.03263,-0.04887
34.8334,16475.9552,-0.07151,-0.02835,-0.06658
34.8529,16475.9752,-0.00126,-0.06012,-0.04643
34.8688,16475.9952,0.01096,-0.09982,-0.02993
34.8893,16476.0152,0.02745,-0.09127,-0.02321
34.9105,16476.0352,0.03967,-0.07295,-0.02077
34.9351,16476.0552,-0.02691,-0.05523,-0.03482
34.9515,16476.0752,-0.07517,-0.00086,-0.02444
34.9707,16476.0952,-0.02386,0.02601,-0.01405
34.9892,16476.1152,0.06899,0.00463,-0.02627
35.0116,16476.1352,0.12886,-0.02469,-0.02321
35.0312,16476.1552,0.11297,-0.05034,-0.03543
35.0578,16476.1752,0.05983,-0.06317,-0.04887
35.0706,16476.1952,0.05189,-0.05462,-0.03604
35.0975,16476.2152,0.06777,-0.02286,-0.01283
35.1115,16476.2352,-0.00126,0.00097,-0.03482
35.1323,16476.2552,-0.03424,-0.02591,-0.05192
35.1502,16476.2752,-0.08128,-0.02713,-0.05864
35.1677,16476.2952,-0.07334,-0.00209,-0.04215
35.1885,16476.3151,-0.00126,-0.00575,-0.00672
35.2101,16476.3351,0.05128,-0.03446,0.01099
35.2313,16476.3551,0.02134,-0.04973,0.00183
35.249,16476.3751,-0.09594,-0.00209,-0.00367
35.2709,16476.3951,-0.14176,0.02052,0.00977
35.2886,16476.4151,-0.11793,0.03029,0.03054
35.3088,16476.4351,-0.06479,0.02479,0.03421
35.3321,16476.4551,-0.01592,0.04312,0.05498
35.3487,16476.4751,0.02318,0.07855,0.07697
35.3695,16476.4951,0.02806,0.10604,0.0898
35.3959,16476.5151,-0.0037,0.1097,0.08369
35.4121,16476.5351,-0.05074,0.06022,0.03971
35.4626,16476.5551,-0.0654,0.00158,0.01527
35.4659,16476.5751,-0.03669,0.01135,0.00611
35.469,16476.5951,-0.03974,0.03579,-0.01588
35.4906,16476.6151,-0.05379,0.04617,0.00733
35.5092,16476.6351,-0.02019,0.05717,0.00855
35.528,16476.6551,0.00974,0.07916,0.01344
35.5473,16476.6751,-0.00309,0.07244,0.02688
35.5727,16476.6951,-0.02814,0.06816,0.04276
35.5885,16476.715,-0.04219,0.06572,0.04398
35.6193,16476.7351,-0.08678,0.05228,0.04215
35.63,16476.7551,-0.11121,0.03762,0.04765
35.6498,16476.7751,-0.06173,0.03762,0.0562
35.6687,16476.7952,-0.01103,0.03518,0.07208
35.691,16476.8152,0.01401,0.03457,0.0788
35.7096,16476.8352,-0.01775,0.07305,0.08063
35.7288,16476.8552,-0.07273,0.07061,0.04704
35.7517,16476.8753,-0.09289,0.04739,0.01466
35.769,16476.8953,-0.03485,0.03518,0.01771
35.7891,16476.9153,0.03173,0.0419,0.02443
35.8172,16476.9354,0.01585,0.06083,0.02443
35.8326,16476.9554,-0.03547,0.05656,0.0226
35.8538,16476.9754,-0.03241,0.0364,0.00794
35.8741,16476.9954,0.01096,0.03212,0.01161
35.8925,16477.0155,0.05678,0.0309,0.04581
35.9136,16477.0355,0.08304,0.0364,0.05437
35.9355,16477.0555,0.09159,0.05595,0.03909
35.9524,16477.0756,0.10015,0.06144,0.03299
35.9695,16477.0956,0.07632,0.04678,0.03115
35.9914,16477.1156,0.05433,0.02418,0.0226
36.0098,16477.1356,0.03112,0.00158,0.02504
36.0334,16477.1557,0.00241,-0.00575,0.01344
36.0558,16477.1757,0.01951,0.00158,0.01038
36.0745,16477.1957,0.04883,-0.02347,0.00794
36.093,16477.2158,0.00974,-0.01003,-0.00244
36.1121,16477.2358,-0.04524,-0.00086,0.00366
36.1289,16477.2558,-0.03424,0.00769,0.00672
36.1499,16477.2758,0.01463,0.01013,-0.00305
36.1722,16477.2959,0.03234,0.01441,0.00061
36.1908,16477.3159,0.02562,0.03395,0.00916
36.2197,16477.3359,0.00913,0.02601,0.00305
36.2353,16477.3559,-0.01225,0.00341,-0.01039
36.2526,16477.3759,-0.01836,-0.0253,-0.02382
36.278,16477.3959,-0.00859,-0.02591,-0.0226
36.2922,16477.4159,-0.01836,-0.01797,-0.0281
36.3095,16477.4359,-0.03852,0.00036,-0.02077
36.3285,16477.4559,-0.02814,-0.00086,-0.01833
36.3497,16477.4759,-0.0037,-0.02041,-0.01161
36.3682,16477.4959,0.01951,-0.02286,-0.00489
36.3879,16477.5159,0.02623,-0.0027,-0.00428
36.4165,16477.5359,0.01951,0.00463,-0.00672
36.4344,16477.5558,0.01524,-0.00453,-0.01283
36.4534,16477.5758,0.01463,-0.00819,-0.00977
36.475,16477.5958,0.03234,-0.01064,-0.00428
36.5033,16477.6158,0.04761,-0.0143,0.00733
36.513,16477.6358,0.04639,-0.00209,0.00977
36.5373,16477.6558,0.02501,0.00524,-0.0055
36.5529,16477.6758,-0.00675,0.00647,-0.01405
36.5731,16477.6958,-0.0263,0.04251,-0.01833
36.602,16477.7158,-0.02752,0.02296,-0.00855
36.6123,16477.7358,-0.01103,-0.01675,-0.01161
36.6352,16477.7558,0.02379,-0.00881,-0.02138
36.6497,16477.7758,-0.00614,0.02907,-0.00916
36.6681,16477.7958,-0.02264,0.03029,0.00672
36.6885,16477.8158,-0.00126,0.00891,0.00916
36.7103,16477.8358,0.01646,-0.00453,0.00794
36.7321,16477.8558,0.01463,0.00402,0.01099
36.7558,16477.8758,-0.01409,0.01074,-0.00367
36.776,16477.8958,-0.03974,0.03395,-0.00733
36.7992,16477.9158,-0.0373,0.01074,-0.02077
36.8136,16477.9358,-0.02691,0.01868,-0.02688
36.8469,16477.9557,-0.04463,0.04556,-0.02382
36.8543,16477.9757,-0.03669,0.0761,-0.00244
36.8798,16477.9957,-0.00614,0.06939,0.01283
36.8966,16478.0157,0.00424,0.03029,0.01283
36.9134,16478.0357,-0.00065,-0.01064,-0.00244
36.929,16478.0557,-0.0037,0.02174,-0.00244
36.9514,16478.0757,-0.02386,0.04067,-0.00855
36.98,16478.0957,-0.03608,0.02846,-0.01344
36.9934,16478.1157,-0.00737,0.01257,0.00489
37.0113,16478.1357,0.03173,0.01135,0.02688
37.0308,16478.1557,0.01279,0.01135,0.0226
37.0486,16478.1757,-0.02203,0.01196,0.01344
37.0703,16478.1957,0.00607,0.02296,0.0281
37.0887,16478.2157,0.04761,0.03701,0.03971
37.1118,16478.2357,0.0415,0.04678,0.03604
37.1331,16478.2557,0.03478,0.03579,0.00977
37.1511,16478.2757,0.03417,0.02418,-0.0055
37.171,16478.2957,0.03234,0.03334,0.00855
37.1921,16478.3157,0.00119,0.02296,0.00489
37.2154,16478.3357,-0.02997,0.00402,0.01894
37.2328,16478.3557,-0.05135,-0.01675,-0
37.2546,16478.3756,-0.0544,-0.01003,-0.01466
37.2743,16478.3956,-0.02019,0.00219,0.00366
37.2964,16478.4156,0.01524,-0.06867,-0.02321
37.3119,16478.4356,-0.01286,-0.06928,-0.00672
37.3325,16478.4556,-0.02936,-0.07844,0.00611
37.3487,16478.4756,-0.02508,-0.08822,-0.0336
37.372,16478.4956,-0.0263,-0.09372,-0.01772
37.3898,16478.5156,0.00974,-0.10532,-0.01283
37.4128,16478.5356,0.05739,-0.12243,-0.00855
37.4311,16478.5556,0.04639,-0.10044,-0.0281
37.4514,16478.5756,0.00668,-0.05034,-0.01527
37.471,16478.5956,-0.01836,0.00586,0.00916
37.4941,16478.6156,-0.01531,0.02907,0.02749
37.5083,16478.6356,-0.00859,0.01685,0.02871
37.5307,16478.6556,0.00485,0.01746,0.02016
37.5493,16478.6756,0.02501,0.01807,0.00183
37.5864,16478.6956,0.02196,-0.01247,-0.01039
37.6063,16478.7156,0.00424,-0.05523,-0.0336
37.6124,16478.7356,0.00424,-0.07234,-0.04215
37.6275,16478.7556,0.05861,-0.03935,0.00489
37.6478,16478.7755,0.07877,0.01319,0.02321
37.669,16478.7955,0.04211,0.01074,0.01771
37.6875,16478.8155,0.02929,-0.00148,0.01344
37.7074,16478.8355,0.03845,-0.01491,0.00183
37.7296,16478.8555,-0.00675,-0.03446,0.02504
37.75,16478.8755,-0.05624,-0.02102,0.05131
37.7698,16478.8955,-0.01714,-0.01003,0.06536
37.7944,16478.9155,0.06349,-0.04301,0.03421
37.8176,16478.9355,0.1032,-0.07539,0.00855
37.8326,16478.9555,0.07754,-0.03568,0.00916
37.8563,16478.9755,0.04028,0.01502,0.02932
37.8708,16478.9955,0.01218,0.04067,0.03176
37.8926,16479.0155,-0.02447,0.00952,0.01771
37.9145,16479.0355,-0.04341,-0.02408,0.00366
37.9324,16479.0555,-0.02752,0.00586,-0.0055
37.953,16479.0755,-0.01164,0.0083,0.00122
37.9732,16479.0955,-0.0037,-0.00086,0.01099
37.9929,16479.1155,0.00974,0.00952,0.00916
38.0162,16479.1355,0.01157,0.01868,0.01405
38.0459,16479.1555,-0.00126,0.01868,0.02566
38.0574,16479.1754,-0.00553,0.0254,0.02993
38.0693,16479.1954,0.00974,0.02113,0.02932
38.0976,16479.2154,0.03295,0.01624,0.02566
38.1098,16479.2354,0.02196,0.01624,0.02443
38.1302,16479.2554,-4e-05,0.01685,0.02077
38.1513,16479.2754,0.00424,0.02357,0.01527
38.1688,16479.2954,0.0018,0.02357,0.00733
38.192,16479.3154,-0.01286,0.01074,0.00244
38.2118,16479.3354,-0.03119,-0.00575,0.01161
38.2309,16479.3554,-0.02997,0.01074,0.01283
38.2537,16479.3755,0.00546,0.01074,0.00977
38.2757,16479.3955,0.02379,0.00341,0.02077
38.2934,16479.4155,0.02868,0.0028,0.02382
38.3135,16479.4356,0.01401,0.00769,0.01405
38.3354,16479.4556,-4e-05,0.00586,-0.00061
38.3538,16479.4756,-0.0037,0.01135,0.00244
38.375,16479.4956,-0.01531,-0.01125,0.00061
38.3953,16479.5157,0.02684,-0.01491,-0.01527
38.4136,16479.5357,0.05006,-0.05462,-0.02444
38.4371,16479.5557,0.04639,-0.06134,-0.03543
38.456,16479.5758,0.06472,-0.09494,-0.04398
38.4697,16479.5958,0.08304,-0.16152,-0.05742
38.4896,16479.6158,0.11786,-0.2446,-0.08247
38.5118,16479.6358,0.12397,-0.346,-0.11118
38.5321,16479.6559,0.13863,-0.31546,-0.15821
38.5521,16479.6759,0.13191,-0.30508,-0.18509
38.5769,16479.6959,0.09343,-0.24765,-0.18448
38.6037,16479.7159,0.01524,-0.10105,-0.15394
38.612,16479.736,-0.02814,-0.04057,-0.09591
38.6301,16479.756,-0.02814,-0.10654,-0.08247
38.6492,16479.776,-0.0935,-0.09372,0.02199
38.6686,16479.7961,-0.06234,-0.02896,0.11851
38.6907,16479.8161,0.047,-0.10654,0.04337
38.7089,16479.8361,-0.10816,0.31251,0.00305
38.729,16479.8561,-0.17108,0.41758,-0.00122
38.7537,16479.8762,-0.06662,0.14147,-0.03787
38.7753,16479.8962,0.08182,-0.06501,-0.06353
38.791,16479.9162,0.14169,-0.03752,-0.0788
38.8177,16479.9363,0.02501,0.10543,-0.07758
38.83,16479.9563,-0.12465,0.15979,-0.10018
38.8498,16479.9763,-0.18452,0.16712,-0.07453
38.8718,16479.9962,-0.19124,0.17812,-0.01955
38.8902,16480.0162,-0.13565,0.13536,-0.01161
38.9136,16480.0362,0.01646,-0.02652,-0.06658
38.948,16480.0562,0.13924,-0.14442,-0.14172
38.9595,16480.0762,0.15329,-0.11815,-0.15699
38.9756,16480.0962,0.04456,0.02479,-0.10324
38.9941,16480.1162,-0.0208,0.13353,0.01527
39.0104,16480.1362,0.00607,0.1042,0.03726
39.0337,16480.1562,0.10198,0.01563,-0.01649
39.0594,16480.1762,0.08243,-0.05157,-0.04765
39.0782,16480.1962,0.01951,-0.02041,-0.02566
39.0906,16480.2162,-0.0147,0.03884,0.01283
39.1099,16480.2362,-0.05013,0.00647,0.05437
39.1301,16480.2562,-0.06234,0.01991,0.08674
39.1501,16480.2762,-0.05013,0.06389,0.08491
39.1707,16480.2962,-0.088,0.06267,0.07758
39.191,16480.3162,-0.10999,0.04495,0.08796
39.2152,16480.3362,-0.07212,0.00524,0.08063
39.239,16480.3562,-0.07884,-0.04668,0.08735
39.2499,16480.3762,-0.17841,-0.01553,0.09102
39.2717,16480.3962,-0.27981,0.06328,0.07025
39.2914,16480.4161,-0.223,0.09382,0.04948
39.3124,16480.4361,-0.07823,0.04739,0.03238
39.3343,16480.4561,0.01035,0.00097,0.00061
39.3539,16480.4761,0.02929,0.00891,-0.01955
39.3725,16480.4961,0.02501,0.01929,-0.03849
39.3912,16480.5162,-0.01775,0.03334,-0.05498
39.4111,16480.5362,0.01157,0.05289,-0.03849
39.4493,16480.5562,0.06105,0.0645,-0.02199
39.4522,16480.5762,0.07205,0.03823,-0.03054
39.4712,16480.5963,0.02929,-0.00575,-0.03238
39.4887,16480.6163,-0.0037,-0.02469,-0.03421
39.5104,16480.6363,-0.01714,-0.00881,-0.03604
39.5323,16480.6564,-0.01286,0.04129,-0.01405
39.5528,16480.6764,-0.01653,0.04984,0.01344
39.573,16480.6964,0.01218,-0.00025,0.00733
39.6016,16480.7164,0.03967,-0.0143,0.00855
39.6138,16480.7365,0.00974,0.00891,-0.00122
39.6313,16480.7565,-0.03302,0.04312,0.00489
39.6526,16480.7766,-0.04035,0.05106,-0.00794
39.671,16480.7966,0.00363,0.01074,-0.01283
39.6911,16480.8167,0.04334,-0.00086,-0.00061
39.7169,16480.8368,0.02868,0.02235,0.01161
39.7353,16480.8569,-0.02142,0.02418,0.02138
39.7563,16480.877,-0.03485,-0.00575,0.00916
39.7774,16480.8971,-0.00126,-0.03691,0.0055
39.7958,16480.9172,0.00424,-0.01003,0.00366
39.812,16480.9373,0.00729,0.0138,0.00855
39.8335,16480.9574,0.01401,-0.01369,0.00428
39.8568,16480.9775,0.02318,-0.02163,-0.00428
39.8751,16480.9976,0.00852,-0.01369,-0.02688
39.8984,16481.0177,0.00302,-0.00636,-0.0281
39.9171,16481.0378,0.01218,-0.01247,-0.02321
39.9365,16481.0579,0.03539,0.0083,-0.02993
39.9586,16481.078,0.04028,0.00586,-0.03115
39.9764,16481.0981,0.03356,-0.02286,-0.02871
39.9972,16481.1181,0.01951,-0.03202,-0.02627
40.0178,16481.1382,-0.00187,-0.02958,-0.02077
40.0389,16481.1582,-0.01225,-0.02774,-0.00977
40.0562,16481.1783,-0.01531,-0.01736,-0.00244
40.0849,16481.1984,-0.01714,-0.00575,-0.00244
40.0946,16481.2184,-0.0092,-0.00819,-0.00244
40.1122,16481.2385,-0.0037,-0.02224,0.00489
40.1343,16481.2585,0.00852,-0.01919,0.01038
40.1521,16481.2786,0.00974,-0.01736,0.00672
40.1729,16481.2987,-0.00065,-0.00331,-0.00428
40.1947,16481.3187,0.00729,-0.00881,-0.01039
40.2133,16481.3388,0.01096,-0.01125,-0.00061
40.2333,16481.3589,0.00485,0.01135,0.01649
40.2568,16481.379,-0.01775,0.01563,0.01466
40.2778,16481.399,-0.01775,0.00952,0.01038
40.2983,16481.4191,0.00974,0.0028,0.00916
40.319,16481.4391,0.00363,-0.00331,0.00794
40.3404,16481.4591,-0.03424,0.00097,0.00489
40.3549,16481.4792,-0.04829,0.01441,0.00733
40.3747,16481.4992,-0.0318,0.03457,0.02138
40.3929,16481.5192,-0.0092,0.0254,0.02749
40.4165,16481.5392,-0.00309,0.01074,0.03848
40.4375,16481.5593,0.01096,0.02846,0.03543
40.4577,16481.5793,0.02196,0.03823,0.03543
40.4777,16481.5993,0.01035,0.04251,0.02566
40.4953,16481.6194,0.00119,0.04434,0.03054
40.5141,16481.6394,0.00607,0.06511,0.02077
40.5363,16481.6594,-4e-05,0.07183,0.02138
40.5585,16481.6794,-0.00553,0.05472,0.02627
40.5767,16481.6995,-0.00431,0.03457,0.02871
40.6138,16481.7195,0.00852,0.02418,0.01649
40.6182,16481.7395,0.00974,0.01807,0.01161
40.635,16481.7596,-0.00492,0.05778,0.02932
40.6515,16481.7796,0.01463,0.06083,0.0281
40.6739,16481.7996,0.03662,0.03884,0.00611
40.6923,16481.8196,-0.00309,0.02662,-0.00733
40.7118,16481.8397,-0.04463,0.03457,0.00672
40.7336,16481.8597,-0.02142,0.03518,0.01894
40.7574,16481.8797,0.01157,0.01319,0.01527
40.787,16481.8998,-0.00187,0.01319,0.01099
40.7987,16481.9198,-0.02875,0.01991,0.01466
40.817,16481.9398,-0.02508,0.0083,0.01955
40.8372,16481.9598,0.01707,-0.00453,0.01833
40.858,16481.9798,0.02929,-0.00392,0.01466
40.8776,16481.9998,0.01463,0.00402,0.00794
40.9008,16482.0198,0.00791,0.0028,0.01161
40.928,16482.0398,0.02929,-0.00392,0.00611
40.9333,16482.0597,0.03173,0.00891,-0.00733
40.9536,16482.0797,0.02073,0.00341,0.00122
40.9746,16482.0997,-0.00492,-0.00453,-0.00611
40.9938,16482.1197,-0.0208,-0.02286,-0.01466
41.0168,16482.1397,-0.02386,-0.01858,-0.01649
41.0387,16482.1597,-0.01225,-0.00331,-0.01466
41.0526,16482.1797,-0.00187,-0.01553,0.00855
41.0777,16482.1997,0.00363,-0.02041,0.01344
41.0937,16482.2197,0.01096,-0.01308,0.0055
41.1117,16482.2397,-0.01592,-0.00636,-0
41.1318,16482.2597,-0.02691,0.00586,-0.00305
41.1675,16482.2797,-4e-05,0.01135,-0
41.1831,16482.2997,0.01585,0.00647,0.00977
41.1963,16482.3197,0.01096,0.02235,0.00855
41.216,16482.3397,-0.01592,0.0309,0.00183
41.233,16482.3597,-0.00981,0.00647,0.01527
41.2531,16482.3797,0.01829,-0.00148,0.02504
41.2769,16482.3997,0.02318,0.00586,0.02199
41.2952,16482.4197,-0.00798,-0.00148,0.01955
41.3156,16482.4397,-0.01409,-0.00209,0.0226
41.3339,16482.4596,0.00058,0.01196,0.02016
41.352,16482.4796,0.0134,0.01257,0.01222
41.3714,16482.4996,0.00119,-0.00392,0.00061
41.3988,16482.5196,-4e-05,0.01196,-0.00428
41.4167,16482.5396,0.02012,0.01807,-0.00122
41.467,16482.5596,0.03295,0.00647,0.00428
41.4698,16482.5796,0.01524,-0.00392,-0.00244
41.4724,16482.5996,-0.01042,-0.00209,-0.00916
41.4918,16482.6196,-0.01286,0.00586,-0.00122
41.5131,16482.6396,0.00607,0.00708,0.00428
41.5312,16482.6596,0.02379,-0.00453,0.00428
41.5524,16482.6796,-0.00675,-0.01003,-0.00428
41.5735,16482.6996,-0.01164,0.01074,-0.00244
41.591,16482.7196,0.0189,0.01929,0.00122
41.6112,16482.7396,0.02134,-0.00086,0.00061
41.633,16482.7596,-0.0147,-0.00758,-0.00061
41.6512,16482.7796,-0.03669,0.00036,-0.00611
41.6712,16482.7996,-0.02325,-0.0253,-0.00428
41.6933,16482.8196,-0.01897,-0.03324,-0.00916
41.7114,16482.8396,-0.0092,-0.01797,-0.01466
41.7314,16482.8595,0.01157,0.00036,-0.01772
41.7544,16482.8795,0.00852,-0.01247,-0.01466
41.7713,16482.8995,-0.00431,-0.0253,-0.02627
41.7918,16482.9195,-0.00737,-0.01491,-0.0281
41.8187,16482.9395,0.00852,-0.0253,-0.02382
41.8379,16482.9595,0.01463,-0.0143,-0.02688
41.8572,16482.9795,0.01279,-0.01491,-0.01894
41.8788,16482.9995,0.01524,-0.01491,-0.00916
41.8943,16483.0195,0.01096,-0.02591,-0.01527
41.9149,16483.0394,-0.0037,-0.03507,-0.02444
41.9356,16483.0594,-0.01897,-0.02713,-0.03421
41.9571,16483.0794,-0.04341,-0.0253,-0.04276
41.9761,16483.0993,-0.05135,-0.02224,-0.04032
41.9973,16483.1193,-0.03119,-0.01614,-0.03726
42.0219,16483.1392,0.00668,0.00097,-0.01894
42.036,16483.1592,0.01829,0.0083,-0.0055
42.0571,16483.1792,-0.00553,-0.00086,-0.00611
42.0769,16483.1991,-0.00492,0.0028,-0.01161
42.0933,16483.2191,0.01646,0.01991,-0.01466
42.1134,16483.2391,0.02318,0.01135,-0.01222
42.1308,16483.259,0.00913,0.01319,-0.0171
42.1532,16483.279,0.00485,0.01135,-0.0171
42.1762,16483.2989,0.00607,0.00952,-0.01649
42.1937,16483.3189,-0.00492,-0.00086,-0.02321
42.2153,16483.3389,-0.02325,-0.01064,-0.00855
42.2381,16483.3588,-0.01042,-0.00025,0.00794
42.2557,16483.3788,-0.01225,-0.00148,0.01405
42.2797,16483.3988,-0.01836,-0.0198,0.01222
42.303,16483.4187,-0.01836,-0.00086,0.00916
42.3145,16483.4387,-0.00309,0.01013,0.00855
42.3397,16483.4586,-0.00431,0.01074,0.00733
42.3595,16483.4786,-0.03669,0.07,-0.00977
42.3749,16483.4986,-0.03058,0.04495,-0.00305
42.3952,16483.5185,0.02318,0.00402,-0.01039
42.4171,16483.5385,0.0299,0.00891,-0.00183
42.4337,16483.5584,-0.00187,0.02601,0.02077
42.4527,16483.5784,-0.01836,0.01807,0.01466
42.4762,16483.5984,0.00363,0.00524,0.00916
42.4945,16483.6184,0.04028,0.02174,0.01527
42.5138,16483.6384,0.05739,0.02601,0.01771
42.5383,16483.6584,0.03112,0.01319,0.01283
42.553,16483.6784,-0.03058,-0.01125,-0.00977
42.572,16483.6983,-0.04402,-0.01797,-0.01527
42.5928,16483.7183,-0.01347,-0.00697,-0.00122
42.6237,16483.7383,-0.00126,-0.00025,0.00305
42.6328,16483.7583,-0.01531,-0.00881,0.01405
42.6507,16483.7783,-0.02325,-0.00392,0.01833
42.6709,16483.7983,-0.0263,0.01257,0.0171
42.6904,16483.8183,-0.03913,0.03518,0.03115
42.7126,16483.8383,-0.03913,0.0419,0.0281
42.7306,16483.8583,-0.01225,0.04556,0.02138
42.7501,16483.8783,-0.01347,0.01991,0.00183
42.7717,16483.8983,-0.03363,0.02113,0.01649
42.7921,16483.9183,-0.02752,0.02235,0.01466
42.8194,16483.9383,-0.01714,0.01441,0.02016
42.8353,16483.9583,-0.02325,0.00647,0.01099
42.8537,16483.9783,-0.02203,0.01685,-0.00794
42.8706,16483.9983,-0.01225,0.01013,-0.011
42.8935,16484.0183,0.01707,0.00463,-0.00977
42.91,16484.0383,0.0299,0.01502,-0.00672
42.9337,16484.0583,0.02501,0.0309,-0.00305
42.9523,16484.0782,0.0244,0.02113,-0
42.9703,16484.0982,0.02012,0.00891,0.00794
42.9903,16484.1182,0.00668,0.02296,0.01833
43.0112,16484.1382,-0.00614,0.02052,0.02443
43.031,16484.1582,-0.01286,0.01929,0.02688
43.0512,16484.1782,-0.00737,0.00402,0.02993
43.0725,16484.1982,0.02562,0.00524,0.02688
43.0901,16484.2182,0.03845,0.0083,0.01833
43.1111,16484.2382,0.02562,0.00341,-0.00061
43.1385,16484.2582,0.00852,-0.00514,-0.01466
43.1505,16484.2782,0.01463,-0.01003,-0.02077
43.1705,16484.2982,0.03112,-0.01553,-0.01833
43.1925,16484.3182,0.03478,0.00097,-0.01955
43.2104,16484.3382,0.03845,-0.00025,-0.01772
43.2303,16484.3582,0.04211,0.00097,-0.00916
43.2534,16484.3782,0.05006,0.00097,-0.00122
43.2705,16484.3982,0.04761,-0.00148,0.00672
43.292,16484.4182,0.03295,-0.00575,-0
43.3147,16484.4382,0.03051,-0.00758,-0.00794
43.3343,16484.4582,0.02196,-0.02469,-0.00244
43.3626,16484.4782,0.0134,-0.02041,-0.00122
43.373,16484.4982,0.03478,-0.00392,0.00244
43.398,16484.5181,0.04456,-0.01736,0.00855
43.4094,16484.5381,0.0299,-0.0308,-0.00428
43.4588,16484.5581,0.02012,-0.01553,-0.00367
43.4605,16484.5781,0.03845,0.00769,-0.00428
43.4706,16484.5981,0.03478,0.00524,-0.01527
43.4914,16484.6181,0.0018,-0.02041,-0.02749
43.5103,16484.6381,-0.02752,-0.02896,-0.01894
43.5303,16484.6581,-0.03119,-0.0253,-0.00428
43.5629,16484.6781,-0.0147,-0.01125,-0.00855
43.5731,16484.6981,0.00363,-0.01247,-0.00489
43.592,16484.7181,0.01157,-0.00697,0.00855
43.615,16484.7381,0.01096,-0.00392,0.00977
43.6303,16484.7581,0.00852,-0.00575,-0
43.651,16484.7781,0.0018,-0.01369,-0.00733
43.6734,16484.7981,0.01218,0.00708,-0.01161
43.6908,16484.8181,0.01463,0.02418,-0.00428
43.7108,16484.8381,0.01463,0.00952,-0.00122
43.7322,16484.8581,0.00119,-0.01003,0.00611
43.7545,16484.8781,-0.0037,-0.01003,-0.00061
43.7759,16484.8981,-0.00065,-0.0027,0.0055
43.7976,16484.918,-0.00248,-0.00086,0.00611
43.8151,16484.938,-0.02569,-0.01247,0.00428
43.8362,16484.958,-0.0373,-0.01553,-0.00733
43.8575,16484.978,-0.0092,-0.00086,-0.00489
43.8777,16484.998,0.02318,0.00891,0.00794
43.8961,16485.018,0.02012,0.01196,0.01405
43.916,16485.038,-0.00065,0.00891,0.01283
43.9351,16485.058,-0.00675,0.0083,0.01405
43.956,16485.078,0.01524,0.01746,0.01833
43.9791,16485.098,0.02501,0.01563,0.03299
44.0067,16485.118,0.00607,0.02601,0.02566
44.0158,16485.138,0.00241,0.02418,0.02749
44.0361,16485.158,0.01096,0.01746,0.04032
44.0551,16485.178,0.01401,0.01624,0.04581
44.0851,16485.198,0.00241,0.03273,0.04032
44.0956,16485.218,0.01035,0.0309,0.04276
44.115,16485.238,0.00974,0.02235,0.04032
44.1321,16485.258,0.00119,0.02662,0.03054
44.1553,16485.278,0.01585,0.02113,0.02993
44.1771,16485.298,0.02562,0.02968,0.03115
44.1926,16485.318,0.01768,0.0254,0.03176
44.2131,16485.3379,0.0134,0.01807,0.02993
44.2327,16485.3579,0.03112,0.02113,0.03176
44.2513,16485.3779,0.04456,0.02724,0.0281
44.2734,16485.3979,0.03112,0.01929,0.02871
44.2958,16485.4179,0.02196,0.01624,0.02077
44.3153,16485.4379,0.03601,0.02052,0.02566
44.3385,16485.4579,0.04761,0.01135,0.02871
44.3575,16485.4779,0.02868,0.00402,0.02443
44.3754,16485.4979,0.01646,0.00219,0.01833
44.3969,16485.5179,0.00974,-0.00697,0.01405
44.415,16485.5379,0.01218,-0.01675,0.00672
44.4356,16485.5579,0.00546,-0.0143,0.00305
44.4568,16485.5779,0.00485,0.00463,0.00366
44.4764,16485.5979,0.00852,0.00036,0.00428
44.495,16485.6179,-0.02386,-0.0143,-0
44.5167,16485.6379,-0.0489,-0.0253,-0.00977
44.5363,16485.6579,-0.03302,-0.00697,-0.00855
44.5601,16485.6779,0.00241,-0.00636,0.00916
44.579,16485.6979,0.02257,-0.01247,0.02443
44.5952,16485.7179,0.01524,-0.00086,0.01955
44.6143,16485.7378,0.00241,0.00158,0.01038
44.6329,16485.7578,0.00791,-0.01614,0.00977
44.6497,16485.7778,0.01707,-0.01858,0.00611
44.6696,16485.7978,0.02257,0.00647,-0
44.6963,16485.8178,0.01951,0.00463,-0.00611
44.7134,16485.8378,0.01951,0.00219,-0.01161
44.7337,16485.8578,0.02684,-0.00025,-0.01955
44.7581,16485.8778,0.02868,0.0028,-0.00977
44.7769,16485.8978,0.02562,-0.00331,-0.00367
44.8033,16485.9178,-0.00248,-0.0027,-0.01405
44.8165,16485.9378,-0.01347,-0.01003,-0.02382
44.8365,16485.9578,0.00852,-0.01247,-0.00794
44.855,16485.9778,0.02868,0.00586,0.01099
44.8769,16485.9978,0.01157,0.02235,-0.00061
44.8943,16486.0178,-0.00126,0.00158,-0.00794
44.9136,16486.0378,0.0018,-0.00025,-0.00367
44.9373,16486.0578,0.01463,0.00524,0.00061
44.9551,16486.0778,0.00852,-0.00942,-0.00489
44.9768,16486.0978,-4e-05,-0.0143,-0.00733
44.9985,16486.1178,0.00485,0.00402,-0.00794
45.0186,16486.1377,0.0189,-0.01186,-0.01405
45.0345,16486.1577,0.01707,-0.03813,-0.02627
45.0512,16486.1777,0.00058,-0.0308,-0.03115
45.0705,16486.1977,-0.01103,-0.02347,-0.03115
45.0938,16486.2177,-0.00126,-0.03629,-0.03054
45.1119,16486.2377,0.01524,-0.04424,-0.0281
45.1312,16486.2577,-0.00431,-0.0308,-0.02505
45.1503,16486.2777,-0.04646,-0.03629,-0.02505
45.177,16486.2977,-0.05135,-0.04179,-0.01833
45.1932,16486.3177,-0.00431,-0.02896,-0.01833
45.215,16486.3377,0.0134,-0.02224,-0.01405
45.236,16486.3577,0.00241,-0.02163,-0.01161
45.2538,16486.3777,-0.0208,-0.01003,-0.02138
45.2772,16486.3977,-0.0092,-0.00636,-0.01344
45.2981,16486.4177,0.00974,-0.00942,-0.00122
45.3141,16486.4377,0.01524,-0.00086,0.00061
45.3324,16486.4577,0.01646,0.02052,0.00428
45.3546,16486.4777,0.03051,0.03273,0.02443
45.3721,16486.4977,0.03784,0.02052,0.02871
45.3932,16486.5177,0.03356,0.02418,0.02993
45.4281,16486.5377,0.02684,0.03334,0.00855
45.4335,16486.5576,-0.00309,0.00952,0.00489
45.4511,16486.5776,-0.02325,0.0083,-0.00428
45.4857,16486.5976,-0.02875,0.00586,-0.02321
45.4896,16486.6176,-0.01653,0.01196,-0.0226
45.5095,16486.6376,0.00241,0.01746,-0.01405
45.5309,16486.6576,0.00852,0.01196,-0.00855
45.5496,16486.6776,0.00852,0.00219,-0.01039
45.5693,16486.6976,0.0018,0.01624,-0.011
45.5917,16486.7176,0.01951,0.03701,-0.01527
45.6097,16486.7376,0.03601,0.0254,-0.00855
45.6282,16486.7576,0.03845,0.02846,-0.01039
45.6514,16486.7776,0.01524,0.03334,-0.01405
45.6695,16486.7976,0.00852,0.01746,-0.01527
45.691,16486.8176,0.02501,-0.00148,-0.01588
45.7129,16486.8376,0.00424,0.00158,-0.02016
45.7339,16486.8576,-0.0147,0.0083,-0.03115
45.7554,16486.8776,-0.01225,-0.00575,-0.03787
45.7752,16486.8976,0.01157,-0.00881,-0.03115
45.7937,16486.9176,0.02073,0.01624,-0.02321
45.8149,16486.9376,0.00791,0.0083,-0.02382
45.8389,16486.9575,-0.00065,-0.02591,-0.02444
45.8539,16486.9775,0.00241,-0.01553,-0.02566
45.8763,16486.9975,0.00546,0.00647,-0.01588
45.8954,16487.0176,0.00241,-0.0027,-0.00916
45.9161,16487.0376,-4e-05,-0.02286,-0.01772
45.9364,16487.0576,-0.02325,-0.01614,-0.01222
45.9576,16487.0776,-0.03485,-0.00575,-0.00672
45.9767,16487.0977,-0.00737,-0.00148,-0.011
45.9979,16487.1177,0.02073,-0.00697,-0.00672
46.0141,16487.1377,0.0134,0.00097,-0.00244
46.0319,16487.1578,-0.00309,0.00769,0.00061
46.0521,16487.1778,0.01401,0.00341,0.00122
46.0875,16487.1978,0.02684,-0.01247,0.00061
46.0992,16487.2178,0.00974,-0.00697,-0.0055
46.1135,16487.2379,-0.01897,0.00586,-0.00794
46.1335,16487.2579,-0.01653,0.00219,-0.01039
46.1534,16487.2779,0.00424,-0.01308,-0.01039
46.1732,16487.298,0.00852,0.00219,0.00061
46.1965,16487.318,-0.0037,0.00647,0.00733
46.2159,16487.338,-0.01225,0.00097,0.00366
46.2358,16487.3581,-0.0092,0.00341,-0.00489
46.2571,16487.3781,0.0018,-0.00148,0.00305
46.2757,16487.3981,0.01463,0.01502,0.01466
46.2958,16487.4181,0.01524,0.03212,0.01283
46.3173,16487.4382,-0.01347,0.00952,0.00366
46.3362,16487.4582,-0.00675,0.00158,-0.00183
46.3561,16487.4782,0.01218,0.0138,0.00733
46.3768,16487.4983,0.02379,0.01196,-0.00061
46.3962,16487.5183,-0.01347,-0.00697,-0.01161
46.4171,16487.5384,-0.0489,-0.01614,-0.02077
46.4398,16487.5585,-0.03058,-0.00697,-0.00977
46.4567,16487.5785,0.00363,-0.01736,0.00183
46.4758,16487.5986,0.00241,-0.01491,0.00122
46.4988,16487.6186,-0.01225,0.00586,-0.00305
46.5162,16487.6387,-0.01897,-0.00697,-0.00428
46.5451,16487.6587,-0.01409,-0.0198,-0.00672
46.5583,16487.6787,0.00424,-0.00636,-0.00244
46.5773,16487.6987,0.00546,0.01441,0.00244
46.6116,16487.7188,-0.00492,0.02113,-0.00733
46.6206,16487.7388,-0.0147,0.00036,-0.0171
46.6436,16487.7588,0.00058,-0.01064,-0.00489
46.6516,16487.7789,0.02379,-0.00025,0.00061
46.6725,16487.7989,-0.00065,-0.00758,-0.01344
46.6917,16487.8189,-0.02875,-0.00758,-0.01466
46.7125,16487.8389,-0.02508,-0.01491,-0.011
46.7375,16487.859,-0.00309,-0.01186,-0.01039
46.7579,16487.879,0.00058,-0.00697,-0.00367
46.7781,16487.8991,0.00363,-0.00209,0.00244
46.7994,16487.9191,0.01035,-0.0027,-0.00672
46.8174,16487.9392,0.00119,-0.00758,-0.00855
46.8417,16487.9592,0.00974,0.00708,0.00428
46.8592,16487.9793,0.01585,0.01257,-0.00061
46.8774,16487.9994,0.00974,0.00402,0.00122
46.8988,16488.0194,0.00791,0.00219,0.00366
46.9187,16488.0395,0.00668,-0.00697,0.01527
46.9397,16488.0596,-0.00675,0.0254,0.0171
46.9601,16488.0796,0.00119,0.02113,0.01283
46.9804,16488.0996,0.02196,0.00402,0.01099
46.9976,16488.1197,-0.0208,0.03029,0.02504
47.0124,16488.1397,-0.02325,0.03762,0.01955
47.0352,16488.1597,-0.01531,0.01929,0.01894
47.0547,16488.1798,-0.0037,0.00097,0.02443
47.0735,16488.1998,-0.01531,0.00891,0.02749
47.0953,16488.2198,-0.02691,0.0254,0.02199
47.1123,16488.2398,-0.03852,0.01991,0.01466
47.1331,16488.2599,-0.04219,0.01624,0.01161
47.1541,16488.2799,-0.05196,-0.00636,0.00611
47.175,16488.2999,-0.08372,0.02296,0.01161
47.1954,16488.32,-0.08311,0.01685,0.02138
47.2229,16488.34,-0.06906,0.02052,0.00305
47.2454,16488.36,-0.08372,0.048,0.00916
47.2562,16488.38,-0.09411,0.04984,0.01405
47.2752,16488.4001,-0.03669,0.00036,0.01222
47.2935,16488.4201,0.03295,-0.00086,0.01099
47.3149,16488.4401,0.07754,0.00586,0.01405
47.3367,16488.4602,0.09954,0.01319,0.01283
47.3569,16488.4802,0.11603,0.00708,0.00428
47.3756,16488.5002,0.08854,-0.02286,-0.01161
47.4008,16488.5202,0.03234,-0.03996,-0.00794
47.4177,16488.5402,-0.01286,-0.01797,-0.00122
47.4348,16488.5602,-0.01775,-0.00209,-0.00611
47.4668,16488.5802,0.02012,-0.00575,0.00672
47.4732,16488.6002,0.03539,-0.00758,0.01405
47.4921,16488.6201,0.02379,-0.00086,0.01222
47.5137,16488.6401,0.01707,-0.01675,0.01283
47.5316,16488.6601,0.02868,-0.03813,0.02077
47.5524,16488.6801,0.03234,-0.01308,0.02504
47.5742,16488.7001,0.02379,0.00097,0.01894
47.5935,16488.7201,0.01951,-0.01919,0.01099
47.613,16488.7401,0.02318,-0.01308,0.00733
47.6339,16488.7601,0.0244,-0.01614,0.00855
47.6529,16488.7801,0.00058,-0.03385,0.00489
47.6716,16488.8001,-0.00248,-0.04607,-0
47.6983,16488.8201,0.00485,-0.03874,0.00733
47.7173,16488.8401,0.03967,-0.02835,0.01038
47.737,16488.8601,0.06472,-0.02896,0.01527
47.7588,16488.8801,0.0751,-0.01491,0.02443
47.7754,16488.9001,0.06838,-0.02469,0.01894
47.798,16488.9201,0.05311,-0.02958,-0.00367
47.818,16488.9401,0.01951,-0.02408,-0.01161
47.8382,16488.9601,-0.01347,-0.00392,-0.01833
47.8573,16488.9801,0.00363,-0.00392,-0.00916
47.8806,16489.0001,0.0189,-0.03019,-0.01344
47.8982,16489.02,-0.01347,-0.03385,-0.01833
47.9173,16489.04,-0.04035,-0.01247,-0.01894
47.9384,16489.06,-0.03547,-0.00819,-0.01527
47.9574,16489.08,-0.01714,-0.03324,-0.01894
47.9777,16489.1,-0.00187,-0.03263,-0.03115
47.995,16489.12,-0.02386,-0.00575,-0.03482
48.0133,16489.14,-0.04096,0.00463,-0.02566
48.0344,16489.16,-0.01897,-0.01308,-0.02444
48.0586,16489.18,0.01096,-0.02102,-0.02321
48.0817,16489.2,0.00729,-0.00575,-0.01283
48.1064,16489.22,-0.02019,0.01502,0.00061
48.1214,16489.24,-0.03913,0.03518,0.00855
48.1414,16489.26,-0.02264,0.04067,0.01283
48.1526,16489.28,0.00852,0.03823,-0.01344
48.1753,16489.3,-0.00614,0.01991,-0.01527
48.1939,16489.32,-0.02691,0.00219,-0.02382
48.2132,16489.34,-0.01653,0.01319,-0.01466
48.2353,16489.36,0.00058,0.00463,-0.00428
48.2536,16489.38,0.00119,0.00708,-0.00489
48.2765,16489.4,0.00791,0.01196,0.00428
48.2989,16489.4199,0.00485,0.01746,-0.00489
48.3168,16489.4399,-0.01653,0.01929,-0.01283
48.338,16489.4599,-0.04768,0.00219,-0.01772
48.3593,16489.4799,-0.03669,-0.0027,-0.01833
48.3757,16489.4999,-4e-05,0.01135,-0.00916
48.3971,16489.5199,0.0299,0.00647,-0
48.4173,16489.5399,0.03173,-0.01064,0.00244
48.4371,16489.5599,0.02257,-0.00514,0.0055
48.4579,16489.5799,0.01829,0.02174,0.00489
48.4787,16489.5999,-0.00798,0.02907,0.01466
48.499,16489.6199,0.00241,0.01563,0.00977
48.5173,16489.6399,0.0299,0.0083,0.00305
48.5398,16489.6599,0.02012,-0.00086,-0.01649
48.5536,16489.6799,-0.00248,0.01196,-0.01344
48.5717,16489.6999,-0.00737,0.00586,-0.00122
48.5955,16489.7199,0.00363,-0.01064,-0
48.612,16489.7399,0.00485,-0.02102,-0.01405
48.6333,16489.7599,-0.0092,-0.0198,-0.01894
48.656,16489.7799,-0.00737,-0.01675,-0.01772
48.6734,16489.8,0.01524,-0.00453,-0.01588
48.6931,16489.82,0.02745,-0.00209,-0.00855
48.7166,16489.84,0.02501,0.01196,0.00611
48.7377,16489.86,0.00607,0.01502,0.00489
48.7583,16489.8801,-0.01775,0.0028,0.00611
48.7791,16489.9001,-0.00492,-0.00697,0.00794
48.7976,16489.9201,0.0134,0.00524,0.00305
48.8186,16489.9402,0.0189,0.00219,0.00122
48.839,16489.9602,0.01524,-0.00881,0.0055
48.8585,16489.9802,0.0299,-0.00148,0.00183
48.8806,16490.0002,0.01463,0.00952,-0
48.9008,16490.0203,0.00424,-0.01064,-0.00183
48.9186,16490.0403,0.00424,-0.01369,-0.00183
48.9378,16490.0603,0.01279,-0.00697,0.00428
48.9581,16490.0804,-0.00065,-0.00636,0.00183
48.9789,16490.1004,-0.00737,-0.00209,-0.00244
48.9953,16490.1204,0.01157,0.00586,-0.00061
49.015,16490.1404,0.01096,0.00158,-0.00244
49.0393,16490.1605,0.00852,-0.01553,-0.00794
49.0581,16490.1805,0.00668,-0.01919,-0.00367
49.0896,16490.2005,0.01707,-0.01675,-0.01344
49.1051,16490.2206,0.01707,-0.00209,-0.00061
49.1154,16490.2406,0.01035,0.01074,0.0171
49.1362,16490.2606,0.0189,0.00769,0.01466
49.1562,16490.2806,0.02318,0.00036,0.00733
49.1742,16490.3007,-0.00065,0.01624,0.01466
49.1967,16490.3207,-0.00614,0.02785,0.01283
49.2144,16490.3407,0.0018,0.01624,0.00916
49.2343,16490.3607,0.00546,0.02662,0.00855
49.2558,16490.3807,-0.00187,0.01868,-0.00061
49.2755,16490.4007,-0.01958,-0.01369,0.00244
49.3083,16490.4207,-0.02875,-0.01919,0.00366
49.3183,16490.4407,-0.01836,-0.00086,0.00183
49.3384,16490.4607,-0.0147,-0.0027,0.00366
49.3631,16490.4807,0.01401,-0.01003,0.00244
49.3846,16490.5007,0.03417,-0.00331,0.0055
49.3995,16490.5207,0.02501,0.00402,-0.00061
49.4142,16490.5407,0.00241,-0.01369,-0.01283
49.4429,16490.5607,-0.00248,-0.01186,-0.0171
49.4523,16490.5807,0.00791,0.00586,-0.00916
49.4737,16490.6007,0.01829,0.01441,0.00428
49.4938,16490.6207,0.00974,0.00769,0.00794
49.5126,16490.6406,-0.01042,-0.00575,-0.00061
49.536,16490.6606,-0.0263,-0.01308,-0.00855
49.5574,16490.6806,-0.01103,-0.00392,0.00428
49.5731,16490.7006,-0.00126,0.00524,-0.00061
49.5948,16490.7206,-0.0147,-0.01125,-0.01039
49.6174,16490.7406,-0.01286,-0.00636,-0
49.6325,16490.7606,0.00791,0.01013,0.01405
49.6535,16490.7806,0.02318,0.01441,0.00977
49.6752,16490.8006,0.02196,0.00952,-0.00183
49.6922,16490.8206,0.00058,0.00463,-0.00183
49.7132,16490.8406,0.00546,0.00097,0.00916
49.7392,16490.8606,0.02868,0.01196,0.01099
49.7588,16490.8806,0.03845,0.00769,0.00916
49.7796,16490.9006,0.01524,0.00036,0.01833
49.8006,16490.9206,-0.0208,-0.00086,0.01405
49.8174,16490.9406,-0.01409,0.01196,0.00916
49.8377,16490.9606,0.02257,-0.00697,0.01466
49.858,16490.9806,0.01279,-0.00819,0.00794
49.8785,16491.0006,-0.01531,-0.00636,0.0055
49.8992,16491.0206,-0.00859,-0.00392,0.01344
49.9195,16491.0406,0.01707,-0.01247,0.01588
49.9347,16491.0605,0.0299,-0.00881,0.01466
49.9535,16491.0805,0.01585,-0.00209,0.01344
49.9747,16491.1005,0.00852,0.00769,0.02566
49.9934,16491.1205,0.0189,0.01196,0.02688
50.0133,16491.1405,0.02379,-0.00453,0.01527
50.039,16491.1605,0.02012,0.00769,0.02382
50.0574,16491.1805,0.00852,0.01991,0.02932
50.0737,16491.2005,0.01463,0.02052,0.02443
50.0957,16491.2205,0.02379,-0.00148,0.02199
50.1135,16491.2405,0.00546,-0.00086,0.0226
50.1328,16491.2605,0.0018,0.00708,0.03176
50.1549,16491.2805,0.0134,0.00463,0.02199
50.1789,16491.3005,0.01768,-0.01064,0.00855
50.2009,16491.3205,0.01157,0.00219,0.00611
50.2187,16491.3405,0.02257,0.02174,0.01588
50.2375,16491.3605,0.02684,0.01074,0.01283
50.2579,16491.3805,-0.01653,-0.00881,0.00122
50.2813,16491.4006,-0.04524,-0.02774,0.00366
50.2993,16491.4206,-0.01653,-0.01125,0.00611
50.3181,16491.4406,0.01463,0.00769,0.01405
50.342,16491.4607,0.01463,0.01746,0.01649
50.3588,16491.4807,-0.00126,0.01563,0.01405
50.3792,16491.5007,0.0018,0.00463,0.01099
50.3975,16491.5207,0.01401,0.00341,0.01344
50.4151,16491.5408,0.01157,0.01807,0.01833
50.4356,16491.5608,0.00607,0.01868,0.0171
50.4615,16491.5808,0.00302,0.00586,0.01099
50.4786,16491.6008,0.00668,0.01013,0.01283
50.4984,16491.6209,-0.0037,0.0028,0.01588
50.5192,16491.6409,0.00546,-0.00025,0.01588
50.5347,16491.6609,-0.00737,-0.01308,0.00183
50.5547,16491.681,-0.02386,-0.01247,-0.00305
50.5837,16491.701,-0.02019,-0.0027,-0.00428
50.6119,16491.721,0.00119,-0.00697,0.00061
50.6208,16491.741,0.02196,-0.01369,0.00061
50.6386,16491.7611,0.00058,-0.00453,-0.00489
50.6535,16491.7811,-0.00492,0.00341,-0.00122
50.6742,16491.8011,0.01768,-0.00697,0.00305
50.6957,16491.8212,0.02868,-0.02224,0.00061
50.7161,16491.8412,0.02562,-0.00392,-0.00367
50.7332,16491.8612,0.0189,0.00708,-0.00916
50.7556,16491.8812,-4e-05,0.00341,-0.01039
50.7734,16491.9013,-0.00859,-0.01125,-0.01222
50.7943,16491.9213,0.01096,-0.00209,-0.00916
50.8171,16491.9413,0.02318,-0.00209,-0.01222
50.836,16491.9613,0.00058,-0.00514,-0.01344
50.8664,16491.9813,-0.01164,-0.00881,-0.00916
50.8807,16492.0013,0.01524,-0.01247,-0.00489
50.897,16492.0213,0.01218,-0.00697,-0.00305
50.9181,16492.0413,-0.00981,-0.00025,-0.00916
50.9424,16492.0613,-0.00126,-0.0027,-0.01222
50.9549,16492.0813,0.02318,-0.00819,-0.0055
50.9767,16492.1013,0.02318,0.00158,-0.00428
50.9964,16492.1213,0.00424,-0.00025,-0.00367
51.0136,16492.1413,-0.0037,-0.01369,-0.00183
51.0338,16492.1613,0.02012,-0.00575,0.01222
51.0598,16492.1813,0.02868,0.00097,0.01588
51.0775,16492.2013,0.00058,-0.00331,0.01466
51.1001,16492.2213,-0.01347,-0.01369,-0.00244
51.1176,16492.2413,0.00241,-0.00881,-0.01161
51.1362,16492.2613,0.01585,0.00402,-0.00977
51.1547,16492.2813,-0.0037,0.0028,-0.00367
51.1788,16492.3013,-0.01775,-0.0198,-0.01283
51.1945,16492.3213,-0.03913,0.00097,-0.01649
51.2145,16492.3413,-0.0318,0.0028,-0.00367
51.2403,16492.3614,-0.01164,-0.00636,0.00366
51.2605,16492.3814,0.01096,0.00402,0.00489
51.2785,16492.4014,0.01768,0.01807,0.01344
51.2998,16492.4214,0.01524,0.00524,0.01833
51.3189,16492.4415,0.03051,0.00341,0.00977
51.3439,16492.4615,0.02623,0.02052,0.00244
51.3578,16492.4815,0.02501,0.02235,0.00061
51.3774,16492.5016,0.02806,0.01135,-0.00061
51.3967,16492.5216,0.02562,0.00219,0.00061
51.4469,16492.5416,0.00485,-0.00086,-0.00244
51.4493,16492.5616,-0.01714,0.00341,-0.00733
51.4585,16492.5817,-0.0208,0.00463,-0.00855
51.4755,16492.6017,-0.01225,-0.01003,-0.01588
51.4941,16492.6217,-0.01409,-0.01369,-0.02321
51.5136,16492.6418,-0.0318,0.00341,-0.01894
51.5371,16492.6618,-0.03485,0.00463,-0.00611
51.5564,16492.6818,-0.00859,0.00219,-0.0055
51.5753,16492.7018,0.01035,-0.00392,-0.00367
51.5985,16492.7219,-0.01409,0.01074,0.00061
51.6145,16492.7419,-0.02508,0.00769,-0.00061
51.6342,16492.7619,-0.00553,-0.00453,-0.00977
51.6561,16492.782,0.01279,-0.0027,-0.00611
51.6749,16492.802,0.00607,0.0028,-0.0055
51.6945,16492.822,-0.00614,0.00158,-0.00916
51.718,16492.842,-0.00187,-0.00209,-0.01772
51.7391,16492.8621,0.00913,-0.00758,-0.02016
51.7618,16492.8821,0.00607,-0.00819,-0.01894
51.7818,16492.9021,-0.01164,-0.00514,-0.01833
51.7978,16492.9221,-0.02019,-0.00575,-0.02199
51.8178,16492.9421,-0.02142,-0.01125,-0.01894
51.8384,16492.9621,-0.02814,-0.02408,-0.02077
51.8582,16492.9821,-0.03058,-0.01736,-0.02505
51.8796,16493.0021,-0.01714,-0.00697,-0.01894
51.9012,16493.0221,-0.0092,-0.00881,-0.01405
51.9182,16493.0421,-0.01103,-0.01125,-0.0171
51.9423,16493.0621,-0.02752,-0.00636,-0.01222
51.9616,16493.0821,-0.02386,0.01013,-0.00733
51.9785,16493.102,0.00058,0.01013,-0.00244
51.9986,16493.122,0.01463,0.00586,0.00611
52.0204,16493.142,0.01524,0.01319,0.00672
52.0384,16493.162,0.0134,0.01502,0.00977
52.0638,16493.182,0.01463,0.01441,0.01649
52.0877,16493.202,0.02196,0.03457,0.00916
52.0957,16493.222,0.03112,0.04067,0.0055
52.1146,16493.242,0.00302,0.01746,0.00489
52.1401,16493.262,-0.0208,0.00158,-0.00367
52.1588,16493.2821,-0.01409,0.01991,-0.00244
52.1813,16493.3021,-0.00187,0.0254,0.0055
52.2035,16493.3221,0.01157,0.01991,0.00611
52.219,16493.3422,0.02623,0.01257,0.00794
52.2412,16493.3622,0.02745,0.0138,0.02016
52.2607,16493.3822,0.00607,0.01135,0.00916
52.279,16493.4022,-0.0092,0.00463,-0.00611
52.2991,16493.4223,0.00791,0.00586,-0.01344
52.3212,16493.4423,0.01401,0.01441,-0.00305
52.3397,16493.4623,0.00668,0.01196,-0.00183
52.3679,16493.4824,0.00974,0.0028,-0.0055
52.3813,16493.5024,0.00791,0.00158,-0.00428
52.3988,16493.5224,-0.0092,0.00891,-0.00244
52.4209,16493.5424,-0.01714,-0.00697,-0.00733
52.441,16493.5625,-4e-05,-0.01247,-0.00733
52.4586,16493.5825,-0.0037,-0.01064,-0.011
52.4803,16493.6025,-0.02142,0.0083,-0.00794
52.5038,16493.6226,-0.02019,0.00341,-0.00122
52.5242,16493.6426,0.00913,-0.01125,0.00061
52.547,16493.6626,0.02379,-0.00758,-0.00367
52.5611,16493.6826,0.00729,0.01257,-0.00367
52.5799,16493.7027,0.00424,0.00463,-0.0055
52.6078,16493.7227,0.00363,-0.00819,-0.01039
52.6288,16493.7427,0.01157,-0.00758,-0.00611
52.6429,16493.7628,0.00241,-0.00942,-0.00672
52.6555,16493.7828,-0.00737,-0.01186,-0.01466
52.6776,16493.8028,-0.01775,-0.00209,-0.00794
52.6954,16493.8228,-0.00798,-0.00758,0.00061
52.7152,16493.8429,0.00302,-0.01247,-0.00244
52.7392,16493.8629,-0.00065,-0.01003,-0.00977
52.7576,16493.8829,-0.01897,-0.00209,-0.01466
52.7768,16493.9029,-0.0208,-0.00453,-0.01283
52.8004,16493.9229,-0.00187,-0.02163,-0.01039
52.8167,16493.9428,0.00485,-0.00636,-0.00977
52.8385,16493.9628,-0.01775,0.00097,-0.0055
52.8625,16493.9828,-0.02508,0.00341,-0.00794
52.8817,16494.0028,-0.00859,-0.00881,-0.00916
52.9021,16494.0228,-0.0037,-0.00881,-0.00183
52.9187,16494.0428,-0.00553,0.00341,0.00366
52.936,16494.0628,-0.02386,0.00036,-0.00244
52.9562,16494.0828,-0.00981,-0.01858,0.00794
52.9792,16494.1028,0.0415,-0.04362,0.04398
53.01,16494.1228,0.08549,-0.06623,0.04032
53.0281,16494.1428,0.06288,-0.12792,-0.02871
53.0393,16494.1628,0.0806,-0.21161,-0.20036
53.058,16494.1828,0.12092,-0.24521,-0.32742
53.0782,16494.2028,0.19239,-0.26231,-0.35736
53.0981,16494.2228,0.24003,-0.25987,-0.40439
53.1172,16494.2428,0.20766,-0.30202,-0.46792
53.1349,16494.2628,0.14413,-0.36127,-0.48442
53.1579,16494.2828,0.12031,-0.36005,-0.4777
53.1763,16494.3028,0.19178,-0.31485,-0.40073
53.196,16494.3228,0.24614,-0.27087,-0.28711
53.218,16494.3427,0.1594,-0.29347,-0.18937
53.2429,16494.3627,0.02318,-0.36005,-0.17165
53.2581,16494.3827,-0.0489,-0.35211,-0.14722
53.2816,16494.4027,-0.03608,-0.25804,-0.09774
53.3166,16494.4227,-0.01531,-0.20489,-0.0336
53.32,16494.4427,-0.05135,-0.23971,0.00916
53.3377,16494.4627,-0.10327,-0.28858,-0.01161
53.3618,16494.4827,-0.13076,-0.25193,-0.04215
53.3762,16494.5027,-0.18146,-0.22261,-0.05498
53.3971,16494.5227,-0.2285,-0.23788,-0.08674
53.4188,16494.5427,-0.25049,-0.2727,-0.11973
53.4364,16494.5627,-0.24194,-0.26048,-0.14966
53.4582,16494.5827,-0.20895,-0.18596,-0.15027
53.4752,16494.6027,-0.15214,-0.13648,-0.13134
53.5032,16494.6227,-0.09167,-0.0986,-0.12401
53.5172,16494.6427,-0.04463,-0.08272,-0.12462
53.5577,16494.6627,-0.02691,-0.07783,-0.10507
53.5601,16494.6827,-0.01958,-0.01797,-0.09102
53.5761,16494.7027,-0.01836,0.02235,-0.08797
53.5947,16494.7227,-0.03913,0.00891,-0.07697
53.6151,16494.7426,-0.0544,0.01991,-0.06597
53.6367,16494.7626,-0.04646,0.05595,-0.02016
53.6547,16494.7826,0.0018,0.06877,0.0507
53.6741,16494.8026,0.05311,0.08466,0.10324
53.6962,16494.8226,0.0751,0.10543,0.12706
53.7144,16494.8426,0.06227,0.13169,0.13622
53.7343,16494.8626,0.05678,0.15735,0.12889
53.7631,16494.8826,0.03906,0.16773,0.12706
53.7762,16494.9026,0.00791,0.19156,0.14477
53.7957,16494.9226,-0.00187,0.20683,0.14722
53.8222,16494.9426,0.00302,0.21049,0.13744
53.838,16494.9626,-0.01714,0.23188,0.15088
53.8603,16494.9826,-0.05685,0.24348,0.16432
53.8792,16495.0026,-0.07334,0.23126,0.17959
53.9013,16495.0226,-0.08372,0.24898,0.2083
53.919,16495.0426,-0.07884,0.28441,0.2303
53.9434,16495.0626,-0.11732,0.25631,0.26206
53.9587,16495.0826,-0.16314,0.17751,0.29138
53.9797,16495.1026,-0.18024,0.15674,0.29016
54.0028,16495.1226,-0.21873,0.12864,0.25168
54.0182,16495.1426,-0.19857,0.11398,0.22113
54.0484,16495.1625,-0.14664,0.12864,0.21625
54.0617,16495.1825,-0.10633,0.17751,0.19853
54.0797,16495.2025,-0.08372,0.21233,0.16493
54.0993,16495.2225,-0.10205,0.22882,0.10507
54.1198,16495.2425,-0.19673,0.17995,0.03176
54.1388,16495.2625,-0.24682,0.18056,0.01833
54.158,16495.2825,-0.24377,0.19217,0.01161
54.1811,16495.3025,-0.20773,0.1769,-0.011
54.1982,16495.3225,-0.16191,0.1543,-0.00855
54.2186,16495.3425,-0.14481,0.14086,-0.01405
54.2406,16495.3625,-0.10694,0.11581,-0.01222
54.259,16495.3825,-0.0373,0.09382,0.01038
54.2761,16495.4025,0.03723,0.0645,0.02749
54.2986,16495.4225,0.10442,0.04251,0.03421
54.3152,16495.4425,0.15757,0.01746,0.04032
54.3368,16495.4625,0.18933,-0.03019,0.04643
54.3619,16495.4825,0.24859,-0.08211,0.03726
54.3826,16495.5025,0.36038,-0.22078,0.0507
54.3953,16495.5225,0.48377,-0.32218,0.0898
54.417,16495.5425,0.56196,-0.39182,0.1295
54.4395,16495.5624,0.58945,-0.42358,0.12889
54.4587,16495.5824,0.48744,-0.38266,0.0788
54.4886,16495.6024,0.2437,-0.15297,0.02932
54.5011,16495.6224,0.02868,0.15368,0.05559
54.517,16495.6424,0.06655,0.12864,0.0898
54.5387,16495.6624,0.14902,-0.06745,0.05131
54.5557,16495.6824,0.15574,-0.13159,0.0226
54.5767,16495.7024,0.07388,-0.01858,-0
54.603,16495.7224,0.05189,0.05595,-0.00794
54.6182,16495.7424,0.12397,0.01135,-0.01161
54.6363,16495.7624,0.20705,-0.0253,-0.02871
54.6567,16495.7824,0.17406,-0.03263,-0.06292
54.6749,16495.8024,0.0696,-0.03263,-0.08797
54.6947,16495.8224,-0.03608,-0.0705,-0.08369
54.7172,16495.8424,-0.09594,-0.10044,-0.07208
