AppTimestamp(s),SensorTimestamp(s),gyro_x,gyro_y,gyro_z
0.0627,18876.1921,-0.4203,-0.07666,0.3587
0.065,18876.2122,-0.33172,-0.09621,0.27867
0.0676,18876.2323,-0.11853,-0.05651,0.26279
0.0698,18876.2523,0.12643,-0.11026,0.41306
0.1031,18876.2724,0.30358,-0.06384,0.69223
0.1135,18876.2924,0.40926,-0.08827,0.67879
0.1606,18876.3125,0.45263,-0.17318,0.58899
0.1662,18876.3325,0.30174,0.2135,0.86694
0.1967,18876.3526,0.49905,0.92271,0.88038
0.1997,18876.3726,0.64688,0.9276,0.77042
0.2072,18876.3926,0.4343,0.60079,0.42345
0.2435,18876.4126,-0.05256,0.03635,-0.0402
0.2582,18876.4327,-0.28347,-0.77855,-0.37068
0.2683,18876.4527,-0.21199,-1.37414,-0.46292
0.2864,18876.4727,-0.42274,-0.58246,-0.13366
0.3079,18876.4927,-0.2291,-0.18173,0.55662
0.3263,18876.5127,0.06106,0.58368,1.12106
0.3517,18876.5327,0.3665,0.36194,1.26828
0.369,18876.5527,0.61573,0.46212,1.31165
0.393,18876.5727,0.61756,0.44379,1.39289
0.4087,18876.5927,0.43613,0.70891,1.49552
0.4306,18876.6127,0.27303,1.32894,1.71665
0.4476,18876.6327,0.03846,1.82435,2.1296
0.4696,18876.6527,-0.38304,2.19331,2.30553
0.4939,18876.6727,-0.9322,2.31609,2.11677
0.5278,18876.6927,-1.52597,2.43399,2.10211
0.5475,18876.7127,-2.15882,2.42544,2.3098
0.5541,18876.7327,-2.35491,1.47799,2.01292
0.5706,18876.7527,-1.74038,1.01068,1.44543
0.5891,18876.7727,-0.81309,0.94226,1.00377
0.6094,18876.7927,-0.09226,0.88362,0.88954
0.628,18876.8126,0.08489,0.42363,0.79669
0.6565,18876.8326,-0.03179,-0.35949,0.64703
0.6732,18876.8526,-0.21322,-0.91233,0.32205
0.6909,18876.8726,-0.31523,-1.22876,-0.34441
0.7164,18876.8926,-0.34761,-1.36498,-0.96321
0.7341,18876.9126,-0.40075,-1.59222,-1.34684
0.7509,18876.9326,-0.3977,-1.89643,-1.62051
0.7789,18876.9526,-0.26942,-2.32404,-1.73962
0.7972,18876.9726,-0.08616,-2.60687,-2.14341
0.8074,18876.9926,0.12581,-2.80112,-2.68647
0.8274,18877.0126,0.36894,-2.81762,-3.01267
0.8495,18877.0326,0.54548,-2.76264,-3.09575
0.8751,18877.0526,0.61939,-2.68872,-3.10857
0.8917,18877.0726,0.71958,-2.75409,-3.28145
0.9151,18877.0926,0.81182,-2.88054,-3.47082
0.9281,18877.1126,0.98591,-3.09251,-3.58138
0.9489,18877.1326,1.17467,-3.41993,-3.65896
0.9704,18877.1526,1.19055,-3.36678,-3.73166
0.9874,18877.1726,0.78311,-3.0583,-3.53984
1.0085,18877.1926,0.30113,-2.5189,-3.04932
1.0354,18877.2126,0.17102,-1.86894,-2.52092
1.0483,18877.2325,0.14048,-1.27213,-2.27963
1.0676,18877.2525,-0.20589,-0.36194,-1.87524
1.0887,18877.2725,-0.62005,0.208,-1.41037
1.1095,18877.2925,-1.3873,-0.26115,-1.1422
1.1275,18877.3125,-2.39339,-0.60934,-1.19962
1.1487,18877.3325,-2.98838,-1.00029,-1.30896
1.1678,18877.3525,-2.86987,-1.17622,-1.1367
1.1998,18877.3725,-2.52595,0.04612,-0.46108
1.2098,18877.3925,-2.31642,0.98624,0.10763
1.228,18877.4125,-2.09957,1.22448,0.78936
1.2478,18877.4325,-1.43495,1.11391,1.3709
1.2713,18877.4525,-0.32195,0.83291,1.8095
1.2881,18877.4725,0.49233,0.64477,2.13387
1.3099,18877.4925,0.62184,0.84452,2.29086
1.3315,18877.5125,0.3781,1.68141,1.6238
1.3488,18877.5325,0.11604,2.14505,1.20719
1.369,18877.5525,-0.18939,2.37413,1.10945
1.3914,18877.5725,-0.32378,2.20736,1.32753
1.4091,18877.5925,-0.18084,1.74433,1.82416
1.4301,18877.6125,0.09588,0.96486,2.54743
1.4513,18877.6324,0.39765,0.51282,3.05872
1.4695,18877.6524,0.77272,0.81886,2.79544
1.4918,18877.6724,0.97125,1.08948,2.45397
1.514,18877.6924,0.84114,1.27762,2.6751
1.5293,18877.7124,0.37627,1.2593,2.90601
1.5589,18877.7324,-0.00369,0.89278,3.1192
1.5759,18877.7524,-0.16557,0.47556,3.30551
1.5903,18877.7724,-0.1393,-0.06384,3.5859
1.6079,18877.7924,0.11054,-0.08338,3.82597
1.632,18877.8124,0.1588,-0.07178,3.95975
1.6474,18877.8324,0.01219,0.23427,4.02389
1.6668,18877.8524,-0.04645,1.12002,3.70807
1.6902,18877.8724,-0.16923,1.28923,3.1308
1.7078,18877.8924,-0.40442,1.14934,2.50222
1.7273,18877.9124,-0.54553,0.96181,2.03858
1.7502,18877.9324,-0.55591,0.53909,1.83027
1.767,18877.9524,-0.48322,0.22571,1.7081
1.7881,18877.9724,-0.54675,-0.19334,1.55294
1.8156,18877.9924,-0.74467,-0.82558,1.29821
1.8367,18878.0124,-0.98535,-1.38819,0.78814
1.8458,18878.0324,-1.02444,-1.57573,0.28539
1.8686,18878.0523,-0.81675,-1.67591,-0.01393
1.8975,18878.0723,-0.48749,-1.69912,-0.22651
1.9064,18878.0923,-0.2291,-1.76876,-0.49896
1.9274,18878.1123,-0.22604,-1.91048,-0.95711
1.9467,18878.1323,-0.37326,-2.11512,-1.56675
1.966,18878.1523,-0.40503,-2.40773,-2.13058
1.9878,18878.1723,-0.33905,-2.37596,-2.57712
2.0091,18878.1923,-0.35188,-2.12001,-2.94853
2.0349,18878.2123,-0.36715,-1.52503,-3.4079
2.0507,18878.2323,-0.42824,-1.05161,-4.32786
2.0892,18878.2523,-0.50032,-0.85002,-5.04257
2.0921,18878.2723,-0.42519,-0.44929,-5.75606
2.1083,18878.2923,-0.16923,-0.06323,-6.36693
2.1268,18878.3123,0.10504,-0.97036,-6.90816
2.1467,18878.3323,0.44713,-1.8329,-7.0004
2.1832,18878.3523,0.79654,-2.98133,-6.5117
2.1908,18878.3723,1.13191,-4.17068,-5.47995
2.2177,18878.3923,0.84969,-3.52744,-3.48975
2.2436,18878.4123,-0.7294,-1.90498,-1.73657
2.2461,18878.4323,-2.6695,-1.00335,-0.95955
2.2679,18878.4522,-3.83259,0.1408,-0.65412
2.2873,18878.4722,-3.7935,0.3937,-0.21246
2.3057,18878.4922,-3.63101,0.09499,0.32082
2.3269,18878.5122,-3.45508,0.72662,1.28416
2.3519,18878.5322,-2.95295,0.75228,1.83699
2.3657,18878.5522,-2.26756,-0.99235,2.0905
2.3869,18878.5722,-1.9047,-1.186,2.60668
2.4092,18878.5922,-1.50153,-0.11393,2.63295
2.4262,18878.6122,-0.59867,1.04427,2.83942
2.4459,18878.6322,-0.10998,2.72415,3.42463
2.468,18878.6522,0.04823,4.47856,4.0245
2.4863,18878.6722,0.44957,5.2739,3.17479
2.5057,18878.6922,1.14962,3.34846,2.82598
2.5272,18878.7122,1.64626,2.68384,2.40387
2.5469,18878.7322,1.02928,1.55923,1.52484
2.5678,18878.7522,0.77578,0.71196,1.67878
2.5878,18878.7722,0.13009,0.70524,1.06425
2.6132,18878.7922,-0.15274,1.41385,0.95673
2.6295,18878.8122,0.03724,1.37842,1.09601
2.6489,18878.8322,-0.09349,1.3491,1.21635
2.6674,18878.8521,-0.79965,0.78404,2.09966
2.6877,18878.8721,-0.91571,0.51649,2.64211
2.7079,18878.8921,-0.26086,-0.02596,2.95121
2.7265,18878.9121,0.86435,-0.27214,2.93411
2.7464,18878.9321,1.88999,-0.30024,2.91334
2.7679,18878.9521,2.59066,1.57817,3.67753
2.7869,18878.9721,2.29194,0.92332,4.56756
2.8063,18878.9921,1.88327,-0.05101,5.14788
2.8283,18879.0121,2.13984,-0.20983,5.21202
2.8466,18879.0321,2.66946,-0.86346,4.95851
2.872,18879.0521,2.29744,-2.64047,5.36901
2.8887,18879.0721,1.63771,-3.74613,6.00187
2.9073,18879.0921,1.5027,-4.06806,6.12282
2.9264,18879.1121,1.42085,-3.08518,5.69277
2.9477,18879.1321,0.73729,-1.56718,5.12222
2.9665,18879.1521,-0.63227,-0.28375,4.48021
2.9887,18879.1721,-1.83934,-0.1518,3.79726
3.0084,18879.1921,-1.78436,-0.86712,3.20899
3.0263,18879.2121,-1.2468,-1.57817,1.88708
3.0465,18879.2321,-1.10447,-1.5177,0.76981
3.068,18879.2521,-1.29445,-1.41996,0.82112
3.087,18879.272,-2.05803,-1.6081,0.9494
3.1067,18879.292,-3.29686,-1.62887,0.24324
3.1331,18879.312,-4.21622,-1.23853,-1.07317
3.1466,18879.332,-4.11726,-0.66554,-2.16967
3.179,18879.352,-3.18874,0.03268,-2.93142
3.1929,18879.372,-2.45387,0.26481,-3.4415
3.2066,18879.392,-1.76787,0.36072,-4.25761
3.2266,18879.412,-1.07087,0.26664,-5.39321
3.2478,18879.432,-0.48566,-0.11576,-6.04439
3.268,18879.452,0.04518,-0.56169,-6.51659
3.2872,18879.472,0.43674,-0.86407,-7.20809
3.3104,18879.492,0.4734,-0.88728,-7.81896
3.3278,18879.512,0.25104,-0.00703,-8.43471
3.3474,18879.532,0.0128,0.92882,-8.46097
3.3691,18879.552,-0.34516,2.07419,-7.0737
3.4038,18879.572,-0.5944,3.75529,-5.88373
3.4248,18879.592,-0.81675,3.99475,-4.94422
3.4397,18879.612,-2.71715,1.25624,-4.7909
3.4516,18879.632,-2.23823,2.3051,-3.85444
3.4671,18879.652,-1.60049,1.84023,-3.9143
3.4876,18879.672,-1.22175,0.56719,-3.83672
3.5063,18879.6919,-1.26696,-0.66432,-3.1214
3.5269,18879.7119,-1.64692,-1.32894,-2.40974
3.5484,18879.7319,-2.60659,-1.10658,-0.82516
3.5668,18879.7519,-4.12703,-0.6973,-0.0683
3.5878,18879.7719,-5.37991,-0.9728,-0.18009
3.6109,18879.7919,-5.93214,-1.33627,-0.47269
3.6333,18879.8119,-5.92297,-1.49143,-0.24178
3.6711,18879.8319,-5.42878,-1.25808,0.3587
3.687,18879.8519,-4.73973,-0.60323,1.22552
3.6904,18879.8719,-4.04884,-0.95753,1.61769
3.7089,18879.8919,-3.33352,-1.28862,1.25667
3.7293,18879.9119,-2.39584,-1.38025,1.20291
3.747,18879.9319,-1.56445,-1.19821,1.2414
3.7713,18879.9519,-0.75872,-0.8659,1.5731
3.8124,18879.9719,0.32679,-0.72601,1.50774
3.8262,18879.9919,1.61571,-0.82558,1.64884
3.8337,18880.0119,2.6774,-1.72661,1.89808
3.8506,18880.0319,3.45992,-2.22752,2.05079
3.8677,18880.0519,3.71465,-1.98195,1.91885
3.8885,18880.0719,3.72503,-1.28434,1.5285
3.9083,18880.0918,3.76535,-0.33934,1.26278
3.9338,18880.1118,3.70732,-0.02718,1.46436
3.9496,18880.1318,3.66456,-0.1182,1.84005
3.9687,18880.1518,3.87103,-0.33017,2.62867
3.9897,18880.1718,4.27603,-0.52626,3.41547
4.0069,18880.1918,4.44097,-0.6411,3.79298
4.0286,18880.2118,4.34628,-0.9612,4.09475
4.0512,18880.2318,4.12637,-1.18661,4.23708
4.0724,18880.2518,3.67861,-1.2538,4.85222
4.0963,18880.2718,3.14288,-1.03267,6.27859
4.1182,18880.2918,2.67312,-0.01375,8.04827
4.1301,18880.3118,2.32798,0.80054,8.7416
4.1496,18880.3318,1.6432,1.66858,7.44351
4.1679,18880.3518,-0.17901,2.14139,5.10207
4.1974,18880.3718,-1.67929,1.53541,3.23771
4.2222,18880.3918,-1.63959,0.17135,3.73067
4.235,18880.4119,-0.47344,-1.76693,4.69401
4.268,18880.4319,0.17652,-2.52074,3.51687
4.2695,18880.4519,0.3103,-3.36312,2.69281
4.2878,18880.472,0.38788,-3.4743,2.49612
4.3068,18880.492,-0.20833,-3.16214,2.15831
4.3282,18880.512,-1.2523,-2.83228,2.06118
4.3486,18880.532,-1.63409,-2.91047,1.84127
4.3682,18880.5521,-1.3537,-3.55004,1.54255
4.3895,18880.5721,-1.14784,-3.53538,0.95002
4.4085,18880.5921,-1.32133,-2.33992,0.31227
4.429,18880.6121,-1.54002,-1.04305,-0.01576
4.4577,18880.6322,-1.60843,-0.35155,-0.43176
4.4695,18880.6522,-1.73977,0.09682,-0.97726
4.4882,18880.6722,-2.22663,0.17074,-1.57225
4.5084,18880.6923,-2.59987,0.41264,-2.26069
4.527,18880.7123,-2.66279,0.67592,-3.23563
4.5495,18880.7323,-2.64812,0.82314,-4.35474
4.5722,18880.7523,-2.57116,0.78588,-5.35411
4.5882,18880.7724,-2.31215,1.14873,-6.06577
4.6095,18880.7924,-2.25717,1.60322,-6.67358
4.6318,18880.8124,-2.54,0.58124,-7.06209
4.6525,18880.8325,-2.81672,-0.28253,-7.2368
4.6721,18880.8525,-3.03725,0.53359,-7.31621
4.6942,18880.8725,-3.34329,1.23059,-7.24352
4.7145,18880.8925,-4.09404,-0.26848,-6.79881
4.7391,18880.9126,-4.89367,-1.08398,-6.02362
4.7514,18880.9326,-5.14351,-0.18295,-5.12504
4.7692,18880.9526,-5.04333,-0.0113,-4.44759
4.7903,18880.9726,-4.9407,-1.81274,-3.78175
4.8091,18880.9926,-4.86557,-2.32587,-3.39751
4.8302,18881.0127,-4.72446,-1.30023,-2.24114
4.8507,18881.0327,-4.43246,-0.17318,-0.05425
4.8697,18881.0527,-4.28097,0.11087,2.13265
4.8895,18881.0727,-4.7721,-0.27031,3.34033
4.9091,18881.0928,-5.23514,-0.03757,3.72823
4.9309,18881.1128,-5.39457,-0.47434,3.20777
4.9491,18881.1328,-4.78004,-1.48165,2.23344
4.979,18881.1529,-4.1985,-1.78464,1.57737
4.9973,18881.1729,-3.89062,-1.11025,1.35441
5.0144,18881.1929,-3.58519,-0.66371,1.75758
5.0296,18881.2129,-2.88392,0.13042,2.53093
5.0508,18881.233,-2.60964,0.43219,2.70014
5.0701,18881.253,-2.29016,0.27275,2.77039
5.0967,18881.273,-1.60599,-0.01313,3.23526
5.1122,18881.2931,-1.30972,0.36133,3.58223
5.1293,18881.3131,-1.74465,0.8885,3.40142
5.1492,18881.3331,-0.82347,0.26176,3.5914
5.1714,18881.3531,0.42941,-1.38147,2.99031
5.1937,18881.3732,1.32555,-3.24889,1.69099
5.2217,18881.3932,1.95169,-4.85546,1.15527
5.2324,18881.4132,2.21375,-6.19448,1.39228
5.2566,18881.4333,2.57722,-6.46693,2.30858
5.2716,18881.4533,3.14105,-6.05154,4.03427
5.2898,18881.4733,3.84843,-6.4657,4.12468
5.3079,18881.4933,4.8307,-6.3417,3.07888
5.3321,18881.5134,5.16118,-5.72411,1.8883
5.3553,18881.5334,4.79466,-5.77543,0.90481
5.3727,18881.5534,4.26198,-6.51396,0.14551
5.3967,18881.5735,3.64012,-6.46387,-0.20269
5.4143,18881.5935,3.34019,-5.93486,0.02639
5.4352,18881.6135,3.50879,-5.6899,0.6232
5.4563,18881.6335,3.83499,-5.46572,1.14366
5.4731,18881.6535,4.05612,-6.01061,1.42344
5.4983,18881.6735,4.25954,-6.8029,1.34219
5.5204,18881.6935,4.38232,-7.08207,0.66902
5.5322,18881.7135,3.96083,-7.20119,0.18582
5.5494,18881.7334,3.87592,-7.4046,0.51386
5.5695,18881.7534,4.5888,-7.28671,0.85044
5.5953,18881.7734,5.76654,-7.47546,1.03004
5.6115,18881.7934,7.06647,-8.1633,2.01231
5.6333,18881.8134,8.04324,-7.99531,2.91578
5.6564,18881.8334,8.16786,-6.1169,3.9683
5.6735,18881.8534,6.65047,-5.42907,4.68362
5.6917,18881.8734,5.48799,-4.28614,3.84491
5.7158,18881.8934,6.00234,-4.20489,2.84431
5.7294,18881.9134,5.82335,-3.33685,1.78995
5.7534,18881.9334,4.93271,-2.34725,0.2634
5.7754,18881.9534,4.04268,-0.73212,-1.09822
5.7926,18881.9734,3.04697,0.73884,-2.13058
5.8075,18881.9934,2.4978,3.77851,-2.90271
5.8296,18882.0134,2.0366,5.51214,-2.97907
5.8477,18882.0334,1.60838,4.20672,-3.58688
5.873,18882.0534,1.72445,2.32648,-4.91612
5.8944,18882.0734,0.7153,1.45661,-5.99919
5.9142,18882.0934,-1.13684,1.65636,-6.4891
5.9377,18882.1134,-2.65362,2.71988,-6.30951
5.96,18882.1333,-3.11666,3.1371,-6.46039
5.9831,18882.1533,-2.62369,1.85672,-6.86417
5.9945,18882.1733,-1.58766,-0.13164,-7.31682
6.0153,18882.1933,-1.37936,-1.44378,-7.31866
6.0367,18882.2133,-2.56566,-1.04427,-6.53431
6.0485,18882.2333,-3.2034,-0.66187,-6.07005
6.0726,18882.2533,-3.29747,-0.6973,-5.68826
6.0882,18882.2733,-3.57847,-0.91477,-5.31807
6.1129,18882.2934,-3.76784,-1.37475,-4.82877
6.134,18882.3134,-3.65117,-1.55801,-4.46836
6.152,18882.3334,-3.25532,-0.73029,-4.67178
6.1773,18882.3535,-3.0574,0.4273,-5.26187
6.195,18882.3735,-3.22661,0.6692,-5.59418
6.223,18882.3935,-3.31275,0.1408,-5.70719
6.232,18882.4135,-3.61879,-0.32162,-5.35472
6.2914,18882.4336,-4.11054,0.04551,-4.79151
6.2953,18882.4536,-4.80387,0.70708,-4.45431
6.297,18882.4736,-5.25896,1.74249,-4.54105
6.3139,18882.4937,-5.46421,2.46087,-4.65651
6.3277,18882.5137,-5.64197,3.17497,-4.06763
6.3478,18882.5337,-6.11417,3.85181,-3.1379
6.3694,18882.5537,-6.9419,4.18107,-2.24298
6.3887,18882.5738,-7.44525,3.80477,-1.72069
6.4085,18882.5938,-7.14348,2.89947,-1.64799
6.4303,18882.6138,-6.39395,2.34053,-1.63944
6.4518,18882.6339,-5.61082,2.74187,-1.2155
6.4731,18882.6539,-4.8674,3.82432,-0.42749
6.4919,18882.6739,-4.31884,3.18963,-0.17825
6.5101,18882.6939,-3.77334,0.94226,-1.18679
6.5292,18882.714,-3.13804,-0.59162,-2.47022
6.5579,18882.734,-2.69944,-1.77365,-2.78481
6.5718,18882.754,-2.28161,-1.79686,-2.59667
6.5921,18882.7741,-1.84484,-1.41385,-2.28391
6.612,18882.7941,-1.08614,-1.15545,-1.8844
6.6298,18882.8141,0.0971,-1.80663,-0.88808
6.6498,18882.8341,1.93275,-0.99724,-0.23506
6.6752,18882.8542,3.28216,-0.21411,0.17299
6.6982,18882.8742,3.54361,-0.31124,0.56395
6.7137,18882.8942,3.532,-1.24891,0.66841
6.7358,18882.9142,3.51734,-2.03265,0.87793
6.7537,18882.9342,3.74825,-2.2434,0.69651
6.7918,18882.9541,4.68226,-1.48104,0.41368
6.7978,18882.9741,5.39453,-1.61116,0.30861
6.8167,18882.9941,5.41591,-1.96912,0.26768
6.8339,18883.0141,4.77877,-2.67284,0.52607
6.8506,18883.0341,4.22961,-3.04486,1.11189
6.8701,18883.0541,4.11843,-3.05158,1.78507
6.8891,18883.0741,5.13124,-2.94223,2.63295
6.9175,18883.0941,5.81664,-3.38694,2.90478
6.9313,18883.1141,6.24363,-4.04179,2.8663
6.9504,18883.1341,6.02738,-5.1951,2.79116
6.9728,18883.1541,5.38964,-5.82368,2.88951
6.9893,18883.1741,4.96448,-5.2623,3.00558
7.009,18883.1941,4.93332,-4.11204,2.97809
7.0305,18883.2141,4.60712,-3.1597,3.02207
7.0487,18883.2341,4.17524,-3.31547,3.42341
7.0735,18883.2541,4.17952,-3.41077,3.5297
7.0909,18883.2741,4.1844,-2.90314,3.38065
7.1097,18883.2941,3.96999,-3.2611,3.50221
7.1294,18883.3142,3.75863,-4.33684,3.67814
7.1548,18883.3342,3.65723,-4.10593,3.45823
7.1795,18883.3542,3.32858,-3.56409,3.98785
7.1934,18883.3742,3.45014,-3.82493,4.52052
7.2298,18883.3943,3.39822,-4.36005,4.1088
7.238,18883.4143,3.25222,-4.65388,3.76244
7.2493,18883.4343,3.24978,-4.68625,3.89988
7.2716,18883.4544,2.99322,-4.33684,3.97135
7.29,18883.4744,2.49719,-3.8286,3.98418
7.3093,18883.4944,2.295,-3.74858,4.20043
7.3351,18883.5144,1.89732,-4.18534,3.66714
7.3499,18883.5345,1.01768,-4.38632,2.76001
7.3694,18883.5545,-0.08432,-3.50851,2.88279
7.393,18883.5745,-0.6622,-2.79807,3.57246
7.4111,18883.5946,-1.1515,-1.2819,3.53398
7.4312,18883.6146,-1.36225,-1.74738,3.52054
7.455,18883.6346,-1.19854,-2.91841,2.74901
7.4746,18883.6546,-1.25657,-3.60014,1.73803
7.5,18883.6747,-1.62004,-3.53538,1.78507
7.5174,18883.6947,-1.91142,-1.78892,2.04957
7.533,18883.7147,-2.54733,-0.38515,1.60059
7.5556,18883.7348,-3.08611,-0.9331,1.43138
7.5756,18883.7548,-3.27182,-1.94225,0.9323
7.5916,18883.7748,-3.44286,-2.48286,0.29883
7.6126,18883.7948,-3.82832,-2.87259,0.19743
7.6318,18883.8149,-4.35305,-1.66186,0.61709
7.6501,18883.8349,-5.12091,-0.10843,0.69101
7.6689,18883.8549,-5.54302,-0.16524,1.15099
7.6948,18883.8749,-5.42573,0.20006,0.89504
7.7109,18883.8949,-5.28706,-1.03694,0.02211
7.7358,18883.9149,-5.17589,-2.45415,-0.5802
7.7611,18883.9349,-4.80937,-2.36069,-0.80011
7.7731,18883.9549,-4.65787,-1.91842,-1.24238
7.7935,18883.9749,-4.65115,-2.40589,-1.56003
7.8128,18883.9949,-4.71285,-2.38573,-0.90824
7.8304,18884.0149,-4.76477,-2.28677,-0.45803
7.8603,18884.0349,-4.78066,-1.80663,-0.84959
7.8773,18884.0549,-4.67559,-0.99907,-1.07806
7.8914,18884.0749,-4.71285,-0.28986,-0.41344
7.913,18884.0949,-4.70918,0.51893,0.70689
7.9365,18884.1149,-4.32128,0.46884,1.57676
7.954,18884.1349,-2.95722,0.35888,1.24262
7.969,18884.1549,-0.64632,0.78771,1.08379
7.9914,18884.1749,0.86618,1.47616,1.39411
8.0095,18884.1948,1.28707,2.61053,2.01048
8.0295,18884.2148,0.69148,1.71867,3.02757
8.0517,18884.2348,-0.04217,0.37049,2.85714
8.0696,18884.2548,-0.74528,-0.26603,2.56087
8.1043,18884.2748,-1.44472,-0.12676,2.76795
8.1399,18884.2948,-1.71045,0.39798,3.4063
8.1636,18884.3148,-1.39402,1.45233,4.12896
8.1679,18884.3348,-1.157,1.25197,4.00984
8.2157,18884.3548,-1.23092,0.71502,3.35988
8.2199,18884.3748,-1.31949,0.63011,3.03917
8.2221,18884.3948,-1.02811,1.50548,3.29146
8.2382,18884.4148,-0.88761,2.94712,3.81864
8.2737,18884.4348,-1.16433,4.21711,4.51686
8.2749,18884.4548,-1.55956,4.82125,5.21996
8.2918,18884.4748,-2.04825,5.00635,5.48386
8.3093,18884.4948,-2.89797,5.77054,5.36718
8.3293,18884.5148,-3.74646,7.55854,5.29021
8.3507,18884.5348,-3.92972,8.25615,5.13017
8.3692,18884.5548,-3.44591,8.51638,4.77647
8.3927,18884.5748,-2.93462,9.14435,4.68973
8.4106,18884.5948,-2.59193,9.24208,4.80335
8.4297,18884.6147,-2.17776,9.03806,4.46616
8.4493,18884.6347,-1.74099,8.99835,3.52848
8.4718,18884.6547,-1.7807,9.28607,2.82904
8.4895,18884.6747,-2.59376,10.20969,3.67631
8.5109,18884.6947,-3.06412,10.34775,4.35681
8.5329,18884.7147,-2.61086,9.75094,4.32749
8.5536,18884.7347,-1.65974,6.88598,4.19554
8.5741,18884.7547,-0.46184,3.26904,4.11246
8.596,18884.7747,0.40803,-0.08827,4.2267
8.6142,18884.7947,1.04944,-2.88481,4.39224
8.6358,18884.8147,1.06838,-3.24705,5.05503
8.6666,18884.8347,-0.02812,-1.70584,5.59381
8.6816,18884.8548,-0.80637,-0.83719,5.50829
8.6945,18884.8748,-0.83019,-0.67043,4.67324
8.7155,18884.8948,-1.11058,0.04368,4.02022
8.7307,18884.9148,-2.00305,-0.11576,4.435
8.7508,18884.9349,-2.90163,-1.07848,5.18392
8.7737,18884.9549,-3.2932,-2.3161,5.43621
8.792,18884.9749,-2.74525,-3.06624,4.52113
8.8118,18884.995,-2.44287,-3.12244,4.74776
8.8363,18885.015,-2.46242,-3.28126,4.97623
8.8578,18885.035,-2.89064,-3.41565,4.83084
8.8755,18885.055,-3.95599,-2.54945,4.57122
8.8976,18885.0751,-4.59068,-1.81946,4.02694
8.9236,18885.0951,-4.51126,-2.66673,3.55291
8.9348,18885.1151,-4.64871,-3.95383,3.39164
8.9539,18885.1351,-5.20765,-4.37349,3.71479
8.9702,18885.1552,-5.08853,-4.4975,3.67936
8.9921,18885.1752,-4.52898,-5.39119,3.4961
9.0112,18885.1952,-4.04762,-6.02222,3.30551
9.0339,18885.2153,-3.50639,-5.01001,3.29268
9.0499,18885.2353,-3.70126,-4.09616,3.08377
9.0716,18885.2553,-3.70492,-3.58181,2.42892
9.09,18885.2753,-3.33413,-2.88848,1.70932
9.1107,18885.2954,-3.20584,-2.60076,1.42771
9.1326,18885.3154,-3.19424,-2.88848,0.99644
9.1522,18885.3354,-2.83627,-3.78584,0.57861
9.1927,18885.3555,-2.90835,-1.71134,0.16872
9.205,18885.3755,-4.28769,-1.06077,0.43078
9.2233,18885.3955,-4.18689,-1.51892,0.15528
9.2376,18885.4155,-3.26632,-2.30999,-0.37251
9.255,18885.4355,-2.8601,-2.81945,-0.5405
9.2727,18885.4555,-2.85826,-2.49874,-0.87281
9.2925,18885.4755,-3.42759,-0.63866,-1.74757
9.3119,18885.4955,-4.37443,-0.26359,-2.50809
9.3302,18885.5155,-4.43185,-0.56352,-3.29672
9.3526,18885.5355,-4.07327,-1.11697,-3.55817
9.3719,18885.5555,-3.58519,-1.4505,-2.4806
9.3916,18885.5755,-2.98288,-1.13835,-1.38166
9.4163,18885.5955,-3.51861,-0.45845,-2.177
9.4368,18885.6155,-4.17468,0.41691,-3.75181
9.4595,18885.6355,-3.91811,0.28008,-2.99679
9.4756,18885.6555,-3.81671,-0.14203,-2.47633
9.4936,18885.6755,-2.96944,-0.34544,-2.58445
9.5101,18885.6955,-1.89798,-0.66432,-3.11102
9.5313,18885.7155,-0.92976,-1.16217,-3.27962
9.5532,18885.7355,-1.3311,-0.44746,-1.74757
9.5757,18885.7555,-2.78252,1.63865,-0.23323
9.6142,18885.7755,-3.81854,3.29714,-0.02187
9.622,18885.7955,-3.8949,3.93244,-0.72437
9.6372,18885.8154,-3.75013,3.81821,-1.24666
9.6535,18885.8354,-3.55221,3.50973,-0.91007
9.6736,18885.8554,-3.01342,4.09188,-0.18192
9.6907,18885.8754,-2.88209,4.93854,0.32815
9.7163,18885.8954,-3.47829,4.74612,0.15772
9.7336,18885.9154,-3.7147,3.98803,-0.18375
9.7562,18885.9354,-3.19057,3.57081,-0.22101
9.7743,18885.9554,-2.53695,3.45841,0.20598
9.7987,18885.9754,-2.02993,3.5757,0.69345
9.8172,18885.9954,-2.05986,3.46635,0.76981
9.83,18886.0154,-2.37446,3.32402,0.41917
9.8531,18886.0354,-2.51923,3.94955,0.31105
9.8729,18886.0554,-2.87353,5.01306,0.76859
9.8925,18886.0754,-3.55709,5.5213,1.50468
9.9158,18886.0954,-4.01341,5.30933,1.63907
9.9418,18886.1154,-3.97309,5.37042,1.08135
9.9509,18886.1354,-4.17651,5.58545,0.91275
9.9788,18886.1554,-5.0305,5.72961,0.99644
10.0033,18886.1754,-5.81729,4.95259,1.34891
10.0092,18886.1954,-5.94802,3.82249,1.80889
10.0313,18886.2154,-5.82523,2.89764,1.91152
10.0498,18886.2353,-5.83684,2.4853,1.47475
10.0706,18886.2553,-5.55279,2.11207,0.90542
10.0925,18886.2753,-5.29378,1.79442,1.05814
10.1125,18886.2953,-5.39213,2.28066,1.44115
10.1295,18886.3153,-5.85456,2.7492,1.6745
10.1505,18886.3353,-6.10684,3.65817,1.62563
10.1761,18886.3553,-6.42449,4.39365,1.51751
10.1942,18886.3753,-6.91929,4.39853,1.264
10.2144,18886.3953,-7.02681,4.03751,1.13816
10.2664,18886.4153,-6.58943,2.98499,0.87182
10.2691,18886.4353,-5.17955,2.05098,0.16139
10.2757,18886.4553,-2.34636,0.51465,-0.31448
10.2901,18886.4753,0.29625,-1.15667,-1.03896
10.3094,18886.4953,0.20828,-0.6857,-1.48306
10.3318,18886.5153,-0.55835,0.2642,-0.89358
10.3497,18886.5353,-0.69702,0.38026,-0.18619
10.3698,18886.5553,0.091,-0.29413,-0.00721
10.392,18886.5753,0.68537,-0.70158,-0.29187
10.4122,18886.5953,1.39275,-0.86957,-0.6083
10.431,18886.6153,2.71344,-1.55923,-0.76468
10.4527,18886.6353,3.91868,-1.85367,-0.77873
10.474,18886.6554,4.4318,-2.13895,-0.92412
10.4938,18886.6754,4.27176,-2.27334,-1.09944
10.5128,18886.6954,4.77022,-2.63069,-1.1367
10.5324,18886.7155,5.47577,-3.17375,-1.10494
10.5515,18886.7355,5.68835,-3.45047,-0.99742
10.5726,18886.7555,5.54358,-3.23972,-0.85082
10.5933,18886.7755,5.14224,-3.12061,-0.28943
10.6121,18886.7956,4.9712,-3.23117,-0.02309
10.6327,18886.8156,4.81543,-2.88909,-0.14649
10.6526,18886.8356,4.70242,-2.94101,-0.3719
10.6716,18886.8557,4.88018,-3.53233,-0.33891
10.6932,18886.8757,5.15751,-3.97215,-0.04447
10.7128,18886.8957,5.09765,-4.43152,0.22492
10.7316,18886.9157,5.09826,-4.83042,0.40573
10.7529,18886.9358,4.89179,-5.29468,0.56761
10.7721,18886.9558,4.6902,-5.53719,0.8816
10.7976,18886.9758,4.69509,-5.39302,1.22185
10.8122,18886.9959,4.80993,-5.16212,1.63113
10.8313,18887.0159,4.88751,-4.481,2.17663
10.8522,18887.0359,4.76717,-3.34113,2.58103
10.8727,18887.0559,4.33162,-2.92818,2.4558
10.8919,18887.076,3.82033,-3.52927,2.19374
10.9104,18887.096,3.36218,-3.28249,1.85593
10.9326,18887.116,2.75498,-3.16825,1.98116
10.9516,18887.1361,2.60471,-3.82432,2.36356
10.9731,18887.1561,2.70794,-5.19327,2.23466
11.0024,18887.1761,2.87288,-5.9764,1.89747
11.0134,18887.1961,2.91441,-6.76808,1.78812
11.0323,18887.2161,3.18197,-6.9544,1.43993
11.0563,18887.2361,3.47824,-6.4034,1.01355
11.0759,18887.2561,3.58453,-6.72166,1.23101
11.0947,18887.2761,3.53872,-6.93424,1.26583
11.1144,18887.2961,3.60347,-6.58116,0.84067
11.1306,18887.3161,3.65967,-5.89271,0.15528
11.1502,18887.3361,3.78734,-5.6166,0.06487
11.1766,18887.3561,3.98587,-4.4694,-0.24117
11.1921,18887.3761,4.18257,-2.9123,-0.76041
11.2146,18887.3961,4.35056,-2.13833,-0.59059
11.248,18887.4161,4.33956,-0.95142,-0.89052
11.2539,18887.4361,4.12943,0.29963,-2.10614
11.2936,18887.456,4.19662,-0.58735,-2.70479
11.2966,18887.476,4.4428,-1.55801,-3.21181
11.3192,18887.496,3.81544,-1.22937,-3.85749
11.3306,18887.516,2.78613,0.52565,-3.6724
11.3508,18887.536,1.2663,2.65879,-2.31872
11.3711,18887.556,0.86252,3.48835,-2.35416
11.3922,18887.576,1.69696,3.78217,-2.16418
11.4145,18887.596,2.15511,3.44558,-2.27169
11.4324,18887.616,1.96024,3.21529,-3.46715
11.4507,18887.636,1.38236,3.70704,-4.61191
11.4721,18887.656,0.71958,4.2562,-5.3309
11.4919,18887.676,0.32496,4.63311,-5.87335
11.525,18887.696,0.06167,4.43519,-6.23009
11.5321,18887.716,-0.4539,3.02164,-6.77071
11.555,18887.736,-1.18083,0.86101,-7.46221
11.577,18887.756,-1.82407,0.26359,-7.64608
11.5972,18887.776,-2.84727,0.61484,-7.4897
11.6114,18887.796,-3.53938,1.29534,-6.75849
11.6349,18887.816,-3.61451,2.04793,-5.78538
11.656,18887.836,-3.23517,1.50914,-5.07251
11.6711,18887.856,-2.84605,-0.54642,-5.25576
11.6956,18887.8759,-2.70494,-3.60869,-5.6229
11.7218,18887.8959,-3.28037,-5.2959,-5.9662
11.74,18887.9159,-4.16857,-4.87929,-6.69619
11.7522,18887.9359,-4.81486,-3.28187,-5.4207
11.7742,18887.9559,-5.1148,-1.62032,-3.32726
11.799,18887.9759,-4.81303,0.06322,-2.66386
11.8127,18887.9959,-4.36221,0.83963,-3.0371
11.8418,18888.0159,-3.95477,0.8152,-3.79763
11.8598,18888.0359,-3.71408,0.88606,-4.63696
11.8696,18888.0559,-3.82709,1.03755,-5.37488
11.8926,18888.0759,-4.10137,1.47799,-5.73163
11.9122,18888.0959,-4.25959,1.85672,-5.51844
11.9399,18888.1159,-4.56074,1.48654,-4.91979
11.9534,18888.1359,-5.01217,1.52991,-4.46103
11.9719,18888.1559,-5.3622,2.25318,-3.74815
11.9943,18888.1759,-5.66824,2.93001,-2.64615
12.0166,18888.1959,-6.0708,2.87992,-1.80621
12.0302,18888.2159,-6.32859,2.82617,-1.49161
12.053,18888.2359,-6.38295,3.64412,-1.367
12.0836,18888.2559,-6.57049,4.55369,-1.06706
12.1,18888.2758,-6.80812,2.65757,-1.18435
12.112,18888.2958,-5.85028,0.28314,-1.8282
12.1332,18888.3158,-3.95538,-1.97646,-2.61805
12.1524,18888.3358,-2.12034,-2.68995,-3.32299
12.1707,18888.3558,-0.33295,-1.321,-2.16295
12.1944,18888.3758,0.58396,0.88667,0.30861
12.2125,18888.3958,0.39032,0.46945,1.51018
12.2448,18888.4158,1.13741,-0.44196,1.41794
12.2594,18888.4358,2.53446,-0.11515,0.99705
12.2839,18888.4558,3.42082,-0.00703,0.68062
12.296,18888.4758,3.70548,-0.03146,0.40512
12.3497,18888.4958,4.01031,0.49327,0.37886
12.3514,18888.5158,4.34201,2.19637,0.79852
12.353,18888.5358,4.27298,3.49018,1.59387
12.3717,18888.5558,3.77879,5.54146,2.31957
12.3905,18888.5758,3.251,7.93789,3.32628
12.4113,18888.5958,2.28522,8.27386,4.21753
12.4323,18888.6158,1.44345,4.44618,3.73495
12.4521,18888.6358,2.36402,2.22324,2.28109
12.4719,18888.6558,2.63647,1.56229,2.43747
12.4918,18888.6758,1.78737,1.45783,2.55842
12.5105,18888.6957,0.94682,2.38085,2.26887
12.53,18888.7157,0.27425,3.47124,2.40021
12.5521,18888.7357,0.20584,4.07416,2.78139
12.5696,18888.7557,0.60595,4.17374,3.23893
12.5897,18888.7757,0.95781,3.89335,3.41608
12.6149,18888.7957,0.9682,3.11022,3.75022
12.6328,18888.8157,0.77211,1.36803,3.63843
12.6491,18888.8357,0.59985,0.07422,3.46617
12.6707,18888.8557,0.41903,-0.49633,3.56574
12.6915,18888.8757,-0.13319,-1.71317,3.7435
12.7093,18888.8957,-0.27125,-3.89396,4.01167
12.7317,18888.9157,0.09894,-6.22563,3.60117
12.7494,18888.9357,0.53448,-7.33863,2.96709
12.7713,18888.9557,1.11358,-5.20732,2.38982
12.7918,18888.9757,0.34878,-0.73701,2.27132
12.8098,18888.9957,-1.5895,0.93615,3.12531
12.8331,18889.0157,-2.19608,1.09009,4.31405
12.8546,18889.0357,-1.43678,-1.24586,4.77831
12.8847,18889.0557,-0.59073,-2.90192,5.14849
12.9012,18889.0757,0.49172,-2.43338,5.46126
12.9133,18889.0956,0.90589,-0.84269,5.82716
12.9329,18889.1156,-0.02629,0.84574,6.20162
12.9512,18889.1356,-1.46305,1.90987,6.40565
12.9754,18889.1556,-2.19547,1.43645,6.37939
12.9961,18889.1756,-1.75809,0.74495,6.63839
13.0186,18889.1956,-1.06843,0.77183,7.05989
13.0363,18889.2156,-0.44718,1.06138,7.53514
13.0562,18889.2356,0.04518,1.175,7.96519
13.08,18889.2556,-0.13503,1.57512,8.51864
13.0998,18889.2756,-0.86379,1.12124,8.61637
13.1126,18889.2956,-1.39219,0.07972,8.76848
13.1366,18889.3156,-1.68174,-0.29352,8.85828
13.1517,18889.3356,-2.40134,-0.26115,8.84789
13.1754,18889.3556,-2.9951,-0.8097,8.42273
13.1915,18889.3756,-3.20401,-1.88238,7.57118
13.2129,18889.3956,-3.13926,-2.31976,6.53088
13.2363,18889.4156,-2.78129,-2.14322,5.73553
13.2493,18889.4356,-2.40011,-2.24096,4.9017
13.2716,18889.4556,-1.69273,-2.76691,3.79054
13.2899,18889.4756,-1.08003,-3.73514,2.63112
13.3137,18889.4955,-1.35614,-3.56287,1.65129
13.3356,18889.5155,-2.59131,-2.50974,1.35685
13.3537,18889.5355,-3.9902,-1.1017,1.01721
13.3755,18889.5555,-5.06837,-0.20678,0.55967
13.4001,18889.5755,-5.48376,-0.92149,-0.50018
13.4131,18889.5955,-5.38419,-1.92453,-1.20695
13.4322,18889.6155,-5.59738,-2.12734,-0.80744
13.4529,18889.6355,-5.99628,-1.86894,-0.35663
13.4696,18889.6555,-6.03476,-2.21347,-0.7598
13.4917,18889.6755,-5.75437,-3.76629,-1.61134
13.5127,18889.6955,-5.62976,-5.07782,-2.27413
13.5309,18889.7155,-5.75926,-4.74612,-1.5246
13.5513,18889.7355,-6.22169,-2.43033,-0.80134
13.5763,18889.7555,-6.59615,-0.42364,-0.41588
13.5948,18889.7755,-6.85576,-0.30146,-0.31936
13.6153,18889.7955,-6.15632,-2.64169,-0.25034
13.6383,18889.8155,-5.00362,-3.4578,0.10702
13.6758,18889.8355,-4.15635,-2.61603,0.24324
13.6889,18889.8555,-3.54549,-1.98989,0.37153
13.7015,18889.8755,-3.70431,-2.19453,0.79974
13.7227,18889.8955,-4.44101,-2.73332,1.20719
13.735,18889.9154,-5.21437,-3.40954,1.91763
13.7544,18889.9354,-5.2388,-4.90555,1.86815
13.7702,18889.9554,-4.24309,-5.58423,0.8535
13.7908,18889.9754,-2.98532,-2.45293,1.26828
13.8146,18889.9954,-1.14845,0.19212,2.92555
13.8339,18890.0154,-0.33722,1.43767,3.06361
13.8549,18890.0354,-0.74467,2.32648,3.42097
13.8766,18890.0554,-1.45938,2.15238,3.92432
13.8965,18890.0754,-3.37139,-0.40653,3.55047
13.9273,18890.0954,-5.1881,-0.88484,3.70807
13.942,18890.1154,-5.7446,0.56413,4.97378
13.9538,18890.1354,-6.20764,1.58794,5.30243
13.9767,18890.1554,-6.15022,1.62948,4.21998
13.9935,18890.1754,-5.38969,1.93003,3.72273
14.0103,18890.1954,-4.28097,2.46392,3.7661
14.0307,18890.2154,-3.42087,2.558,3.79298
14.0508,18890.2354,-2.97433,2.46026,3.72945
14.0708,18890.2554,-2.70982,2.48653,3.93104
14.0911,18890.2754,-2.56871,1.28679,4.05382
14.1173,18890.2954,-2.16188,0.89889,3.8388
14.1301,18890.3154,-1.48259,1.28862,3.9964
14.1501,18890.3353,-1.36653,1.83107,4.59199
14.1722,18890.3553,-1.9438,2.7266,5.4075
14.2031,18890.3753,-2.43493,3.95505,6.44108
14.222,18890.3953,-2.31337,4.74978,7.26881
14.238,18890.4153,-2.48686,4.89944,7.50826
14.2544,18890.4353,-2.98715,5.03445,7.45695
14.2899,18890.4553,-3.25044,4.88539,7.19978
14.2915,18890.4753,-3.44469,4.87806,6.31036
14.3107,18890.4953,-3.60596,5.05338,4.73616
14.3291,18890.5153,-3.56748,4.94892,3.58162
14.3515,18890.5353,-3.89368,4.12914,2.90845
14.3697,18890.5553,-3.77395,3.05097,2.43747
14.3911,18890.5753,-3.42881,2.75347,1.43443
14.4114,18890.5953,-2.08857,2.34908,0.00684
14.4324,18890.6153,-1.03361,0.16463,-0.80195
14.4567,18890.6353,-0.44657,-1.80602,-0.91373
14.4775,18890.6553,0.39337,-2.23363,-0.67611
14.4912,18890.6753,0.73729,-1.07176,-0.35479
14.5107,18890.6954,0.49722,-0.05773,0.29944
14.5336,18890.7154,0.31518,0.15974,0.83029
14.5531,18890.7354,0.58152,-0.49327,0.80891
14.5751,18890.7554,1.01768,-1.34787,0.72827
14.597,18890.7755,1.49904,-1.90621,0.71728
14.6144,18890.7955,1.95658,-1.75899,0.78508
14.6357,18890.8155,1.90954,-1.09437,0.94146
14.6581,18890.8356,0.54609,0.27153,1.05203
14.6766,18890.8557,0.069,0.79321,1.22185
14.708,18890.8757,0.2822,0.94226,0.86205
14.7242,18890.8958,0.81548,0.75778,0.60121
14.7417,18890.9158,0.80693,0.55131,0.5725
14.7542,18890.9359,0.57908,1.46272,0.78997
14.7744,18890.956,0.19729,2.72354,1.07219
14.7933,18890.976,0.18262,3.05035,1.48147
14.8156,18890.9961,0.3555,2.40101,1.60608
14.8397,18891.0161,0.76783,1.25014,1.41366
14.8554,18891.0362,1.15879,0.05895,0.97506
14.8767,18891.0563,1.97002,0.54397,0.5896
14.8977,18891.0763,2.5088,2.64169,0.8932
14.9135,18891.0964,2.04515,4.78582,1.95183
14.9336,18891.1165,1.65664,5.34538,2.28292
14.9575,18891.1365,2.44344,3.7614,2.06179
14.9756,18891.1566,2.40373,2.36802,1.71787
14.9986,18891.1766,1.92787,1.47738,1.41183
15.0151,18891.1967,1.61999,1.98256,0.92253
15.0321,18891.2168,1.1539,2.46454,0.58655
15.052,18891.2368,1.14046,2.14078,0.32082
15.0736,18891.2569,1.41596,1.5855,0.34159
15.0952,18891.2769,1.28646,1.16278,0.62381
15.116,18891.2969,1.04761,0.78282,0.72949
15.1352,18891.3169,0.59007,-0.25931,0.45888
15.1557,18891.337,0.23882,-1.89399,-0.00477
15.1876,18891.357,0.24249,-3.01248,-0.35601
15.1939,18891.377,0.3048,-3.40893,-0.3383
15.2298,18891.3971,0.23027,-3.24156,-0.15993
15.2359,18891.4171,-0.51926,-2.72354,0.22797
15.2582,18891.4371,-1.2975,-3.17925,1.16199
15.2729,18891.4571,-1.18144,-4.63983,1.8938
15.2931,18891.4771,-1.1344,-6.56161,1.69222
15.3127,18891.4971,-1.50275,-8.45468,1.22613
15.3317,18891.5171,-1.4832,-8.90183,0.11191
15.3537,18891.5371,-0.67625,-7.99898,-0.3157
15.373,18891.557,0.4288,-7.04969,0.51752
15.3916,18891.577,1.7159,-7.14315,1.65007
15.4116,18891.597,2.65357,-7.36184,2.30308
15.4361,18891.617,2.67862,-7.32825,2.81743
15.4574,18891.637,2.3512,-7.23723,3.39103
15.4765,18891.657,1.71895,-6.45226,3.6366
15.5055,18891.677,1.08732,-6.57505,3.95181
15.5221,18891.697,0.99996,-7.09917,4.43867
15.5407,18891.717,1.32311,-7.89207,4.21509
15.5541,18891.737,1.97429,-8.86763,2.9958
15.5766,18891.757,2.72566,-9.77598,1.22979
15.5919,18891.777,3.48924,-9.59394,-0.2876
15.6139,18891.797,4.22533,-9.25491,-0.55455
15.6321,18891.817,5.20455,-8.24943,-0.56432
15.6564,18891.837,5.95591,-7.79983,-0.78484
15.6803,18891.857,5.91193,-7.15537,-1.55453
15.6973,18891.877,5.86367,-6.84505,-2.22648
15.7194,18891.897,7.34074,-5.10164,-2.23198
15.7397,18891.917,8.17091,-3.14687,-1.70236
15.7546,18891.937,7.44765,-1.58856,-2.32789
15.7749,18891.9569,6.10863,0.3149,-3.50503
15.7957,18891.9769,4.6169,2.16399,-3.7903
15.8125,18891.9969,3.21129,4.20184,-3.32604
15.8337,18892.0169,1.70796,5.41501,-2.38531
15.8576,18892.0369,0.8558,4.84996,-2.51542
15.8727,18892.0569,1.20644,4.04301,-3.91125
15.892,18892.0769,1.00546,3.94283,-4.89902
15.9144,18892.0969,-0.29568,4.81453,-4.92468
15.9365,18892.1169,-2.27305,6.54634,-4.94789
15.956,18892.1369,-3.29747,7.70026,-4.64918
15.9762,18892.1569,-2.94378,7.46691,-4.26433
15.9933,18892.1769,-2.07635,5.8921,-4.12811
16.0179,18892.1969,-1.62187,3.76751,-4.08351
16.0417,18892.2169,-1.95968,1.88116,-3.80191
16.0554,18892.2369,-3.00792,1.01373,-3.72555
16.0792,18892.2569,-4.48561,1.14873,-3.80801
16.0953,18892.2769,-4.78188,0.93187,-3.67423
16.116,18892.2969,-4.43246,0.93982,-3.78419
16.1396,18892.3169,-3.88818,1.15912,-4.14582
16.1595,18892.3369,-3.50028,1.40529,-4.92345
16.1788,18892.3569,-3.22539,1.47677,-6.01996
16.1979,18892.3768,-3.20768,1.60871,-6.80003
16.279,18892.3968,-3.49234,1.70156,-6.69557
16.28,18892.4168,-3.57908,1.71317,-6.06455
16.2828,18892.4368,-3.29686,2.09985,-5.63572
16.2842,18892.4568,-2.68111,2.37657,-5.72124
16.2926,18892.4768,-2.05436,1.80052,-6.1348
16.3158,18892.4968,-1.85644,0.88484,-6.2979
16.3316,18892.5168,-2.25473,0.59223,-5.84708
16.3504,18892.5368,-2.9389,1.22265,-4.95094
16.3704,18892.5568,-3.23822,2.26723,-4.07435
16.3936,18892.5768,-3.48379,3.05585,-3.37247
16.4118,18892.5968,-3.6646,4.02224,-2.91432
16.4312,18892.6168,-3.60779,4.33012,-2.13485
16.457,18892.6368,-4.01096,2.50241,-0.51667
16.4749,18892.6568,-4.73667,1.80786,0.27501
16.494,18892.6768,-3.45874,0.7254,0.98545
16.5144,18892.6968,-1.69517,0.28375,0.89076
16.5348,18892.7168,0.2822,-0.48472,-0.15748
16.5525,18892.7368,1.54363,-1.07237,-0.8893
16.5798,18892.7568,1.74155,-1.34971,-0.33708
16.5992,18892.7767,1.65909,-1.69179,0.60549
16.6126,18892.7967,1.868,-2.11512,1.29821
16.6349,18892.8167,2.70733,-2.31304,1.40144
16.6531,18892.8367,3.59125,-2.28372,1.04775
16.6729,18892.8567,3.83926,-2.60442,1.21574
16.6954,18892.8767,3.93639,-3.62885,2.12593
16.7139,18892.8967,4.59002,-4.06561,2.63417
16.7338,18892.9167,5.35971,-4.25193,2.73619
16.7589,18892.9367,5.5839,-3.08945,2.98359
16.7823,18892.9567,4.87529,-2.07358,3.36232
16.8028,18892.9767,3.87408,-2.20797,4.15095
16.8186,18892.9967,3.51245,-2.7663,4.5193
16.8365,18893.0167,3.38845,-2.80662,4.4967
16.8528,18893.0367,3.59186,-2.98866,4.80152
16.8725,18893.0567,3.89058,-3.1035,5.07397
16.8909,18893.0767,3.71037,-3.02959,5.12894
16.9116,18893.0967,3.37562,-2.93612,5.41605
16.9322,18893.1167,3.40372,-3.52011,5.64879
16.9559,18893.1367,3.96327,-4.15541,5.2841
16.9729,18893.1567,4.58147,-4.27697,4.76914
16.9936,18893.1767,4.78488,-4.47612,4.52602
17.0125,18893.1966,4.79649,-4.52437,4.3171
17.0322,18893.2166,4.70425,-4.83836,3.84552
17.0565,18893.2366,4.51427,-4.96175,3.23771
17.0774,18893.2566,4.18624,-4.95503,2.57186
17.0914,18893.2766,3.67739,-4.56286,1.73864
17.1139,18893.2966,2.90892,-4.02713,0.94268
17.1314,18893.3166,1.48438,-3.44681,0.6849
17.1499,18893.3366,-0.11609,-2.95812,0.87793
17.1737,18893.3566,-0.7856,-2.8054,1.04287
17.2098,18893.3766,-0.58218,-3.01798,0.7301
17.2128,18893.3966,-0.61639,-3.40283,-0.02431
17.2342,18893.4166,-1.19304,-3.42482,-0.53927
17.2506,18893.4366,-1.77459,-3.84204,0.11191
17.2703,18893.4566,-2.20097,-3.85914,0.94879
17.292,18893.4766,-2.80573,-3.44864,1.3709
17.3135,18893.4966,-3.69576,-3.21346,0.84922
17.3377,18893.5166,-4.07877,-4.11693,0.02455
17.3574,18893.5366,-4.17284,-4.53415,0.4094
17.3731,18893.5566,-4.75744,-3.86708,1.83149
17.3948,18893.5766,-5.44589,-2.89092,2.79972
17.4155,18893.5965,-5.98101,-2.90069,2.78444
17.4361,18893.6165,-6.01766,-2.76691,2.24016
17.4533,18893.6365,-5.65053,-2.63802,2.15647
17.4744,18893.6565,-5.31822,-2.13895,2.7087
17.4972,18893.6765,-5.31455,-1.60871,2.8101
17.5138,18893.6965,-5.74827,-1.81396,2.36356
17.5357,18893.7165,-5.94374,-1.50975,2.44053
17.5552,18893.7365,-5.50453,-0.48045,3.56085
17.5898,18893.7565,-4.71529,1.64475,4.76243
17.5986,18893.7765,-4.41475,3.7895,5.82044
17.6191,18893.7965,-5.27362,5.18411,6.65183
17.6384,18893.8165,-6.13067,6.05154,6.62617
17.6542,18893.8365,-5.55401,6.29649,6.14298
17.6743,18893.8565,-4.63099,6.00816,5.57488
17.6935,18893.8765,-3.74402,5.66547,5.35435
17.7129,18893.8965,-2.87842,6.40889,5.67506
17.7306,18893.9165,-2.67928,7.18713,5.70133
17.7505,18893.9365,-3.05679,7.63795,5.05625
17.7731,18893.9565,-3.33229,7.75707,4.53885
17.7922,18893.9765,-2.54611,8.4504,4.4234
17.8119,18893.9965,-1.708,9.30195,4.13812
17.8334,18894.0164,-1.88638,9.1022,3.67753
17.862,18894.0364,-2.2755,8.3881,3.19433
17.8733,18894.0564,-2.63285,7.26777,2.4955
17.8951,18894.0764,-1.86377,6.99777,2.13448
17.9106,18894.0964,-1.11119,7.72897,1.87914
17.9343,18894.1164,-1.23275,8.19751,1.67511
17.9529,18894.1364,-1.47465,8.04357,1.25362
17.9732,18894.1564,-1.10447,7.1065,0.80768
17.9993,18894.1764,-0.68603,6.42233,0.50592
18.0132,18894.1964,-1.36103,4.97763,0.28173
18.0368,18894.2164,-1.98778,3.34113,0.05265
18.0648,18894.2364,-0.73306,0.1463,0.65802
18.0783,18894.2564,0.45079,-1.36559,0.53402
18.0929,18894.2764,0.8613,-1.10719,0.46621
18.1231,18894.2964,0.68659,-0.59223,1.25178
18.137,18894.3164,0.24066,-1.34726,1.92618
18.1534,18894.3364,0.09833,-2.78096,1.29943
18.1737,18894.3564,-0.0776,-3.1426,1.14122
18.205,18894.3764,-0.48383,-3.27271,1.50957
18.2467,18894.3964,-1.02017,-3.96665,1.50285
18.2484,18894.4163,-1.42701,-4.20306,1.23529
18.266,18894.4363,-1.157,-3.62823,1.39045
18.2711,18894.4563,-1.04155,-3.50728,2.04896
18.292,18894.4763,-1.40135,-3.3454,3.31223
18.3114,18894.4963,-1.87171,-3.07051,4.59077
18.3308,18894.5163,-2.40683,-2.71743,5.02754
18.3501,18894.5363,-2.68844,-1.89765,4.97806
18.374,18894.5563,-3.03725,-0.70769,4.96035
18.3931,18894.5763,-3.19607,0.27153,4.99272
18.4109,18894.5963,-2.97677,0.42669,4.91453
18.4328,18894.6163,-2.63957,-0.624,4.84734
18.4509,18894.6363,-2.62919,-1.4957,4.92186
18.473,18894.6563,-2.59987,-1.9508,4.75632
18.4944,18894.6763,-2.05436,-1.94286,4.32505
18.5129,18894.6963,-1.52535,-1.60138,3.96341
18.5339,18894.7163,-1.0556,-1.6136,4.05443
18.5541,18894.7363,-0.41114,-1.61971,4.31222
18.5737,18894.7563,-0.2908,-0.81642,4.06543
18.5918,18894.7763,-0.38914,0.11148,3.67386
18.6127,18894.7963,-0.59195,0.1689,2.8156
18.6346,18894.8163,-0.85462,-0.3485,1.46803
18.6511,18894.8362,-1.26146,-1.23303,0.3813
18.6736,18894.8562,-1.46244,-1.80725,-0.77568
18.6908,18894.8762,-1.25352,-1.84206,-1.9461
18.715,18894.8962,-0.86073,-2.28555,-3.33276
18.7383,18894.9162,-0.54186,-3.59952,-4.85076
18.756,18894.9362,-0.70191,-4.54942,-6.39747
18.778,18894.9562,-1.63226,-4.4077,-7.20504
18.7967,18894.9762,-2.68539,-3.38633,-7.0511
18.8134,18894.9962,-3.31702,-2.20797,-6.49888
18.832,18895.0162,-3.4282,-1.78342,-6.5563
18.8531,18895.0362,-3.64017,-2.4963,-7.20259
18.8736,18895.0562,-4.16735,-3.49568,-7.93563
18.9034,18895.0762,-4.46239,-3.15726,-8.47258
18.9222,18895.0962,-4.22294,-2.34114,-8.06269
18.9333,18895.1162,-3.64689,-2.67406,-6.52698
18.9518,18895.1362,-3.20646,-3.59342,-5.57586
18.9728,18895.1562,-3.27121,-3.41688,-5.86358
18.9906,18895.1762,-3.39155,-3.13404,-6.4439
19.0146,18895.1962,-2.81672,-3.37045,-7.37302
19.0371,18895.2162,-2.13439,-3.14626,-7.86049
19.0575,18895.2362,-1.86683,-3.33502,-7.51841
19.0792,18895.2561,-1.73244,-4.16885,-6.51659
19.0973,18895.2761,-0.02263,-4.15297,-5.0102
19.1143,18895.2961,2.01827,-4.79438,-4.39078
19.1321,18895.3161,3.31697,-4.69969,-4.13605
19.1569,18895.3361,3.67372,-4.2055,-4.12383
19.1937,18895.3561,4.18013,-3.96055,-3.58627
19.2114,18895.3761,5.17828,-4.79804,-2.6657
19.218,18895.3961,6.05548,-5.26169,-3.23136
19.2395,18895.4161,6.49653,-4.43152,-4.72798
19.2516,18895.4361,6.25585,-3.94283,-5.68581
19.272,18895.4561,5.06344,-2.4627,-5.55448
19.2913,18895.4761,3.99137,-2.14078,-5.32785
19.3102,18895.4961,3.73603,-2.44316,-5.81165
19.3324,18895.5161,4.29863,-1.49509,-6.65526
19.3508,18895.5361,4.80565,-0.20922,-6.70474
19.3702,18895.5561,4.78672,0.46151,-5.99369
19.3918,18895.5761,4.51671,0.80176,-5.49645
19.4127,18895.5961,4.53809,1.48532,-5.224
19.4366,18895.6161,4.46357,1.96546,-4.23867
19.4575,18895.6361,3.50573,3.61663,-2.56735
19.4762,18895.656,2.20215,4.92815,-1.2943
19.4919,18895.676,1.30051,3.5983,-1.09516
19.5138,18895.696,1.51248,2.56655,-1.89356
19.5349,18895.716,1.84784,3.20918,-1.79338
19.5519,18895.736,1.51065,5.24397,-1.04202
19.5748,18895.756,0.40009,6.7076,-0.47697
19.5922,18895.776,-0.59378,7.54754,-1.11593
19.6148,18895.796,-1.2016,7.78456,-2.23443
19.6363,18895.816,-1.97984,7.96904,-2.39142
19.6602,18895.836,-2.8662,8.82975,-2.48305
19.6752,18895.856,-3.30908,8.83342,-2.89172
19.6959,18895.876,-3.35306,7.83954,-3.63208
19.7152,18895.896,-3.39827,6.77114,-4.14582
19.7322,18895.916,-3.68904,5.33377,-4.9094
19.753,18895.936,-3.70859,4.2165,-5.70658
19.7786,18895.956,-3.81182,3.31486,-5.7414
19.8096,18895.976,-4.1649,2.75958,-4.90513
19.8154,18895.996,-4.60167,2.32098,-3.76281
19.8375,18896.016,-4.62427,2.03693,-2.95464
19.8516,18896.036,-4.03479,2.34664,-2.59728
19.8741,18896.0559,-3.3158,2.99293,-2.8514
19.8904,18896.0759,-2.78618,3.38816,-3.22708
19.9104,18896.0959,-2.64018,3.59219,-3.436
19.9352,18896.1159,-2.82772,3.19941,-3.74632
19.9522,18896.1359,-2.84421,2.56227,-4.19225
19.9756,18896.1559,-2.33658,1.59711,-4.2796
19.996,18896.1759,-1.76481,1.61971,-4.27227
20.0136,18896.1959,-1.64081,2.21347,-4.24845
20.0352,18896.2159,-1.75076,3.07601,-3.90453
20.0557,18896.2359,-1.74221,4.43396,-3.35353
20.0753,18896.2559,-1.48443,5.75343,-2.82696
20.0923,18896.2759,-1.01284,6.98311,-2.34011
20.1123,18896.2959,-0.38914,8.57685,-2.00596
20.1303,18896.3159,0.09344,9.84073,-1.60951
20.1532,18896.3359,-0.40808,9.39053,-1.46657
20.1817,18896.3559,-1.02933,8.81876,-1.46046
20.197,18896.3759,-0.95664,7.52494,-0.9681
20.2164,18896.3959,-0.05256,4.94404,-0.22957
20.2375,18896.4159,0.66765,3.16092,0.11496
20.2816,18896.4359,0.48928,1.84817,0.32327
20.283,18896.4559,0.00303,1.74188,0.5951
20.2924,18896.4758,-0.58462,1.32833,0.79424
20.3106,18896.4958,-0.47467,0.23427,0.87305
20.3293,18896.5158,-0.07944,-1.33627,0.8535
20.3517,18896.5358,0.10321,-3.39,0.79241
20.3706,18896.5558,0.02808,-4.89578,0.43872
20.3906,18896.5758,-0.38914,-5.10408,0.15528
20.4139,18896.5958,-0.80148,-4.74612,-0.14588
20.4324,18896.6158,-1.03666,-5.20671,-0.29126
20.4578,18896.6358,-1.04216,-5.62088,-0.17947
20.4796,18896.6558,-1.04644,-6.11751,-0.18436
20.4943,18896.6758,-1.17166,-7.12849,-0.28149
20.5162,18896.6958,-0.98291,-7.90673,-0.29554
20.5338,18896.7158,-0.43985,-8.88962,-0.62724
20.5531,18896.7358,0.12704,-9.25919,-1.42197
20.5724,18896.7558,0.0293,-8.49988,-1.98519
20.5964,18896.7758,-0.60661,-7.8316,-1.72069
20.6151,18896.7958,-0.39831,-6.31849,-1.22711
20.6365,18896.8158,0.2822,-5.14746,-1.00536
20.6564,18896.8358,0.40193,-6.04787,-2.08537
20.6756,18896.8558,-0.10387,-7.39605,-3.25762
20.6939,18896.8757,-0.78132,-8.31174,-3.46165
20.723,18896.8957,-1.26207,-8.82975,-3.60215
20.736,18896.9157,-0.85462,-8.00875,-3.9479
20.7547,18896.9357,1.09159,-6.36186,-4.42682
20.7805,18896.9557,3.07813,-7.47424,-5.13542
20.7946,18896.9757,3.71159,-9.41985,-5.67604
20.812,18896.9957,3.5827,-10.08752,-5.74079
20.833,18897.0157,3.53872,-9.91892,-6.17023
20.8518,18897.0357,3.47397,-9.68313,-6.56241
20.8751,18897.0557,3.04086,-8.85602,-6.40175
20.8999,18897.0757,2.53018,-8.26653,-5.78111
20.9189,18897.0957,2.44466,-6.58421,-4.38284
20.9329,18897.1157,2.45016,-4.08699,-2.43479
20.9532,18897.1357,1.60472,-2.65329,-1.32179
20.9778,18897.1557,1.05799,-2.28861,-1.41525
21.0004,18897.1757,0.52715,-1.46638,-1.27964
21.0185,18897.1957,0.12337,-0.40042,-0.79156
21.0331,18897.2157,0.11421,1.92392,-0.03531
21.052,18897.2357,0.15025,4.7791,1.10151
21.0746,18897.2557,-0.32378,7.45408,2.55781
21.0972,18897.2757,-1.52413,9.08754,3.90233
21.1158,18897.2956,-2.95478,8.74056,4.23464
21.1363,18897.3156,-3.77823,7.23906,4.0636
21.1771,18897.3356,-3.15514,6.57138,3.86751
21.1892,18897.3556,-2.08246,7.17247,4.01228
21.1977,18897.3756,-1.86683,8.24943,4.44233
21.2113,18897.3956,-2.58521,9.03806,4.97073
21.2337,18897.4156,-3.31824,8.7705,5.19125
21.2604,18897.4356,-2.90896,8.17063,5.11795
21.2746,18897.4556,-1.55529,7.61169,5.14116
21.2896,18897.4756,-0.37693,7.31664,5.23523
21.3117,18897.4956,0.26204,7.47913,5.52356
21.3299,18897.5156,0.16857,8.67093,6.29325
21.3509,18897.5356,-0.40869,8.74912,7.04828
21.3745,18897.5556,-0.79354,8.79371,7.88395
21.3901,18897.5756,-1.1234,9.00202,8.52108
21.4114,18897.5956,-1.58216,9.15473,8.88515
21.4339,18897.6156,-1.4997,8.21217,8.60477
21.4521,18897.6356,-0.2908,5.29223,7.96519
21.4729,18897.6556,1.48865,1.23731,6.74835
21.4943,18897.6756,1.91198,-1.70829,4.44783
21.5137,18897.6955,0.90955,-2.49203,2.76123
21.5351,18897.7155,-0.18939,-1.97035,2.58469
21.554,18897.7355,-0.66892,-1.48349,2.83026
21.5705,18897.7555,-0.51987,-1.50242,2.27376
21.5918,18897.7755,0.33351,-1.96668,0.88343
21.6188,18897.7955,0.79227,-2.05159,-0.71093
21.6439,18897.8155,0.26082,-1.48837,-1.74757
21.6538,18897.8355,-0.58279,-1.00823,-2.27596
21.6819,18897.8555,-1.29017,-0.82681,-3.51052
21.6934,18897.8756,-1.07392,-2.05037,-5.05418
21.7174,18897.8956,-0.76666,-3.4633,-6.31317
21.7321,18897.9156,-0.99696,-4.7449,-7.439
21.7538,18897.9357,-1.55712,-6.03688,-8.37118
21.775,18897.9557,-2.06902,-7.03259,-8.7719
21.7921,18897.9757,-2.32803,-7.00754,-8.91912
21.8127,18897.9957,-2.19425,-6.24091,-8.80367
21.8304,18898.0158,-1.97556,-6.16821,-8.59781
21.8522,18898.0358,-1.47404,-6.30199,-8.44631
21.8714,18898.0558,-0.85218,-6.7858,-8.14271
21.8935,18898.0759,-0.16129,-7.12238,-7.98878
21.9185,18898.0959,0.25043,-7.01121,-8.30948
21.9409,18898.1159,0.34939,-5.72472,-8.76824
21.9529,18898.1359,0.72141,-4.6606,-8.06391
21.9739,18898.156,0.62917,-4.85424,-6.71329
21.9936,18898.176,0.75806,-4.83958,-5.90206
22.0157,18898.196,1.67497,-4.33012,-6.46772
22.0334,18898.2161,2.98772,-3.90923,-7.2368
22.0536,18898.2361,3.89791,-3.90984,-7.78291
22.0727,18898.2561,4.10194,-4.26842,-8.541
22.093,18898.2762,3.83621,-4.54881,-9.4463
22.1132,18898.2962,3.31209,-4.06195,-9.71508
22.1323,18898.3163,2.98833,-3.01309,-8.77068
22.1527,18898.3364,2.67801,-2.16888,-7.17633
22.1735,18898.3564,1.94375,-1.715,-5.44574
22.1935,18898.3765,0.64383,-1.15057,-3.48426
22.2629,18898.3966,-0.4429,0.35155,-1.00231
22.2675,18898.4167,-0.96153,2.44193,2.32813
22.2724,18898.4368,-1.42701,4.05034,5.01349
22.2929,18898.4568,-2.01038,5.42112,6.82165
22.2961,18898.4769,-2.64996,6.44677,7.68175
22.3122,18898.497,-3.12155,6.30321,7.91693
22.3335,18898.517,-3.29075,3.20979,7.01652
22.3519,18898.5371,-2.68539,1.9734,5.47714
22.3721,18898.5571,-1.93524,1.71073,6.07884
22.3941,18898.5772,-2.27977,2.82617,8.13257
22.413,18898.5973,-3.68843,4.6722,9.68356
22.4326,18898.6173,-4.3952,6.20303,10.48012
22.4577,18898.6374,-4.57785,6.89881,10.37872
22.4787,18898.6575,-4.67742,6.68867,9.39645
22.4955,18898.6776,-4.06533,6.4205,8.07393
22.5156,18898.6977,-3.18508,6.91835,7.30485
22.5383,18898.7178,-2.69272,7.60802,7.21688
22.5577,18898.7379,-2.73181,8.30441,7.15518
22.58,18898.758,-3.12826,8.32457,6.94749
22.5974,18898.7781,-3.22112,7.71187,6.23095
22.6149,18898.7981,-2.59681,7.19385,5.38368
22.6365,18898.8182,-1.86194,6.93179,5.08741
22.6547,18898.8383,-1.05193,6.86704,5.02815
22.6749,18898.8584,-0.23887,6.11201,4.86016
22.6971,18898.8785,0.25471,5.09003,4.19249
22.7163,18898.8986,-0.1619,3.62151,2.89012
22.7353,18898.9186,-0.85462,1.63193,1.42832
22.7577,18898.9387,0.16674,-0.54642,0.578
22.7738,18898.9587,0.96698,-2.48958,-0.06585
22.7979,18898.9788,1.10137,-2.63436,-0.1471
22.8158,18898.9988,0.93399,-2.04182,0.26096
22.8371,18899.0189,0.63711,-1.15423,0.87427
22.8545,18899.0389,0.0519,-1.13407,1.1797
22.8768,18899.0589,-0.36532,-0.75534,1.64151
22.8984,18899.079,-0.73245,-0.43585,2.20229
22.9185,18899.0991,-1.06171,-0.09132,2.6696
22.9413,18899.1191,-1.28651,-0.22938,2.77895
22.9583,18899.1392,-1.39463,0.04978,2.60424
22.979,18899.1593,-1.76665,0.32651,2.75329
23.0019,18899.1793,-1.76115,0.18601,2.86325
23.0203,18899.1994,-1.44472,-0.35461,2.34218
23.0404,18899.2194,-0.10082,-1.29229,0.92863
23.0666,18899.2395,1.39886,-1.24708,-0.3102
23.0829,18899.2595,1.28646,0.06017,-0.52034
23.0981,18899.2796,0.7324,1.14201,-0.13916
23.1179,18899.2996,0.54059,0.7761,-0.14893
23.1354,18899.3196,1.03967,-0.34544,-0.48613
23.1572,18899.3396,1.43123,-0.74129,-1.00048
23.177,18899.3597,1.34693,0.37232,-1.53621
23.1957,18899.3797,1.42818,1.3155,-2.03773
23.2234,18899.3997,1.7721,1.29717,-2.41219
23.2449,18899.4198,2.02805,1.09192,-2.34621
23.258,18899.4398,1.82463,1.15179,-1.77994
23.2749,18899.4598,1.42574,1.53113,-1.25338
23.2959,18899.4798,1.15207,2.47248,-0.87647
23.3162,18899.4999,0.84175,2.50791,-0.58081
23.3395,18899.5199,0.11238,2.99721,0.17849
23.3576,18899.5399,-0.64021,3.38511,1.40939
23.375,18899.56,-0.83813,3.20674,2.43014
23.3962,18899.58,-0.66648,3.08151,2.6079
23.42,18899.6,-0.78804,2.72721,2.59141
23.4422,18899.62,-1.2975,2.0296,3.46678
23.4571,18899.6401,-1.64936,1.05283,4.3507
23.4785,18899.6601,-1.93158,-0.41386,4.75448
23.4963,18899.6801,-2.65057,-1.58061,4.8736
23.5171,18899.7001,-3.84847,-1.55313,4.97684
23.539,18899.7201,-4.89855,-1.55313,4.93469
23.5572,18899.74,-3.91262,-2.37779,4.2829
23.5895,18899.76,-1.63531,-2.65635,3.57307
23.6032,18899.78,-1.09958,-2.07908,3.84124
23.62,18899.8,-1.59072,-2.90497,4.03855
23.6424,18899.82,-2.4893,-3.42665,3.53947
23.6627,18899.84,-2.34758,-3.64473,2.8999
23.6756,18899.86,-1.78436,-4.08516,2.62501
23.6961,18899.88,-1.81552,-3.55249,2.74962
23.7175,18899.9,-2.27122,-3.26721,3.15096
23.7378,18899.92,-2.32009,-4.1096,2.7765
23.7622,18899.94,-2.58521,-4.03446,1.98971
23.7793,18899.96,-3.21379,-2.77608,1.52789
23.7959,18899.98,-3.23883,-2.47126,1.36418
23.8146,18900,-2.45876,-2.94651,1.71482
23.8389,18900.02,-1.92914,-4.12792,1.9445
23.8558,18900.04,-1.68601,-5.58911,2.12837
23.8844,18900.06,-1.38547,-6.64652,2.38249
23.8991,18900.08,-1.07698,-6.21769,2.56087
23.9149,18900.1,-1.45205,-4.02652,3.05811
23.934,18900.12,-1.76726,-2.48775,3.43807
23.9618,18900.14,-1.34759,-3.65695,3.13325
23.9761,18900.1599,-0.54675,-5.20854,2.97564
23.9964,18900.1799,0.33229,-5.53108,2.90112
24.0172,18900.1999,0.18201,-4.03629,3.24076
24.0348,18900.2199,-1.13318,-3.93794,3.7264
24.0551,18900.2399,-1.66219,-4.10654,4.10025
24.0766,18900.2599,-1.28345,-5.61966,3.80459
24.0972,18900.2799,-0.25109,-7.45897,3.47716
24.1144,18900.2999,0.99691,-6.81878,3.49305
24.1458,18900.3199,1.37992,-5.82796,3.04528
24.1726,18900.3399,0.93277,-4.12181,3.11675
24.1878,18900.3599,-0.98779,-3.29898,3.72823
24.1992,18900.3799,-2.26389,-4.23605,3.54864
24.2142,18900.3999,-2.24679,-4.26659,2.82354
24.2576,18900.4199,-2.32253,-3.61418,2.07401
24.2584,18900.4399,-2.24556,-3.02959,1.09846
24.2744,18900.4599,-2.3995,-2.10229,0.45277
24.3007,18900.4799,-3.96148,-1.34971,0.53096
24.3165,18900.4999,-5.12396,-2.20919,0.58838
24.3366,18900.52,-5.34937,-2.27578,0.63237
24.359,18900.54,-5.56562,-0.4273,0.67024
24.3816,18900.56,-5.82218,-0.30879,0.65924
24.3974,18900.58,-5.84478,-1.83412,0.36114
24.4177,18900.6001,-5.44039,-3.57081,-0.02004
24.4368,18900.6201,-5.39519,-4.45107,-0.49957
24.4558,18900.6401,-5.70001,-3.88602,-0.21552
24.4767,18900.6602,-6.10196,-1.7993,0.85961
24.4984,18900.6802,-6.32187,-0.44502,1.61097
24.5175,18900.7002,-6.2339,-1.0736,2.06423
24.5398,18900.7202,-6.22841,-2.38085,1.61891
24.5631,18900.7403,-6.05431,-3.24339,0.578
24.5821,18900.7603,-4.93887,-2.8335,-0.20757
24.6044,18900.7803,-3.45263,-1.74372,0.16872
24.6276,18900.8004,-2.09835,-1.24342,1.58654
24.6482,18900.8204,-1.30728,0.73884,3.52603
24.6686,18900.8404,-1.8821,2.45415,5.16682
24.679,18900.8604,-3.51189,2.39245,6.1607
24.6963,18900.8805,-5.48132,1.96607,5.7001
24.7162,18900.9005,-6.33958,1.7767,4.68546
24.7381,18900.9205,-6.00239,1.20799,4.08192
24.7578,18900.9406,-5.37258,1.17561,3.96341
24.7775,18900.9606,-5.41229,2.12306,4.32993
24.7994,18900.9806,-5.91259,2.63008,5.23951
24.8175,18901.0006,-4.47644,2.39306,5.34275
24.8398,18901.0207,-3.50883,3.70765,5.79234
24.8619,18901.0407,-4.11115,5.79131,6.72208
24.8871,18901.0607,-5.26263,8.32884,8.12463
24.9065,18901.0807,-5.78308,9.42901,9.02199
24.9249,18901.1007,-5.59983,9.17917,8.86805
24.9371,18901.1207,-3.95171,8.63305,7.94687
24.9558,18901.1407,-2.28527,7.05274,6.26882
24.9775,18901.1607,-2.29321,5.38997,5.88153
25.0024,18901.1807,-2.49052,5.25741,6.38855
25.0201,18901.2007,-2.97433,6.31971,8.57361
25.0426,18901.2207,-3.93461,6.57749,10.06168
25.0604,18901.2407,-4.45567,5.04544,9.29199
25.082,18901.2607,-4.51249,2.27822,7.65976
25.102,18901.2807,-3.9792,-1.45966,6.20957
25.1194,18901.3007,-2.3543,-4.70152,4.57794
25.1455,18901.3207,-0.20772,-5.43334,3.97013
25.1753,18901.3407,0.84664,-4.2,4.24563
25.2074,18901.3608,1.35243,-2.88115,4.93347
25.2131,18901.3808,1.72628,-2.56594,5.69461
25.2208,18901.4008,1.85884,-3.49384,6.44353
25.2403,18901.4209,1.80203,-4.76872,6.59136
25.2594,18901.441,0.92544,-5.36798,5.64757
25.2835,18901.461,0.11787,-4.98374,4.73616
25.3018,18901.4811,-0.55652,-3.79744,4.65736
25.3172,18901.5012,-1.84484,-1.98501,5.21996
25.3383,18901.5212,-3.03236,-1.7034,5.41422
25.3615,18901.5413,-2.78862,-3.16092,5.19125
25.3819,18901.5613,-2.59131,-4.68137,4.62926
25.4085,18901.5814,-3.33107,-5.02589,4.78075
25.4225,18901.6015,-3.33535,-4.9477,4.81129
25.4417,18901.6215,-2.2755,-4.82492,4.46127
25.4665,18901.6416,-2.28527,-4.04729,4.36781
25.4804,18901.6616,-2.56627,-4.00331,4.55656
25.5003,18901.6817,-1.9554,-5.21526,4.63414
25.5214,18901.7018,-1.19488,-6.37285,4.79602
25.5387,18901.7218,-0.76422,-7.13033,5.41849
25.5614,18901.7419,-0.76788,-6.03382,6.11671
25.5819,18901.762,-1.13501,-5.04911,6.27737
25.6085,18901.782,-1.64325,-3.70704,6.23339
25.62,18901.8021,-2.64202,-3.34052,5.74103
25.6396,18901.8221,-3.05374,-3.29531,4.67263
25.6614,18901.8422,-2.95539,-2.08885,3.49366
25.6835,18901.8623,-3.01342,-0.09927,2.93044
25.7011,18901.8823,-4.25531,1.10597,1.9836
25.7193,18901.9024,-5.29928,0.58979,0.57617
25.7455,18901.9224,-4.93215,-0.38026,0.20232
25.7626,18901.9424,-4.68719,-0.894,0.56456
25.7787,18901.9625,-4.26631,-1.10047,0.7185
25.7995,18901.9825,-4.2266,0.08583,0.14795
25.8284,18902.0025,-5.1429,0.78221,-0.35479
25.8388,18902.0225,-6.38601,0.33567,-0.65656
25.8584,18902.0425,-6.92968,-0.27642,-0.72192
25.879,18902.0625,-6.7623,-0.57635,-0.44764
25.8972,18902.0825,-6.35791,0.37599,0.01783
25.9268,18902.1025,-6.03782,1.27029,0.30067
25.9477,18902.1225,-5.77881,0.35277,0.41062
25.9659,18902.1425,-5.6603,0.19639,-0.15871
25.9975,18902.1625,-5.38419,0.86712,-0.38045
26.0088,18902.1825,-4.32373,1.21287,0.54257
26.0239,18902.2024,-3.37017,2.17132,1.73314
26.045,18902.2224,-3.02747,2.47431,2.20473
26.0593,18902.2424,-3.09467,2.84755,2.2591
26.0817,18902.2624,-3.52105,3.72231,2.66594
26.1009,18902.2824,-4.31945,4.98619,3.02574
26.119,18902.3024,-4.92543,5.30078,3.21449
26.1365,18902.3224,-5.25713,5.6728,3.42219
26.1624,18902.3424,-4.9462,5.22687,2.89929
26.1821,18902.3624,-4.00791,4.43458,2.28964
26.1987,18902.3824,-3.29198,5.20121,2.85958
26.2169,18902.4024,-3.24311,6.05154,3.33606
26.273,18902.4224,-3.226,6.26717,3.14669
26.2745,18902.4424,-3.01037,7.48646,3.14485
26.2797,18902.4624,-3.17713,9.15229,3.49977
26.2973,18902.4824,-3.78922,9.25125,3.56879
26.316,18902.5024,-3.93705,8.38932,3.12897
26.3353,18902.5224,-3.12277,5.83346,2.72152
26.3573,18902.5424,-1.90959,4.23116,2.02453
26.3767,18902.5624,-0.73612,4.346,1.44665
26.3981,18902.5824,-0.58768,4.64105,1.66961
26.4187,18902.6024,-1.60232,2.92879,1.60303
26.4385,18902.6223,-2.00244,2.8616,0.98239
26.4581,18902.6423,-1.8711,3.01859,0.33854
26.4781,18902.6623,-1.62493,2.19087,0.3025
26.4991,18902.6823,-1.33415,1.48959,0.45338
26.5167,18902.7023,-1.2639,0.87812,0.85961
26.5397,18902.7223,-1.04338,0.60017,0.859
26.559,18902.7423,-0.47955,0.32162,0.58899
26.5788,18902.7623,-0.01652,0.10904,0.3642
26.5997,18902.7823,-0.13197,0.23915,0.25607
26.6194,18902.8023,-0.73245,0.81581,0.2634
26.6387,18902.8223,-1.31522,0.76755,0.54012
26.6602,18902.8423,-1.13257,0.1237,0.62259
26.6806,18902.8623,-0.45512,0.17684,0.22431
26.7043,18902.8823,-0.48322,0.61178,-0.16481
26.7204,18902.9023,-0.4093,1.40652,-0.46475
26.7396,18902.9223,-0.10082,0.92027,-0.0964
26.7568,18902.9423,-0.38792,-0.55864,0.36175
26.7785,18902.9623,-0.52048,-1.27457,0.27684
26.7989,18902.9823,-0.10509,-0.35522,-0.07379
26.8233,18903.0023,0.3329,0.63927,-0.24667
26.8426,18903.0222,0.26082,0.85613,-0.0402
26.8615,18903.0422,-0.35371,0.4835,0.12535
26.8835,18903.0622,-0.75261,0.40714,0.08564
26.9014,18903.0822,-0.79293,0.54703,0.11802
26.9207,18903.1022,-0.79659,0.61545,0.27806
26.942,18903.1222,-1.23275,0.04429,0.23103
26.9741,18903.1422,-1.72755,-0.43891,-0.1642
26.9823,18903.1622,-1.96029,-1.2483,-0.2711
27.0009,18903.1822,-1.62309,-1.84573,0.03311
27.0213,18903.2022,-1.09592,-1.175,0.43322
27.0412,18903.2222,-1.03055,-0.05528,0.44116
27.0577,18903.2422,-1.38363,0.45418,0.73133
27.0791,18903.2622,-2.13622,0.38087,0.94452
27.0964,18903.2822,-2.47769,0.70891,0.73743
27.1206,18903.3022,-1.97801,1.34299,0.20598
27.1446,18903.3222,-1.66585,1.55374,0.07159
27.1626,18903.3422,-1.72572,1.23853,-0.14343
27.196,18903.3622,-1.51986,0.75045,-0.67489
27.2038,18903.3822,-1.41845,-0.06017,-0.93145
27.2186,18903.4022,-2.20403,0.70585,-0.73842
27.2599,18903.4222,-3.10383,1.17133,-0.24667
27.2653,18903.4421,-3.75868,1.95996,-0.01454
27.279,18903.4621,-3.22173,0.49572,-0.02309
27.2975,18903.4821,-1.60782,0.67042,-0.1416
27.3187,18903.5021,-0.43007,0.28802,-0.04875
27.3367,18903.5221,0.14719,-0.72296,-0.36212
27.3564,18903.5421,-0.54247,-1.23364,-0.3328
27.3804,18903.5621,-0.82103,-1.85245,-0.04936
27.4012,18903.5821,0.01952,-2.57816,0.52913
27.4218,18903.6021,1.05494,-2.64902,0.59755
27.4427,18903.6221,0.96331,-1.23975,-0.27782
27.4621,18903.6421,0.60534,0.90866,-1.29797
27.4871,18903.6621,0.87107,1.12002,-1.72252
27.5044,18903.6821,1.09037,-0.79443,-1.59974
27.5281,18903.7021,0.8558,-0.67165,-1.24849
27.5419,18903.7221,0.57541,0.19639,-0.78362
27.5604,18903.7421,0.44713,0.09499,-0.47025
27.5792,18903.7621,0.59313,-0.53542,-0.66878
27.5985,18903.7821,0.81854,-0.33445,-0.83677
27.62,18903.8021,1.05677,0.9221,-0.48796
27.6405,18903.8221,1.42329,1.59283,0.151
27.663,18903.8421,1.34999,0.0058,0.50897
27.6829,18903.862,1.00913,-0.93615,0.50714
27.7019,18903.882,0.7434,-0.98991,0.45521
27.722,18903.902,0.49844,-1.15973,0.47415
27.747,18903.922,0.46362,-1.44989,0.39107
27.7609,18903.942,0.52776,-0.95753,0.31044
27.7849,18903.962,0.62978,0.24404,0.27806
27.7988,18903.982,0.61695,0.57574,0.0044
27.8199,18904.002,0.37383,0.36133,0.0606
27.843,18904.022,-0.17046,0.53359,0.08259
27.8597,18904.042,-0.5162,0.4047,0.14795
27.8768,18904.062,0.16552,0.06445,0.26951
27.8988,18904.082,0.66276,0.24343,0.26157
27.9196,18904.102,0.64688,0.38576,0.00195
27.937,18904.122,0.49417,0.49205,-0.34258
27.9567,18904.142,0.26876,0.31246,-0.58448
27.98,18904.162,0.20645,0.25626,-0.66572
27.9977,18904.182,0.14231,0.22938,-0.57532
28.0223,18904.202,0.15697,0.0846,-0.26377
28.0469,18904.222,0.50516,-0.50244,0.05876
28.0671,18904.2419,0.93155,-0.91844,0.1565
28.0784,18904.2619,0.75989,-0.99235,-0.02737
28.0987,18904.2819,0.26509,-0.7645,-0.21002
28.1204,18904.3019,-0.02018,-0.65271,-0.29065
28.1375,18904.3219,0.26448,-0.63683,-0.15932
28.1575,18904.3419,0.83686,-0.34667,0.06121
28.1902,18904.3619,0.86069,0.07055,0.01112
28.2507,18904.3819,0.34023,0.43463,-0.28149
28.2553,18904.402,0.14353,0.53787,-0.37434
28.2568,18904.422,0.20462,0.31673,-0.27966
28.2582,18904.442,0.42819,-0.10782,0.0948
28.2819,18904.4621,0.7153,-0.34972,0.42345
28.2977,18904.4821,1.00118,-0.19945,0.48576
28.3159,18904.5021,1.12275,0.16768,0.42284
28.3378,18904.5222,0.79532,0.23304,0.15956
28.3568,18904.5422,0.5412,0.42486,0.12657
28.3784,18904.5622,0.45079,0.27947,0.12962
28.4002,18904.5822,0.58885,0.17135,0.13818
28.4178,18904.6023,0.8839,0.19578,0.17788
28.4437,18904.6223,0.92544,0.0675,0.24569
28.4604,18904.6423,0.70186,-0.13653,0.13207
28.4791,18904.6624,0.37138,-0.12126,-0.07868
28.4977,18904.6824,0.09222,0.02902,-0.14099
28.5217,18904.7024,0.13864,0.34361,-0.06646
28.5403,18904.7224,0.21317,0.47189,0.15039
28.5607,18904.7425,0.2321,0.32345,0.15284
28.5806,18904.7625,0.46607,0.16707,0.09236
28.5997,18904.7825,0.55159,0.04673,0.02883
28.6222,18904.8026,0.23821,0.22449,-0.07807
28.6431,18904.8226,0.20339,0.55864,-0.14771
28.6601,18904.8426,0.39093,0.76022,-0.05119
28.6796,18904.8626,0.41109,0.55069,0.06182
28.7036,18904.8827,0.22477,0.17929,-0.10251
28.722,18904.9027,0.17529,0.20006,-0.31264
28.7425,18904.9227,0.06839,0.41691,-0.33158
28.7643,18904.9428,-0.36349,0.53542,-0.18925
28.7876,18904.9628,-0.63349,1.09742,-0.11472
28.8052,18904.9828,-0.4203,1.70095,-0.13732
28.8284,18905.0028,-0.07638,1.4841,0.12046
28.8479,18905.0228,-0.00858,0.95875,0.09969
28.8615,18905.0428,-0.02079,0.32467,0.06243
28.8797,18905.0627,0.1814,-0.03879,0.14184
28.899,18905.0827,0.25287,-0.40531,0.05998
28.9174,18905.1027,0.27181,-0.8262,-0.17153
28.9408,18905.1227,0.36283,-1.07543,-0.14893
28.9597,18905.1427,0.42086,-0.85857,0.01112
28.9824,18905.1627,0.34084,-0.2642,0.07587
29.0044,18905.1827,-0.04767,-0.01497,-0.11961
29.0224,18905.2027,-0.29629,0.06872,-0.30287
29.0414,18905.2227,-0.07821,-0.03024,-0.31631
29.0685,18905.2427,0.23394,-0.30635,-0.22101
29.0854,18905.2627,0.13559,-0.53237,-0.18131
29.0984,18905.2827,0.10077,-0.65638,-0.12938
29.1218,18905.3027,0.19912,-0.39798,-0.06708
29.1418,18905.3227,0.226,-0.16646,0.09725
29.1659,18905.3427,-0.06905,-0.16524,0.08625
29.1868,18905.3627,-0.36654,-0.22022,-0.05119
29.2004,18905.3827,-0.3586,-0.40348,-0.11472
29.2175,18905.4027,-0.43191,-0.25259,-0.10189
29.2444,18905.4227,-0.27919,-0.18357,0.07465
29.2632,18905.4427,0.02319,-0.25809,0.24508
29.2783,18905.4627,0.25287,-0.29352,0.32021
29.2984,18905.4826,0.57358,-0.22327,0.51325
29.3166,18905.5026,0.31335,-0.28314,0.44055
29.3377,18905.5226,-0.13747,-0.10171,0.31044
29.3582,18905.5426,-0.01774,-0.0449,0.2463
29.3763,18905.5626,0.13559,-0.00764,0.2237
29.3971,18905.5826,-0.17229,0.00153,0.07709
29.4178,18905.6026,-0.54919,0.0956,-0.0799
29.4359,18905.6226,-0.87173,0.01008,-0.31081
29.4567,18905.6426,-1.28467,0.04612,-0.54477
29.479,18905.6626,-0.95114,0.00702,-0.54844
29.5051,18905.6826,-0.59378,-0.09194,-0.37739
29.5226,18905.7026,-0.31218,-0.02963,-0.19841
29.5476,18905.7226,0.20339,0.1463,-0.08907
29.5646,18905.7426,0.42636,0.11209,0.06121
29.5823,18905.7626,0.18873,-0.07544,0.05327
29.5995,18905.7826,0.20401,-0.11698,0.00378
29.6183,18905.8026,0.33168,-0.27275,0.016
29.6386,18905.8226,0.16613,-0.34728,-0.06646
29.6651,18905.8426,-0.09165,-0.13775,-0.1807
29.6801,18905.8626,-0.1222,0.01924,-0.17153
29.7004,18905.8825,-0.15152,-0.04062,-0.16787
29.7175,18905.9025,-0.18451,-0.01252,-0.16176
29.7369,18905.9225,-0.04584,0.05223,-0.08968
29.7571,18905.9425,0.02441,-0.01375,0.00317
29.7825,18905.9625,-0.09593,0.0339,0.03799
29.8043,18905.9825,-0.06539,0.05345,0.01417
29.8428,18906.0025,0.07878,-0.10537,-0.03348
29.8472,18906.0225,0.12154,-0.16829,-0.08051
29.8619,18906.0425,0.07878,-0.05223,-0.05913
29.88,18906.0625,0.08061,0.00519,-0.00049
29.8988,18906.0825,0.09161,0.02596,0.10885
29.9183,18906.1025,0.06228,-0.07911,0.18643
29.9432,18906.1225,0.1081,-0.15791,0.22981
29.9643,18906.1425,0.17468,-0.13592,0.19682
29.977,18906.1625,0.21439,-0.02718,0.21087
29.9974,18906.1825,0.22966,-0.02474,0.25302
30.0211,18906.2025,0.15391,-0.16585,0.27806
30.0397,18906.2225,0.17957,-0.30024,0.30128
30.0648,18906.2425,0.07206,-0.32162,0.151
30.0825,18906.2625,-0.03973,-0.24832,0.01112
30.1082,18906.2825,-0.02079,-0.09132,-0.13244
30.1242,18906.3024,-0.03179,0.07422,-0.04081
30.1401,18906.3224,-0.03606,0.00764,-0.00355
30.1584,18906.3424,0.0293,0.02596,-0.02798
30.1829,18906.3624,0.04701,-0.01497,-0.07868
30.2445,18906.3824,-0.11487,-0.07117,-0.09273
30.2475,18906.4024,-0.12831,-0.05528,-0.10251
30.2499,18906.4224,-0.14541,0.08888,-0.0402
30.2658,18906.4424,-0.19672,0.09743,-0.00477
30.2783,18906.4624,-0.25414,0.06261,0.00928
30.2974,18906.4824,-0.09898,-0.03818,-0.00721
30.3176,18906.5024,0.08122,-0.07789,-0.08051
30.3355,18906.5224,-0.04523,0.03268,-0.15015
30.3585,18906.5424,-0.19917,0.12859,-0.11717
30.387,18906.5624,-0.11242,0.05895,-0.08113
30.4008,18906.5824,0.0519,-0.15302,-0.05119
30.4181,18906.6024,0.08733,-0.23121,-0.0518
30.4436,18906.6224,0.12337,-0.17196,-0.03348
30.4579,18906.6424,0.13498,-0.10171,-0.01149
30.4808,18906.6624,0.08916,-0.08399,-0.01576
30.5007,18906.6824,0.10932,-0.08827,0.00012
30.5186,18906.7023,0.02502,-0.09866,0.01661
30.539,18906.7223,0.03907,-0.06689,0.03494
30.5633,18906.7423,0.03968,-0.05223,0.05937
30.5804,18906.7623,0.0128,-0.12004,0.0948
30.6013,18906.7823,-0.07821,-0.15852,0.08564
30.6276,18906.8023,-0.0495,-0.05101,0.14306
30.6481,18906.8223,0.08061,-0.05895,0.14001
30.6626,18906.8423,0.16124,0.01252,0.11374
30.6799,18906.8623,0.20034,0.15485,0.12779
30.698,18906.8823,0.20034,0.16341,0.1058
30.7184,18906.9023,0.17346,0.02474,0.06548
30.7399,18906.9223,0.14719,-0.10782,0.01967
30.7581,18906.9423,0.14597,-0.15485,-0.01454
30.7781,18906.9623,0.08366,-0.0339,-0.09945
30.8038,18906.9823,0.08,0.11148,-0.12633
30.8254,18907.0023,0.10016,0.09193,-0.09151
30.8404,18907.0223,0.11604,0.08155,-0.01698
30.862,18907.0423,0.1362,0.06567,0.03372
30.8785,18907.0623,0.10504,0.00641,0.01906
30.9024,18907.0823,0.02441,0.04062,-0.00721
30.9185,18907.1023,0.0464,0.12859,0.01417
30.9373,18907.1222,0.15941,0.08949,0.0722
30.9584,18907.1422,0.21622,0.03696,0.12413
30.9809,18907.1622,0.19179,-0.0223,0.0887
30.9989,18907.1822,0.09894,-0.08583,-0.05486
31.0183,18907.2022,0.03846,0.05284,-0.10189
31.0396,18907.2222,0.02808,0.26176,0.00256
31.0626,18907.2422,0.03113,0.22144,0.10152
31.0848,18907.2622,0.12215,0.07239,0.07403
31.102,18907.2822,0.18629,-0.03635,0.03311
31.1191,18907.3022,0.12765,-0.00031,-0.00049
31.1451,18907.3222,0.03052,0.25504,-0.02554
31.1691,18907.3422,-0.066,0.40836,0.02883
31.1867,18907.3622,0.0128,0.28924,0.08075
31.198,18907.3822,0.08305,0.06872,0.10397
31.2366,18907.4022,0.13498,-0.00886,0.08014
31.243,18907.4222,0.07267,-0.00947,0.0551
31.2577,18907.4422,-0.00797,0.11698,0.02761
31.2798,18907.4622,-0.0776,0.343,0.01845
31.2975,18907.4822,-0.03851,0.3882,0.07526
31.3165,18907.5022,0.0348,0.19151,0.05082
31.3394,18907.5221,0.05068,-0.11759,0.04105
31.3591,18907.5421,0.13009,-0.1237,-0.0011
31.3773,18907.5621,0.05618,0.02718,-0.02737
31.4013,18907.5821,-0.04584,0.18784,-0.05791
31.4235,18907.6021,-0.14297,0.18967,-0.07135
31.4376,18907.6221,-0.0715,0.05467,-0.07807
31.4595,18907.6421,-0.02385,-0.14997,-0.15932
31.48,18907.6621,-0.12647,-0.20372,-0.16604
31.5017,18907.6821,-0.29385,-0.18845,-0.11411
31.5244,18907.7021,-0.31157,-0.10476,-0.09762
31.5532,18907.7221,-0.20772,-0.10599,-0.22529
31.5663,18907.7421,0.0409,-0.23977,-0.4452
31.5813,18907.7621,0.1136,-0.25382,-0.41527
31.5997,18907.7821,0.07267,-0.24526,-0.14466
31.6253,18907.8021,-0.10021,-0.09132,0.10946
31.6413,18907.8221,-0.2065,-0.03635,0.13268
31.6614,18907.8421,-0.15641,-0.02902,0.0606
31.6801,18907.8621,-0.04401,-0.00886,-0.04264
31.7034,18907.8821,0.09344,-0.12187,-0.06585
31.7192,18907.9021,0.05068,-0.12065,-0.05608
31.7403,18907.922,-0.13319,0.08094,-0.03531
31.759,18907.942,-0.2969,0.46212,-0.02737
31.7775,18907.962,-0.36043,0.40531,-0.06891
31.8034,18907.982,-0.15396,0.06322,-0.11656
31.8242,18908.002,0.11238,-0.26176,-0.11656
31.8387,18908.022,0.20034,-0.22999,-0.08113
31.8593,18908.042,0.07695,0.0168,-0.04508
31.88,18908.062,-0.11975,0.25931,0.02333
31.9095,18908.082,-0.11181,0.21472,0.09847
31.9251,18908.102,0.01219,0.04978,0.09175
31.9496,18908.122,0.07939,-0.14936,0.02272
31.9602,18908.142,0.0464,-0.05651,0.02761
31.9777,18908.162,-0.03057,0.08949,0.02822
32.0001,18908.182,-0.10693,0.19334,0.02578
32.0177,18908.202,-0.08432,0.21044,-0.03409
32.0418,18908.222,0.05679,-0.13653,-0.04753
32.0721,18908.242,0.31274,-0.39981,-0.02187
32.0802,18908.262,0.21622,0.04551,-0.00538
32.1005,18908.282,-0.19672,0.51465,0.03616
32.1195,18908.302,-0.36532,0.46884,-0.00477
32.1387,18908.322,-0.18512,0.07422,-0.05669
32.1609,18908.3419,0.10443,-0.34361,-0.04814
32.1969,18908.3619,0.28525,-0.38026,-0.01271
32.2015,18908.3819,0.19912,-0.23671,0.04044
32.2237,18908.4019,-0.04156,0.06322,0.04838
32.2378,18908.4219,-0.18939,0.19639,0.05388
32.2842,18908.4419,-0.09226,0.07666,0.02455
32.2868,18908.4619,0.06106,-0.09499,-0.01882
32.2998,18908.4819,-0.09898,0.16829,-0.01149
32.3161,18908.5019,-0.31706,0.40958,0.016
32.3362,18908.5219,-0.2627,0.3259,-0.01576
32.3586,18908.5419,-0.00858,0.07911,-0.04875
32.3778,18908.5619,0.22233,-0.15669,-0.02615
32.3997,18908.5819,0.15453,0.00153,-0.0347
32.4215,18908.6019,-0.20283,0.51221,-0.04814
32.4428,18908.6219,-0.38487,0.62583,-0.08296
32.463,18908.6419,-0.12036,0.18784,-0.11411
32.4799,18908.6619,0.23455,-0.36805,-0.10006
32.4977,18908.6819,0.34389,-0.34178,-0.05791
32.5187,18908.7019,0.06045,0.13408,0.00073
32.538,18908.7219,-0.26575,0.33628,0.01906
32.5587,18908.7418,-0.24559,0.14691,-0.01393
32.5775,18908.7618,-0.08188,-0.10171,0.02089
32.6006,18908.7818,0.05862,-0.1292,0.0887
32.6171,18908.8018,0.08244,-0.06872,0.09236
32.6401,18908.8218,-0.03484,0.01924,0.09786
32.6625,18908.8418,-0.01896,0.01924,0.10458
32.6812,18908.8618,0.1081,-0.06567,0.10336
32.7083,18908.8818,0.14475,0.00336,0.14184
32.73,18908.9018,0.215,-0.12798,0.17177
32.7412,18908.9218,0.2822,-0.38943,0.12351
32.7583,18908.9418,0.13559,-0.18173,0.07342
32.7791,18908.9618,-0.02263,0.24099,0.03127
32.822,18908.9818,0.00364,0.2025,-0.01698
32.8296,18909.0018,0.11115,-0.073,-0.05608
32.8395,18909.0218,0.11971,-0.12309,-0.04142
32.8578,18909.0418,0.08305,-0.13286,-0.02615
32.8769,18909.0618,0.06167,-0.06689,-0.00293
32.8995,18909.0818,0.00181,0.13042,-0.01026
32.9179,18909.1018,-0.0715,0.07239,-0.04142
32.9417,18909.1218,0.02685,-0.1066,-0.0176
32.9692,18909.1418,0.09649,-0.1518,0.01783
32.9861,18909.1617,0.03357,-0.03268,0.05998
33.0053,18909.1817,-0.0379,0.11087,0.0722
33.0197,18909.2017,-0.02385,0.0449,0.05998
33.0384,18909.2217,0.04823,-0.07544,0.07526
33.0575,18909.2417,0.10138,-0.17074,0.10275
33.0841,18909.2617,0.05068,-0.18784,0.08808
33.1064,18909.2817,0.04701,-0.07972,0.04655
33.1235,18909.3017,0.06717,0.09621,0.01967
33.1397,18909.3217,0.02013,0.10415,0.03433
33.1579,18909.3417,0.03418,0.02107,0.07098
33.1799,18909.3617,0.06473,-0.11209,0.03922
33.1973,18909.3817,0.14536,-0.15547,0.00928
33.2194,18909.4017,0.16002,-0.12065,0.01539
33.2416,18909.4217,0.09955,-0.0785,0.05937
33.2587,18909.4417,0.05923,-0.07728,0.06121
33.2759,18909.4617,0.04946,-0.09316,0.05876
33.2957,18909.4817,0.01708,-0.02841,0.07709
33.3178,18909.5017,0.0629,-0.04001,0.04838
33.3419,18909.5217,-0.02935,-0.07666,0.00378
33.3569,18909.5417,-0.07272,-0.04856,0.00317
33.3793,18909.5617,-0.02935,0.04612,0.02517
33.4011,18909.5816,-0.04889,0.01008,0.04166
33.4196,18909.6016,-0.05683,-0.0504,0.06548
33.4392,18909.6216,-0.00186,-0.11393,0.06426
33.4562,18909.6416,0.03907,-0.05528,0.08564
33.4783,18909.6616,0.10138,-0.02718,0.12413
33.4979,18909.6816,0.09161,-0.05284,0.17116
33.5189,18909.7016,0.21256,-0.14936,0.24447
33.538,18909.7216,0.28708,-0.21289,0.19254
33.5627,18909.7416,0.29869,-0.22205,0.13451
33.5755,18909.7616,0.27303,-0.28191,0.11985
33.5965,18909.7816,0.1698,-0.28375,0.03433
33.6182,18909.8016,0.19667,-0.11087,-0.04814
33.6395,18909.8216,0.15941,0.06567,-0.08479
33.66,18909.8416,-0.02873,0.1689,-0.08296
33.6823,18909.8616,-0.12036,0.11087,-0.08479
33.7076,18909.8816,-0.14969,0.04612,-0.09212
33.7208,18909.9016,-0.09593,-0.07544,-0.05791
33.7663,18909.9216,-0.06172,-0.12309,-0.02309
33.7734,18909.9416,-0.04278,-0.04429,0.05204
33.7783,18909.9616,0.00364,0.00092,0.11435
33.8028,18909.9815,0.0128,0.05773,0.1565
33.8175,18910.0015,-0.01346,0.12981,0.08075
33.8363,18910.0215,0.01403,0.16279,0.00195
33.8581,18910.0415,0.06167,0.09682,-0.00843
33.884,18910.0615,-0.00735,0.0785,-0.04936
33.9039,18910.0815,-0.00552,0.27947,0.00867
33.9188,18910.1016,0.05923,0.24099,0.05571
33.9419,18910.1216,0.05007,0.17196,0.09053
33.9593,18910.1416,0.12032,0.11942,0.11679
33.9806,18910.1616,0.23027,0.14203,0.17849
33.9995,18910.1817,0.16796,0.11087,0.22309
34.0248,18910.2017,0.07939,0.22205,0.13084
34.0437,18910.2217,0.09894,0.26847,0.1003
34.0586,18910.2418,0.13314,0.18112,0.14306
34.0793,18910.2618,0.1643,0.02779,0.18827
34.1037,18910.2818,0.07817,-0.06445,0.15894
34.1174,18910.3018,0.03785,-0.03635,0.11741
34.1384,18910.3219,-0.03668,-0.05162,0.04593
34.1637,18910.3419,-0.14174,0.08338,-0.00843
34.1804,18910.3619,-0.05806,0.08155,-0.02248
34.1966,18910.382,0.03418,0.0168,-0.01454
34.2493,18910.402,0.10382,-0.01252,0.00684
34.2526,18910.4221,0.09649,0.01619,0.00012
34.2629,18910.4421,-0.00858,0.15424,0.0215
34.2822,18910.4622,-0.02568,0.08522,0.04532
34.2982,18910.4823,-0.09226,0.09926,-0.0121
34.3166,18910.5023,-0.06966,0.1347,-0.00416
34.34,18910.5224,0.02136,0.16707,0.02394
34.36,18910.5424,0.00853,0.13897,0.07037
34.3777,18910.5625,-0.02629,0.01863,0.09603
34.3992,18910.5826,-0.05439,0.02413,0.05876
34.418,18910.6026,0.02319,-0.04734,0.03616
34.4396,18910.6227,0.00364,-0.07483,-0.05547
34.4642,18910.6428,-0.03729,-0.02291,-0.04081
34.4805,18910.6628,-0.00674,0.03635,-0.0011
34.5,18910.6829,0.03663,0.05712,0.0386
34.5225,18910.7029,0.05495,-0.03024,0.05449
34.5502,18910.7229,0.02869,0.0339,0.05693
34.5677,18910.743,0.02013,-0.00458,0.08442
34.5809,18910.763,-0.05073,-0.03024,0.02211
34.6034,18910.783,-0.055,0.02596,0.00134
34.6189,18910.803,0.0348,0.03696,0.02333
34.6435,18910.8231,0.09466,0.01497,0.06243
34.6646,18910.8431,0.12948,-0.0449,0.08259
34.6822,18910.8631,0.01342,-0.05223,0.05571
34.7048,18910.8832,0.00059,-0.07728,0.03616
34.7226,18910.9032,-0.00063,-0.06139,0.00256
34.7424,18910.9232,-0.06966,0.04307,-0.04325
34.7635,18910.9432,-0.04034,0.07666,-0.03592
34.7957,18910.9633,0.07572,0.02474,0.02272
34.8084,18910.9833,0.13314,-0.04062,0.016
34.8218,18911.0033,0.10016,-0.01375,-0.03348
34.8382,18911.0233,0.06412,0.0339,-0.04264
34.8581,18911.0433,-0.04767,0.00825,-0.04081
34.884,18911.0633,-0.10815,-0.03146,-0.03836
34.9063,18911.0833,-0.01957,-0.06628,-0.02615
34.9197,18911.1033,0.09649,-0.06506,-0.01393
34.9407,18911.1233,0.04946,-0.05956,0.00745
34.9608,18911.1433,-0.03545,-0.01069,0.02883
34.9841,18911.1633,-0.03912,0.02963,0.00867
35.0017,18911.1833,0.0238,0.00825,-0.00965
35.0191,18911.2033,0.10443,-0.02535,-0.02676
35.0391,18911.2232,0.07939,0.04123,0.03188
35.0641,18911.2432,0.02502,0.02596,0.04899
35.0834,18911.2632,0.01586,-0.01313,0.01783
35.0988,18911.2832,0.02502,-0.06628,-0.00965
35.1198,18911.3032,0.03296,-0.10049,-0.0176
35.1381,18911.3232,0.02197,-0.05284,-0.0292
35.1626,18911.3432,0.00059,0.03757,-0.0237
35.1945,18911.3632,-0.03118,-0.00519,-0.03836
35.2078,18911.3832,-0.03668,-0.07056,-0.06097
35.2207,18911.4033,-0.00552,-0.0504,-0.05119
35.2424,18911.4233,0.00303,0.05162,0.00256
35.2588,18911.4433,0.00181,0.03574,0.04899
35.2786,18911.4634,0.05251,-0.06323,0.03127
35.2997,18911.4834,0.06045,-0.11087,-0.01943
35.325,18911.5034,-0.02446,-0.08094,-0.05058
35.3387,18911.5234,-0.07211,-0.01619,-0.08479
35.364,18911.5435,-0.03729,0.07239,-0.07196
35.3792,18911.5635,-0.01591,0.05162,-0.0402
35.3996,18911.5835,0.03235,-0.05712,-0.03042
35.4226,18911.6036,0.04946,-0.10599,-0.02065
35.4403,18911.6236,-0.02568,-0.09132,0.00012
35.4635,18911.6436,-0.11181,-0.04979,-0.04814
35.4832,18911.6636,-0.0886,-0.01375,-0.04142
35.5041,18911.6837,-0.00063,-0.01375,-0.03531
35.5206,18911.7037,0.07267,-0.08827,-0.0402
35.542,18911.7237,0.02441,-0.16646,0.0044
35.5603,18911.7438,-0.10631,-0.08705,-0.02554
35.5946,18911.7638,-0.1393,-0.0675,-0.03042
35.6069,18911.7838,-0.04523,-0.00886,-0.04386
35.62,18911.8038,0.04152,-0.04918,-0.05547
35.647,18911.8239,0.01097,-0.08155,-0.06097
35.6657,18911.8439,-0.0434,-0.11026,-0.04631
35.6835,18911.8639,-0.04462,-0.03451,-0.07074
35.7009,18911.884,-0.05806,0.03268,-0.0964
35.7248,18911.904,-0.03118,0.04001,-0.08723
35.7418,18911.924,0.0745,-0.03757,-0.05791
35.7674,18911.944,0.11482,-0.09743,-0.04508
35.7841,18911.9641,0.0464,-0.13225,-0.06097
35.802,18911.9841,-0.04584,-0.04979,-0.07746
35.8205,18912.0041,-0.08432,0.02107,-0.0854
35.8474,18912.0241,-0.04095,-0.04307,-0.07929
35.8607,18912.0441,0.01097,-0.12431,-0.08296
35.8804,18912.064,-0.08554,-0.20983,-0.1642
35.9006,18912.084,-0.21566,-0.15974,-0.22407
35.9202,18912.104,-0.22177,-0.02474,-0.24911
35.9397,18912.124,-0.18756,0.04795,-0.2595
35.9638,18912.144,-0.26331,0.15608,-0.28088
35.9921,18912.164,-0.30729,0.08583,-0.24178
36.0056,18912.184,-0.18023,-0.08094,-0.20391
36.025,18912.204,-0.04217,-0.13286,-0.1361
36.0414,18912.224,0.03296,-0.17257,-0.09579
36.0595,18912.244,-0.03851,-0.1463,-0.08907
36.0845,18912.264,-0.10448,-0.03451,-0.07074
36.0999,18912.284,-0.02324,-0.00458,-0.06891
36.1202,18912.304,0.00731,-0.06994,-0.0573
36.1409,18912.324,-0.05867,-0.10721,-0.05486
36.1596,18912.344,-0.09043,-0.13042,-0.07502
36.1837,18912.364,-0.06478,-0.12614,-0.09579
36.204,18912.384,-0.0324,0.05895,-0.11533
36.224,18912.404,-0.00063,0.10721,-0.10312
36.2433,18912.424,0.08,0.00336,-0.03042
36.2754,18912.4439,0.08428,-0.1066,0.01478
36.2793,18912.4639,0.04029,-0.09743,-0.00293
36.2986,18912.4839,0.01097,0.00947,-0.0457
36.3191,18912.5039,-0.02812,0.0956,-0.04142
36.3389,18912.5239,-0.03668,0.03207,-0.03042
36.3594,18912.5439,-0.01346,-0.03757,-0.01515
36.3839,18912.5639,0.01219,-0.06872,-0.10312
36.4031,18912.5839,0.03785,-0.02352,-0.15443
36.4184,18912.6039,0.0348,0.09499,-0.07318
36.4401,18912.6239,0.03235,0.09255,0.0386
36.4593,18912.6439,0.13803,0.01435,0.09053
36.4791,18912.6639,0.21622,-0.04001,0.07281
36.5012,18912.6839,0.14719,-0.11759,0.01356
36.5197,18912.7039,0.10138,-0.07056,-0.0011
36.5396,18912.7239,0.07572,0.08338,0.02578
36.5617,18912.7439,-0.01774,0.0785,0.04716
36.5834,18912.7639,0.00486,-0.02841,0.0441
36.6014,18912.7839,0.07756,-0.05651,0.03983
36.6268,18912.8039,-0.01163,0.00947,0.05265
36.6477,18912.8239,-0.05195,0.09132,0.05571
36.6604,18912.8438,-0.0379,0.07483,0.08503
36.6807,18912.8638,0.02502,-0.01619,0.10885
36.7009,18912.8838,0.06656,-0.04001,0.05143
36.7189,18912.9038,0.05373,0.00214,0.00012
36.7447,18912.9238,-0.02079,0.04856,0.00378
36.7651,18912.9438,-0.03545,0.08583,0.00378
36.7815,18912.9639,0.02258,0.062,-0.02126
36.8072,18912.9839,0.03907,-0.00397,-0.01454
36.8301,18913.0039,-0.00247,-0.02963,-0.00965
36.8405,18913.0239,-0.04828,0.00764,-0.00538
36.8624,18913.044,-0.02446,0.03451,-0.00721
36.886,18913.064,0.02502,-0.01191,-0.01332
36.9069,18913.084,-0.02873,-0.02718,-0.00416
36.9217,18913.1041,-0.11609,-0.04551,-0.03348
36.9407,18913.1241,-0.10326,0.00764,-0.08174
36.9588,18913.1441,-0.03912,0.04978,-0.06952
36.9818,18913.1641,-0.01957,0.03329,0.00256
37.0033,18913.1842,-0.06905,-0.01985,0.01906
37.0249,18913.2042,-0.1167,-0.10782,-0.00232
37.0425,18913.2242,-0.12647,-0.19945,-0.04631
37.0608,18913.2443,-0.1057,-0.12126,-0.08051
37.0807,18913.2643,-0.04034,-0.00031,-0.09823
37.103,18913.2843,0.01097,0.12981,-0.05241
37.1228,18913.3043,0.08489,0.07483,0.02394
37.145,18913.3244,0.0971,-0.1463,0.0722
37.1734,18913.3444,0.06656,-0.24221,0.04777
37.19,18913.3644,0.04579,-0.15058,-0.03226
37.2012,18913.3844,0.11665,-0.04307,-0.04386
37.2239,18913.4045,0.1252,0.05406,-0.00049
37.2428,18913.4245,0.03052,0.00153,0.01661
37.2591,18913.4445,0.01158,-0.15058,-0.04203
37.2801,18913.4646,0.07939,-0.12981,-0.05241
37.3009,18913.4846,0.06045,0.00214,-0.02187
37.3258,18913.5046,-0.04034,0.06933,0.00745
37.358,18913.5246,0.00853,-0.00825,-0.01454
37.362,18913.5447,0.05129,-0.05712,-0.02187
37.3802,18913.5647,0.02624,-0.05101,-0.00538
37.4073,18913.5847,0.00181,-0.05651,-0.0066
37.4314,18913.6047,-0.00674,-0.02596,0.01295
37.4434,18913.6247,0.07633,-0.00458,0.00928
37.4621,18913.6447,0.06228,0.05162,-0.00416
37.4836,18913.6646,-2e-05,0.07666,-0.0347
37.5015,18913.6846,-0.03606,0.06445,-0.0292
37.5223,18913.7046,-0.0269,0.04673,-0.01454
37.5412,18913.7246,0.00364,0.08399,-0.00049
37.56,18913.7446,0.03357,0.12187,0.02639
37.583,18913.7646,0.04518,0.14508,0.05021
37.607,18913.7846,0.01647,0.13958,0.06915
37.6263,18913.8046,0.01158,0.0565,0.07953
37.6498,18913.8246,-0.00919,-0.05345,0.05143
37.6657,18913.8446,-0.02507,0.0284,0.03738
37.6894,18913.8646,-0.00491,0.11393,0.03433
37.7016,18913.8846,0.01036,0.13408,0.0105
37.7196,18913.9046,0.00181,0.17562,-0.00293
37.7386,18913.9246,-0.05928,0.19089,0.00623
37.776,18913.9446,-0.09226,0.12553,0.03188
37.788,18913.9646,-0.09532,-0.09255,0.06121
37.8003,18913.9846,-0.16435,-0.08461,0.04044
37.8255,18914.0046,-0.08738,0.01863,0.0777
37.8413,18914.0246,0.04457,0.02718,0.10641
37.8601,18914.0446,0.0012,-0.05162,0.12535
37.8815,18914.0646,-0.01591,-0.02841,0.11313
37.9008,18914.0845,0.02685,-0.03879,0.0832
37.9298,18914.1045,-0.04462,-0.03451,0.06609
37.9586,18914.1245,-0.06783,0.07117,0.04899
37.9657,18914.1445,0.01403,0.06139,0.04777
37.9815,18914.1645,0.069,0.01741,0.08075
38.0023,18914.1845,0.09588,-0.00703,0.11313
38.0206,18914.2045,0.05129,-0.05589,0.1284
38.0484,18914.2245,0.03785,-0.02841,0.10091
38.0622,18914.2445,0.01891,0.00825,0.03799
38.0815,18914.2645,0.00914,0.07483,0.00745
38.1015,18914.2845,0.00731,0.00336,-0.0011
38.1211,18914.3045,-0.0269,-0.00275,0.0044
38.1398,18914.3245,0.04457,-0.03085,0.02211
38.1596,18914.3445,0.05801,-0.03085,0.03555
38.1845,18914.3645,0.05434,-0.01436,0.04227
38.2111,18914.3845,0.0971,-0.00214,0.00867
38.226,18914.4045,0.1081,0.02963,-0.0066
38.2495,18914.4245,0.07023,0.00764,0.01539
38.2772,18914.4445,0.06778,-0.04246,0.00562
38.2788,18914.4645,0.02258,0.01008,0.00806
38.3003,18914.4845,0.03663,-0.00458,-0.00171
38.3181,18914.5044,0.04946,-0.02657,-0.0237
38.3398,18914.5244,0.05862,-0.07178,-0.03042
38.3606,18914.5444,0.0183,-0.02963,-0.0573
38.3789,18914.5644,0.03541,0.00397,-0.04386
38.3986,18914.5844,0.04396,0.04307,-0.04325
38.4236,18914.6044,0.07695,-0.04612,-0.03348
38.4459,18914.6244,0.07572,-0.06078,-0.04081
38.4645,18914.6444,0.03174,-0.0449,-0.04875
38.4832,18914.6644,-0.05134,0.0113,-0.01637
38.5031,18914.6844,-0.02812,-0.01191,-0.01454
38.5187,18914.7044,-0.01041,-0.02108,-0.00904
38.542,18914.7244,-0.00491,-0.05467,0.00745
38.5647,18914.7444,-0.00919,-0.01741,0.00806
38.5816,18914.7644,0.05007,-0.02841,-0.00782
38.6028,18914.7844,0.06412,-0.01802,-0.01882
38.6221,18914.8044,0.03907,0.03635,-0.01271
38.6415,18914.8244,0.0409,0.00153,0.027
38.6632,18914.8444,0.01158,-0.01924,0.04227
38.6816,18914.8644,0.04335,-0.03818,0.04166
38.7018,18914.8844,0.04823,-0.02046,0.01661
38.7331,18914.9043,-0.03912,0.01863,0.00195
38.7455,18914.9243,-0.01041,0.02352,-0.02737
38.7671,18914.9443,0.02685,-0.05101,-0.0176
38.786,18914.9643,0.08366,-0.00214,-0.02248
38.8026,18914.9843,0.0409,-0.0785,-0.00965
38.8191,18915.0043,-0.03179,0.01558,0.02761
38.8445,18915.0243,-0.01652,0.01374,-0.00416
38.8612,18915.0443,-0.01835,0.05284,-0.00782
38.8803,18915.0643,0.03357,0.02046,0.01906
38.9053,18915.0843,0.06167,-0.03329,-0.0237
38.9273,18915.1043,0.02624,-0.02169,-0.00782
38.9439,18915.1243,0.03663,-0.01069,-0.01149
38.9699,18915.1443,-0.03423,0.01558,-0.01149
38.9856,18915.1643,-0.02873,0.05528,0.00378
38.9995,18915.1843,0.06595,0.0003,-0.01515
39.0221,18915.2043,0.06839,-0.04673,-0.05241
39.0469,18915.2243,-0.01713,-0.06384,-0.05608
39.0617,18915.2443,-0.04034,-0.02291,-0.03898
39.0834,18915.2643,-2e-05,0.02718,-0.02309
39.1063,18915.2843,0.04579,0.02107,-0.02248
39.12,18915.3042,0.07145,-0.0223,0.01356
39.1418,18915.3242,0.0409,-0.07422,0.03005
39.1692,18915.3442,0.00608,-0.01313,0.01539
39.1918,18915.3642,0.04885,0.05956,0.00012
39.2029,18915.3842,0.04152,0.04307,0.01295
39.2258,18915.4042,0.01647,-0.03574,0.01112
39.2415,18915.4242,0.01342,-0.06628,-0.00171
39.2658,18915.4442,-0.00552,-0.05528,-0.03348
39.28,18915.4642,-0.01652,-0.01985,-0.04814
39.2994,18915.4842,0.00181,0.02474,-0.04814
39.3206,18915.5042,0.01219,0.06994,-0.03775
39.3393,18915.5242,0.02624,0.03879,-0.00416
39.3606,18915.5442,0.05556,-0.02963,0.01295
39.3836,18915.5642,0.05923,-0.0675,-0.00232
39.4008,18915.5842,0.02502,-0.02169,-0.00782
39.4235,18915.6042,-0.02263,0.05773,0.03066
39.4449,18915.6242,-0.05683,0.04001,0.02028
39.4609,18915.6442,-0.00186,-0.04001,0.00623
39.4869,18915.6642,0.0519,-0.09377,0.00073
39.506,18915.6842,0.05007,-0.073,-0.00355
39.5239,18915.7042,-0.02996,0.07239,-0.01149
39.5417,18915.7242,-0.066,0.05345,-0.01088
39.5625,18915.7441,0.02013,-0.02535,-0.01454
39.5859,18915.7641,0.06351,-0.09499,-0.00965
39.6089,18915.7841,0.03602,-0.06872,0.00684
39.6271,18915.8041,0.01464,-0.03757,-0.00538
39.6396,18915.8241,-0.04095,0.06322,-0.03103
39.6633,18915.8441,-0.04767,0.09438,-0.02737
39.6806,18915.8641,-0.0043,-0.00641,-0.00599
39.7004,18915.8841,0.03052,-0.1011,0.00623
39.7202,18915.9041,0.06656,-0.11026,0.01722
39.7427,18915.9241,0.0183,-0.08338,-0.01393
39.7632,18915.9441,-0.10021,0.0223,-0.02676
39.7808,18915.9641,-0.08493,0.04551,-0.03592
39.8016,18915.9841,0.00059,0.04429,0.0215
39.8207,18916.0041,0.10321,0.01497,0.03372
39.8416,18916.0241,0.10627,-0.05895,0.04349
39.8659,18916.0441,-0.00674,-0.05589,0.02761
39.8799,18916.0641,-0.08005,0.0449,-0.01088
39.8989,18916.0841,-0.00613,0.08705,-0.01698
39.9211,18916.1041,0.091,-0.00519,0.01173
39.939,18916.124,0.10504,-0.09071,0.01234
39.9589,18916.144,0.01525,-0.05956,0.00806
39.9812,18916.164,-0.05256,0.01191,-0.03042
40.008,18916.184,-0.09532,0.03574,-0.0402
40.0244,18916.204,-0.0434,-0.0168,-0.00477
40.0486,18916.224,0.02441,-0.10721,0.02089
40.0599,18916.244,0.02991,-0.08583,0.0105
40.0802,18916.264,-0.00674,-0.00764,-0.03103
40.109,18916.284,-0.07272,0.09316,0.01722
40.1263,18916.304,-0.03179,0.0449,0.05693
40.1472,18916.324,0.07328,-0.03879,0.06243
40.1748,18916.344,0.11238,-0.09132,0.01112
40.2129,18916.364,0.01342,-0.01985,-0.05486
40.2173,18916.384,-0.07638,0.03329,-0.0402
40.2612,18916.404,-0.02996,0.00764,-0.02493
40.2642,18916.4241,0.06656,-0.03757,-0.01332
40.2656,18916.4441,0.11176,-0.09927,-0.02737
40.2845,18916.4641,0.10504,0.00764,-0.03959
40.299,18916.4842,-0.01652,0.03818,-0.02859
40.3192,18916.5042,-0.08738,0.06567,-0.00232
40.344,18916.5242,-0.0098,0.02474,0.01295
40.3618,18916.5442,0.09038,-0.03268,0.0215
40.386,18916.5643,0.08489,-0.04673,0.04166
40.4051,18916.5843,-0.00186,-0.05223,0.0215
40.4208,18916.6043,-0.07455,0.05101,-0.00355
40.4406,18916.6244,-0.04889,0.06872,-0.01271
40.4624,18916.6444,0.05434,0.00886,0.00012
40.4819,18916.6644,0.08672,-0.02779,0.01845
40.5024,18916.6844,0.06534,-0.01252,0.01906
40.5237,18916.7045,0.01769,-0.00397,0.0105
40.5458,18916.7245,-0.01346,0.0339,0.00378
40.5704,18916.7445,-0.01713,0.02902,-0.0121
40.5863,18916.7646,0.03052,0.02596,-0.01943
40.6031,18916.7846,0.03602,0.00275,-0.02065
40.6212,18916.8046,-0.01346,-0.01008,-0.0176
40.6428,18916.8246,-0.07333,0.05101,-0.00477
40.6659,18916.8447,-0.06722,-0.00275,-0.00355
40.6851,18916.8648,-0.00858,-0.06017,-0.00477
40.7066,18916.8848,-0.00125,-0.05528,0.00684
40.723,18916.9049,0.01097,0.01741,0.01173
40.747,18916.925,0.01647,0.05162,0.027
40.7631,18916.945,0.02563,0.03696,0.04838
40.7813,18916.9651,0.00608,-0.01802,0.04044
40.8034,18916.9851,-0.02018,-0.02596,0.03433
40.8237,18917.0051,0.03052,0.03024,0.00806
40.8416,18917.0252,0.05373,0.07788,-0.01271
40.8634,18917.0452,0.02075,0.0449,0.00256
40.8865,18917.0652,-0.01591,-0.00947,0.03005
40.9104,18917.0852,0.02808,-0.02596,0.00562
40.9296,18917.1053,0.04213,-0.01313,-0.0121
40.944,18917.1253,-0.00797,0.02718,-0.00843
40.962,18917.1453,-0.01102,-0.00764,-0.0237
40.9827,18917.1654,-0.05256,0.00886,-0.01393
41.0064,18917.1854,-0.03668,0.01069,0.00073
41.0251,18917.2054,0.03052,-0.01985,0.00134
41.0462,18917.2254,0.05495,-0.01985,0.00256
41.0718,18917.2455,0.05923,0.06994,-0.00293
41.0883,18917.2655,-0.00797,0.03512,-0.02309
41.1094,18917.2855,-0.06844,0.02474,-0.01454
41.1232,18917.3056,-0.01346,-0.00703,-0.02126
41.1418,18917.3256,0.02502,-0.03268,-0.02493
41.1622,18917.3456,-0.00063,0.00092,-0.02187
41.1849,18917.3656,-0.01652,0.04245,-0.01332
41.2204,18917.3857,-0.02873,0.0449,0.00623
41.2261,18917.4057,-0.00125,0.06261,-0.00538
41.2405,18917.4257,0.03357,0.08338,-0.00477
41.2605,18917.4457,0.06412,0.04368,0.01417
41.2806,18917.4657,0.04029,-0.01375,0.04716
41.3037,18917.4857,0.00731,-0.04795,0.03922
41.3225,18917.5057,-0.01224,-0.00825,0.01417
41.3404,18917.5257,-0.01713,0.02902,-0.01393
41.3626,18917.5457,0.01097,0.01435,-0.02554
41.3821,18917.5657,0.02685,-0.0058,-0.01026
41.4024,18917.5857,0.03235,-0.05284,-0.00843
41.4229,18917.6057,0.04946,-0.04551,-0.02126
41.4449,18917.6257,0.0012,-0.03574,-0.0457
41.4639,18917.6457,-0.09959,0.03879,-0.04386
41.484,18917.6657,-0.07821,0.05528,-0.05852
41.5029,18917.6857,-0.01835,0.00641,-0.03959
41.5309,18917.7057,0.03296,-0.02596,-0.02248
41.5506,18917.7257,0.05434,-0.01985,-0.00049
41.57,18917.7456,0.0293,-0.00519,-0.0347
41.5836,18917.7656,-0.08432,0.03574,-0.06646
41.6025,18917.7856,-0.08493,0.02657,-0.07196
41.6212,18917.8056,0.03785,-0.06323,-0.0402
41.6412,18917.8256,0.01403,-0.1347,-0.00049
41.6649,18917.8456,-0.10204,-0.14875,0.04838
41.683,18917.8656,-0.1503,-0.10293,0.00806
41.704,18917.8856,-0.20772,-0.04551,-0.06402
41.7266,18917.9056,-0.21688,0.05528,-0.11289
41.7423,18917.9256,-0.26392,0.1011,-0.13366
41.7618,18917.9456,-0.37387,0.01069,-0.14893
41.7824,18917.9656,-0.39525,-0.04246,-0.16848
41.8046,18917.9856,-0.27552,-0.03696,-0.16359
41.8248,18918.0056,-0.14846,-0.09071,-0.13977
41.8527,18918.0256,-0.11914,-0.17074,-0.08235
41.8625,18918.0456,-0.11975,-0.22266,-0.00477
41.8817,18918.0656,-0.04462,-0.20006,-0.00599
41.9055,18918.0856,-0.07883,-0.08094,-0.0402
41.9305,18918.1056,-0.03668,0.11026,-0.06158
41.9414,18918.1256,-0.01468,0.05834,-0.05425
41.9632,18918.1456,0.00914,-0.0956,-0.03836
41.9812,18918.1655,-0.00247,-0.07117,-0.04692
42.0049,18918.1855,-0.02385,0.03451,-0.07502
42.0225,18918.2055,-0.02263,0.04001,-0.06341
42.0413,18918.2255,0.01464,-0.01436,0.00256
42.0656,18918.2455,0.05007,-0.06689,0.05571
42.0957,18918.2655,0.04029,-0.06872,0.04655
42.1188,18918.2855,0.03907,-0.00641,0.0215
42.1255,18918.3055,0.05984,0.00764,0.02944
42.1452,18918.3255,0.09283,0.03757,0.07098
42.1725,18918.3455,0.07878,0.02352,0.08992
42.1917,18918.3655,0.03602,0.0223,0.05571
42.2063,18918.3855,-0.00247,0.00702,0.02394
42.238,18918.4055,0.00731,-0.00092,-0.00049
42.246,18918.4255,0.03052,0.0394,0.01234
42.2625,18918.4455,0.0409,0.07911,0.03677
42.2839,18918.4655,0.06961,0.07178,0.0386
42.3,18918.4855,0.05923,0.0168,0.03677
42.322,18918.5055,0.0629,0.04123,0.05632
42.3399,18918.5255,0.01952,0.062,0.04349
42.3595,18918.5455,-0.0605,0.18601,0.07465
42.3908,18918.5655,-0.04462,0.08094,0.0777
42.4015,18918.5854,0.00242,-0.04246,0.0667
42.4226,18918.6054,0.05129,-0.05651,0.05998
42.4423,18918.6254,-0.05867,0.04673,0.03066
42.4622,18918.6454,-0.08432,0.09071,0.04166
42.4806,18918.6654,0.01525,0.07483,0.05082
42.5016,18918.6854,0.09222,-0.0675,0.0667
42.5267,18918.7054,0.05862,-0.13225,0.02517
42.5444,18918.7254,0.01769,-0.05467,-0.03409
42.5681,18918.7454,-0.01285,0.03329,-0.0909
42.5857,18918.7654,-0.09532,0.09743,-0.06769
42.6055,18918.7854,-0.04523,0.01802,-0.04692
42.6274,18918.8054,0.03968,-0.0449,-0.06219
42.6498,18918.8254,0.05923,-0.02535,-0.06708
42.6636,18918.8454,-0.02263,0.01008,-0.05669
42.682,18918.8654,-0.07577,0.0394,-0.01821
42.7043,18918.8854,-0.02935,0.04612,0.00745
42.7207,18918.9054,0.05923,-0.00214,0.01478
42.7419,18918.9254,0.07328,-0.05589,0.01112
42.7604,18918.9454,0.00547,-0.04062,-0.01393
42.7864,18918.9654,-0.05317,0.05406,-0.00721
42.8042,18918.9853,-0.0715,0.00825,-0.01393
42.8224,18919.0053,0.00547,-0.03146,-0.01026
42.8505,18919.0253,0.04885,-0.05162,-0.02554
42.8635,18919.0453,0.01647,-0.0223,-0.03287
42.883,18919.0653,-0.03729,0.00947,-0.05425
42.9042,18919.0853,-0.0495,0.07911,-0.04081
42.9282,18919.1053,0.00303,0.04734,-0.0292
42.9446,18919.1253,0.07572,-0.00336,-0.02676
42.9607,18919.1453,0.06351,-0.0168,-0.01271
42.9826,18919.1653,-0.00369,-0.03268,-0.02309
43.0026,18919.1853,-0.04462,0.01924,-0.01943
43.0212,18919.2053,-0.00369,0.09255,-0.01454
43.0436,18919.2253,0.05923,0.07117,0.01417
43.0615,18919.2453,0.08794,-0.02902,0.01845
43.0858,18919.2653,0.03968,-0.08522,0.03616
43.1065,18919.2853,-0.00491,-0.04001,0.02578
43.1242,18919.3053,-0.02201,0.00641,-0.01088
43.1439,18919.3253,-0.00919,0.0785,-0.02431
43.1736,18919.3453,0.03418,0.01008,0.01906
43.2114,18919.3653,0.08305,-0.06994,0.02455
43.2137,18919.3853,0.05373,-0.05956,0.00562
43.223,18919.4052,-0.00674,0.04062,0.00012
43.2437,18919.4252,-0.0379,0.05467,-0.01026
43.26,18919.4452,0.01891,0.00275,-0.00416
43.285,18919.4652,0.10138,0.00336,0.016
43.3037,18919.4852,0.06839,-0.02841,0.01417
43.322,18919.5052,-0.01346,-0.0168,-0.00416
43.3451,18919.5252,-0.04278,0.02657,-0.00599
43.3626,18919.5452,-0.03851,0.0223,0.00501
43.3825,18919.5652,-0.00063,-0.02902,0.00562
43.4061,18919.5852,0.03846,-0.02108,0.02517
43.4288,18919.6052,0.05618,-0.01252,0.0325
43.4493,18919.6252,0.00486,-0.0168,0.0386
43.4674,18919.6452,-0.06111,0.0113,0.0215
43.4818,18919.6652,-0.06722,0.02046,0.03066
43.5016,18919.6852,0.0238,-0.02413,0.00623
43.5233,18919.7052,0.05556,-0.01924,0.00501
43.5525,18919.7252,0.0012,0.01069,0.01112
43.5676,18919.7452,-0.01713,0.05406,0.00867
43.587,18919.7652,0.03296,-0.01802,0.00867
43.6042,18919.7852,-0.02751,-0.08094,-0.01882
43.6205,18919.8051,-0.07027,0.03574,-0.04997
43.6421,18919.8251,-0.04401,0.07788,-0.04386
43.6639,18919.8451,0.0745,0.03024,0.01173
43.6896,18919.8651,0.14964,-0.01558,0.04105
43.7147,18919.8851,0.09038,0.00947,0.03372
43.7226,18919.9051,-0.04828,-0.00336,-0.00538
43.7424,18919.9251,-0.03545,0.01313,0.00623
43.7621,18919.9451,0.05679,0.0339,0.01417
43.7863,18919.9651,0.06106,-0.00397,0.01356
43.8085,18919.9851,0.02624,0.00764,0.02639
43.8268,18920.0052,-0.02568,-0.00458,0.02394
43.8416,18920.0252,-0.01591,0.00153,0.01967
43.8618,18920.0452,0.01036,-0.01436,0.02089
43.8832,18920.0653,-0.05928,0.04673,0.00623
43.9021,18920.0853,-0.06233,0.05345,0.02211
43.9209,18920.1053,-0.00186,-0.01924,0.0386
43.952,18920.1253,0.05618,-0.03696,0.04471
43.9679,18920.1454,0.08672,-0.02169,0.00867
43.9954,18920.1654,0.07695,0.02107,-0.03103
44.0053,18920.1854,0.02136,0.08644,-0.03287
44.024,18920.2055,-0.05195,0.06689,-0.04081
44.0408,18920.2255,-0.04462,0.01619,-0.01393
44.0655,18920.2455,0.0293,-0.02718,-0.00538
44.0819,18920.2655,0.07206,-0.03329,0.01112
44.1027,18920.2856,0.07206,-0.02963,0.01112
44.1227,18920.3056,-0.05989,0.02535,0.02333
44.144,18920.3256,-0.07088,0.01313,0.04655
44.1632,18920.3456,-0.01102,-0.00458,0.03616
44.1879,18920.3657,0.06961,-0.02657,0.01417
44.2056,18920.3857,-0.03057,0.04917,-0.00171
44.2419,18920.4057,-0.16007,0.07422,-0.02798
44.2453,18920.4258,-0.14174,0.00153,-0.03348
44.2751,18920.4458,-0.00919,-0.03329,-0.02981
44.2868,18920.4658,0.09527,-0.04184,-0.04875
44.3014,18920.4858,0.05862,0.02046,-0.02431
44.3217,18920.5059,-0.05073,0.0223,-0.00171
44.3426,18920.5259,-0.04156,0.02596,-0.0066
44.3623,18920.5459,0.03785,0.00947,0.016
44.3809,18920.566,0.069,-0.03024,0.01783
44.4022,18920.586,0.01708,0.00458,0.01906
44.4237,18920.606,-0.03545,0.02963,0.03799
44.4446,18920.6259,-0.06478,0.00214,0.04227
44.4698,18920.6459,-2e-05,0.01008,0.03922
44.487,18920.6659,0.02258,0.00214,0.02883
44.5046,18920.6859,0.03418,0.0113,0.01539
44.5242,18920.7059,-2e-05,0.00275,0.00684
44.5441,18920.7259,-0.01346,0.00825,-0.00843
44.5622,18920.7459,-0.02385,-0.0223,-0.02981
44.5856,18920.7659,-0.06172,0.02107,-0.01271
44.6059,18920.7859,-0.01163,-0.00031,-0.01882
44.6254,18920.8059,0.06106,0.02474,-0.00171
44.6452,18920.8259,0.07695,0.01313,0.01783
44.6671,18920.8459,-0.01163,-0.01252,0.02028
44.6854,18920.8659,-0.09654,-0.01558,0.01906
44.7057,18920.8859,-0.05928,0.02046,0.03555
44.7302,18920.9059,0.04457,0.04001,0.04716
44.7498,18920.9259,0.08305,-0.00275,0.03066
44.7624,18920.9459,0.07084,0.01008,0.0215
44.7835,18920.9659,-0.00186,0.00092,0.03372
44.8067,18920.9859,-0.03179,-0.00825,0.01478
44.8346,18921.0059,-0.0269,0.02596,-0.00599
44.8442,18921.0259,-0.00491,0.0058,-0.00416
44.8623,18921.0458,0.01158,0.01985,0.0044
44.8818,18921.0658,0.03357,0.00886,0.00867
44.9039,18921.0858,-0.02812,0.00519,-0.0237
44.9228,18921.1058,-0.07088,0.01802,-0.01515
44.9454,18921.1258,-0.08616,0.02291,-0.02431
44.9667,18921.1458,-0.03362,0.03635,0.0044
44.9922,18921.1658,0.07328,0.02657,0.02089
45.0048,18921.1858,0.11665,0.00153,0.04716
45.0232,18921.2058,0.07878,-0.04184,0.07342
45.0426,18921.2258,-0.0379,-0.05162,0.05143
45.0655,18921.2458,-0.11059,0.06445,0.05082
45.0921,18921.2658,-0.08982,0.07178,0.03738
45.1081,18921.2858,0.0238,-0.00703,0.01295
45.1227,18921.3058,0.11543,-0.03696,0.00806
45.1446,18921.3258,-0.01224,-0.01375,-0.00477
45.1635,18921.3458,-0.11853,0.03574,0.01173
45.1829,18921.3658,-0.07088,-0.00153,-0.0121
45.2035,18921.3858,0.01891,-0.06933,-0.0066
45.2212,18921.4058,0.0745,-0.0504,-0.00293
45.2428,18921.4258,0.01525,-0.02779,-0.01026
45.2648,18921.4457,-0.0715,-0.01252,-0.02554
45.285,18921.4657,-0.11914,0.01069,-0.05119
45.3021,18921.4857,-0.06478,0.03635,-0.02676
45.3251,18921.5057,0.05251,0.00947,0.02394
45.3512,18921.5257,0.05434,-0.05284,0.04899
45.3661,18921.5457,-0.05745,-0.03574,0.04593
45.3946,18921.5657,-0.04278,-0.02596,0.06121
45.4114,18921.5857,0.08244,-0.01313,0.06487
45.4233,18921.6057,0.16491,-0.00275,0.0496
45.4429,18921.6257,0.09894,0.01252,-0.00904
45.4618,18921.6457,0.03663,0.04368,-0.03042
45.4815,18921.6657,-2e-05,0.08277,-0.08418
45.5096,18921.6857,0.01342,0.08827,-0.11656
45.5239,18921.7057,-0.01224,0.04245,-0.10739
45.5434,18921.7257,-0.01468,0.02169,-0.05241
45.5636,18921.7457,-0.02996,0.01497,-0.03287
45.5832,18921.7657,-0.02385,0.04001,0.00928
45.6057,18921.7857,0.01036,-0.00764,0.06243
45.6238,18921.8057,0.05862,-0.07483,0.11008
45.6421,18921.8257,0.08244,-0.06628,0.08747
45.662,18921.8456,0.01097,-0.00703,0.0722
45.687,18921.8656,-0.05867,0.03696,0.0386
45.7045,18921.8856,-0.05622,-0.03268,0.02089
45.7255,18921.9056,-0.03606,-0.0339,0.00195
45.7426,18921.9256,-0.00552,0.00092,-0.03287
45.7638,18921.9456,-0.00491,-0.00703,-0.04508
45.7829,18921.9656,-0.03851,0.00702,-0.02859
45.803,18921.9856,-0.0715,-0.03024,-0.03592
45.8209,18922.0056,-0.08982,0.06261,-0.0237
45.8425,18922.0256,-0.02324,0.0339,-0.00232
45.8679,18922.0456,0.01891,0.02413,0.00012
45.8882,18922.0656,0.05495,-0.00458,0.03372
45.9019,18922.0856,0.03235,0.0113,0.04899
45.9266,18922.1056,0.0519,0.01985,0.06915
45.9445,18922.1256,0.03418,0.07605,0.04777
45.9623,18922.1456,0.01891,0.08522,0.07159
45.986,18922.1656,0.05251,0.04429,0.06609
46.006,18922.1856,0.05801,-0.02291,0.06487
46.0245,18922.2056,0.06717,-0.01863,0.04593
46.0522,18922.2256,0.04213,-0.04001,0.02394
46.0623,18922.2456,0.00303,-0.02046,0.02578
46.0842,18922.2655,-0.06172,0.01374,0.04899
46.1036,18922.2855,-0.05378,-0.00153,0.03677
46.1339,18922.3055,-0.01774,0.00153,0.02211
46.1438,18922.3255,0.06228,-0.01802,0.00989
46.1615,18922.3455,0.07023,0.01497,0.01722
46.1975,18922.3656,0.03113,-0.03574,0.00806
46.2068,18922.3856,-0.00369,-0.00031,-0.00721
46.2594,18922.4056,0.00364,-0.0113,-0.0121
46.2621,18922.4256,0.02441,-0.02046,-0.01821
46.2635,18922.4457,0.05251,-0.02352,-0.0066
46.2835,18922.4657,0.07023,-0.03574,0.00134
46.3018,18922.4857,0.09344,-0.06872,0.02272
46.3207,18922.5058,0.02747,-0.10354,0.03005
46.3453,18922.5258,-0.00125,-0.02902,-0.02554
46.3615,18922.5458,-0.01835,-0.04123,-0.0402
46.3806,18922.5658,0.00181,-0.02902,-0.03653
46.4036,18922.5859,0.04885,0.01252,-0.04753
46.4222,18922.6059,0.01158,0.04429,-0.08723
46.442,18922.6259,-0.04278,0.00397,-0.10189
46.4625,18922.646,-0.05806,-0.04184,-0.06952
46.4838,18922.666,-0.04645,-0.05528,-0.02126
46.4999,18922.686,0.00792,-0.00397,-0.02554
46.5239,18922.706,0.02869,0.00641,-0.00965
46.5469,18922.7261,0.01219,-0.00764,-0.00538
46.5665,18922.7461,0.03174,-0.05467,0.01539
46.5861,18922.7661,-0.01835,0.0113,-0.00538
46.6074,18922.7862,-0.05317,0.01619,-0.00538
46.6229,18922.8062,-0.03973,-0.01497,0.04899
46.6438,18922.8262,-0.0043,-0.15302,0.09603
46.6646,18922.8462,-0.04278,-0.38576,0.15956
46.6833,18922.8663,-0.02935,-0.40348,0.20965
46.703,18922.8863,0.0519,-0.14019,0.18338
46.7227,18922.9063,0.08489,-0.00703,0.15284
46.7424,18922.9264,0.03174,-0.08155,0.11008
46.7671,18922.9464,0.04029,-0.19456,0.06365
46.7854,18922.9664,0.09588,-0.18051,-0.01332
46.8157,18922.9864,0.01525,-0.09866,-0.12266
46.842,18923.0064,-0.05989,-0.01985,-0.18314
46.8461,18923.0264,-0.04278,-0.04062,-0.24484
46.8609,18923.0464,-0.03973,-0.05895,-0.254
46.8832,18923.0664,-0.04034,-0.08583,-0.22529
46.9059,18923.0863,-0.055,-0.04673,-0.21002
46.9331,18923.1063,-0.05806,0.00702,-0.17398
46.9452,18923.1263,-0.01163,-0.05284,-0.17276
46.962,18923.1463,-0.0043,-0.04246,-0.13366
46.9822,18923.1663,-0.0495,-0.01375,-0.07441
47.0029,18923.1863,-0.0379,0.00458,-0.05364
47.0232,18923.2063,0.04701,0.01191,-0.03836
47.0456,18923.2263,0.0971,-0.00641,-0.03348
47.0715,18923.2463,0.01952,0.05773,-0.01088
47.0872,18923.2663,-0.04889,0.02718,-0.01576
47.1085,18923.2863,-0.0495,0.02902,-0.0011
47.1243,18923.3063,0.03602,-0.02046,0.01173
47.143,18923.3263,0.04029,-0.01741,0.00684
47.1599,18923.3463,0.02563,-0.01375,0.00745
47.1816,18923.3663,-0.01896,0.00153,-0.02004
47.2026,18923.3863,-0.02812,0.00519,-0.02248
47.2264,18923.4063,-0.01285,-0.00947,-0.05547
47.2421,18923.4263,-0.01224,-0.02779,-0.03409
47.2607,18923.4463,0.02136,-0.02413,-0.04386
47.2805,18923.4663,-0.00308,-0.05834,-0.06036
47.3026,18923.4862,-0.0214,-0.06017,-0.04692
47.3309,18923.5062,-0.02873,-0.02718,-0.02554
47.3461,18923.5262,-0.03362,-0.02657,0.0105
47.3644,18923.5462,0.02075,-0.07239,0.02333
47.3815,18923.5662,0.07756,-0.07728,-0.02737
47.4023,18923.5862,0.06717,-0.08583,-0.0292
47.4234,18923.6062,0.00975,-0.0901,-0.02187
47.442,18923.6262,-0.06111,-0.05773,0.00623
47.466,18923.6462,-0.05867,-0.08522,0.01478
47.4885,18923.6662,-0.07088,-0.16524,0.01478
47.5117,18923.6862,-0.08005,-0.1909,0.01173
47.5295,18923.7062,-0.0043,-0.10293,0.01661
47.5483,18923.7262,-0.01468,-0.0394,0.06365
47.564,18923.7462,-0.05256,-0.04429,0.10824
47.583,18923.7662,0.0067,-0.07666,0.12962
47.6059,18923.7862,0.09038,-0.16646,0.07465
47.6217,18923.8062,0.04885,-0.12859,0.05876
47.6485,18923.8262,0.01464,0.01191,0.03616
47.6648,18923.8462,-0.01713,0.05773,0.00928
47.6913,18923.8662,-0.1167,-0.07239,0.0606
47.7025,18923.8861,-0.08738,-0.11148,0.08259
47.7268,18923.9061,-0.05378,-0.11759,0.10152
47.7425,18923.9261,-0.10143,-0.14325,0.11252
47.7612,18923.9461,-0.03362,-0.10049,0.12229
47.783,18923.9661,0.06412,-0.02474,0.1113
47.8152,18923.9861,0.09527,0.00275,0.08503
47.826,18924.0061,0.07633,0.04184,0.05632
47.8468,18924.0261,0.0574,0.04368,0.05327
47.8674,18924.0461,0.10504,0.02963,0.03372
47.8856,18924.0661,0.11054,0.01863,-0.00416
47.9039,18924.0861,0.0519,0.03085,-0.03836
47.9291,18924.1061,-0.03606,0.00153,-0.05975
47.9409,18924.1261,-0.09715,-0.01497,-0.0518
47.9655,18924.1461,-0.08493,-0.04123,-0.07563
47.9812,18924.1661,-0.06294,-0.0058,-0.07257
48.0003,18924.1861,-0.0153,0.04307,-0.05241
48.0229,18924.2061,0.01708,0.04612,-0.01026
48.0414,18924.2261,0.04946,0.00702,0.03983
48.0649,18924.2461,0.03602,-0.03513,0.0722
48.0843,18924.2661,0.00853,-0.01252,0.0551
48.1076,18924.2861,0.0238,0.09865,0.01539
48.1227,18924.3061,0.05434,0.12187,0.00867
48.1491,18924.3261,0.12398,0.04184,-0.00355
48.1679,18924.3461,0.11176,0.0003,-0.03959
48.1954,18924.3661,-0.04523,0.06811,-0.06402
48.2048,18924.3862,-0.12525,0.06139,-0.06158
48.222,18924.4062,-0.06416,0.03879,-0.02615
48.2526,18924.4262,0.03846,-0.04123,0.00501
48.2634,18924.4462,0.0629,-0.1347,-0.00721
48.2822,18924.4663,-0.02751,-0.12859,-0.0457
48.3007,18924.4863,-0.05378,0.02902,-0.08174
48.3256,18924.5063,-0.00552,0.11881,-0.12022
48.3443,18924.5264,0.07084,0.073,-0.16665
48.3689,18924.5464,0.13376,0.06261,-0.20208
48.3867,18924.5664,0.1362,0.11331,-0.20941
48.4039,18924.5864,0.03174,0.062,-0.1752
48.4229,18924.6065,-0.04828,-0.01924,-0.15626
48.4446,18924.6265,-0.05561,-0.00519,-0.12816
48.4614,18924.6465,-0.0776,0.04612,-0.09579
48.4811,18924.6666,-0.15641,0.00641,-0.04447
48.5028,18924.6866,-0.11303,-0.04123,0.00501
48.5216,18924.7066,-0.03423,-0.0785,0.04227
48.5421,18924.7266,-0.05683,-0.07422,0.02822
48.5631,18924.7467,-0.12281,-0.02596,-0.01026
48.5872,18924.7667,-0.13747,-0.02169,-0.08662
48.6087,18924.7867,-0.10937,-0.03879,-0.12511
48.6329,18924.8068,-0.06111,-0.04123,-0.13427
48.6493,18924.8268,-0.03729,-0.04062,-0.1135
48.6662,18924.8468,-0.03179,-0.01497,-0.10617
48.6868,18924.8669,-0.10815,0.03574,-0.11533
48.706,18924.8869,-0.10815,0.03757,-0.12205
48.7258,18924.907,-0.05745,-0.0675,-0.0799
48.7468,18924.927,-0.01591,-0.08522,-0.04753
48.7662,18924.9471,-0.03668,-0.05651,-0.01882
48.7864,18924.9671,-0.07699,-0.04979,-0.00293
48.8096,18924.9871,-0.09715,-0.12737,-0.02493
48.8275,18925.0071,-0.11181,-0.15485,-0.06219
48.8442,18925.0272,-0.18084,-0.05773,-0.13244
48.8655,18925.0472,-0.19794,0.06811,-0.15443
48.8876,18925.0672,-0.15335,0.0675,-0.12083
48.906,18925.0873,-0.03545,-0.04184,-0.08357
48.9301,18925.1073,0.08916,-0.13042,-0.06158
48.9445,18925.1273,0.06534,-0.12859,-0.08174
48.9647,18925.1473,-0.04889,-0.07178,-0.08479
48.9891,18925.1674,-0.11242,-0.05773,-0.10189
49.0135,18925.1874,-0.02568,-0.01924,-0.06646
49.0296,18925.2074,0.08305,-0.03268,-0.02737
49.0464,18925.2275,0.1026,-0.07605,-0.0237
49.0639,18925.2475,0.08611,-0.07972,-0.02065
49.0869,18925.2675,0.05129,-0.03635,-0.02737
49.1099,18925.2875,0.02563,0.04368,-0.04081
49.1285,18925.3076,-0.00552,0.00092,-0.0628
49.1585,18925.3276,0.00181,-0.15302,-0.06036
49.1957,18925.3476,-0.0043,-0.21289,-0.07929
49.1987,18925.3677,-0.04584,-0.17562,-0.13061
49.2083,18925.3877,-0.12342,-0.03329,-0.20085
49.2278,18925.4078,-0.11303,0.00641,-0.18497
49.2429,18925.4278,-0.02263,-0.03268,-0.16787
49.2631,18925.4479,0.02991,-0.11087,-0.13671
49.2856,18925.4679,0.0519,-0.11881,-0.14404
49.3064,18925.488,0.00975,-0.01985,-0.15321
49.3246,18925.508,-0.0831,0.0504,-0.10128
49.3508,18925.528,-0.04217,-0.0113,-0.04875
49.3677,18925.548,0.09833,-0.14997,0.00684
49.386,18925.5681,0.15269,-0.15852,0.03799
49.406,18925.5881,0.07817,-0.05712,0.06182
49.4253,18925.6081,0.03541,0.01863,0.09297
49.445,18925.6282,0.07389,0.0058,0.10397
49.4665,18925.6482,0.15636,-0.07361,0.07281
49.4883,18925.6682,0.15514,-0.08338,0.00806
49.5074,18925.6882,0.04457,-0.00336,-0.05608
49.5372,18925.7083,0.02013,0.073,-0.11717
49.5546,18925.7283,0.02013,0.06261,-0.13488
49.5749,18925.7483,0.01342,0.00458,-0.12877
49.5876,18925.7684,0.0012,0.01435,-0.11594
49.6103,18925.7884,-0.01591,0.04856,-0.10251
49.6264,18925.8084,-0.0605,0.06017,-0.07379
49.646,18925.8284,-0.07638,0.07055,-0.00721
49.6679,18925.8485,-0.04645,0.08583,0.0496
49.6848,18925.8685,-0.04462,0.09682,0.08686
49.7063,18925.8885,-0.03118,0.12431,0.05998
49.7275,18925.9086,-0.05011,0.08399,0.04044
49.7458,18925.9286,-0.08616,0.00397,0.04349
49.7673,18925.9486,-0.14358,-0.03329,0.06121
49.7901,18925.9686,-0.1057,0.0339,0.05327
49.8079,18925.9886,-0.09165,0.16402,0.02455
49.8252,18926.0086,-0.14236,0.1347,0.00195
49.8435,18926.0286,-0.12464,0.02535,0.00012
49.8659,18926.0486,-0.10448,0.03451,-0.00416
49.8863,18926.0686,-0.09471,0.04062,0.03922
49.9107,18926.0886,-0.03423,0.00092,0.09419
49.9342,18926.1086,0.03785,0.01802,0.1113
49.9513,18926.1286,0.09588,-0.03146,0.11741
49.9711,18926.1487,0.14536,-0.07361,0.1113
49.988,18926.1687,0.16735,-0.0339,0.12168
50.0069,18926.1887,0.23027,0.01924,0.08931
50.0247,18926.2088,0.32068,0.0058,0.02272
50.0444,18926.2288,0.33962,-0.0113,-0.04203
50.0828,18926.2488,0.27548,-0.02841,-0.07196
50.0897,18926.2688,0.21928,-0.05223,-0.09762
50.1104,18926.2889,0.15697,-0.11881,-0.14893
50.1342,18926.3089,0.08611,-0.15241,-0.21246
50.1463,18926.3289,-0.00308,-0.13164,-0.25339
50.1703,18926.3489,-0.09532,-0.15302,-0.23812
50.1944,18926.369,-0.11914,-0.11698,-0.17703
50.209,18926.389,-0.04706,-0.03451,-0.14221
50.2259,18926.409,-0.1057,0.03329,-0.1361
50.2624,18926.4291,-0.27186,0.06261,-0.09884
50.2724,18926.4491,-0.33478,0.15485,-0.08968
50.2834,18926.4691,-0.34089,0.3204,-0.07685
50.3055,18926.4891,-0.31401,0.33323,-0.00721
50.3241,18926.5092,-0.27919,0.27397,0.05998
50.3461,18926.5292,-0.18756,0.18051,0.06243
50.3664,18926.5492,-0.10326,0.12187,0.04838
50.3848,18926.5693,-0.08005,0.0339,0.08075
50.4045,18926.5893,-0.10387,0.06811,0.12229
50.4278,18926.6093,-0.06355,0.1518,0.14612
50.4498,18926.6293,0.07145,0.16951,0.15589
50.468,18926.6494,0.11848,0.11393,0.1675
50.4908,18926.6694,0.09038,0.10049,0.21881
50.5067,18926.6894,0.18812,0.10843,0.20476
50.5264,18926.7095,0.24982,0.19945,0.14428
50.5483,18926.7295,0.18201,0.26298,0.09236
50.5668,18926.7495,0.19729,0.21838,0.03066
50.5872,18926.7694,0.22661,0.01924,0.00928
50.6094,18926.7894,0.26937,-0.05773,0.01478
50.6267,18926.8094,0.25532,-0.04612,0.01478
50.6501,18926.8294,0.24921,-0.11026,-0.01026
50.6716,18926.8495,0.2657,-0.14081,-0.03348
50.6887,18926.8695,0.27059,-0.13836,-0.05058
50.7161,18926.8895,0.20278,-0.07972,-0.08174
50.7286,18926.9095,0.08061,0.00458,-0.14282
50.7513,18926.9296,0.0238,0.00641,-0.15443
50.7665,18926.9496,0.07267,-0.05895,-0.10617
50.7888,18926.9696,0.12276,-0.11332,-0.04814
50.8086,18926.9897,0.08611,-0.13225,0.00684
50.8275,18927.0097,-0.02751,-0.12859,0.01661
50.8488,18927.0297,-0.10754,-0.10904,0.0105
50.8669,18927.0497,-0.16312,-0.13592,-0.0237
50.8888,18927.0698,-0.16129,-0.11515,-0.02431
50.9088,18927.0898,-0.12036,-0.08705,-0.01393
50.9283,18927.1098,-0.10021,-0.04307,0.00684
50.9477,18927.1299,-0.0831,-0.00458,0.05388
50.9756,18927.1499,-0.02935,-0.04673,0.09053
50.9943,18927.1699,0.02991,-0.06811,0.11741
51.0106,18927.1899,0.02197,-0.10293,0.11496
51.0288,18927.21,0.04457,-0.08522,0.12168
51.0469,18927.23,0.13559,-0.0956,0.10397
51.0714,18927.25,0.18201,-0.12981,0.11679
51.0949,18927.2701,0.1643,-0.10599,0.11802
51.1113,18927.2901,-0.04401,-0.08461,0.06793
51.1297,18927.3101,-0.20405,-0.03757,0.02211
51.1549,18927.3302,-0.18878,-0.08216,-0.01821
51.1773,18927.3502,-0.11853,-0.07728,-0.02065
51.1934,18927.3703,-0.07394,-0.06567,0.03433
51.2095,18927.3904,-0.00247,-0.01252,0.04838
51.2282,18927.4104,0.05373,0.01802,0.05693
51.2455,18927.4305,0.12093,0.04184,0.09114
51.2675,18927.4505,0.25104,0.10232,0.1058
51.287,18927.4705,0.36039,0.14019,0.10946
51.3072,18927.4906,0.36039,0.07483,0.11557
51.3347,18927.5106,0.29991,-0.03207,0.14612
51.3492,18927.5307,0.25959,-0.08033,0.1565
51.3683,18927.5507,0.17529,-0.01619,0.12107
51.3923,18927.5708,0.069,0.03207,0.10213
51.4121,18927.5908,-0.00186,0.05895,0.07587
51.4286,18927.6109,-0.03362,0.04245,0.05754
51.449,18927.631,0.00242,0.0003,0.03188
51.4678,18927.651,0.04885,-0.00275,0.02761
51.4909,18927.6711,0.02075,0.03451,0.02761
51.5138,18927.6912,0.00547,0.02046,0.01295
51.5339,18927.7112,0.09161,0.02169,-0.0121
51.5523,18927.7313,0.17835,-0.03513,-0.00477
51.5698,18927.7513,0.16063,-0.12981,0.00012
51.588,18927.7714,0.10321,-0.19456,0.00256
51.608,18927.7915,0.04396,-0.1292,-0.01271
51.6334,18927.8115,0.00242,-0.00641,-0.02248
51.6518,18927.8316,-0.00369,0.01435,-0.04997
51.6716,18927.8517,-0.00491,-0.04734,-0.0683
51.6979,18927.8717,0.03052,-0.06628,-0.09334
51.7171,18927.8918,0.0293,-0.073,-0.11411
51.7314,18927.9118,0.0128,-0.03635,-0.12144
51.7524,18927.9319,0.03174,0.00886,-0.11167
51.7686,18927.9519,0.05068,0.0339,-0.10006
51.7956,18927.972,0.06717,0.01191,-0.05975
51.8097,18927.992,0.05679,-0.03146,-0.03165
51.8297,18928.0121,0.04518,-0.03329,-0.01821
51.8487,18928.0321,0.02685,-0.05345,-0.00355
51.8719,18928.0522,-0.03301,-0.17196,0.05632
51.8918,18928.0723,-0.02751,-0.17257,0.06793
51.9094,18928.0923,0.06167,0.06567,0.07159
51.9341,18928.1124,0.07572,0.15913,0.09969
51.9493,18928.1324,0.0128,0.03146,0.1284
51.9694,18928.1524,-0.00613,-0.00703,0.13207
51.9929,18928.1725,0.00731,0.03574,0.12657
52.0137,18928.1925,0.02319,0.05528,0.11557
52.0369,18928.2125,-0.03057,0.06628,0.13451
52.0527,18928.2326,-0.02812,0.07239,0.18521
52.0672,18928.2526,0.02075,-0.01313,0.17483
52.0923,18928.2726,0.0238,-0.01069,0.14917
52.1095,18928.2926,0.01891,0.0003,0.12962
52.1288,18928.3127,-0.01835,0.03879,0.08564
52.1528,18928.3327,-0.00919,0.09193,0.06487
52.1712,18928.3527,0.07267,0.08094,0.06365
52.1957,18928.3728,0.05556,0.04734,0.0551
52.2113,18928.3928,0.00425,0.01863,0.02822
52.2315,18928.4128,0.0012,0.02474,-0.01576
52.2498,18928.4328,-2e-05,0.08583,-0.05119
52.2703,18928.4529,-0.00552,0.11148,-0.05058
52.2939,18928.4729,0.0183,0.0394,-0.03898
52.309,18928.4929,0.03968,-0.00703,-0.03103
52.3307,18928.513,0.01891,-0.04246,-0.01088
52.3479,18928.533,-0.04156,-0.05162,-0.01515
52.3668,18928.553,-0.07272,0.00519,-0.0011
52.3874,18928.573,-0.04767,0.0284,0.00317
52.4095,18928.593,-0.03729,0.02718,0.03616
52.4275,18928.613,-0.00186,0.00825,0.04227
52.4475,18928.633,0.00853,-0.02046,0.03616
52.4705,18928.653,0.00181,-0.02657,0.0496
52.4898,18928.673,-0.03729,-0.05223,0.04044
52.5084,18928.693,-0.12036,-0.06261,0.01661
52.5393,18928.713,-0.12525,-0.05406,-0.00721
52.5712,18928.733,-0.07455,-0.09499,-0.02554
52.5778,18928.753,-0.02507,-0.09499,-0.02981
52.5972,18928.773,-0.00919,-0.03085,-0.02676
52.613,18928.793,-0.03484,0.01252,0.00012
52.629,18928.8129,-0.01163,0.0394,0.01967
52.6512,18928.8329,0.02869,0.0113,0.03127
52.6731,18928.8529,0.06167,-0.01497,0.0105
52.6924,18928.8729,0.05129,-0.00397,0.00623
52.7168,18928.8929,0.03907,-0.02108,-0.00355
52.7335,18928.9129,-0.01102,-0.01924,-0.03226
52.7519,18928.9329,-0.04034,0.01435,-0.02493
52.7749,18928.9529,-0.03301,-0.01863,-0.04631
52.794,18928.9729,-0.06172,-0.03513,-0.04447
52.8121,18928.9929,-0.03851,-0.02779,-0.05364
52.8312,18929.0129,0.01342,-0.04001,-0.07318
52.8487,18929.0329,0.00425,-0.01741,-0.08784
52.8685,18929.0529,-0.0605,0.03512,-0.08051
52.8948,18929.0729,-0.08982,0.03207,-0.05058
52.9143,18929.0929,-0.01713,0.00886,-0.01698
52.9329,18929.1129,0.02197,-0.04368,-0.01271
52.9528,18929.1329,-0.00613,-0.05345,-0.04386
52.9743,18929.1529,-0.10937,0.00702,-0.08846
52.9923,18929.1729,-0.18267,0.06506,-0.12389
53.0152,18929.1929,-0.16984,0.04368,-0.11472
53.032,18929.2129,-0.12036,0.0113,-0.07502
53.0554,18929.2328,-0.06905,-0.08583,-0.01149
53.0761,18929.2528,-0.03912,-0.10049,0.01845
53.0906,18929.2728,-0.06844,0.02046,0.01112
53.1138,18929.2928,-0.10631,0.12675,0.02517
53.1314,18929.3128,-0.0831,0.06872,0.01173
53.1508,18929.3328,-0.0153,-0.00825,0.01661
53.1724,18929.3528,0.0067,0.02352,0.00317
53.2111,18929.3728,-0.04278,0.06811,0.03983
53.2166,18929.3928,-0.09471,0.09438,0.08198
53.2283,18929.4128,-0.04217,0.08094,0.13818
53.2501,18929.4328,0.05984,0.1066,0.15223
53.2681,18929.4528,0.04152,0.10598,0.12413
53.29,18929.4728,-0.08005,0.06322,0.08503
53.3183,18929.4928,-0.05256,0.09132,0.08075
53.3413,18929.5128,0.02808,0.11209,0.10946
53.3558,18929.5328,0.05618,0.09071,0.09053
53.3694,18929.5528,-0.00613,0.02963,0.05632
53.3877,18929.5728,-0.0214,0.01741,0.02211
53.4078,18929.5928,0.02136,0.03818,0.03005
53.4361,18929.6128,-0.03057,0.03146,0.04838
53.4509,18929.6327,-0.07944,0.04734,0.03127
53.4717,18929.6527,-0.01346,0.05467,-0.01454
53.495,18929.6727,0.01708,0.00214,-0.04692
53.517,18929.6927,-0.03912,-0.01313,-0.05241
53.5323,18929.7127,-0.05867,-0.01008,-0.05486
53.5503,18929.7327,-0.02324,0.0113,-0.06402
53.5725,18929.7527,0.02502,-0.02413,-0.07502
53.5905,18929.7727,0.04335,-0.02046,-0.06952
53.6113,18929.7927,0.00975,-0.01375,-0.08051
53.6307,18929.8127,-0.00125,-0.02474,-0.119
53.6535,18929.8327,0.02502,-0.0168,-0.15993
53.6754,18929.8527,0.00731,0.03512,-0.22162
53.7031,18929.8727,-0.06478,0.04795,-0.20819
53.7092,18929.8927,-0.10509,0.0565,-0.17092
53.7339,18929.9127,-0.13808,0.06628,-0.13794
53.7484,18929.9327,-0.15457,0.05589,-0.09945
53.7675,18929.9527,-0.16679,0.06139,-0.07257
53.7938,18929.9727,-0.20772,0.05467,-0.0457
53.8164,18929.9927,-0.19061,0.06506,-0.01271
53.8406,18930.0127,-0.10998,0.04795,0.0325
53.8573,18930.0327,-0.00369,0.04307,0.06487
53.8751,18930.0526,0.02502,0.11637,0.06487
53.8887,18930.0726,0.02075,0.12431,0.05632
53.9089,18930.0926,0.00608,0.13897,0.0722
53.9282,18930.1126,0.06595,0.05467,0.10885
53.9486,18930.1326,0.11909,-0.06872,0.11802
53.9729,18930.1526,0.11054,-0.09927,0.13573
53.9938,18930.1726,0.12704,-0.10843,0.14428
54.018,18930.1926,0.09222,-0.1066,0.12229
54.0328,18930.2126,0.06595,-0.13042,0.10824
54.0511,18930.2326,0.02869,-0.08522,0.02272
54.068,18930.2526,-0.0886,-0.10599,-0.02187
54.0911,18930.2726,-0.14174,-0.12798,-0.05364
54.1087,18930.2926,-0.11303,-0.12737,-0.07135
54.1281,18930.3126,-0.05928,-0.14081,-0.11045
54.1522,18930.3326,-0.00308,-0.13042,-0.17398
54.1692,18930.3526,0.01219,-0.06506,-0.20085
54.1934,18930.3726,0.00731,0.01619,-0.22468
54.2148,18930.3926,-0.00063,0.08216,-0.25705
54.2498,18930.4126,-0.02996,0.09316,-0.23018
54.255,18930.4326,0.01464,0.06872,-0.18864
54.2702,18930.4525,0.04762,0.03635,-0.12816
54.2867,18930.4725,0.00425,-0.04551,-0.07929
54.3066,18930.4925,-0.05745,-0.12309,-0.01026
54.328,18930.5125,-0.02079,-0.20739,0.0606
54.3502,18930.5325,0.0348,-0.25015,0.05937
54.3689,18930.5525,0.0348,-0.13592,0.0215
54.3919,18930.5725,-0.08066,-0.01375,-0.07624
54.4088,18930.5925,-0.20161,0.06933,-0.10617
54.4277,18930.6125,-0.16129,0.03451,-0.08846
54.4497,18930.6325,-0.12342,0.0003,-0.07746
54.4678,18930.6525,-0.1167,-0.15302,-0.07746
54.4875,18930.6725,-0.05439,-0.1854,-0.08174
54.5116,18930.6925,0.02869,-0.18601,-0.07746
54.5295,18930.7125,0.05434,-0.24099,-0.07441
54.5501,18930.7325,0.0629,-0.24282,-0.09762
54.5741,18930.7525,0.00608,-0.18601,-0.16909
54.5905,18930.7725,-0.02812,-0.05712,-0.24117
54.6164,18930.7925,-0.00735,0.0058,-0.27538
54.6411,18930.8125,-0.00674,-0.04734,-0.26744
54.6576,18930.8326,-0.03423,-0.08522,-0.24606
54.6695,18930.8526,-0.01346,-0.00764,-0.2485
54.6916,18930.8726,-0.02996,0.07178,-0.25889
54.716,18930.8926,-0.14663,0.10476,-0.19352
54.7346,18930.9127,-0.09776,-0.00214,-0.09579
54.76,18930.9327,0.01036,-0.11881,-0.0121
54.7778,18930.9527,-0.01835,-0.17868,0.03372
