AppTimestamp(s),SensorTimestamp(s),acc_x,acc_y,acc_z,gyro_x,gyro_y,gyro_z,mag_x,mag_y,mag_z
45.0056,18921.1858,-0.19435242619343787,0.053352403378455676,-0.2932976306708196,-0.002391241316586724,0.010106248669457763,-0.12721378693751556,0.22216155572993604,0.0929158148438826,-0.6332205207041919
45.0239,18921.2058,-0.10885742839359167,-0.016091468420903223,-0.19348392701705752,0.0437062059432968,-0.01926917678722832,-0.09532662438954119,0.31404546610842154,0.10822979990696352,-0.669591235229009
45.0459,18921.2258,-0.03352638440935635,-0.059194237645510725,-0.10588923287670589,0.06380058066607382,-0.006253447666765484,0.021379150103254835,0.31404546610842154,0.10822979990696352,-0.669591235229009
45.0665,18921.2458,0.033313465182972235,-0.07769622345309023,-0.039160280390250476,0.061330912485130167,0.1215199409697439,0.07061648345326035,0.31404546610842154,0.10822979990696352,-0.669591235229009
45.0932,18921.2658,0.08754389228880814,-0.07905833328371513,0.0030363897580158172,0.04057206771693756,0.12192846684171181,0.0552979041946602,0.37324435694925034,0.10142961504710199,-0.7978458601323131
45.1094,18921.2858,0.12705824409990354,-0.07823411082687343,0.023910188693363907,-0.0015837134709453284,0.01715583664373133,-0.028146277590749925,0.1567915166546148,0.04868747499799584,-0.8169883414611662
45.1206,18921.3058,0.15629625319102644,-0.06847542173008933,0.03235254020074581,-0.029407349032874935,-0.03268310261659027,-0.10597750100091419,0.3511301870263073,0.1977439200599427,-0.813159845195394
45.1415,18921.3258,0.17956022049066295,-0.05112413467249642,0.03802270651798341,-0.00459978912981858,0.015939824033919116,0.012442674119693766,0.37324435694925034,0.10142961504710199,-0.7978458601323131
45.1644,18921.3458,0.19883899626289475,-0.024255150547593224,0.046425620234339514,0.03435766065434675,0.08963773233128,0.09652602335667423,0.37324435694925034,0.10142961504710199,-0.7978458601323131
45.1809,18921.3658,0.20588817929642855,-0.006534248301410325,0.05699532300344671,0.005129264131738857,0.039554666244178686,0.06711800356559945,0.37324435694925034,0.10142961504710199,-0.7978458601323131
45.2012,18921.3858,0.18896775697362084,0.0005307865028783758,0.06566298506919381,-0.004171592632554249,-0.044760476549870164,-0.007002066989340359,0.31404546610842154,0.10822979990696352,-0.669591235229009
45.2247,18921.4058,0.14035051033375065,0.001486653942933576,0.06927761988060152,-0.02315526784906256,-0.03825942241928821,-0.062314075364243646,0.3467304856460828,0.13034396982990729,-0.5777073248505202
45.2434,18921.4258,0.06454304163085485,0.014564713391600977,0.0690804909511388,-0.01552449822331922,-0.004502627481664321,-0.00866937711308333,0.3467304856460828,0.13034396982990729,-0.5777073248505202
45.2654,18921.4457,-0.029424506034795045,0.04157894361801018,0.070983530756445,-0.004586939027464884,0.027048632384311398,0.07425891480051425,0.3467304856460828,0.13034396982990729,-0.5777073248505202
45.2833,18921.4657,-0.12812700925162065,0.06259978156857476,0.08280851881341351,-0.01771671757092052,0.05601033596040212,0.12380712204730034,0.3467304856460828,0.13034396982990729,-0.5777073248505202
45.3026,18921.4857,-0.21122715205401463,0.06221425593118867,0.1101775271475594,-0.018711550888355695,0.07244453040749627,0.061044094239954855,0.25484657526759724,0.11502998476682635,-0.541336610325703
45.3262,18921.5057,-0.25974622685315363,0.034267474940626375,0.15241720257726482,-0.004518378866897623,0.028381725744405943,-0.06105009732209959,0.25484657526759724,0.11502998476682635,-0.541336610325703
45.3528,18921.5257,-0.26027408065006463,-0.008647553604341824,0.2004930457459223,0.03167974410436036,-0.02820025376038439,-0.06230029277768689,0.25484657526759724,0.11502998476682635,-0.541336610325703
45.3674,18921.5457,-0.19859325846827044,-0.048830967768836324,0.2387550060768734,0.06162515673110626,0.012522315010739922,0.03891098305309682,0.1956476844267685,0.12183016962668788,-0.413081985422399
45.39,18921.5657,-0.10089324264803748,-0.07699614217259663,0.24798908849812829,0.06870736005230045,0.021037682230938954,0.018376460482011168,0.1364487935859442,0.12863035448655075,-0.2848273605190931
45.4148,18921.5857,0.008252399878769745,-0.09392739680750233,0.21490968059341842,0.02830488170598067,0.006263935839885661,-0.09997652452913253,0.1364487935859442,0.12863035448655075,-0.2848273605190931
45.4208,18921.6057,0.10378481363434144,-0.07446350776190692,0.13901395135506422,-0.014976577859524717,-0.004314640754365232,-0.1717889689598793,0.04456488320745539,0.11331636942346927,-0.24845664599427456
45.441,18921.6257,0.14604760834235414,-0.05138335682021732,0.033816051052248414,-0.05067182926370846,0.016001150678270806,-0.09218381180497033,-0.025204857248089636,0.0016880793475436704,-0.19677194640637463
45.4599,18921.6457,0.12723556403593925,-0.016921908761941426,-0.07646877430258499,-0.05684134897670185,0.05651789739277191,-0.03192672622838483,0.06667905313039915,0.017002064410625135,-0.2331426609311931
45.4796,18921.6657,0.05282198646619665,0.007699510207402976,-0.16652089276449378,-0.10290350855850267,0.09403920412913844,0.015315386292714528,0.15856296350888796,0.0323160494737066,-0.2695133754560116
45.5037,18921.6857,-0.05239328126086715,0.006297762356901776,-0.2180434998381654,-0.13826466471068038,0.09140567810377549,0.013900756922512397,0.011879863669794174,0.09120219950052551,-0.34034055637276334
45.525,18921.7057,-0.16595786801702914,-0.022811837876862622,-0.2254639971567301,-0.11131922145691665,0.05435325197940278,0.0411598417596103,0.03399403359273794,-0.005112105512318631,-0.3250265713096819
45.5418,18921.7257,-0.253391107738289,-0.06574967276776134,-0.19586782138681802,-0.05541303137810226,0.043317616992538506,0.02658437362619615,0.12587794397122673,0.010201879550762835,-0.36139728583450037
45.5642,18921.7457,-0.28226470933529324,-0.10101604821158373,-0.14445518312725097,-0.030978572085969443,0.043216693541227306,0.03454649731011867,0.03399403359273794,-0.005112105512318631,-0.3250265713096819
45.5837,18921.7657,-0.250435083957108,-0.11642821151232183,-0.08953042820376399,0.00021605329610692504,0.07243746443824003,0.009767512353986764,0.06667905313039915,0.017002064410625135,-0.2331426609311931
45.607,18921.7857,-0.17198796682954673,-0.10706930401348183,-0.045907525690621495,0.04840820844672184,0.02711782363000919,-0.033699894273876346,0.06667905313039915,0.017002064410625135,-0.2331426609311931
45.6247,18921.8057,-0.06386680184860885,-0.07227759087003113,-0.020719433408284985,0.09127561208442177,-0.04097094243037415,-0.08508424832972589,0.15856296350888796,0.0323160494737066,-0.2695133754560116
45.6403,18921.8257,0.046329999566145336,-0.017481909989832525,-0.013791654964684694,0.0608243267655633,-0.041466156650183904,-0.10005692295071371,0.15856296350888796,0.0323160494737066,-0.2695133754560116
45.6598,18921.8456,0.12868226285258494,0.044858909452069176,-0.019589292080830586,0.057050991434990386,0.029066620794720614,-0.03790722024514463,0.15856296350888796,0.0323160494737066,-0.2695133754560116
45.6848,18921.8656,0.16623264815103464,0.10348741412474607,-0.03013632577470028,0.039211821804742704,0.08169009252301267,0.03156467299352345,0.08879322305334292,-0.07931224060221899,-0.2178286758681116
45.7091,18921.8856,0.15349724888323166,0.13824532661418457,-0.037543161695216695,0.0375387062323777,0.01136290659428516,0.04641942992952555,0.18067713343183173,-0.06399825553913753,-0.2541993903929301
45.724,18921.9056,0.09525681055051655,0.13151448723893408,-0.03537862054338349,0.013816386540959675,0.0028291866457154937,0.03497107754599259,0.06667905313039915,0.017002064410625135,-0.2331426609311931
45.7411,18921.9256,0.006659156129010052,0.08933689966555537,-0.019812957695060987,-0.03585974998680017,0.02427983055775552,0.01424168451497924,0.18067713343183173,-0.06399825553913753,-0.2541993903929301
45.7646,18921.9456,-0.09067290889022075,0.022529454539195377,0.010228622430718107,-0.04552007755431922,0.014618109296502346,0.0193395187176657,0.08879322305334292,-0.07931224060221899,-0.2178286758681116
45.7788,18921.9656,-0.18078165543649413,-0.05533332557147452,0.05222699153317291,-0.02249329504242618,0.03810590638181785,0.0420633668783321,0.02959433221251534,-0.0725120557423567,-0.08957405096480435
45.8042,18921.9856,-0.24266031214982273,-0.12290165249475653,0.09998491112574641,-0.010205858014406302,0.008392145886487828,0.08074783312136834,0.02959433221251534,-0.0725120557423567,-0.08957405096480435
45.8217,18922.0056,-0.27380605476258457,-0.18413885132227123,0.14309093874525822,-0.013522755360308681,0.10374266299550411,0.07891742905670356,0.02959433221251534,-0.0725120557423567,-0.08957405096480435
45.8399,18922.0256,-0.2703216232615252,-0.22737289062519203,0.170402271785173,-0.009290683144685511,0.06464134169810797,0.014361707872911139,-0.15417348854445898,-0.10314002586851909,-0.01683262191516867
45.8689,18922.0456,-0.23727631417201753,-0.24847702552747772,0.1731093593553242,-0.018664897065102843,0.046283972711371746,-0.02375862944536386,-0.15417348854445898,-0.10314002586851909,-0.01683262191516867
45.8864,18922.0656,-0.18327756657227087,-0.23826110164860734,0.14815513556196602,0.006777393965573085,0.015807687883151064,-0.06469750571449896,-0.15417348854445898,-0.10314002586851909,-0.01683262191516867
45.9025,18922.0856,-0.11388812559224595,-0.19665160475628024,0.09897921817035991,0.02468315131211603,0.038438647440908226,-0.05191741090491779,-0.029604558628310147,-0.06571187088249462,0.03868057393849838
45.9249,18922.1056,-0.03825405341918425,-0.13308423581471943,0.03402744718454001,0.034926264796394775,0.04543749968828801,-0.07852239715500886,-0.19125820946234148,-0.19265414602149772,0.12673598805121497
45.9453,18922.1256,0.03618019656917554,-0.05686726579626573,-0.035061484645497784,0.008645106722853402,0.10021064000936446,-0.06307096907598646,-0.09937429908385596,-0.17734016095841681,0.09036527352639778
45.9607,18922.1456,0.09692863458402125,0.014975516151079376,-0.09600647010402068,0.03349498727647601,0.11606728676830155,-0.0591080925912876,-0.007490388705367164,-0.16202617589533536,0.0539945590015793
45.9866,18922.1656,0.13266727083050733,0.060971791178306374,-0.1376171668982541,0.026510535390465943,0.06837321145396655,-0.08171268309327526,-0.09937429908385596,-0.17734016095841681,0.09036527352639778
46.0097,18922.1856,0.14342326104326344,0.07446542478222307,-0.15194620120218272,0.03845259779749506,0.0022468885218047247,-0.07603157748449868,-0.007490388705367164,-0.16202617589533536,0.0539945590015793
46.0202,18922.2056,0.14183366573120185,0.06334017599495957,-0.1362583153525208,0.01710935090945782,0.001443014040465185,-0.0782149689048675,0.11707854121077957,-0.12459802090931066,0.1095077548552509
46.0529,18922.2256,0.12017164303070355,0.019976706796621075,-0.09380960679633439,0.00981641743898398,-0.016979141537947117,-0.04393518761559999,0.047308800755237815,-0.2362263109852357,0.16119245444314956
46.0598,18922.2456,0.10845539659136874,-0.024841517514724024,-0.033659081144289685,0.01996360380923806,0.010778722857095226,-0.01167168388470041,0.047308800755237815,-0.2362263109852357,0.16119245444314956
46.0849,18922.2655,0.09669040505705495,-0.05755348613232182,0.030954179149988506,0.05489036344507367,0.06159151612973449,0.034144122352586195,0.08439352167311837,-0.14671219083225442,0.0176238444767621
46.1041,18922.2855,0.09497850391814144,-0.08022420618873342,0.08570485515672381,0.0444437927927657,0.04325708768768317,0.03363148670259956,0.26816134243009593,-0.11608422070609149,-0.05511758457287488
46.1349,18922.3055,0.09908483429510084,-0.08960068300625193,0.11897308106465392,0.018517236890264438,0.03598932837059962,0.005379864208600693,0.2902755123530397,-0.21239852571893558,-0.03980359950979341
46.1414,18922.3255,0.11225386003990874,-0.08320597228148532,0.1253878822383603,-0.014542209372087413,-0.0024072460064590226,-0.060707255481499856,0.38215942273152526,-0.19708454065585468,-0.0761743140346106
46.1594,18922.3455,0.12333330943563814,-0.07087431839338464,0.1066545220723912,-0.017701042452167356,0.02873128181352766,-0.07573008340356928,0.38215942273152526,-0.19708454065585468,-0.0761743140346106
46.1981,18922.3656,0.12818786620592676,-0.058395009891963424,0.07037982448778021,-0.002123670435686833,-0.012865822850392259,-0.028706195169618837,0.47404333311001406,-0.18177055559277322,-0.11254502855942909
46.2075,18922.3856,0.13178478831696194,-0.035111084249386526,0.026993930304566705,-0.012608470151167268,0.026620043863694334,0.003415845624260527,0.38215942273152526,-0.19708454065585468,-0.0761743140346106
46.261,18922.4056,0.13451362307967063,-0.017205670856825325,-0.013594520802648488,-0.017067058026254352,0.013665279217846486,0.00014228989221362138,0.46347248349529696,-0.3001990305285569,-0.1891149538748337
46.2615,18922.4256,0.13598502137994534,-0.007335190680808025,-0.043733572211376595,-0.027444185543410455,-0.0006859087016795263,-0.015316986604153609,0.4042735926544682,-0.2933988456686954,-0.06086032897152968
46.2629,18922.4457,0.14359107543201455,-0.0004190931230340243,-0.05906731488228269,-0.025284260438908655,-0.008069254517595893,-0.04489039743390967,0.4042735926544682,-0.2933988456686954,-0.06086032897152968
46.2818,18922.4657,0.15338658763083574,-0.005973996781911723,-0.058987984508983,-0.021078111852346544,-0.022541563086502212,-0.06218869211153967,0.496157503032957,-0.27808486060561394,-0.09723104349634817
46.3011,18922.4857,0.16602120748942165,-0.005902791813473224,-0.04657595440537508,-0.001726271607530224,-0.05616458971236615,-0.0862404542019885,0.43695861219212945,-0.27128467574575166,0.031023581406959114
46.3193,18922.5058,0.17872656939440554,0.005586755196759476,-0.02811863211219469,0.03427128037937661,-0.07398999771454835,-0.02295828230100458,0.5067283526476752,-0.15965638566982945,-0.020661118180940304
46.3438,18922.5258,0.18181544040099715,0.025408621997603076,-0.011517062967179484,-0.02389932721538588,-0.0043784323136754335,0.012237275295035193,0.5986122630261608,-0.14434240060674852,-0.0570318327057575
46.3597,18922.5458,0.17117126407669736,0.04520572240137138,-0.003473162084565884,-0.029080229988340763,-0.014601916109167916,0.03515120829529709,0.576498093103217,-0.04802809559390442,-0.07234581776883896
46.3795,18922.5658,0.14016732915127955,0.056347618735681976,-0.006630230451627084,-0.034997530563834076,-0.006738132871750132,0.01342276916373097,0.4846141827247315,-0.06334208065698534,-0.03597510324402176
46.4042,18922.5859,0.09328392321086834,0.054517044015460876,-0.01849146336015829,-0.06966602008197402,0.02118378554189321,-0.032160073075783516,0.4846141827247315,-0.06334208065698534,-0.03597510324402176
46.4229,18922.6059,0.03073981740829096,0.046878257466019174,-0.03333650745502058,-0.10098789750506652,0.05394513930471112,0.011658980934090589,0.576498093103217,-0.04802809559390442,-0.07234581776883896
46.4426,18922.6259,-0.033589299206863765,0.03892661518544398,-0.045747860722430686,-0.08777406883294961,0.024887444083397277,0.07311362014260905,0.6683820034817058,-0.03271411053082295,-0.10871653229365745
46.4631,18922.646,-0.09003361697037923,0.036325772657986775,-0.05384684500442748,-0.04290647481637826,-0.010897956913840831,0.0823956179141559,0.73815174393725,0.07891417954509897,-0.1604012318815562
46.4843,18922.666,-0.13163534820944048,0.040868016345794775,-0.05925888567736069,0.0006141140016009887,-0.019019525444177628,0.05623358868201446,0.7973506347780759,0.07211399468523638,-0.28865585678486283
46.5013,18922.686,-0.15932562351092985,0.05106792391248468,-0.06395293277710938,-0.03243614307268671,0.017720431710107766,-2.4632544973962747e-05,0.8079214843927933,0.19054246962102428,-0.2120859314694555
46.5219,18922.706,-0.18227417120163167,0.06349798647560016,-0.06630996231127999,-0.026919919109518714,0.025558135703969097,-0.02647781891812722,0.8079214843927933,0.19054246962102428,-0.2120859314694555
46.5406,18922.7261,-0.20988005129452555,0.06932712099789397,-0.0593748113959212,-0.014496407038469718,0.016328721049143926,-0.010718388314523599,0.7858073144698496,0.28685677463386844,-0.22739991653253697
46.5675,18922.7461,-0.24140339615868053,0.05288696314578448,-0.03293359466283978,0.008598253942289767,-0.030110502120729493,-0.02903372302515548,0.6612383845537012,0.24942861964784346,-0.2829131123862079
46.5814,18922.7661,-0.2606860455821889,0.0026933769702872754,0.021133372300212713,-0.008702825855073617,0.04132431791304328,0.014442489144118893,0.6612383845537012,0.24942861964784346,-0.2829131123862079
46.6095,18922.7862,-0.24648930660852217,-0.07858061085971353,0.10234820198187211,0.0015967150387079171,0.0537342413953402,0.04568761286832356,0.6983231054715854,0.3389427398008224,-0.42648172235259224
46.6206,18922.8062,-0.18540250297093055,-0.18401237898983322,0.19762832562796523,0.054051905833619136,0.02907677319449207,0.01833549557196743,0.536669454637554,0.21200046466181927,-0.33842630823987563
46.6421,18922.8262,-0.08792234770798604,-0.2693754256908432,0.2836733114201289,0.1162224064320899,-0.10451647670576279,-0.010186801608021406,0.44478554425906525,0.1966864795987378,-0.30205559371505714
46.6606,18922.8462,0.06400601540830245,-0.3024149763945451,0.336216940445979,0.23864196929229345,-0.3104398828957289,0.037705581003819016,0.412100524721404,0.17457230967579404,-0.39393950409354594
46.6806,18922.8663,0.25488290680852904,-0.25591668429570913,0.3371743396268963,0.28419565278731557,-0.3228059356465586,0.009861119087684835,0.59586834547838,0.2052002798019567,-0.46668093314318226
46.706,18922.8863,0.45432765319295754,-0.12881391574925652,0.28236274506426884,0.17527677316641974,-0.09121074891670784,-0.09556016266175318,0.59586834547838,0.2052002798019567,-0.46668093314318226
46.7205,18922.9063,0.6531799182896013,0.058929395347823675,0.1815472272012072,0.10698541032196388,0.025069023942549534,-0.1351571509897358,0.6285533650160412,0.22731444972490047,-0.37479702276469345
46.7406,18922.9264,0.7630225387041328,0.2540763800657361,0.05791227828498961,0.10154741755496677,-0.04149897485194999,-0.05935675342374938,0.5587836245604978,0.11568615964897515,-0.32311232317679417
46.7642,18922.9464,0.7575284886296146,0.4053412241712507,-0.06410017803014699,0.08108237222568343,-0.1593448157401639,-0.03301957048744896,0.39712997372646724,-0.011256115490031374,-0.235056909064077
46.7827,18922.9664,0.6503164297001983,0.48366368836837775,-0.1681570027320377,-0.010917316827797549,-0.1698930972490774,-0.058254912198460684,0.36004525280858146,-0.10077023564301058,-0.09148829909769207
46.8197,18922.9864,0.4647411603958028,0.4695058506181042,-0.2448212819449314,-0.10312970126434913,-0.0899734946551693,0.04306432722701775,0.3927302723462427,-0.07865606572006681,0.00039561128079672455
46.8365,18923.0064,0.22659570846510485,0.3866869719140161,-0.2910898516019015,-0.1515697438969318,-0.006713501760599755,0.12203395400180882,0.3927302723462427,-0.07865606572006681,0.00039561128079672455
46.8466,18923.0264,-0.036667290313149664,0.25189924784775325,-0.3068887640164367,-0.209261410350357,-0.03995044616950395,0.13193406249546427,0.41484444226918643,-0.1749703707329109,0.015709596343878182
46.8627,18923.0464,-0.2705712867150575,0.09998754882493177,-0.2943981453288417,-0.21462134229004956,-0.05968210149278605,0.1352702141414565,0.5067283526476752,-0.15965638566982945,-0.020661118180940304
46.8817,18923.0664,-0.4513232313152108,-0.03988223826577332,-0.2569503340857509,-0.18209780412591886,-0.0810398451320976,0.1295050730396463,0.4475294618068465,-0.15285620080996795,0.10759350672236372
46.9024,18923.0863,-0.5611379543987932,-0.14830707802003773,-0.1995997177106973,-0.17192214758677365,-0.037800569042240065,0.1314336780335281,0.377759721351304,-0.26448449088588954,0.15927820631026185
46.9275,18923.1063,-0.5922580441692209,-0.21607886649115754,-0.1293534879012626,-0.14969339102209644,0.020164223718539473,0.11290605320495924,0.28587581097281517,-0.279798475948971,0.19564892083508034
46.9436,18923.1263,-0.5702683495567908,-0.24547159638828672,-0.057216103094202095,-0.15051051977094085,-0.04757029773960126,0.07896758235778516,0.2637616410498722,-0.18348417093613034,0.1803349357719994
46.96,18923.1463,-0.5034388774075471,-0.23880967006600823,0.007057757237177414,-0.11927517358306429,-0.03320607337495517,0.05642195069829037,0.2637616410498722,-0.18348417093613034,0.1803349357719994
46.9802,18923.1663,-0.41003278170589064,-0.20531885889589682,0.05429534531536531,-0.05640930603766487,0.013514904549278069,0.07200718472180144,0.1718777306713834,-0.1987981559992118,0.21670565029681788
47.005,18923.1863,-0.307686930161141,-0.16133347822913974,0.0791771596455941,-0.0451700074652972,0.03178478764467268,0.05098740024902941,-0.10377400046407646,-0.2447401111884551,0.32581779387127074
47.0247,18923.2063,-0.21048307019293835,-0.11899911201071113,0.08272966920664791,-0.06050396470424381,0.02240746143818158,-0.03371118833786037,-0.19565791084256526,-0.2600540962515366,0.36218850839608924
47.0427,18923.2263,-0.12226663164407495,-0.08097870831667912,0.0723403944494744,-0.06834064023430465,-0.005566984483495226,-0.07870520785169938,-0.21777208076550902,-0.16373979123869242,0.3468745233330078
47.0646,18923.2463,-0.04235573713741375,-0.04727058075102912,0.05817818561592421,-0.0364018669200252,0.07682614440221801,-0.02546384168213795,-0.30965599114399783,-0.17905377630177388,0.38324523785782627
47.0834,18923.2663,0.026605485202881446,-0.015939477922016724,0.04861245055835531,-0.011770100969322449,0.06178310539400181,0.04384725471336777,-0.42365407144542633,-0.09805345635201411,0.4043019673195626
47.1094,18923.2863,0.08570284067099995,0.010671986545802576,0.04715225761488461,0.0014925581847613886,0.06593521525301578,0.03879402249217753,-0.4457682413683701,-0.0017391513391699785,0.38898798225648107
47.1223,18923.3063,0.13240840059580575,0.027435160479334177,0.051899575276992814,-0.0037288735444137126,0.0013316432981532631,-0.03687410052782652,-0.6622210816630044,-0.05448129138827536,0.36984550092763124
47.1448,18923.3263,0.16380401413929005,0.03983031181852758,0.05776119355092031,-0.01029212927882964,0.002576100675750611,-0.03948609210514831,-0.7541049920414933,-0.06979527645135682,0.40621621545244974
47.1584,18923.3463,0.18057111438775164,0.059062921181790275,0.05962043245649611,-0.005749392180479532,0.00943655685880896,-0.026798264055572202,-0.7541049920414933,-0.06979527645135682,0.40621621545244974
47.1799,18923.3663,0.17783793715465335,0.08183774191055747,0.055074597942677814,-0.019813074095908576,0.02980427653957079,0.02183110408742902,-0.6622210816630044,-0.05448129138827536,0.36984550092763124
47.2036,18923.3863,0.15432657169136865,0.10186282575534288,0.04556690893826241,-0.01987047233867368,0.03498137683244327,0.030574623859195255,-0.6843352515859482,0.041833013624568774,0.3545315158645498
47.2251,18923.4063,0.10989807613630144,0.10499907535004877,0.03570267328000651,-0.05193203954523398,0.01243278229801655,0.030787679676385377,-0.5924513412074627,0.0571469986876497,0.31816080133973257
47.2408,18923.4263,0.05195386882594394,0.08495259961582607,0.03066157258247941,-0.028435322195609854,-0.002072764810379427,0.025256651121227006,-0.6843352515859482,0.041833013624568774,0.3545315158645498
47.2595,18923.4463,-0.0033162860466934563,0.04728574331324008,0.03299426268313431,-0.04920392542342182,-0.00747419868168142,-0.002623415810178849,-0.6843352515859482,0.041833013624568774,0.3545315158645498
47.2793,18923.4663,-0.04140417432643925,0.007975384646044976,0.04014092101976801,-0.04881129433022901,-0.037545426832815955,0.031073094072998554,-0.6843352515859482,0.041833013624568774,0.3545315158645498
47.3067,18923.4862,-0.05280447024205506,-0.011286224199407524,0.04422367728720461,-0.030069511886470984,-0.033198463092189615,0.043298248348856316,-0.5332524503666352,0.0503468138277874,0.1899061764364253
47.332,18923.5062,-0.04019941484753756,0.0025343884356231754,0.03481358330129501,-0.015324384573018868,0.003470724793385736,0.03720519654188286,-0.6251363607451239,0.03503282876470593,0.2262768909612438
47.3442,18923.5262,-0.01149379623527605,0.046778103127925075,0.00462912522816511,0.01925397774624968,0.010658785179930493,0.0284968989357617,-0.6251363607451239,0.03503282876470593,0.2262768909612438
47.3653,18923.5462,0.012717628152979638,0.11384934578262387,-0.0449251181236897,0.023404550983876164,-0.04353111928046508,-0.019109877854652263,-0.5659374699042952,0.02823264390484441,0.09802226605793976
47.3796,18923.5662,0.024104965252474242,0.18600574647005508,-0.1011901742565851,-0.04066756826813012,-0.06856813915579947,-0.05212032120700362,-0.5438232999813514,-0.06808166110799972,0.11333625112102123
47.3999,18923.5862,0.008828472473744742,0.23304157132224296,-0.1439379060328126,-0.03706230876968183,-0.07478559590605809,-0.04059865311998115,-0.5438232999813514,-0.06808166110799972,0.11333625112102123
47.4215,18923.6062,-0.03176782467487704,0.23817428607880517,-0.15345719156753118,-0.010615204864704212,-0.06507774525522848,0.010149022006870774,-0.29028573876883207,0.07417459909408826,-0.011089877516514404
47.4399,18923.6262,-0.08949469916475863,0.18795245980005887,-0.11932780709445549,0.031206421991980378,-0.013927474112447722,0.06008065315467376,-0.23548654930822824,-2.5535995812880745e-05,0.0961080179250526
47.4628,18923.6462,-0.15376838407778834,0.08716502158353337,-0.04647253183540738,0.04434416716443929,-0.03963451658370457,0.05893880414340776,-0.29028573876883207,0.07417459909408826,-0.011089877516514404
47.4901,18923.6662,-0.20747196765544665,-0.043070540973807026,0.04516951599929441,0.06603076682232703,-0.11400508330738995,0.0824120804480987,-0.29028573876883207,0.07417459909408826,-0.011089877516514404
47.5099,18923.6862,-0.21879640468805853,-0.17429782593793902,0.1273466806477595,0.07190001984961394,-0.13715854113617548,0.09587671038999959,-0.3821696491473208,0.05886061403100679,0.025280837008304084
47.5308,18923.7062,-0.18741487618177108,-0.2582659713775408,0.1720057110916623,0.032171217095092755,-0.068435008261929,0.011028044749491636,-0.3821696491473208,0.05886061403100679,0.025280837008304084
47.5492,18923.7262,-0.12084396731931116,-0.2659919819451255,0.16168924212734112,0.06473698141309647,0.0022526191244049624,-0.006272164176271252,-0.5332524503666352,0.0503468138277874,0.1899061764364253
47.5618,18923.7462,-0.041316049565549046,-0.19339632138315382,0.09480944778184681,0.11917048536096188,0.012748203115715857,0.013064613338068142,-0.5553666202895781,0.14666111884062807,0.1745921913733444
47.5845,18923.7662,0.0040776892389717545,-0.059810255596499724,-0.013396888623791695,0.12660447962592156,-0.028259464506790868,-0.04420471375271023,-0.5553666202895781,0.14666111884062807,0.1745921913733444
47.6046,18923.7862,0.016353113834099348,0.09465345823562857,-0.1332072807044239,0.06860359433255568,-0.1416729453890185,-0.08734822959648915,-0.6145655111304057,0.15346130370049038,0.30284681627665166
47.6223,18923.8062,-0.005824522000614452,0.23095177165068057,-0.22925513584494978,0.059202693437585836,-0.09844809553818015,-0.04920894122169859,-0.5226816007519169,0.16877528876357184,0.26647610175183317
47.6466,18923.8262,-0.06004553234049245,0.31220261309247604,-0.2698139187041698,0.01854806613414585,0.04097779991124652,-0.031071823012238313,-0.5226816007519169,0.16877528876357184,0.26647610175183317
47.6625,18923.8462,-0.12755990871154108,0.31769182960171405,-0.23589164696850068,-0.005899010927169457,0.08801828706769398,0.0008792754233744079,-0.5818804915927457,0.1755754736234334,0.3947307266551372
47.6923,18923.8662,-0.19846516225775043,0.25368428375897556,-0.1286620489591535,0.10257524373645314,-0.007427670488368927,0.09362919165717912,-0.5818804915927457,0.1755754736234334,0.3947307266551372
47.6997,18923.8861,-0.23025236900636167,0.10760809880441387,0.03159547534321831,0.12184169692311901,-0.048193261623924614,0.0646771457713576,-0.64107938243357,0.18237565848329623,0.5229853515584432
47.7252,18923.9061,-0.24582980524912554,-0.043554928209802224,0.2036787807234413,0.12960433037540453,-0.05860948938187704,0.02785486011199201,-0.64107938243357,0.18237565848329623,0.5229853515584432
47.7404,18923.9261,-0.19615509688992724,-0.18527261625332783,0.3441998775687692,0.1609604683289608,-0.07110179972295097,0.07156633337679798,-0.7002782732743975,0.18917584334315854,0.6512399764617505
47.7594,18923.9461,-0.10854081728688367,-0.267657637458028,0.4131075298133079,0.13831779556540064,-0.04341724518354434,-0.0008418250729026504,-0.7002782732743975,0.18917584334315854,0.6512399764617505
47.7812,18923.9661,0.005292150376408455,-0.2720961805323102,0.3900678375542322,0.07952193200206559,0.00624344422256648,-0.09825236123584286,-0.7594771641152263,0.19597602820302004,0.7794946013650544
47.8092,18923.9861,0.12339364296346025,-0.19984420611210443,0.27971793724341143,0.03912345984783845,0.021808698863528625,-0.12152942710691307,-0.8292469045707689,0.08434773812709843,0.8311793009529526
47.8233,18924.0061,0.23311954536375634,-0.057167742379779125,0.11014260165167741,0.010289702855729038,0.059249739364843734,-0.09967081910231076,-0.8186760549560507,0.2027762130628829,0.9077492262683604
47.8417,18924.0261,0.30796613990313315,0.10388138213034727,-0.07713314350700708,0.013267617061082185,0.06474105839906925,-0.08144966539981684,-0.7046779746546221,0.12177589311312312,0.8866924968066242
47.8659,18924.0461,0.33960320621925394,0.23546976061950228,-0.2379890574136302,-0.017159789851480138,0.0376798239136422,-0.11596107071316343,-0.8557607758739364,0.11326209290990369,1.0513178362347453
47.8861,18924.0661,0.32665451478202256,0.31044812022730706,-0.3382617433248019,-0.05133053248589876,0.020068033474572422,-0.10555292076504026,-0.8336466059509926,0.016947787897059592,1.0666318212978267
47.9015,18924.0861,0.27012485285984855,0.31208778851445385,-0.3610899619489808,-0.06629068594304091,0.039568007898382065,-0.04110478032631599,-0.8009615864133314,0.03906195782000336,1.1585157316763157
47.9299,18924.1061,0.18402360362812556,0.24120945010914338,-0.3088938748894777,-0.05071103656626597,0.02750461612784455,0.05198606349995559,-0.9034163464065343,-0.09468050217886546,1.1183165208857255
47.9395,18924.1261,0.07152927204441355,0.10792544348320476,-0.20018917351186621,-0.019790149218333598,0.026339764019166614,0.10775328008085898,-0.8115324360280488,-0.07936651711578455,1.0819458063609082
47.966,18924.1461,-0.02892628261642996,-0.039839519858548826,-0.0633442641915974,-0.039873013427264355,-0.00530404668232185,0.10921365998143706,-0.962615237247362,-0.08788031731900316,1.246571145789033
47.9796,18924.1661,-0.10695362431293706,-0.19369584663758363,0.07184423749014711,-0.052083851969713095,0.024425813560603363,0.08246969931689854,-0.940501067324419,-0.18419462233184386,1.2618851308521137
48.0022,18924.1861,-0.13335409975648296,-0.3117335295500566,0.1810373496454501,-0.05993839378649407,0.06404672325780654,0.023879923864056,-0.940501067324419,-0.18419462233184386,1.2618851308521137
48.0233,18924.2061,-0.11251702202407757,-0.37520263515783864,0.2478579344652337,-0.03246721707090592,0.06627858604373789,-0.021669419033133002,-1.091583868543732,-0.19270842253506248,1.4265104702802383
48.0399,18924.2261,-0.050756887261932365,-0.36935897086827224,0.2647454728200261,0.011620664751254802,0.029129899680764685,-0.0636517519595038,-1.183467778922221,-0.20802240759814397,1.4628811848050567
48.0623,18924.2461,0.03493932439780806,-0.2988047819017841,0.2301697614169667,0.05507747578915348,-0.0035372984795855413,-0.05662090999222993,-1.161353608999277,-0.3043367126109881,1.4781951698681381
48.0826,18924.2661,0.12948497490948585,-0.17877213534653014,0.14813349707431012,0.04335042516575754,0.021699859749848473,-0.028605122868202503,-1.161353608999277,-0.3043367126109881,1.4781951698681381
48.1107,18924.2861,0.20784457255854724,-0.04098146960275152,0.029648373637101516,-0.022712000832276875,0.11931445541684274,-0.04521754243981975,-1.128668589461617,-0.2822225426880451,1.5700790802466236
48.1202,18924.3061,0.23965387822302694,0.09582454565505147,-0.10401455449808959,-0.04400351483262029,0.13389586975011883,-0.07439068398498953,-1.106554419538674,-0.3785368477008858,1.5853930653097046
48.1438,18924.3261,0.22805323024734245,0.18930788494973427,-0.2225437471213692,-0.06029560609756677,0.03954385453929443,-0.12167835561165154,-1.106554419538674,-0.3785368477008858,1.5853930653097046
48.1662,18924.3461,0.18260284563135665,0.24492986349903248,-0.2935353898353235,-0.0802302318244808,-0.0032819164151912483,-0.09098070685345201,-1.106554419538674,-0.3785368477008858,1.5853930653097046
48.1945,18924.3661,0.13767969761469656,0.25909086606142706,-0.2917947951347931,-0.06636087758251964,0.09300464262513562,0.05176879633687312,-1.106554419538674,-0.3785368477008858,1.5853930653097046
48.2051,18924.3862,0.10127511066346664,0.21334063138525106,-0.20806382685280422,-0.03647828531642663,0.10460174133615112,0.12543595578357233,-1.139239439076334,-0.40065101762382876,1.493509154931219
48.2211,18924.4062,0.10635020671488224,0.11907972910969376,-0.055637908348190476,-0.01889329190230024,0.07475090690517217,0.05987889140146766,-1.073869400001013,-0.356422677777942,1.6772769756881933
48.2518,18924.4262,0.14602105509710184,-0.012116235268777024,0.13128986484274902,-0.006107873705571638,-0.02024152339537306,-0.03349124122739186,-1.004099659545467,-0.24479438770201986,1.625592276100294
48.2626,18924.4462,0.22372678815332103,-0.14201395079412424,0.305621880998597,-0.004654191701851852,-0.11754257639475309,-0.03718918577049941,-1.0367846790831283,-0.2669085576249636,1.5337083657218051
48.2836,18924.4663,0.30984769972750714,-0.23885910681212832,0.41965618314564057,-0.01182095842482445,-0.0975587041819152,0.058946461135939314,-1.128668589461617,-0.2822225426880451,1.5700790802466236
48.3022,18924.4863,0.38679429676402144,-0.2774680373431113,0.4380180657228506,-0.07120370830823904,0.054532504170849046,0.07205599804919001,-1.0367846790831283,-0.2669085576249636,1.5337083657218051
48.3232,18924.5063,0.42718777836692695,-0.25943651310969873,0.3486209629951416,-0.14219074062456702,0.12444799878479439,0.02795784666154125,-1.0367846790831283,-0.2669085576249636,1.5337083657218051
48.3416,18924.5264,0.3992514599273471,-0.19991017970161212,0.1689720838897094,-0.19968021989055612,0.05632975224046287,-0.018302447992201303,-1.0367846790831283,-0.2669085576249636,1.5337083657218051
48.3637,18924.5464,0.30821062167120694,-0.12252942277746803,-0.058812279939649784,-0.25050244137575656,0.026982715326262802,-0.06163853719814845,-1.0367846790831283,-0.2669085576249636,1.5337083657218051
48.3852,18924.5664,0.15998589152844006,-0.03798386725132692,-0.28091468193357383,-0.26924693063415095,0.0741519671165304,-0.06897872166369656,-0.9449007687046428,-0.2515945725618827,1.497337651196988
48.4045,18924.5864,-0.016506212974893353,0.039792141666914076,-0.4503912814773693,-0.19232389289716767,0.05307247340602761,0.022418395414598193,-0.8751310282490977,-0.1399662824859571,1.4456529516090881
48.4201,18924.6065,-0.18326403169579616,0.09614349455673357,-0.5395221945271588,-0.13080097599204676,-0.004577040443118912,0.10149636863371056,-0.9078160477867577,-0.1620804524089001,1.3537690412306025
48.4429,18924.6265,-0.2920933694286417,0.13218914574974547,-0.5432661920013172,-0.10569282611775478,0.014879317869263083,0.09585967358161693,-1.0218141280881896,-0.08108013245914086,1.3748257706923401
48.4635,18924.6465,-0.333502118679497,0.15257401000805068,-0.4773562718018881,-0.08010934911936907,0.07411823070232737,0.09643413944629575,-0.8707313268688732,-0.0725663322559217,1.2102004312642143
48.4797,18924.6666,-0.30776249621836693,0.16331754099936077,-0.3682312601483685,0.001586074460901975,0.06115913463237255,0.15626358198999474,-0.9034163464065343,-0.09468050217886546,1.1183165208857255
48.5033,18924.6866,-0.23018677733504264,0.17902726013635636,-0.24291101466338472,0.04340666239203062,0.013259232620893981,0.10570369460497885,-0.9255305163294781,0.0016338028339786706,1.103002535822644
48.5202,18924.7066,-0.12493212655620087,0.18363080519956718,-0.12102959025072309,0.06012876313365942,-0.03435708392216788,0.025454967227793897,-0.8663316254886527,-0.005166382025883397,0.9747479109193413
48.5403,18924.7266,-0.021454112712867845,0.17782502131706546,-0.013852396145249996,0.053659401668291265,-0.027388644166395904,0.050675377803369115,-1.0130147253277433,0.053719768000936044,0.9039207300025883
48.5646,18924.7467,0.06112062067472944,0.15666219028305176,0.07416459308436352,0.029195750440785335,0.02779074729568643,0.11790530362880211,-0.9211308149492576,0.06903375306401696,0.8675500154777711
48.5883,18924.7667,0.10886054304063285,0.11102826760628397,0.1412567615990719,-0.03711945471571632,0.023451546436269493,0.15849425533924583,-0.9538158344869176,0.04691958314107398,0.7756661050992856
48.6158,18924.7867,0.11713262373696964,0.04709954339040548,0.1850473768043378,-0.07788853925365549,-0.005126634320053704,0.14929265598928015,-0.9865008540245789,0.024805413218130214,0.6837821947207968
48.6342,18924.8068,0.08273589301375214,-0.028397188024898126,0.2015220151039666,-0.1015393101270802,-0.019551762798957824,0.1086546995266346,-1.0413000434851831,0.09900554830802716,0.576584299279227
48.6484,18924.8268,0.03206421500122944,-0.08147779702960484,0.1868195297346612,-0.09037549003186911,-0.021051126116422642,0.0791203393587894,-1.0739850630228431,0.07689137838508414,0.4847003889007415
48.6616,18924.8468,-0.007947544174737864,-0.08916999623625753,0.14087330751416602,-0.0911103600609323,0.003559728878733497,0.06747271374462308,-1.2206681628619336,0.1357775284119036,0.41387320798398847
48.6874,18924.8669,-0.006914291949287749,-0.03774056783730232,0.07010090043072381,-0.08578274090056864,0.06788433207212743,0.13320110333462096,-1.3673512627010254,0.19466367843871987,0.34304602706724047
48.7069,18924.8869,0.01907212677408185,0.045938818390995076,-0.01313099688370839,-0.09236202898759287,0.0686177840576234,0.13536496942403434,-1.481349343002458,0.27566399838848255,0.3641027565289775
48.7232,18924.907,0.06770295895319224,0.13613527804457676,-0.09018088542532789,-0.0469689073306177,-0.03733669566621407,0.08953997479570987,-1.6059182729186048,0.2382358434024578,0.3085895606753059
48.7446,18924.927,0.12982558338167455,0.20769480066950896,-0.1408698147391051,-0.026884811746699995,-0.05863267973556112,0.04231183628598059,-1.6280324428415485,0.33455014841530195,0.29327557561222445
48.7636,18924.9471,0.18670554617288704,0.23430127406559126,-0.14953727921729698,-6.524070394116795e-05,-0.02199108456176798,0.046557447219906574,-1.8118002635985229,0.3039221782891396,0.3660170046618601
48.7836,18924.9671,0.22010400476425535,0.20428403372885787,-0.11084470362507669,0.02622437181200974,-0.004171149142442831,0.07678744515924225,-1.9257983438999546,0.3849224982388988,0.3870737341235977
48.8107,18924.9871,0.21644229490827774,0.12536299608349136,-0.0325130608991132,0.029755384493754432,-0.07780264702881873,0.1151933882989437,-2.109566164656929,0.3542945281127364,0.4598151631732334
48.8302,18925.0071,0.18582640915685394,0.0042778314326322765,0.06683343062466732,0.006388037245775915,-0.10673387157014846,0.1464235808877119,-2.201450075035418,0.3389805430496549,0.4961858776980519
48.8415,18925.0272,0.13115899970390343,-0.13674162950875093,0.1631422384542221,-0.057075222637427,-0.008686081550682286,0.22052852888240193,-2.2235642449583617,0.43529484806249913,0.48087189263497043
48.8639,18925.0472,0.08263719885969814,-0.24016213973770714,0.2360324498414864,-0.09951982761974847,0.11292981761893081,0.22496747887774932,-2.3481331748745085,0.39786669307647443,0.4253586967812988
48.882,18925.0672,0.02543290848679214,-0.3198784373501024,0.2735920244206456,-0.08308618750788965,0.10762709097090728,0.1718692984685277,-2.278363434418966,0.509494983152396,0.3736739971934007
48.9076,18925.0873,-0.028333751607386853,-0.36662999612722325,0.2768385871323299,-0.06320624714202085,-0.018049585634781262,0.06673075116831681,-2.5434443159397113,0.58198150289894,0.5593560660832622
48.9241,18925.1073,-0.07739841506627568,-0.38117594469285804,0.2567994705862072,-0.06414104637792718,-0.12755371884076566,-0.04219858170944657,-2.5982435054003163,0.6561816379888403,0.45215817064169195
48.9451,18925.1273,-0.10680036314282268,-0.36391073771884885,0.2274796717278632,-0.07528396036594932,-0.12361087117210269,-0.013259744135741929,-2.690127415778802,0.6408676529257594,0.48852888516650916
48.9619,18925.1473,-0.10525526716591124,-0.3130108639338656,0.19678791281379293,-0.05331338174784752,-0.044100774735752364,0.08410867856827482,-2.712241585701745,0.7371819579386002,0.4732149001034282
48.9903,18925.1674,-0.07161170321239743,-0.23033987365125794,0.16189011512809143,-0.05136777838446655,-0.019138174175188878,0.14655030411410888,-2.8041254960802338,0.7218679728755187,0.5095856146282467
49.0189,18925.1874,-0.022512801587222853,-0.13587379222089024,0.1124946057697487,-0.05567603888767631,0.00417711574094283,0.04806970324488586,-2.8041254960802338,0.7218679728755187,0.5095856146282467
49.0277,18925.2074,0.03022117921996706,-0.028387634390929624,0.04143896407849461,-0.05232489562638048,-0.026826027048841197,-0.06399478522491682,-2.8041254960802338,0.7218679728755187,0.5095856146282467
49.0471,18925.2275,0.08589009847789535,0.08313596464972688,-0.04828109991348668,-0.04575176193952209,-0.07235883810103147,-0.0766512196051136,-2.8960094064587194,0.7065539878124378,0.5459563291530639
49.0645,18925.2475,0.14891287244141244,0.19946614408575178,-0.14171602947823386,-0.03674795291504594,-0.07177986993028544,-0.06204684632489289,-2.950808595919323,0.7807541229023389,0.43875843371149686
49.0828,18925.2675,0.21502017243754035,0.29810006153964724,-0.21637458174301838,-0.0411325433850474,-0.023337301675285686,-0.03425043203689411,-2.918123576381663,0.8028682928252819,0.5306423440899825
49.1116,18925.2875,0.27538873592266033,0.35055898604280705,-0.2500600849921693,-0.06279273511588403,0.05735933303624154,-0.018040578847622606,-2.940237746304606,0.8991825978381227,0.5153283590269016
49.1347,18925.3076,0.30415982454382295,0.339802564152724,-0.22970556306420958,-0.06336060436308147,0.019696354828375305,0.025127439372257254,-2.8810388554637805,0.8923824129782606,0.3870737341235988
49.1494,18925.3276,0.29401405844455464,0.26357884905455636,-0.15739902320942012,-0.029471895702577758,-0.1298171937282074,0.04107925191321583,-2.8810388554637805,0.8923824129782606,0.3870737341235988
49.1888,18925.3476,0.23705503959722823,0.14337933666662397,-0.0505632061818969,-0.03162871171060812,-0.1890283297295458,0.06274681795415621,-2.9031530253867244,0.9886967179911047,0.37175974906051734
49.2026,18925.3677,0.16776246353645816,0.008769816876439577,0.06428855608998951,-0.07344812853118465,-0.1518048991996419,0.11387332278650611,-2.9950369357652096,0.9733827329280238,0.4081304635853345
49.2108,18925.3877,0.07908260631433925,-0.11140222372902873,0.1611887064360056,-0.14410544707504247,-0.008321118956951533,0.18890725540008532,-2.925267195309668,1.085011023003949,0.3564457639974359
49.2262,18925.4078,-0.012011180534974741,-0.18909055057585944,0.22263177891706032,-0.14168958109631016,0.030049858706170527,0.1675051955751761,-3.027721955302871,0.9512685630050801,0.31624655320684564
49.2415,18925.4278,-0.11353331814727594,-0.22824783097715032,0.2435221213701232,-0.14688026106075552,-0.024971921287903705,0.08420898517043801,-3.027721955302871,0.9512685630050801,0.31624655320684564
49.2617,18925.4479,-0.21405403614089938,-0.23820689515601784,0.2316637145754628,-0.11813087438915629,-0.10712702350930384,0.03657406893247063,-3.1417200356043034,1.0322688829548428,0.33730328266858267
49.2863,18925.4679,-0.2954030334276342,-0.22950293364802493,0.2030876151307533,-0.1302975357243493,-0.12075980039850266,0.020250700828919038,-3.3254878563612777,1.0016409128286803,0.4100447117182184
49.307,18925.488,-0.3431009470098463,-0.20913891132896112,0.1738971023328409,-0.14683073712667746,-0.017530333965557362,0.047160243956952126,-3.4500567862774267,0.9642127578426559,0.35453151586455134
49.3228,18925.508,-0.35701797325781615,-0.19448061087162452,0.15257298776782222,-0.08430258619727868,0.07861602452267577,0.10282906818382519,-3.4721709562003698,1.0605270628554966,0.33921753080147043
49.3491,18925.528,-0.33481029288080355,-0.19282853546559764,0.1391137703497465,-0.035769503729767636,0.018183204933927607,0.055564176109944526,-3.5640548665788554,1.0452130777924158,0.3755882453262876
49.3724,18925.548,-0.2872829190933418,-0.20345371347819913,0.1267805570791401,5.2029031365902625e-05,-0.13793320627255012,-0.07251529508920194,-3.655938776957344,1.0298990927293343,0.4119589598511061
49.3837,18925.5681,-0.19265010199534213,-0.19587432154388734,0.1094535843998744,0.01279705202200406,-0.15341903577411045,-0.13248352062253507,-3.7107379664179487,1.1040992278192345,0.3047610644095359
49.4113,18925.5881,-0.08695992349090895,-0.17225576383931504,0.0799515953702769,0.036626096122797734,-0.03562752842397816,-0.08820715273371474,-3.802621876796438,1.088785242756153,0.34113177893435437
49.426,18925.6081,0.04242933876215746,-0.10620176452861133,0.03706610333972901,0.06247256484337066,0.05155688302945066,-0.07184741391563831,-3.861820767637262,1.095585427616016,0.46938640383766034
49.4458,18925.6282,0.14516776875067716,-0.022181097547909624,-0.019255709721537784,0.06283984746802608,0.03237476346689323,-0.10924033694341695,-3.916619957097866,1.1697855627059128,0.3621885083960907
49.4647,18925.6482,0.20153401418837044,0.06421623953073786,-0.08444041524208858,0.024814347717189957,-0.06711781982491277,-0.16152304764802947,-3.857421066257042,1.1629853778460502,0.2339338834927846
49.4894,18925.6682,0.19944797678974055,0.13104132803746968,-0.1517512410994098,-0.03212117261304965,-0.08617373987995272,-0.13535584994592922,-3.916619957097866,1.1697855627059128,0.3621885083960907
49.5088,18925.6882,0.15128569289440785,0.18071823356476807,-0.21412160919808448,-0.0726114453993594,0.005526214655662318,-0.022685884791695015,-4.078273607931898,1.0428432875669096,0.45024392250880724
49.5335,18925.7083,0.06854160301421465,0.19589348187524036,-0.2647244631420361,-0.13764148762773273,0.07512120761760009,0.010295653413849786,-4.008503867476355,1.1544715776428314,0.3985592229209092
49.5505,18925.7283,-0.04927376377014975,0.17740800383460517,-0.2991551506253423,-0.15161646590076905,0.06240204457209404,0.018328030004249186,-3.9537046780157508,1.0802714425529345,0.5057571183624788
49.5729,18925.7483,-0.16709734095098924,0.12476862607901526,-0.3156241969331345,-0.13097634135938233,0.008930398662325157,0.031157895265285368,-4.045588588394236,1.0649574574898535,0.542127832887296
49.5859,18925.7684,-0.2750142262780416,0.057851985375353576,-0.3164443795915695,-0.11735408067179183,0.023007442110256907,0.03622357009933935,-4.045588588394236,1.0649574574898535,0.542127832887296
49.6128,18925.7884,-0.32653382392354713,-0.005486658176281824,-0.304354896808139,-0.10698692219570616,0.06179696852293785,0.04182140591433542,-3.986389697553412,1.0581572726299906,0.4138732079839901
49.6247,18925.8084,-0.3379168039988004,-0.049569509735675824,-0.2856383543669346,-0.06859106805121536,0.08723794421368632,0.07056881867475152,-3.9969605471681295,0.9397287976942028,0.33730328266858267
49.6488,18925.8284,-0.2898677534578975,-0.05877222018631132,-0.2635096000380895,-0.004519830256639407,0.11094315051278232,0.059354770262683716,-3.9271908067125847,1.0513570877701284,0.28561858308068283
49.6688,18925.8485,-0.20545429432702547,-0.04419332520596552,-0.24071821298954899,0.03451774771753171,0.12774108017514418,0.008851736047214497,-3.9271908067125847,1.0513570877701284,0.28561858308068283
49.6823,18925.8685,-0.09977026688941273,-0.015350924100609623,-0.21607428091081549,0.06572520959248548,0.14362732382096982,-0.008064474703091629,-3.9271908067125847,1.0513570877701284,0.28561858308068283
49.7068,18925.8885,0.011114067595677735,0.023903019569663276,-0.18632527490042972,0.030554762545069277,0.16301558264640043,-0.01484703868753031,-3.8723916172519797,0.977156952680228,0.39281647852225304
49.7243,18925.9086,0.10043468515476875,0.06032058912998098,-0.14858912450885958,0.027704353968522798,0.12537551455030935,0.01582802194270116,-3.9969605471681295,0.9397287976942028,0.33730328266858267
49.744,18925.9286,0.15141590558369494,0.09308219677077306,-0.1015085215596941,0.059985521550732716,0.056744042480677666,0.060097115688616566,-3.905076636789641,0.9550427827572843,0.3009325681437642
49.7658,18925.9486,0.15640718265150264,0.11926771858326467,-0.045282540209806085,0.10327482840161424,0.036268926955824586,0.11211795724865044,-3.9969605471681295,0.9397287976942028,0.33730328266858267
49.7908,18925.9686,0.12049346934722364,0.13655329580336997,0.02057879771770911,0.06873964974547073,0.09138973051313401,0.0699107001666656,-4.029645566705789,0.9176146277712598,0.24541937229009714
49.8085,18925.9886,0.04875510785153456,0.13055344222270626,0.09984402234302081,0.008983387535993764,0.2092086868115545,0.047520122605934516,-3.9598758262502445,1.0292429178471854,0.19373467270219719
49.8239,18926.0086,-0.04842628506245705,0.10595593529831997,0.1989602203292174,0.011276071819410382,0.18872246752545724,0.1068242954619698,-3.9925608457879056,1.0071287479242417,0.10185076232370842
49.8422,18926.0286,-0.14884549104198927,0.06725379853901117,0.3241017741085413,0.027984655608149247,0.07920389815691375,0.10795389328518534,-4.014675015710849,1.1034430529370822,0.0865367772606274
49.8635,18926.0486,-0.22890397931586046,0.015021425623161878,0.4760527157408932,0.01543706634021595,0.08291263327892488,0.08958400250276623,-3.830907194953874,1.1340710230632447,0.013795348210991727
49.8844,18926.0686,-0.26387436827922417,-0.05093504576056693,0.6459009062414703,0.05075180447128252,0.09328008963410264,0.0638936440105677,-3.853021364876818,1.230385328076089,-0.0015186368520897322
49.9215,18926.0886,-0.24188351444596093,-0.11257097763875704,0.8132896755642828,0.09027181564936843,0.05008675816378362,-0.005591074690590723,-3.7611374544983294,1.2456993131391705,-0.03788935137690822
49.9356,18926.1086,-0.13609788932359076,-0.16157179008819503,0.949685796306296,0.07865226757555845,0.05323683348481529,-0.08066271799238775,-3.820336345339157,1.2524994979990327,0.09036527352639902
49.9478,18926.1286,0.03589966534763295,-0.16663096622360943,1.021448250331682,0.07624134893985193,-0.006316652954469131,-0.12862784203327782,-3.798222175416213,1.1561851929861886,0.10567925858948048
49.9651,18926.1487,0.24397263530539215,-0.12117653458650003,0.9987753384320096,0.06377581697101248,-0.05879090828260902,-0.16541490552699825,-3.6736532455000646,1.193613347972213,0.16119245444314764
49.986,18926.1687,0.4636005214099759,-0.030268072412808524,0.8645963227759931,0.05734439419556704,-0.023817812078516607,-0.19547664105545337,-3.7063382650377243,1.17149917804927,0.069308544064662
50.0099,18926.1887,0.6674351108932804,0.08307380713238897,0.6215077573641387,-0.00471531178409766,0.008492236924872611,-0.24965464883643548,-3.6365685245821826,1.283127468125195,0.017623844476763337
50.0234,18926.2088,0.8337925634751454,0.22411730392839946,0.2941365456058785,-0.09247918943148797,-0.03464340934969244,-0.30644943381507167,-3.6365685245821826,1.283127468125195,0.017623844476763337
50.0429,18926.2288,0.921667027305191,0.3123960244327136,-0.0707184833365578,-0.1543830410451682,-0.06521738461863914,-0.29768351734015064,-3.6144543546592387,1.1868131631123509,0.032937829539844796
50.0844,18926.2488,0.9140177307530722,0.2731643009367338,-0.41623644599489407,-0.1571359894161783,-0.07209620934714084,-0.22524319952181757,-3.6144543546592387,1.1868131631123509,0.032937829539844796
50.0905,18926.2688,0.811158936824004,0.24212418337102798,-0.6980986506353216,-0.1570768245634877,-0.08653968187169239,-0.1606239253000133,-3.6144543546592387,1.1868131631123509,0.032937829539844796
50.1121,18926.2889,0.6269463092963855,0.09120800598401677,-0.879996015215065,-0.1691328089700775,-0.14474401260612402,-0.07451319586549418,-3.5923401847362957,1.09049885809951,0.04825181460292581
50.1329,18926.3089,0.38698080929770884,-0.11572005428043393,-0.9542263501597327,-0.1969156912950352,-0.17116449299361697,0.018847556947514218,-3.3758873444416615,1.1432409981486156,0.06739429593177577
50.1442,18926.3289,0.11719240890709344,-0.3349189590235446,-0.9342874319836963,-0.20996511998030584,-0.13770439777449542,0.11250463537149323,-3.294574283677889,1.04012650827591,-0.0455463439084469
50.1747,18926.3489,-0.12917313826762314,-0.5196499700175469,-0.848615344777489,-0.16105777531444723,-0.13555984033018564,0.19497867620315715,-3.272460113754946,0.9438122032630691,-0.030232358845365886
50.1895,18926.369,-0.35433409989707465,-0.647473907152021,-0.7314666901361112,-0.10511026965058726,-0.08622525605287566,0.1891273939353671,-3.3378301528302674,0.8995838634171824,-0.21400017960234027
50.2097,18926.389,-0.526257184187572,-0.690433812985835,-0.6077350440129391,-0.11491321007499525,-0.017402412790276996,0.09760374505548859,-3.2459462424517787,0.9148978484802639,-0.2503708941271588
50.2234,18926.409,-0.6507065645661947,-0.6547821310444686,-0.4913044453447438,-0.10512601490174106,0.061802119738598706,0.1388793375711982,-3.2459462424517787,0.9148978484802639,-0.2503708941271588
50.2616,18926.4291,-0.687289017890111,-0.5039303548717604,-0.3761580212728131,-0.023064516052346568,0.1324923695468311,0.2735118544036504,-3.2459462424517787,0.9148978484802639,-0.2503708941271588
50.2727,18926.4491,-0.7357378273897394,-0.36363907244660154,-0.2723947655000743,-0.014480645905503993,0.2366496812379715,0.31386803354113524,-3.2786312619894398,0.8927836785573202,-0.34225480450564755
50.2825,18926.4691,-0.770540117948064,-0.21923724878041942,-0.1680577712006529,-0.03730489381762588,0.3994139732526179,0.2894634755197957,-3.208861521533897,1.0044119686332418,-0.3939395040935455
50.3058,18926.4891,-0.7664959397312056,-0.060720036359828526,-0.05566291240297798,0.015060080117115949,0.4164914689084082,0.2374717305313817,-3.208861521533897,1.0044119686332418,-0.3939395040935455
50.3231,18926.5092,-0.7868775842154264,0.036046835026301974,0.05938245815091031,0.07852081279374451,0.3620049243545129,0.1901153373967491,-3.263660710994502,1.0786121037231422,-0.5011373995351157
50.3468,18926.5292,-0.8063075068427712,0.08520666933731066,0.1797029093817491,0.07149058840564188,0.2521015536231625,0.11934347825103873,-3.285774880917445,1.174926408735983,-0.5164513845981967
50.3652,18926.5492,-0.8210653397150659,0.07193373383740496,0.30352483416623943,0.04399517677003042,0.17482898501722727,0.05597554803370154,-3.4103438108335906,1.137498253749959,-0.5719645804518652
50.3835,18926.5693,-0.7997597653357008,0.017923763752977075,0.429042286393006,0.08560564080606911,0.08992572902323374,0.03634780480316358,-3.340574070378049,1.249126543825884,-0.6236492800397638
50.4051,18926.5893,-0.7178599963847848,-0.053443315214495926,0.5503481944977774,0.12399453130052465,0.13450387743897632,0.03788724315162983,-3.37325908991571,1.2270123739029404,-0.7155331904182526
50.4258,18926.6093,-0.5626662202476913,-0.12214332824672942,0.6570974113694116,0.11420451845762204,0.20984220863182587,-0.020643764883533155,-3.395373259838654,1.3233266789157845,-0.730847175481334
50.4507,18926.6293,-0.3442319241944335,-0.16502231504609552,0.7364509416826798,0.07514038063240498,0.1985415189942897,-0.15095256945823765,-3.633940270056231,1.3668988438795198,-0.7653036418732648
50.4692,18926.6494,-0.08424538718966953,-0.15963285353236914,0.7786253821937573,0.0827273935819575,0.13638768781921512,-0.18987669956751116,-3.5420563596777423,1.3822128289426012,-0.8016743563980833
50.4855,18926.6694,0.18884595645384045,-0.10281450126013793,0.7797321651826755,0.1420296629248857,0.13751473270970316,-0.18066093478136214,-3.553599679985969,1.5969556088912291,-0.7404184161457601
50.5101,18926.6894,0.4395266679109856,-0.025185893423013223,0.7423666360491338,0.09541777032871689,0.12139608394367503,-0.26657411380856755,-3.645483590364458,1.5816416238281477,-0.7040477016209417
50.5271,18926.7095,0.6594413262004576,0.07386651172440377,0.6738136445485717,-0.0004485931867921615,0.18615502335775683,-0.31520826757190096,-3.553599679985969,1.5969556088912291,-0.7404184161457601
50.5491,18926.7295,0.825213381706572,0.14123205568539188,0.5836392353716863,-0.04004013985886109,0.25438809891241204,-0.24374708767353861,-3.553599679985969,1.5969556088912291,-0.7404184161457601
50.5643,18926.7495,0.9180425041388255,0.17576926639392718,0.481004370607703,-0.09186386376210964,0.19860414492853726,-0.22851618097942455,-3.553599679985969,1.5969556088912291,-0.7404184161457601
50.5847,18926.7694,0.9447235052616304,0.13944102626600338,0.3705996306628129,-0.07705373354492281,-0.002954166701931585,-0.21718421488237102,-3.531485510063026,1.5006413038783883,-0.7251044310826793
50.6067,18926.7894,0.9155046211350126,0.04381792278772707,0.2509943551031631,-0.06895495623872017,-0.0857010371508978,-0.24668698995602364,-3.4396015996845404,1.5159552889414694,-0.7614751456074965
50.6275,18926.8094,0.8500056072404046,-0.08653781108461003,0.11638989200786111,-0.06693016612173255,-0.07141190546473321,-0.23555525421366988,-3.2337196090046225,1.4502689540547875,-0.8189025895940507
50.6518,18926.8294,0.7552052634209532,-0.23903248781993494,-0.038250336299569296,-0.07375681399817882,-0.13567134677747425,-0.21101153035306952,-3.1091506790884726,1.4876971090408126,-0.7633893937403805
50.6687,18926.8495,0.6467590145572757,-0.3582737537810241,-0.2136392314395118,-0.09372613879836465,-0.17229790091083855,-0.21303948482504811,-2.995152598787041,1.4066967890910533,-0.7844461232021179
50.686,18926.8695,0.5195723292595955,-0.4390531364676312,-0.4034245277453029,-0.11157838209158974,-0.17363827479304275,-0.21168840849285775,-2.9182392394034933,1.2361823489883081,-0.6619342426974694
50.7188,18926.8895,0.38190262099235633,-0.4872754168731767,-0.5958443279883686,-0.1310134460598527,-0.1069357854544199,-0.14702893506026293,-2.767156438184179,1.2446961491915276,-0.8265595821255908
50.7268,18926.9095,0.23505653590883915,-0.4348967520789849,-0.7691727529390758,-0.16584709539491407,-0.008079727010263467,-0.025468818727283453,-2.745042268261236,1.1483818441786868,-0.8112455970625098
50.745,18926.9296,0.10098400026469205,-0.3399409196519532,-0.905680960510976,-0.15835114710010129,0.0044679310388720025,0.030672824788412278,-2.539160277581318,1.082695509292005,-0.868673041049064
50.765,18926.9496,-0.02042109437665504,-0.21661380062850152,-0.9853787156272596,-0.11552731953786217,-0.061899764367421485,-0.021774128406001816,-2.425162197279886,1.0016951893422457,-0.8897297705108016
50.7861,18926.9696,-0.12503996180057078,-0.09026240531887803,-0.9928255400122855,-0.06655553844453581,-0.11645613418520041,-0.08057849107454078,-2.311164116978457,0.9206948693924826,-0.9107864999725374
50.8102,18926.9897,-0.21151873273586716,0.016975289452550876,-0.9205046188986511,0.00012750750852246983,-0.1181639598596907,-0.06400071939412877,-2.2519652261376293,0.9138946845326203,-1.0390411248758447
50.8282,18927.0097,-0.2746430302928281,0.09005701201334376,-0.7720185641645686,0.045431906132011105,-0.08801656008910928,0.036283868915525236,-2.1379671458361997,0.8328943645828571,-1.0600978543375803
50.8465,18927.0297,-0.32877810260915885,0.11132104571651306,-0.5637964733406432,0.06165230012393997,-0.05242482775712113,0.10904692896906275,-2.1379671458361997,0.8328943645828571,-1.0600978543375803
50.8652,18927.0497,-0.3818402559032842,0.07458925595670807,-0.3211806868042722,0.05433862550881628,-0.07126044019297509,0.1766711899098701,-1.9320851551562792,0.7672080296961794,-1.1175252983241364
50.8897,18927.0698,-0.4335428304609812,-0.0049132932601063245,-0.07345088562381548,0.048586884704972966,-0.0517540636602823,0.1720308610109432,-1.9320851551562792,0.7672080296961794,-1.1175252983241364
50.9095,18927.0898,-0.4691938641623038,-0.12484942072015333,0.151551244329095,0.03853237435714831,-0.032151482051586404,0.12634426652262631,-1.899400135618618,0.7893221996191231,-1.0256413879456476
50.9262,18927.1098,-0.4712146777652505,-0.2515577003330278,0.32988591259455,0.04130481917381099,0.008932258751190712,0.09354037054381326,-1.9099709852333355,0.6708937246833352,-1.102211313261055
50.9454,18927.1299,-0.4270166872393787,-0.34670213412477463,0.4433158890418464,0.07042285976961682,0.04942359885049168,0.054815896514799706,-1.8402012447777938,0.7825220147592604,-1.1538960128489535
50.9767,18927.1499,-0.3431208182417508,-0.37757372025581454,0.4794168146062761,0.0958512375443605,0.002553328479615632,-0.0014467274828943546,-1.8402012447777938,0.7825220147592604,-1.1538960128489535
50.9955,18927.1699,-0.20474923527341518,-0.3324828565205408,0.4349640902471295,0.1059084996056055,-0.027027127843510204,-0.062399450830970336,-1.770431504322248,0.8941503048351825,-1.205580712436853
51.0116,18927.1899,-0.03863047303330017,-0.20090608478766203,0.3166792251992268,0.11395268831979173,-0.05918309639114582,-0.048880456242095506,-1.8623154147007368,0.8788363197721011,-1.1692099979120345
51.0296,18927.21,0.11788620810660044,-0.0002157040578310242,0.1468658312862717,0.10882405318836147,-0.046094535579717544,-0.07480243875837313,-1.7377464847845867,0.9162644747581262,-1.1136968020583642
51.0475,18927.23,0.23297664425884745,0.23126404838419387,-0.034777177901146386,0.06509695871515407,-0.07893238465858544,-0.15040432879297932,-1.921514305541561,0.8856365046319638,-1.0409553730087286
51.073,18927.25,0.26543270640504363,0.43325773991379585,-0.1769820727960561,0.069269347486933,-0.1201836531966223,-0.1924806513026748,-1.888829286003901,0.9077506745549068,-0.9490714626302429
51.0898,18927.2701,0.23343057597802985,0.5779673856909183,-0.2332209297280557,0.07092044126906298,-0.09313680423293395,-0.18030316180532588,-1.888829286003901,0.9077506745549068,-0.9490714626302429
51.1168,18927.2901,0.11900847369373165,0.6125342751127959,-0.1733931763885953,0.08825394522985439,-0.034149553572802055,0.02604417280309595,-1.9480281768447285,0.914550859414769,-0.8208168377269357
51.1262,18927.3101,-0.03504960758719847,0.48995379383481147,0.005657408421059815,0.08805933723075107,0.039531345094014056,0.1825565457944255,-1.8932289873841244,0.8403507243248721,-0.7136189422853659
51.156,18927.3302,-0.21089045549535204,0.26656400294863797,0.2704110602512094,0.0558814504513846,-0.012966636035880347,0.190019050715665,-1.8932289873841244,0.8403507243248721,-0.7136189422853659
51.1755,18927.3502,-0.3714756478802126,-0.07323036507922573,0.562665838756656,0.029599085320703183,-0.02417536355766059,0.12561072663810474,-2.007227067685556,0.9213510442746314,-0.6925622128236284
51.1918,18927.3703,-0.48135337868524386,-0.4391680077951453,0.8044742242774773,0.06297515390689895,-0.014434352126627966,0.06286511848876851,-1.9524278782249531,0.8471509091847337,-0.585364317382062
51.2074,18927.3904,-0.5158910671978001,-0.7421579115200407,0.9253640665296049,0.04077117853746586,0.02310331864513319,-0.01605378071050111,-2.0443117886034385,0.8318369241216528,-0.5489936028572449
51.226,18927.4104,-0.4703107266916714,-0.9169435549969355,0.8810969727421493,0.023504604400194272,0.04139888962225459,-0.07547912547334804,-2.0116267690657774,0.8539510940445965,-0.45710969247875605
51.2441,18927.4305,-0.3551884947042536,-0.9345164651970087,0.6667185488430504,0.027706161735721692,0.054719149178175844,-0.1533153259286578,-2.0116267690657774,0.8539510940445965,-0.45710969247875605
51.2678,18927.4505,-0.20136119329818955,-0.8181764742198278,0.31851647993086,-0.014724785892638604,0.08644232457344911,-0.2874593266375977,-2.0487114899836625,0.7644369738916139,-0.31354108251237045
51.2859,18927.4705,-0.04136911262017556,-0.5799076821740479,-0.08882992252203088,-0.055477539787036706,0.09929519892438278,-0.395064956931471,-2.0265973200607195,0.6681226688787733,-0.29822709744928955
51.308,18927.4906,0.08880301809130985,-0.30624364941814924,-0.47049235985075033,-0.03540961140127527,0.03727985365534302,-0.38727798695170745,-1.9347134096822307,0.6834366539418547,-0.33459781197410804
51.3324,18927.5106,0.17355233564083625,-0.056245600515387024,-0.7485125616830609,0.036068870683356416,-0.04762706599721838,-0.32644720120969634,-1.8207153293808014,0.6024363339920915,-0.3556545414358438
51.3501,18927.5307,0.23079350070422505,0.13432346137065657,-0.8756968781816444,0.06945731886304075,-0.08360232463393766,-0.28578435952132325,-1.7659161399201964,0.5282361989021911,-0.24845664599427347
51.3662,18927.5507,0.26368923834630265,0.21689297720374848,-0.842919022895222,0.050272292297614714,-0.00860982906150866,-0.20526246893557556,-1.6413472100040465,0.5656643538882163,-0.19294345014060318
51.3897,18927.5708,0.27661961136378105,0.18521492544480056,-0.6751400643845163,0.056938088533696266,0.05847613697783827,-0.10810097645472372,-1.6086621904663865,0.5877785238111594,-0.10105953976211766
51.4173,18927.5908,0.28578051243501507,0.07297640314883518,-0.42277694226495666,0.05002568963740466,0.096014070495123,-0.03755748711126652,-1.4946641101649547,0.5067782038614,-0.12211626922385524
51.4296,18927.6109,0.2965882080149451,-0.08313385335184503,-0.14684842514581758,0.04721296910747461,0.08433861707346799,0.0008184023327486486,-1.370095180248808,0.5442063588474249,-0.06660307337018363
51.4475,18927.631,0.30694877557090544,-0.23293566002220692,0.09545330529560471,0.02117699928550246,0.03184262210313929,-0.0165089889165012,-1.347981010325864,0.4478920538345807,-0.051289088307102174
51.4659,18927.651,0.32046238041075714,-0.33409399504772014,0.2630921885955021,0.0027523839236549387,0.017983519542831373,-0.05715058245059923,-1.1420990196459468,0.38220571894790234,-0.1087165322936569
51.4875,18927.6711,0.33909664301253906,-0.35956802710568014,0.3380972495916213,0.003697134700448878,0.0600843113389637,-0.03703719446874832,-1.0175300897297979,0.4196338739339268,-0.05320333643998985
51.5093,18927.6912,0.3602375907476487,-0.30699074536869203,0.3262020029689177,-0.0016717347015092685,0.04768616643863734,-0.015513771312214205,-0.962730900269193,0.34543373884402645,0.053994559001580365
51.5354,18927.7112,0.37342209914320834,-0.20111836417033904,0.2526226036208213,-0.05311553437111355,0.025985533160369962,-0.08574006974005231,-0.907931710808588,0.27123360375412614,0.16119245444315064
51.5487,18927.7313,0.37242229271586536,-0.05197864568360872,0.15422498475834862,-0.06216615833712087,-0.04679957083396459,-0.15940474066417873,-0.7939336305071563,0.19023328380436688,0.14013572498141308
51.5679,18927.7513,0.3494814588517313,0.08679697276410187,0.06712788828724031,-0.030943553574496487,-0.13332247004019387,-0.13040215862764903,-0.7391344410465525,0.1160331487144657,0.24733362042298007
51.5862,18927.7714,0.31409349517828644,0.19917820612635148,0.01690540197125931,0.004385077082369291,-0.18261436493071626,-0.06861405739438198,-0.7064494215088912,0.13814731863740948,0.3392175308014689
51.6086,18927.7915,0.26834271263105075,0.26154543388957485,0.012596382686812208,-0.004733543417997604,-0.10889913501411073,-0.018628253024418357,-0.6516502320482882,0.06394718354751176,0.4464154262430353
51.63,18927.8115,0.21627795635569613,0.26634225206211015,0.04691947293594721,-0.027287233594413828,0.01705524995648658,0.004289699896922601,-0.6516502320482882,0.06394718354751176,0.4464154262430353
51.6483,18927.8316,0.14787550448373024,0.21389573915364657,0.10156633111076711,-0.05513996753971203,0.03419146096560354,0.01672293294482498,-0.5818804915927457,0.1755754736234334,0.3947307266551372
51.6683,18927.8517,0.05703705181869874,0.12042758997957607,0.1538811740722126,-0.0579412996482655,-0.02776209438582204,0.03395786600925648,-0.4899965812142569,0.19088945868651486,0.3583600121303187
51.7025,18927.8717,-0.05015967712365074,0.008550078003456377,0.18419473455264762,-0.08834090944582648,-0.057673696018748874,0.013411092250120379,-0.5597663216698027,0.07926116861059268,0.4100447117182181
51.72,18927.8918,-0.17323711278514956,-0.08204045459109834,0.1807966028645217,-0.10554036817425708,-0.06705693914015395,0.023115373159781676,-0.5597663216698027,0.07926116861059268,0.4100447117182181
51.7296,18927.9118,-0.2958772736990404,-0.13314813273636122,0.1426756491714654,-0.11498727385804496,-0.02923142342078528,0.03532961622128199,-0.6295360621253444,-0.03236712146533237,0.4617294113061168
51.7484,18927.9319,-0.3932615902800203,-0.14490486159742422,0.07857887449098831,-0.12219857473666242,0.011620026432778477,0.007449932139502713,-0.46788241129131386,0.09457515367367415,0.3736739971933996
51.767,18927.9519,-0.4636812227357703,-0.12199413575922853,0.0024080783112765125,-0.123258783590858,0.03332665829041256,-0.018010142302309736,-0.6516502320482882,0.06394718354751176,0.4464154262430353
51.7922,18927.972,-0.49919466316351957,-0.08742723468359444,-0.07014221626582899,-0.08674723307299469,0.014673583376723103,-0.04445528883330487,-0.6516502320482882,0.06394718354751176,0.4464154262430353
51.8104,18927.992,-0.5073354046930714,-0.05121012086182252,-0.1272394968065847,-0.047944233733049936,-0.020499250066619443,-0.03849623439563339,-0.5597663216698027,0.07926116861059268,0.4100447117182181
51.8285,18928.0121,-0.4903288780108326,-0.033242103891997825,-0.1631823488024438,-0.03139561610026895,-0.017636147127822608,-0.03243649050617214,-0.46788241129131386,0.09457515367367415,0.3736739971933996
51.8493,18928.0321,-0.4594412679616502,-0.03920191954411562,-0.18013686140366592,-0.007476054101064065,-0.03075455346128846,-0.017838817094416513,-0.46788241129131386,0.09457515367367415,0.3736739971933996
51.8696,18928.0522,-0.41974174052138113,-0.06571515741209943,-0.1854774110398606,0.0933075985134604,-0.12249061135886775,0.033536348570395155,-0.3167996100719996,0.10308895387689355,0.20904865776527842
51.8958,18928.0723,-0.37838677046159286,-0.10182687153974843,-0.1885406968374888,0.10231254087036143,-0.12251645429938424,0.02435350885213178,-0.3494846296096608,0.08097478395394979,0.11716474738678961
51.9246,18928.0923,-0.3308052161805656,-0.13454780668302374,-0.19503328384037932,0.023842193142107726,0.08778182107924018,-0.09540376858929647,-0.3494846296096608,0.08097478395394979,0.11716474738678961
51.9308,18928.1124,-0.2744884635311178,-0.13758603199990732,-0.2041963596280124,0.024401423503438425,0.17899335947279527,-0.13284607921890354,-0.3494846296096608,0.08097478395394979,0.11716474738678961
51.9471,18928.1324,-0.23135797727986787,-0.11535727939565013,-0.2102534599256104,0.09957986920682022,0.0743397670900256,-0.06592339021879862,-0.23548654930822824,-2.5535995812880745e-05,0.0961080179250526
51.9672,18928.1524,-0.20001118070705956,-0.07204384155807743,-0.2030520130042356,0.11765102691953083,0.042016626708810685,-0.04397021835643179,-0.327370459686717,-0.015339521058894346,0.13247873244987107
51.9907,18928.1725,-0.17239073903798183,-0.022827965494800723,-0.17408842819119041,0.09874631474680949,0.07939584134669046,-0.06086881802391537,-0.327370459686717,-0.015339521058894346,0.13247873244987107
52.0194,18928.1925,-0.14020629644740076,0.017526088936992677,-0.12035488325641099,0.0791275946996522,0.09301938800549758,-0.07445155707561528,-0.1436026389297427,0.015288449067268041,0.0597373034002354
52.0354,18928.2125,-0.08991847118807586,0.03408299969519018,-0.045608425434693387,0.11166931513726035,0.11840300807843228,-0.03362791854407987,-0.1436026389297427,0.015288449067268041,0.0597373034002354
52.0486,18928.2326,-0.030534622089894964,0.026000227057095777,0.03966213406747511,0.156102498938189,0.13151020537858704,-0.05525471109978979,-0.18068735984762327,-0.07422567108571325,0.20330591336662285
52.069,18928.2526,0.02357767547001985,-0.0010532958383262243,0.1218075495665952,0.14950381811094843,0.03674542524071362,-0.08328657790813344,-0.239886250688452,-0.06742548622585172,0.3315605382699269
52.0929,18928.2726,0.07620653719334984,-0.03864880466558352,0.1877328662915543,0.12438992786581006,0.03449144353319056,-0.0771299730631482,-0.21777208076550902,-0.16373979123869242,0.3468745233330078
52.11,18928.2926,0.14280593517194845,-0.07433897608179493,0.2271562167922364,0.10559457356767589,0.04316388448350154,-0.06720938211447088,-0.18508706122784782,-0.14162562131574866,0.4387584337114966
52.1266,18928.3127,0.21166085262130704,-0.09642799170401643,0.234216738829449,0.06885072405960854,0.08173990956549029,-0.022871949710211458,-0.25485680168339286,-0.25325391139167425,0.49044313329939654
52.1539,18928.3327,0.2729637918088518,-0.10049904897795373,0.2089588652783937,0.03502101818729481,0.12771495858677134,-0.0318721701565976,-0.25485680168339286,-0.25325391139167425,0.49044313329939654
52.1689,18928.3527,0.31837769501773816,-0.08642702797539013,0.15712213608212783,0.009574424761679664,0.09884052634916883,-0.10496160951679205,-0.22217178214573163,-0.2311397414687305,0.5823270436778853
52.1937,18928.3728,0.33770553086977706,-0.06239671504521102,0.08867352446285351,0.014741118361321746,0.06895330861577584,-0.0809850773779656,-0.1894867626080716,-0.20902557154578752,0.6742109540563709
52.2121,18928.3928,0.33303531135897185,-0.029948372880613423,0.015275413363804405,0.013162384961235094,0.04853185304909473,-0.019666349786881976,-0.09760285222958281,-0.19371158648270606,0.6378402395315523
52.23,18928.4128,0.30553476489151254,-0.002045362280617759,-0.051992934387025,-0.027602441509616896,0.04835604863728607,-0.001803734759677427,-0.06491783269192158,-0.17159741655976227,0.7297241499100411
52.2527,18928.4328,0.26114840437844516,0.009334074997168276,-0.10411847415695348,-0.07326770012428171,0.10203850553484195,0.002848079628046791,-0.12411672353275031,-0.16479723169990074,0.8579787748133452
52.2665,18928.4529,0.19034899279127815,-0.004468358641453924,-0.13514898791805768,-0.07658181678163659,0.12805281942528277,0.0037517961715818754,-0.03223281315426151,-0.14948324663681928,0.8216080602885266
52.2931,18928.4729,0.11447253949411254,-0.04685029995363852,-0.1437096370918437,-0.05776896115114519,0.05513829536369801,-0.011315633731983766,0.05965109722422728,-0.13416926157373782,0.7852373457637082
52.3093,18928.4929,0.030547707298742233,-0.10118785623191554,-0.1335625206797531,-0.04718463835798465,0.006909015829224776,-0.0267416023108388,0.05965109722422728,-0.13416926157373782,0.7852373457637082
52.3312,18928.513,-0.04006452889823875,-0.15301616389667044,-0.11326668718094098,-0.014046301455048421,-0.019536261353619185,-0.00956026819412808,0.05965109722422728,-0.13416926157373782,0.7852373457637082
52.3474,18928.533,-0.08146107003417727,-0.18114680980842032,-0.0941143308119284,0.003820544851155235,-0.01564012030258525,0.04895772295373128,0.18422002714037397,-0.09674110658771314,0.8407505416173798
52.3663,18928.553,-0.08757645294428665,-0.17010834360790272,-0.0867894510941963,0.014351826414043638,0.048118426624562824,0.0637787891225946,0.3679878478973483,-0.06611313646155074,0.7680091125677442
52.3862,18928.573,-0.06155592095835585,-0.11745492442851763,-0.0968639998017196,0.004954973153905859,0.06558728441453986,0.035654464129432586,0.3679878478973483,-0.06611313646155074,0.7680091125677442
52.4099,18928.593,-0.015234415581699357,-0.03328457536867083,-0.12095502354148209,0.0321445630328196,0.06716888272769214,0.01430504612817773,0.3353028283596871,-0.08822730638449451,0.6761252021892553
52.4261,18928.613,0.037382115088410856,0.057804706844355874,-0.1461567672592548,0.03036457990116519,0.04203721887241641,-0.017572736603945482,0.2434189179812016,-0.10354129144757543,0.7124959167140724
52.4479,18928.633,0.07929838260890275,0.13132458621205656,-0.1543150926052697,0.027703477631953716,0.011152035160881169,-0.020500579123193325,0.35741699828263007,-0.18454161139733521,0.6914391872523362
52.4689,18928.653,0.10118973356119225,0.16519539455853757,-0.1294959732378676,0.043600284282045085,0.008811502935896394,-0.01827851989054024,0.35741699828263007,-0.18454161139733521,0.6914391872523362
52.4905,18928.673,0.09551593324476874,0.14746080817669066,-0.0652820791409106,0.05363805673282827,-0.008658868322306409,0.02490921508510834,0.3901020178202913,-0.16242744147439145,0.7833230976308251
52.5126,18928.693,0.06140166459351305,0.07837510712673117,0.03162781202803791,0.06118901745757101,-0.003935374868182616,0.11149391235732985,0.41221618774323504,-0.2587417464872356,0.7986370826939065
52.5318,18928.713,0.005703106320462142,-0.033368029980243526,0.1424819563261204,0.03900980593239524,0.001733089877621423,0.12334119405175609,0.29821810744180577,-0.17774142653747238,0.8196938121556422
52.5608,18928.733,-0.06093382844064876,-0.15160095164837262,0.2419534173708689,0.014647510003885245,-0.05170729277713025,0.08969081754858123,0.29821810744180577,-0.17774142653747238,0.8196938121556422
52.5791,18928.753,-0.11493641343187647,-0.2574777316524942,0.3064723076868815,-0.005448480636510708,-0.06330329121719624,0.045779688203515335,0.29821810744180577,-0.17774142653747238,0.8196938121556422
52.5904,18928.773,-0.14001475987615683,-0.3139580488698219,0.32162262744898473,-0.0220204310611233,-0.004571949621298335,0.020256826422944265,0.206334197063317,-0.19305541160055384,0.8560645266804607
52.6145,18928.793,-0.12657106505586066,-0.3038031176693998,0.2853695605306984,0.0014707560644435403,0.046988248232962805,0.0274069260488969,0.14713530622249266,-0.18625522674069098,0.9843191515837667
52.6272,18928.8129,-0.07808295887179537,-0.23797010795169923,0.2068595422470486,0.0059035786334595865,0.07073871866113214,-0.005146203424508201,0.23901921660097816,-0.17094124167761007,0.9479484370589495
52.6491,18928.8329,-0.005910802318175062,-0.13879725409671473,0.10409749475879142,0.00959759410812643,0.03653438790690996,-0.04210956917126741,0.14713530622249266,-0.18625522674069098,0.9843191515837667
52.6745,18928.8529,0.07294959934848244,-0.03706570248257982,-0.0004336802318825883,-0.014456821082248682,0.0007586520418474334,-0.06083570153121645,0.055251395844003855,-0.20156921180377246,1.0206898661085853
52.689,18928.8729,0.14691133870403775,0.050629484463122175,-0.0849861276571496,-0.017420117718924696,0.012994769269068101,-0.051429660480658654,0.14713530622249266,-0.18625522674069098,0.9843191515837667
52.7182,18928.8929,0.19912746245632004,0.09611852299175697,-0.13411426827408768,-0.018628520292623005,-0.0022799644932149548,-0.03402416790758708,0.055251395844003855,-0.20156921180377246,1.0206898661085853
52.7299,18928.9129,0.22258308520881046,0.10211374630973796,-0.142424092071341,-0.029043365402454654,0.006172561321813105,0.022160737615911842,0.07736556576694759,-0.29788351681661657,1.0360038511716667
52.7489,18928.9329,0.21555300307659625,0.06709972663659727,-0.11580623125705718,-0.020153176720386103,0.04613092610215786,0.041291159181526225,-0.0958314053753104,-0.21008301200699186,1.1853152055367064
52.772,18928.9529,0.18074133559016153,0.003636785743062076,-0.0697942009010558,-0.034900515450830505,0.009471369647083795,0.047382679589993364,-0.003947494996824875,-0.19476902694391093,1.1489444910118891
52.7881,18928.9729,0.12380187728103814,-0.07706784682205733,-0.024869504192055983,-0.020177144353318268,0.00021026483000249934,0.07562013664780888,-0.1877153157537992,-0.22539699707007332,1.2216859200615249
52.8131,18928.9929,0.06374362694187645,-0.15122737884510012,9.287042709250903e-05,-0.037812272042060675,0.0007427435485454347,0.05650502906725758,-0.0958314053753104,-0.21008301200699186,1.1853152055367064
52.8282,18929.0129,0.013931582378165636,-0.19999552910564494,-0.006114616842793991,-0.07003736721134066,-0.02550310564633456,0.017767921000566983,-0.0958314053753104,-0.21008301200699186,1.1853152055367064
52.8471,18929.0329,-0.007445143855215941,-0.20781568823287902,-0.04404094699415319,-0.08550813458380865,-0.003953233541745894,0.02806466170735624,-0.0958314053753104,-0.21008301200699186,1.1853152055367064
52.8664,18929.0529,0.00047161586154675916,-0.17184558842728653,-0.10522535053972788,-0.06922606726295238,0.06208211101173015,0.07684908394912116,-0.0958314053753104,-0.21008301200699186,1.1853152055367064
52.8912,18929.0729,0.02839086858956344,-0.10433349000622594,-0.17575517500222138,-0.031467482975579185,0.07021187505962569,0.09337076815923966,-0.16560114583085547,-0.3217113020829174,1.2369999051246063
52.9198,18929.0929,0.051116753403245535,-0.032704008818137224,-0.23990557171584298,-0.019220530951217805,0.036928033730352576,0.017914169557919413,-0.2795992261322847,-0.24071098213315423,1.258056634586342
52.9293,18929.1129,0.05371311637000453,0.022186057057699476,-0.2825457167582926,-0.01645814573976725,-0.021668235401072326,-0.011519501158136037,-0.2795992261322847,-0.24071098213315423,1.258056634586342
52.9499,18929.1329,0.02917638236661485,0.050864232804883475,-0.2921578679441855,-0.03373493893111186,-0.02963436759962976,0.027125531573362782,-0.1877153157537992,-0.22539699707007332,1.2216859200615249
52.9752,18929.1529,-0.014000109911406267,0.05593503069164937,-0.2627563388024062,-0.05434358734164023,0.044607524331948846,0.12894745255853685,-0.0958314053753104,-0.21008301200699186,1.1853152055367064
52.9891,18929.1729,-0.08740550740626166,0.020727872580446977,-0.19582805652671992,-0.0757750016909094,0.11129228860707065,0.20029626609149886,-0.3122842456699448,-0.26282515205609724,1.1661727242078566
53.017,18929.1929,-0.15129253545424873,-0.020944295863889725,-0.09986875017562909,-0.06681472558635866,0.08926733462449578,0.18844649587449985,-0.2530853548291204,-0.2696253369159601,1.0379180993045505
53.0288,18929.2129,-0.23177393058100695,-0.10121029705969653,0.007524377821178804,-0.039348792612284585,0.05321832345350812,0.1335018317162972,-0.18331561437357466,-0.1579970468400379,0.9862333997166511
53.0486,18929.2328,-0.294739235160001,-0.17482613912339692,0.10736971036771681,0.023733865372549772,-0.04194956688235282,0.07812435605524924,-0.1462308934556941,-0.06848292668705662,0.8426647897502637
53.0693,18929.2528,-0.33302564418873637,-0.23150486578134882,0.1819467921202288,0.044703219102950574,-0.05810300792728602,0.04197913996048515,-0.1462308934556941,-0.06848292668705662,0.8426647897502637
53.092,18929.2728,-0.34453507324626365,-0.2602235854827679,0.21981822358488562,0.020804287678849464,0.06375050350203046,0.053063210924330056,-0.20103008291629715,0.005717208402841099,0.7354668943086973
53.1161,18929.2928,-0.3409845145156053,-0.2651284294178484,0.21746077547790843,0.022586642774842482,0.17664922935136262,0.06647232767037731,-0.34771318275538765,0.06460335842966054,0.6646397133919442
53.129,18929.3128,-0.34577839346728445,-0.26694011780865123,0.17954603157279952,0.015484104991566787,0.11356713972081668,0.05892100163577192,-0.3106284618375059,0.1541174785826426,0.5210711034255601
53.1482,18929.3328,-0.35605303861138504,-0.26118887209481584,0.1200428514329557,0.014828873161192574,0.02518793441575431,0.006635993833399933,-0.4351973917536527,0.11668932359661792,0.4655579075718885
53.1698,18929.3528,-0.3637594111697192,-0.24954958757211962,0.05621007674119481,-0.011736700476480644,0.04886367214280878,-0.01355549547227269,-0.5270813021321414,0.10137533853353645,0.501928622096707
53.2119,18929.3728,-0.3528399444611574,-0.21927862266922232,0.004549555426533916,0.028259780366866914,0.10836641895003338,0.011746653498576716,-0.5491954720550845,0.19768964354637714,0.486614637033626
53.2174,18929.3928,-0.3134402512331833,-0.20103886613829383,-0.025014014362693,0.07815278679854937,0.15160692002198048,0.040108728109843055,-0.39811267083577134,0.2062034437495958,0.3219892976055015
53.2267,18929.4128,-0.24352380468728976,-0.17981959210212323,-0.028653661882234685,0.115590979603816,0.13564995215619155,-0.02654922037348385,-0.45291186029637515,0.28040357883949696,0.21479140216393453
53.2488,18929.4328,-0.15400673837826026,-0.15997616720664803,-0.009935603782398786,0.08948418457939848,0.13995715298545527,-0.1293196513085025,-0.5447957706748606,0.265089593776416,0.2511621166887517
53.2667,18929.4528,-0.045270410447310255,-0.14239934302010862,0.02316777424339371,0.06978980919586518,0.1391080904215331,-0.10217140143829866,-0.728563591431835,0.23446162365025364,0.3239035457383874
53.2878,18929.4728,0.07110328064732864,-0.12288563215433453,0.05954120853023421,0.08305439754886135,0.1188205218136991,0.030301077801005955,-0.6366796810533495,0.24977560871333454,0.2875328312135702
53.3215,18929.4928,0.18543294281571646,-0.09812366367218203,0.08858220634632011,0.06392257256541205,0.13915021764979088,0.002295627616896123,-0.6587938509762925,0.34608991372617526,0.2722188461504893
53.3446,18929.5128,0.29123611142454503,-0.08207160705914053,0.10348264313157951,0.05935213038691083,0.14571847728670734,-0.08542230454999339,-0.7179927418171179,0.3528900985860373,0.400473471053792
53.3543,18929.5328,0.3848928179204111,-0.06909108382215333,0.10360078126358181,0.037502025191705785,0.11601345975417318,-0.10108257710031357,-0.7179927418171179,0.3528900985860373,0.400473471053792
53.368,18929.5528,0.46020397186053474,-0.05531131750041553,0.0935627602817277,0.03994191011407548,0.0657251072412348,-0.022033509028007763,-0.7877624822726638,0.2412618085101151,0.4521581706416914
53.3862,18929.5728,0.5125471199494108,-0.03831673427820322,0.08018753338711801,0.0162017784215794,0.05209341862581878,0.006310954500436036,-0.7877624822726638,0.2412618085101151,0.4521581706416914
53.4083,18929.5928,0.5371014645612278,-0.016651153327546925,0.06913929827008042,0.004928133458332217,0.06385781113194425,-0.03904715500827774,-0.8248472031905476,0.1517476883571333,0.5957267806080802
53.4372,18929.6128,0.5307151648893998,0.007734855906512676,0.06328414384937801,0.04022985709543799,0.07167643173812854,0.0030305074751107407,-0.8248472031905476,0.1517476883571333,0.5957267806080802
53.4479,18929.6327,0.49187490489727737,0.016563716280173075,0.06349887102833832,0.03696995889397017,0.09515811537121724,0.051725342904256615,-0.8248472031905476,0.1517476883571333,0.5957267806080802
53.4687,18929.6527,0.4301126855953932,0.014545793644178375,0.07009371791083471,-0.02830860499671526,0.08061168805610301,0.006639248055225842,-0.7108491228891158,0.07074736840737407,0.5746700511463426
53.4901,18929.6727,0.3566757340024753,-0.0031607824179257244,0.083882353493303,-0.056426046683548906,0.018305447774964064,-0.0016008244575915977,-0.7700480137299434,0.07754755326723636,0.7029246760496499
53.528,18929.6927,0.29576539540307206,-0.029230406587288423,0.1045697012775493,-0.03972465863592906,0.015185679116234039,0.05437313092166338,-0.8619319241084289,0.062233568204155446,0.739295390574467
53.5296,18929.7127,0.24044313042466814,-0.06947940212802484,0.12876624407529552,-0.036260375303239105,0.022071393005015694,0.07276044136209174,-0.8398177541854851,-0.034080736808688686,0.7546093756375485
53.5487,18929.7327,0.22393546358980035,-0.10421128673750384,0.14782615412566702,-0.06098525344562706,0.03342557998128438,0.040263399358980184,-0.8398177541854851,-0.034080736808688686,0.7546093756375485
53.568,18929.7527,0.23339800772399266,-0.12700872528621593,0.1496692373925973,-0.0790312236124369,-0.013055415046517267,0.005346747715901787,-0.8398177541854851,-0.034080736808688686,0.7546093756375485
53.5865,18929.7727,0.2510173079072001,-0.12526728456181552,0.1218463963780908,-0.08078036265904533,-0.012731938220952005,-0.014057985607155049,-1.0562705944801207,-0.08682287685779484,0.7354668943086955
53.6124,18929.7927,0.256644477638422,-0.09475009015590413,0.05609319861856221,-0.0813800986468166,-0.0005218942189138836,0.019784581408561496,-1.0235855749424594,-0.06470870693485108,0.8273508046871842
53.6282,18929.8127,0.21951956084893914,-0.03164309060393303,-0.046981049898180485,-0.11072051632782226,-0.014568630499081496,0.045573906529230185,-1.0562705944801207,-0.08682287685779484,0.7354668943086955
53.65,18929.8327,0.13777922169853746,0.04580773547987608,-0.17529262554905511,-0.15867082057016238,-0.01899868120613818,0.035106606313800866,-1.0562705944801207,-0.08682287685779484,0.7354668943086955
53.6776,18929.8527,0.015284754403438156,0.12140310307430477,-0.305073168369793,-0.22104716494652385,0.02547692806446824,0.06586531958743944,-1.0562705944801207,-0.08682287685779484,0.7354668943086955
53.7037,18929.8727,-0.14826337224334143,0.17667366403626397,-0.40667687784517714,-0.18798177319910697,0.05583282668903771,0.12525505933501468,-1.0562705944801207,-0.08682287685779484,0.7354668943086955
53.71,18929.8927,-0.3634162531656857,0.17564244508048546,-0.45473981088046156,-0.1424520699538253,0.07868944389658467,0.14742875258228988,-1.0783847644030644,0.009491428155049293,0.720152909245614
53.7327,18929.9127,-0.5353841023627673,0.12341795063428468,-0.430776473468491,-0.10352873418398974,0.10045499985822394,0.1642484852266986,-1.1110697839407255,-0.012622741767894474,0.6282689988671252
53.7467,18929.9327,-0.674129749205322,-0.0034991755278168243,-0.3369368106871225,-0.06047519510255581,0.09998892303846292,0.16699217707556288,-1.2577528837798175,0.04626340825892176,0.5574418179503772
53.7661,18929.9527,-0.7408523293226787,-0.16901002959242403,-0.18952132163610902,-0.03299896995107812,0.1121049605637092,0.1676016736810735,-1.1658689734013286,0.061577393322003224,0.5210711034255587
53.79,18929.9727,-0.733828076242533,-0.34099025154700424,-0.018925402147058193,0.0065542874832078026,0.11879883680275684,0.19646604700240894,-1.2206681628619336,0.1357775284119036,0.41387320798398847
53.8302,18929.9927,-0.6583485105937494,-0.46931421772085835,0.1412172201611648,0.028976720419183245,0.1300742422920861,0.16715488816685814,-1.2754673523225366,0.20997766350180136,0.306675312542422
53.8324,18930.0127,-0.5526444900776779,-0.6037999875531216,0.2560566866935402,0.0479472395218972,0.10268766214253841,0.07924591403630665,-1.2754673523225366,0.20997766350180136,0.306675312542422
53.858,18930.0327,-0.4080485706843847,-0.6567615223246852,0.3159756751269497,0.04402832553707364,0.07943950981173449,-0.029443372125592913,-1.4000362822386867,0.17254950851577608,0.2511621166887517
53.8758,18930.0526,-0.23668174649525384,-0.6389795008525007,0.3211380691264923,0.018434769874293697,0.14368891720127114,-0.06704839384649522,-1.3302665417831416,0.28417779859170167,0.19947741710085173
53.8893,18930.0726,-0.04878018868129205,-0.5514376326268592,0.2841812404481291,0.010218480779309414,0.15097120235210712,-0.06123118519547053,-1.2604968013276,0.39580608866762673,0.1477927175129531
53.9122,18930.0926,0.14702172646032544,-0.4137768216072235,0.2212467959711189,0.026362600802884554,0.17076688902270298,-0.05577251521973522,-1.1686128909491111,0.4111200737307082,0.11142200298813458
53.9266,18930.1126,0.3348147064165584,-0.24189133894922593,0.14744324283335952,0.05911177800444407,0.08194675188962956,-0.11120358982850397,-1.2234120804097153,0.48532020882060517,0.004224107546564874
53.9493,18930.1326,0.4942277600787043,-0.06292899067109263,0.07468732482780811,0.07745538747175837,-0.04724264653248473,-0.14446996815622207,-1.2234120804097153,0.48532020882060517,0.004224107546564874
53.9735,18930.1526,0.6174821835966066,0.11093543095641777,0.012747055121169013,0.10327847608171772,-0.07206379843082483,-0.13837672492443534,-1.370095180248808,0.5442063588474249,-0.06660307337018363
53.995,18930.1726,0.703757353026643,0.2692228862248301,-0.03037103065493528,0.10776718016030601,-0.08322568108439343,-0.15524450519697944,-1.3108962894079803,0.5374061739875625,-0.19485769827349092
54.0193,18930.1926,0.734736807074863,0.38883661430886685,-0.04562395356732739,0.0985381427615002,-0.07713052065086108,-0.11553285340583704,-1.3108962894079803,0.5374061739875625,-0.19485769827349092
54.0307,18930.2126,0.7302880390768476,0.4612575383361441,-0.02763298294117618,0.09948240326151134,-0.0964148105675259,-0.0826370735166455,-1.2782112698703192,0.5595203439105063,-0.10297378789500213
54.052,18930.2326,0.6612049207712108,0.46139864601929637,0.027878431515542618,0.023086116580390777,-0.05773752501437933,-0.024218814696509453,-1.370095180248808,0.5442063588474249,-0.06660307337018363
54.0665,18930.2526,0.5519517427987909,0.38675143384561544,0.11228500203224971,0.02504445345134084,-0.05863280220255431,0.10295024009063683,-1.4292940710896334,0.5510065437072869,0.061651551533119096
54.0882,18930.2726,0.40840377293814367,0.25422496764134916,0.2060864366967115,0.018084660472463557,-0.0729261010323672,0.16669987138567133,-1.337410160711148,0.5663205287703679,0.0252808370083019
54.1093,18930.2926,0.24490898658921206,0.07498264060686967,0.280905328511105,-0.007706745601358923,-0.08139966871133762,0.14666783894946803,-1.3047251411734866,0.5884346986933117,0.11716474738679071
54.1265,18930.3126,0.07349935995239934,-0.12365675644366562,0.30673368563653003,-0.058229408123196595,-0.11221844579831054,0.11355938609271295,-1.337410160711148,0.5663205287703679,0.0252808370083019
54.1478,18930.3326,-0.09245038841013445,-0.30089006300811794,0.2638017894535272,-0.13726989962180886,-0.12436852771474594,0.08343582034956569,-1.245526250332659,0.5816345138334493,-0.011089877516516584
54.1671,18930.3526,-0.24313312360722414,-0.42308485792726414,0.1522553561744021,-0.18140393028554508,-0.0689091994920353,0.06916873759035934,-1.337410160711148,0.5663205287703679,0.0252808370083019
54.1917,18930.3726,-0.3571422870437776,-0.47467995176409145,-0.005219191521732183,-0.21967260023769233,0.006776022182606822,0.06987720082434014,-1.4071799011666897,0.4546922386944428,0.07696553659620056
54.2132,18930.3926,-0.43727902306318966,-0.45803903880219543,-0.17121847483794111,-0.26140894937408427,0.0671132973265415,0.07884334765396092,-1.3744948816290283,0.4768064086173865,0.16884944697468937
54.2505,18930.4126,-0.43112476072899,-0.40220743096041334,-0.3016388616628519,-0.22956578511651257,0.08830882470280346,0.09433554921821377,-1.3523807117060853,0.38049210360454583,0.18416343203777027
54.2541,18930.4326,-0.42867963534112463,-0.31534615058196863,-0.36957603161549113,-0.2005700243299182,0.06126811816723586,0.04198966832521603,-1.4442646220845743,0.36517811854146437,0.22053414656258877
54.2694,18930.4525,-0.3331254029651707,-0.23176584519077392,-0.3556739294789325,-0.14861979797247268,0.03205982256014343,-0.005353516497299667,-1.536148532463063,0.3498641334783829,0.25690486108740723
54.2875,18930.4725,-0.17668564003586304,-0.15250454515544484,-0.2707482073702768,-0.07143797849810087,-0.029708207527461266,0.029258195418210134,-1.536148532463063,0.3498641334783829,0.25690486108740723
54.3069,18930.4925,0.00634801479641614,-0.07550420173782553,-0.14421868959968798,0.029312314917125253,-0.08021315862492358,0.0727244534971935,-1.6280324428415485,0.33455014841530195,0.29327557561222445
54.3275,18930.5125,0.17700852117725105,0.0007640334126722756,-0.013636646252725995,0.10108117089385639,-0.15866168262880173,0.026177213048331472,-1.6828316323021528,0.40875028350519893,0.18607768017065474
54.3467,18930.5325,0.31168054899642583,0.07673720299100487,0.08832203205565921,0.091237415494266,-0.21232730852873347,-0.017905432929440922,-1.5909477219236672,0.4240642685682799,0.14970696564583752
54.3697,18930.5525,0.39148046552034965,0.15172507405174168,0.1441711170553555,0.031179962330954488,-0.10810688405595205,-0.021625008476450065,-1.6130618918466109,0.5203785735811239,0.13439298058275606
54.3901,18930.5725,0.4208465372718043,0.21548725156866266,0.15535352385177412,-0.0479061295096561,0.020125433970612863,0.1013037952715423,-1.7376308217627565,0.4829504185951,0.07887978472908773
54.4071,18930.5925,0.39553377894411174,0.24192560067366967,0.13846327948638393,-0.054246905127118154,0.12230697136770252,0.21060028094119307,-1.7597449916856995,0.5792647236079407,0.06356579966600677
54.426,18930.6125,0.33186429203070206,0.21274499217282547,0.1138156400869653,-0.04345271050950393,0.08256600380397155,0.1724437643332065,-1.7270599721480395,0.6013788935308837,0.15544971004449237
54.4482,18930.6325,0.24967876191332594,0.12061604799000747,0.09574736934161442,-0.03815803973614347,0.0429267822661983,0.13888546316522343,-1.716489122533322,0.7198073684666716,0.23201963535989967
54.4662,18930.6525,0.16679794592569186,-0.03137576016565592,0.08791079150988601,-0.006449027723217372,-0.106228382398314,0.15619026628650523,-1.8083730329118108,0.7044933834035901,0.26839034988471816
54.4861,18930.6725,0.10089478240098175,-0.20580056961771692,0.08483917222232401,-0.02358712654028394,-0.15184973220115847,0.1054527366747576,-1.841058052449472,0.6823792134806463,0.1765064395062294
54.513,18930.6925,0.047881638352175154,-0.3678050308245455,0.07772897375168951,-0.04667431297144327,-0.17015426327301836,0.027652332659532784,-1.8631722223724159,0.7786935184934904,0.16119245444314795
54.5272,18930.7125,0.02232503741176195,-0.4784810003919857,0.05985026388205651,-0.040097190592675074,-0.22831307620989033,0.01139443184212586,-1.9771703026738443,0.8596938384432503,0.18224918390488418
54.5472,18930.7325,-0.0005462653986555432,-0.5231912240310916,0.027084479467971406,-0.06381659455435591,-0.23552297687017046,0.012251057881591969,-1.9400855817559626,0.9492079585962323,0.03868057393849998
54.5706,18930.7525,-0.01743947682089006,-0.4971204390681163,-0.02088826835218259,-0.12347745713378626,-0.17918645396674218,0.0817537705151995,-1.9074005622183026,0.9713221285191753,0.13056448431698553
54.5965,18930.7725,-0.02949713003312504,-0.41322432509333484,-0.08220794712745068,-0.2070320566664019,-0.058522220555511435,0.1196558835463256,-1.9992844725967882,0.9560081434560944,0.16693519884180272
54.6181,18930.7925,-0.056887678454557056,-0.2945280320313524,-0.1532030634197029,-0.25916845668037064,-0.007753287224506219,0.10337845739796325,-2.091168382975277,0.940694158393013,0.2033059133666212
54.6305,18930.8125,-0.11187188803692935,-0.16377339525358814,-0.227506182010842,-0.2403207829184463,-0.05785367493085217,0.10806798247390531,-2.1503672738161046,0.9474943432528754,0.3315605382699285
54.6555,18930.8326,-0.14262241507384196,-0.04639133783128972,-0.2942934780249812,-0.20331404344181175,-0.08498421835141308,0.13135174821344062,-2.334135094573079,0.916866373126713,0.4043019673195642
54.6702,18930.8526,-0.16120188783777903,0.052169064757453074,-0.3424046527046674,-0.2295008624392385,-0.015230354850984206,0.10127431585029589,-2.388934284033683,0.9910665082166099,0.2971040718779945
54.6894,18930.8726,-0.12264501074962506,0.12167999283605498,-0.3588485114579375,-0.25121764625665105,0.06332018117944704,0.10805171136477579,-2.2970503736551944,1.0063804932796914,0.260733357353176
54.7176,18930.8926,-0.018191459370832164,0.16063857202468548,-0.3349504903664365,-0.1603127749882317,0.13089599305751692,0.18642658124467945,-2.421619303571343,0.9689523382936669,0.20522016149950895
54.7297,18930.9127,0.09160804539477324,0.15230174285083717,-0.2689798479754409,-0.06284775077576416,0.032095163759594855,0.12234846497004186,-2.5683024034104336,1.0278384883204863,0.1343929805827558
54.7613,18930.9327,0.20652518607418693,0.11465084911661597,-0.16576717310354472,0.004511452744971355,-0.09136830232028255,0.010431756456097912,-2.5904165733333775,1.1241527933333304,0.11907899551967435
54.7805,18930.9527,0.30132805924325723,0.04676467520779018,-0.039834867124625375,0.06923628312252297,-0.13566583059069065,0.029315048587756826,-2.714985503249526,1.086724638347306,0.0635657996660073
54.7912,18930.9728,0.358309628875759,-0.03459779206720652,0.08615411548145771,0.09957041050730872,-0.13152680935989303,0.0993055116456235,-2.76978469271013,1.1609247734372028,-0.04363209577556235
54.8112,18930.9928,0.33430840749799695,-0.09370173293307824,0.1881878577670227,0.06110315663015257,-0.1350846850060857,0.14841076187445995,-2.861668603088619,1.1456107883741213,-0.007261381250743868
54.8273,18931.0128,0.23667033137775975,-0.13175021816002072,0.2472649829154479,0.02158162482816727,-0.14014827363974994,0.19760043044595663,-3.0083517029277096,1.204496938400941,-0.07808856216749689
54.8471,18931.0328,0.07530578298804474,-0.13084627045582933,0.2572582854647683,-0.025278465211488146,-0.08737495531302582,0.17031148333798576,-3.192119523684684,1.1738689682747785,-0.005347133117861202
54.889,18931.0529,-0.10939336588434126,-0.07393682371063492,0.2274342947997015,-0.05993131530091589,-0.0647520969945971,0.13930870342740434,-3.214233693607627,1.2701832732876193,-0.020661118180942215
54.9108,18931.0729,-0.3019844818348565,-0.014171715577284224,0.17766315799915222,-0.051358049321710356,-0.04896655266472951,0.14242892788400713,-3.3609167934467195,1.329069423314439,-0.09148829909769084
54.9186,18931.0929,-0.4655025730704866,0.038884366483196674,0.13308556934553892,-0.030952160975413787,-0.032227237940346744,0.13047751109115194,-3.5297140632087562,1.4842698783540984,-0.17762946507752336
54.9294,18931.113,-0.5733387689389478,0.07655226598728437,0.11469936502470002,-0.0024020649280465578,-0.038053888599118874,0.07252058607104124,-3.5297140632087562,1.4842698783540984,-0.17762946507752336
54.9509,18931.133,-0.6202404806280865,0.08876247101517587,0.13193195350848072,0.0046719273850968765,0.0008917767864050239,0.048006341631687356,-3.6763971630478456,1.5431560283809187,-0.24845664599427325
54.9667,18931.153,-0.6128023919263873,0.059639172913764575,0.18082493749924733,0.030036150004230485,0.04442414722292729,0.08169328027420034,-3.7682810734263343,1.5278420433178372,-0.21208593146945476
54.9887,18931.173,-0.565815497545747,0.002234748386712676,0.24633584632722882,-0.004713291360287299,0.09360424032884099,0.09019541335640975,-3.882279153727763,1.6088423632675972,-0.19102920200771836
55.0158,18931.1931,-0.5053784459544677,-0.07978646165954123,0.3085133281379927,-0.028106283624487444,0.10050540828480764,0.06760154264396626,-3.9741630641062518,1.5935283782045158,-0.15465848748289987
55.0277,18931.2131,-0.4571709201138886,-0.17741836189461063,0.3502964167529113,-0.021011286816755306,0.035604574419429665,-0.01570653609919574,-3.9962772340291957,1.6898426832173596,-0.16997247254598133
55.0514,18931.2331,-0.41950070332130307,-0.274980542867787,0.3637536624994818,0.02182595348137717,0.022592447802451742,-0.08763842961343454,-4.088161144407684,1.6745286981542782,-0.13360175802116286
55.0678,18931.2532,-0.3827310022246708,-0.34774242584168225,0.34923311210563124,0.030440636799248275,0.11524822835543028,-0.12762994448160478,-4.2021592247091135,1.7555290181040415,-0.11254502855942712
55.0902,18931.2732,-0.3382897053133128,-0.39393605114892283,0.3109092195814574,0.002090966302590497,0.1944116166059873,-0.06347315260870562,-4.2021592247091135,1.7555290181040415,-0.11254502855942712
55.1116,18931.2932,-0.2822758898481973,-0.41274905216102425,0.2535919720381708,0.04147621566360015,0.12746915816615556,-0.030789854262264337,-4.294043135087603,1.74021503304096,-0.07617431403460863
55.1301,18931.3132,-0.20706533310990236,-0.40555831587829955,0.1820142231806548,0.0684065060239239,0.0541725398928762,-0.17164501750028632,-4.2613581155499425,1.762329202963903,0.015709596343876794
55.1582,18931.3333,-0.11450727386556805,-0.3834144902221148,0.10092052435266101,0.07046115274891032,0.07742498101370728,-0.287675828101427,-4.294043135087603,1.74021503304096,-0.07617431403460863
55.1775,18931.3533,0.013612952317869742,-0.31593482457721833,0.018768156950562415,0.09779908394595313,0.1647546362132144,-0.2406247575439896,-4.294043135087603,1.74021503304096,-0.07617431403460863
55.1874,18931.3733,0.16236502325069024,-0.21167815329778072,-0.058271388189544096,0.13070359674422838,0.17420705501292694,-0.18879323512429813,-4.18004505478617,1.6592147130911972,-0.09723104349634566
55.2057,18931.3933,0.2879621431536006,-0.10757445692503893,-0.12434100012197478,0.12917158857792915,0.11775838698521042,-0.19460068110984513,-4.271928965164658,1.6439007280281157,-0.06086032897152717
55.2276,18931.4133,0.37510281079649277,-0.021720342248633923,-0.17245139815652888,0.09791411590171334,0.015820474872507775,-0.2241061361308838,-4.066046974484741,1.5782143931414343,-0.11828777295808139
55.2468,18931.4333,0.4287833652932609,0.03773773162699268,-0.1970168975207064,0.052558703634264646,-0.03306876050540034,-0.2148162899419921,-3.8495941341901028,1.6309565331905402,-0.09914529162923294
55.2666,18931.4533,0.45070874516284154,0.06308189091023197,-0.1939849490657527,0.033823181520465,0.047700319142299726,-0.1424942726582713,-3.882279153727763,1.6088423632675972,-0.19102920200771836
55.2896,18931.4733,0.4477294366691793,0.05414493596814907,-0.1616309051915722,0.030279006686761534,0.12926629000334916,-0.10701387494005822,-3.838050813881876,1.4162137532419123,-0.1604012318815561
55.3209,18931.4933,0.42267808660635353,0.015600812441756977,-0.10156894973430759,0.045503845036767195,0.06715376306168341,-0.1047943042299779,-3.746166903503391,1.4315277383049931,-0.1967719464063733
55.3302,18931.5133,0.41022980347420646,-0.037419509331316825,-0.020469202324223487,0.07991444526878555,-0.056817803566313524,-0.056615932947084426,-3.6913677140427876,1.3573276032150954,-0.08957405096480688
55.349,18931.5333,0.3973417042831252,-0.09714858366001693,0.07220589678845882,0.0825270046804373,-0.14230904366437158,-0.03564189900468834,-3.599483803664299,1.3726415882781768,-0.12594476548962535
55.3723,18931.5533,0.3991844113853824,-0.14825516201670533,0.1635586535094652,0.06551514639495878,-0.14218768671195134,-0.0382609733001018,-3.4854857233628698,1.2916412683284137,-0.1470014949513611
55.3871,18931.5733,0.4346465240053011,-0.17703448093502774,0.2399227230167379,0.039691310226894816,-0.06921832607329531,-0.05262261991707269,-3.3388026235237755,1.2327551183015948,-0.07617431403460938
55.4223,18931.5933,0.4530629204288308,-0.19329697835208334,0.2901819969164981,0.05201946857227518,-0.043948633015731924,-0.08303887419973809,-3.2840034340631727,1.158554983211697,0.031023581406957285
55.4345,18931.6133,0.49101120418652267,-0.17431129790171473,0.3045059354221136,0.05281312603205372,-0.08291302343910216,-0.10585326629708997,-3.261889264140229,1.062240678198853,0.04633756647003864
55.4487,18931.6333,0.5046088453985429,-0.14028971667408874,0.2785164002864472,-0.002513010886989515,-0.08846571292560937,-0.09679695838041028,-3.137320334224079,1.099668833184878,0.10185076232370902
55.47,18931.6533,0.4832974260711945,-0.10141086028337604,0.21237715003215552,-0.07319190163799195,-0.03794219471744312,-0.023978385131019072,-2.990637234384989,1.0407826831580622,0.17267794324046148
55.4883,18931.6732,0.42769331485602635,-0.05500941107191802,0.1119487243851472,-0.05842928640601723,-0.05950675884544732,-0.02936163373031871,-2.990637234384989,1.0407826831580622,0.17267794324046148
55.5105,18931.6932,0.3370979957927289,-0.010811315107281423,-0.010876028982060887,-0.08219839287379156,-0.1006316099234097,-0.07815869000976065,-2.990637234384989,1.0407826831580622,0.17267794324046148
55.5305,18931.7132,0.21853121711586343,0.03491818116438908,-0.1392348674873088,-0.12360688930248702,-0.10009969266152563,-0.05491550633064254,-3.060406974840531,0.9291543930821371,0.22436264282836013
55.5568,18931.7332,0.08115743285329265,0.06838470631605997,-0.2538655738573255,-0.14009577916357177,-0.06986450763837308,0.00350945235795862,-3.0056077853799272,0.854954257992236,0.3315605382699271
55.5803,18931.7532,-0.07231876265212114,0.08817129043861817,-0.3373601174561785,-0.13980977565135413,-0.04935017371967015,0.00445623948448361,-2.972922765842266,0.8770684279151797,0.42344444864841596
55.5919,18931.7732,-0.24120471766652027,0.08360885315352497,-0.3786449869769265,-0.10489066164272061,-0.05595532138489788,0.03616729120423253,-2.8483538359261202,0.9144965829012036,0.47895764450208433
55.616,18931.7932,-0.3977727705133257,0.03893985982412078,-0.3741744889275243,-0.10339517993561381,-0.01161774110038009,0.053554789844854976,-2.8483538359261202,0.9144965829012036,0.47895764450208433
55.6292,18931.8132,-0.541472719729991,-0.04263040732905092,-0.3309180269796458,-0.10707623985924213,0.038265415579015194,0.08541228154676961,-2.8262396660031777,0.8181822778883628,0.49427162956516524
55.6504,18931.8332,-0.6321622890631287,-0.14237658774662112,-0.2605915236604695,-0.08776903415573234,0.0947349498629335,0.1613468679068713,-2.918123576381663,0.8028682928252819,0.5306423440899825
55.6787,18931.8532,-0.6551805375130451,-0.24318507551559243,-0.18014214766047948,-0.07233128539249242,0.11512624132347349,0.13167334189976532,-2.918123576381663,0.8028682928252819,0.5306423440899825
55.6942,18931.8732,-0.6260413216050391,-0.3398284262576629,-0.10855169933568838,-0.05421128017873978,0.12323124219243227,0.04481930991524685,-3.0100074867601516,0.7875543077622005,0.5670130586148009
55.7119,18931.8932,-0.5225950625289022,-0.4043579316104821,-0.05438239425599718,0.022075345365195526,0.10082567978308814,-0.05071373167895961,-2.918123576381663,0.8028682928252819,0.5306423440899825
55.7354,18931.9132,-0.35222412764297806,-0.42673929315234393,-0.02033379076569379,0.030410396505015452,0.07064985497305813,-0.08099235152087059,-2.8854385568440017,0.8249824627482258,0.6225262544684712
55.7496,18931.9332,-0.13138824466627827,-0.3995486322928226,-0.0026553169752237954,0.030032781026790658,0.1388035857266873,-0.0985886946327908,-3.0100074867601516,0.7875543077622005,0.5670130586148009
55.7716,18931.9532,0.10387333455923335,-0.34194952500366904,0.004165814503371806,0.041926690948488846,0.12265757071363703,-0.10558335731035315,-3.0100074867601516,0.7875543077622005,0.5670130586148009
55.7878,18931.9732,0.32479463747702975,-0.26386114941696265,0.007282644856804313,0.06770404986705336,0.06525713053339778,-0.13683116098194387,-3.042692506297812,0.7654401378392575,0.47512914823631536
55.8155,18931.9932,0.4943160834856478,-0.19341637144007012,0.012828608829806812,0.04426346343861945,0.050867032795325465,-0.1735690282986492,-3.042692506297812,0.7654401378392575,0.47512914823631536
55.8329,18932.0132,0.6123691657274904,-0.11676917499021683,0.02553463547422291,-0.005579457086201525,0.07188154604118864,-0.15291907656515058,-2.8589246855408375,0.7960681079654198,0.4023877191866797
55.8588,18932.0332,0.6651019398159864,-0.051275295840935625,0.04702663926971871,0.0009055079975609599,0.07265737355514905,-0.06565807542758073,-2.7670407751623487,0.8113820930285013,0.3660170046618612
55.8704,18932.0532,0.6582514446495754,0.0068424128686284755,0.07519615270303241,0.03284402835435355,0.0765571269479478,-0.035404149386584004,-2.675156864783863,0.8266960780915822,0.329646290137044
55.8883,18932.0732,0.5966512275723462,0.045841884961149874,0.104441795689654,0.003908378693777694,0.0521778520045185,-0.043186908020455175,-2.707841884321524,0.8045819081686385,0.23776237975855524
55.9103,18932.0931,0.49154556961221707,0.06449415320465678,0.1268868079829114,-0.035436024450721124,0.01640878481376869,-0.08373834046749433,-2.79972579470001,0.7892679231055576,0.27413309428337246
55.9261,18932.1131,0.3581134009182163,0.07208161174146277,0.1350332551601861,-0.03324253483706067,0.007407699749378771,-0.05177020522349893,-2.777611624777066,0.6929536180927135,0.2894470793464539
55.9481,18932.1331,0.20866896635636575,0.06737120807133357,0.12484354491314051,-0.030873590194766636,-0.02172580947690556,0.020884891235343886,-2.810296644314726,0.6708394481697705,0.19756316896796838
55.9669,18932.1531,0.05504058718285984,0.05175494827927377,0.0972117019694582,-0.06018328161719917,-0.04330742471397765,0.06708718417066001,-2.6857277143985807,0.7082676031557944,0.2530763648216367
55.9871,18932.1731,-0.09282959137569316,0.021272184653347678,0.05822658962908981,-0.0984677772312102,-0.016903173982979487,0.02514753897765255,-2.6044146536348087,0.6051531132830921,0.1401357249814136
56.013,18932.1931,-0.22416024496177725,-0.025226948314275924,0.017680907001212207,-0.13091528760865495,0.047322240954113054,-0.01466078234420058,-2.6044146536348087,0.6051531132830921,0.1401357249814136
56.03,18932.2131,-0.34286688894499084,-0.07874644269384483,-0.01463950241419279,-0.09218951822916166,0.02740820251736194,0.03951224839163606,-2.5823004837118653,0.508838808270248,0.15544971004449507
56.0473,18932.2331,-0.43008246536219763,-0.13804565394353202,-0.031001564903510484,-0.07833405415697411,-0.007644220137273474,0.04633922293275767,-2.4904165733333765,0.5241527933333294,0.11907899551967657
56.0822,18932.2531,-0.4613193611494115,-0.20169234109500073,-0.028936103765133295,-0.09653181592830572,0.008764486234171262,0.01230637965263235,-2.5601863137889214,0.4125245032574039,0.17076369510757652
56.0927,18932.2731,-0.4568840959704348,-0.257153355389763,-0.015936602786132084,-0.10251018799372953,0.04483475755660062,0.012390606570479294,-2.5601863137889214,0.4125245032574039,0.17076369510757652
56.1141,18932.2931,-0.3957545837868135,-0.29976802028918753,-0.0030209680782480874,-0.06161692441546176,0.07027696815297858,-0.006276758371790172,-2.376418493031947,0.4431524733835663,0.09802226605794083
56.1286,18932.3131,-0.3031707624225837,-0.30719294502149275,-0.006047391431605986,-0.024483520705595684,0.04195420210462294,-0.03860419799032811,-2.376418493031947,0.4431524733835663,0.09802226605794083
56.1467,18932.3331,-0.19918515119186073,-0.2700329146573373,-0.037415056280691486,-0.013136926274386609,0.0869069678431578,-0.11528744679520116,-2.4577315537957163,0.5462669632562724,0.2109629058981621
56.1672,18932.3531,-0.10927849892502225,-0.18372864011616843,-0.1005418913222763,-0.0038272251651704724,0.07288025136136048,-0.08928832007916827,-2.5601863137889214,0.4125245032574039,0.17076369510757652
56.1881,18932.3731,-0.047983517491222955,-0.059907957247268724,-0.1853607118002874,0.010832158712674083,0.09050181534100123,-0.05154317539493875,-2.5601863137889214,0.4125245032574039,0.17076369510757652
56.2115,18932.3931,-0.017670780884456366,0.07230943521897817,-0.2683816701263809,-0.032520597510364076,0.08917302263716155,-0.08101111115257283,-2.5601863137889214,0.4125245032574039,0.17076369510757652
56.2526,18932.4131,0.0032201396085661527,0.17001535899945866,-0.3181067973291968,-0.10291039411200857,0.2340313898702208,-0.10546295110279467,-2.4356173838727724,0.4499526582434284,0.22627689096124357
56.2546,18932.4331,-0.033517395776692244,0.22546682082004066,-0.3087488141559192,-0.0684584488980815,0.20606838073920863,-0.031877530051369674,-2.4577315537957163,0.5462669632562724,0.2109629058981621
56.2682,18932.4531,-0.059228031761648564,0.19323843506445057,-0.22627019368396273,0.07059110516218908,0.10595163974925373,0.0152271394537885,-2.398532662954891,0.5394667783964104,0.08270828099485937
56.2858,18932.4731,-0.06497195368295655,0.07463352936546627,-0.0793354127886695,0.08490460930109546,0.005308890439071459,-0.016173421218806435,-2.4206468328778343,0.6357810834092545,0.06739429593177791
56.3101,18932.493,-0.03827503971659926,-0.10342696724761043,0.10343870986270061,0.10019004175359714,-0.048135204152178264,-0.0353360021530533,-2.3287629224993456,0.651095068472336,0.031023581406959426
56.3265,18932.513,0.04163987191606844,-0.29927637499922133,0.2810992687181989,0.09065956203752254,0.01613804922847597,0.019724282592375603,-2.3287629224993456,0.651095068472336,0.031023581406959426
56.3461,18932.533,0.14685315994302506,-0.45364857348730825,0.4106267435897609,0.055407767036327896,0.13274441672827686,0.030134729638258247,-2.4206468328778343,0.6357810834092545,0.06739429593177791
56.3678,18932.553,0.24066904740658734,-0.5322397341362037,0.4596058031170907,0.045512766562449965,0.1330319166492972,0.010316901568124797,-2.3287629224993456,0.651095068472336,0.031023581406959426
56.3879,18932.573,0.28718687214688576,-0.5305520449253566,0.4154753009375599,0.03960454218394319,0.06485554591954608,-0.06691343935312682,-2.2368790121208604,0.6664090535354169,-0.00534713311785777
56.4106,18932.593,0.27392642303648346,-0.46439188779295154,0.2902053614859187,-0.017870135158202283,0.04091643302918851,-0.158377172266446,-2.361447942037007,0.6289808985493923,-0.06086032897152933
56.4299,18932.613,0.21245605128915016,-0.34446252986837944,0.11757365240550381,-0.12250785115156708,0.030298480363627714,-0.1618174590108672,-2.2801348812732387,0.5258664086766853,-0.17380096881175394
56.448,18932.633,0.12067055446696484,-0.20035209306859014,-0.059560332348501985,-0.24188983082844753,0.20353481708414764,-0.16036971314796616,-2.2801348812732387,0.5258664086766853,-0.17380096881175394
56.4661,18932.653,0.02141693660571775,-0.06954019274442563,-0.2026948510950889,-0.1061865918938041,0.16863202357325485,0.038428783948423056,-2.210365140817694,0.6374946987526109,-0.22548566839965387
56.4907,18932.673,-0.05528722295392555,0.012041835794322676,-0.2873422452003123,-0.01661488389028851,0.13753897490717415,0.0685640266051809,-2.0044831501377756,0.5718083638659291,-0.2829131123862081
56.507,18932.693,-0.09585016975888813,0.025440067213379776,-0.3067745651458279,0.0005330272503034474,0.021280293430606126,-0.0731094777096495,-1.912599239759287,0.5871223489290106,-0.3192838269110266
56.527,18932.713,-0.07838699378425343,-0.023588518544336225,-0.2696041443280564,0.028078918015064402,-0.00019539144193371366,-0.17214119061633015,-1.8207153293808014,0.6024363339920915,-0.3556545414358438
56.549,18932.733,-0.000242253632209255,-0.10586607119659364,-0.19586311520152938,0.08775868334339428,-0.017123763887212068,-0.11749916908793667,-1.8207153293808014,0.6024363339920915,-0.3556545414358438
56.5741,18932.753,0.12385083289735174,-0.19256855031120823,-0.1119169960115639,0.1127805640413492,0.00842488289578041,-0.004898691140926167,-1.8904850698363431,0.4908080439161664,-0.3039698418479451
56.5905,18932.773,0.2757187707937612,-0.27425792595645093,-0.045593355659054494,0.10111649845567923,0.059522538631502094,0.0022435600676816467,-1.8904850698363431,0.4908080439161664,-0.3039698418479451
56.6181,18932.793,0.4082534095860241,-0.34215243205284634,-0.019791396046917695,0.025918213777684294,0.03294615785183626,-0.07629497802758367,-1.8683708999134,0.39449373890332573,-0.2886558567848642
56.6273,18932.813,0.4983432853024634,-0.3660801201850791,-0.04596599255941848,-0.040581998610987755,0.07327112245372426,-0.12151717591886262,-1.7438019699972533,0.4319218938893505,-0.23314266093119257
56.6475,18932.833,0.5255170169017053,-0.3348584553923493,-0.1230606843647558,-0.041303208490801505,0.12018925414042195,-0.04480061919647736,-1.6519180596187646,0.44723587895243194,-0.26951337545601106
56.6689,18932.853,0.4869377554014299,-0.23182898725507514,-0.2376040708407708,-0.04467200188431652,0.2047377885748361,0.10491425867497702,-1.5379199793173322,0.3662355590026693,-0.2905701049177481
56.6942,18932.873,0.40138375994965825,-0.07283013198105663,-0.366608314796741,-0.040333488994551914,0.24914587405646352,0.13457285354664647,-1.5379199793173322,0.3662355590026693,-0.2905701049177481
56.7171,18932.893,0.27461504282686816,0.09959285379160737,-0.4776445901549239,-0.24166585963365336,0.4014971456166133,0.05117882506231792,-1.5052349597796708,0.388349728925613,-0.19868619453925931
56.7297,18932.9129,0.09226587780671694,0.25473939691844305,-0.5356795111487324,-0.3332760486811534,0.44873878077536333,0.00592140500539391,-1.5052349597796708,0.388349728925613,-0.19868619453925931
56.7607,18932.9329,-0.011896870127334341,0.3553541272019495,-0.5117910051686413,-0.2672109073798675,0.43694297099224433,0.06370643054317154,-1.4460360689388465,0.3815495440657502,-0.32694081944256526
56.7799,18932.9529,-0.13648027063344356,0.3756894064054574,-0.3956003918383769,-0.146333015893708,0.38653595290660414,0.13455466818938408,-1.3541521585603578,0.39686352912883166,-0.36331153396738375
56.7912,18932.9729,-0.24249178634234306,0.27795475958012655,-0.1947754863665328,-0.07559709385256531,0.29712360658012804,0.20005334800343572,-1.2949532677195335,0.3900633442689688,-0.49156615887068983
56.8121,18932.9929,-0.2897791786377616,0.08648432159042457,0.06573608015804301,-0.0640553385090165,0.17728389913738613,0.22744566451058243,-1.3276382872571935,0.3679491743460258,-0.5834500692491753
56.8272,18933.0129,-0.31258225461880906,-0.19985606666290323,0.3462179473384984,-0.00875310383760935,-0.01823906175071268,0.21427984870222488,-1.3276382872571935,0.3679491743460258,-0.5834500692491753
56.8491,18933.0329,-0.30722603986878927,-0.5051070762780654,0.6017224817891423,0.02144390179871183,-0.043241227477992486,0.1490552892208024,-1.3232385858769697,0.43534912457606467,-0.8189025895940496
56.8676,18933.0529,-0.2726532622754524,-0.7849209572973835,0.7872992719023201,0.01605004138816572,0.0475847957869165,0.14174994407127278,-1.264039695036142,0.42854893971620234,-0.9471572144973568
56.8873,18933.0729,-0.19785630750466146,-0.9801211807762175,0.8646297452296049,0.021142610220195254,0.12194855725892143,0.08348137945512835,-1.135071063739772,0.5333770449322616,-1.1270965389885623
56.9138,18933.0929,-0.07462610247199317,-1.0560501042543275,0.804948675166658,0.03170977012361088,0.18601308390949067,-0.05935235065304374,-1.167756083277432,0.5112628750093187,-1.218980449367048
