AppTimestamp(s),SensorTimestamp(s),acc_x,acc_y,acc_z,gyro_x,gyro_y,gyro_z,mag_x,mag_y,mag_z,yaw_deg_ori,yaw_deg_ori_cal,yaw_deg,yaw_error,Quat_w,Quat_x,Quat_y,Quat_z,q_w,q_x,q_y,q_z,quat_angle_error_deg
0.0613,18876.1921,0.22900663778963448,-1.558723990743817,1.8712822227223818,0.48662167888141133,-0.14079534061867183,0.24224186536163542,168.82063884030532,-1292.5148678855462,-1162.9915689830634,106.662933,131.00698545608702,0.0,106.66293300000001,0.4701176133486809,0.122566,0.43373299,0.758843,1.0,0.0,0.0,0.0,123.91613731653307
0.0655,18876.2122,0.6725218261885821,-1.4904063298047794,1.7371522348949089,0.4176129390794313,0.021157143679148355,0.2033574595043734,177.62839153905833,-1287.8567162058382,-1166.9973338217383,107.100029,131.1274853046847,0.0,107.100029,0.4687170384819179,0.121441,0.43214101,0.76079601,1.0,0.0,0.0,0.0,124.09790217835656
0.0666,18876.2323,1.025978209036241,-1.4016950963852028,1.5651941914110559,0.3530299013361063,0.19288261331404863,0.18772305742955706,183.84580109267944,-1284.8072174470071,-1169.5488817117916,107.381699,131.19632203987496,0.0,107.38169900000003,0.467834684198617,0.120575,0.43103701,0.76210201,1.0,0.0,0.0,0.0,124.21233448227926
0.0688,18876.2523,1.2434468264125504,-1.2729484008953817,1.3462374797031949,0.294693992562862,0.36937853595717074,0.20759700834597844,186.07957232990026,-1284.3575060477376,-1169.8397917787916,107.550797,131.3751942669358,0.0,107.55079699999999,0.4666545215048278,0.120403,0.43139499,0.76265001,1.0,0.0,0.0,0.0,124.36529501235546
0.1037,18876.2724,1.3253008747745891,-1.114930991127752,1.1066118706870096,0.2353190667572831,0.5300257944892032,0.26826501071787934,184.45322492658636,-1284.0853219770513,-1170.5308208899178,107.841362,131.8044372748957,0.0,107.841362,0.4642306517761186,0.121605,0.432917,0.76307601,1.0,0.0,0.0,0.0,124.67911497671426
0.114,18876.2924,1.3126705833244516,-0.9454063427151638,0.8881326671570484,0.163294706637242,0.6493184387213888,0.36905306190284337,180.23615347753758,-1280.9871640415581,-1174.6866043900693,108.508698,132.5809333539893,0.0,108.50869799999998,0.4597804902621679,0.124589,0.43487999,0.76417202,1.0,0.0,0.0,0.0,125.25411230286379
0.1587,18876.3125,1.18668173783335,-0.712847247698974,0.719633553106835,0.07468953123343279,0.7101939625000866,0.4940822299362003,172.69481232096183,-1280.8694107683566,-1176.0377384967155,108.948174,133.30450489943755,0.0,108.948174,0.455989700874416,0.12776799,0.43775499,0.76427698,1.0,0.0,0.0,0.0,125.74273715642654
0.1672,18876.3325,0.9134851011873018,-0.45062090923383025,0.5727639158628541,-0.024422259827934445,0.7039711324944046,0.6051450685676503,167.62947317565227,-1280.4737296504654,-1177.2835305070566,109.407234,133.99094467559237,0.0,109.40723400000002,0.452276290989678,0.130302,0.440256,0.76461899,1.0,0.0,0.0,0.0,126.22035505153154
0.1972,18876.3526,0.5071313832944115,-0.20229168755710303,0.4051267666834004,-0.11251495419831695,0.6268705782108425,0.6349122018415463,178.5851917495379,-1280.244437054421,-1176.0107567199202,110.344307,135.16355975853824,0.0,110.34430700000001,0.4447936436022436,0.129397,0.443771,0.76712602,1.0,0.0,0.0,0.0,127.17972619880702
0.1992,18876.3726,0.11979268189902115,-0.014887390937956102,0.21581777806860103,-0.14265873045922453,0.48305119078040226,0.5246242203189753,198.4797877368473,-1286.1295969155854,-1166.4653476631315,111.26757,136.73037227866138,0.0,111.26756999999998,0.4346578708341302,0.12560201,0.45041701,0.76968902,1.0,0.0,0.0,0.0,128.4729486628107
0.2077,18876.3926,0.009146774181254536,0.04479818714005379,0.046513035914593104,-0.0821995751539497,0.29106681227169856,0.27831478761918277,211.53323028210247,-1292.5084325402333,-1157.2032391323698,112.030655,138.19812431729787,0.0,112.03065500000002,0.4254098856273087,0.123361,0.457277,0.77117199,1.0,0.0,0.0,0.0,129.64677881591797
0.2428,18876.4126,0.30748087804919155,0.04089640772384784,-0.07994178610759661,0.05292334500983305,0.09911043137626446,-0.03287975359080452,218.04053406588105,-1296.6679940071324,-1151.4598320215528,112.366226,138.9563036554869,0.0,112.36622599999998,0.4206532542230465,0.122168,0.46115801,0.77165997,1.0,0.0,0.0,0.0,130.2483259455955
0.2546,18876.4327,0.975373571696736,0.023448204259218564,-0.17340735344189362,0.21672824191746906,-0.031473551978751194,-0.2883831052708807,217.22438920142895,-1295.5294980850115,-1153.036614442079,112.196907,138.63124609506727,0.0,112.19690700000001,0.4226255461136013,0.122202,0.45964101,0.77148199,1.0,0.0,0.0,0.0,129.99907897821961
0.2677,18876.4527,1.8744182484534448,0.009855069916202108,-0.25313476597282225,0.3540368409811275,-0.05623855120319479,-0.3756217232201519,199.09566617960996,-1289.309180498391,-1163.38311957373,111.615448,137.46867291290243,0.0,111.61544800000001,0.4304995856305085,0.12644,0.45398599,0.76979202,1.0,0.0,0.0,0.0,129.00146144615877
0.2874,18876.4727,2.7467234287633584,0.048408150373864034,-0.35957681222558335,0.43125398390272573,0.038136235101620966,-0.2520895818181071,172.77217860189887,-1279.6018287494935,-1178.3592197312194,110.965309,136.02142514294295,0.0,110.96530899999999,0.4402030208243689,0.133011,0.44669801,0.76745701,1.0,0.0,0.0,0.0,127.76632924047964
0.3086,18876.4927,3.2932062472750587,0.3005357490327143,-0.5517188028110063,0.44252747115714086,0.24201195485465957,0.035314154681808346,178.84183994571464,-1271.718985758649,-1186.1055754711183,110.944481,135.26921213847405,0.0,110.944481,0.4438100175204246,0.131868,0.441277,0.76871198,1.0,0.0,0.0,0.0,127.30554172492836
0.3257,18876.5127,3.507689728751344,0.6644300437211641,-0.9559453059862406,0.39238962238682057,0.5068139032357337,0.38375053796240294,196.95161200504117,-1260.3455678967025,-1195.4780799435694,111.944489,135.54529880047096,0.0,111.94448899999998,0.440497613908089,0.12976401,0.437803,0.77294999,1.0,0.0,0.0,0.0,127.72872966160713
0.3499,18876.5327,3.423194379442892,1.0451431314614883,-1.6174175318115758,0.3039046863672678,0.7652284991593222,0.7196298138000587,221.52346542147848,-1248.2175707478295,-1204.0056183927663,113.676125,136.73700028140118,0.0,113.67612500000001,0.4312816981213552,0.12734,0.43716601,0.77888799,1.0,0.0,0.0,0.0,128.90214508760786
0.3673,18876.5527,3.1245895464266047,1.3070889421053986,-2.4766056749470122,0.2155092292355786,0.9511218592258861,1.0360261359887164,237.65494598583803,-1235.1423827701879,-1214.5033906838976,115.523674,138.0897155013613,0.0,115.52367400000003,0.4214434509746471,0.127395,0.43723601,0.78420699,1.0,0.0,0.0,0.0,130.14849565945104
0.3917,18876.5727,2.65402256303921,1.488065632182885,-3.4146003645556844,0.154338021395601,1.0277766305546492,1.3675080056586109,250.88733539888494,-1222.634962929044,-1224.6041561311981,117.453636,139.59443902962695,0.0,117.45363600000002,0.4107732524530044,0.128196,0.43821499,0.78917599,1.0,0.0,0.0,0.0,131.49316285839691
0.4066,18876.5927,1.9914233221610227,1.6469970567191095,-4.293457648145507,0.139629958231699,0.9759605459061635,1.7510904264646845,267.40141370900335,-1206.3700745665428,-1237.355734301505,119.633743,141.12519125838557,0.0,119.63374299999998,0.3993856107682393,0.12863,0.43810001,0.79499298,1.0,0.0,0.0,0.0,132.92044868085264
0.4274,18876.6127,1.0968651090248263,1.8939148430856663,-5.012661419501834,0.18103749122285706,0.8020846406474661,2.180699472169289,298.957509455658,-1186.0264465845178,-1249.9816375010419,122.19146,142.8213683229452,0.0,122.19146,0.3855020640850052,0.12564699,0.43720901,0.80277598,1.0,0.0,0.0,0.0,134.65017490245626
0.4458,18876.6327,-0.0032380231061590603,2.2847459571296214,-5.505207356277424,0.2962820050275785,0.5300907302834574,2.6063658881313696,349.7772483676469,-1159.8566499616288,-1261.6506987103976,125.370537,144.93921566066658,0.0,125.37053700000001,0.3668468367466181,0.118384,0.436297,0.813052,1.0,0.0,0.0,0.0,136.9574310595436
0.4672,18876.6527,-1.2017389460041572,2.79554877040598,-5.68184646840934,0.5082450234274829,0.19246781011126035,2.956087255634883,413.9679022876232,-1120.3334473882328,-1278.3458436975359,129.554962,147.60331994570456,0.0,129.554962,0.3422570881921948,0.109117,0.434104,0.82613999,1.0,0.0,0.0,0.0,139.97110424472808
0.4958,18876.6727,-2.3837027470333836,3.407100616800875,-5.435490703498045,0.8051657411021348,-0.15193958471857183,3.1591528289414827,482.574167841963,-1065.3000045202482,-1301.8399778217702,134.413376,150.47920198669817,0.0,134.41337599999997,0.3142746674330589,0.099503,0.42910799,0.84095001,1.0,0.0,0.0,0.0,143.3659366187753
0.509,18876.6927,-3.5190782391980826,4.126760727353109,-4.745149138591749,1.1077412484429896,-0.4147554752896132,3.1759230287704057,555.5137747675396,-1001.5008467732371,-1324.1204658871761,139.030365,153.06116447339966,0.0,139.03036499999996,0.2867344171284636,0.087678,0.42165101,0.85574901,1.0,0.0,0.0,0.0,146.67489807213926
0.5446,18876.7127,-4.637847264472824,4.774731950904508,-3.6542004203783147,1.3306825728148164,-0.5513035000608202,2.991898652419958,632.2153120020312,-916.0297248741451,-1352.3387417255399,144.062332,155.7239565893921,0.0,144.06233199999997,0.2566926354322209,0.074931,0.40927801,0.87234497,1.0,0.0,0.0,0.0,150.25219014260557
0.5513,18876.7327,-5.611491276872898,5.022641050926281,-2.241464607802751,1.4097417566392134,-0.5805208300884214,2.6152452083937026,685.7372006814637,-799.6113547742681,-1400.3094127151544,149.78418,158.64628947435352,0.0,149.78418,0.2253621322094728,0.069534,0.388459,0.890773,1.0,0.0,0.0,0.0,153.9516525076891
0.5752,18876.7527,-6.304867357529685,4.769705405625517,-0.8422669766795181,1.2860045553864874,-0.498588685093159,2.1342975894257608,709.1825257717803,-684.361157882531,-1449.7798880272812,154.476196,161.07520276307977,0.0,154.47619599999996,0.2005297278440757,0.070767,0.365024,0.90638697,1.0,0.0,0.0,0.0,156.86412444651583
0.5925,18876.7727,-6.740036956639244,4.116400240042591,0.23665803053476608,1.0134854962194204,-0.31155470424815995,1.6393633453958998,712.9822390521495,-595.77181106646,-1487.2958859169057,157.875717,163.02024475293373,0.0,157.875717,0.1819058365284606,0.074763,0.347038,0.91699803,1.0,0.0,0.0,0.0,159.0384217754009
0.6075,18876.7927,-7.028265408957929,3.264229901658698,0.9477563535926237,0.7120045313923301,-0.061711502559871845,1.1587373469598872,707.4501114265145,-539.0903855946406,-1511.8707957049796,160.507309,164.77789248106285,0.0,160.50730899999996,0.1662719586857619,0.078901,0.33770701,0.92308301,1.0,0.0,0.0,0.0,160.85773379376883
0.6262,18876.8126,-7.1884702614763665,2.38498899978051,1.4923565390131728,0.48336722970561935,0.18781201605358738,0.6681341501282182,691.5838214689801,-503.3479633557007,-1531.7031393737907,162.923126,166.56938679761618,0.0,162.92312600000002,0.1516641141028412,0.084613,0.33435601,0.92630702,1.0,0.0,0.0,0.0,162.55324653369624
0.6507,18876.8326,-7.123932758989096,1.613683998377586,2.0907881665309027,0.3582471972884713,0.3839357479006231,0.143990595426367,657.6773277527442,-476.16799811772387,-1555.3187023321254,165.140137,168.2225132401529,0.0,165.14013699999998,0.1399968914797754,0.09542,0.33175001,0.928029,1.0,0.0,0.0,0.0,163.9046672585041
0.6695,18876.8526,-6.741082468601136,1.050160085291906,2.796405428948656,0.30174013305224007,0.5045674526910446,-0.4133117573097449,605.7089646237312,-453.6617124540594,-1583.0458746622992,167.00383,169.56824846454103,0.0,167.00383,0.1326187184765406,0.111701,0.32798201,0.928635,1.0,0.0,0.0,0.0,164.75811126101317
0.6926,18876.8726,-6.038610913267675,0.7389298284265973,3.5112765453402943,0.25913539849271583,0.5547299402672201,-0.9829659860382913,545.0176295809404,-437.91861251013484,-1609.4767857618565,168.129303,170.30944259616672,0.0,168.129303,0.1312029494657781,0.130675,0.32320401,0.92803502,1.0,0.0,0.0,0.0,164.9217766294459
0.7132,18876.8926,-5.126414918863591,0.679771580780268,4.114621369433916,0.19726005574190936,0.5625004029988152,-1.5359649448022807,487.07451798975615,-433.9537251184952,-1629.2039533336333,168.133224,170.13942588587037,0.0,168.13322400000004,0.1373775257981441,0.148891,0.31858701,0.92599201,1.0,0.0,0.0,0.0,164.20775350252728
0.7296,18876.9126,-4.1348843988601285,0.7892033376989289,4.547402324931117,0.10229036829666671,0.5671193941400791,-2.048413257428263,436.6667393767341,-439.9267445098011,-1642.0861894300942,167.16037,169.1514864356856,0.0,167.16037,0.1497158857987338,0.164847,0.31446701,0.92277902,1.0,0.0,0.0,0.0,162.7790758207889
0.7525,18876.9326,-3.1342932575229456,0.973955799539107,4.76337126022495,-0.035791077071234856,0.5991292442226513,-2.5083920944776312,388.61673000030214,-451.26237403290486,-1651.3711896530294,165.463455,167.49857704205127,0.0,165.463455,0.1669368579877422,0.18003599,0.31009901,0.91845399,1.0,0.0,0.0,0.0,160.78046197971275
0.7695,18876.9526,-2.1538409320445453,1.1872358614271494,4.671042007559407,-0.22456500131990076,0.6617180792037887,-2.91242407699315,338.6816318450547,-467.0216138757522,-1658.3592480401944,163.256287,165.32860405783927,0.0,163.256287,0.1878366733385132,0.19541401,0.30583799,0.91268498,1.0,0.0,0.0,0.0,158.34687645736912
0.7982,18876.9726,-1.1585661372707534,1.3945115130539971,4.183120775029186,-0.46756028793852455,0.7404084224815399,-3.254747618224483,281.0288366702121,-488.2165259273487,-1663.463974614212,160.697922,162.7473226737711,0.0,160.697922,0.2117321979384794,0.212229,0.30250701,0.90477502,1.0,0.0,0.0,0.0,155.55223437996676
0.8057,18876.9926,-0.18186369479931574,1.5723860257547075,3.2740631588751796,-0.7385099499400221,0.8176849123119756,-3.528261868896841,216.4765323067015,-519.6954848880248,-1664.0398740798087,157.515411,159.51357755779986,0.0,157.51541099999997,0.2401762736536625,0.22959,0.30105799,0.89385003,1.0,0.0,0.0,0.0,152.20611118815262
0.8257,18877.0126,0.7320911312438501,1.6521626983569195,2.032915477472777,-1.0098264807308333,0.8976189143642094,-3.7291457053215797,142.954038365769,-558.6941555761323,-1659.7647920851919,153.774597,155.63977678687183,0.0,153.77459699999997,0.2724272104860302,0.247594,0.30129001,0.879605,1.0,0.0,0.0,0.0,148.38249758947254
0.8478,18877.0326,1.5020607874284573,1.597117891675556,0.627320230344445,-1.2521572912696137,0.9971748008456269,-3.8713241730081323,65.11083059374403,-596.4142386662936,-1651.8498749622227,149.804916,151.3735854331923,0.0,149.804916,0.3054360689338112,0.265145,0.30194101,0.86327201,1.0,0.0,0.0,0.0,144.43119845165427
0.8691,18877.0526,2.1270781172331734,1.4676495982756959,-0.7759552067520907,-1.4428112578907706,1.118109530863515,-3.989954496737618,-12.033512299613164,-631.791884437582,-1640.1351974049653,145.668549,146.80391735039862,0.0,145.66854899999998,0.3380579259948504,0.28093401,0.302995,0.84556901,1.0,0.0,0.0,0.0,140.48280695689274
0.903,18877.0726,2.710842998247296,1.2821432772292574,-2.0595565479852755,-1.574107119621429,1.2620078318946617,-4.112841360355723,-89.18349539060142,-663.1804993305045,-1625.403237344924,141.325134,141.84916477331504,0.0,141.325134,0.3704621673466802,0.29536501,0.30392501,0.826527,1.0,0.0,0.0,0.0,136.5117536831336
0.9109,18877.0926,3.3422586413541273,1.0038837983031752,-3.1578895420478705,-1.6416138341563786,1.4113670369028748,-4.243541215594224,-169.98933693132426,-691.8492711598128,-1606.8734862235797,136.558929,136.25237853152336,0.0,136.55892900000003,0.4039118207024892,0.30913699,0.30490699,0.80518401,1.0,0.0,0.0,0.0,132.35409162794843
0.9332,18877.1126,3.9999694588363184,0.538813044861741,-4.031715906964159,-1.6418054756900282,1.5336084601524393,-4.3515643151635786,-255.49241056784086,-715.3231419616493,-1584.9753484492553,131.28981,129.82601014142713,0.0,131.28981,0.4385854258542105,0.322611,0.305406,0.78121197,1.0,0.0,0.0,0.0,127.97267894660544
0.9464,18877.1326,4.571925131021498,-0.19275073974072493,-4.667385633696334,-1.5839600505965976,1.584055289316305,-4.377882474636932,-345.8763066516946,-729.8930894266789,-1560.766942562659,125.600151,122.50188315570571,0.0,125.60015099999998,0.4737736507514316,0.33623299,0.30488199,0.75467402,1.0,0.0,0.0,0.0,123.44093490859903
0.9718,18877.1526,4.919465360196989,-1.1978652783132495,-5.061451732316917,-1.4831202656078077,1.525788974984509,-4.260406565977414,-440.37360362523816,-733.0763580652003,-1534.9793010251908,119.390335,114.04199818532051,0.0,119.390335,0.5097275785588803,0.35003099,0.302701,0.72527802,1.0,0.0,0.0,0.0,118.70862881650669
0.9889,18877.1726,4.933276288447679,-2.3348149653572206,-5.18951890547328,-1.353227154226563,1.326565289747677,-3.973962686931207,-523.6584346545478,-733.1015970691476,-1508.30030676874,112.522141,105.05204126124642,0.0,112.52214100000003,0.5455698160353079,0.35964,0.29962,0.69515502,1.0,0.0,0.0,0.0,113.87277706116714
1.0093,18877.1926,4.569627407427414,-3.454560376925931,-5.079300803683992,-1.216580646281109,1.0181615815747462,-3.527270121200675,-583.5463728029949,-732.3307139841988,-1486.3089451835315,105.311371,96.47535925303004,0.0,105.31137100000001,0.5801735039032888,0.362744,0.29437101,0.66720402,1.0,0.0,0.0,0.0,109.07450619161921
1.0278,18877.2126,3.853944352546409,-4.429161263378321,-4.849424902580303,-1.1187641561146324,0.637017122614887,-2.971282509666655,-619.2270728297387,-736.8980803696513,-1469.3871185761354,98.556015,89.51249392911944,0.0,98.556015,0.6108623458191699,0.35959601,0.28863999,0.64360303,1.0,0.0,0.0,0.0,104.69623533408371
1.0464,18877.2325,2.8754793959902347,-5.199662008880373,-4.610950117847916,-1.079280005290718,0.2003031200373999,-2.3902454670966513,-640.2712616880663,-750.4539793798406,-1453.362664206794,92.603432,84.30915699138069,0.0,92.603432,0.6367354931691022,0.35236701,0.28471801,0.623972,1.0,0.0,0.0,0.0,100.90235614862469
1.0658,18877.2525,1.8283683030322369,-5.727983706477706,-4.343395970160633,-1.0718986745682995,-0.3068631956674928,-1.8774844551930405,-650.380528294537,-779.4821454864588,-1433.4372733637197,87.101524,80.53880776626647,0.0,87.10152399999998,0.6593104946656315,0.34045601,0.28404799,0.60721999,1.0,0.0,0.0,0.0,97.50538324818271
1.0893,18877.2725,1.0763524263416637,-6.041239247836071,-3.9211869981468563,-1.0555844783145103,-0.8992985544536767,-1.4864501304878028,-643.0320383554871,-832.6320613527295,-1406.6168924912945,82.303566,78.63762803678542,0.0,82.30356599999999,0.677494872663993,0.321632,0.288091,0.595447,1.0,0.0,0.0,0.0,94.70361529136655
1.1103,18877.2925,0.8557724629868209,-6.343095004416942,-3.210930892657622,-1.009170321533567,-1.5230316550499474,-1.2109545268304525,-624.2745336174673,-889.8963365741062,-1379.7738019265425,78.462334,77.61632046656267,0.0,78.462334,0.6927407128556539,0.30027199,0.29196,0.58711702,1.0,0.0,0.0,0.0,92.30509294963599
1.1249,18877.3125,1.0676270986953242,-6.786805999350533,-2.046188190766234,-0.9462801791152728,-2.08153613561816,-0.9924560530850374,-593.2063830987548,-936.3711122570106,-1362.6356810298225,75.304054,76.36656626127753,0.0,75.30405400000001,0.7094226944461667,0.277529,0.289056,0.57977903,1.0,0.0,0.0,0.0,89.62407288721717
1.147,18877.3325,1.3744784082120023,-7.312525094352931,-0.31634026082741507,-0.8890061892790586,-2.468694760824399,-0.7201456403682007,-543.9951411184179,-979.9637538226023,-1352.4204156019596,72.608887,74.92481365966604,0.0,72.60888699999998,0.728668013200195,0.250384,0.279176,0.57307202,1.0,0.0,0.0,0.0,86.45031034716159
1.1664,18877.3525,1.358465544435878,-7.7679687089627185,1.8189357359938167,-0.8647604555814434,-2.5877614458102776,-0.32189473102459215,-486.47480340307186,-1017.1682393803537,-1346.6418056202974,70.355644,73.22328466192822,0.0,70.35564399999998,0.7489054262489889,0.22198001,0.26371101,0.56597,1.0,0.0,0.0,0.0,83.0086974165187
1.2007,18877.3725,0.9065696481751648,-7.942512589868361,4.017036598213576,-0.8487207785988085,-2.4195637372557948,0.19569801179068816,-428.1472846621058,-1049.3549225766055,-1341.3360391831943,68.823364,71.89321844687669,0.0,68.823364,0.7656338525056344,0.19568899,0.247586,0.56054598,1.0,0.0,0.0,0.0,80.07316931143694
1.2089,18877.3925,0.37891929812689185,-7.371291653324591,6.060634153284845,-0.7447425244311521,-2.0132091143410014,0.800110762189771,-361.3410230725118,-1108.54113647338,-1312.4736875089561,68.400093,72.48150200565392,0.0,68.400093,0.7726696788511246,0.165703,0.24313,0.56250501,1.0,0.0,0.0,0.0,78.81153456214062
1.2284,18877.4125,-0.30038095608047755,-6.216865170210882,7.51352731465683,-0.5665049498819674,-1.424819952680463,1.3341949709719199,-287.1679930233006,-1164.2212851478905,-1281.4854304830435,69.06102,74.02310780643653,0.0,69.06101999999998,0.7730612338160538,0.13795801,0.241419,0.57014102,1.0,0.0,0.0,0.0,78.74082699127774
1.2482,18877.4325,-1.053473893841721,-4.799829354515557,8.091158725511455,-0.35772015445760563,-0.7612815474100199,1.7158218089652233,-207.99031026866749,-1197.0995226615096,-1265.6695244346552,70.905716,76.28593342651446,0.0,70.90571599999998,0.7671426597926879,0.117976,0.238299,0.58376998,1.0,0.0,0.0,0.0,79.80401799575397
1.2697,18877.4525,-1.7141855996128115,-3.2215387640448125,7.845920843416696,-0.19794469250204771,-0.12190475853315785,1.9540608533086083,-142.55324624108505,-1213.1037358461679,-1258.9068284439045,73.132843,78.81518103828046,0.0,73.13284299999998,0.7572005631105936,0.106442,0.237694,0.599015,1.0,0.0,0.0,0.0,81.56395321453894
1.2918,18877.4725,-2.1172327939520965,-1.800909322779758,7.002581135933909,-0.15747474352423685,0.3750601549238875,2.0814300255801372,-102.64737109456678,-1210.7035085839902,-1264.6977187108953,75.52137,81.47607005831821,0.0,75.52136999999999,0.7439472457794429,0.105905,0.240761,0.61429697,1.0,0.0,0.0,0.0,83.86249032957438
1.3077,18877.4925,-2.2650350905653145,-0.7601084450065276,5.881305223073667,-0.2737853708027458,0.6582986049415392,2.144650312246431,-78.99514401977842,-1199.9049868756426,-1276.3317914221793,78.038773,84.33887690815911,0.0,78.03877299999999,0.7282114653773856,0.111454,0.246968,0.62951797,1.0,0.0,0.0,0.0,86.52667259596971
1.3288,18877.5125,-2.2014612953773467,-0.16728623646625151,4.706994477597075,-0.5072369514886226,0.7376035807872485,2.1777507694699327,-52.48676271708575,-1197.7927904073583,-1279.3764974095443,80.560234,87.47576216764305,0.0,80.56023399999998,0.7112859884420049,0.114023,0.25585401,0.644678,1.0,0.0,0.0,0.0,89.32071312999128
1.3499,18877.5325,-1.857735181595853,0.11763137853294425,3.5922361377873173,-0.7265983406765709,0.7008764127306151,2.2022926592083643,-22.144282492647108,-1218.647274192115,-1260.0887546057443,82.371292,90.43055756300079,0.0,82.37129199999998,0.6964365947394202,0.108442,0.26889199,0.65644002,1.0,0.0,0.0,0.0,91.71638785559597
1.3669,18877.5525,-1.2011870812931837,0.22028953986166633,2.583037953542755,-0.8034646326423476,0.6416245299870786,2.241586698065921,16.45743587917468,-1251.1818423868124,-1227.5045316057913,83.834694,93.3076078134757,0.0,83.83469400000001,0.6825328121825059,0.097189,0.28341201,0.666619,1.0,0.0,0.0,0.0,93.91623124539188
1.3933,18877.5725,-0.3452932187054589,0.4307601904505665,1.6577227368074823,-0.6847109043860725,0.6522277882749205,2.2968752092515863,64.7405159742683,-1283.2915921569,-1191.8428594192837,85.379272,96.244544470788,0.0,85.37927200000001,0.668017577492748,0.083514,0.29716,0.67710698,1.0,0.0,0.0,0.0,96.171511489765
1.4071,18877.5925,0.4945501189995092,0.9505509572699129,0.7363617941443721,-0.4135705523735186,0.7783786974719392,2.3537996239277716,118.01204576878911,-1303.5313970935279,-1165.061674185586,87.312088,99.29017821655863,0.0,87.31208800000002,0.6519112414548011,0.071766,0.308321,0.68905699,1.0,0.0,0.0,0.0,98.62828648037096
1.4308,18877.6125,1.1245405463983893,1.721438553975562,-0.2541878078291404,-0.09850658969902093,0.9965996522801687,2.4000952446317103,168.309374839091,-1304.4483493799987,-1157.3885174467352,89.852631,102.57887366380598,0.0,89.85263099999997,0.6331933082112912,0.066195,0.316477,0.70322597,1.0,0.0,0.0,0.0,101.42777209977778
1.4523,18877.6324,1.452619343992505,2.4090598972945387,-1.3162478009407224,0.15030648172559968,1.2212944819719307,2.4432353767108412,209.49609618494526,-1279.738389817054,-1177.6722264923692,93.217651,106.17712252486542,0.0,93.21765099999999,0.6114522884715863,0.069816,0.32035699,0.720155,1.0,0.0,0.0,0.0,104.61082576846461
1.4737,18877.6524,1.5059868119617712,2.7670183565123487,-2.425895577489981,0.2875700922244101,1.3885675966447235,2.4937845491123527,242.875665187234,-1242.4226257070738,-1210.4334474639488,97.049828,109.98934688284363,0.0,97.04982799999999,0.5876600141580673,0.077959,0.32271299,0.737858,1.0,0.0,0.0,0.0,108.01773810225399
1.4956,18877.6724,1.421797955781057,2.7501682792873035,-3.545935921661016,0.3673034280238876,1.4737683503845318,2.5557429932739044,268.5507036096579,-1210.728150496337,-1236.6155972645536,100.588478,113.64833412820224,0.0,100.58847800000001,0.5646023284313473,0.085295,0.32705599,0.75298297,1.0,0.0,0.0,0.0,111.25063831377052
1.5094,18877.6924,1.3332769448571253,2.502413359793729,-4.5547226038572495,0.47979440270908924,1.478211547882666,2.632516393657153,293.78247512456164,-1183.5104468378786,-1257.0157932521365,104.005066,117.25122889976852,0.0,104.005066,0.5416655201603472,0.090699,0.33246899,0.76670498,1.0,0.0,0.0,0.0,114.40581970257622
1.5264,18877.7124,1.2927231862603843,2.3051962045237446,-5.30829413805095,0.6733901982137412,1.4432008887643948,2.7149124400877183,329.8038785006356,-1149.936299597371,-1279.2914495299015,107.969757,121.14435079777711,0.0,107.96975700000002,0.5160681480074883,0.094031,0.33615899,0.78219497,1.0,0.0,0.0,0.0,117.86224351216642
1.5498,18877.7324,1.2605562389292748,2.4024744813149597,-5.727863309725734,0.9355166860705254,1.4222680556989216,2.7945266097036168,375.6883454566468,-1101.6729755844156,-1309.3566951736607,112.503159,125.01552425062111,0.0,112.50315899999998,0.4891505680565034,0.096271,0.334723,0.79964,1.0,0.0,0.0,0.0,121.43046768506129
1.5766,18877.7524,1.1065817671421634,2.9100574029037047,-5.825395586356182,1.2101068492007565,1.4481783136477788,2.87526526533848,421.53618886718874,-1036.8189946406492,-1348.7037864014685,117.450844,128.76629778810548,0.0,117.45084400000002,0.4616140038381189,0.099719,0.32824999,0.81805903,1.0,0.0,0.0,0.0,125.01738929322677
1.5914,18877.7724,0.6663707076612758,3.7767192731977586,-5.645917776080516,1.4286780516677997,1.5006218776336306,2.9704130885512994,456.14231312542165,-958.3088700005355,-1395.85212994412,122.65181,132.47192229734856,0.0,122.65181000000001,0.4334939820912393,0.106542,0.318703,0.83615798,1.0,0.0,0.0,0.0,128.62099545101307
1.6059,18877.7924,-0.1738243698203653,4.791941847035602,-5.183392106880482,1.5398625021123178,1.500912660042759,3.0907613412562376,475.55419954377834,-863.2999944995017,-1451.511593209703,128.276718,136.3370439847294,0.0,128.27671799999996,0.4034993305134965,0.117958,0.30615801,0.854132,1.0,0.0,0.0,0.0,132.4057567988775
1.6324,18877.8124,-1.4268418507465248,5.682664429429781,-4.434264260857445,1.527772256407659,1.3885518530083936,3.2100143458549906,483.9231894943899,-757.6163111412391,-1507.9318155554631,134.30867,140.60032651763672,0.0,134.30867,0.3699998345862054,0.131423,0.29293701,0.87178898,1.0,0.0,0.0,0.0,136.5687858364593
1.6479,18877.8324,-2.9329365269198986,6.133837044854076,-3.423469615740226,1.4315133474721091,1.1142788839358406,3.2779919010245733,481.01980090482976,-639.2957043486699,-1563.9175909694784,140.617905,145.14219228908215,0.0,140.617905,0.3335651664872097,0.146578,0.27771801,0.888888,1.0,0.0,0.0,0.0,141.02937987768956
1.6654,18877.8524,-4.4680806933824995,5.979981181464101,-2.340501247129274,1.3001380052067475,0.7343844043067407,3.226141075145762,475.22635444985286,-517.0752113432692,-1611.4478500133077,146.916336,149.94517354773853,0.0,146.916336,0.2942863569524752,0.159565,0.26239601,0.90503198,1.0,0.0,0.0,0.0,145.77050169371864
1.6875,18877.8724,-5.8076932197163025,5.323697133216658,-1.4645152173316198,1.1754226315882077,0.37301997716169666,3.021064367379357,477.9338520613919,-410.3935092923417,-1642.3103384707442,152.548065,154.61985300468194,0.0,152.548065,0.2554193157958483,0.165564,0.25054699,0.91900802,1.0,0.0,0.0,0.0,150.40313401095642
1.7065,18877.8924,-6.678712853875627,4.388447138743443,-0.8024513458577296,1.1182952045354808,0.0986822161597104,2.677364679106276,472.82896109716705,-316.07237188179,-1665.66653922368,157.236008,158.61502641655045,0.0,157.23600799999997,0.2216305219485344,0.170836,0.23950399,0.92969501,1.0,0.0,0.0,0.0,154.3903610810701
1.726,18877.9124,-7.1226827316059635,3.4088363235019217,-0.30197809707826906,1.1205762456962751,-0.02595081989196779,2.2491476744207697,461.4729719261476,-232.87721739449978,-1683.5574139823048,160.95079,161.82107778027014,0.0,160.95078999999998,0.1939741921304987,0.176148,0.228415,0.93764198,1.0,0.0,0.0,0.0,157.63039002662458
1.749,18877.9324,-7.2984448251608836,2.5022702014910627,0.164929567431507,1.164811465671384,0.013793606160983407,1.785835905812308,442.08316788126166,-158.27891911041388,-1698.3718054431026,163.982956,164.46596812173382,0.0,163.982956,0.1709699342916159,0.182721,0.217415,0.94345802,1.0,0.0,0.0,0.0,160.3115642732667
1.7659,18877.9524,-7.317716013317263,1.6941368010469429,0.7398610712229186,1.230703116438115,0.1897722124926153,1.309097971786343,409.31788729014715,-90.51718196670811,-1712.4301910298273,166.652237,166.82238531308397,0.0,166.652237,0.150834777270161,0.19236,0.206962,0.94731897,1.0,0.0,0.0,0.0,162.64938757971976
1.7887,18877.9724,-7.223110662376138,0.9849003757952186,1.4856459503934385,1.283692258343549,0.4521235273338434,0.8248136235407545,366.01038696897376,-30.132698197003947,-1725.1830129673804,169.053085,168.9854518546492,0.0,169.053085,0.1328211965018382,0.204348,0.19749101,0.949525,1.0,0.0,0.0,0.0,164.73470189926334
1.8071,18877.9924,-6.917885926079059,0.36570442622880694,2.4114036754439674,1.2894318491478924,0.7380077778872681,0.338407771588129,309.81965183587647,25.932167297461092,-1737.0045194538973,171.078064,170.81301545930648,0.0,171.07806400000004,0.1179701142122014,0.219972,0.187665,0.94998801,1.0,0.0,0.0,0.0,166.4500669189262
1.8379,18878.0124,-6.2919956293665145,-0.16671272030145534,3.4130853750095262,1.217406190308184,0.9958162932515244,-0.12522286954459738,239.51433444878558,78.52607940576218,-1747.2174743606165,172.474686,172.01420977465222,0.0,172.47468600000002,0.1084140685723025,0.24033999,0.176503,0.94832999,1.0,0.0,0.0,0.0,167.55219672480095
1.8451,18878.0324,-5.413404544317435,-0.6192392716101365,4.27257325522501,1.0557153527062262,1.2011357095126827,-0.527680198153277,165.65103376931427,124.29979976336654,-1753.7385320238984,173.020401,172.32962371888948,0.0,173.020401,0.1056492244117289,0.26287401,0.164666,0.94478601,1.0,0.0,0.0,0.0,167.8708551300315
1.8688,18878.0523,-4.509404564179562,-1.0086422625097153,4.797952816141251,0.818268636451724,1.3584209611980147,-0.8529133424902728,101.63340783950069,159.42792887054043,-1756.3096113904382,172.89003,171.91645351612823,0.0,172.89003000000002,0.1080676806480076,0.28335801,0.154119,0.94036001,1.0,0.0,0.0,0.0,167.59212444473684
1.8976,18878.0723,-3.7548650112877064,-1.3272211846935926,4.93437977649608,0.5336231609186639,1.4818153828696905,-1.1273124291241294,50.262013407891516,183.3436358901056,-1756.653487922705,172.426743,171.13090880804768,0.0,172.426743,0.1130810652569206,0.300365,0.146054,0.93576801,1.0,0.0,0.0,0.0,167.01408764774612
1.9059,18878.0923,-3.134872061127413,-1.5103626285177087,4.752386878328631,0.2262237818635554,1.577343251399133,-1.4017053238436432,3.3957478984648617,195.5153296925896,-1756.4612637173384,171.865692,170.21334305432228,0.0,171.86569199999997,0.1194508635134957,0.31577599,0.14117999,0.930637,1.0,0.0,0.0,0.0,166.2791771546215
1.9269,18878.1123,-2.5471803510422277,-1.4925542327815435,4.3723547567552234,-0.08853080587589579,1.6378701956981234,-1.7103341483085908,-44.397798711208836,197.05294235616373,-1756.1043997835632,171.122375,169.01969765448948,0.0,171.12237500000003,0.1282482460853939,0.33134899,0.138919,0.924371,1.0,0.0,0.0,0.0,165.26324626936503
1.9472,18878.1323,-1.9240742812416187,-1.2577726510155385,3.9134606738659397,-0.4055555678397953,1.6459650476404604,-2.0518766683828056,-92.19395937661828,190.93173032508707,-1755.2624169852365,169.874008,167.08783545059015,0.0,169.874008,0.1419945065706401,0.34751001,0.137639,0.91658598,1.0,0.0,0.0,0.0,163.67344755305487
1.9649,18878.1523,-1.2277412776638024,-0.8217667318054591,3.476431490392404,-0.7460735208605667,1.5737359974359024,-2.4002041162105567,-143.34576902856537,176.8231103134948,-1753.6041087290282,167.989792,164.12681077529052,0.0,167.98979199999997,0.1620811357021535,0.365206,0.137254,0.90637499,1.0,0.0,0.0,0.0,161.34457306016867
1.9898,18878.1723,-0.4843567389066308,-0.23458876531619843,3.1010613583760254,-1.1544428902236032,1.3971612401024167,-2.7222045679560045,-200.04528906802565,154.25547667390197,-1750.4227624009004,165.668716,160.26038001596484,0.0,165.66871600000002,0.1870850714669661,0.38419899,0.13860901,0.893408,1.0,0.0,0.0,0.0,158.43455810393894
2.0098,18878.1923,0.2040053390329888,0.44805105885806196,2.7354324915154304,-1.6584389812154967,1.1237101096375564,-3.0055995746732154,-250.7717436306148,123.98554818127764,-1746.4780378195446,162.993607,155.65279455527377,0.0,162.993607,0.2153529952861572,0.400695,0.141571,0.87921798,1.0,0.0,0.0,0.0,155.12752484068952
2.0339,18878.2123,0.8544526337300544,1.1707643118846316,2.2435869993704625,-2.2709135894008874,0.8069656203700883,-3.2597645497254,-289.80064460523903,84.83866685833186,-1742.8838207509214,159.953369,150.45458319769486,0.0,159.953369,0.2461612635135734,0.41265401,0.146174,0.86472797,1.0,0.0,0.0,0.0,151.4990576536521
2.0493,18878.2323,1.5387395496345513,1.851292356199953,1.4504210589781348,-2.961187025131015,0.5322794643057867,-3.511142704977373,-312.3749912344434,30.758970407270112,-1740.7267331514474,156.347839,144.74768687383397,0.0,156.34783900000002,0.2802886939173948,0.41812,0.153181,0.85038197,1.0,0.0,0.0,0.0,147.44512877345795
2.0857,18878.2523,2.3800987169198926,2.301254606479914,0.2278024894827464,-3.657208646688551,0.4127203094068746,-3.7803750249663413,-323.20054123160577,-42.36470029645534,-1738.1387096935737,151.685913,138.11218099154257,0.0,151.68591300000003,0.3207310382673917,0.41766399,0.162578,0.83442003,1.0,0.0,0.0,0.0,142.58571853202199
2.0934,18878.2723,3.4011374102742855,2.197653156847096,-1.4104702340803232,-4.24278661622599,0.5416139763095833,-4.085220329252354,-331.37653226148245,-128.00558337773077,-1731.5256700008124,145.978653,130.7447135074611,0.0,145.978653,0.3658517795776315,0.41309401,0.173141,0.815799,1.0,0.0,0.0,0.0,137.07997585296746
2.1078,18878.2923,4.4230037357036895,1.3534320311169035,-3.2871448574263127,-4.549773652023159,0.8756808787397655,-4.465362819042349,-337.3773251703049,-233.00906649847929,-1717.9062026898223,139.238571,123.34226249506717,0.0,139.23857099999998,0.4135792789188064,0.402762,0.186979,0.794842,1.0,0.0,0.0,0.0,131.1402425457985
2.1271,18878.3123,5.217421127743263,-0.3320199596417262,-5.111676057361872,-4.455071329762451,1.3157799896405478,-4.887970323049073,-355.14250477229433,-348.8100320662358,-1692.5403058780742,131.272491,115.56043557127701,0.0,131.272491,0.4638409547098013,0.389954,0.20291799,0.76916301,1.0,0.0,0.0,0.0,124.72952722104787
2.1461,18878.3323,5.408064655664895,-2.7457709358602123,-6.623841828557032,-3.93335984266883,1.7417655225093633,-5.212945493163291,-407.4059529604389,-446.23221521024504,-1655.1870449226926,122.017365,106.18449513434045,0.0,122.01736499999998,0.5171575754264457,0.38242501,0.215922,0.73462701,1.0,0.0,0.0,0.0,117.71644064036654
2.1817,18878.3523,4.591578954176266,-5.259200136321799,-7.605935688321086,-3.0607981138804314,1.8629418482129463,-5.31328909443031,-482.1910540746164,-519.173940624476,-1610.9284228621486,111.80867,95.88617310391477,0.0,111.80867,0.570150483108451,0.37806001,0.225235,0.693735,1.0,0.0,0.0,0.0,110.47855987080406
2.1894,18878.3723,2.769241466796801,-7.155841925216798,-8.023762841966029,-2.0876630786373624,1.518510230597151,-5.032767835483234,-577.117349469988,-553.5885928632881,-1565.5546035286354,100.947754,84.54266163286366,0.0,100.94775400000003,0.6219476237586888,0.378582,0.228365,0.64630198,1.0,0.0,0.0,0.0,103.08299962495863
2.2157,18878.3923,0.6008911999543952,-7.999626706013757,-7.923694852671813,-1.354708517178793,0.6871039011411496,-4.323365022932569,-676.4844711215319,-551.5807892542618,-1524.2762983766547,90.732407,73.71507491782185,0.0,90.73240699999997,0.6667013303355255,0.38283601,0.226991,0.59784698,1.0,0.0,0.0,0.0,96.37404088055814
2.2431,18878.4123,-0.8934864178298512,-8.080269177862842,-7.295565759276012,-1.0007550593504995,-0.4726227220734186,-3.310539651439945,-731.98027156788,-552.0262895268912,-1497.0725247654361,83.016739,66.84167767229619,0.0,83.01673900000003,0.6981135585777284,0.38009599,0.22447699,0.56371498,1.0,0.0,0.0,0.0,91.44830039557549
2.2457,18878.4323,-1.3639284614715206,-7.974355624169137,-6.081146050180148,-0.9251439250534117,-1.6831844430948522,-2.1638772017434116,-726.5488100554749,-594.4400003489109,-1482.7235598434554,77.063309,64.06909846926376,0.0,77.063309,0.7230559856494929,0.36062899,0.22227,0.54564899,1.0,0.0,0.0,0.0,87.38526381741598
2.2674,18878.4522,-1.0959561859937221,-7.87451596871251,-4.405503031737306,-0.9759546541821733,-2.637911743116136,-1.0472581409806119,-668.371954036389,-664.007674416499,-1480.2365785394056,72.7388,63.663389668852254,0.0,72.7388,0.7461313928451209,0.327519,0.214981,0.538333,1.0,0.0,0.0,0.0,83.48726148821441
2.2875,18878.4722,-0.3450970083249283,-7.529796972684245,-2.319436268602173,-0.9777753119642331,-3.217286738304607,-0.04155532610570217,-580.7798220098921,-769.3506228939971,-1466.057035805196,69.825142,64.85390592526171,0.0,69.825142,0.7649629144160648,0.28333101,0.21055099,0.53872401,1.0,0.0,0.0,0.0,80.19261433945725
2.3052,18878.4922,0.5138921964780083,-6.797589856883982,-0.21030282331325978,-0.8347644101110067,-3.411489442655171,0.747703811443743,-486.5687192972074,-861.0998340279941,-1449.4177750148344,68.474014,66.21922534810572,0.0,68.47401400000001,0.7783516235537637,0.241988,0.203264,0.54248899,1.0,0.0,0.0,0.0,77.78020320895644
2.3254,18878.5122,1.2388036252581767,-5.5980979651104175,1.6774114372811617,-0.5092513687826099,-3.3151163653314955,1.337069342065835,-382.37020773133463,-938.6810602266368,-1432.8572206084496,68.508171,67.9930184176064,0.0,68.508171,0.7858222494824384,0.203785,0.19346,0.55093402,1.0,0.0,0.0,0.0,76.40641927490319
2.3468,18878.5322,1.7344205043278285,-3.925907540269849,3.1383123818371033,-0.03127729389611122,-2.983528469938745,1.816669487810382,-261.9327996767503,-1015.8622216876131,-1407.8702184210763,70.130646,71.03852461157418,0.0,70.13064600000001,0.7840787715453078,0.16607,0.186977,0.56805003,1.0,0.0,0.0,0.0,76.72888801422243
2.3695,18878.5522,1.7653237737962884,-2.3745769703623854,3.971854332900815,0.34680761928343007,-2.479662698462817,2.2046269624552632,-145.6718863281643,-1053.7291171169454,-1397.9203936311571,72.438164,73.8210979870187,0.0,72.438164,0.7785368887905183,0.13887399,0.175154,0.58644301,1.0,0.0,0.0,0.0,77.74638232632263
2.3855,18878.5722,1.4262980555838114,-1.4725622861095833,4.308464856657338,0.42241142964670464,-1.8951813118798317,2.569771265579612,-41.88060969518301,-1036.9228256629071,-1418.4543794435856,75.187645,76.10971751902039,0.0,75.187645,0.7708280301490725,0.12740099,0.154552,0.60473698,1.0,0.0,0.0,0.0,79.1433928578225
2.408,18878.5922,0.8808113368012678,-0.9426771204511578,4.444229323400023,0.11269772844111314,-1.2286813775141623,3.020215710602786,61.65696697205419,-1011.7698279652161,-1436.6063298590789,78.319756,78.86224863733479,0.0,78.31975599999998,0.7591558838529008,0.118289,0.13606,0.62544203,1.0,0.0,0.0,0.0,81.22032223810047
2.4252,18878.6122,0.36022549101698065,-0.5431620929788434,4.576941294292688,-0.5209818596970388,-0.5253442259713503,3.5116940850817975,150.72844260276327,-1002.5488264945384,-1436.6893820535347,81.526276,82.1296705397484,0.0,81.526276,0.7435953239390362,0.107954,0.129136,0.647098,1.0,0.0,0.0,0.0,83.92282128618884
2.4447,18878.6322,-0.03300707385841051,-0.1496883592068391,4.838105357551246,-1.2824611275142455,0.11457478384172498,3.923042632253146,224.73901433767577,-1007.813035363219,-1422.792206608932,85.037506,86.08454133328162,0.0,85.03750600000001,0.7230578144844295,0.097327,0.134702,0.67049998,1.0,0.0,0.0,0.0,87.3849604408344
2.4684,18878.6522,-0.4016523977890101,0.5279235996306817,5.191485105294548,-1.9509045217901841,0.6451508907392816,4.108666776221678,307.2984356807557,-1038.2847792524751,-1383.8970369119406,89.357338,91.48627185432109,0.0,89.35733800000003,0.6938524753757241,0.079409,0.15449999,0.69885099,1.0,0.0,0.0,0.0,92.12831055889117
2.4851,18878.6722,-0.9363239392327287,1.5381351071910219,5.369545270103885,-2.3607826933958687,1.0606406051771162,3.9411261584009925,406.6747937436375,-1095.6059272159307,-1310.7959235436483,93.984314,97.91129892218034,0.0,93.98431399999998,0.6574635624785605,0.05026,0.187227,0.728122,1.0,0.0,0.0,0.0,97.78656932636687
2.5046,18878.6922,-1.5084865893462984,2.2757933289306553,5.182725036694968,-2.3904318495706285,1.3106996578756984,3.4690218326598,482.48607926427894,-1146.8708323357403,-1237.749528782891,97.438873,103.21102943600928,0.0,97.438873,0.6251960262397707,0.025107,0.220869,0.748142,1.0,0.0,0.0,0.0,102.60684659062494
2.5262,18878.7122,-1.72699073718118,2.39452191976251,4.747451019199126,-2.0689762708897086,1.3309997448093327,2.883977778298841,518.994176201704,-1169.0591076690807,-1200.3371432760348,100.295509,107.71755981676246,0.0,100.29550899999998,0.5964141942024183,0.016111,0.24979401,0.762649,1.0,0.0,0.0,0.0,106.77297482003222
2.5473,18878.7322,-1.6422220702310897,2.3652007469591165,4.176990444362026,-1.6075211691882973,1.2001984402197603,2.286829580224946,536.1648674652706,-1188.3882850854413,-1172.482848236564,102.217621,111.22068230423092,0.0,102.21762100000001,0.5738057676361392,0.011735,0.27496701,0.77136397,1.0,0.0,0.0,0.0,109.96791559476624
2.5668,18878.7522,-1.2451988207591471,2.236859741236024,3.627227631920146,-1.1625024775838264,0.9264432614235039,1.821709576775308,545.7190673686359,-1190.520040990497,-1165.2519066470138,103.794937,113.76919850450894,0.0,103.794937,0.5572093358175901,0.012368,0.289736,0.77808601,1.0,0.0,0.0,0.0,112.27395285317324
2.5884,18878.7722,-0.5136243384412502,2.1297878170568363,3.12121513055531,-0.8055243759049733,0.5893771262845587,1.5615406562143739,554.2172792442746,-1174.6673747657942,-1176.944507189244,105.566589,115.90827003647523,0.0,105.56658900000002,0.5430517914999268,0.016846,0.29603601,0.785604,1.0,0.0,0.0,0.0,114.2167396694816
2.6059,18878.7922,0.3389347901855988,2.1949372816104287,2.532505012598417,-0.5349993284854876,0.3020408201164042,1.4935047023762005,570.4246935389226,-1160.1007773005347,-1183.4809825808222,107.007408,117.434602752729,0.0,107.007408,0.5324772146687589,0.017607,0.29850399,0.79186702,1.0,0.0,0.0,0.0,115.65403291285202
2.6283,18878.8122,1.1415390927273439,2.4272636505785155,1.7193567239102627,-0.29353296413960484,0.14614656668473125,1.581605403950194,607.4009923762067,-1151.6456201207804,-1173.1988032421057,108.526352,119.08698973598672,0.0,108.52635199999997,0.5201403599758241,0.010622,0.30216101,0.798774,1.0,0.0,0.0,0.0,117.31666592489096
2.6468,18878.8322,1.9535064882071271,2.595093263848418,0.6418782041198448,-0.022192984025543594,0.1630934132862194,1.7682003696018105,635.9474171929489,-1139.910951276134,-1169.453036468656,110.092583,120.78869284646191,0.0,110.09258299999999,0.5075394634382628,0.006707,0.305969,0.80544502,1.0,0.0,0.0,0.0,118.99985364296806
2.6662,18878.8521,2.540740464661842,2.7165532929482694,-0.603316520779341,0.22179687454962338,0.37367262095132786,1.9779431634310163,676.8910228090854,-1113.7084899463316,-1171.7009580102124,112.232681,122.67731884693842,0.0,112.23268100000001,0.492775461776314,0.001889,0.30543301,0.81478798,1.0,0.0,0.0,0.0,120.95366311051441
2.6883,18878.8721,2.8372968023801617,2.827082910938289,-1.8647500379939066,0.33642065390083586,0.7589474535384149,2.169295815272926,732.81683496886,-1056.5054575827708,-1190.9762538805958,115.617714,125.18872855105116,0.0,115.61771399999998,0.4725306568938144,-0.00147,0.29756701,0.82955801,1.0,0.0,0.0,0.0,123.60261452526005
2.7067,18878.8921,2.870769056092784,2.9736768561776623,-3.0854932717833217,0.24733179754038315,1.27449187886393,2.3461629139719715,781.3136234117524,-983.4015179625378,-1222.6016979634537,119.512421,128.08032642983366,0.0,119.51242100000002,0.4494638167978371,-0.000595,0.287595,0.84573698,1.0,0.0,0.0,0.0,126.58142360716307
2.7274,18878.9121,2.6678482158426804,3.1014150189322813,-4.254469365964893,-0.017293778984185104,1.8350227923809637,2.5575025747974527,803.108941944244,-910.9003846706901,-1264.3753964601283,123.393135,131.21274498326588,0.0,123.39313500000003,0.4255817712526227,0.007294,0.28090999,0.86018401,1.0,0.0,0.0,0.0,129.62501361808626
2.7453,18878.9321,2.202994298727189,3.181056280803929,-5.334442898667412,-0.3244843165174288,2.376703378954845,2.8449278014000403,794.5569052100957,-854.9959156967968,-1308.6456712770319,126.91687,134.4127368032953,0.0,126.91687000000002,0.4024402046919009,0.020916,0.281342,0.87089097,1.0,0.0,0.0,0.0,132.53836729647827
2.7668,18878.9521,1.4398645512381925,3.222816372981093,-6.236423760607881,-0.5323941925558744,2.893480984709359,3.1683497006264205,775.9817898371366,-816.2229399097391,-1344.805776994275,130.399628,137.89794551986176,0.0,130.399628,0.3775012497211096,0.034214,0.28890601,0.87912202,1.0,0.0,0.0,0.0,135.64202010070932
2.7873,18878.9721,0.42968517834281345,3.211471531217972,-6.949372496818459,-0.6282940605464701,3.4222839984324707,3.3997367471642987,778.3436241770685,-776.3884589973682,-1367.7157268893943,135.231155,142.83543224271622,0.0,135.231155,0.3399883917042159,0.040186,0.30311099,0.88933498,1.0,0.0,0.0,0.0,140.24766633641116
2.8053,18878.9921,-0.5176903654345856,2.975843826221248,-7.503569151751174,-0.5245213128601525,3.9180289250176488,3.552909718704893,763.6846684472373,-702.6129444953142,-1415.9185099681936,141.718857,148.63372202399103,0.0,141.718857,0.2954957962167981,0.053986,0.31012601,0.90199202,1.0,0.0,0.0,0.0,145.62546028650024
2.8272,18879.0121,-1.3226499631452542,2.6298673895821816,-8.121403056530347,-0.24398521260205752,4.470032779548094,3.5448323333937357,710.8435031802834,-622.9985279627081,-1480.011021166049,149.257538,155.0399756546616,0.0,149.257538,0.2475974054989261,0.077535,0.316358,0.91246998,1.0,0.0,0.0,0.0,151.32923111480343
2.8455,18879.0321,-2.2579454322687953,2.3262745264089917,-8.924740568645944,0.06857888927279304,5.12802389616555,3.291590881894717,637.3644967915835,-572.2605185322279,-1533.572746217722,157.068237,161.70097074550128,0.0,157.068237,0.1989772492473435,0.102222,0.32969001,0.91720402,1.0,0.0,0.0,0.0,157.04568453893893
2.8653,18879.0521,-3.6522083343181344,2.155190101807544,-9.64681802075681,0.4443578103177164,5.73800882637433,2.89727092349356,523.219702719748,-547.8882076589991,-1585.2876848582277,165.16011,168.33381583584332,0.0,165.16011000000003,0.1544834616104255,0.135774,0.34566599,0.91554099,1.0,0.0,0.0,0.0,162.22632008383013
2.8894,18879.0721,-5.651390741391788,2.159974520435373,-9.707034840065262,0.8974823199178563,6.048757742797529,2.5867986136225536,350.10781946528203,-507.4517910743697,-1645.8802882543946,174.418716,175.51539914311715,0.0,174.41871600000002,0.1106696610236061,0.185293,0.35204399,0.91075999,1.0,0.0,0.0,0.0,167.2921599580895
2.9081,18879.0921,-7.922133644964707,2.290373014338506,-8.668471179159212,1.3774436302160027,5.941547586057074,2.36886226053572,138.29470183065953,-452.681030143111,-1693.4400376101896,-176.089233,-176.6564462752835,0.0,176.089233,0.0660695595916886,0.243219,0.349933,0.90223402,1.0,0.0,0.0,0.0,172.4234671660187
2.9254,18879.1121,-9.811877380141812,2.4219282333712284,-6.490292868054965,1.8472087800591988,5.429904503558868,2.1149077203730173,-83.69227172772267,-401.2965810689583,-1710.9327872329236,-167.370895,-168.2241193782543,0.0,167.370895,0.0207437470216866,0.30086601,0.344722,0.88894099,1.0,0.0,0.0,0.0,177.62277117981864
2.9467,18879.1321,-10.662445750992104,2.337927958625848,-3.2665287099014044,2.2739328787218756,4.639684325648021,1.7334351106817096,-325.68960239074295,-335.4355679552449,-1697.2824333270853,-159.20343,-158.1876617486575,0.0,159.20343,0.0319777588001324,-0.36069399,-0.332084,-0.87097502,1.0,0.0,0.0,0.0,176.33499395867975
2.9652,18879.1521,-10.494648858587432,1.9685698357379278,-1.6348874030569505e-05,2.5088358876409464,3.805763103241244,1.2102789129830076,-509.50342815586123,-264.91753718639086,-1665.5124415648502,-153.709641,-149.46996859462357,0.0,153.709641,0.0800040761875259,-0.40338299,-0.314035,-0.85572398,1.0,0.0,0.0,0.0,170.8223999297455
2.9895,18879.1721,-9.670518466323026,1.219042389334415,2.7814975741338124,2.512062926957,3.0752462550192843,0.6326252020352315,-644.6290371173044,-164.04280444952587,-1632.7454611915045,-151.177795,-143.259742501978,0.0,151.177795,0.1174901496476995,-0.43312901,-0.28484601,-0.84702897,1.0,0.0,0.0,0.0,166.50545197558571
3.0071,18879.1921,-8.537448305253944,0.1195431702050165,4.783347426384001,2.261413440012416,2.5461318988026798,0.02785944689284936,-760.5709017254192,-49.45653169261482,-1591.2534037501116,-150.577087,-138.7936277446022,0.0,150.577087,0.1433988515861232,-0.45914999,-0.249816,-0.84036303,1.0,0.0,0.0,0.0,163.5108575840497
3.025,18879.2121,-7.4780468284269705,-0.9724364841523176,5.870867003162495,1.811611490613344,2.2275304132853004,-0.5740692186494276,-862.2672135840191,32.41237063858716,-1540.4057353739745,-150.500443,-135.01240616303926,0.0,150.500443,0.1597137763639662,-0.48369601,-0.222583,-0.83125597,1.0,0.0,0.0,0.0,161.61943365102113
3.0454,18879.2321,-6.922812515816116,-1.5899589801204286,6.286013144099083,1.346493881794673,2.0095944881455456,-1.1583333887638978,-928.4739426999545,72.86286801309643,-1501.2773538569145,-150.994141,-132.84110860345095,0.0,150.994141,0.1630345281654742,-0.50218302,-0.207719,-0.82345903,1.0,0.0,0.0,0.0,161.23384959598542
3.0669,18879.2521,-6.605166988524464,-1.7702813605725356,6.694672787388598,0.9703985048943136,1.8052785547373233,-1.771839986111566,-977.0958715550607,100.96591017157698,-1469.5165956865578,-151.841736,-131.53185110959632,0.0,151.841736,0.1603478420217735,-0.517555,-0.19717801,-0.81703502,1.0,0.0,0.0,0.0,161.54582642901838
3.0881,18879.272,-5.992278372354172,-1.6159240311816987,7.528656900349354,0.6463560694568978,1.551402606562867,-2.4296778965781782,-1026.4752528075715,142.1736626808722,-1432.9399429608188,-152.998138,-130.26055998384993,0.0,152.998138,0.1572274229280616,-0.533512,-0.18305001,-0.81063998,1.0,0.0,0.0,0.0,161.90799519995647
3.1053,18879.292,-4.73072494710539,-1.0368411272592901,8.659775045112571,0.2790688338787116,1.1848824184699458,-3.0749693237380282,-1075.0769332074974,208.89484305989896,-1389.3986179051835,-155.19696,-129.75067956567898,0.0,155.19696,0.1483520343447271,-0.55168802,-0.16205101,-0.80459398,1.0,0.0,0.0,0.0,162.93712679939577
3.1271,18879.312,-2.9089941483356245,0.0022046154662356265,9.544026759573072,-0.20687608885263675,0.6854852394760598,-3.5819989786011193,-1101.807311712691,299.6077482269442,-1352.353726334781,-159.125183,-132.08629149077257,0.0,159.125183,0.1251843124744464,-0.56910199,-0.135932,-0.80123299,1.0,0.0,0.0,0.0,165.6172005697563
3.1452,18879.332,-0.9215990250292077,1.2961240956953437,9.715233098643175,-0.8500801359978977,0.12405670421326609,-3.829273132510607,-1091.0469608722467,392.62202797165696,-1338.2525600246329,-164.244858,-138.8584296189586,0.0,164.244858,0.0885054509131451,-0.58068597,-0.110966,-0.80165899,1.0,0.0,0.0,0.0,169.8447347910375
3.1775,18879.352,0.8896034942624906,2.6248657636244737,9.05257151495617,-1.6563987688065815,-0.37033562524863634,-3.784318930140237,-1051.0541118413455,460.3383662526896,-1349.657778317801,-169.411652,-149.53475741410475,0.0,169.411652,0.0457312795032038,-0.585177,-0.093439,-0.804205,1.0,0.0,0.0,0.0,174.75775307279199
3.1933,18879.372,2.2423683140497292,3.885015152022497,7.651519511059231,-2.573388192248091,-0.6877137347392701,-3.5303387888971605,-994.4179204913007,485.5750217474043,-1384.1200881689786,-173.762894,-161.46315488645038,0.0,173.762894,0.0040627754847988,-0.58221501,-0.087088,-0.80834699,1.0,0.0,0.0,0.0,179.53443894244793
3.2054,18879.392,3.205297039041907,5.018010732427886,5.611453002497994,-3.566867362115498,-0.7539614273800392,-3.1890689738177693,-935.7281067238243,474.5743227491608,-1428.6048816314371,-177.609879,-172.99401517445068,0.0,177.609879,0.0384092963460634,0.57626998,0.089576,0.811427,1.0,0.0,0.0,0.0,175.59753592429738
3.225,18879.412,3.763241169261266,5.994736666788361,2.9974718139057757,-4.560016836704087,-0.5974134454838353,-2.881723692369362,-880.7771126533298,419.0751390274144,-1479.9543303504247,178.835693,176.69864234420496,0.0,178.835693,0.0840818992826632,0.568183,0.102909,0.81210101,1.0,0.0,0.0,0.0,170.35353484933998
3.2467,18879.432,3.9392549685476053,6.617584722623587,-0.05310294039123775,-5.482336351358126,-0.30967624408567906,-2.68088418791882,-837.9976177665561,317.35687188870605,-1528.7025521954897,175.40213,167.51585100573854,0.0,175.40213,0.1343812628371952,0.55923802,0.127195,0.80809402,1.0,0.0,0.0,0.0,164.554314302402
3.2698,18879.452,3.76018200673526,6.577420387114823,-3.2508552619462225,-6.287976629892307,-0.024068891078863897,-2.5714792035801706,-819.2236796816911,186.82490216573785,-1558.87068766981,172.101151,159.19579566866685,0.0,172.10115099999996,0.1861221160620086,0.55186999,0.158207,0.797351,1.0,0.0,0.0,0.0,158.54687752808746
3.2887,18879.472,3.2207791283271527,5.68322633907574,-6.135303586894316,-6.914855469604304,0.15531839865588515,-2.538127146891285,-808.769118636462,72.0010718249381,-1571.8937181757638,168.608658,150.95521451533483,0.0,168.608658,0.2334852518795971,0.54421097,0.184194,0.78446901,1.0,0.0,0.0,0.0,152.99529926498695
3.307,18879.492,2.539513136602583,4.125610885174161,-8.621036994421893,-7.345630673760252,0.10382554390214468,-2.420457446969685,-812.1623264302495,-48.56729598994707,-1568.4039561204424,164.576736,141.9126167442138,0.0,164.57673599999998,0.2829385969864469,0.536493,0.211224,0.76648903,1.0,0.0,0.0,0.0,147.1286641335537
3.3256,18879.512,1.8591113408434548,2.0384479721469644,-10.45681945674209,-7.529345812926173,-0.18224140246957518,-2.157369740404558,-814.2637975624976,-173.4172621705536,-1555.0104983847468,159.351456,132.15142596467547,0.0,159.35145599999998,0.334637983374362,0.52436399,0.23787101,0.745974,1.0,0.0,0.0,0.0,140.8989491794653
3.3455,18879.532,1.3431199304852517,-0.318174671491675,-11.480582559901467,-7.431273906389918,-0.6632976147650099,-1.7777074148650545,-794.7645250427499,-312.5287613051316,-1539.1059105574936,151.950623,123.39115161944359,0.0,151.950623,0.387620436400817,0.50149101,0.26454499,0.72682399,1.0,0.0,0.0,0.0,134.38696638831226
3.3671,18879.552,1.116546374456832,-2.671867618179908,-11.669368146418789,-7.103355093991118,-1.2394494550043507,-1.1927517593150718,-774.6702924651553,-489.7387297190013,-1497.8934382239468,141.945328,116.8669154107854,0.0,141.94532800000002,0.4402505495559091,0.469432,0.29966399,0.704283,1.0,0.0,0.0,0.0,127.76026345072219
3.4109,18879.572,1.2942294598911182,-4.725435406835504,-11.128426689977687,-6.560009870207386,-1.8269717212005254,-0.5832218601883881,-738.9942840060344,-681.0896162967027,-1434.9401483221636,129.852844,114.63448349618209,0.0,129.852844,0.4809858445415414,0.428922,0.33839601,0.68568701,1.0,0.0,0.0,0.0,122.5003822270825
3.4226,18879.592,1.8680777222343363,-6.301461361640682,-10.045678453395071,-5.8203765515046975,-2.3771838537652816,-0.17579907895864277,-663.7250479926922,-876.6126057373186,-1359.0284778795672,116.727097,116.55387870297488,0.0,116.72709700000001,0.5068178186300474,0.37835401,0.37735301,0.67645299,1.0,0.0,0.0,0.0,119.09580453552681
3.4379,18879.612,2.2392885649102485,-7.463593013259857,-8.678745395478748,-5.060939278298578,-2.586875235415518,-0.0869075445069507,-587.4039651296587,-1020.9150733852039,-1287.5002233496598,103.743484,115.38739742384958,0.0,103.74348399999997,0.5334347974735054,0.33107901,0.40112799,0.66703099,1.0,0.0,0.0,0.0,115.52434924766307
3.4526,18879.632,1.9486286012458884,-8.418394626381112,-7.276093556205844,-4.342105001185803,-2.5187017693609093,-0.34676807642967966,-515.7888900606943,-1110.7292170739834,-1239.4081971070607,93.474709,110.74367128422803,0.0,93.47470900000002,0.5658251870669768,0.28854099,0.40540999,0.65744102,1.0,0.0,0.0,0.0,111.08077317679988
3.466,18879.652,1.2724893121755103,-9.083566694840115,-5.630508159922127,-3.5126019989797506,-2.507450596112581,-0.6311944587139191,-425.7329086601799,-1239.7072602617754,-1144.6500661361574,84.257431,108.18681956210361,0.0,84.257431,0.5933723499692912,0.232636,0.42026001,0.64588797,1.0,0.0,0.0,0.0,107.20662521174481
3.4882,18879.672,0.09241990419985924,-9.532925885513762,-4.07355897360978,-2.631483044878863,-2.53233871603764,-0.827469704136753,-372.0291406824539,-1353.8243295977818,-1025.2464460612905,76.238022,104.50575289489197,0.0,76.238022,0.6220692085578894,0.180838,0.43482301,0.62550497,1.0,0.0,0.0,0.0,103.06520600565861
3.5052,18879.6919,-1.2583087282290373,-9.667443621465642,-2.8851153203171798,-1.7399442662316582,-2.6928808434520612,-0.8015733436029682,-362.8816406158184,-1430.2908037226644,-917.0504041641013,69.983528,99.90515484014776,0.0,69.983528,0.6501470090510911,0.141846,0.443414,0.60047698,1.0,0.0,0.0,0.0,98.89462671485178
3.5256,18879.7119,-2.239768087543507,-9.342692931778332,-2.1703004796320737,-0.914571558601566,-3.0404787235928095,-0.46723364187107214,-369.38095763400736,-1472.4863823756932,-843.88370506748,65.908066,95.23972312628653,0.0,65.90806600000002,0.6751844385810444,0.113627,0.443088,0.578695,1.0,0.0,0.0,0.0,95.06305088669725
3.549,18879.7319,-2.33503168217242,-8.466486889616958,-1.6900829361208363,-0.2546946873298892,-3.5459065111052164,0.17073180696960222,-369.6106734496972,-1498.5812643964696,-796.9522593853425,63.565331,91.35447596501253,0.0,63.565331000000015,0.6953413133224575,0.090449,0.437525,0.562931,1.0,0.0,0.0,0.0,91.89115657532881
3.5656,18879.7519,-1.2261506011816785,-7.215265498925162,-1.0818363014754055,0.28842030936083984,-4.109931221673667,0.9492877391291025,-312.652623765155,-1523.9385275598888,-774.4189190824628,64.231285,89.98823946630219,0.0,64.23128500000001,0.7042795154660397,0.063767,0.427104,0.56347698,1.0,0.0,0.0,0.0,90.4572668968488
3.5881,18879.7719,0.5143624906458553,-5.61892554907343,0.08261721803692623,0.7073487553156295,-4.572674976577604,1.7289817829664837,-201.69313912282246,-1551.2652040450007,-758.9992028725396,66.831451,89.70032273212007,0.0,66.83145100000002,0.7080013489792233,0.028302,0.409693,0.57453001,1.0,0.0,0.0,0.0,89.85493722661263
3.6073,18879.7919,1.9912937827095831,-3.8186542044069283,1.9101132063891448,0.952554376230098,-4.806613790707307,2.3930443945198907,-60.82108388970482,-1569.8484873360126,-747.4498660122858,70.173553,88.99079941267419,0.0,70.173553,0.7122539603429944,-0.013079,0.38173601,0.588898,1.0,0.0,0.0,0.0,89.16279819478352
3.6352,18879.8119,2.546773170227417,-1.9962099406192104,4.120480342011319,1.0346223737229363,-4.750651712572996,2.8671549429832117,93.34500883625492,-1573.2849619756435,-739.0075771882048,73.693054,87.8650008249939,0.0,73.69305400000002,0.7167921588736302,-0.055286,0.34412,0.60393202,1.0,0.0,0.0,0.0,88.41946747551438
3.6617,18879.8319,2.109078826627983,-0.2295064365676659,6.1847705780863595,1.0481674560855188,-4.405656303234831,3.1289406752696243,251.92677755492178,-1560.9458364096693,-729.6635240766793,77.333427,87.20378938692888,0.0,77.33342700000003,0.7171671124076312,-0.093755,0.30340099,0.62034601,1.0,0.0,0.0,0.0,88.35783087380253
3.6845,18879.8519,1.0745985567011178,1.4933895782309905,7.701673976535176,1.082960466761557,-3.8123473459137704,3.2064291247497376,408.8672191512847,-1536.8617892730545,-710.4023348172415,81.176796,87.60811661724742,0.0,81.17679599999997,0.7099936477803442,-0.127589,0.26759201,0.63876802,1.0,0.0,0.0,0.0,89.5312030059791
3.6912,18879.8719,-0.0763420134665318,2.8347229191514156,8.629808042031978,1.1597007115621125,-3.0792059290086002,3.080621854238788,559.4689841604312,-1494.8558482661351,-697.8000269194598,85.369385,89.11494345089635,0.0,85.36938499999997,0.6958903603715744,-0.152962,0.23643599,0.66063398,1.0,0.0,0.0,0.0,91.80358009810064
3.7069,18879.8919,-1.0984569192128255,3.480127968787086,9.172111198315438,1.195622251896631,-2.2960003106648683,2.787315089476813,689.4444540937361,-1438.5983256388045,-700.1247766210132,89.193375,90.76525081326197,0.0,89.193375,0.6816685523398155,-0.16928799,0.20581099,0.68140399,1.0,0.0,0.0,0.0,94.05166479531839
3.7276,18879.9119,-1.7835866218011436,3.538156045354346,9.476566621372967,1.1637678442349095,-1.4738120707104558,2.4112779403387896,790.6995996762289,-1380.2991666260261,-710.7774095498974,92.187576,92.13095502372946,0.0,92.18757600000004,0.6704428705305318,-0.17865001,0.17726099,0.69797498,1.0,0.0,0.0,0.0,95.79749006467944
3.7452,18879.9319,-1.9476524890853169,3.3533208019057734,9.572475984946557,1.0997937393801966,-0.5899669514967323,2.014786942667803,865.3264023441171,-1326.2772609967878,-726.8650184377942,94.590569,93.57818470912477,0.0,94.59056900000002,0.6601061582874529,-0.181932,0.15572201,0.71197701,1.0,0.0,0.0,0.0,97.38406094401867
3.7677,18879.9519,-1.692636661962907,3.160880897946167,9.384698507371905,1.0245906799691005,0.3546038501834887,1.6303041384730994,921.2553479537937,-1276.665911340893,-746.8899688802879,96.672211,95.1935599367894,0.0,96.672211,0.6496961899683263,-0.18104599,0.14081401,0.72476798,1.0,0.0,0.0,0.0,98.96260037055805
3.8151,18879.9719,-1.0562049025612468,3.1409488340120304,8.780575189606147,0.9694143755650004,1.3376625448148185,1.2593167103077285,958.3550683408007,-1234.8154535779322,-770.4295811153278,98.545631,97.0749684243168,0.0,98.54563100000001,0.6383759485420012,-0.17643701,0.134921,0.73698199,1.0,0.0,0.0,0.0,100.65835120179075
3.825,18879.9919,-0.08083576775263002,3.241610141502228,7.662590566653332,0.9534959938091495,2.281530576104146,0.9009749010931953,965.2953714818177,-1205.2040427644774,-808.6324154571821,99.803215,98.8755457588058,0.0,99.80321500000002,0.6292180652131657,-0.164759,0.137668,0.74698502,1.0,0.0,0.0,0.0,102.01508732299979
3.8346,18880.0119,1.1169362244973597,3.3888305848062226,6.032845591627336,0.9371825000057401,3.095426292551584,0.5668681985614504,941.9034364487372,-1180.9474196168094,-872.389812334004,100.703262,100.8798004477601,0.0,100.703262,0.6207323566496755,-0.14270701,0.148096,0.756567,1.0,0.0,0.0,0.0,103.26073043875779
3.8492,18880.0319,2.267240653700277,3.3689344836656376,4.107908504061243,0.8358926376246262,3.6922231777539154,0.31920582769819617,888.4198339646023,-1149.6126960026795,-971.3736016844186,101.50116,103.11891533989281,0.0,101.50116000000003,0.6124242661644945,-0.107288,0.16096,0.76649702,1.0,0.0,0.0,0.0,104.46999926559462
3.866,18880.0519,3.1101007967019187,3.185234604746716,2.2003610923562675,0.5988831075682461,4.044525478270327,0.18027841649874693,810.3425292663703,-1118.7387106969331,-1081.5320696772117,102.309174,105.34979980154034,0.0,102.30917399999998,0.6035065977183844,-0.065266,0.176733,0.77478099,1.0,0.0,0.0,0.0,105.75709162665436
3.8892,18880.0719,3.59292092244463,2.762106057743974,0.5831621761293917,0.26350043175042726,4.193597891597855,0.16112453995661702,721.4867756602099,-1100.2666295690049,-1177.8717831817928,103.046112,107.31648038313462,0.0,103.046112,0.5944128867348856,-0.025284,0.195297,0.77967501,1.0,0.0,0.0,0.0,107.05842112952976
3.907,18880.0918,3.782608596711115,2.0621841225437945,-0.6372770200301687,-0.06085113061981029,4.239612651233562,0.2713820390040091,644.4124451272147,-1098.6715527524325,-1247.3664234476985,103.576385,108.81246057724712,0.0,103.57638500000002,0.5866912008923774,0.005329,0.21302,0.78127301,1.0,0.0,0.0,0.0,108.15488866892248
3.9256,18880.1118,3.8742763747663984,1.2716630838366725,-1.608021705302777,-0.2743327926061394,4.298102295978755,0.47356516051300457,581.1199340662666,-1113.5613620705335,-1292.9991229211405,104.064537,110.32324752506011,0.0,104.06453699999997,0.5781487050189765,0.027476,0.23268799,0.78156602,1.0,0.0,0.0,0.0,109.35912503288502
3.9481,18880.1318,3.9188789489777096,0.5373989440775852,-2.5502383358796,-0.3145455943349659,4.444469115935043,0.7658828507637727,522.8490208367953,-1124.5794525951783,-1329.1832790883498,104.90242,112.20510847218132,0.0,104.90242,0.5669944546558986,0.0477,0.25222301,0.782704,1.0,0.0,0.0,0.0,110.91819052208285
3.9674,18880.1518,3.82188153624144,0.00576309462777461,-3.6700484603771457,-0.18761622877812578,4.693306341821326,1.1067771899808614,464.6388647284848,-1115.3979682698425,-1351.175975471976,106.359612,114.64870613257301,0.0,106.35961199999997,0.5520777916782015,0.068114,0.270733,0.78566802,1.0,0.0,0.0,0.0,112.98064948170463
3.9911,18880.1718,3.530699466628003,-0.3207080627281498,-5.077001874198293,0.05562227385314311,5.003080288400554,1.4639379464407312,394.7159465180658,-1067.2343679193168,-1344.7445383395939,108.848869,118.07178301306418,0.0,108.84886899999998,0.5308402900856338,0.091904,0.289722,0.79109001,1.0,0.0,0.0,0.0,115.87550511999625
4.0054,18880.1918,3.0312617317884394,-0.5574891671482146,-6.71095584458423,0.3821918715597975,5.307436297287804,1.8349454027673517,307.8095483336269,-964.3735654220842,-1281.5905588411924,112.432076,122.40387939075225,0.0,112.432076,0.5039362063726716,0.119374,0.30868199,0.79781801,1.0,0.0,0.0,0.0,119.47847839126423
4.0304,18880.2118,2.371068010856092,-0.7201047209560664,-8.453428682151877,0.7773651452085174,5.542066414573242,2.264159833679749,212.93850398391686,-797.8380686492162,-1132.382352259089,117.050987,127.3315819047484,0.0,117.05098700000002,0.4734523855514927,0.14840899,0.32542101,0.80493402,1.0,0.0,0.0,0.0,123.48273449862894
4.0477,18880.2318,1.5364801204278073,-0.5737490201457964,-10.242872051279738,1.2898048212635707,5.651346369874774,2.8015713389794143,113.65551116013575,-579.3824893906709,-893.6731408733376,122.914749,132.89607807735783,0.0,122.91474900000003,0.4397059740854786,0.182614,0.34095901,0.81059098,1.0,0.0,0.0,0.0,127.8297547295994
4.0692,18880.2518,0.2401033158953686,0.26148423821111966,-11.902647158350613,1.9705707040021638,5.607319437153288,3.385473625308881,30.67250190739648,-353.88385923807533,-601.4200516920775,130.669571,139.77761389061234,0.0,130.66957100000002,0.4005357762660396,0.224489,0.35977599,0.81224197,1.0,0.0,0.0,0.0,132.77664657790058
4.0977,18880.2718,-1.8209607292077385,2.007773506192584,-12.962153354516872,2.706631352705978,5.315289476913094,4.031306369853877,-2.863022999026626,-161.7328537681995,-331.4797313313941,141.251099,147.92687938466943,0.0,141.251099,0.3543448873523641,0.266974,0.371115,0.81574398,1.0,0.0,0.0,0.0,138.4934012228873
4.119,18880.2918,-4.6599332095554304,4.306273113208397,-12.74410426004855,3.3708590899157955,4.723243819972586,4.5684159993903855,-2.9159238180426073,-35.99068046948864,-135.21614030354078,155.195251,158.32024251247228,0.0,155.19525099999998,0.2936375222335861,0.30842999,0.37375799,0.82398599,1.0,0.0,0.0,0.0,145.84828956946342
4.1287,18880.3118,-7.71605458009123,6.097074606831086,-10.85557275432206,3.8474725032279893,3.8929205204421353,4.739392134797987,7.616030500806827,24.274571802023075,-21.28347608320555,170.522827,171.00295681118484,0.0,170.522827,0.2151096120663133,0.344201,0.36846599,0.836353,1.0,0.0,0.0,0.0,155.1560838377681
4.148,18880.3318,-9.832592646411882,6.577741865804056,-7.773480462052079,4.159513507966627,2.9908542676829053,4.333533401340054,15.484480199342256,41.63638476427243,26.802433212321016,-176.084763,-175.91878474305892,0.0,176.084763,0.1286727053808997,0.37532601,0.355286,0.84637201,1.0,0.0,0.0,0.0,165.21420045380182
4.1724,18880.3518,-10.149595917448037,5.969596018487303,-4.540662719783169,4.26913025521315,2.2741364917621927,3.3996182428710435,17.93752865329632,39.28140818712948,33.10518703386862,-166.233475,-164.10157148968375,0.0,166.233475,0.0460500403860723,0.40512601,0.33136299,0.85085303,1.0,0.0,0.0,0.0,174.72118724286526
4.1945,18880.3718,-9.208919319962035,5.253583415721721,-2.4121671340332416,4.001412862473895,1.969032713260306,2.39371008930097,15.098381797792086,32.33783909147726,19.687932634432816,-162.145615,-157.81454918602648,0.0,162.145615,0.0064633701734768,-0.419945,-0.30106601,-0.85613298,1.0,0.0,0.0,0.0,179.25934717838277
4.2204,18880.3918,-8.035260478876685,4.581618470736872,-0.8813979535111116,3.4910609115019735,2.1115885931364202,1.5501314399004684,10.620770151353954,27.045445047878747,1.520669754034385,-160.890167,-154.40136641186314,0.0,160.890167,0.0385131210506211,-0.43455601,-0.26520899,-0.85984999,1.0,0.0,0.0,0.0,175.5856296800295
4.2334,18880.4119,-7.155325233368464,3.4683785776845943,0.639035081572267,2.817094136093888,2.6323193128931894,0.9531865891174487,5.5707792153894715,25.165597562796197,-13.527871874556352,-159.109299,-148.98567102199237,0.0,159.109299,0.0748091598420912,-0.46191001,-0.227484,-0.85398698,1.0,0.0,0.0,0.0,171.4194856705189
4.2672,18880.4319,-6.683631501463399,2.0969005282195434,1.9534077037384545,2.0473777458582765,3.2601804829150893,0.6213161726086263,0.4404626759278045,25.34361825430864,-23.008944994992362,-156.649872,-141.18956061403804,0.0,156.649872,0.1125844818141461,-0.49704701,-0.19921499,-0.837008,1.0,0.0,0.0,0.0,167.07135764591843
4.2688,18880.4519,-6.53422949761646,0.9756098662381082,2.9076038704304175,1.3602433872565092,3.736492246425403,0.41167734184407784,-3.1653190614546887,25.599786524796155,-27.738383538764353,-154.740021,-133.06281562554068,0.0,154.740021,0.1392280061431598,-0.53242099,-0.183182,-0.81460899,1.0,0.0,0.0,0.0,163.9936464728647
4.2881,18880.472,-6.310792738072678,0.2392666820284277,3.73020006174732,0.8503870715288384,3.996034548139426,0.1751559864656751,-5.222663034873015,25.556271205991482,-29.283875612075416,-153.289093,-123.92014970425122,0.0,153.289093,0.1587100186300127,-0.56949103,-0.173444,-0.78766,1.0,0.0,0.0,0.0,161.735941949314
4.3061,18880.492,-5.791937334115948,-0.1272795137982563,4.546627101677995,0.4885786123348126,4.066421714506331,-0.11963713578839166,-6.119259085318541,25.426913719922716,-29.144858591835277,-152.220428,-114.06380050516792,0.0,152.220428,0.174794498678248,-0.604536,-0.165629,-0.75930899,1.0,0.0,0.0,0.0,159.86660114701203
4.3277,18880.512,-4.9420396524037695,-0.16004065302873016,5.344346956963484,0.25450576506789524,3.9947982589673865,-0.4323018531338551,-5.992362383677855,25.462635032180305,-28.393025283123716,-152.319077,-104.99105772087279,0.0,152.319077,0.1835573895689837,-0.63569599,-0.153455,-0.73392701,1.0,0.0,0.0,0.0,158.84592664051937
4.3491,18880.532,-3.876522670247298,-0.07720016862155843,6.035225574912875,0.09337601449025734,3.8112259653730383,-0.6917458637688955,-5.235032653936429,25.75000178368306,-27.54897218795063,-153.660995,-96.7585093633349,0.0,153.660995,0.1852452289275993,-0.66289598,-0.135005,-0.71275997,1.0,0.0,0.0,0.0,158.64913977978136
4.3663,18880.5521,-2.664951564669463,0.02976004810760946,6.524087886670447,-0.07987450400446128,3.4863800549097244,-0.8961506144812357,-4.698723899399605,25.963525266649473,-27.0121605540554,-155.37645,-87.52803543202292,0.0,155.37645,0.183000260882983,-0.689542,-0.117565,-0.69081199,1.0,0.0,0.0,0.0,158.91086894577776
4.39,18880.5721,-1.3543762751897017,0.16150598592022192,6.691787629761972,-0.30147588177346774,2.9704887681796275,-1.0634149397655959,-5.004617354144816,25.97931665869904,-26.846047102189207,-156.863037,-76.21000040352783,0.0,156.863037,0.1797515531002695,-0.71803403,-0.105462,-0.664074,1.0,0.0,0.0,0.0,159.2894223696955
4.4067,18880.5921,-0.33492208902327614,0.37079066811720507,6.464515582950103,-0.5287895595270139,2.268046217825756,-1.219996987645616,-5.584520771933344,25.841718475915037,-27.009226240223466,-158.288696,-66.1957217490471,0.0,158.288696,0.1728108371047935,-0.74231398,-0.098057,-0.63991499,1.0,0.0,0.0,0.0,160.09742508632348
4.4267,18880.6121,0.1589591860069034,0.5698713123071055,5.970006457480348,-0.7552105152252753,1.4699858550386296,-1.3751804192541253,-5.779210290749504,25.7892403806272,-27.29191101739315,-159.905838,-59.60083628047287,0.0,159.905838,0.1619851053794131,-0.75740802,-0.090963,-0.62595499,1.0,0.0,0.0,0.0,161.3557246897864
4.4513,18880.6322,0.3240910706193071,0.75002399453386,5.418251968916733,-1.0477780272671235,0.6883944402175818,-1.5345673890063531,-5.634823997830755,25.842904290774456,-27.58130186779317,-161.670624,-55.437274578634835,0.0,161.670624,0.1486171659450538,-0.76511502,-0.083317,-0.62094301,1.0,0.0,0.0,0.0,162.90640438935387
4.4711,18880.6522,0.414283791992325,1.0034711342443203,4.9554711690203135,-1.4675925807635783,-0.008558768323912558,-1.6896074852688303,-5.383282579088887,25.819120065682043,-27.925658930819466,-163.374771,-52.856525768876814,0.0,163.374771,0.1325726663402362,-0.768224,-0.07791,-0.62143898,1.0,0.0,0.0,0.0,164.76343545866408
4.4886,18880.6722,0.5845830524743849,1.4082093345849482,4.587776908732408,-2.038502495373712,-0.5969990356701401,-1.8076270373223207,-5.047078192819729,25.620212438480245,-28.361258819615138,-165.219437,-50.825492482299765,0.0,165.219437,0.1113412878259451,-0.768915,-0.074877,-0.62511301,1.0,0.0,0.0,0.0,167.21471859066907
4.5073,18880.6923,0.8652960198501063,1.994439035390187,4.158936358223919,-2.7623622749261445,-1.0691946517633149,-1.8436808534913143,-4.599105556037985,25.282588829248766,-28.822812379252927,-167.465988,-48.06755141170073,0.0,167.465988,0.0828471245801559,-0.768475,-0.073177,-0.63025999,1.0,0.0,0.0,0.0,170.49552505609046
4.5298,18880.7123,1.115372933211611,2.747295145801067,3.423901029623309,-3.59776374682297,-1.4280638918372732,-1.7855138464235794,-3.9956705245752353,24.870804793849896,-29.22348883207281,-169.891129,-44.941905999358646,0.0,169.891129,0.0473796373975066,-0.76529402,-0.075182,-0.63751698,1.0,0.0,0.0,0.0,174.568660118075
4.5473,18880.7323,1.2530658653237707,3.5906561564368618,2.1778147015109557,-4.478340334034767,-1.6849064578359165,-1.6512220987494732,-3.314972678576842,24.425719904491995,-29.509026861535673,-172.193298,-41.89180038136266,0.0,172.193298,0.0054449002028092,-0.75853097,-0.084524,-0.64610898,1.0,0.0,0.0,0.0,179.37605731399395
4.5694,18880.7523,1.3047126955328845,4.290591335583674,0.3929377503152178,-5.3372323597771585,-1.824091496921063,-1.4910084759938322,-2.5925724882230936,24.168214481427047,-29.554634478512725,-174.401703,-37.7242064131709,0.0,174.401703,0.0417957889314218,0.748393,0.100458,0.65426999,1.0,0.0,0.0,0.0,175.20915985111364
4.5917,18880.7724,1.3052816722702323,4.560077519876633,-1.7405810924425005,-6.104481900467277,-1.8400829684677298,-1.397490494301881,-1.9235592990361012,24.438286490745014,-29.19174024083356,-176.537979,-30.799241558863145,0.0,176.537979,0.0894677079690739,0.73515898,0.119764,0.66120601,1.0,0.0,0.0,0.0,169.73402906143224
4.6072,18880.7924,1.211170872611339,4.349654317028546,-3.9985837258068697,-6.702626947263057,-1.8067456300024842,-1.4895281730390744,-1.327832088794451,24.936476778486593,-28.730762935967242,-178.599915,-19.62479060291906,0.0,178.599915,0.1376216527067579,0.71595699,0.14431199,0.66905898,1.0,0.0,0.0,0.0,164.17951036106007
4.6291,18880.8124,1.142380625136247,3.609132237038259,-6.1528977121376265,-7.109853387004522,-1.7451743823764216,-1.7673553352695914,-0.9285388058962525,25.457704139611042,-28.271534921228685,178.794724,29.247601573717084,0.0,178.79472399999997,0.1878364054287132,0.693618,0.16942,0.67446899,1.0,0.0,0.0,0.0,158.34690771392806
4.6491,18880.8325,1.1937602322564664,2.3765864763163695,-8.022267430649013,-7.351728484625771,-1.6328540325491419,-2.094303171921326,-0.7713137682239801,25.92412048788022,-27.744784384401246,175.107132,67.09990500337152,0.0,175.10713199999998,0.2428432332588234,0.67503601,0.18978401,0.67032498,1.0,0.0,0.0,0.0,151.8911774705964
4.6687,18880.8525,1.27150697169868,0.7865638167322497,-9.457550743159498,-7.392507527697484,-1.5752352728716243,-2.493083855555721,-0.6450835378896302,26.444865246540342,-26.98657612749953,170.348297,71.57815943097481,0.0,170.348297,0.2992278701053081,0.65674597,0.205796,0.660905,1.0,0.0,0.0,0.0,145.1775337506927
4.6954,18880.8725,1.3503624144993691,-0.9981004831510006,-10.359045423811095,-7.161278053950202,-1.8028903387948079,-2.987774248836565,-0.5840797482238385,26.35827345655652,-26.685818273923555,164.061798,75.84780143963454,0.0,164.061798,0.3599235331373031,0.62717599,0.22916999,0.65160298,1.0,0.0,0.0,0.0,137.80899998442902
4.7343,18880.8925,1.4007896863348541,-2.8679942078935454,-10.613845717936142,-6.707025270719298,-2.2187342932174645,-3.4278875408124314,-0.5369731479932547,25.79080890387549,-26.795815114702744,154.511826,76.6384046032299,0.0,154.51182600000004,0.4252197099284314,0.58994699,0.253802,0.63775802,1.0,0.0,0.0,0.0,129.67085774934827
4.7376,18880.9126,1.2463971544431227,-4.6649418419256685,-10.313646671342713,-6.161152532143879,-2.503024771852114,-3.7361470882672987,0.01835748059692044,25.47641725643465,-26.60066668330994,140.127335,71.3377378697337,0.0,140.12733500000002,0.4929648356870283,0.55691999,0.26174599,0.61507303,1.0,0.0,0.0,0.0,120.92872278181723
4.7491,18880.9326,0.9262100163383338,-6.2723267710330255,-9.573723723451199,-5.4726209917711826,-2.7835670790191833,-3.9349080255798534,0.6795195940707455,25.14185829575706,-26.2347163455957,122.080475,67.25053780899867,0.0,122.08047499999998,0.557330334657427,0.52103198,0.258205,0.59265399,1.0,0.0,0.0,0.0,112.25725416545451
4.7674,18880.9526,0.5442846142943598,-7.737822050616297,-8.507918457390923,-4.6014624944059035,-3.1841365810209195,-3.9370912392711883,0.5073980700606668,24.474502715852218,-25.900720414241427,104.902313,65.97829479750973,0.0,104.90231299999999,0.6118112273548431,0.478549,0.252967,0.57678902,1.0,0.0,0.0,0.0,104.5588359402124
4.7919,18880.9726,-0.17558117686936336,-9.19811797212715,-7.348261306893244,-3.6832236797465807,-3.5384534782800263,-3.6517775673560413,-0.28424715264647915,23.674478255765333,-25.44933855406932,91.311325,64.14640770295586,0.0,91.31132500000001,0.660095954398298,0.438409,0.241309,0.560215,1.0,0.0,0.0,0.0,97.3856175410215
4.8103,18880.9926,-1.456248749145349,-10.577362271565006,-6.433964537003925,-2.8649563227935495,-3.7688108299783156,-3.063850191908972,-1.0184817915851347,23.275410679117655,-24.649697434119958,81.285095,60.541194471280946,0.0,81.28509500000001,0.7059041318173026,0.40790501,0.21539199,0.537512,1.0,0.0,0.0,0.0,90.1947323065779
4.8286,18881.0127,-2.632660731644628,-11.286155063503651,-5.414339638194764,-2.1529174060037755,-4.1365168376728985,-1.9810294906593302,-2.0470750150272865,22.291981746118513,-24.735359623219495,71.945419,57.60557268392243,0.0,71.94541900000002,0.7509414420668364,0.367255,0.195492,0.51282901,1.0,0.0,0.0,0.0,82.65601111961266
4.8471,18881.0327,-2.6803118067833744,-10.982058677701458,-4.4392105710787595,-1.515968663209916,-4.535748618153053,-0.5832488579432761,-3.7377725866424507,21.08525378308136,-25.359574110981463,65.965286,56.81560256466151,0.0,65.96528599999999,0.7834147890785313,0.321125,0.184762,0.49900201,1.0,0.0,0.0,0.0,76.85139517275637
4.8682,18881.0527,-1.1811267478859255,-9.624105753925654,-3.6246697739665237,-0.9015294318821658,-4.862733947787595,0.7619245815914557,-5.8366905917635705,19.911001529886686,-26.09658153421244,64.537132,58.941034876200185,0.0,64.53713199999999,0.7984272864320702,0.27572501,0.176992,0.50513703,1.0,0.0,0.0,0.0,74.03963874775249
4.8911,18881.0727,1.269396420736651,-7.297271787721596,-2.7069305569271673,-0.3684876930907128,-5.083642819307456,1.7591015415222306,-7.631353789644935,18.790276741148794,-26.887776864546435,66.433228,63.144196001295505,0.0,66.43322799999999,0.800489146589721,0.23206,0.16396099,0.52771401,1.0,0.0,0.0,0.0,73.64632433538851
4.9074,18881.0928,3.6601823947885523,-4.34394850576664,-1.256727378895766,0.022434582185563823,-5.172942266665999,2.302474126337448,-8.61880805088892,17.639217868306957,-27.882760057687218,69.906357,68.16089084069965,0.0,69.90635700000001,0.7954998607302328,0.186395,0.141893,0.55884099,1.0,0.0,0.0,0.0,74.59501145992763
4.9293,18881.1128,5.1702655970784,-1.3194263355384153,0.8021057928100852,0.31156426905856005,-5.089842339768725,2.4624488699910487,-8.923628145592076,16.332574403309287,-29.09849230350971,73.808189,73.14864274568397,0.0,73.808189,0.7857807010771007,0.136917,0.114519,0.59218901,1.0,0.0,0.0,0.0,76.41411735032969
4.9475,18881.1328,5.389016163868325,0.7863634763973467,3.14764672309334,0.4482387511108735,-4.891067729833068,2.281782861806297,-8.479680614702119,15.807271457472613,-30.004280118402992,77.143089,76.75767432574582,0.0,77.14308900000003,0.7760629207087528,0.095156,0.075507,0.618846,1.0,0.0,0.0,0.0,78.19699948139852
4.9693,18881.1529,4.657395501021999,1.5628078854201866,5.363289192042581,0.4400026969974046,-4.585822276179781,1.9924139395264102,-7.887291900643191,16.049322656824458,-30.44699203008809,79.341393,78.99649896411606,0.0,79.34139299999998,0.7684263642927928,0.064173,0.032898,0.63586199,1.0,0.0,0.0,0.0,79.57442542871699
4.9989,18881.1729,3.421418557067927,1.24518226791732,7.047484758561875,0.285464230020105,-4.189504767224358,1.8082234511577209,-7.431431338515175,16.652985008112477,-30.545139771150055,80.808151,80.63594722179708,0.0,80.80815100000001,0.7613857313272422,0.039765,-0.007751,0.64703202,1.0,0.0,0.0,0.0,80.82697267650725
5.0126,18881.1929,2.12327311112341,0.4304668082607286,7.9124886842914215,-0.0019952914712250136,-3.735903472379032,1.8358757885563548,-7.135082900794238,17.105924860063453,-30.573948745421376,82.096519,82.2657882849739,0.0,82.096519,0.7529816682995939,0.015744,-0.041687,0.65653098,1.0,0.0,0.0,0.0,82.30135290813746
5.0277,18881.2129,1.193058687787787,-0.48161289446622946,7.932894470173228,-0.346402877415881,-3.279994033454917,2.026795834262207,-7.085474497224919,17.297461867503475,-30.603607139603923,84.009338,84.52986887040264,0.0,84.00933800000001,0.7398050890694383,-0.007696,-0.067812,0.66935098,1.0,0.0,0.0,0.0,84.57037040590622
5.0492,18881.233,0.8845425571850698,-1.158292058663342,7.3459876592499285,-0.680130115897397,-2.847493323789078,2.313184818766269,-7.212359128580251,17.101468059124276,-30.721083013687142,86.732109,87.44317184084301,0.0,86.73210899999998,0.7218018264628039,-0.031629,-0.084439,0.68620098,1.0,0.0,0.0,0.0,87.59311273880763
5.0728,18881.253,1.0466506386312422,-1.583440581876736,6.504024842794113,-0.980386582754714,-2.4562266060338684,2.5884637772674304,-7.063789513907557,16.936536122344467,-30.7769652553623,89.660721,90.4373494683202,0.0,89.66072099999997,0.7023112500251437,-0.055063,-0.098235,0.70290601,1.0,0.0,0.0,0.0,90.7745374050651
5.0979,18881.273,1.5611229305740082,-1.7199248630792612,5.730260840007945,-1.16028694174612,-2.099429983530931,2.7989103743085444,-6.873153770711608,16.95275299072811,-30.672495493989786,92.914391,93.69752176018353,0.0,92.91439100000002,0.6806855170348045,-0.074186,-0.110077,0.72044897,1.0,0.0,0.0,0.0,94.20552997138651
5.1096,18881.2931,2.224897288479141,-1.6191812053132821,5.21784286395336,-1.1152549577987823,-1.723069223625865,2.936070100460049,-6.9554359633419764,16.973718511316417,-30.533382560865768,96.877594,97.62775833101664,0.0,96.87759399999999,0.6547472885107044,-0.087697,-0.118368,0.74135298,1.0,0.0,0.0,0.0,98.19901838193633
5.1274,18881.3131,2.65519984227042,-1.3566421966483146,4.94604560190837,-0.8250730222690735,-1.167453804145291,3.012051759564664,-6.715434517889882,16.53515152419427,-30.80478252412799,101.079613,101.51180246528331,0.0,101.079613,0.6277564044088597,-0.105747,-0.121784,0.76151699,1.0,0.0,0.0,0.0,102.23042517101311
5.1468,18881.3331,2.881231138765756,-1.2656152763700375,4.626707167804785,-0.26647231592897724,-0.36690001067531325,3.03773680654202,-5.994997837857331,15.881872158223576,-31.326273425877933,105.330521,105.32812801089678,0.0,105.33052099999998,0.6001918152056717,-0.12571099,-0.125632,0.77986097,1.0,0.0,0.0,0.0,106.2327267328603
5.1694,18881.3531,3.5321135403560335,-1.3593602358654517,3.9315073079399028,0.5706208153019157,0.6785057445635344,3.071794149672511,-5.787089800838949,15.18831476277389,-31.75152690331974,109.673676,109.46088253770918,0.0,109.673676,0.5716241342820121,-0.132254,-0.12509,0.80006701,1.0,0.0,0.0,0.0,110.27288119382037
5.1946,18881.3732,4.717823540162056,-1.6547369439155215,2.7674691341534725,1.5201124746945116,1.8267269759333125,3.1750061322223138,-6.092080611309349,15.205900934417974,-31.71719134681663,112.849716,113.12811346340474,0.0,112.849716,0.5486391043418613,-0.116665,-0.126886,0.81809801,1.0,0.0,0.0,0.0,113.45260030198472
5.2224,18881.3932,6.147075219734058,-1.712833017046517,1.2551441890802462,2.3962554805261167,2.897766675300651,3.437221909830684,-6.62581635141257,15.973878033367615,-31.170146892319792,114.641472,115.84395588527487,0.0,114.64147200000002,0.5328838860557146,-0.081073,-0.132918,0.83174199,1.0,0.0,0.0,0.0,115.59896945219153
5.2284,18881.4132,7.277697412237016,-0.8974508513215094,-0.24260866960734262,2.9939095355013627,3.7842711751811775,3.908033143377759,-6.916515916273701,16.963431774632628,-30.287565208084725,116.347816,118.39169266454223,0.0,116.34781599999997,0.5159516321441961,-0.035193,-0.143888,0.84371299,1.0,0.0,0.0,0.0,117.87783072355587
5.2572,18881.4333,7.656806289073889,1.0599702366494945,-1.3548405933873173,3.2197146856926033,4.447377342893724,4.521088407273826,-6.766850457115965,17.83394685043785,-29.19283520197642,118.85228,121.35225023594386,0.0,118.85228000000001,0.491583530000182,0.016899,-0.15807199,0.856197,1.0,0.0,0.0,0.0,121.11056870993136
5.2702,18881.4533,6.796713846643404,3.9624793173480706,-1.8667029032626719,3.0267774318596223,4.993209448893269,5.071983314414094,-5.8460038540877335,18.150506034125293,-28.294732872447454,122.963745,125.30144535179673,0.0,122.96374500000002,0.4549150867219496,0.065837,-0.16918901,0.87183303,1.0,0.0,0.0,0.0,125.88105821438164
5.2902,18881.4733,4.481867700757723,6.884887645412446,-2.00886465437533,2.422665991212212,5.472420420131617,5.3992453814879005,-4.354347842650189,18.363033340580703,-27.44413335540307,129.093521,130.74578434465747,0.0,129.093521,0.4019239218540241,0.112546,-0.17666601,0.89139199,1.0,0.0,0.0,0.0,132.60298531722708
5.3067,18881.4933,1.4502884342089315,8.597139820752183,-2.198774415146783,1.7690761985412236,5.786714054363523,5.409102633883565,-2.835164446319509,19.144632302203526,-26.277157971039998,135.36116,135.67174740675713,0.0,135.36116000000004,0.3463762953904893,0.167942,-0.178883,0.90543902,1.0,0.0,0.0,0.0,139.46833477781814
5.3285,18881.5134,-1.3235818170038973,8.793309039230783,-2.6698755970515204,1.24015584568534,6.0081953042635545,5.101346572662276,-1.3976702561366308,20.146578230509608,-25.154007807086465,141.029907,139.30134210918138,0.0,141.02990699999998,0.2965081349087407,0.22865,-0.17182,0.91119701,1.0,0.0,0.0,0.0,145.5040124068444
5.3519,18881.5334,-3.2296918697568553,7.828021646101185,-3.3983650200668114,0.8698199260039394,6.149735785936227,4.630022092915467,0.031009374520429844,21.163378300600833,-24.30214656622809,145.896332,141.66518573662438,0.0,145.89633200000003,0.2546507709028582,0.29012099,-0.159042,0.908674,1.0,0.0,0.0,0.0,150.49421464279743
5.3693,18881.5534,-4.164327053421914,6.28835479840045,-4.098652042963888,0.6989826646821662,6.163538129553416,4.204864026274492,1.1752844583295987,22.245491599226145,-23.68903371202448,149.967499,142.5825541109323,0.0,149.96749899999998,0.2194515191283029,0.355793,-0.146374,0.89656401,1.0,0.0,0.0,0.0,154.64635974712704
5.398,18881.5735,-4.413149851470633,4.702978675640068,-4.495256155887827,0.723452792258704,6.041633195761902,3.9583717052253307,1.9021392833215387,23.353546393670506,-23.354419001702915,153.471451,141.84669208356783,0.0,153.471451,0.1881641512177062,0.42567399,-0.136453,0.874515,1.0,0.0,0.0,0.0,158.30866897693235
5.4109,18881.5935,-4.334128159836583,3.4162723529053594,-4.552083140492188,0.8784803790667792,5.84666295818007,3.8993957133142074,2.5156046293127634,24.32034139704895,-23.409627495807975,156.684952,139.84293630442014,0.0,156.684952,0.1586915360052942,0.490648,-0.128583,0.84708202,1.0,0.0,0.0,0.0,161.73808708802673
5.4362,18881.6135,-4.127564855313967,2.5292407117446167,-4.34205199889789,1.0920624595232946,5.673874104888292,3.989292029134958,2.801198335948815,25.195455044193487,-23.788188005608923,160.195374,137.1817640800898,0.0,160.19537400000002,0.1262566735929612,0.549119,-0.120066,0.81738102,1.0,0.0,0.0,0.0,165.4933342387275
5.4535,18881.6335,-3.9273392549243082,2.0164905792923813,-4.056623787097344,1.2844155578820415,5.618481719943754,4.171387079581087,2.5249616358516205,26.11876462943571,-24.30360554441213,164.320511,133.94551733641453,0.0,164.320511,0.0878840096895872,0.60192102,-0.109236,0.78615201,1.0,0.0,0.0,0.0,169.91622529130169
5.47,18881.6535,-3.8453268991448595,1.7978292750155214,-3.9092046786133796,1.3825969605233839,5.717432071678791,4.4010962196528265,1.7105340589528049,27.11924188001147,-24.724912759561718,168.92955,128.24169789433785,0.0,168.92955,0.0441754955068936,0.650123,-0.096011,0.75244302,1.0,0.0,0.0,0.0,174.93621321250552
5.5038,18881.6735,-3.8733606765227124,1.7920182624300436,-4.008073206933814,1.3961128573221204,5.913674939510155,4.667968790326979,0.33254096443108283,28.118723276149797,-24.80668159553748,173.695602,102.47303225679266,0.0,173.695602,0.0032913142115891,-0.69855601,0.081065,-0.71094102,1.0,0.0,0.0,0.0,179.62284249230484
5.5149,18881.6935,-4.037559958275641,2.049330971519745,-4.42890560735462,1.359540443970402,6.155570076826959,4.950334946840281,-1.2399935628155903,28.7122790582003,-24.70566356017087,178.566772,11.737216207630775,0.0,178.56677200000001,0.0503086540730274,-0.74622202,0.061094,-0.66097599,1.0,0.0,0.0,0.0,174.23261831435005
5.53,18881.7135,-4.435429175217894,2.6607014485023974,-5.134524139318652,1.4042830553695476,6.40903882377871,5.238948079670433,-2.535121340747433,28.60860607105794,-24.723614820355273,-176.757339,-11.695190908113675,0.0,176.757339,0.0921872583751134,-0.791013,0.035248,-0.60378599,1.0,0.0,0.0,0.0,169.42109798508028
5.5472,18881.7334,-5.263088409485697,3.604061495889181,-5.877630609315908,1.735148217464365,6.636547945716568,5.5521701642332735,-3.2154405477608075,27.921532679359263,-24.875768418771028,-172.690338,-16.59453190123377,0.0,172.690338,0.1289097964249368,-0.83152002,0.009194,-0.54025197,1.0,0.0,0.0,0.0,165.18680365332673
5.5674,18881.7534,-6.719507853219218,4.6333530090522075,-6.100309707431714,2.4336418364478045,6.8036976520837555,5.884197888008314,-3.4545601482652915,27.014965709770244,-24.915403404803445,-169.019409,-18.167728710216373,0.0,169.019409,0.1692708681091332,-0.86598802,-0.013632,-0.47034699,1.0,0.0,0.0,0.0,160.50914299109223
5.5981,18881.7734,-8.706423092222686,5.313668887420098,-5.164693210497683,3.3373353803715373,6.95678700562392,6.110087279791219,-3.434340743060511,26.0494511124081,-24.923833850180966,-165.043854,-19.471448727239206,0.0,165.043854,0.2188610824030152,-0.89029402,-0.037493,-0.39758101,1.0,0.0,0.0,0.0,154.71570460297448
5.6177,18881.7934,-10.359230362540295,5.074009279923256,-2.516581478197641,4.3064604308528995,7.136408743083002,6.01761912133561,-3.911187989179178,25.242532743083498,-24.865829725547652,-160.94046,-19.955144633650143,0.0,160.94046,0.2797385122863485,-0.90517598,-0.062493,-0.31384301,1.0,0.0,0.0,0.0,147.51080214064842
5.6298,18881.8134,-10.216542494113284,3.588890455744255,1.5267610323167737,5.137740238104156,7.2770119371091315,5.509776267410861,-5.1835901063955205,24.875102414199894,-24.524435041072177,-157.920364,-18.567378259514133,0.0,157.920364,0.3512731393260806,-0.907372,-0.08181,-0.215848,1.0,0.0,0.0,0.0,138.869588427745
5.6551,18881.8334,-7.558596561174902,1.2679513118752848,5.23255075128003,5.570132757476267,7.2277034913644655,4.7892415801278325,-6.427019192338885,24.959794368951613,-23.96439592053875,-157.041656,-15.395359627266638,0.0,157.041656,0.425797587534265,-0.89238,-0.090655,-0.118895,1.0,0.0,0.0,0.0,129.59768290127647
5.6696,18881.8534,-3.075821338084363,-0.8948050961526697,7.075016414606811,5.699276070438076,6.809302598722513,4.022615769014792,-7.020401899022772,25.228402191403667,-23.58191614772844,-160.373138,-10.291654007008903,0.0,160.373138,0.4925025866104254,-0.86559898,-0.083759,-0.034118,1.0,0.0,0.0,0.0,120.9895950548662
5.6947,18881.8734,1.6929293712353417,-2.1590303672416082,6.840411602560028,5.577546873069035,6.075401616339251,3.215344571498966,-7.2802033323404025,25.008064500139167,-24.00198651864951,-168.943207,-4.5587921412848855,0.0,168.943207,0.5418048447391363,-0.83666998,-0.07108,0.037128,1.0,0.0,0.0,0.0,114.38682566826434
5.714,18881.8934,5.646372901408969,-2.768568986405498,5.336005554628789,5.281536304191021,5.023522330259015,2.464298957461626,-7.6515876499905096,24.560859374546585,-24.700633878694177,177.826355,0.7020762763447045,0.0,177.82635500000004,0.5821915404808966,-0.80491298,-0.062294,0.096372,1.0,0.0,0.0,0.0,108.79033598554003
5.7274,18881.9134,8.539143239054468,-3.1786057848665705,3.413362000749256,4.9182495622471505,3.692270616240853,1.6662848425050085,-8.421666533520828,24.478454028829418,-24.873386612299463,156.221329,5.662049062253997,0.0,156.22132899999997,0.6242707180944814,-0.76507998,-0.058218,0.146797,1.0,0.0,0.0,0.0,102.74263980373792
5.75,18881.9334,10.254812599386302,-3.359071340014891,1.8552419663686965,4.487832246670305,2.2662680796251338,0.6180985742905735,-9.177580663681354,24.442384949082538,-24.93618643621268,126.74485,9.620019772138207,0.0,126.74484999999999,0.6617957101855978,-0.72478801,-0.058303,0.18250901,1.0,0.0,0.0,0.0,97.12606386309743
5.7715,18881.9534,10.907141423398786,-3.5919822921912417,1.0791799351854756,3.9847944940780025,0.9284517839069444,-0.6592181668056196,-9.568630546074228,24.448662998120476,-25.044694076357445,98.469963,11.664957408626803,0.0,98.469963,0.6942466366849314,-0.68896103,-0.063108,0.198423,1.0,0.0,0.0,0.0,92.06557149401998
5.7888,18881.9734,10.8079132542017,-4.178973696614299,0.9611636063338267,3.4679325801165257,-0.21113579000967808,-2.033000751744935,-9.530958805212226,24.5263585351155,-25.194621188143707,74.716164,11.773889475008554,0.0,74.71616399999999,0.7221514037091112,-0.66052598,-0.067621,0.193985,1.0,0.0,0.0,0.0,87.53521767767253
5.8065,18881.9934,10.249431763669632,-5.280562028871085,1.1444850609346258,2.990870538549914,-1.1680401738940196,-3.2475705333508023,-9.063381859969624,24.702249613562486,-25.29641453636156,53.747143,10.135797797002287,0.0,53.747142999999994,0.7461202809591894,-0.64039302,-0.067076,0.16941699,1.0,0.0,0.0,0.0,83.48917395270847
5.8285,18882.0134,9.361396259879468,-7.130674327050309,1.2679772004907193,2.4516683625036197,-2.1121612292069365,-4.079358999610594,-7.903551385286246,25.20501954651484,-25.112574928935143,33.771671,7.309745484280397,0.0,33.771671,0.7682979986978099,-0.62674701,-0.048843,0.120502,1.0,0.0,0.0,0.0,79.59740865154909
5.8464,18882.0334,8.303922355523746,-9.218764063831614,1.304161670277276,1.751043447236007,-3.028847863208032,-4.445248182419366,-7.103487020168912,25.716042452998284,-24.54361762092045,16.870096,4.080036285265091,0.0,16.87009599999999,0.7847736060945982,-0.61591798,-0.024821,0.064493,1.0,0.0,0.0,0.0,76.60051111832604
5.8697,18882.0534,7.019337819382785,-10.983528152319323,1.5410917988351152,1.0147598630524421,-3.818190992706961,-4.479026885033072,-7.009958939681622,26.236731768860686,-23.5397593126802,-1.002834,-0.2723481114744268,0.0,1.002834000000007,0.7970505168019402,-0.60351199,-0.018866,0.011306,1.0,0.0,0.0,0.0,74.30127324493985
5.8911,18882.0734,5.345759641047539,-11.93468453458986,2.198641859367573,0.29252263444686727,-4.445783679322302,-4.463043093732854,-7.1586522329383016,26.79650021808419,-22.258490609156254,-19.708755,-6.199567519677256,0.0,19.708754999999996,0.8059721862322792,-0.58947402,-0.033754,-0.042307,1.0,0.0,0.0,0.0,72.59150140551486
5.9101,18882.0934,3.2020113534681287,-11.462710736843345,3.4816879318322798,-0.4294816854768395,-4.967728517105608,-4.477297168343345,-7.145770148807147,27.034380704920203,-21.33411041580711,-37.508087,-13.276345484866193,0.0,37.50808699999999,0.8038210354441839,-0.58342201,-0.058568,-0.100301,1.0,0.0,0.0,0.0,73.00690137544517
5.9343,18882.1134,0.8026694915417893,-9.469040695188621,4.993858553617141,-1.191009059675534,-5.396326217513077,-4.418806009462343,-6.80737273179089,27.054015321658582,-20.828047736054078,-54.290234,-20.61754782523042,0.0,54.290234,0.7874143919482672,-0.58893698,-0.07899,-0.16398899,1.0,0.0,0.0,0.0,76.11093062450112
5.9616,18882.1333,-1.3493420267051492,-6.64429198936948,5.9152220167994525,-2.039729926149048,-5.65760672930683,-4.1812080459269225,-6.026552015288175,27.33619809685031,-20.255142935115607,-69.650795,-27.75365015213574,0.0,69.650795,0.7601359766576897,-0.59980899,-0.087135,-0.23415799,1.0,0.0,0.0,0.0,81.04762648662381
5.984,18882.1533,-2.9474898961898317,-3.994583194776012,5.7570586800440715,-2.8203645680537104,-5.737684509088055,-3.758328268512046,-5.174552627337832,27.898479457360963,-19.55127576739241,-82.482399,-35.030251795659716,0.0,82.482399,0.7263738403166374,-0.608917,-0.096102,-0.30391699,1.0,0.0,0.0,0.0,86.83348910031783
5.9955,18882.1733,-4.128081061608138,-2.2146530376519244,4.515814285251739,-3.3883451689845097,-5.689559725732627,-3.2779720396281236,-4.819739657197609,28.44009989204541,-19.069585778572694,-91.74926,-42.78117953997836,0.0,91.74926,0.6895723911345059,-0.613662,-0.120579,-0.36519799,1.0,0.0,0.0,0.0,92.80746110538661
6.0093,18882.1933,-4.9077267958351385,-1.352558895141115,2.616992369341986,-3.715462197681819,-5.544946394569214,-2.908087198989472,-5.283399091834522,28.621625750456698,-19.209959919818886,-97.72036,-50.72955800047384,0.0,97.72036,0.6506198465618152,-0.61553401,-0.163063,-0.41378999,1.0,0.0,0.0,0.0,98.82329607158506
6.029,18882.2133,-5.103641653297501,-0.9797596397176329,0.7106517440899083,-3.944338399978888,-5.237919697922456,-2.733568894036838,-6.03155154989347,28.43354800046807,-19.905824232701022,-102.455505,-58.135672334451236,0.0,102.455505,0.6064870502251798,-0.61894399,-0.207387,-0.45395201,1.0,0.0,0.0,0.0,105.32815004969217
6.0467,18882.2333,-4.712393330710781,-0.6856822577514503,-0.739629892341112,-4.196112160906141,-4.730448182026118,-2.7112751977864806,-6.629241329472878,28.238120473658856,-20.576987478563694,-107.727432,-63.890992912115415,0.0,107.727432,0.5571812855959176,-0.62884498,-0.235053,-0.48872599,1.0,0.0,0.0,0.0,112.27782374715262
6.0731,18882.2533,-4.090437967202668,-0.4117404647162295,-1.7521251279558214,-4.350065511410604,-4.179960733297822,-2.782436868742123,-7.333269383216813,28.129959757732315,-21.000745900116666,-112.890259,-68.25586396077465,0.0,112.890259,0.5075272310492706,-0.641505,-0.25177899,-0.51719898,1.0,0.0,0.0,0.0,119.00148047244787
6.0902,18882.2733,-3.5003349270892565,-0.19535739023640764,-2.480955539686021,-4.363931378340305,-3.7308672943178283,-2.8769774649312785,-8.141011706283791,28.017850753395866,-21.34528589704606,-117.593269,-71.99838965480225,0.0,117.593269,0.4579083363596906,-0.65356302,-0.26506099,-0.541219,1.0,0.0,0.0,0.0,125.49556316406722
6.1114,18882.2934,-2.970854619008288,-0.08845491105626424,-2.985593559170325,-4.307381518190626,-3.451096860832089,-2.894693402454644,-8.946872660888982,27.903775147828735,-21.690853842164834,-122.2267,-74.92890106010015,0.0,122.2267,0.4069690718849035,-0.667135,-0.27430701,-0.560413,1.0,0.0,0.0,0.0,131.97084339003746
6.1319,18882.3134,-2.4940507523144104,-0.1367948777571788,-3.3028864949737358,-4.231363617137374,-3.384363043557277,-2.797826942417916,-9.73448892977787,27.87499949784723,-21.93800629195814,-126.67244,-76.8845457058893,0.0,126.67244,0.3564426776795389,-0.68198901,-0.28001699,-0.57396001,1.0,0.0,0.0,0.0,138.236222611124
6.155,18882.3334,-2.0691325262384934,-0.2902003869599137,-3.501321540467086,-4.16315996013677,-3.5165160932879718,-2.6318495955704155,-10.443463103290437,27.942250186704005,-22.032974133038767,-130.544464,-78.46163462285956,0.0,130.544464,0.3082997835143897,-0.69438398,-0.285299,-0.58428299,1.0,0.0,0.0,0.0,144.0864052246237
6.1751,18882.3535,-1.7275519074186507,-0.4821448488425326,-3.6843676874704645,-4.108980877686102,-3.7363741820330403,-2.536090595555184,-10.74618589387686,28.117292009081197,-22.030155048593418,-133.813995,-81.2430867535774,0.0,133.813995,0.2617357269920174,-0.6979,-0.29218999,-0.59921199,1.0,0.0,0.0,0.0,149.65384199869743
6.1924,18882.3735,-1.4466263500507923,-0.6787696941772862,-3.885642082664396,-4.068172567546156,-3.940123452981053,-2.5738278380172055,-10.70498580093689,28.23896664194676,-22.104190567982695,-136.783005,-85.69167863470254,0.0,136.783005,0.2141755723805107,-0.69270998,-0.301355,-0.61924702,1.0,0.0,0.0,0.0,155.26567109334266
6.2217,18882.3935,-1.2151807440715077,-0.86969521255917,-4.0575097389050665,-4.018021383144185,-4.09020243213041,-2.7133081391967604,-10.585877565292948,28.185417343827574,-22.360122175737317,-139.915482,-90.83122270674917,0.0,139.915482,0.1630645064520142,-0.68469697,-0.31095499,-0.63867599,1.0,0.0,0.0,0.0,161.23036774284142
6.2306,18882.4135,-1.071182579694755,-0.9965717357642638,-4.167113218003526,-3.8893928688607593,-4.264492891733026,-2.8885955305538724,-10.675661412112758,27.912433172027804,-22.77795878515915,-143.199493,-95.68626917012888,0.0,143.199493,0.1091238509830861,-0.67777503,-0.320366,-0.65274698,1.0,0.0,0.0,0.0,167.47037621354312
6.2881,18882.4336,-1.0643447802240513,-0.9659721375487327,-4.314721194526978,-3.644932841343528,-4.545817411089302,-3.064015571797623,-10.6891824285778,27.590498462397605,-23.25709439284523,-147.081161,-100.68978315012507,0.0,147.081161,0.0515051017218586,-0.67050898,-0.32635301,-0.66427302,1.0,0.0,0.0,0.0,174.09533750701166
6.2956,18882.4536,-1.128889703842793,-0.8259502977330875,-4.709602801326646,-3.2906290697721614,-4.970372916377707,-3.215759431822054,-10.418803016456557,27.439185027612844,-23.540057638938375,-152.013016,-107.33227372217654,0.0,152.013016,0.0075867752675111,0.65924901,0.32535201,0.67784899,1.0,0.0,0.0,0.0,179.13061125376458
6.2978,18882.4736,-1.1089882181323683,-0.746211455043809,-5.484036431695896,-2.862704884754433,-5.518796761029884,-3.298286711796341,-10.06288488666405,27.42330283550346,-23.485554872780266,-158.076523,-117.52416592558642,0.0,158.076523,0.0650852418792431,0.64261198,0.317615,0.694215,1.0,0.0,0.0,0.0,172.536504987436
6.3134,18882.4937,-0.9179445744847459,-0.8214338076336205,-6.578877640457437,-2.334762383810823,-6.1464809161114795,-3.2864330900168537,-9.66183547006362,27.221891461084716,-23.431613812733815,-165.465439,-136.35880137059561,0.0,165.465439,0.122785318634677,0.61543602,0.30723101,0.71538198,1.0,0.0,0.0,0.0,165.89424270923678
6.3283,18882.5137,-0.3986166600407566,-0.9852989483984578,-7.733890994218658,-1.70787486489009,-6.7815975122502445,-3.1366302867063576,-9.30055150332859,26.609217069775905,-23.67345466436299,-174.57634,-165.14694550374713,0.0,174.57634,0.1818806195268726,0.57552397,0.296433,0.74014801,1.0,0.0,0.0,0.0,159.04136045310491
6.3474,18882.5337,0.6511572448994957,-1.0930008433448044,-8.594431817354423,-1.036063031315182,-7.287677424703955,-2.937961828473652,-9.288925635969383,25.949308864970547,-23.785728880346888,175.045532,169.1796078300931,0.0,175.04553199999998,0.2344381574322305,0.52800101,0.28021401,0.76663798,1.0,0.0,0.0,0.0,152.8829871968259
6.369,18882.5537,2.2372109280636905,-1.0118214558634488,-8.81086521937082,-0.3803227942506172,-7.570043483360102,-2.755541510280268,-9.335520596739464,25.454385953941642,-23.766904085050506,163.980804,152.56579446245996,0.0,163.98080400000003,0.2802444071561459,0.47345799,0.25444299,0.79533601,1.0,0.0,0.0,0.0,147.45041554454426
6.3891,18882.5738,4.069831967129501,-0.8497788154037149,-8.180514001630513,0.143300138786274,-7.579510511853092,-2.58997446748986,-9.147451904177327,25.282070148837168,-23.63154093472992,153.495651,142.2149432224833,0.0,153.495651,0.3211524478411451,0.41459799,0.217076,0.82331502,1.0,0.0,0.0,0.0,142.53473127117263
6.4075,18882.5938,5.708521794309117,-0.8561709204196285,-6.847089093158336,0.4238523028633432,-7.34100429749148,-2.381918566769924,-8.741468434837593,25.416343189842088,-23.395269390329837,144.675659,135.2365852769239,0.0,144.675659,0.3591154398706907,0.35672,0.17282,0.84493798,1.0,0.0,0.0,0.0,137.90823580309032
6.4291,18882.6138,6.908798143633782,-1.1110114688386605,-5.181567030359073,0.437815213047998,-6.906269476753464,-2.1339308607844396,-8.332776816414858,25.841183919595515,-22.94512753622226,137.702057,130.10132062224872,0.0,137.70205699999997,0.3940756890417366,0.305334,0.128453,0.85730702,1.0,0.0,0.0,0.0,133.58332076526492
6.4489,18882.6339,7.598369527667856,-1.3769685192030063,-3.267150966849224,0.33105813838485476,-6.3121626954141385,-1.8922470165340652,-7.824939465415202,26.401976169369092,-22.435989724890216,132.056488,126.36320002932425,0.0,132.056488,0.4253710821794303,0.25489801,0.087844,0.86392701,1.0,0.0,0.0,0.0,129.65169207437197
6.4694,18882.6539,7.612501859230861,-1.1872203718084309,-0.8895694906619234,0.3838347988173323,-5.575535519876036,-1.6935979929907994,-7.1797836959881405,26.592257880014422,-22.510467167257165,127.914902,124.62614049882727,0.0,127.91490199999998,0.4482249808006239,0.191294,0.054781,0.87149298,1.0,0.0,0.0,0.0,126.74028505623916
6.4926,18882.6739,6.995521650057835,-0.4929004533080972,1.6806415485072463,0.6978498697826838,-4.696186444710134,-1.648319849835746,-6.890582961810347,26.292372852957833,-23.219578513511546,125.682472,124.32093740370439,0.0,125.68247200000002,0.4599325953041378,0.123153,0.031438,0.87880999,1.0,0.0,0.0,0.0,125.23448382651208
6.5127,18882.6939,6.114590499206992,-0.16788993489068993,4.019655853763368,1.1744457980305754,-3.6895556426038327,-1.8792536249001033,-6.879292025460897,26.331420467270355,-23.631574339234398,124.204803,123.72049731999329,0.0,124.20480299999997,0.4687272910523981,0.071355,0.005004,0.88044202,1.0,0.0,0.0,0.0,124.09657216893248
6.5274,18882.714,5.428060047194913,-0.7963999709367235,6.032706079491227,1.6527428445240127,-2.673211282713427,-2.2175392234919995,-6.807623668085617,26.98313475928319,-23.4878473227916,121.743095,121.62663921296,0.0,121.74309499999998,0.4860604840665406,0.043413,-0.026297,0.87244999,1.0,0.0,0.0,0.0,121.83604834789774
6.5491,18882.734,5.017229140070794,-2.149860927871843,7.843190275153663,2.018706027850366,-1.7717129032582686,-2.4195695712849097,-6.556930962501056,27.870308796564174,-23.118792375351944,118.215927,118.45060907043252,0.0,118.21592699999997,0.5106744804916334,0.031834,-0.057773,0.85724002,1.0,0.0,0.0,0.0,118.5824660042348
6.5692,18882.754,4.836331374612247,-3.871176529321937,9.497354169712377,2.1680973099373295,-0.9934624351804164,-2.3653211337533504,-6.326760603182731,28.71923271269248,-22.63426006918762,114.537018,115.24514327949007,0.0,114.53701799999999,0.534789968108078,0.030749,-0.087938,0.83983397,1.0,0.0,0.0,0.0,115.34066261994539
6.593,18882.7741,4.835686876053564,-5.654105071214643,10.83493813577617,2.042891088376713,-0.2881479773714314,-2.0253657424277356,-6.050654558240932,29.36504140914589,-22.134942155805927,111.066422,112.34163589355319,0.0,111.06642199999999,0.5559792462491562,0.035699,-0.114763,0.82246101,1.0,0.0,0.0,0.0,112.44362130608526
6.6097,18882.7941,4.815369716489439,-6.9878480319079666,11.62813937333225,1.691414564516543,0.3901866036993832,-1.4261249057150374,-5.363772947386274,29.569310899574884,-22.01359183977851,107.939644,109.7615448886581,0.0,107.93964399999999,0.574582926361374,0.038966,-0.134747,0.806337,1.0,0.0,0.0,0.0,109.85914099098835
6.6281,18882.8141,5.010904088638477,-7.7191760543224905,11.520102508604626,1.1925755960766524,1.1069965545404488,-0.6734766834695253,-4.59376211220455,29.569043031790617,-21.95237219147348,105.655228,107.86297902211886,0.0,105.65522799999997,0.5875097088408663,0.047201,-0.14876799,0.79402298,1.0,0.0,0.0,0.0,108.03902396220317
6.6481,18882.8341,5.649315443334338,-7.6363554051298905,10.451129136261844,0.6618901883043407,1.8197619762174977,0.12655891747580653,-4.1486107662726095,29.42827042319849,-21.949368834761163,104.824593,107.00384262371192,0.0,104.824593,0.5917408733511988,0.064086,-0.153981,0.78868598,1.0,0.0,0.0,0.0,107.43871316557306
6.6717,18882.8542,6.619465074343509,-6.451479527774498,8.721717461594476,0.2593871620949699,2.4564847407976558,0.8222280965342106,-4.033410621765324,28.771343270260733,-22.71052603917265,105.280525,106.66876418198515,0.0,105.28052500000001,0.5912668445245345,0.084035,-0.140046,0.789765,1.0,0.0,0.0,0.0,107.50608208323759
6.6954,18882.8742,7.399816658967687,-4.7888360931374745,6.511171619473146,0.08652638374268629,3.007138425559594,1.3237443360175845,-4.067368083596295,27.82076491182165,-24.037462790462904,106.551987,106.79061216652416,0.0,106.551987,0.5871150849928825,0.104552,-0.114467,0.79452002,1.0,0.0,0.0,0.0,108.0948959407129
6.7107,18882.8942,7.6558402801370535,-3.4359622282927895,4.021232938552592,0.10759196629636003,3.4669900064392323,1.6438343529043853,-4.147694246155319,27.122503261128383,-25.19675770198818,108.24588,107.3251550335723,0.0,108.24588,0.5790638575441226,0.128667,-0.090219,0.79999399,1.0,0.0,0.0,0.0,109.23054745940064
6.7317,18882.9142,7.439099656850078,-2.660817877365666,1.5209218501981923,0.21898476558542956,3.850722557550739,1.8409085906330542,-4.281176700077384,26.951070239011766,-25.70831359699373,110.112907,107.87911116173345,0.0,110.112907,0.5686073356781463,0.159889,-0.071644,0.803734,1.0,0.0,0.0,0.0,110.69366395149046
6.7505,18882.9342,6.910303043305077,-2.288268337028239,-0.7603831925589759,0.30914546775318574,4.183603147386163,1.9733095657600424,-4.41999270593071,27.142823919147965,-25.56544884855348,112.286369,108.41433103056997,0.0,112.28636899999998,0.5555389635673088,0.1964,-0.05719,0.80593598,1.0,0.0,0.0,0.0,112.50430944224149
6.7875,18882.9541,6.273342506659317,-2.0448738339169052,-2.7646926902305573,0.3872904590975188,4.483848952689957,2.0405911355748128,-4.483721789486708,27.161106244441168,-25.288387064919327,114.554489,108.62349811288512,0.0,114.55448899999999,0.5428106366007945,0.234457,-0.038373,0.80555201,1.0,0.0,0.0,0.0,114.24964639406174
6.7985,18882.9741,5.533420104642085,-1.7407375316949927,-4.3640501347148115,0.4551566919837049,4.754937163360709,2.0006997325013627,-4.200942662185906,26.43852422368022,-25.626287798011635,117.035164,109.32934969800938,0.0,117.03516400000001,0.5295431764800103,0.26216301,-0.011042,0.80668002,1.0,0.0,0.0,0.0,116.05081140317223
6.8083,18882.9941,4.818394809409519,-1.5783070698150774,-5.617570151096347,0.6223525959439231,4.929595603966412,1.9728453298989663,-3.681562659472206,25.54966943359418,-26.059684250150177,119.735291,110.23102030211125,0.0,119.73529100000002,0.5149896205274432,0.288955,0.017318,0.80684,1.0,0.0,0.0,0.0,118.00647757905588
6.832,18883.0141,4.173968505311526,-1.5798042716065475,-6.473630252037723,0.9419363937071183,5.019446310073913,2.032074600194383,-2.722537744380091,24.767591794662593,-26.428020081657763,122.497475,110.99127809839436,0.0,122.49747500000001,0.5001355928674733,0.316802,0.040755,0.80488503,1.0,0.0,0.0,0.0,119.98205768513579
6.8491,18883.0341,3.6120585013820876,-1.6374220234070131,-7.003196014897654,1.3711123085803207,5.0895445488623,2.237825824720232,-1.1192976763807572,24.24941104036091,-26.635620830912586,125.405663,111.68693159976615,0.0,125.405663,0.4840228283713274,0.34455699,0.054531,0.80251402,1.0,0.0,0.0,0.0,122.10305879378001
6.8727,18883.0541,3.049375745362024,-1.5654249332231487,-7.461442010813025,1.815202541736767,5.241032506074008,2.552707174272463,0.9274230877985943,23.836791905635952,-26.789337925648326,128.800003,112.83241256742609,0.0,128.800003,0.4642116296768745,0.37092599,0.062747,0.80186301,1.0,0.0,0.0,0.0,124.68157599560956
6.8909,18883.0741,2.2687257947044746,-1.227227311349375,-8.076287638793007,2.1423337880089335,5.572399156781534,2.854363584533506,3.0039866746857022,23.308358492914852,-27.07628866173117,133.225967,115.56442096900462,0.0,133.22596699999997,0.4369721234089422,0.39311799,0.073855,0.80564201,1.0,0.0,0.0,0.0,128.1783006095572
6.9185,18883.0941,1.0696368672706997,-0.7270959399049204,-8.932082402206236,2.363368873720631,6.023877225591574,3.06891517077049,4.355273640359027,23.141714138632665,-27.20734481199132,139.426926,119.56697844481864,0.0,139.42692599999998,0.3990296026019874,0.423163,0.088875,0.80858499,1.0,0.0,0.0,0.0,132.9649434851575
6.9289,18883.1141,-0.614663124969845,-0.25776807264525814,-9.73058342840037,2.5599089206655763,6.472129073659161,3.082439216829498,4.467430806506577,23.322884446801634,-27.319612601219596,147.476974,123.79827513212305,0.0,147.47697400000004,0.353118989672659,0.46931601,0.109798,0.80186898,1.0,0.0,0.0,0.0,138.64358886913507
6.9485,18883.1341,-2.564359345909131,0.05331525556782102,-9.981121508481705,2.751689510387817,6.7608465433196745,2.922894158918537,3.727092992513624,23.68029366074793,-27.41258133657281,156.583954,127.39589990681675,0.0,156.583954,0.3043749067989001,0.52743202,0.131083,0.78229702,1.0,0.0,0.0,0.0,144.55887847211505
6.9708,18883.1541,-4.2889900927239095,0.2704942792163725,-9.449738300763897,2.953386424017772,6.757382354971558,2.7186333936457023,2.805535358273228,24.101656470482965,-27.38914006363283,165.321686,128.59695065766016,0.0,165.321686,0.257648636509256,0.58937901,0.14529601,0.75175703,1.0,0.0,0.0,0.0,150.1388276503341
6.9898,18883.1741,-5.386259959389737,0.48069087838608815,-8.316282563158744,3.134690188278968,6.461093810314225,2.55373680204004,1.8691528806008353,24.519307217136614,-27.26247052596703,173.036545,123.51305870143554,0.0,173.036545,0.2119359451547547,0.64819402,0.15251,0.71530998,1.0,0.0,0.0,0.0,155.52834450344884
7.0077,18883.1941,-5.824770701542593,0.6512848535160781,-7.002744318249514,3.2484865693140748,5.999035296919328,2.437642485597319,1.0206295631060625,24.84499335251291,-27.113541509894823,179.640854,12.03326088903889,0.0,179.640854,0.1654041086690381,0.69701201,0.157279,0.67976397,1.0,0.0,0.0,0.0,160.95857847966613
7.0293,18883.2141,-5.875326312720104,0.7220486649680306,-5.839721002877609,3.294777898574929,5.536751546754383,2.3434432224698716,0.35639388330159827,25.109096389044595,-26.946997291217507,-174.601425,-39.61708827821091,0.0,174.601425,0.1171593092863686,0.73400098,0.16275901,0.64886498,1.0,0.0,0.0,0.0,166.54362714134436
7.0492,18883.2341,-5.838152050332779,0.7276636149309051,-4.925387616225461,3.3498220010552107,5.161708319414709,2.250181159259702,0.1237170614997769,25.49137390253172,-26.626643983815022,-169.951218,-43.4877129394965,0.0,169.951218,0.0690298097163765,0.76332903,0.164795,0.62081099,1.0,0.0,0.0,0.0,172.08347078116026
7.0672,18883.2541,-5.806384217490437,0.7118058431638925,-4.114866965709071,3.4708695583938405,4.917843842221037,2.0745199674918657,-0.030293478984137145,26.02853125635502,-26.137439807784215,-166.287476,-41.3799214777277,0.0,166.287476,0.0212426456167683,0.794168,0.161156,0.58555502,1.0,0.0,0.0,0.0,177.5655890095299
7.0933,18883.2741,-5.837882987295478,0.6320280132075473,-3.334106151300202,3.556952669664522,4.8640422031720885,1.8150394891546378,-0.3231364859754038,26.595517458596415,-25.62565560701595,-163.088593,-38.50582109371522,0.0,163.088593,0.0279404086863368,-0.82501799,-0.156602,-0.54225498,1.0,0.0,0.0,0.0,176.7978482812166
7.1085,18883.2941,-6.031782916013967,0.5097680545188883,-2.606962894270249,3.5526862120613805,4.967682063058117,1.5864395356893746,-0.19935182539523666,27.183493236767223,-25.151790994516812,-160.546417,-36.21650908835568,0.0,160.546417,0.0765962951465602,-0.84939897,-0.15093499,-0.49987301,1.0,0.0,0.0,0.0,171.21410566988627
7.128,18883.3142,-6.175083960529731,0.4792161919818496,-1.7336918405816757,3.5417802326549843,5.14819830308886,1.3219635716058442,-0.026801499196622558,27.639085091728134,-24.912088686358842,-158.990646,-32.85092837873958,0.0,158.990646,0.1214427089452447,-0.87286198,-0.14192601,-0.4508,1.0,0.0,0.0,0.0,166.04925455534203
7.1509,18883.3342,-6.127240338036562,0.5434682060427938,-0.643895706680004,3.5176305752152928,5.365785830202338,1.0046482261235703,-0.17249928612698628,27.875499129630875,-24.95392427070061,-158.309814,-28.946419710243322,0.0,158.309814,0.1622936561433619,-0.895468,-0.131473,-0.39308101,1.0,0.0,0.0,0.0,161.31989325013726
7.1773,18883.3542,-6.0676720564969955,0.5550176782971317,0.5030455180590518,3.460474083968859,5.579086302765822,0.7875588464342664,-0.05394570468452731,28.09512844386497,-24.93556795002627,-158.349487,-25.48364063207172,0.0,158.349487,0.2012728995381125,-0.91123903,-0.119096,-0.33904099,1.0,0.0,0.0,0.0,156.77719079310273
7.1961,18883.3742,-5.945954410517788,0.4259378182915876,1.7336006213226547,3.4582671246837418,5.724804429922953,0.6925490484066836,0.4887746930457668,28.37549476018821,-24.697043648240772,-159.894806,-21.23704897435248,0.0,159.894806,0.2393505594819853,-0.92237502,-0.097418,-0.28713301,1.0,0.0,0.0,0.0,152.30357392245847
7.2282,18883.3943,-5.652477011975655,0.009800457935847717,3.049921820321547,3.422120459457566,5.841495577775088,0.6530455769164587,0.628708530136521,28.496943051951725,-24.45673552162269,-162.283234,-16.826062595737138,0.0,162.283234,0.2772147151369124,-0.92966402,-0.07465,-0.230877,1.0,0.0,0.0,0.0,147.81191938672816
7.2386,18883.4143,-5.177512792245058,-0.6848034303374764,4.331860049464234,3.300809582445013,5.928719011468502,0.6119056764127597,0.20088156673711222,28.235030951306136,-24.421947614244445,-165.104355,-12.82513902662761,0.0,165.104355,0.3114466623527688,-0.93281698,-0.056507,-0.172222,1.0,0.0,0.0,0.0,143.70713055377445
7.2479,18883.4343,-4.378525684172968,-1.618120056701823,5.484931103566927,3.108187299929421,5.951191553744521,0.5348622262979981,-0.6706441869767625,27.661212475404643,-24.480831771428182,-168.771622,-8.858826414501346,0.0,168.771622,0.3419739352128756,-0.93214899,-0.040154,-0.111981,1.0,0.0,0.0,0.0,140.00563483439763
7.27,18883.4544,-3.2139409036427824,-2.7415825694503138,6.357752293723724,2.855783113452442,5.885852864358104,0.4499848444226817,-1.6456158707499016,26.991023388577613,-24.454843529409374,-173.724884,-4.589051611023912,0.0,173.724884,0.3700641888432586,-0.92723697,-0.021855,-0.052976,1.0,0.0,0.0,0.0,136.5608479421709
7.2907,18883.4744,-1.8536856117821163,-3.9996992889637495,6.808113168805971,2.5353365158382064,5.735553152179568,0.4218152463414757,-2.394615024143692,26.41725581018552,-24.260362951934827,-179.903763,-0.06598929967816033,0.0,179.903763,0.3964710374377931,-0.918046,-0.001079,0.001046,1.0,0.0,0.0,0.0,133.28449894450304
7.3082,18883.4944,-0.4837007166017272,-5.1831960850646235,6.86929015941023,2.137602643430287,5.514332797508578,0.4361374736252146,-2.9153500592823396,25.875640465411795,-24.062943483028757,172.708221,4.782919732231037,0.0,172.70822099999998,0.4178526968459807,-0.90679097,0.022184,0.051353,1.0,0.0,0.0,0.0,130.6018133812592
7.3296,18883.5144,0.7400219717556547,-6.228164599148806,6.622487081652924,1.636543843056452,5.237614593247345,0.5109500005408849,-3.4204494282601714,25.56607730108742,-23.649264473285086,164.464172,9.945864003903162,0.0,164.46417199999996,0.4363382749181407,-0.89280897,0.045927,0.10194,1.0,0.0,0.0,0.0,128.25903799555246
7.3485,18883.5345,1.6985776688271406,-6.843479412108166,6.2137328398992615,0.9704094942778632,4.9378470362527835,0.6103416744003902,-4.056338650669851,25.421532982061493,-23.024683304464563,157.352234,14.552057061755127,0.0,157.352234,0.4496104003185424,-0.87782001,0.061215,0.153412,1.0,0.0,0.0,0.0,126.56261922429836
7.3683,18883.5545,2.389491521207414,-6.744753050642005,5.754984003986381,0.2240101076225709,4.618385582253391,0.6833063831978528,-4.454004421255775,25.30967769189355,-22.348022469917133,152.343781,18.375911271252107,0.0,152.34378100000004,0.4548237635614918,-0.86488801,0.069113,0.200817,1.0,0.0,0.0,0.0,125.89280911848873
7.3946,18883.5745,3.0469531489908386,-5.842808895700152,5.170246113120758,-0.4103375163133318,4.307691009803571,0.7032919321219913,-4.360685833682654,25.028504457190344,-21.921235052396398,148.513,22.360629191507986,0.0,148.51300000000003,0.4488823711651405,-0.85617203,0.081633,0.24250799,1.0,0.0,0.0,0.0,126.6559987425315
7.412,18883.5946,3.796481932208659,-4.583217764027698,4.201648834100677,-0.8117886470450064,4.0452639482534885,0.7689952649211369,-3.8370710145062548,24.649960361102575,-21.707724513333375,145.35614,26.71724488430948,0.0,145.35613999999998,0.4355007357614219,-0.849913,0.101106,0.27886301,1.0,0.0,0.0,0.0,128.3656784989274
