AppTimestamp(s),SensorTimestamp(s),acc_x,acc_y,acc_z,gyro_x,gyro_y,gyro_z,mag_x,mag_y,mag_z,PitchX,RollY,YawZ,Quat_w,Quat_x,Quat_y,Quat_z
0.043,21969.9258,-3.39029,8.57869,2.72468,0.21577,-0.40464,-0.09471,14.1,-27.0,-9.7,53.902401,20.396082,132.853592,0.2773062956607003,0.033741,0.47196299,0.83618999
0.0513,21969.9459,-3.07185,8.47813,3.7231,-0.39449,-0.54147,-0.03423,13.9,-26.9,-10.1,53.96307,20.137468,132.240845,0.28266720646636717,0.038374,0.47154701,0.83442801
0.0572,21969.9659,-2.2602,8.43742,5.02319,-0.6706,-0.82064,-0.07272,13.7,-26.9,-10.4,53.534878,19.519535,131.91861,0.2887441973400661,0.042595,0.46700999,0.83469403
0.0778,21969.9859,-1.56825,8.14532,5.70795,-0.69137,-0.74489,-0.20772,13.6,-26.9,-10.7,52.883083,18.622787,131.666809,0.29600271005337087,0.047716,0.460217,0.83564699
0.1127,21970.006,-3.61536,8.41588,5.75105,-0.70053,-0.65815,-0.47283,13.4,-26.8,-11.0,52.134003,18.027668,131.171371,0.3040145308357143,0.051232,0.45335901,0.83631098
0.1217,21970.026,-4.42941,7.46774,5.77499,-0.87096,-0.57019,-0.40747,13.4,-26.7,-11.3,51.265442,17.859634,130.333466,0.31311740841173147,0.052473,0.44661701,0.83650303
0.1266,21970.046,-4.45814,6.46933,6.09582,-1.07499,-0.346,-0.14968,13.4,-26.6,-11.7,50.212505,17.733492,129.745544,0.32070665697718176,0.05165,0.43882301,0.83780301
0.1462,21970.066,-6.12934,6.24187,8.33208,-1.19228,-0.31301,0.14536,13.5,-26.6,-12.0,48.980991,17.64422,129.598816,0.32537116275229344,0.048134,0.43007699,0.84074402
0.1647,21970.0861,-6.40947,6.54834,9.68963,-0.82026,-1.12302,0.56991,13.5,-26.4,-12.5,47.671295,17.08441,129.902039,0.3286051273801732,0.046111,0.41957101,0.84489799
0.1865,21970.1061,-3.67761,6.83087,9.21796,-0.221,-1.56956,0.97309,13.4,-26.4,-13.1,46.891289,15.345914,130.636932,0.3313985908177643,0.053352,0.409444,0.848342
0.2088,21970.1261,-1.59459,6.16047,8.87558,0.18767,-0.886,1.00791,13.1,-26.2,-13.9,46.717098,13.202323,131.591217,0.33232385671233367,0.06522,0.4025,0.85047102
0.2246,21970.1461,-2.09738,6.57707,7.58985,0.38864,-0.24093,0.76845,13.2,-26.2,-14.2,46.878639,11.949389,132.425537,0.3301630431547412,0.072181,0.400529,0.85167998
0.2511,21970.1661,-4.17083,7.45338,5.76541,0.56091,0.84824,0.7825,13.0,-26.2,-14.8,47.207043,11.66034,132.870575,0.327162826298496,0.073928,0.40233001,0.85183901
0.2642,21970.1861,-5.52838,8.5308,4.32167,0.18889,1.18361,1.07205,12.8,-26.1,-15.3,47.729191,12.538877,133.27829,0.31989355485048426,0.067782,0.40879101,0.85203499
0.2963,21970.2061,-5.76302,8.92107,5.91146,-0.4684,1.54524,1.41657,12.6,-26.1,-15.7,47.948578,13.357997,134.210037,0.3095333777272814,0.059105,0.41312101,0.85441601
0.3172,21970.2261,-5.36078,8.1118,8.01124,-0.53987,0.99974,1.59922,12.4,-26.1,-15.9,47.735085,13.877877,135.792206,0.2962992746980652,0.048779,0.41371199,0.85945898
0.3386,21970.2461,-6.18202,8.02082,9.17007,0.07832,0.98996,1.62182,12.1,-26.0,-16.2,47.631756,13.872975,137.485474,0.2838083753070721,0.04236,0.41362801,0.864043
0.3456,21970.2661,-5.32487,8.18363,8.34405,0.71851,0.95698,1.73239,11.9,-26.0,-16.3,48.182384,13.97291,138.930267,0.2713527607923668,0.038136,0.41836599,0.86595798
0.3691,21970.2861,-2.52596,7.08705,6.84044,0.70446,1.11519,1.63221,11.6,-26.1,-16.5,49.253849,14.092121,140.256241,0.2585943292382876,0.035707,0.42684001,0.86583
0.3843,21970.3061,-2.3416,6.05752,8.46137,0.10154,1.0877,1.34327,11.3,-26.3,-16.7,50.029278,14.296559,141.452454,0.24712841208149056,0.032045,0.43327001,0.86612803
0.4063,21970.3261,-3.04312,4.63771,11.15493,-0.10188,1.1775,1.29501,10.9,-26.5,-16.8,49.997864,14.388173,142.609924,0.23808654348236377,0.02688,0.43353301,0.86870098
0.4263,21970.3461,-1.53712,2.65764,11.14535,0.3636,1.64909,1.58151,10.5,-26.7,-16.8,49.758499,14.45097,144.02211,0.22762243036893334,0.020372,0.43220299,0.872338
0.4474,21970.3661,-0.43576,1.76219,9.38077,0.80159,2.77369,1.98529,10.1,-27.0,-16.8,49.923988,14.777525,145.96521,0.21122745563197945,0.010999,0.43430999,0.87557799
0.4642,21970.3861,1.48684,1.7574,7.47732,0.83274,3.41693,2.46482,9.7,-27.3,-16.4,50.424503,15.566851,148.736664,0.18598393571886698,-0.004274,0.43945399,0.87879002
0.4882,21970.4061,3.37593,1.66642,6.22033,0.7069,3.14632,2.69023,9.4,-27.7,-16.1,50.958622,15.772928,152.633316,0.15418247950918276,-0.01955,0.443324,0.88278502
0.5053,21970.4261,4.81489,2.43019,5.34642,0.47905,2.55378,2.57233,8.6,-28.4,-15.4,51.339947,14.70763,157.256119,0.12190456918237229,-0.028387,0.443937,0.88727301
0.5274,21970.446,5.74626,3.10059,5.57148,0.13513,2.05531,2.16488,8.1,-29.1,-15.0,51.405231,12.566209,162.236404,0.0913999103279644,-0.030871,0.44115201,0.892232
0.5543,21970.466,5.69598,3.28495,6.35441,-0.07928,1.78042,1.70246,7.5,-29.9,-13.9,51.025776,9.967871,166.931992,0.06514597495947011,-0.029069,0.43522099,0.897493
0.5778,21970.486,5.5212,2.95214,6.68003,0.02701,1.54158,1.41902,6.6,-30.4,-12.7,50.405369,7.490939,171.066772,0.04259421227560179,-0.025835,0.42822501,0.90229797
0.5875,21970.506,5.83724,3.27776,5.83006,0.27319,1.6216,1.25592,6.0,-31.2,-12.4,49.882393,5.132668,174.77597,0.022450855207752463,-0.02136,0.42267799,0.90574998
0.6076,21970.526,6.46215,4.07027,4.13012,0.26036,1.91787,1.07693,5.8,-31.3,-12.8,49.564346,3.126767,178.201721,0.0029762021066879595,-0.018192,0.41935101,0.907637
0.6243,21970.546,6.28737,4.77658,3.49325,-0.04507,2.07914,0.81243,5.6,-31.5,-12.0,49.26535,1.601312,-178.672256,0.016413703528436362,0.01753,-0.41658401,-0.90877998
0.6491,21970.566,6.51961,6.14371,3.96971,-0.82698,1.24164,0.67132,5.2,-31.7,-12.8,48.617813,0.259669,-176.025467,0.03254625726746462,0.016339,-0.411336,-0.91075599
0.6688,21970.586,7.59703,6.01921,5.50923,-1.49343,0.33756,0.58335,5.2,-31.8,-11.9,47.287422,-1.859739,-173.689117,0.04393538237024764,0.007229,-0.40120599,-0.91490501
0.6863,21970.606,6.78777,7.00565,6.70636,-1.89721,0.02358,0.18079,5.0,-31.8,-12.0,45.315636,-4.367023,-171.988846,0.049783002217422725,-0.008184,-0.38646299,-0.92092401
0.7128,21970.626,5.07347,8.69122,8.26025,-2.02855,-0.15663,-0.08677,4.9,-32.0,-11.9,43.039871,-6.236677,-171.373413,0.04998689215784147,-0.022915,-0.36905101,-0.92778099
0.727,21970.646,4.91305,9.95779,10.01286,-1.7842,-0.49627,-0.03973,4.6,-32.3,-11.8,40.829422,-7.702672,-171.432709,0.04649638400585005,-0.036778,-0.35175499,-0.93421298
0.7514,21970.666,6.88833,10.21158,9.67766,-1.19411,-0.91838,-0.15579,4.2,-32.3,-11.9,39.082588,-9.336194,-171.638931,0.041340407732132954,-0.052189,-0.338081,-0.93875903
0.7646,21970.686,7.30014,9.43823,9.00966,-0.66143,-1.2623,-0.85035,3.8,-32.4,-12.1,38.126225,-11.061958,-172.225555,0.03238839333433895,-0.06885,-0.33051699,-0.94072801
0.7865,21970.706,4.76221,9.0767,9.19162,-0.40304,-1.87622,-1.59255,3.6,-32.4,-12.3,37.886879,-12.641511,-173.799561,0.015206977718790503,-0.086529,-0.32782099,-0.94064599
0.8173,21970.726,3.28734,8.78938,10.38158,-0.16113,-2.29649,-1.7697,3.4,-32.2,-12.6,38.083908,-14.230152,-176.244553,0.009752193753205074,0.106414,0.327411,0.93882
0.8277,21970.746,2.32245,8.35123,11.32253,0.32267,-2.34108,-1.63959,3.1,-32.0,-12.9,38.625137,-15.918679,-178.820038,0.036193427051331065,0.127299,0.32886401,0.935058
0.8485,21970.766,2.05908,8.30574,9.99131,0.90544,-2.15477,-1.51252,2.9,-31.6,-14.0,39.679104,-17.425705,178.809875,0.06107108485755559,0.14596801,0.33397299,0.92920703
0.8645,21970.786,2.26977,8.66488,8.55235,1.13207,-2.19142,-1.47587,2.9,-31.5,-14.0,41.268509,-18.818571,176.717804,0.0840408556467611,0.162892,0.34313601,0.92122799
0.886,21970.806,2.4254,8.56432,8.01843,0.97752,-2.5109,-1.64325,2.9,-31.4,-14.2,43.018879,-20.315361,174.646698,0.10736533156349368,0.180751,0.35285199,0.91175503
0.9074,21970.826,2.06626,7.74308,8.20757,0.8248,-2.64835,-1.88515,2.9,-31.3,-14.5,44.677982,-21.828362,172.16835,0.13382470542093322,0.200207,0.36037999,0.90118498
0.9243,21970.846,1.37431,7.04635,8.1118,0.86695,-2.61719,-2.13622,3.0,-31.1,-14.8,46.313599,-22.978456,169.173004,0.1629883361411457,0.218676,0.366373,0.88959903
0.9558,21970.8659,0.69195,6.40947,8.10223,1.016,-2.60376,-2.34391,3.1,-30.9,-15.0,48.062897,-23.59667,165.689468,0.19398272344732034,0.234944,0.37226999,0.87669098
0.9761,21970.8859,-0.10295,5.44937,7.68083,1.23286,-2.63552,-2.4893,3.2,-30.7,-15.2,49.960075,-23.731266,161.74411,0.2264618840590177,0.249585,0.37847799,0.862077
0.9858,21970.9059,-0.50759,4.65208,6.36877,1.47721,-2.5329,-2.52412,3.4,-30.5,-15.3,52.044609,-23.496639,157.481003,0.2593958303698401,0.26331699,0.38553801,0.84542203
1.0072,21970.9259,-1.29051,4.17083,5.07826,1.53341,-2.3985,-2.57238,3.7,-30.3,-15.3,54.252563,-22.753241,152.934799,0.2916150502904467,0.275282,0.39350501,0.827245
1.0265,21970.9459,-2.31048,3.96252,4.10379,1.27012,-2.45165,-2.56749,4.0,-30.2,-15.2,56.356483,-21.327421,147.793381,0.3242296213418192,0.28543001,0.40061101,0.80803198
1.057,21970.9659,-2.60976,3.97689,4.00562,0.91582,-2.41378,-2.50029,4.4,-30.1,-15.0,58.082043,-19.145847,141.911835,0.35761176414460927,0.29362601,0.40503699,0.78856999
1.0676,21970.9859,-2.70074,3.91943,4.02238,0.55419,-2.22074,-2.47097,5.0,-29.8,-14.5,59.303406,-16.151428,135.357147,0.3910870519679971,0.29897201,0.40674999,0.76955903
1.0904,21971.0059,-3.87154,3.69676,4.53476,0.29396,-2.13217,-2.51984,6.3,-29.6,-13.9,59.989422,-12.27576,128.217072,0.4241053690399827,0.300354,0.40672699,0.751329
1.1107,21971.0259,-4.73109,3.5555,4.44856,0.16385,-1.87927,-2.48075,7.5,-29.2,-13.9,60.197277,-7.672326,120.551582,0.457146178254002,0.298361,0.40583101,0.73300701
1.1245,21971.0459,-5.29135,3.43339,3.95295,-0.04874,-1.4761,-2.38545,8.5,-28.9,-13.7,59.961155,-2.488083,112.797958,0.48828095104333114,0.29213899,0.405707,0.715289
1.1485,21971.0659,-5.86837,3.51001,3.73028,-0.50933,-1.08881,-2.26083,9.0,-28.1,-13.9,59.117847,3.008406,105.350716,0.516935847745501,0.280853,0.40600401,0.69932801
1.1641,21971.0859,-7.05832,3.76141,4.76461,-1.02001,-0.95137,-2.10934,10.2,-27.2,-13.9,57.460613,8.308165,98.682678,0.5434235243477777,0.264182,0.40508199,0.68615401
1.1844,21971.1059,-7.14212,3.94576,4.85559,-1.38103,-0.66182,-1.84606,11.2,-26.6,-14.7,55.071587,12.765256,93.245186,0.5678715026831332,0.243893,0.40164199,0.67581201
1.2061,21971.1259,-7.31212,3.79971,5.40627,-1.7781,-0.4303,-1.63531,12.1,-25.8,-14.9,52.225235,16.383451,89.184914,0.5888793652220117,0.22040799,0.396961,0.66862798
1.2258,21971.1459,-8.10701,3.83802,6.79735,-2.22769,-0.1548,-1.44044,13.1,-24.3,-15.7,48.915684,19.197365,86.438133,0.6067850063245952,0.193552,0.39016101,0.66492403
1.2583,21971.1659,-9.00966,4.16125,8.49728,-2.52763,0.04312,-1.10935,14.3,-23.0,-16.3,45.189396,21.353207,84.887451,0.6214685344655669,0.163183,0.38102299,0.66480798
1.3125,21971.1859,-9.3688,4.07984,9.71357,-2.55328,0.16713,-0.59195,15.0,-21.8,-17.0,41.387085,22.802547,84.557251,0.6314960303494865,0.13188601,0.36985701,0.66859901
1.3309,21971.2059,-9.31612,4.79094,10.14933,-2.47876,0.39865,0.08916,15.8,-20.3,-17.3,37.884003,23.67712,85.303658,0.6357377245429118,0.102194,0.357977,0.67619997
1.3349,21971.2259,-9.19162,6.23948,11.42069,-2.43905,0.75906,0.8784,16.1,-20.1,-18.9,34.86961,24.209549,87.009903,0.6333531529442002,0.074758,0.346789,0.68775898
1.3367,21971.2459,-6.96016,8.05434,13.19245,-2.279,1.13107,1.65481,15.5,-19.4,-19.5,32.439415,24.527363,89.896614,0.6221513932249768,0.049088,0.33717799,0.70486099
1.3507,21971.2659,-3.51719,9.28979,13.65455,-1.92287,1.53791,2.07081,15.6,-19.4,-21.5,30.866308,24.40591,93.805565,0.6026471515190294,0.028931,0.329137,0.726394
1.3648,21971.2858,-1.52276,10.30017,13.34808,-1.47816,1.83296,1.97002,16.1,-18.8,-20.7,29.961462,24.520258,97.85006,0.5788593832507161,0.011329,0.32520401,0.74768698
1.4025,21971.3058,-2.40146,10.80776,13.45343,-0.95098,1.38947,1.59861,16.2,-18.2,-19.6,29.450472,25.043779,101.253151,0.5563407867225799,-0.004686,0.32484001,0.76481497
1.4118,21971.3258,-3.43339,10.46059,13.64018,-0.25276,1.04128,1.39336,16.3,-18.3,-19.6,29.369072,25.411739,103.881615,0.5378352056754933,-0.015076,0.325872,0.777376
1.4288,21971.3458,-3.6393,9.61062,12.62741,0.49555,1.11702,1.32372,16.2,-18.5,-19.0,29.996542,25.773846,105.875259,0.5214325193165458,-0.019869,0.33114401,0.78616601
1.448,21971.3658,-4.04632,8.46855,11.07352,0.90055,1.31678,1.34755,15.9,-19.4,-19.8,31.302284,26.506163,107.378403,0.5051846771201597,-0.022387,0.342325,0.791897
1.4661,21971.3858,-4.17322,7.51563,10.32172,1.03983,1.29051,1.55219,16.1,-19.2,-19.2,32.983692,27.426523,108.67733,0.4883966447398457,-0.023903,0.35659099,0.79607803
1.4839,21971.4058,-4.0559,6.87636,9.28739,1.11741,1.32411,1.77332,16.3,-18.9,-19.5,34.921844,28.194557,109.96447,0.47105007993534936,-0.02329,0.37166399,0.79964697
1.5085,21971.4258,-4.03675,5.9809,8.05434,1.23286,1.40902,1.95719,16.4,-18.8,-19.6,37.043396,28.7351,111.180794,0.4540438239602205,-0.020219,0.38684499,0.80236298
1.5308,21971.4458,-4.01999,5.09981,7.16606,1.308,1.25752,2.09219,16.4,-18.8,-19.7,39.290844,29.07091,112.296608,0.43775363874942225,-0.015018,0.401939,0.80410898
1.5492,21971.4658,-3.72789,4.37673,7.41028,1.26768,0.97775,2.20703,16.4,-18.9,-19.5,41.532417,29.019714,113.335388,0.42318902683741627,-0.00712,0.415512,0.80511498
1.5663,21971.4858,-3.33762,3.20593,7.21874,1.31899,0.9301,2.27423,16.0,-19.6,-18.7,43.605865,28.469332,114.462372,0.4103090976554371,0.002884,0.42629001,0.80617303
1.5839,21971.5058,-2.47807,2.57145,6.62975,1.37519,1.49943,2.43183,14.8,-22.2,-16.6,45.596775,27.898165,115.900772,0.3955979633251414,0.011202,0.436672,0.807895
1.6068,21971.5258,-1.18038,2.2147,5.3967,1.22675,1.93009,2.62303,14.2,-23.6,-14.9,47.519325,27.633549,118.079803,0.3747041329810493,0.013836,0.44794601,0.811634
1.6269,21971.5458,-0.50759,2.07344,4.73109,0.88894,1.7792,2.68412,13.0,-25.4,-14.4,49.192921,27.126431,121.186073,0.34897039786532025,0.012907,0.45718601,0.817945
1.6517,21971.5658,-0.20591,2.12372,4.53715,0.6336,1.26363,2.67068,12.1,-26.4,-14.0,50.447826,25.759695,125.016624,0.32283064299765546,0.012891,0.46160999,0.82615399
1.6729,21971.5858,0.59617,2.27217,4.49884,0.4253,1.14451,2.59615,10.7,-27.6,-13.2,51.340748,23.472143,129.338745,0.2979123153356366,0.015761,0.46179399,0.83531201
1.6865,21971.6058,1.17559,2.08062,4.6425,0.1559,1.43895,2.49658,9.1,-28.4,-11.2,51.851479,20.846413,134.072083,0.2722694498610881,0.017946,0.45939699,0.84528202
1.7074,21971.6258,1.30488,1.97049,5.18361,-0.07378,1.84029,2.50391,8.6,-28.9,-9.2,51.970169,18.3123,139.244797,0.24366214150269602,0.01653,0.45529199,0.85619199
1.7272,21971.6458,2.20513,2.53793,4.86277,-0.12754,1.98629,2.6267,8.0,-29.1,-10.0,51.869183,15.893406,144.678024,0.2125993619733131,0.01294,0.45045,0.86702299
1.7486,21971.6658,3.54832,3.36156,4.348,-0.21611,2.13106,2.67129,6.2,-29.6,-10.4,51.723488,13.294279,150.439514,0.17920119638763518,0.009817,0.44550601,0.87710601
1.7665,21971.6857,5.27219,4.24265,4.59461,-0.5527,2.08708,2.65235,5.3,-30.8,-9.7,51.360668,10.282037,156.672989,0.1434361572409808,0.008166,0.43902099,0.88691598
1.7924,21971.7057,6.8572,5.3943,5.5619,-0.7549,1.97101,2.44771,5.0,-30.6,-9.4,50.594658,6.832358,163.09964,0.10744227160005282,0.009393,0.42984301,0.89643902
1.8078,21971.7257,7.54915,6.42384,6.30173,-0.64799,1.5709,2.04821,3.1,-30.9,-10.0,49.64217,3.466292,169.064636,0.07381270333242076,0.012655,0.42030099,0.90428901
1.8351,21971.7457,7.70717,7.43422,5.92344,-0.39326,1.32655,1.49171,2.0,-31.2,-11.4,48.806358,0.37716,174.055664,0.04588127292327539,0.018429,0.41275299,0.9095
1.8509,21971.7657,7.34324,7.86519,5.62894,-0.33523,1.17322,0.81732,1.9,-31.0,-10.6,48.226563,-1.995108,177.814423,0.024533099274644594,0.023678,0.40810299,0.91229898
1.9119,21971.7857,6.15568,8.42785,5.19318,-0.5136,0.73951,0.22844,2.1,-31.7,-9.6,47.729404,-3.650187,-179.774567,0.011153913820698785,0.02833,0.40443,0.91406202
1.9129,21971.8057,5.12614,8.37278,5.71035,-0.80682,0.21417,-0.00857,2.8,-31.3,-11.8,47.103577,-4.996013,-178.451172,0.005164472598333153,0.034555,0.39970201,0.91597903
1.9139,21971.8257,4.84362,8.76305,6.62975,-0.89906,-0.26842,0.02808,1.9,-31.4,-11.2,46.264305,-6.480506,-177.720337,0.004137159890483297,0.044166,0.39318201,0.91838998
1.9362,21971.8457,4.98488,9.17726,7.08466,-0.69259,-0.76261,0.11054,1.5,-30.9,-10.2,45.431156,-8.323289,-177.093094,0.004804520954228777,0.057151,0.386713,0.92041498
1.9446,21971.8657,5.22431,9.26584,7.57309,-0.34684,-1.3246,0.14964,1.0,-31.1,-10.9,44.876347,-10.601053,-176.507828,0.007368409489142832,0.073766,0.38248,0.92098498
1.9648,21971.8857,5.67204,9.44781,7.39113,-0.01758,-1.89515,0.07389,0.9,-31.2,-11.4,44.685101,-13.463784,-175.968109,0.012276195783698287,0.095076,0.38110301,0.91954899
1.9858,21971.9057,6.24427,9.75667,6.86678,0.0936,-1.83162,-0.16862,0.8,-31.3,-10.8,44.821278,-16.595427,-175.667145,0.02041593126604668,0.119061,0.382025,0.91622299
2.007,21971.9257,6.17723,10.06314,6.72791,-0.07012,-1.62698,-0.47833,0.6,-31.4,-10.8,45.074242,-19.224449,-175.821823,0.030779615845877892,0.140349,0.38327199,0.91239101
2.0238,21971.9457,5.6864,10.06553,7.53718,-0.25032,-1.56712,-0.74467,0.2,-31.5,-11.0,45.263828,-21.185717,-176.572632,0.04359674209891918,0.15828601,0.38315701,0.90897501
2.0616,21971.9657,4.99925,9.91948,8.75347,-0.16602,-1.85545,-0.95114,-0.2,-31.4,-11.2,45.430359,-22.746645,-177.836227,0.05906884771111986,0.174725,0.381935,0.90559798
2.0654,21971.9857,4.49645,9.72554,9.00247,0.16934,-2.23479,-1.07087,-0.5,-31.4,-11.5,45.816872,-24.339979,-179.398529,0.07734716579345034,0.192186,0.38152599,0.90084398
2.0833,21972.0057,3.67282,9.35683,8.92107,0.5719,-2.57688,-1.18877,-0.8,-31.4,-11.7,46.617687,-26.137489,178.936737,0.0977838004569241,0.211233,0.38349599,0.89372802
2.1064,21972.0257,3.17481,8.67446,8.13814,0.95797,-2.81878,-1.27856,-1.0,-31.3,-11.7,47.901596,-28.268372,177.322403,0.11981306265319919,0.23230401,0.38834101,0.88366902
2.1267,21972.0457,2.85158,8.54996,7.30014,1.18766,-2.89941,-1.43495,-1.1,-31.3,-11.8,49.593071,-30.641943,175.812332,0.14273958411806978,0.254484,0.395459,0.87090498
2.1467,21972.0657,2.88271,8.32729,6.68003,1.10641,-2.5836,-1.66035,-1.2,-31.3,-11.7,51.50227,-32.850166,174.129013,0.16693872087649314,0.27568799,0.403144,0.85650599
2.1663,21972.0857,3.16523,7.67604,6.273,0.91826,-2.16577,-1.96579,-1.2,-31.2,-11.7,53.39706,-34.092026,171.853729,0.19204562988071314,0.29173601,0.409872,0.842623
2.1846,21972.1056,2.64089,6.91467,6.05752,0.82908,-1.58911,-2.40317,-1.2,-31.2,-11.5,55.275043,-34.068817,168.738876,0.21834687477497589,0.30178499,0.41592401,0.82961297
2.2171,21972.1256,1.73345,6.01202,5.38951,0.85535,-1.19877,-2.80573,-1.0,-31.2,-11.2,57.261421,-32.533485,164.661987,0.2454640058579656,0.30504501,0.42305699,0.81713998
2.2293,21972.1456,0.74701,5.33684,4.22589,0.88711,-0.81881,-3.04763,-0.7,-31.2,-10.9,59.339825,-29.65517,159.652451,0.2730545986556881,0.303386,0.43171999,0.80437303
2.2443,21972.1656,0.52913,5.18121,3.34241,0.90605,-0.54575,-3.16064,0.9,-31.2,-9.3,61.363827,-25.485451,153.825394,0.29957189056174754,0.29746699,0.44182301,0.79155701
2.266,21972.1856,0.35196,5.02798,2.90665,0.81381,-0.36066,-3.39704,3.8,-31.1,-7.2,63.215813,-20.16037,147.162079,0.3250048727407928,0.28883901,0.452838,0.77838397
2.2906,21972.2056,-0.06465,4.6018,2.47807,0.62138,-0.28491,-3.75135,5.8,-30.2,-7.3,64.713951,-13.245389,139.070221,0.35120479954997763,0.277147,0.464008,0.76455301
2.3173,21972.2256,-0.98644,4.30012,1.97049,0.46439,-0.27453,-4.03845,8.5,-29.8,-7.1,65.610603,-4.719122,129.284897,0.37981591550423344,0.26310199,0.474352,0.74933797
2.3445,21972.2456,-3.20833,3.29452,2.30808,0.21943,-0.49749,-4.17956,11.6,-27.8,-5.1,65.73732,4.972508,118.246185,0.4104293415448748,0.246985,0.48405799,0.73228002
2.3478,21972.2656,-4.94418,3.72789,2.5499,-0.06156,-0.62638,-4.00608,14.5,-26.5,-6.0,64.839134,14.719793,106.90966,0.4433345733232629,0.229727,0.491552,0.71348202
2.3686,21972.2856,-5.90907,3.56508,3.82605,-0.27048,-1.28917,-3.49356,16.5,-25.0,-4.4,62.944004,22.941423,96.944519,0.47643235542662277,0.212239,0.49549401,0.69458801
2.3841,21972.3056,-6.32328,3.68479,5.15487,-0.19718,-2.15355,-3.01892,17.6,-23.5,-5.1,60.331913,28.487057,89.078674,0.5105759408978447,0.197956,0.49324599,0.67589498
2.4077,21972.3256,-5.45176,3.01679,5.1022,0.1162,-2.35452,-2.83016,18.7,-23.4,-8.1,57.679832,31.756285,82.662338,0.5455178366772617,0.190116,0.486366,0.65552598
2.4278,21972.3456,-7.32169,3.24185,3.64648,0.18584,-2.1511,-2.92546,20.1,-21.5,-8.6,55.112461,34.274475,76.828484,0.5791108013623122,0.18407001,0.47937101,0.63320798
2.4506,21972.3656,-8.00406,3.60338,3.3017,-0.17702,-1.61782,-2.61086,21.5,-20.3,-7.5,52.374527,36.916126,71.322884,0.6101153973209821,0.17446899,0.474879,0.60976201
2.4666,21972.3856,-7.70478,2.82285,3.48846,-0.82881,-1.42723,-2.28893,22.2,-20.2,-8.6,49.435322,38.73872,67.509605,0.6354434704410137,0.16058201,0.46967199,0.59146702
2.4905,21972.4056,-9.5771,2.8013,4.9777,-1.28452,-1.54452,-2.12889,22.9,-18.8,-10.5,46.126774,39.76062,64.991341,0.6582017238995345,0.142634,0.46180999,0.57719803
2.5056,21972.4256,-10.38397,2.99763,6.5244,-1.56918,-2.1902,-1.85278,23.4,-17.7,-10.8,42.583652,39.743443,63.350155,0.6809211870200985,0.12432,0.44885701,0.565171
2.529,21972.4456,-10.34087,2.68877,7.90829,-1.89477,-1.71006,-1.00978,22.4,-16.2,-13.1,39.069859,38.613216,62.495548,0.7030590260924746,0.108161,0.43009299,0.55590397
2.557,21972.4656,-11.07831,3.49804,8.22433,-2.05665,-0.43152,0.09466,22.3,-15.7,-15.6,36.051109,37.488468,63.176178,0.7149782598161428,0.089551,0.413789,0.55638599
2.5688,21972.4855,-10.52044,5.25543,8.95219,-2.34803,0.2331,0.81609,22.4,-15.1,-14.0,33.612389,36.928982,65.136948,0.7159264030038283,0.067915,0.403144,0.565961
2.5912,21972.5055,-8.6146,6.3999,9.97215,-2.33459,0.38521,1.14291,23.1,-13.7,-13.4,31.502514,36.469112,67.989464,0.7103923468194459,0.045381,0.39384401,0.58152401
2.6163,21972.5255,-8.23152,6.70397,10.50847,-1.89355,0.19156,1.18872,21.9,-14.8,-15.8,29.82497,35.920082,71.066139,0.7019357513177399,0.026045,0.384754,0.598809
2.6266,21972.5455,-9.52682,7.10142,10.75748,-1.22465,0.22638,1.3451,22.0,-14.2,-16.5,28.759836,35.322113,73.868515,0.692513882118734,0.012564,0.37710601,0.61486399
2.6524,21972.5655,-7.92026,7.63055,10.2882,-0.60096,0.36077,1.72201,22.5,-14.5,-15.7,28.636799,34.642139,76.441399,0.6811531149016057,0.007005,0.37270799,0.630135
2.6644,21972.5855,-5.67443,8.42785,9.15092,-0.3896,0.95698,1.97918,21.9,-15.4,-15.7,29.292725,34.157074,79.009674,0.6663411677180989,0.005737,0.372991,0.64562702
2.6838,21972.6055,-4.22111,9.0312,8.84206,-0.62661,1.57334,1.93153,22.0,-15.6,-16.3,30.151264,34.26791,81.73394,0.6476598103045607,0.001833,0.37775099,0.66169298
2.7059,21972.6255,-5.75584,8.29137,9.0743,-0.65349,1.52447,1.58456,22.2,-15.6,-15.7,30.75643,34.84956,84.439362,0.6279278604580139,-0.006641,0.38385099,0.67699403
2.7263,21972.6455,-6.24906,8.03519,9.84765,-0.18068,1.20255,1.45995,21.9,-15.7,-15.6,31.301214,35.431675,86.624947,0.6111078463855623,-0.014019,0.389485,0.68895
2.7438,21972.6655,-4.9753,7.91308,9.90512,0.33489,1.09381,1.44284,22.3,-15.6,-15.1,32.26255,35.844841,88.293144,0.5963088542476621,-0.016202,0.39624399,0.69795698
2.7675,21972.6855,-5.13572,7.7383,8.10941,0.71118,1.50431,1.3677,22.5,-15.0,-15.3,33.668377,36.502319,89.41925,0.5821979882170146,-0.015426,0.406526,0.70394897
2.7842,21972.7055,-5.24586,7.57788,6.87157,0.64337,1.56723,1.37076,22.3,-15.0,-15.6,35.292439,37.640789,90.058197,0.5682981464560829,-0.014704,0.42026499,0.70724702
2.8031,21972.7255,-5.02798,6.44778,6.09103,0.31534,1.24775,1.39031,22.1,-15.1,-15.8,36.787834,38.679871,90.661537,0.555132882689397,-0.014173,0.43267101,0.71022701
2.8258,21972.7455,-6.03118,5.66246,5.77739,0.19805,0.83664,1.66153,21.9,-15.4,-15.7,38.054226,39.078594,91.464615,0.543794452212819,-0.011955,0.44070899,0.71408701
2.8444,21972.7655,-4.10618,6.3999,6.21554,0.26281,0.7108,2.13984,21.6,-15.8,-15.5,39.51244,38.81271,92.649307,0.5317673459313382,-0.006007,0.44653499,0.71957898
2.8639,21972.7855,-2.71511,5.3536,6.70397,0.00258,1.08098,2.04699,20.7,-17.5,-14.2,41.216629,38.159599,94.349777,0.5169241486689319,0.001711,0.45195499,0.726996
2.8854,21972.8055,-3.37353,4.4749,6.17962,-0.10066,1.38031,2.05798,20.0,-18.9,-14.1,42.460793,37.706932,96.422035,0.5005862996554337,0.003776,0.45624,0.73569298
2.9044,21972.8255,-2.27696,4.5563,5.48528,-0.00903,1.13963,2.54545,19.4,-19.9,-13.4,43.709225,37.145737,98.94075,0.4816070047320741,0.004614,0.460309,0.745754
2.9261,21972.8455,-1.69754,4.35519,4.70475,0.09543,0.62589,2.64502,19.1,-20.7,-13.0,45.173698,35.669182,102.060585,0.4613092723364445,0.010091,0.462109,0.75732899
2.9471,21972.8655,-2.33442,3.48606,4.42223,0.26891,0.43347,2.62914,17.5,-22.6,-11.4,46.675991,33.52372,105.336494,0.4423118869587384,0.01948,0.46219599,0.76834601
2.9656,21972.8855,-3.50761,2.60258,3.53395,0.48455,0.52571,2.83806,16.4,-24.0,-12.3,48.188126,31.254677,108.787491,0.4224305473179227,0.028959,0.462814,0.77879202
2.9857,21972.9054,-1.42459,2.77975,2.25062,0.34405,0.61245,3.2339,15.4,-24.6,-11.3,49.799072,28.960167,112.594818,0.39973513526959276,0.037517,0.46498799,0.78904402
3.0085,21972.9254,1.11094,3.23945,2.68398,-0.2772,0.25876,3.32736,14.2,-25.9,-10.8,51.204815,25.856867,117.317848,0.37459845131350944,0.046737,0.464661,0.80098802
3.0304,21972.9454,1.6305,2.97369,3.34959,-0.86546,0.44996,3.12883,12.0,-27.5,-10.9,52.068825,21.510912,123.1026,0.34849837477907963,0.057978,0.45901,0.81516701
3.059,21972.9654,0.09338,1.95133,3.40226,-1.12264,1.04189,3.12272,10.7,-27.5,-10.3,52.203331,17.412657,129.163986,0.32085297907446586,0.063891,0.451143,0.83032602
3.072,21972.9854,1.41023,2.54511,3.05749,-1.35721,1.10359,3.54483,9.5,-27.7,-10.9,51.89735,13.665422,135.507309,0.2898234443167769,0.065467,0.44262001,0.84605199
3.087,21973.0054,5.0615,3.08143,3.65606,-1.97235,1.13291,3.6725,7.0,-28.9,-13.1,51.063728,9.341173,142.558441,0.25541417933873506,0.068289,0.430437,0.86303198
3.1041,21973.0254,6.81411,2.87792,5.28177,-2.69623,1.47744,3.10012,5.7,-28.9,-12.1,49.096775,5.395689,149.458633,0.22044343611030845,0.068,0.411625,0.88167202
3.149,21973.0454,5.29614,3.49325,6.64411,-2.99188,1.93436,2.48803,4.5,-28.0,-15.0,45.832851,1.660027,155.953903,0.18632927012334888,0.068053,0.38358599,0.90194899
3.1666,21973.0654,3.62972,3.57226,7.38873,-2.82206,1.92092,2.20948,2.8,-28.0,-17.0,42.09935,-0.634368,161.078156,0.155365151085755,0.064135,0.35343701,0.92023402
3.1672,21973.0854,3.27776,3.62493,8.45658,-2.31505,1.34976,2.21131,2.3,-27.7,-17.1,38.588146,-2.134436,165.25766,0.12717468186906963,0.059818,0.32537401,0.93508297
3.1907,21973.1054,5.64091,4.25941,8.96895,-1.69135,0.2948,2.24613,0.4,-26.9,-17.3,35.638573,-3.94316,169.015762,0.10154662445891549,0.061874,0.301296,0.946087
3.2041,21973.1254,6.96734,4.98727,9.92906,-1.20327,-0.53292,2.07203,-0.8,-26.8,-20.3,33.326927,-6.585696,172.457275,0.07934769855981882,0.073738,0.28203699,0.953269
3.2261,21973.1454,7.35282,5.6026,10.73353,-0.77811,-1.13829,1.77821,-1.7,-26.2,-20.7,31.495113,-9.74862,175.383499,0.0616818933832265,0.092606,0.26690501,0.95727801
3.2489,21973.1654,8.38475,6.09103,9.77343,-0.32057,-1.36675,1.4856,-3.4,-26.0,-19.9,30.147146,-13.103506,177.777802,0.04828390188167955,0.115164,0.25617599,0.95853001
3.2722,21973.1854,8.52122,6.40947,8.77262,-0.22161,-1.28795,0.92422,-4.9,-26.0,-19.5,29.307228,-16.32522,179.668793,0.03870191717782816,0.138088,0.25001401,0.95756298
3.2986,21973.2054,7.91547,6.75904,9.63217,-0.8056,-1.46694,0.22355,-4.0,-25.6,-20.8,28.576492,-19.02894,-179.422119,0.03598458224350323,0.15895399,0.24421,0.95592898
3.3155,21973.2254,8.58348,7.22113,12.48135,-1.03528,-1.53535,-0.14052,-5.3,-25.2,-21.2,27.534895,-21.362223,-179.595886,0.04076296363807995,0.17919201,0.234492,0.95459002
3.3284,21973.2454,9.29218,7.86519,13.33132,-0.60523,-1.34782,-0.56691,-6.5,-24.9,-19.7,26.6141,-23.066862,179.561554,0.04968304543483239,0.19543301,0.224776,0.95331699
3.3487,21973.2654,9.22993,7.94181,12.27305,0.01602,-1.26779,-1.17044,-5.4,-24.7,-19.3,26.476767,-24.074976,178.356949,0.06141524101425748,0.2062,0.22103401,0.95123798
3.3671,21973.2854,8.10701,7.1948,10.45101,0.38192,-1.71372,-1.88454,-5.6,-25.0,-20.3,27.246021,-24.949976,176.616074,0.07888632295803646,0.216635,0.223673,0.94700402
3.3868,21973.3054,7.16846,6.14371,9.75667,0.54319,-2.24335,-2.53084,-5.0,-25.4,-21.0,28.709927,-26.05233,174.168137,0.10383391366523412,0.23036399,0.23012801,0.93978298
3.4044,21973.3253,6.08864,5.37275,9.82371,0.64521,-2.60314,-2.98105,-5.1,-26.0,-20.2,30.656017,-27.375732,171.100464,0.1350713705667471,0.247454,0.23835699,0.92935902
3.4279,21973.3453,4.94178,4.43899,9.6178,0.8248,-2.56649,-3.28098,-4.4,-25.8,-20.0,32.925819,-28.75736,167.666153,0.16976866071740057,0.26626101,0.247346,0.916026
3.4489,21973.3653,4.39349,4.06069,9.18923,0.96225,-2.3869,-3.43125,-4.8,-25.6,-20.3,35.29829,-29.878754,163.999207,0.20554741748730304,0.28404301,0.25589699,0.90088099
3.464,21973.3853,4.31688,3.79493,8.78699,1.01661,-2.13583,-3.51372,-5.1,-25.6,-20.2,37.748795,-30.472952,160.132431,0.24124023259576702,0.29878899,0.26454601,0.884615
3.4877,21973.4053,4.37913,3.42142,7.9873,1.07281,-1.79314,-3.68659,-5.2,-25.7,-20.1,40.183468,-30.457207,156.032272,0.2764215430421786,0.31013301,0.27301699,0.86768103
3.5091,21973.4253,3.92661,3.04791,6.71594,1.12718,-1.35026,-4.02074,-4.8,-25.9,-19.2,42.652596,-29.608061,151.556839,0.31133231556929547,0.317103,0.28235701,0.85017198
3.5267,21973.4453,2.2147,2.73905,5.52838,0.93537,-1.2177,-4.35427,-2.7,-26.9,-17.9,45.133545,-27.752497,146.499283,0.34650146484452243,0.31943899,0.292927,0.83191901
3.5471,21973.4653,0.0838,2.54751,5.30092,0.59267,-1.16517,-4.3952,-0.2,-27.3,-15.4,47.286789,-24.971018,140.592987,0.383175812894159,0.31846499,0.301862,0.81279498
3.5666,21973.4853,-1.19714,2.83722,5.49725,0.28358,-1.20243,-4.12825,1.9,-27.2,-14.1,48.796028,-21.452299,134.114822,0.4195940858612987,0.314293,0.30768099,0.79403597
3.5959,21973.5053,-1.1301,3.27297,6.20117,0.14857,-1.2623,-3.77578,4.9,-27.0,-14.8,49.632591,-17.650354,127.540482,0.4541724699628103,0.308218,0.31049001,0.77609599
3.6067,21973.5253,-0.91222,3.52198,5.69837,0.22188,-1.14867,-3.70309,6.7,-26.9,-14.2,50.035339,-13.831549,121.02639,0.48712199461354605,0.30162501,0.31173399,0.75799501
3.6272,21973.5453,-1.52276,3.5555,5.17163,0.29457,-0.96419,-3.81793,8.0,-27.1,-14.7,50.314346,-9.682332,114.421089,0.5185957637917027,0.293612,0.31472701,0.73878098
3.6558,21973.5653,-4.16125,2.87313,5.1022,0.11437,-0.96114,-4.0128,10.7,-26.5,-15.1,50.369495,-5.006483,107.455444,0.5498569226168203,0.28338301,0.31936499,0.717884
3.6668,21973.5853,-6.64172,2.59779,5.36318,-0.18068,-0.74978,-3.77578,12.2,-24.0,-15.0,49.802029,0.296504,99.933876,0.5825962293148997,0.26903501,0.32389799,0.69519198
3.6848,21973.6053,-8.22673,3.01439,5.30332,-0.41281,-0.79254,-3.17225,13.2,-22.8,-13.8,48.528778,5.589639,92.821167,0.6133145642873316,0.25080901,0.32794499,0.67334402
3.7042,21973.6253,-8.19081,3.7231,6.12216,-0.57958,-1.01551,-2.35063,14.5,-21.8,-15.1,46.805176,9.946128,86.997704,0.6395083886456996,0.23227,0.330082,0.65431303
3.7261,21973.6453,-7.48211,4.17562,6.89312,-0.53682,-1.167,-1.79719,14.2,-22.5,-18.6,44.95406,12.838276,82.795326,0.6605411282592628,0.216674,0.32872701,0.63927799
3.751,21973.6653,-8.02082,4.42941,6.53876,-0.37005,-0.89944,-1.38424,15.7,-21.4,-17.2,43.295525,14.914247,79.60611,0.6773756065777539,0.203788,0.32682899,0.62674999
3.7656,21973.6853,-7.61379,4.95375,5.69598,-0.43725,-0.78338,-0.80148,15.1,-21.3,-17.4,41.919758,16.672668,77.234978,0.6895521626758921,0.19204,0.326682,0.617185
3.7909,21973.7053,-6.16047,5.92822,6.41426,-0.772,-0.8127,-0.26758,15.8,-19.7,-17.9,40.658943,17.762384,75.989334,0.6971012548365836,0.18138801,0.32539099,0.61259198
3.8507,21973.7252,-5.0184,6.41426,6.88354,-1.04017,-0.37654,0.0629,15.7,-19.5,-15.6,39.329464,18.209915,75.699127,0.7015280949374866,0.170939,0.321547,0.61257303
3.8526,21973.7452,-5.00882,6.47651,6.52919,-1.18983,0.01319,0.20706,15.3,-19.9,-19.3,37.978645,18.667591,76.150963,0.7019579310115387,0.15818,0.318737,0.616961
3.8549,21973.7652,-5.71274,6.84763,6.90269,-1.36087,-0.0986,0.38421,15.6,-19.4,-18.0,36.649956,19.164658,77.008743,0.6999266372518615,0.144228,0.31667301,0.62371403
3.8741,21973.7852,-4.31927,7.66168,7.96096,-1.4525,-0.41136,0.56686,14.9,-19.8,-19.9,35.324463,19.114643,78.306404,0.6968432381311164,0.132121,0.31159401,0.63234699
3.8855,21973.8052,-3.75662,7.67126,8.86839,-1.4354,-0.11448,0.44163,15.5,-18.8,-18.2,34.085831,18.659548,79.880249,0.6928447284868517,0.122236,0.30450901,0.64210498
3.9103,21973.8252,-6.10061,7.34563,9.63456,-1.39814,0.23249,0.43614,15.4,-18.9,-18.4,32.865837,18.583124,81.348534,0.6881326917935521,0.110805,0.299411,0.65157402
3.9245,21973.8452,-5.86597,7.67844,10.49411,-1.22221,0.51715,1.08121,15.6,-18.7,-18.8,31.774248,18.782728,83.025444,0.6809471159576488,0.098213,0.296523,0.66237402
3.9443,21973.8652,-2.57863,8.6577,11.06155,-0.91677,0.58374,1.69513,15.6,-18.9,-18.6,31.15424,18.779171,85.508095,0.6680869009514853,0.087852,0.295248,0.67732602
3.9658,21973.8852,-1.00081,8.7822,10.85325,-0.51177,0.77494,1.75683,15.9,-18.8,-18.5,31.065474,18.429373,88.525665,0.6511563443119323,0.081617,0.294983,0.69449198
3.9843,21973.9052,-1.69275,8.44461,10.26186,-0.12387,0.65277,1.56257,15.8,-18.5,-19.0,31.383101,18.124138,91.336655,0.6338989599537295,0.078175,0.29701,0.70982099
4.0041,21973.9252,-2.95214,7.90111,10.08708,0.32023,0.48417,1.45995,15.6,-18.3,-19.4,32.050266,17.780344,93.667496,0.6185170195249279,0.07825,0.300547,0.721793
4.0269,21973.9452,-2.68638,7.4438,9.41189,0.757,0.53304,1.57051,15.5,-18.1,-19.8,33.146851,17.354885,95.648918,0.6042516265079637,0.082157,0.30605999,0.73106599
4.0492,21973.9652,-1.76937,7.04635,8.05913,0.89566,0.99119,1.61999,15.3,-18.0,-20.1,34.652271,17.159594,97.483391,0.5890873746237643,0.087133,0.31529,0.73890197
4.0686,21973.9852,-1.44375,6.29694,6.98889,0.61405,1.01562,1.64198,15.1,-18.1,-20.2,36.152645,17.232456,99.26149,0.573376899897685,0.090197,0.32598099,0.74621701
4.0894,21974.0052,-3.18917,5.07347,7.55154,0.34222,0.90017,1.80814,14.8,-18.2,-20.3,37.324604,17.107565,101.141045,0.5582779664761273,0.092128,0.33391401,0.753883
4.1045,21974.0252,-3.43578,4.34082,8.29137,0.44973,0.77922,2.29866,14.6,-18.4,-20.4,38.323128,16.557892,103.361237,0.5425072447579293,0.094685,0.33917299,0.76268101
4.1244,21974.0452,-1.70951,3.98168,7.11339,0.73745,1.08282,2.79652,14.3,-18.7,-20.3,39.564499,15.533453,106.169273,0.5234355339847305,0.099746,0.34449399,0.77291
4.1501,21974.0652,-0.98644,4.04393,5.84442,0.67636,1.21415,3.04086,14.0,-19.0,-20.2,40.988998,14.428935,109.492455,0.5004800988644202,0.104426,0.35154301,0.78424001
4.1716,21974.0852,-0.05746,4.14688,6.32567,0.38437,0.93926,3.24001,13.2,-19.9,-19.7,42.182816,12.923273,113.24688,0.47620498162018365,0.109032,0.35636199,0.79645902
4.1854,21974.1052,1.57783,4.5994,7.39352,0.23287,0.75173,3.25711,11.5,-21.3,-19.1,42.942032,10.601915,117.584167,0.451202601192413,0.115311,0.356273,0.81005502
4.2064,21974.1252,2.50441,4.53955,6.65369,0.34955,1.17689,3.11234,10.2,-23.4,-19.0,43.429161,7.971676,122.298813,0.4246769187325335,0.121533,0.35443801,0.82416803
4.2245,21974.1451,1.72627,4.13252,5.10459,0.34466,1.24836,2.9303,9.3,-24.3,-17.9,43.865562,5.686323,127.118004,0.3959513062471687,0.124915,0.354523,0.83781397
4.2518,21974.1651,0.69913,3.8069,4.69517,0.17179,0.81648,3.0201,7.7,-24.9,-17.6,44.127796,3.327407,131.861267,0.367858240191952,0.12857001,0.353809,0.85027599
4.2698,21974.1851,2.15724,3.90985,5.94498,0.04717,0.05778,3.29132,6.2,-25.8,-16.8,44.052822,0.246752,136.940582,0.33944671083691474,0.135774,0.349599,0.862625
4.2836,21974.2051,5.84682,4.53476,5.36318,0.13636,-0.03873,3.25955,4.1,-26.5,-15.6,43.672344,-3.902471,142.476822,0.3103743819592395,0.149489,0.34182101,0.874345
4.3137,21974.2251,7.85801,4.30491,4.71193,-0.02736,0.5703,2.70428,2.8,-27.1,-16.8,43.139435,-7.947697,147.953506,0.280570160813975,0.163177,0.334712,0.88465899
4.3332,21974.2451,6.08864,4.36237,4.68081,-0.53437,0.82931,2.0812,1.7,-27.2,-16.7,42.231327,-11.040325,152.616318,0.25345528045929405,0.17206299,0.327151,0.89393902
4.352,21974.2651,4.07027,3.69915,5.3967,-0.87585,0.87512,1.8454,-0.1,-27.4,-18.1,40.810383,-13.204147,156.213943,0.2310996669667424,0.17682201,0.31670299,0.90278798
4.3664,21974.2851,3.50522,3.55071,5.94498,-0.78849,0.33573,1.90588,-0.5,-26.7,-17.8,39.094006,-15.002143,159.257782,0.21116263960866732,0.180728,0.304151,0.91117501
4.3876,21974.3051,5.86358,3.41184,4.73348,-0.55392,0.05106,1.83196,-1.1,-26.3,-17.8,37.465889,-17.237148,162.17215,0.19263397533508922,0.18940499,0.291706,0.91756499
4.4043,21974.3251,6.68482,3.53874,5.10699,-0.95404,0.3284,1.4068,-2.0,-26.6,-19.0,35.982609,-19.340292,164.770599,0.17567156085843788,0.19870099,0.28062901,0.922445
4.4233,21974.3451,7.01283,4.11097,6.80932,-1.40608,0.01991,1.25897,-2.1,-26.1,-18.5,34.05727,-20.860792,166.525497,0.16297671741816325,0.205697,0.26571399,0.92764401
4.4458,21974.3651,7.4438,4.27857,7.24986,-1.29124,0.08283,1.03478,-3.1,-26.0,-17.8,31.856689,-22.323048,167.78038,0.15324040651479304,0.213743,0.247903,0.93240303
4.4758,21974.3851,6.70397,4.63292,7.0272,-1.10553,-0.00941,0.64016,-3.8,-25.9,-19.3,29.972605,-23.437908,168.676163,0.14558845872911713,0.220226,0.23260599,0.936055
4.4843,21974.4051,6.20596,4.40547,7.13015,-1.14157,-0.346,0.31091,-3.7,-25.6,-19.7,28.461941,-24.454872,169.01091,0.1425416516063987,0.227355,0.219494,0.93798399
4.5081,21974.4251,5.96414,4.98249,9.62498,-1.21427,-0.7284,0.18873,-4.2,-25.3,-18.7,27.05732,-25.571156,168.867554,0.14349755953346346,0.236276,0.206186,0.93865299
4.5262,21974.4451,7.14691,6.35201,11.64815,-0.86913,-1.15906,0.21195,-4.8,-25.1,-19.6,25.728029,-26.889212,168.55806,0.14603319687317645,0.247126,0.192863,0.93830001
4.5482,21974.4651,9.27303,6.95537,11.35605,-0.20267,-1.03566,-0.19428,-5.7,-24.9,-21.2,24.931911,-28.469185,168.295181,0.14931365669757019,0.26017901,0.18366,0.93609899
4.5665,21974.4851,8.13096,6.72552,10.69283,0.07894,-0.51032,-1.01772,-3.8,-25.4,-17.9,25.066126,-29.528835,167.751816,0.15569311023291885,0.269739,0.182101,0.932652
4.6066,21974.5051,5.99526,6.57947,10.58748,0.0545,-0.36677,-1.49909,-4.9,-25.2,-19.5,25.809155,-29.762772,166.455612,0.16804712098539296,0.27403799,0.18481199,0.92871302
4.6097,21974.5251,5.54753,6.47412,11.13577,0.17667,-0.2391,-1.50275,-5.1,-25.3,-20.0,26.736536,-29.548126,164.761795,0.18317390774370407,0.27555001,0.188697,0.92461503
4.6261,21974.545,6.15329,7.20198,11.49012,0.5322,-0.23421,-1.58644,-5.3,-25.2,-19.8,27.82107,-29.159149,163.157104,0.19744714711542194,0.27578199,0.194372,0.92042297
4.6477,21974.565,5.52359,6.73749,10.43664,1.05571,-0.38998,-2.05131,-5.5,-25.0,-20.0,29.407154,-28.765947,161.58963,0.21212034141948738,0.27650401,0.204261,0.914783
4.6632,21974.585,4.71912,6.34962,9.22993,1.43445,-0.64288,-2.53084,-5.6,-24.9,-20.2,31.736599,-28.392906,159.734634,0.23007196346173917,0.27885699,0.219441,0.906174
4.6882,21974.605,4.65208,5.7702,8.32729,1.6061,-0.68869,-2.92423,-5.7,-24.8,-20.2,34.543888,-27.991362,157.46994,0.25142619699701035,0.282772,0.23742899,0.89468002
4.719,21974.625,3.46212,4.94178,7.58985,1.74782,-0.55186,-3.39094,-5.6,-24.8,-20.2,37.591057,-27.201973,154.673569,0.2756351434965429,0.28585401,0.25673699,0.88113499
4.7282,21974.645,1.73824,4.08463,5.9378,1.84739,-0.38143,-3.70126,-5.3,-24.9,-20.1,40.795166,-25.705532,151.183014,0.30248026783276194,0.28649399,0.27723101,0.86577702
4.7539,21974.665,0.47646,3.36874,4.29054,1.73621,-0.07783,-3.69392,-2.9,-26.0,-19.3,43.969147,-23.39967,147.044052,0.3303540386070061,0.28429499,0.29818699,0.84919202
4.7667,21974.685,0.66561,4.87953,4.86756,1.40329,0.56725,-3.58336,0.5,-26.6,-16.1,46.705444,-20.168829,142.433319,0.3567592285972423,0.27785599,0.31772101,0.83341002
4.787,21974.705,-0.87391,4.95854,3.54832,1.07709,0.85313,-3.34146,3.9,-27.6,-15.7,48.901527,-15.697232,137.329666,0.38074092588062963,0.26497,0.336707,0.81942397
4.8097,21974.725,-0.78532,5.46852,2.1333,0.54014,0.95698,-3.25716,7.6,-27.7,-14.5,50.454372,-10.693212,132.071396,0.4021224160151977,0.249386,0.35353801,0.80691701
4.8244,21974.745,-0.89546,5.37994,2.18358,-0.09394,1.0034,-3.22539,8.6,-26.9,-15.4,51.300934,-5.095741,126.346283,0.4235920503185578,0.230924,0.367825,0.79495198
4.8512,21974.765,0.2945,4.60658,1.52994,-0.84042,0.75112,-3.30419,10.3,-26.2,-13.4,51.1744,0.550759,120.389015,0.44650430834756766,0.210907,0.37690499,0.78364199
4.8951,21974.785,0.25858,3.10537,2.65046,-1.63332,-0.0595,-3.82526,12.9,-24.6,-14.0,49.996796,5.60951,114.59127,0.4717016814923168,0.19073699,0.379136,0.77289897
4.9037,21974.805,-2.47329,2.39906,4.11097,-2.30894,-0.71191,-4.29257,14.6,-23.4,-16.1,47.463203,9.909001,108.383896,0.5054093750096638,0.17046601,0.37142,0.75996703
4.9123,21974.825,-3.04312,2.68159,6.06709,-2.42744,-0.62944,-4.23088,15.8,-21.4,-15.5,43.809181,13.382697,102.318802,0.5440574279054362,0.148169,0.35639799,0.74500197
4.9257,21974.845,-2.99763,2.00401,5.45895,-1.73106,-0.27758,-4.00424,17.0,-19.3,-17.7,40.035652,16.340324,97.030914,0.5796382213915849,0.124422,0.342287,0.728957
4.9466,21974.865,-3.90267,3.76141,7.59943,-0.77628,-0.17007,-3.5522,18.4,-17.9,-19.1,36.963341,19.005991,92.297035,0.6103018522825076,0.103683,0.33394501,0.71081799
4.9987,21974.885,-6.59623,2.842,8.77262,0.52426,0.99363,-3.28098,18.7,-16.2,-17.6,34.898037,21.761215,87.923874,0.6350418762033413,0.086951,0.33403301,0.69107401
5.0091,21974.905,-7.40549,0.65124,6.64172,1.35381,1.73889,-3.2706,20.6,-15.4,-16.8,33.782066,25.970802,83.249916,0.6536015172281963,0.068816,0.348786,0.668145
5.0103,21974.925,-8.05195,1.67599,5.61697,1.69345,1.90932,-2.89308,23.0,-13.2,-14.7,32.833885,31.014273,78.292274,0.6691363520175838,0.049305,0.37081999,0.64212
5.0286,21974.945,-8.9498,4.02478,0.53392,1.37397,1.27402,-1.58461,23.7,-12.9,-12.4,32.196087,35.9272,73.952225,0.6787067323319396,0.032487,0.395376,0.61804497
5.0487,21974.9649,-14.25072,4.86038,1.25221,-1.51848,-1.08514,-2.00122,24.2,-11.8,-14.6,31.202875,38.343285,71.416344,0.6871581806841566,0.02166,0.405101,0.60269201
5.0706,21974.9849,-14.23636,1.76697,7.33845,-2.31566,-1.14073,-1.79413,24.4,-10.1,-14.7,27.831459,38.797363,70.23642,0.7029357691402534,8.8e-05,0.3942,0.59201998
5.0866,21975.0049,-13.07992,1.01278,9.82131,-1.77993,-3.87069,-0.74955,23.2,-9.7,-18.0,24.384441,37.947784,70.047401,0.7175443050182468,-0.018841,0.37487501,0.58672303
5.1058,21975.0249,-11.46379,2.19794,7.04156,-0.56369,-7.52122,0.47462,22.1,-9.1,-20.9,22.273766,33.364471,70.308701,0.7365178354700174,-0.010897,0.33681801,0.58649498
5.1259,21975.0449,-4.69996,0.87152,10.2858,-0.4855,-6.11257,1.19116,19.2,-8.6,-22.6,21.618681,25.510563,71.091721,0.7554183034216999,0.022749,0.282794,0.59063798
5.1543,21975.0649,-1.70233,1.13728,10.4534,-0.40487,-2.39728,1.32861,17.7,-9.8,-23.4,21.281544,20.256205,72.410179,0.7614947166189002,0.04459,0.246824,0.59767503
5.1759,21975.0849,-4.87235,3.48846,10.35284,-0.57958,0.43835,1.3897,17.6,-9.6,-24.7,20.835203,18.484093,74.025513,0.7576617317858801,0.047422,0.23356999,0.60757297
5.2074,21975.1049,-6.53876,3.5962,9.91948,-0.73168,0.54159,1.89122,17.4,-10.3,-24.4,20.363787,19.174059,75.91568,0.7470992658662835,0.036607,0.236459,0.62015301
5.2165,21975.1249,-5.56429,3.53634,10.75508,-0.95465,-1.20976,2.51613,17.5,-9.6,-24.2,19.981419,19.05983,78.564079,0.7335949201680718,0.029199,0.23453499,0.63716501
5.2299,21975.1449,-3.69437,3.30649,11.19084,-0.82759,-2.36002,3.01643,16.0,-10.0,-25.4,19.66116,16.639265,81.854523,0.7204297412100642,0.034242,0.21839,0.657354
5.2678,21975.1649,0.51237,3.10059,13.08232,-0.49528,-0.51521,3.24367,14.3,-10.6,-27.0,19.549595,13.398854,85.639503,0.7044491567052655,0.045537,0.198936,0.67978102
5.2765,21975.1849,-0.25619,4.02478,12.40713,-0.16297,1.44934,3.00238,14.1,-10.7,-25.9,19.762978,12.219753,89.483276,0.6829186837968478,0.047391,0.194591,0.70250303
5.2997,21975.2049,-3.06228,4.29533,12.5053,-0.09638,2.3131,3.08851,14.9,-11.0,-25.8,20.269575,13.088732,93.056015,0.6582973986632029,0.038854,0.20405699,0.72352999
5.3096,21975.2249,-2.94017,4.348,13.97059,-0.04018,1.90382,3.59248,13.7,-13.2,-25.6,20.96019,14.344508,96.861351,0.6303611420427179,0.027896,0.216481,0.74498498
5.3271,21975.2449,-2.15485,2.83722,15.32096,0.32634,0.32107,3.97366,14.0,-13.0,-23.9,21.932844,14.440055,101.352272,0.5987029033486307,0.024148,0.22418299,0.76857901
5.3459,21975.2649,-0.36872,4.24505,16.49895,1.49859,-0.66548,4.57169,12.1,-14.0,-25.1,23.497478,12.5333,106.113091,0.5671552054535681,0.036237,0.225998,0.79116797
5.3637,21975.2849,2.87552,2.28174,12.89317,3.1693,-0.9141,4.41409,10.9,-15.8,-25.3,26.686586,9.417977,111.267616,0.5317490767747312,0.063898,0.23494799,0.81114697
5.3912,21975.3049,-1.80528,4.22829,9.79737,3.44969,-1.45289,2.04699,10.2,-17.8,-24.5,30.740213,6.020777,115.291786,0.5035394050372617,0.09887,0.250696,0.82086802
5.4053,21975.3249,-2.30569,2.10217,8.51644,3.72152,-1.34843,2.26079,9.0,-19.9,-23.0,34.228043,3.237148,117.185226,0.49075259082802547,0.13025101,0.26512599,0.81969798
5.4332,21975.3449,0.10774,2.71511,4.01999,3.71297,-1.57017,3.11967,6.2,-22.1,-22.8,37.73,-0.231932,120.178101,0.47243418949170046,0.162894,0.27931601,0.819911
5.4477,21975.3649,1.30009,1.31206,4.98249,2.669,-0.15846,3.51001,5.1,-23.8,-20.7,40.540707,-4.05248,124.738564,0.4456304780093251,0.18995801,0.29136601,0.82488501
5.4653,21975.3848,3.6369,0.90982,5.11178,2.28355,0.09627,3.90951,2.9,-25.5,-20.0,42.019867,-7.669392,130.361099,0.41274107622183615,0.206825,0.29848,0.83533102
5.4875,21975.4048,1.68318,0.0407,4.29772,2.29699,0.7053,4.04085,0.9,-26.8,-17.3,42.726719,-11.656468,136.856079,0.3750382977516557,0.22118799,0.30224499,0.84798002
5.5032,21975.4248,3.01439,0.69195,3.65845,2.14733,0.78838,4.48617,-0.8,-26.8,-17.2,42.93652,-15.407168,143.999084,0.3316491264683202,0.23072,0.30638099,0.86192101
5.5293,21975.4448,5.47571,1.26897,1.47248,2.04165,0.03824,4.29436,-3.5,-28.2,-15.9,42.468067,-20.010456,151.667984,0.28566086555525927,0.244307,0.30619201,0.87461901
5.5482,21975.4648,4.28096,1.69036,-1.05348,1.71483,0.5477,4.01397,-6.4,-28.7,-15.5,42.291656,-24.82387,159.183273,0.24082499971468793,0.26081699,0.310298,0.88186902
5.5633,21975.4848,4.03435,1.59938,-1.69515,0.75089,0.79021,4.30108,-8.4,-28.4,-12.8,41.715405,-28.544792,166.046814,0.1971345031339766,0.270583,0.314522,0.88825601
5.5905,21975.5048,6.32089,0.86912,-0.838,-0.13731,0.85069,4.34262,-10.7,-28.0,-13.9,39.727341,-31.589611,172.424255,0.15207568378060912,0.27703899,0.30932799,0.896905
5.6137,21975.5248,7.05114,-0.23703,1.90105,-0.65471,0.79999,4.04818,-11.9,-28.0,-14.7,36.793896,-33.693981,177.706635,0.10962943228622336,0.28099501,0.29649001,0.90615499
5.6301,21975.5448,6.57947,0.22267,5.2291,-0.32118,-0.31362,3.84965,-14.8,-25.8,-13.0,33.257301,-36.181984,-177.618225,0.06992209473721192,0.291823,0.278146,0.91246098
5.6506,21975.5648,10.6641,0.68955,5.28895,0.53586,-1.37408,3.63035,-15.3,-24.3,-13.6,29.577215,-40.23138,-172.739441,0.030139194688640642,0.316681,0.26025701,0.91163099
5.6664,21975.5848,12.72797,1.925,3.53156,1.20048,-1.76443,3.12211,-16.9,-23.2,-12.4,26.630989,-44.973515,-168.269638,0.004477277572356782,-0.34849399,-0.24972101,-0.903422
5.6832,21975.6048,12.22277,2.51399,1.2546,1.3868,-1.12057,2.56683,-18.4,-23.9,-12.3,24.430998,-49.384476,-164.111984,0.035208942173535485,-0.377799,-0.24682499,-0.89168698
5.7061,21975.6248,13.03683,3.22509,-0.05746,0.89566,-0.88906,2.25346,-20.0,-22.5,-9.5,22.623684,-52.817619,-160.635941,0.06171168656567113,-0.40037501,-0.246526,-0.88040698
5.7232,21975.6448,14.02566,4.08942,-0.05986,-0.11165,-0.76566,1.70429,-20.9,-22.2,-9.7,20.712383,-55.756001,-158.173691,0.08209861757751703,-0.42157099,-0.243113,-0.86973202
5.7447,21975.6648,13.78145,3.7207,3.73507,-1.042,-0.2617,1.22721,-21.8,-21.6,-9.1,18.760654,-57.787605,-157.273376,0.09299027583182942,-0.439266,-0.23383,-0.86239302
5.7668,21975.6848,16.21642,4.65208,8.00167,-1.22771,-0.25437,0.84114,-21.8,-20.0,-8.2,16.85154,-58.783669,-157.656158,0.09645405546901484,-0.451547,-0.219312,-0.85947901
5.7963,21975.7048,19.27391,6.19399,8.32489,-0.71458,-0.43641,0.12643,-22.9,-20.5,-9.6,15.459587,-59.244587,-158.4431,0.09578631898261704,-0.45928201,-0.20645601,-0.858639
5.8092,21975.7249,19.60432,6.09103,6.95058,-0.18923,-0.27514,-1.22603,-22.7,-20.3,-9.9,15.315137,-59.53014,-159.299774,0.08950170437840743,-0.46323001,-0.202187,-0.85821199
5.8282,21975.7449,16.16614,5.12614,7.04635,-0.07073,-0.45229,-2.57238,-22.0,-21.6,-10.6,16.796333,-59.550697,-160.553177,0.0735486329841679,-0.46280801,-0.207921,-0.858585
5.8464,21975.7649,12.22038,3.6393,5.99048,0.24692,-0.62944,-3.6194,-21.7,-23.2,-10.6,19.588158,-59.627995,-162.399597,0.047232996110978434,-0.46159199,-0.22081099,-0.85787201
5.8811,21975.785,10.30735,3.49804,4.6856,0.35749,-0.3295,-3.71286,-20.5,-23.8,-9.4,23.377781,-59.542988,-164.491348,0.015029002767313478,-0.45807099,-0.239856,-0.85581201
5.8963,21975.805,10.13018,3.61057,4.4749,0.19133,-0.60989,-3.8613,-19.3,-24.5,-9.6,27.25091,-59.059067,-166.608597,0.016770308160553332,0.45183501,0.25942501,0.853383
5.909,21975.825,10.29778,3.39029,4.56349,-0.00781,-1.10042,-4.37321,-18.9,-24.5,-9.4,31.00046,-58.835625,-169.074905,0.050772781637800676,0.44900101,0.276784,0.84806299
5.9253,21975.845,9.60344,2.93299,3.87873,-0.0353,-1.37286,-5.14229,-17.5,-25.8,-8.3,34.769409,-58.800102,-172.042313,0.08864006876971503,0.44928899,0.29218599,0.839589
6.0164,21975.8651,4.8508,0.69195,3.40466,-0.09822,-1.39058,-5.75682,-14.7,-27.8,-7.8,39.099892,-58.362026,-175.725113,0.1323622841052503,0.448246,0.30909199,0.82826197
6.0196,21975.8851,5.14769,0.64885,4.86756,-0.33645,-1.24947,-5.09647,-10.9,-29.0,-7.4,43.341965,-57.091232,179.783676,0.17800703853100724,0.444695,0.32354701,0.81601298
6.0217,21975.9051,4.35758,1.31925,1.925,-0.51849,-0.45901,-4.76783,-8.7,-30.8,-9.0,46.531128,-55.218693,175.068771,0.2179103932263431,0.44041899,0.331375,0.80544198
6.0231,21975.9251,3.5148,0.61533,0.11732,-0.88196,0.62161,-4.82036,-5.7,-31.5,-8.4,49.120506,-51.724583,169.857224,0.252952905780659,0.428253,0.337486,0.79919797
6.0246,21975.9452,0.84278,0.7925,-0.65124,-1.53741,1.02784,-4.87839,-2.5,-30.8,-6.6,51.109913,-46.547352,163.663879,0.2864690467802756,0.40915501,0.341609,0.79613501
6.0483,21975.9652,1.6712,0.35675,1.7167,-2.19104,0.31679,-4.74156,1.6,-30.6,-10.0,53.04921,-38.944839,155.357193,0.32545760373796756,0.38124299,0.347693,0.792364
6.0667,21975.9852,-2.22428,0.65603,1.11094,-2.31443,-0.10532,-4.94009,4.5,-29.2,-11.8,54.060585,-30.681656,145.1819,0.37174118421407054,0.355993,0.34768599,0.78370398
6.0839,21976.0053,-4.81249,0.25619,2.28653,-2.26984,0.36444,-4.24126,7.7,-27.2,-13.8,54.158356,-22.07029,134.689316,0.4170323330486255,0.32938099,0.34668201,0.772919
6.104,21976.0253,-4.25463,1.19474,1.5898,-2.4079,-0.42908,-3.30786,8.8,-26.4,-12.4,53.112633,-14.92582,125.925491,0.4548890236170353,0.30498999,0.34203199,0.76359099
6.1275,21976.0453,-9.57471,2.94017,2.05668,-2.62414,0.56663,-2.63835,11.0,-25.0,-15.0,51.131775,-9.882115,119.115646,0.48740771177702935,0.28482601,0.33130699,0.75600499
6.1527,21976.0653,-10.03919,1.59459,2.65286,-2.81657,0.90994,-1.27795,11.8,-23.8,-16.3,48.472633,-5.372291,114.389442,0.5096601478629845,0.25807801,0.321502,0.75516802
6.1661,21976.0854,-9.2443,1.94176,1.8388,-3.52212,-0.40892,-0.24254,11.4,-23.0,-18.4,45.040073,-0.045668,110.105942,0.5292640954539983,0.219695,0.31373301,0.75708997
6.1881,21976.1054,-1.97288,1.90584,7.03438,-4.1397,-0.95381,0.37688,11.4,-21.0,-19.6,40.684906,2.769391,107.832794,0.5452821536882159,0.186371,0.294204,0.76248097
6.2133,21976.1254,-0.43576,2.95932,8.63615,-4.34556,-1.87133,0.0183,11.3,-19.6,-21.8,35.579174,3.293212,107.243813,0.5574500997002512,0.159105,0.26210901,0.771514
6.2248,21976.1455,-6.66806,2.69835,11.53562,-4.19468,0.15858,-0.18023,11.2,-17.7,-23.9,30.284405,3.446698,106.619316,0.5701854007512288,0.132725,0.226713,0.77837902
6.2494,21976.1655,-11.81096,1.96331,13.34329,-3.89658,0.86107,0.95659,10.9,-16.4,-24.5,25.256428,5.034649,106.656319,0.5745195378213173,0.096067,0.20077901,0.787646
6.2715,21976.1855,-12.14137,2.05429,17.16456,-3.65712,0.1598,2.1093,10.2,-15.6,-25.5,20.696753,6.492474,108.47702,0.5657297329105127,0.059608,0.178086,0.802921
6.2846,21976.2055,-5.96653,2.58342,21.62509,-2.5148,-2.27755,3.2284,9.6,-13.7,-27.0,16.89979,5.59835,111.958633,0.5468108456706027,0.042079,0.148674,0.82287502
6.3217,21976.2256,4.37673,3.78056,22.60674,-0.40487,-4.08938,3.5039,6.8,-13.9,-27.4,14.848176,1.29485,116.282211,0.522131239110494,0.058681,0.115654,0.84294701
6.3318,21976.2456,13.61624,7.5276,22.87251,1.47415,-5.14129,2.47337,4.1,-15.8,-27.8,14.850409,-4.798627,120.533798,0.49606895794486067,0.100085,0.091531,0.85762501
6.349,21976.2656,8.89952,6.45736,19.90361,2.94939,-4.05945,0.64016,1.3,-17.2,-28.7,16.664371,-11.227442,123.457764,0.4788823559606669,0.153551,0.081171,0.86052603
6.3671,21976.2856,2.4661,5.88752,16.35529,4.03856,-2.81389,0.03541,-0.3,-18.9,-26.6,20.186403,-15.81974,124.995712,0.4717017047709704,0.200332,0.091402,0.85382098
6.3847,21976.3056,0.78293,4.767,13.58033,4.84246,-3.05274,0.42331,-0.9,-20.2,-24.5,24.774839,-19.73296,126.881355,0.46313672318053084,0.244201,0.114213,0.84429002
6.4038,21976.3256,0.16281,4.18519,9.38316,5.33482,-4.4504,0.92666,-2.7,-22.7,-23.0,29.828695,-24.970215,129.981506,0.4492860222642586,0.29555199,0.139411,0.831478
6.4259,21976.3456,2.11175,3.10777,6.77101,5.72577,-6.57927,1.28279,-6.1,-23.5,-19.4,34.677937,-33.244774,134.691254,0.43098103020007617,0.36198899,0.158361,0.81125897
6.4474,21976.3656,4.38631,2.77257,4.99446,6.35863,-8.34161,1.193,-9.4,-26.2,-16.2,38.431477,-43.792973,140.458145,0.4118794929890778,0.43469399,0.168262,0.78299701
6.4658,21976.3856,3.25143,2.04711,1.69754,6.97744,-9.03128,0.69697,-12.4,-28.8,-11.6,41.671741,-57.224907,147.715378,0.39172997863290976,0.516734,0.17551,0.74076301
6.4879,21976.4056,-0.5842,1.19474,-1.54191,6.95422,-8.84619,0.72202,-12.7,-28.1,-4.1,44.012897,-72.196777,156.558426,0.3683490086947157,0.59636301,0.18549,0.68866801
6.5128,21976.4256,-1.17319,-0.9625,-0.57702,6.48874,-8.28725,1.75499,-13.9,-28.9,2.8,44.309566,-87.680061,166.166794,0.3397526212046932,0.669595,0.19276799,0.63170499
6.5279,21976.4456,1.14686,-3.76619,-2.12133,6.87848,-7.90546,2.3964,-12.7,-26.7,10.6,41.276543,-103.664001,176.338425,0.2954478592296786,0.74233001,0.194197,0.569161
6.5527,21976.4656,2.6768,-4.12773,-9.46217,7.77645,-7.68799,1.3561,-12.4,-25.2,15.8,35.976257,-118.075462,-174.762634,0.24218309375383665,0.80748099,0.195977,0.50091398
6.5659,21976.4856,-2.01837,-1.88908,-11.52364,7.84731,-5.01606,0.42392,-11.8,-23.2,19.4,29.870058,-130.711304,-166.160294,0.18400488399659323,0.85886401,0.21249101,0.42818499
6.5943,21976.5056,0.40463,-3.04791,-9.9099,6.74042,-3.83343,1.44956,-10.2,-16.5,25.2,22.969374,-139.033966,-159.322617,0.12195862241473324,0.89060998,0.23329499,0.370828
6.6078,21976.5256,0.66321,-3.87873,-6.08864,5.52908,-4.35022,1.57112,-7.9,-12.9,27.3,14.931138,-146.025772,-155.336029,0.05953403340510243,0.91827601,0.23961,0.309535
6.6305,21976.5456,-1.33361,-5.97611,-6.18202,6.02815,-3.84503,1.71162,-6.8,-8.8,29.6,7.233658,-152.284882,-153.03363,0.003973084174755666,0.93873101,0.240615,0.24672399
6.6484,21976.5656,-1.85796,-6.03357,-5.79415,6.46064,-4.02157,1.74278,-3.9,-4.7,30.7,-1.241777,-157.533112,-151.438538,0.05835789791467621,-0.95099699,-0.239887,-0.18615399
6.6656,21976.5856,-2.2578,-8.22673,-6.40708,6.413,-4.55791,1.90038,-1.6,-0.4,32.1,-10.032296,-163.144348,-150.674301,0.12064048583290736,-0.956563,-0.23704,-0.119353
6.6868,21976.6056,-1.7981,-10.00089,-4.99685,6.46064,-3.83221,2.12151,0.9,4.1,33.4,-18.732912,-169.061737,-151.162231,0.18032783799774244,-0.9551,-0.22954699,-0.050735
6.707,21976.6255,1.82444,-10.68565,-3.5986,6.66406,-3.14071,1.91748,2.9,7.9,32.5,-27.44763,-174.279282,-152.748856,0.24170132938790329,-0.94572198,-0.217059,0.008706
6.7277,21976.6455,2.64807,-11.74631,-5.33684,6.98293,-2.72165,0.94499,6.1,12.1,29.8,-36.207737,-178.893707,-154.544525,0.30511581116009034,-0.92775601,-0.206475,0.059508
6.7486,21976.6655,2.50681,-12.52445,-7.09184,6.7618,-0.94709,0.26448,6.9,15.9,28.0,-44.891884,177.84935,-155.562881,0.3694263021901387,-0.90162802,-0.202576,0.097745
6.7657,21976.6855,4.25463,-12.55797,-7.85083,5.91209,2.24529,0.0238,6.8,18.5,26.2,-52.791779,177.416016,-156.031509,0.43058055483781377,-0.87391502,-0.19575199,0.112045
6.7894,21976.7055,7.18522,-11.63857,-6.00724,4.81314,4.4609,-0.29568,3.8,20.8,22.1,-59.295856,-178.549225,-155.445999,0.48565939231871125,-0.85046899,-0.178665,0.094426
6.8088,21976.7255,9.30655,-11.3321,-5.82527,4.4063,4.60812,-0.98779,2.6,23.9,22.4,-64.383316,-170.400558,-152.217484,0.532360256910562,-0.82933998,-0.15918601,0.058716
6.8257,21976.7455,11.26506,-11.5428,-8.25067,4.29696,4.93188,-1.91753,1.0,25.2,20.8,-68.470963,-157.730072,-144.204529,0.5743586500664194,-0.80530298,-0.145896,0.017709
6.8541,21976.7655,11.95461,-12.62022,-9.94103,3.62256,5.38209,-2.96333,-3.3,26.9,17.3,-71.181168,-139.248566,-130.334595,0.6140395926244983,-0.77692801,-0.13624901,-0.027829
6.873,21976.7855,12.63219,-13.31696,-9.49809,2.65129,6.43461,-3.82221,-6.4,27.2,14.2,-70.722481,-117.496208,-113.873955,0.6454623078613031,-0.74809098,-0.128727,-0.084662
6.8865,21976.8055,12.76867,-13.72877,-9.59386,2.02393,7.70276,-4.67864,-10.4,26.5,12.3,-67.222733,-98.922417,-102.048103,0.6675170462435547,-0.71833599,-0.118389,-0.15620001
6.9064,21976.8255,13.24273,-12.41432,-8.52601,1.67635,7.01126,-5.52347,-13.9,25.2,9.7,-61.690506,-85.092537,-96.187912,0.6804947588533066,-0.68435901,-0.106622,-0.239189
6.9242,21976.8455,13.39836,-12.06715,-8.39193,1.40818,4.39371,-6.2675,-17.3,22.6,3.5,-54.953438,-76.502098,-94.398758,0.6829747276779132,-0.64919901,-0.107351,-0.31711501
6.945,21976.8655,11.43745,-12.56515,-7.89392,0.67881,2.00217,-6.678,-20.0,20.4,3.4,-47.489452,-72.91095,-94.905701,0.6741067738301989,-0.61970103,-0.12918,-0.38060901
6.9666,21976.8855,10.92029,-12.09588,-3.24185,-0.60829,1.23309,-6.72931,-23.4,16.9,5.1,-40.037846,-72.763901,-97.140175,0.6527836515378428,-0.60023201,-0.162146,-0.43278599
6.988,21976.9055,9.70639,-11.18845,-0.84518,-1.56185,1.73644,-6.78002,-25.4,13.2,2.8,-32.972466,-73.640923,-100.896942,0.6199273469855956,-0.58775997,-0.19077,-0.483565
7.0085,21976.9255,8.83727,-9.63456,1.26897,-1.78543,1.88733,-6.74214,-26.9,9.3,3.0,-26.043621,-73.7612,-105.177193,0.5808726302831796,-0.57393402,-0.21207701,-0.536852
7.036,21976.9455,10.30975,-7.30733,2.2171,-1.65348,0.9692,-6.88509,-29.1,4.7,2.3,-19.197268,-73.558167,-109.365005,0.5380147564692425,-0.55891103,-0.232309,-0.58667803
7.053,21976.9655,8.88037,-7.18043,1.52994,-1.29124,0.48172,-7.083,-28.6,1.1,0.7,-12.284227,-73.930321,-113.403015,0.48991134798471314,-0.54665297,-0.25678101,-0.62866598
7.067,21976.9856,9.68484,-5.93301,0.0407,-1.28696,1.08404,-6.85882,-29.6,-4.0,0.7,-6.309944,-74.375587,-117.079453,0.4435288869519319,-0.537682,-0.27757701,-0.66115898
7.0869,21977.0056,8.15969,-4.54194,-0.77335,-1.48854,1.93314,-6.93823,-29.0,-10.9,0.3,-0.713317,-73.734322,-120.805885,0.3983733459720895,-0.52412897,-0.29198301,-0.69378197
7.1054,21977.0256,7.1493,-3.41424,0.39506,-1.75122,2.36869,-7.14776,-25.2,-15.4,-3.9,4.750474,-71.857101,-125.208214,0.3506850456696132,-0.50507897,-0.29956001,-0.72950602
7.133,21977.0456,7.72872,-2.2602,0.21309,-1.66325,1.8464,-7.39943,-24.0,-18.7,-2.9,10.120588,-69.371048,-130.269577,0.29887184793272065,-0.48380899,-0.30415899,-0.76425898
7.1507,21977.0657,6.15329,-3.56986,-0.47885,-1.66936,0.8568,-7.65416,-20.6,-22.7,-4.4,15.591939,-67.282425,-135.652527,0.24171630308107048,-0.465657,-0.31172901,-0.79218799
7.1661,21977.0857,4.0966,-2.63131,-0.53871,-2.05726,0.4579,-7.35973,-19.1,-25.1,-6.0,20.832794,-65.69973,-141.47049,0.180029800681219,-0.453513,-0.31940401,-0.81234002
7.1998,21977.1057,1.54431,-0.45491,-0.90504,-2.51236,0.88184,-6.80201,-17.4,-26.2,-9.4,25.139164,-63.790146,-147.717743,0.11992945568207924,-0.44400701,-0.320851,-0.82796699
7.2165,21977.1258,1.48924,1.47727,-0.56744,-3.13238,1.88855,-6.30904,-15.0,-27.9,-11.6,28.698669,-60.531651,-154.723343,0.06119853944171663,-0.42962399,-0.31570199,-0.84380698
7.2387,21977.1458,1.2139,1.17319,-0.02873,-3.81961,2.20925,-5.86922,-10.4,-27.2,-13.4,32.641453,-54.024326,-163.42366,0.0032584803696548226,0.39523599,0.31057599,0.86447698
7.2614,21977.1658,1.26418,1.01278,1.68078,-4.58685,1.58373,-5.2333,-7.8,-26.8,-16.8,34.735584,-46.44334,-173.269302,0.06601477109435054,0.359561,0.295939,0.88248402
7.2883,21977.1858,1.00081,-0.40703,5.08783,-5.39442,0.76028,-4.73973,-4.3,-25.3,-18.3,34.69347,-39.329884,176.55838,0.12728622832875425,0.32949999,0.27099201,0.895428
7.2926,21977.2059,-4.91545,3.81169,19.74798,-5.05722,1.94414,-3.76234,-2.2,-23.1,-20.7,32.52253,-32.235432,166.441025,0.18607022421934966,0.296399,0.23567,0.90663397
7.3187,21977.2259,-1.24263,4.67362,19.27391,-2.77747,1.56479,-1.97678,-1.5,-21.4,-24.2,28.910809,-25.84878,158.690292,0.22937643666811047,0.257835,0.199063,0.91721398
7.331,21977.2459,0.92658,4.91305,16.96823,-0.34195,0.76517,-1.15944,0.6,-19.6,-24.8,26.879948,-21.688553,154.727264,0.2516451574284712,0.228494,0.182716,0.92254001
7.3494,21977.2659,1.76697,5.73668,16.19727,0.757,-0.60378,-1.1625,0.8,-20.6,-25.7,26.780956,-19.731337,152.488052,0.2664464793983581,0.21615399,0.18198299,0.92150199
7.3661,21977.286,-0.38548,4.54433,16.36487,1.42345,-2.20058,-1.33232,1.3,-21.7,-24.8,27.906567,-19.857006,150.747925,0.28161867008747754,0.221885,0.18757001,0.91448098
7.3887,21977.306,-2.62652,3.75422,16.40557,1.98911,-2.54389,-0.97741,0.8,-21.5,-22.3,30.082699,-22.156435,149.473969,0.29760221258498687,0.24606501,0.19684701,0.90118599
7.4078,21977.326,-2.07105,3.67521,15.54603,2.64274,-2.22991,-0.06783,-0.3,-22.7,-21.5,32.694962,-25.106047,149.333679,0.3066737378501445,0.273781,0.209806,0.88711703
7.4267,21977.3461,-2.35118,3.10537,14.37283,3.0905,-2.52923,0.68598,-0.4,-23.9,-20.9,35.455128,-28.732075,150.793198,0.3057555679002093,0.303069,0.22585499,0.87387198
7.4488,21977.3661,-4.00562,1.85317,10.8748,3.57308,-2.94889,1.57051,-3.4,-25.9,-18.4,38.059139,-33.873592,153.81958,0.29734052209323897,0.338884,0.241436,0.85933399
7.4682,21977.3861,-4.33603,1.16362,8.04476,4.0349,-3.19507,2.85699,-4.4,-26.2,-17.4,39.831871,-39.578152,158.180527,0.2806811414349376,0.37322101,0.25448799,0.84685302
7.4855,21977.4061,-2.22668,0.1245,3.87633,4.21388,-3.29037,4.07506,-6.9,-27.1,-15.8,40.25927,-45.436516,163.619797,0.2549360554594415,0.40413401,0.26255101,0.83830202
7.5074,21977.4262,1.45811,-0.11732,1.68796,4.08927,-3.21523,4.59185,-8.3,-27.5,-13.5,39.333969,-51.662651,170.106232,0.21919072670621792,0.434899,0.266415,0.83177
7.5319,21977.4462,3.70394,1.69994,0.81884,3.9335,-3.73386,4.31085,-11.3,-27.9,-11.8,37.409306,-57.637096,176.420517,0.18043269362257996,0.46513101,0.26657599,0.824642
7.5582,21977.4662,4.73588,1.98485,-0.19633,3.92983,-5.45711,3.69449,-14.1,-26.9,-6.9,35.224762,-64.921761,-177.389877,0.14405261796100266,0.50561798,0.266886,0.80769497
7.5732,21977.4863,3.85957,1.43896,-2.35836,4.14424,-6.93907,3.02498,-17.1,-26.8,-1.5,32.978565,-75.503166,-170.687027,0.11165669522693229,0.566903,0.271339,0.769759
7.5951,21977.5063,0.48843,1.48924,-4.52997,4.30246,-7.7057,2.63647,-17.9,-25.5,1.6,30.430573,-86.997543,-164.637711,0.08548322105875321,0.63280499,0.277446,0.71782601
7.6168,21977.5263,-2.90665,1.44854,-8.15011,4.63966,-7.08323,2.68778,-18.9,-24.3,9.8,27.190247,-98.470039,-159.331024,0.06129741882689283,0.69669598,0.283059,0.656304
7.6305,21977.5463,-1.755,-0.07422,-9.58189,5.05382,-4.92504,3.07324,-18.8,-20.5,14.8,22.84079,-108.127541,-154.348572,0.02865498106051958,0.74804199,0.28948399,0.59649903
7.6581,21977.5663,-0.35435,-0.96729,-9.8261,4.88828,-3.5677,4.04391,-18.4,-17.3,16.3,17.229469,-114.867493,-149.9655,0.01603879575777209,-0.783912,-0.29378,-0.54673398
7.6662,21977.5863,0.98644,-2.41103,-9.67287,4.04162,-3.84809,5.30107,-19.3,-13.5,22.6,10.198121,-121.762314,-147.23143,0.06224398092538272,-0.82261902,-0.28694499,-0.48691499
7.6951,21977.6063,0.44534,-4.49166,-10.55875,3.88585,-4.85602,5.55274,-18.3,-10.0,23.7,2.27178,-128.612732,-146.908371,0.10632912199195386,-0.86119401,-0.26481199,-0.42061099
7.7048,21977.6263,-0.68955,-5.24825,-11.81335,4.03429,-5.30439,5.62971,-16.9,-6.2,26.1,-5.810953,-136.132629,-147.957581,0.1481565244743532,-0.89566702,-0.237488,-0.345586
7.7244,21977.6463,-1.39347,-6.22033,-15.91235,3.75024,-4.55425,6.13856,-14.3,-1.0,28.1,-13.855,-144.025101,-150.602448,0.18875078069109957,-0.92273098,-0.203546,-0.26741299
7.7501,21977.6663,2.52357,-10.19243,-13.58751,2.47597,-3.80044,6.52524,-11.5,2.1,29.1,-21.123873,-151.464081,-155.466125,0.22506708853779542,-0.940579,-0.15828,-0.19900601
7.7693,21977.6863,5.59063,-10.22834,-11.32971,1.87488,-5.61471,6.07381,-9.1,4.2,29.0,-26.623762,-159.542969,-162.343048,0.250431156004519,-0.95259398,-0.106577,-0.135979
7.7872,21977.7063,3.3472,-8.04716,-16.54683,2.09723,-7.02398,4.52038,-5.9,6.7,29.9,-30.533985,-169.82399,-169.344635,0.26909490414164294,-0.958924,-0.06597,-0.060833
7.8509,21977.7263,2.53793,-6.94819,-18.33536,1.48637,-5.66114,3.69144,-1.5,8.4,31.0,-33.24345,179.553818,-175.285156,0.28565440210331,-0.95735002,-0.040527,0.015494
7.855,21977.7463,8.36799,-6.4382,-16.05601,0.49066,-4.44246,3.52772,1.3,8.8,31.8,-34.247478,170.574081,178.963852,0.29414078137558497,-0.95261902,-0.015579,0.075865
7.8578,21977.7663,10.08708,-4.60898,-14.96661,-0.07806,-4.20422,1.67864,5.5,8.8,29.1,-33.808083,163.161728,174.123688,0.2944427042777252,-0.94741899,0.005998,0.125159
7.8712,21977.7863,3.49804,-2.12133,-16.4343,-0.82026,-3.52189,-0.1674,7.7,6.6,29.8,-33.131649,157.662628,172.308853,0.29154141185773247,-0.941926,0.007964,0.16648
7.8844,21977.8063,0.02634,-2.15485,-15.91235,-1.58445,-1.90187,-0.48871,8.6,7.7,29.9,-32.221775,154.641342,172.90596,0.28326053151330405,-0.93927002,-0.002804,0.19372
7.9042,21977.8262,-1.74303,-3.48367,-15.14618,-2.35414,-1.14379,-0.13747,8.1,5.2,29.3,-30.598862,153.530441,173.964401,0.2681273718829526,-0.94081903,-0.010894,0.206999
7.9258,21977.8462,-3.12453,-3.79014,-13.89158,-2.87643,-0.6612,-0.03912,8.5,4.1,27.8,-28.066109,153.127762,175.051483,0.24536161578494664,-0.94515401,-0.015555,0.21503399
7.9486,21977.8662,-2.9713,-2.2147,-13.26428,-3.07435,-0.82247,-0.17229,9.2,2.5,29.4,-25.119165,153.238678,176.360504,0.21861864769534167,-0.95069301,-0.020144,0.21905001
7.9644,21977.8862,-1.96809,-0.27295,-12.54839,-3.3749,-1.56956,-0.2126,10.2,1.1,27.0,-21.979774,152.849808,177.866882,0.18957210051043877,-0.95490301,-0.026976,0.226925
7.9884,21977.9062,0.31365,0.30886,-13.88679,-3.49463,-2.32826,-0.37693,12.2,-0.5,30.7,-18.505554,152.093613,179.778427,0.15651094708192037,-0.95793802,-0.036919,0.237689
8.0069,21977.9262,-1.14925,-0.83081,-15.49814,-3.75974,-2.65201,-0.68541,12.6,-2.3,27.5,-15.045377,150.646042,-177.953522,0.12214322439627552,-0.95829803,-0.050292,0.25341001
8.0266,21977.9462,-0.17478,-1.79092,-12.86923,-4.81593,-1.82612,-0.63593,13.1,-3.8,25.5,-11.448695,148.87767,-175.231918,0.08491471200975137,-0.95659697,-0.066607,0.27069399
8.0518,21977.9662,3.04791,-1.80768,-9.42865,-5.12258,-1.94158,-1.27245,14.3,-6.6,24.7,-7.067064,148.320267,-171.751984,0.039560182458871336,-0.95650297,-0.085832,0.275989
8.0659,21977.9862,2.61934,-1.82204,-8.52122,-4.82937,-2.90125,-2.67683,15.7,-7.6,22.2,-3.315163,147.677643,-167.282471,0.003340059730014126,0.953282,0.114334,-0.279589
8.0867,21978.0062,-3.34241,-3.46452,-8.23391,-4.8593,-3.6746,-3.34756,18.4,-9.1,20.4,-0.913953,145.834442,-161.449326,0.039847082742898325,0.94297498,0.15637501,-0.29113099
8.1203,21978.0262,-7.36718,-2.50681,-6.82608,-4.92588,-3.64162,-1.87477,21.0,-9.6,18.1,1.00508,142.870255,-155.357056,0.07606709994760863,0.92668802,0.19955599,-0.30925801
8.1497,21978.0462,-6.09822,0.57223,-5.13093,-4.92161,-2.58421,-0.7575,21.1,-10.7,14.4,3.692333,139.800125,-150.469482,0.11679717277733989,0.91043401,0.228507,-0.32442701
8.1544,21978.0662,-4.07506,1.12531,-3.69437,-4.33701,-1.89393,-1.13257,22.9,-11.2,11.9,6.578692,137.463913,-146.118973,0.15667475796126187,0.896052,0.251176,-0.33083901
8.1676,21978.0862,-3.261,-0.09817,-3.5124,-3.6339,-1.83407,-2.00183,24.5,-10.9,10.2,8.429172,135.414993,-141.556152,0.18876129496143823,0.88049197,0.277473,-0.334831
8.1848,21978.1062,-4.33364,-0.80208,-2.39427,-2.92958,-2.2574,-2.82405,25.1,-10.9,8.6,8.813705,133.160294,-136.713608,0.21170202382471304,0.86166602,0.30905199,-0.34234601
8.2053,21978.1262,-7.61858,-1.14446,-2.65764,-2.16599,-2.77724,-3.10505,26.4,-9.9,3.3,7.817209,130.134933,-131.950043,0.22768812078942535,0.83801901,0.342087,-0.358969
8.2273,21978.1462,-11.24112,0.56026,-3.9745,-1.37126,-2.54145,-2.51434,28.0,-8.6,4.1,5.977901,126.647087,-127.812019,0.23904701923822363,0.81168401,0.37146699,-0.38214901
8.2487,21978.1662,-13.62821,1.15165,-5.88513,-1.05544,-1.90798,-1.37569,29.5,-7.1,2.5,4.437105,123.557106,-124.943787,0.24864439446739992,0.789244,0.39070299,-0.403263
8.269,21978.1862,-11.81814,-0.82124,-6.16286,-1.41952,-1.54879,-0.29385,29.8,-8.0,1.5,3.980823,121.297615,-122.998611,0.2603567266281005,0.77366102,0.40070301,-0.416053
8.2872,21978.2062,-11.72476,0.32562,-7.12057,-2.10124,-1.63309,0.43614,29.3,-8.5,-0.5,4.676115,119.319908,-121.170929,0.27854880436637847,0.76128203,0.40555701,-0.422355
8.32,21978.2262,-11.91391,0.25619,-8.35602,-2.8019,-0.75222,1.02929,32.2,-9.2,-1.4,6.344904,117.487656,-119.020515,0.303629179050531,0.75008702,0.40833101,-0.422427
8.3364,21978.2461,-12.83571,-0.80687,-6.71355,-3.66872,-0.50421,1.76049,32.2,-10.5,-2.1,8.781754,116.617897,-116.410942,0.3313455412191927,0.74227899,0.41281301,-0.41087401
8.3584,21978.2661,-12.20362,0.37111,-5.19558,-4.50927,-0.33683,3.20458,26.6,-11.2,-2.7,12.490511,115.647369,-113.343643,0.3677871608308803,0.734842,0.41388401,-0.39171401
8.3664,21978.2861,-9.97934,0.70152,-5.18121,-4.9045,-0.22077,3.71954,30.4,-12.5,-3.8,17.562897,114.53183,-110.065315,0.4115093561606582,0.72856802,0.40879199,-0.36433199
8.3861,21978.3061,-9.29218,0.26098,-2.86834,-5.46589,0.1036,4.25404,30.3,-14.2,-4.4,23.081057,113.235245,-106.216438,0.457231564200395,0.720402,0.40309301,-0.330872
8.4104,21978.3261,-8.64573,-0.94574,1.69275,-6.0401,0.64177,4.67737,24.9,-14.0,-6.7,29.100414,111.609894,-101.628029,0.504777795097624,0.70975697,0.39641199,-0.29034799
8.426,21978.3461,-7.25944,2.18837,3.94576,-5.43046,0.67781,4.73663,27.7,-16.2,-9.1,35.171349,109.352531,-96.055824,0.5518808706813453,0.69507599,0.390268,-0.24492399
8.448,21978.3661,-9.39035,4.23308,2.593,-4.58502,1.44445,4.75312,25.0,-17.5,-10.2,40.756569,106.526588,-90.441353,0.5930305545051784,0.67995602,0.38130999,-0.20143799
8.4676,21978.3861,-11.73674,3.67282,-0.0407,-4.38405,2.68206,5.60955,23.5,-18.4,-11.4,46.194546,104.349586,-85.001617,0.625236777994401,0.668239,0.37314099,-0.152648
8.4885,21978.4061,-10.31932,1.82444,0.52913,-5.3431,3.47619,6.64436,21.0,-19.0,-14.1,52.516674,102.670105,-78.872665,0.652167707818993,0.65828502,0.36523601,-0.089111
8.5102,21978.4261,-9.47415,1.6329,1.30249,-6.17877,4.31307,7.63579,18.1,-20.2,-15.1,59.698257,98.715317,-69.482956,0.6794405615685597,0.64144099,0.35606101,-0.011599
8.5292,21978.4461,-7.00804,0.47646,1.77895,-6.94052,5.25564,8.41465,16.2,-20.9,-18.1,67.178703,89.808792,-54.102142,0.7030851251487682,0.61641997,0.34551299,0.079489
8.5564,21978.4661,-4.47729,-1.49403,3.90506,-7.72181,5.81702,8.39693,14.2,-19.8,-17.5,72.96653,69.068558,-25.730923,0.7207741576467486,0.579009,0.335298,0.18113101
8.5679,21978.4861,-2.30808,-3.10298,7.52281,-8.18057,5.35337,7.24973,11.8,-17.8,-23.2,72.480576,36.992596,14.601343,0.7348469901788803,0.52357602,0.325041,0.283225
8.5895,21978.5061,-3.43339,-0.16042,16.91795,-6.90692,4.92882,5.82641,10.9,-16.0,-21.7,65.212631,17.494549,41.711563,0.7488664061986222,0.45209199,0.309329,0.372998
8.6079,21978.5261,-2.37033,1.43417,12.795,-4.06151,4.19884,5.3817,10.7,-15.6,-26.3,57.555943,10.266927,56.085827,0.7502335809498132,0.38632199,0.29464,0.44843301
8.6274,21978.5461,0.11732,2.00161,10.97296,-2.78358,3.27888,4.55459,11.1,-14.1,-24.6,52.291767,6.780285,65.775116,0.7383420424041555,0.34056601,0.28343299,0.50845999
8.6759,21978.5661,0.81405,3.19875,9.83329,-1.81475,2.03271,3.43426,10.2,-14.7,-25.3,48.087391,4.804455,72.568169,0.725398367194716,0.30548799,0.271759,0.553734
8.685,21978.5861,5.20755,3.4717,8.33447,-1.24725,1.24836,2.0085,12.0,-14.6,-25.0,45.005432,3.32734,77.175903,0.7149027181862017,0.28230399,0.25957799,0.58466899
8.6949,21978.6061,1.52276,4.25463,7.91547,-1.43418,0.22516,0.37322,10.6,-15.0,-25.6,42.398125,2.50901,79.434776,0.7119221564635697,0.26504201,0.24671499,0.60170698
8.7089,21978.6261,-2.344,4.33843,6.11019,-1.74022,-0.33012,0.00914,9.3,-14.2,-28.0,39.754051,2.023951,79.645203,0.7183165100968506,0.25045499,0.23046499,0.60677803
8.7275,21978.6461,-4.11815,3.18439,7.5683,-2.155,-0.28919,0.19607,9.6,-13.1,-26.8,36.913143,1.5663,79.314926,0.727444226882171,0.235434,0.212007,0.60864502
8.7494,21978.666,-3.88112,3.40226,5.97611,-2.0426,-0.39181,0.7379,9.4,-12.2,-25.5,33.959885,1.337336,79.262032,0.734370001978403,0.217783,0.194857,0.61261898
8.7675,21978.686,0.85236,2.52117,2.8875,-2.2619,-0.37837,1.08732,8.2,-11.7,-27.3,31.273928,0.797403,79.879906,0.7371184989960428,0.202355,0.178175,0.61964703
8.7859,21978.706,-0.48604,2.96172,2.11893,-3.58137,0.00403,1.07632,8.3,-10.4,-29.0,28.347694,0.285668,80.77636,0.738086680028843,0.18494,0.160504,0.62870002
8.8055,21978.726,-2.66962,-0.36632,2.70074,-4.73224,0.11765,1.48927,8.2,-8.9,-29.6,24.051844,0.085793,81.804001,0.739140368139976,0.157001,0.136977,0.64051503
8.8281,21978.746,-1.09658,-3.75183,4.55152,-5.39625,-0.3686,1.64748,7.4,-7.3,-30.4,18.427471,-0.451647,83.499771,0.736847450126021,0.122047,0.103716,0.65681303
8.8585,21978.766,1.80528,-4.54673,5.84921,-5.71757,-0.89639,1.49843,7.4,-4.4,-30.7,12.104987,-1.570546,85.288689,0.7323829254849268,0.086784,0.061398,0.67254299
8.8756,21978.786,3.3448,-5.86597,8.69122,-5.73161,-0.80964,1.15696,7.3,-0.7,-30.4,5.311931,-2.768116,86.718628,0.7268379278917688,0.050247,0.014263,0.68482
8.8913,21978.806,4.8508,-8.14772,11.22197,-5.37243,-1.23664,0.53876,6.6,3.3,-30.5,-2.150705,-3.918016,87.597466,0.7207825344861513,0.010118,-0.037651,0.69206399
8.9094,21978.826,3.21072,-6.75664,11.708,-4.49461,-1.8249,-0.38975,5.6,6.1,-31.5,-8.926172,-5.865502,87.424332,0.7169334528692325,-0.020925,-0.090574,0.690916
8.9344,21978.846,1.53473,-6.65848,11.35126,-3.38223,-1.81085,-0.70435,8.4,7.6,-28.8,-14.286482,-8.468966,86.261932,0.7158743857348989,-0.040413,-0.13825101,0.68321103
8.9548,21978.866,-0.32083,-6.49806,8.05434,-2.65346,-1.90615,-0.49605,7.7,9.3,-29.1,-18.19648,-10.997497,84.9161,0.7149085233990843,-0.052253,-0.17606001,0.67466903
8.9691,21978.886,1.2546,-7.61379,5.7726,-2.53129,-1.8976,0.1252,2.2,11.7,-31.3,-21.48617,-13.434284,83.991882,0.7105657240720241,-0.060695,-0.20927,0.669043
8.9885,21978.906,3.38072,-7.98491,7.34563,-2.87093,-0.69053,0.63406,6.3,13.4,-26.3,-24.936911,-15.276644,83.678017,0.7018533521230483,-0.072853,-0.23943,0.66690898
9.0072,21978.926,4.2666,-9.91948,12.23235,-2.92774,0.04068,1.26508,3.0,17.4,-28.1,-28.951355,-15.800518,83.7202,0.6913604858949055,-0.095594,-0.26434401,0.66558599
9.0373,21978.946,5.94977,-11.75828,14.94746,-2.05543,0.24776,0.99691,6.1,15.8,-25.4,-32.563877,-15.249345,84.33844,0.6801766697659364,-0.120458,-0.280947,0.66627198
9.0605,21978.966,5.62415,-11.78701,15.86925,-0.77933,-0.24887,0.03663,6.2,17.0,-24.6,-34.794128,-14.979403,84.696251,0.6729865987977174,-0.135299,-0.29162201,0.66613799
9.0839,21978.986,5.41585,-12.46938,17.20765,0.28174,-0.26292,-0.62005,6.7,17.1,-25.1,-35.277828,-15.526488,84.315117,0.6725026402535978,-0.136169,-0.29694,0.66409701
9.0889,21979.006,5.45176,-12.80937,19.60193,1.69345,0.03885,-0.96458,5.8,15.9,-25.8,-34.420166,-16.156836,83.59874,0.677325209780899,-0.12891001,-0.29532301,0.66136003
9.1076,21979.026,4.83644,-11.74152,15.06238,3.45152,0.06389,-1.19854,4.0,15.9,-27.5,-31.711464,-16.401798,83.107773,0.6866471013488077,-0.111346,-0.28206199,0.66072601
9.1266,21979.046,5.13572,-9.54119,10.372,3.9677,0.43408,-1.22236,4.2,13.8,-28.7,-27.257708,-16.296011,82.951439,0.6986708959193874,-0.083536,-0.25768399,0.66217798
9.1514,21979.0659,5.57627,-8.47334,12.51966,3.30003,0.32168,-1.19854,3.7,12.5,-28.1,-22.675577,-15.832112,82.789146,0.7106218779166594,-0.056783,-0.230056,0.66246998
9.1684,21979.0859,4.47251,-7.93223,17.09512,3.92189,0.0083,-1.6011,4.0,12.1,-28.6,-18.702877,-15.728567,82.309975,0.7213069947520958,-0.032344,-0.207581,0.65998501
9.1881,21979.1059,3.9314,-8.2387,11.62181,5.47532,-0.22321,-1.92852,1.9,10.0,-31.6,-13.375866,-15.965523,81.536949,0.7343504586299376,0.002721,-0.179775,0.65452498
9.2163,21979.1259,2.3009,-5.29853,6.61059,5.4686,0.49455,-2.03176,0.9,7.6,-31.7,-6.611933,-16.170393,80.76606,0.7476486393109127,0.047481,-0.14394701,0.64656502
9.2254,21979.1459,1.24742,-3.33044,7.85322,4.95792,1.44323,-1.31277,1.4,4.1,-31.9,-0.498635,-15.301673,79.955582,0.7590923990852496,0.082233,-0.104791,0.637209
9.2472,21979.1659,0.23224,-4.04872,7.75506,4.81864,1.64603,-0.35616,2.5,-0.7,-33.3,3.880309,-13.671352,79.819115,0.7637541408356223,0.102103,-0.069678,0.63356102
9.2698,21979.1859,-0.06225,-3.64648,7.67604,4.77771,1.12069,0.33901,2.8,-3.6,-31.9,7.805845,-12.013264,80.833092,0.7600330337921366,0.119225,-0.035598,0.63786203
9.303,21979.2059,-1.40065,-2.19316,6.5244,4.70441,0.07428,0.66338,2.5,-7.8,-31.4,11.455042,-11.251482,82.43457,0.7513022212510755,0.138979,-0.00793,0.64511001
9.3199,21979.2259,-0.98165,-0.40703,7.03438,4.67142,-0.91593,0.74035,2.3,-10.2,-31.2,14.920928,-11.625546,84.435028,0.7393901824463183,0.16314401,0.012427,0.65309399
9.3401,21979.2459,0.49801,-0.13647,7.8221,4.85529,-2.7302,0.28098,0.8,-13.2,-29.2,18.452316,-13.230182,86.607849,0.7261970768574187,0.19389001,0.026486,0.65904701
9.3598,21979.2659,0.81405,-0.11493,7.779,5.25235,-5.18772,-1.17349,-0.7,-15.8,-28.3,22.434412,-16.978977,88.354073,0.7157940351396063,0.23889901,0.030223,0.65547901
9.3754,21979.2859,-1.68318,0.57941,6.91227,5.82718,-7.60002,-2.88636,-3.7,-19.0,-23.9,27.393887,-22.951866,88.824173,0.7131047885530425,0.301034,0.024316,0.63266802
9.3896,21979.3059,-3.98886,1.11573,5.24586,6.44843,-9.03495,-4.21744,-5.9,-22.1,-22.1,33.741566,-30.541809,88.421219,0.7150127631811333,0.37642801,0.014558,0.58893698
9.4044,21979.3259,-5.27698,2.72229,2.06865,6.79723,-9.5499,-4.81792,-7.3,-26.2,-16.6,41.547077,-38.682747,87.714165,0.7175315105828732,0.45586699,0.008582,0.526555
9.4261,21979.3459,-5.2698,4.37434,-1.0463,6.52784,-9.4314,-4.78676,-7.2,-28.4,-11.9,50.452946,-47.356644,87.860367,0.7154033382407438,0.533153,0.009152,0.451511
9.4474,21979.3659,-4.78855,5.5619,-2.48047,6.11062,-8.77227,-4.2883,-6.5,-30.0,-7.2,59.244324,-60.870407,92.74295,0.6983856508894065,0.612791,0.004635,0.36976099
9.4679,21979.3859,-3.29931,5.53556,-2.5499,5.86322,-7.58047,-3.52655,-4.9,-31.2,-3.6,66.138245,-79.96006,104.230759,0.6710272975398837,0.68171698,-0.000644,0.29152
9.4947,21979.4059,-2.8013,5.21712,-3.96013,5.62071,-6.76619,-2.62308,-3.7,-31.5,2.9,70.106415,-105.371948,123.268021,0.6377009453818772,0.73830301,-0.002972,0.21963
9.5104,21979.4259,-3.31846,5.69837,-5.60021,5.39102,-5.87066,-1.94685,-2.3,-31.0,3.4,70.221588,-133.768814,146.034515,0.5997197773588259,0.78550798,-0.003799,0.15264
9.5248,21979.4459,-2.8875,4.31927,-4.99925,5.31344,-4.89022,-1.79841,1.1,-30.4,8.5,67.022476,-157.900085,165.001617,0.5580897549442555,0.82512897,-0.001887,0.087718
9.5487,21979.4659,-3.82126,3.52916,-4.767,5.45821,-5.3105,-2.24434,6.2,-31.4,12.8,61.578621,-174.319077,177.194916,0.5121439032467138,0.85836297,0.004358,0.030044
9.5719,21979.4858,-4.19477,1.66402,-6.99368,5.21387,-6.15716,-2.96028,10.2,-28.4,15.8,55.026211,172.713913,-174.913086,0.4630658756989764,0.88554299,0.009955,-0.03584
9.5849,21979.5058,-5.41585,1.24502,-7.64253,4.93531,-5.97146,-3.7544,9.2,-25.2,15.2,47.838947,161.561966,-169.698532,0.4117484110340681,0.90449601,0.016311,-0.109928
9.6079,21979.5258,-5.71992,1.31685,-6.68721,4.82047,-6.2158,-4.24554,17.1,-23.6,18.8,40.15929,152.25441,-166.157898,0.35802140458670856,0.91509402,0.028157,-0.183387
9.6294,21979.5458,-5.67683,-0.30168,-7.0272,4.35621,-6.57071,-5.25835,17.1,-19.5,16.4,32.188778,143.695282,-163.69577,0.3032103702263824,0.91600901,0.043969,-0.258955
9.6467,21979.5658,-8.31053,-2.43737,-7.94899,3.94449,-5.84806,-6.28888,24.7,-17.1,17.9,23.764412,135.553864,-162.00679,0.24613763809779163,0.90691602,0.064742,-0.33575001
9.6686,21979.5858,-12.03602,-0.40224,-11.01845,3.31591,-4.47178,-6.11234,28.5,-12.5,16.2,14.864624,129.055603,-160.17807,0.18844558988440105,0.891424,0.099279,-0.39999399
9.6862,21979.6058,-14.27946,-0.419,-13.28104,1.57433,-3.30808,-4.78676,30.5,-9.9,12.5,7.174476,124.432945,-158.743286,0.14021678158936438,0.87321198,0.13418999,-0.447027
9.7107,21979.6258,-13.74553,0.94813,-13.37681,-0.44274,-2.00633,-3.06107,30.8,-6.4,13.8,2.204016,121.380486,-156.776917,0.11494975798208334,0.85587698,0.166254,-0.47604701
9.7272,21979.6458,-11.6697,1.89627,-12.18446,-2.02427,-1.25191,-1.75443,30.1,-4.8,10.8,0.054016,119.233765,-154.130997,0.11361677166043664,0.84082699,0.192863,-0.492854
9.7487,21979.6658,-8.4063,0.04549,-9.68005,-3.0432,-0.67953,-1.26635,29.8,-4.4,9.5,-0.278108,118.057144,-150.642349,0.1283909035974879,0.82911998,0.21847899,-0.49834001
9.8021,21979.6858,-7.6952,-0.02155,-7.58746,-3.55327,-1.01673,-1.37386,29.6,-4.1,8.9,0.135476,117.279243,-146.340225,0.15165056858917414,0.817514,0.24664401,-0.49783501
9.8039,21979.7058,-11.63139,2.07584,-6.76383,-3.48607,-1.35148,-1.17349,28.0,-2.5,5.9,0.629811,116.58741,-141.657501,0.17700996834506,0.80450797,0.27664801,-0.494874
9.8047,21979.7258,-13.93947,2.74384,-6.88833,-3.23134,-0.77666,-0.16496,28.4,-2.9,7.7,1.462287,115.706001,-136.998291,0.20505982243584361,0.79019099,0.30397999,-0.491065
9.8234,21979.7458,-12.87162,2.31048,-9.34007,-3.13361,-0.15113,1.09526,28.3,-4.4,5.4,3.270236,115.213188,-133.304718,0.23435434215861986,0.78099102,0.320467,-0.48211199
9.8465,21979.7658,-12.22996,1.087,-9.02402,-3.70843,0.1207,1.80142,27.1,-6.1,5.1,6.217073,114.945396,-129.979645,0.2684304078233685,0.77528,0.32951099,-0.467235
9.8652,21979.7858,-10.70001,-0.05746,-7.89871,-4.46346,-0.02102,2.17832,27.3,-8.0,4.0,10.082393,114.617226,-126.359283,0.3087528764790373,0.76956701,0.335897,-0.44677901
9.8851,21979.8058,-10.11342,0.06943,-5.57387,-4.80066,-0.03262,2.26995,28.4,-8.3,6.2,14.412414,113.960777,-122.189934,0.35339239295550734,0.76126999,0.34224701,-0.42243201
9.9096,21979.8258,-10.50368,0.24661,-4.26899,-4.7017,-0.16701,2.15939,27.8,-9.5,4.3,18.391062,113.166191,-117.604378,0.3957053599505061,0.75038898,0.351524,-0.395935
9.9291,21979.8458,-10.55396,0.25619,-5.20755,-4.39504,-0.57202,2.22841,26.6,-11.0,3.3,21.953405,111.802528,-113.06411,0.4350403744795643,0.73700398,0.359254,-0.37215799
9.9528,21979.8657,-10.61382,0.73744,-5.29614,-4.47323,-0.47306,2.29439,26.9,-11.9,0.0,25.264854,109.886559,-108.631523,0.4723495728958152,0.72206903,0.363904,-0.350822
9.9766,21979.8857,-9.71836,1.44375,-5.03037,-4.61251,-0.32217,2.64502,26.4,-12.4,-0.8,28.499901,107.872993,-103.869904,0.5084485239669988,0.706195,0.36897999,-0.32653099
9.9866,21979.9057,-7.9897,1.04869,-4.18519,-4.764,-0.45107,2.72932,25.4,-14.3,-2.8,31.915379,105.623398,-98.88549,0.544268589691817,0.68998802,0.371775,-0.29911801
10.0051,21979.9257,-7.86998,0.99602,-3.79253,-5.05966,-0.79743,2.54545,25.4,-15.8,-3.5,35.065765,102.643623,-93.529488,0.5795371851491836,0.67129397,0.37275001,-0.273054
10.0261,21979.9457,-8.9929,2.23146,-2.43498,-5.3431,-0.74611,2.6719,23.2,-16.3,-8.9,37.782436,98.713432,-87.346428,0.6153844902416532,0.64828098,0.37362701,-0.24786399
10.0465,21979.9657,-9.50288,2.43019,-0.01915,-5.31562,-0.04728,3.26933,21.7,-17.2,-9.4,40.41386,94.324959,-80.589256,0.6504814511349265,0.62417001,0.372989,-0.219465
10.0706,21979.9857,-7.67126,3.00003,2.18118,-4.73224,0.79632,3.67678,19.4,-18.1,-11.4,43.266205,90.208847,-73.514084,0.6819388978222315,0.602534,0.37186,-0.183391
10.0918,21980.0057,-7.04396,4.22589,1.98007,-3.95155,1.45483,3.50207,19.5,-19.5,-11.4,46.025364,86.707077,-66.836182,0.7064249677573691,0.585262,0.370846,-0.144587
10.1157,21980.0257,-7.45817,4.66405,1.49403,-3.44759,1.8354,3.18869,19.2,-18.9,-11.2,48.387939,83.905403,-60.641083,0.723894931056669,0.57094502,0.37251699,-0.105967
10.1312,21980.0457,-7.82449,4.62813,1.11573,-3.25761,2.15122,3.02987,17.5,-19.3,-13.7,50.30743,81.477898,-54.638714,0.736651631075368,0.557248,0.377031,-0.068313
10.1535,21980.0657,-7.97533,4.2666,0.00479,-3.37612,2.40595,3.32858,21.5,-20.4,-12.3,52.067471,79.095795,-48.598164,0.7464709644001564,0.54387802,0.38216901,-0.030408
10.1657,21980.0857,-7.64013,2.67201,-0.52913,-4.06701,2.73582,4.00176,21.1,-21.7,-11.5,53.971603,76.23452,-41.467197,0.7548439402927996,0.52861798,0.38805199,0.013759
10.1867,21980.1057,-4.68799,1.89148,1.52755,-5.18794,2.88426,4.60712,19.1,-21.0,-15.7,55.990604,71.695641,-31.621315,0.7635464552926692,0.50698,0.393877,0.069491
10.2093,21980.1257,-3.93379,1.61853,4.86038,-5.75055,2.37663,4.42997,14.9,-20.2,-17.0,57.274658,64.359833,-19.066099,0.7748570582281353,0.47745201,0.393794,0.128695
10.2272,21980.1457,-4.27378,1.69994,4.84122,-5.63082,2.04187,3.81911,18.3,-20.5,-15.5,56.902355,55.284321,-5.255323,0.7881847459772865,0.44029099,0.38813701,0.18509001
10.2567,21980.1657,-4.59461,1.69036,5.77739,-5.74078,2.28378,2.98161,14.8,-18.8,-16.9,54.657341,47.409111,7.491112,0.799639988289405,0.39613199,0.38384801,0.23731001
10.2783,21980.1857,-8.18124,2.5092,6.52919,-5.44268,1.89343,3.29804,17.9,-18.2,-17.4,51.056625,41.45821,18.151999,0.8093276316081391,0.34762999,0.378977,0.28375801
10.2917,21980.2057,-9.82371,2.03034,6.00005,-5.08654,2.34364,4.88568,17.4,-18.2,-19.2,47.657402,36.382179,28.249105,0.8119866228534678,0.30251899,0.37060401,0.33438399
10.3226,21980.2257,-5.19318,-1.71909,4.85798,-5.32539,2.5324,6.53074,16.5,-16.8,-19.3,45.112156,31.528095,39.675613,0.8006622946690318,0.26210999,0.36128399,0.39963999
10.3298,21980.2457,-1.86993,-2.35836,5.90668,-5.86173,2.41389,6.22714,14.8,-15.8,-20.5,41.899712,26.663116,51.960052,0.7807808573147011,0.21842501,0.34598899,0.47218999
10.3463,21980.2657,-0.82842,-2.55948,8.60263,-6.01139,1.76149,5.18622,14.1,-14.7,-23.9,37.104465,22.823195,62.972458,0.759588862258393,0.167991,0.32284999,0.539047
10.3663,21980.2857,-1.58022,-2.05908,9.69921,-5.59112,1.11092,3.91807,13.2,-12.9,-25.5,31.294861,19.996716,71.788879,0.7407732925914372,0.117159,0.29116899,0.59392703
10.3873,21980.3058,0.3328,-3.21312,9.41429,-5.00896,-0.23299,2.88265,13.5,-9.5,-25.0,25.34082,17.907751,78.251709,0.7261048078598155,0.072263,0.25452301,0.63463998
10.4056,21980.3258,2.74623,-2.72229,11.28182,-4.32907,-1.03811,1.45078,10.5,-6.9,-27.1,19.541107,15.433816,82.618736,0.718514063585745,0.038964,0.210412,0.66177499
10.4258,21980.3458,1.21629,-0.71349,11.23154,-3.44148,-1.4089,0.47034,10.3,-4.9,-29.7,14.185821,13.038704,84.84433,0.7183507275097305,0.014556,0.165931,0.67544597
10.4523,21980.3658,-2.48047,0.14126,8.63136,-3.10489,-1.53841,0.62123,8.9,-3.6,-30.3,9.760286,10.671466,85.957642,0.7204017974574882,-0.001196,0.125531,0.68210101
10.4737,21980.3859,-5.38712,0.03831,6.17244,-3.18003,-1.1053,1.59983,7.6,-1.2,-29.7,5.844099,8.685542,87.276588,0.718030757749861,-0.015402,0.089809,0.69002098
10.488,21980.4059,2.01359,-4.22829,5.3105,-3.93628,-0.81453,2.94923,6.5,0.4,-32.2,2.036457,7.492884,89.818283,0.7057823288971746,-0.033564,0.058788,0.70518702
10.5125,21980.4259,5.48768,-6.23469,12.19165,-4.72857,-0.62272,2.01828,7.7,2.7,-29.4,-2.844575,6.667764,93.572945,0.6844018349335713,-0.059337,0.021748,0.72636098
10.5311,21980.4459,4.60419,-5.65049,12.84289,-3.87581,-1.2849,0.59618,7.2,4.8,-29.2,-8.349194,5.562469,95.996658,0.6692157553163703,-0.084617,-0.02165,0.73791701
10.552,21980.466,3.39269,-5.9402,11.55716,-2.72371,-1.81207,-0.46611,5.1,6.1,-29.9,-12.779766,3.462065,96.696342,0.6626842947787129,-0.096363,-0.063169,0.73998201
10.5721,21980.486,-1.44135,-3.86436,6.87636,-2.18371,-2.39423,-0.70252,3.6,8.5,-28.9,-16.033278,0.492896,96.312035,0.6610261553506178,-0.096207,-0.101051,0.73727697
10.5859,21980.506,0.22267,-4.44377,5.15966,-2.22342,-1.55429,0.40437,3.7,10.4,-28.3,-18.739649,-2.608305,95.675491,0.6593586676371213,-0.092607,-0.135722,0.73365498
10.6053,21980.5261,1.40544,-7.92266,7.21156,-3.13483,-0.52315,1.59434,2.8,11.0,-29.8,-21.890369,-3.694112,96.487206,0.6489456122486998,-0.102774,-0.162641,0.73610801
10.6276,21980.5461,1.43656,-9.11261,10.89874,-2.97478,-0.77849,1.8845,3.1,12.6,-29.3,-25.986485,-3.714583,98.575401,0.6297036719204041,-0.122637,-0.190934,0.74295199
10.6524,21980.5661,2.48765,-9.86441,9.94821,-2.14156,-1.55857,1.58639,3.4,13.9,-29.3,-29.583738,-4.013617,100.997414,0.607739520524294,-0.13617601,-0.21841501,0.75126803
10.6662,21980.5861,5.13093,-10.81973,8.50925,-1.64432,-1.0882,1.03051,3.2,14.3,-27.4,-32.236069,-5.057876,102.96933,0.5880787820592065,-0.139543,-0.243405,0.75858098
10.6895,21980.6062,5.93301,-11.95701,12.38798,-1.7671,-0.04301,-0.00491,2.9,15.2,-26.4,-34.592293,-5.868152,103.934792,0.5754918553074226,-0.14444099,-0.26398399,0.76043302
10.708,21980.6262,4.93939,-10.40073,11.38238,-0.63211,-0.481,-0.82591,3.4,16.3,-26.2,-36.517109,-6.630942,103.577385,0.5721999458877105,-0.15032101,-0.27973601,0.75613397
10.7305,21980.6462,3.83802,-9.12458,6.37595,0.05694,-0.57446,-1.70189,1.7,15.7,-27.8,-36.791176,-8.22766,102.247162,0.57641152893045,-0.144564,-0.28776899,0.75102597
10.7477,21980.6663,-0.08859,-7.83646,6.16526,-0.11227,-0.49505,-1.65425,1.0,15.9,-27.1,-36.707607,-10.707392,99.88018,0.5856977966105557,-0.133992,-0.296947,0.74217701
10.7665,21980.6863,-1.5874,-6.96255,6.59383,-0.28209,-0.36677,-0.58706,4.2,15.7,-24.4,-36.928493,-12.71848,98.055222,0.591627958451762,-0.127066,-0.30654299,0.73475301
10.7869,21980.7063,-0.78532,-6.90269,8.10462,-0.21856,0.30335,0.62489,3.5,15.7,-25.0,-37.543167,-13.180982,97.699776,0.5911049992672022,-0.128528,-0.312215,0.73252797
10.8076,21980.7263,2.40625,-8.23152,8.99529,-0.00109,0.56053,1.35976,1.4,15.7,-26.8,-38.201553,-11.839916,99.029915,0.5845631934739304,-0.13719501,-0.31083301,0.736781
10.8503,21980.7464,4.08703,-8.58587,12.49093,0.32939,0.62528,0.9908,1.4,15.3,-25.8,-38.576012,-9.970093,101.386848,0.5734418600981261,-0.144991,-0.30657801,0.74575597
10.857,21980.7664,5.57148,-9.77582,16.63782,1.54562,0.51593,0.01219,1.9,16.0,-26.2,-38.110672,-8.556267,102.857178,0.5686411739359537,-0.147863,-0.29850501,0.75211602
10.8721,21980.7864,3.72789,-11.39196,15.51251,3.4839,0.17202,-1.1118,2.9,15.3,-26.7,-35.770206,-8.070345,103.110718,0.5733186002172089,-0.138024,-0.281573,0.75694901
10.8905,21980.8065,1.27854,-10.93226,13.1326,5.1705,-0.42358,-1.50825,3.1,14.7,-26.4,-31.096861,-8.542239,102.066032,0.5886540501038958,-0.112316,-0.25295699,0.75952899
10.9056,21980.8265,1.41262,-10.80057,12.43586,6.33297,-0.4077,-1.07881,3.4,12.9,-26.9,-24.63555,-9.445504,100.880859,0.6065645677284814,-0.073391,-0.21514399,0.76184398
10.9275,21980.8465,2.57385,-10.55396,11.48055,7.26088,-0.33989,-0.482,4.4,8.4,-26.0,-17.028023,-9.753893,100.509872,0.6203594961147283,-0.029669,-0.167182,0.76571798
10.9517,21980.8665,2.42779,-7.8604,5.2267,7.45758,-0.31668,0.08122,2.1,2.8,-28.7,-8.609083,-9.995971,101.161461,0.6257401941698486,0.019633,-0.112928,0.77156401
10.9665,21980.8865,3.64409,-3.82845,5.71513,5.9915,0.06389,0.50577,2.3,-2.2,-30.9,-1.431717,-10.117034,102.560249,0.6221690407710752,0.061004,-0.064859,0.777803
10.9977,21980.9065,2.38949,-2.23865,8.36081,5.62437,0.63566,0.485,2.3,-6.1,-28.9,3.273377,-10.128151,104.3395,0.6126721835476129,0.087139,-0.031645,0.784881
11.0274,21980.9265,2.19794,-1.84599,7.31212,5.86322,0.35466,0.53693,2.0,-10.6,-29.3,7.990551,-9.830086,106.209839,0.6014647024281637,0.110029,0.004204,0.79127502
11.0315,21980.9465,2.43258,-0.6704,5.41824,5.42217,-0.37104,0.58274,1.4,-12.3,-28.2,12.771564,-10.241975,108.461533,0.5866320391091502,0.13672601,0.038033,0.79732198
11.0551,21980.9665,2.03513,1.14686,6.58426,5.03183,-0.44068,0.35184,0.0,-16.2,-28.8,16.988882,-11.51787,110.773285,0.5711676277599772,0.16516,0.064582,0.80144799
11.0665,21980.9865,-0.0407,1.88429,8.10941,5.09964,-0.46939,0.32007,0.0,-18.7,-25.5,21.07246,-12.762417,112.979126,0.556363142416228,0.19143499,0.091193,0.80342799
11.0858,21981.0065,-3.28255,0.42858,7.63055,5.56145,-1.49198,0.99935,-1.7,-21.6,-25.2,25.430723,-14.285991,115.600327,0.5389316271470991,0.21901999,0.120173,0.80445099
11.1077,21981.0265,-3.85718,-1.16601,4.61856,6.02327,-2.68134,1.88938,-3.6,-25.0,-21.0,29.948879,-17.315479,119.419762,0.5152847645426553,0.254408,0.14722501,0.80503601
11.1296,21981.0465,-3.89309,0.30407,2.2578,6.31465,-3.30381,2.45871,-6.3,-27.6,-19.4,34.291779,-21.985033,124.835571,0.48415072974180234,0.295495,0.172141,0.80538702
11.1515,21981.0665,-2.14527,1.41262,0.18436,6.17904,-4.86274,3.13921,-8.4,-30.0,-13.9,38.526318,-28.744568,131.810852,0.44808253447939667,0.344376,0.196077,0.80136198
11.1776,21981.0865,0.67519,2.68159,-3.49804,5.97867,-6.71732,3.39456,-11.5,-30.2,-7.2,42.176712,-40.914394,141.818466,0.4047561491266803,0.41842401,0.21191899,0.78497398
11.1952,21981.1064,1.00799,4.96333,-7.64971,5.55412,-6.78207,2.91869,-15.6,-31.2,-5.6,43.8647,-55.898197,152.980789,0.36164523593673886,0.49981499,0.219253,0.75586098
11.2169,21981.1264,2.18358,7.26423,-8.20518,4.51748,-5.41801,2.81423,-16.4,-30.8,-0.6,43.721794,-69.89225,163.199875,0.3221347777451531,0.57050002,0.224281,0.72142702
11.2274,21981.1464,5.11657,6.01442,-8.35841,3.46741,-4.92138,3.18869,-17.5,-29.1,3.3,41.96666,-81.453766,171.626068,0.2846825556203251,0.62737399,0.226174,0.68862402
11.2585,21981.1664,4.77658,4.95375,-7.77182,2.79973,-4.0906,3.44831,-18.6,-27.7,7.8,39.361858,-92.676926,178.881912,0.2499739619813222,0.683406,0.22585601,0.64765602
11.2731,21981.1864,5.20994,4.28575,-5.58824,2.52606,-3.28731,3.69938,-19.1,-26.0,11.3,35.552582,-101.14624,-176.075668,0.21498667725573115,0.728486,0.21896601,0.61248899
11.2952,21981.2064,5.69119,1.53473,-4.2642,2.62747,-3.88107,3.79712,-20.4,-24.8,12.0,31.052092,-107.750656,-172.710144,0.1796723157025586,0.76665401,0.206964,0.580625
11.3073,21981.2264,5.11417,-2.22189,-6.69679,2.91091,-5.37342,3.53933,-21.2,-23.1,15.4,26.112434,-114.577103,-170.374069,0.145245150813029,0.80651802,0.190423,0.54052901
11.332,21981.2464,4.87714,-1.20671,-6.50046,3.08012,-6.17854,2.87471,-20.2,-21.0,17.7,20.870579,-122.375229,-168.686813,0.11121509787164278,0.84890997,0.171802,0.487306
11.3503,21981.2664,4.95375,-0.79969,-8.01603,3.35989,-8.07589,2.29622,-18.1,-18.2,22.1,15.850835,-130.748962,-167.42569,0.07940616691920085,0.88866001,0.155709,0.423949
11.3644,21981.2864,2.50202,-2.39188,-10.08229,3.91822,-8.97814,1.35427,-16.3,-17.4,24.4,11.002352,-140.889297,-166.175919,0.04960209127465714,0.92729902,0.14473601,0.34162501
11.3842,21981.3064,0.56984,-2.09978,-12.65853,4.4399,-8.80587,0.86008,-4.1,-13.8,31.0,5.9804,-151.533325,-164.670731,0.017426428549183512,0.957623,0.14181501,0.25008601
11.4067,21981.3264,0.22506,-1.79571,-14.01848,4.63599,-8.43691,0.58213,0.6,-10.6,34.6,0.641055,-161.654984,-163.063919,0.018065113537409576,-0.97630298,-0.146254,-0.15848
11.4262,21981.3464,-0.49801,-2.26259,-16.65458,4.56208,-7.83337,0.06595,0.3,-6.9,33.1,-4.671824,-171.174927,-162.216537,0.05205017305215727,-0.98471898,-0.150883,-0.069668
11.4486,21981.3664,-2.08302,0.02394,-18.82379,4.03246,-6.2268,-0.22726,8.2,-4.7,34.0,-9.741743,-179.573013,-161.621216,0.08441903149337718,-0.98364401,-0.15880799,0.009895
11.4703,21981.3864,-1.48206,1.0056,-19.11349,2.73681,-4.86029,0.0183,7.3,-1.5,31.0,-13.889944,173.836288,-161.416168,0.1105503582327975,-0.97716999,-0.166463,0.072163
11.4969,21981.4064,0.17239,1.03433,-18.32817,1.28051,-3.82243,0.18324,13.9,-1.8,31.8,-16.559649,168.443558,-162.001053,0.12593338245596333,-0.97016001,-0.168328,0.120814
11.5098,21981.4264,0.61293,0.50998,-18.14621,-0.1874,-3.39849,-0.09837,15.7,-1.3,31.6,-17.540253,164.086685,-162.236465,0.128073342992911,-0.96379799,-0.171974,0.15847901
11.5393,21981.4464,0.05986,0.61293,-16.95386,-1.66814,-2.97699,-0.25903,16.6,-1.8,31.7,-16.983316,160.447388,-161.746872,0.11704720484556591,-0.95835799,-0.179355,0.188896
11.5501,21981.4664,-0.43336,-0.18675,-16.59472,-2.92591,-2.57932,-0.43801,18.3,-3.1,30.2,-14.95425,157.41951,-160.557144,0.09300826177549941,-0.954045,-0.189293,0.21287499
11.5727,21981.4864,-2.63131,-1.3791,-15.4718,-3.6339,-1.41623,-1.0275,18.8,-3.5,27.7,-11.905233,155.192841,-158.341568,0.05935354896448636,-0.94990802,-0.204386,0.228863
11.5868,21981.5063,-3.56029,-1.01278,-13.45104,-4.05662,-0.82858,-1.26451,17.8,-5.9,26.2,-8.597753,154.437454,-155.211685,0.024062252072485774,-0.94625401,-0.224925,0.23115601
11.6102,21981.5263,-3.84999,-1.44854,-11.86842,-4.47323,-1.04483,-0.51376,19.7,-7.3,26.3,-4.870691,153.766846,-151.971725,0.014779559453505849,0.94173402,0.244986,-0.230001
11.6248,21981.5463,-2.86834,1.24263,-9.18683,-4.76889,-0.86157,0.5693,19.6,-7.7,23.0,-0.352475,152.863678,-149.306335,0.05922276765821935,0.93723202,0.25796899,-0.227026
11.6516,21981.5663,-1.78613,1.36234,-7.92505,-4.98819,-2.1169,1.07266,17.6,-11.7,22.5,4.783914,152.29451,-147.432251,0.10597426262286347,0.93395501,0.26241201,-0.21826001
11.6687,21981.5863,-1.48684,-3.39987,-13.35048,-5.12258,-2.55916,0.61023,19.9,-13.5,17.1,10.087367,149.917068,-145.659027,0.1574420087577636,0.92585802,0.262198,-0.221926
11.688,21981.6063,-3.25143,-0.27295,-8.58587,-5.03706,0.30335,-0.86073,19.9,-14.6,16.6,14.524765,148.265686,-142.795151,0.20176530958690403,0.91535503,0.271626,-0.218255
11.7093,21981.6263,-5.51401,0.04549,-7.43422,-5.39686,-0.52437,-1.1173,20.0,-15.9,14.7,18.12141,148.102371,-138.533752,0.23767678411544407,0.90333802,0.29567099,-0.20017201
11.7361,21981.6463,-7.39113,1.26418,-6.18441,-5.07555,-1.01612,-0.81003,21.7,-16.5,12.9,21.716633,146.376617,-133.90979,0.2771350070912001,0.88642502,0.31787801,-0.190789
11.7581,21981.6663,-6.80453,2.72468,-7.42465,-5.02545,-1.33193,-0.4319,22.0,-17.6,10.0,25.021664,143.790237,-129.531799,0.31558919283552767,0.86807001,0.334694,-0.18664899
11.771,21981.6863,-5.79654,1.47966,-8.64094,-5.68519,-1.81757,-0.30484,22.3,-18.2,8.3,28.488222,140.452957,-125.099419,0.3566342438173316,0.847785,0.34659201,-0.184246
11.7858,21981.7063,-8.72234,0.64167,-9.14374,-6.21909,-1.31666,0.01953,23.1,-19.4,3.1,32.2682,136.111053,-119.780762,0.40306349520176077,0.82288301,0.35714599,-0.181246
11.8622,21981.7263,-11.00169,1.4198,-6.36159,-6.34737,0.53182,0.7208,21.3,-21.2,-0.4,36.193024,132.259659,-113.898537,0.44786824684619014,0.797131,0.36870399,-0.167492
11.8675,21981.7463,-12.82852,2.36794,-5.64331,-6.48664,1.00157,2.14961,22.0,-20.4,-0.6,40.510006,129.574799,-108.02491,0.4882699741780971,0.77344698,0.379426,-0.139313
11.8697,21981.7663,-13.41752,0.73504,-6.95058,-6.86416,1.49637,4.11477,20.2,-22.4,-5.0,46.023895,127.040039,-102.533882,0.5297425765892334,0.75173199,0.37951201,-0.101205
11.8704,21981.7863,-10.00567,-1.49403,-5.42543,-7.64484,2.7462,5.63887,17.6,-24.4,-6.4,53.151066,124.950882,-97.160561,0.5709381826930123,0.73152202,0.36966601,-0.047457
11.887,21981.8063,-6.68242,-1.1301,2.49723,-8.20562,4.12187,6.19415,16.7,-25.5,-7.2,61.512913,122.217934,-90.110435,0.610208725788037,0.70707601,0.35663101,0.022431
11.9059,21981.8263,-7.39113,-0.71589,5.23149,-7.73342,4.74007,6.23202,13.6,-25.7,-11.6,69.700562,115.809616,-78.158821,0.6436560805246071,0.67395902,0.34828299,0.100921
11.9252,21981.8463,-5.94977,0.668,5.55711,-6.69006,4.63622,6.21431,11.3,-25.2,-17.2,76.419189,99.553047,-56.07822,0.6698634221881197,0.63457203,0.34176499,0.17832001
11.9489,21981.8663,-6.64411,1.93457,5.46374,-5.90327,4.1909,5.86123,8.5,-25.4,-19.3,79.625244,65.154335,-16.267956,0.6895527840932408,0.59263402,0.33309501,0.249699
11.9651,21981.8863,-6.59862,1.86035,7.51802,-5.22826,4.19456,5.69996,7.9,-24.5,-21.3,77.316154,29.631218,24.417418,0.704069471039371,0.54802001,0.32287601,0.31577101
11.9852,21981.9063,-5.60021,2.5092,9.13895,-4.28509,4.30818,6.09702,8.2,-23.8,-20.5,72.161888,11.449674,48.039425,0.7106050756653232,0.50243199,0.31216601,0.380992
12.0075,21981.9262,-0.11493,2.51159,8.19081,-3.47202,4.27886,6.42689,10.0,-25.0,-21.2,66.641235,1.617224,64.048935,0.7042658258134352,0.459429,0.30126601,0.449637
12.0254,21981.9462,3.14847,3.18439,8.39912,-3.67239,3.72236,5.72623,7.8,-24.1,-22.5,60.903576,-4.426747,76.522301,0.6884987383597737,0.418268,0.287467,0.518058
12.0527,21981.9662,4.10139,4.12534,10.47256,-3.55144,2.62097,4.78183,3.8,-21.9,-24.8,54.591721,-7.668067,85.260559,0.6731189919587616,0.37688801,0.26617101,0.57794398
12.073,21981.9862,1.24742,3.51719,9.79737,-2.85139,1.51531,3.98099,7.6,-22.8,-24.1,48.737804,-9.95011,91.605087,0.6582853180072749,0.343196,0.23963299,0.62566203
12.0871,21982.0062,0.70152,2.85637,9.34246,-2.28633,0.93499,3.81605,3.2,-19.9,-26.1,43.847725,-11.746148,96.554398,0.6426718085606518,0.31803599,0.214039,0.66333503
12.1049,21982.0262,0.45012,2.48047,7.70238,-1.81902,2.47009,4.20701,5.8,-20.7,-25.1,39.607536,-13.3372,101.039085,0.6245317718800217,0.298287,0.190263,0.69626498
12.1295,21982.0462,-0.33759,1.11094,8.84445,-1.75794,4.71136,4.84841,6.1,-20.2,-25.9,35.732315,-12.659456,106.216049,0.594927383022096,0.26697099,0.180877,0.73625499
12.1589,21982.0662,-0.49083,0.53153,10.39834,-2.07803,5.50548,5.74272,6.6,-20.2,-27.3,31.851892,-9.96287,112.291733,0.5534621724782457,0.221626,0.18049701,0.78229302
12.1704,21982.0862,-1.06306,-0.86433,10.15172,-2.77747,4.53604,6.05121,7.3,-19.6,-26.3,27.583971,-7.09134,119.283722,0.5026147734114463,0.17208201,0.174961,0.82894802
12.1869,21982.1062,-2.15724,-1.55628,9.04078,-2.98822,3.35951,5.90277,6.9,-17.6,-28.4,22.858799,-5.006548,126.384468,0.4493586205592356,0.12749401,0.157387,0.87008703
12.2053,21982.1262,2.15485,-2.67919,12.45981,-2.60154,4.01558,5.16729,6.4,-17.5,-29.0,18.28668,-3.188575,133.059448,0.3971170136559246,0.088459,0.134762,0.90350002
12.2296,21982.1462,3.21312,-1.82204,17.20765,-1.61988,3.63623,3.30598,7.9,-16.8,-27.6,14.639754,-0.028602,138.700348,0.34981344334902265,0.045163,0.119136,0.92811501
12.2598,21982.1662,-1.24502,-1.27615,12.85486,-0.68281,1.55318,1.64382,7.0,-15.0,-28.6,12.458408,2.472691,142.231369,0.31945845431686415,0.014816,0.109584,0.94112599
12.283,21982.1862,-3.85718,0.08619,11.459,-0.10432,0.22822,0.94376,5.8,-14.7,-28.7,11.275578,3.276412,144.1241,0.30370163394627886,0.003177,0.102188,0.94726598
12.2902,21982.2062,-4.11576,1.57304,10.31932,0.19866,-0.37776,0.76661,6.1,-15.0,-30.1,10.751925,3.146733,145.294434,0.29437819756381384,0.001841,0.097546,0.95069599
12.3163,21982.2262,-1.41262,1.34798,8.79896,0.03923,-0.26414,0.92971,6.1,-14.9,-29.5,10.582978,2.765329,146.35437,0.2859678245125822,0.003684,0.095204,0.95349097
12.3377,21982.2462,1.59938,0.86912,10.60424,-0.41037,0.49394,1.16001,5.3,-15.1,-30.3,10.200109,2.705582,147.635788,0.2754979034059605,0.002184,0.091903,0.95689601
12.3608,21982.2662,2.47089,0.84518,12.7543,-0.41464,0.96125,1.07938,5.7,-14.9,-30.5,9.539036,3.264795,149.188812,0.2623411337491692,-0.005289,0.087669,0.96096998
12.3688,21982.2862,1.87951,1.34319,12.95782,-0.15136,0.54464,0.87901,5.5,-15.3,-30.4,9.025868,3.952775,150.615479,0.25006801784250543,-0.013312,0.084786,0.96441698
12.3888,21982.3062,2.64328,2.26259,13.65215,0.06916,-0.26353,0.48562,5.6,-14.8,-30.3,8.802731,3.93181,151.779922,0.2403731259466406,-0.014474,0.082722,0.96704102
12.4053,21982.3261,3.44536,1.35277,15.66813,0.6843,-0.89089,-0.32745,5.9,-14.9,-30.3,8.906761,3.029097,152.300064,0.23658413623250316,-0.007004,0.081672,0.96814698
12.4278,21982.3461,0.60336,0.69913,14.32016,1.54074,-1.81146,-1.24436,5.9,-14.6,-30.6,9.760975,1.478541,151.657074,0.24285389911384955,0.008363,0.085629,0.96623999
12.4487,21982.3661,-0.38069,0.64885,13.41991,2.07708,-2.85971,-1.48809,5.7,-14.3,-30.9,11.464815,-0.826395,150.011932,0.25811706133186846,0.032772,0.094623,0.96091002
12.4656,21982.3861,-0.18675,0.84278,11.30816,2.08013,-4.32517,-1.44716,5.4,-14.1,-31.1,13.613588,-4.179778,148.083679,0.2769730154212133,0.067379,0.103923,0.95286202
12.4866,21982.4061,0.42618,2.0088,8.43503,1.15833,-5.05882,-1.34148,4.9,-14.2,-31.2,15.574789,-8.913817,146.106644,0.29799384788552236,0.113025,0.10678,0.94181901
12.5073,21982.4261,1.02236,3.41902,9.02881,0.5212,-4.82669,-1.3085,2.6,-15.3,-31.0,16.551115,-13.842397,144.088867,0.31934673151817256,0.15749,0.099164,0.92918301
12.528,21982.4461,2.04471,3.33762,8.77262,0.32878,-5.32272,-1.60782,-0.7,-16.5,-30.7,17.210588,-18.478359,142.075104,0.33984361602593005,0.19812401,0.088086,0.91514701
12.556,21982.4661,3.33522,1.73824,8.00646,0.10459,-6.61225,-2.20647,-3.5,-17.5,-28.8,18.052504,-23.670935,139.760788,0.36271421049691377,0.24302,0.074504,0.89656502
12.5665,21982.4861,6.04794,1.44854,8.50686,-0.01636,-8.1382,-3.10016,-7.2,-18.0,-29.1,19.125959,-30.117956,136.796387,0.39070308377984314,0.29727,0.054837,0.86946797
12.5885,21982.5061,7.30972,1.99922,8.54038,0.17179,-9.43201,-4.2437,-10.4,-19.4,-26.5,20.98584,-37.897766,132.92424,0.4256151576075503,0.36151499,0.030402,0.828996
12.6072,21982.5261,6.27779,3.14847,6.88593,0.62322,-9.8981,-5.0922,-8.8,-22.7,-20.6,24.237921,-46.582256,128.805527,0.4628554898165732,0.431961,0.006884,0.77403301
12.6454,21982.5461,4.82207,4.77179,4.59222,0.97324,-9.23592,-5.41351,-10.5,-24.3,-17.8,28.908276,-55.235489,125.277328,0.4971088532385232,0.50032502,-0.009891,0.70884401
12.6658,21982.5661,6.14371,4.65926,3.06467,1.09664,-8.22982,-5.26324,-11.7,-26.2,-14.9,34.367794,-62.908844,122.433052,0.5275313244727549,0.55828297,-0.019153,0.64004999
12.6715,21982.5861,6.45975,5.19318,3.05988,1.08014,-7.64034,-5.03416,-14.6,-26.8,-15.2,39.869656,-69.951675,120.35527,0.5526401617479851,0.60645598,-0.025617,0.57108998
12.6891,21982.6061,5.82288,4.9753,3.03594,1.32082,-6.96778,-4.87656,-9.9,-30.3,-8.1,45.213272,-76.784042,119.225739,0.5719395467063626,0.64696598,-0.03011,0.50340199
12.7053,21982.6261,4.41504,4.8939,2.94017,1.6458,-6.33736,-4.62488,-13.0,-30.2,-9.7,50.384075,-83.694344,119.603424,0.584490812960956,0.68125403,-0.029603,0.439758
12.7274,21982.6461,3.17241,5.83964,3.46452,2.09296,-5.96596,-4.3109,-3.8,-32.8,-2.4,55.151981,-91.111443,121.373802,0.5920478636243695,0.710495,-0.027178,0.37939101
12.7501,21982.6661,1.73345,6.30413,1.82683,2.6409,-6.11501,-4.04884,-1.9,-33.4,0.0,59.425602,-100.063324,125.699989,0.5925975447169688,0.73757899,-0.020435,0.323091
12.7646,21982.6861,1.29291,7.38155,-2.1764,2.98055,-5.95252,-3.99447,0.3,-33.3,4.1,63.000858,-111.893044,132.931778,0.5875394799219024,0.76449102,-0.013821,0.26487699
12.797,21982.7061,1.5874,8.43503,-4.42941,3.10333,-4.52981,-4.10076,1.8,-33.1,5.2,65.623512,-126.886024,143.971542,0.5771522755966045,0.78984803,-0.002097,0.20743901
12.8151,21982.7261,-2.64089,7.81731,-5.3129,2.89808,-4.03379,-3.87046,3.5,-33.0,7.0,66.779366,-143.528061,157.97403,0.5629788926096608,0.811306,0.017554,0.156618
12.8326,21982.746,-3.11016,7.01762,-5.435,2.38678,-3.94399,-3.14292,5.6,-32.3,8.4,66.250862,-159.871216,171.708557,0.5472393338025325,0.82933402,0.035637,0.107071
12.8499,21982.766,-2.93538,6.40947,-4.0583,2.12717,-3.68438,-2.73975,7.9,-32.0,9.1,64.618813,-173.341232,-177.557327,0.5324252153625331,0.84289199,0.049018,0.060446
12.8647,21982.786,-2.96651,6.61778,-1.61135,2.66045,-4.06067,-2.67317,7.2,-29.9,9.2,62.225163,175.749023,-169.385269,0.5170914624552208,0.85366797,0.060056,0.016146
12.8862,21982.806,-3.36156,5.64331,-4.07745,2.97627,-5.45894,-3.33535,9.5,-29.0,11.4,58.767147,165.424622,-162.94136,0.4977037884601237,0.86398602,0.066639,-0.037126
12.9071,21982.826,-5.68401,3.56268,-4.48448,2.78018,-6.13639,-4.04578,13.3,-27.1,8.5,54.36108,154.557327,-157.262344,0.4754559209090571,0.87053698,0.072434,-0.104213
12.9288,21982.846,-7.10621,3.43339,-4.02956,2.88342,-6.13334,-4.31395,15.4,-25.7,8.9,49.188904,144.157089,-152.695633,0.4508508218686527,0.87094098,0.079751,-0.178424
12.9492,21982.866,-8.62897,3.22748,-4.93939,2.85654,-5.47849,-4.14169,18.7,-23.1,8.4,43.367882,135.393417,-149.890305,0.42171304600080806,0.86663198,0.087895,-0.251757
12.9732,21982.886,-7.03199,2.72947,-5.00882,2.42099,-4.88839,-3.97431,21.1,-20.0,7.9,37.613823,128.540359,-148.341049,0.39150324735490893,0.85859197,0.097963,-0.31614599
12.9946,21982.906,-4.5994,0.21548,-5.44937,2.00194,-4.03196,-4.57479,23.9,-18.4,7.4,32.143681,122.737503,-147.234451,0.3629954692699065,0.84658802,0.110619,-0.373211
13.0067,21982.926,-4.8939,-0.70631,-1.94655,2.14733,-2.58482,-5.80874,27.0,-13.9,4.8,25.927038,118.565857,-145.871277,0.3304402253070588,0.83453101,0.13630199,-0.41927201
13.0341,21982.946,-7.10621,-2.77975,-0.84518,2.87914,-2.55611,-6.43976,28.9,-10.1,4.6,18.378878,115.70681,-144.424637,0.2892141568059542,0.82182503,0.17442399,-0.458841
13.0549,21982.966,-12.8812,-5.22191,-1.0894,3.3886,-2.52373,-5.80874,30.6,-5.6,3.7,9.987931,112.885002,-143.943344,0.2394108171467172,0.80430198,0.211169,-0.50118703
13.0693,21982.986,-12.24911,-4.96094,-4.8101,3.36967,-1.08942,-4.36954,30.7,-2.8,0.3,2.277356,110.264824,-144.612549,0.18925432433310202,0.78496099,0.238493,-0.53957403
13.0897,21983.006,-5.90907,-2.78694,-6.08864,2.54439,0.84214,-3.54304,31.3,0.1,1.4,-3.845575,109.654663,-145.78537,0.14314457480875706,0.77512801,0.258791,-0.55831301
13.1082,21983.026,-1.98246,-4.94178,-6.49567,1.53463,2.02905,-3.58336,32.1,2.5,2.6,-8.805593,111.02552,-146.068573,0.10422176698866009,0.77337003,0.28138199,-0.55844498
13.1254,21983.046,-3.22269,-6.38793,-6.29694,1.07159,3.68449,-3.93583,31.3,5.0,4.8,-13.708174,114.343529,-145.055222,0.06595788247828849,0.77637601,0.312206,-0.54352301
13.1563,21983.066,-7.48211,-4.90108,-9.1605,1.07892,5.25197,-3.52288,30.1,7.5,5.9,-18.695116,119.862938,-143.246353,0.02250151399481408,0.78473097,0.34644499,-0.51348501
13.1737,21983.086,-6.23948,-5.08065,-11.48534,0.85657,6.1194,-2.69516,29.2,10.1,9.6,-22.704735,127.03849,-141.24556,0.02120760976439536,-0.79874003,-0.373965,0.47086599
13.1883,21983.106,-4.42462,-6.98889,-13.53962,0.29763,6.10657,-2.71715,26.3,11.1,12.2,-25.53348,134.99971,-138.908264,0.06019760081232248,-0.81404501,-0.39541301,0.42113599
13.2128,21983.126,-6.16526,-4.58025,-14.11664,-0.30408,6.08764,-3.3213,23.9,12.2,16.1,-27.764256,143.427216,-135.39476,0.09518209803728742,-0.824242,-0.41945699,0.36826801
13.2243,21983.1459,-4.33364,-5.73668,-14.94506,-1.10126,6.02899,-3.2486,26.2,13.2,22.0,-29.146999,152.361694,-130.656769,0.12554380544168547,-0.828933,-0.446908,0.31206101
13.2483,21983.1659,-2.62413,-7.41986,-15.56757,-2.63697,6.28678,-3.52044,22.6,12.9,23.1,-28.857393,161.528854,-125.417473,0.14730618397935494,-0.83116299,-0.47383401,0.25089899
13.2673,21983.1859,-2.78933,-8.3632,-15.53884,-3.83549,6.87443,-3.84298,12.4,13.8,25.1,-26.544052,171.499374,-119.443581,0.1613504618659615,-0.82963097,-0.50407499,0.177727
13.2884,21983.2059,-3.77338,-8.56911,-15.7663,-4.67726,7.00454,-3.79594,13.6,9.7,31.3,-22.148226,-178.438583,-113.70797,0.1681210784999906,-0.823044,-0.534352,0.093818
13.307,21983.2259,-3.85239,-7.2331,-16.15417,-5.08898,6.64352,-3.29747,3.6,8.6,30.7,-16.235809,-169.202118,-109.495071,0.16856970796960863,-0.81251597,-0.558011,0.005077
13.3303,21983.246,-2.5499,-6.26103,-16.53007,-5.20383,6.55128,-2.58887,3.9,3.3,31.5,-9.649468,-161.228409,-106.960892,0.16339704853356354,-0.79824799,-0.57402599,-0.081214
13.348,21983.266,0.77335,-3.78295,-15.0983,-5.19344,7.41688,-2.43738,-0.1,-0.4,31.9,-3.063823,-153.418106,-106.251411,0.1587182161047673,-0.781937,-0.57886302,-0.168228
13.3665,21983.286,3.7231,-2.75581,-13.02725,-5.37853,7.41382,-2.67989,-5.6,-3.9,32.8,3.532733,-144.866119,-106.544868,0.15685810576689876,-0.75818402,-0.57730699,-0.259363
13.3869,21983.306,5.74147,-2.87074,-10.63776,-5.54774,6.96545,-3.22783,-8.1,-8.5,28.6,10.352314,-136.292557,-107.741585,0.15095298990864592,-0.726789,-0.57212901,-0.34879699
13.4052,21983.3261,5.3105,-2.65525,-9.11261,-5.72978,6.24707,-3.87902,-12.4,-11.9,27.3,16.916279,-128.846863,-109.509132,0.13807562509537916,-0.69200301,-0.56672901,-0.42530599
13.4256,21983.3461,4.70236,-1.96809,-8.23391,-5.98512,5.13652,-4.29502,-14.6,-16.8,23.0,23.087271,-122.883293,-111.547005,0.11812998187724671,-0.65772402,-0.56313503,-0.48613101
13.4484,21983.3661,2.66722,-3.01918,-6.27061,-6.08836,4.73884,-4.13986,-15.1,-21.0,20.2,29.25341,-117.570618,-114.501404,0.08963688316658175,-0.62518299,-0.55772102,-0.538571
13.4691,21983.3862,0.47646,-1.90345,-3.94098,-5.87517,5.93125,-3.56076,-15.1,-24.4,14.6,34.589653,-111.506279,-118.467987,0.0637045480418759,-0.59259099,-0.54748201,-0.58740199
13.4864,21983.4062,0.48843,0.51716,-1.13489,-5.41763,7.18597,-2.90224,-18.0,-26.3,5.5,38.574276,-103.488235,-123.40377,0.04869369298584153,-0.55565298,-0.53143698,-0.637537
13.5081,21983.4262,3.05031,3.5148,2.00401,-4.74751,7.58975,-2.47464,-17.7,-28.8,-2.3,41.126255,-94.046165,-128.855591,0.04372642595867478,-0.514557,-0.51166999,-0.68666798
13.5274,21983.4462,3.5531,4.92023,1.506,-3.99981,6.97889,-2.31765,-16.6,-29.1,-4.2,43.668579,-80.592079,-137.011429,0.03562458417946812,-0.45465201,-0.483913,-0.746894
13.5482,21983.4663,6.34722,3.46212,0.63688,-3.72492,6.10352,-2.83444,-15.0,-29.7,-10.2,45.104572,-68.018394,-144.806366,0.026976166108610374,-0.39627001,-0.45921001,-0.79458702
13.5695,21983.4863,4.24505,1.71909,2.02556,-3.8978,5.54641,-3.70431,-12.0,-30.3,-12.6,46.166115,-55.601883,-153.326248,0.009860323882074704,-0.337488,-0.43643099,-0.83398598
13.5939,21983.5063,1.30009,2.69595,5.47571,-3.74019,5.18172,-3.92239,-8.8,-29.6,-16.4,46.548794,-42.81419,-163.020081,0.016461994643400604,0.27730501,0.41334501,0.86716598
13.6067,21983.5264,1.4198,2.81327,7.1493,-3.17942,4.5562,-3.55587,-5.7,-29.7,-19.2,45.876537,-30.76712,-172.23143,0.04302073873144752,0.21828599,0.391462,0.89289302
13.6299,21983.5464,1.73345,3.54113,7.52521,-2.67118,3.89646,-3.30603,-2.7,-28.5,-22.6,44.461048,-20.615765,-179.933121,0.06718447183181292,0.16542,0.372325,0.91076702
13.6476,21983.5664,1.08461,3.39748,6.62496,-2.4586,3.3534,-3.31519,0.1,-27.3,-23.5,42.29932,-12.533941,173.594162,0.09113061311864319,0.121688,0.35240099,0.92341799
13.6662,21983.5864,-0.27055,2.98805,8.39672,-2.55573,2.59654,-3.34756,3.3,-26.2,-22.6,39.613316,-5.862649,168.002731,0.11543068579818638,0.083215,0.331523,0.93265402
13.6872,21983.6065,-3.45494,2.76778,11.18366,-2.39751,1.49393,-3.19668,5.1,-25.3,-26.0,36.419334,-0.527223,162.893951,0.1427034556416201,0.050797,0.30836701,0.93913001
13.7086,21983.6265,-4.79094,2.90904,12.74473,-1.89844,0.07489,-2.48075,6.9,-23.2,-25.7,33.193375,3.112725,158.417953,0.17174334293968982,0.02789,0.28535199,0.94249701
13.7317,21983.6465,-3.56986,3.51958,14.5548,-1.39814,-1.37103,-1.5504,7.0,-21.5,-27.3,30.437645,4.496512,155.147675,0.1974205958523066,0.019476,0.264305,0.94381601
13.7494,21983.6666,0.03831,3.42621,18.28268,-0.70297,-2.65079,-0.98962,6.4,-21.2,-26.7,28.364487,3.659453,153.02742,0.21838293711679826,0.027007,0.245349,0.94413102
13.7669,21983.6866,0.73983,3.47649,19.14941,0.32572,-3.42903,-1.01772,5.3,-21.5,-27.7,27.281818,1.116843,151.454941,0.23734324838330545,0.04896,0.23088101,0.94231898
13.7861,21983.7066,0.49322,3.44297,16.54205,1.18888,-3.54693,-1.02444,3.9,-21.4,-25.6,27.956232,-2.281742,149.965042,0.2560369139917906,0.081238,0.228249,0.93581402
13.8075,21983.7266,0.26098,4.35279,13.94665,1.51997,-3.20912,-0.66281,1.9,-22.4,-26.8,29.520731,-5.723503,148.577362,0.2737749709779915,0.11538,0.231879,0.926265
13.8262,21983.7467,0.67279,5.08544,12.48375,1.50347,-2.74242,-0.05805,1.6,-23.1,-27.4,31.330181,-9.055606,147.858627,0.286193698290511,0.147553,0.237611,0.91644001
13.8477,21983.7667,1.38389,5.45655,11.07113,1.44483,-2.44676,0.24127,5.1,-25.8,-24.8,32.941822,-12.28955,147.894287,0.2928211353978057,0.176598,0.242523,0.90788299
13.8715,21983.7867,1.87951,5.06868,9.26105,1.49309,-2.25373,0.03724,4.1,-25.7,-23.9,34.055485,-15.025371,148.041107,0.2977744002505581,0.20010699,0.244688,0.90078598
13.8881,21983.8068,0.96968,4.75742,8.81093,1.38313,-2.67156,-0.41602,-0.6,-24.9,-24.6,35.165924,-17.30969,147.823685,0.3048401748033547,0.22059301,0.247198,0.892919
13.9083,21983.8268,-0.78532,4.27378,9.50048,1.22186,-4.00142,-0.58767,3.2,-25.7,-22.0,36.293159,-19.985649,147.067307,0.317096526803022,0.24507301,0.24740499,0.88214499
13.9648,21983.8468,-0.15802,2.98566,8.6146,1.36786,-5.73077,-0.20955,-0.1,-25.3,-23.3,37.328659,-24.289749,146.110535,0.3343485800982258,0.28185001,0.24118701,0.86637199
13.969,21983.8668,2.593,3.22509,8.49249,1.8535,-6.32331,0.03541,1.2,-26.2,-19.8,38.376751,-30.242193,145.676758,0.3509480314582769,0.32902199,0.230473,0.84584999
13.9694,21983.8868,6.48609,3.71831,8.14053,2.74597,-6.49985,-0.50643,-1.8,-28.0,-18.4,39.799881,-37.202366,146.190262,0.36302053614788654,0.38077801,0.221443,0.82108903
13.9871,21983.9068,4.31448,4.41504,5.37754,3.52605,-6.07836,-1.58827,-2.9,-29.5,-14.2,42.319984,-44.541317,147.207504,0.37484936902406424,0.43335101,0.220696,0.78929597
14.0069,21983.9268,2.98805,3.90027,4.04632,3.5517,-5.88044,-1.97006,-4.0,-31.4,-12.2,45.890373,-51.572945,148.566742,0.387861050025469,0.48070899,0.22939201,0.75223798
14.027,21983.9468,1.7981,4.10379,2.94975,3.26582,-6.77841,-1.78803,-5.8,-31.3,-9.2,49.373188,-58.991989,150.293152,0.401497248015599,0.525603,0.23669501,0.71170002
14.0505,21983.9667,1.05588,5.18839,1.55867,3.35745,-7.4021,-1.53696,-5.9,-32.7,-3.5,52.37701,-67.871552,152.680206,0.41522768820718026,0.57325602,0.237491,0.66525298
14.0747,21983.9867,0.61054,6.64651,-0.60336,3.81438,-7.50351,-1.52413,-5.5,-33.7,0.7,55.116009,-78.501495,156.720062,0.4252204446186469,0.62167799,0.237725,0.61334401
14.0874,21984.0067,-0.84757,6.34722,-4.45335,4.14119,-7.26282,-1.6402,-7.2,-33.0,2.9,57.731915,-91.488007,163.244278,0.4311271955162647,0.66963202,0.241919,0.554254
14.1152,21984.0267,0.30168,6.15089,-6.02878,4.07277,-6.21275,-1.56506,-5.1,-32.5,5.9,59.421028,-107.075317,172.78186,0.43030388145458276,0.71567702,0.249988,0.49005201
14.1264,21984.0467,1.88908,5.71992,-5.38472,3.57431,-5.76987,-1.33293,-3.9,-31.9,10.4,59.726994,-122.649277,-176.87587,0.42536187348209703,0.75405598,0.25958401,0.42788199
14.1519,21984.0667,1.90584,4.68081,-4.25223,3.21328,-5.83523,-1.25535,-2.3,-31.4,11.5,58.682041,-136.696045,-168.018799,0.41938057737141277,0.78691798,0.26436701,0.36741
14.1687,21984.0867,0.6273,4.52518,-4.56828,3.3098,-5.98306,-1.29689,1.0,-30.7,13.6,56.68343,-148.985992,-161.19957,0.4128772924743134,0.81597298,0.263735,0.306862
14.1888,21984.1067,-1.60177,4.41025,-4.63053,3.65311,-6.1877,-1.49725,3.1,-29.4,16.2,53.831017,-160.339554,-155.469101,0.4035085765863713,0.84210998,0.26216799,0.243515
14.2126,21984.1267,-3.26819,3.5531,-4.24026,3.86447,-7.03742,-1.85217,5.7,-28.2,16.7,50.1716,-171.31665,-150.391495,0.3912073855431921,0.86489499,0.26178199,0.174309
14.2293,21984.1467,-3.91943,1.22347,-3.90985,3.91578,-8.72829,-2.38667,9.8,-26.1,17.2,45.90921,177.084549,-146.193146,0.3798456301898174,0.88362998,0.25815499,0.090947
14.2557,21984.1667,-5.03277,0.06465,-3.38072,4.11126,-10.4888,-3.34023,14.1,-23.9,18.9,40.925911,164.207001,-142.717117,0.36926592440987493,0.89468002,0.25112399,-0.011273
14.2782,21984.1867,-7.98491,-1.19474,-2.91623,4.47839,-11.42404,-4.48744,20.6,-20.7,17.3,34.765793,150.166077,-139.916931,0.35539763855996587,0.892681,0.243779,-0.131852
14.2912,21984.2067,-12.74712,-2.05908,-3.60578,4.77221,-11.04652,-5.15328,24.4,-17.0,14.2,26.907631,135.974686,-138.201965,0.3315461993614163,0.873447,0.240174,-0.263598
14.3141,21984.2267,-15.11985,-1.89627,-5.42303,4.82414,-9.49004,-4.80509,28.8,-12.3,8.8,18.20645,123.522171,-138.516006,0.29581154614761,0.84001601,0.23807199,-0.38754401
14.3365,21984.2467,-13.20682,-1.06306,-7.82928,4.25542,-7.39538,-3.96515,32.4,-7.7,2.7,10.462344,113.765877,-140.397766,0.2561612401570924,0.80162698,0.235677,-0.48603699
14.3502,21984.2667,-10.11342,-1.18277,-8.06152,2.94512,-5.65319,-3.53938,33.1,-4.8,1.1,4.460879,106.544922,-142.644165,0.22091937418696334,0.766155,0.234432,-0.55609602
14.3691,21984.2867,-9.81174,-2.06865,-8.47334,1.07587,-4.50721,-3.27609,32.2,-2.9,-2.2,-0.344087,101.162941,-144.092255,0.19353052844499372,0.73431897,0.23994499,-0.60477102
14.389,21984.3067,-10.71677,-3.34001,-2.76299,-0.85874,-3.5622,-3.17408,32.7,-0.8,-5.1,-4.181178,97.287735,-143.583771,0.1803161085881096,0.70502597,0.257285,-0.63578999
14.4083,21984.3268,-11.24591,-4.6856,1.93936,-1.49465,-2.5164,-2.98288,32.9,1.4,-7.0,-7.760158,94.628349,-141.333008,0.17701008707375582,0.67685097,0.286093,-0.65474498
