AppTimestamp(s),SensorTimestamp(s),gyro_x,gyro_y,gyro_z
0.0445,6911.0146,-0.13305,-0.14886,-0.07326
0.0458,6911.0346,-0.13671,-0.20079,-0.07326
0.0513,6911.0546,0.03005,-0.35473,-0.13801
0.0794,6911.0746,-0.00477,-0.53188,-0.08426
0.1129,6911.0946,-0.06585,-0.27592,-0.13618
0.1143,6911.1146,0.06671,-0.5502,-0.07326
0.1376,6911.1346,0.45033,-0.07923,0.14054
0.1524,6911.1546,0.60732,0.27813,0.49667
0.1721,6911.1746,0.61832,1.03866,0.45391
0.2024,6911.1946,0.64458,0.84074,0.526
0.211,6911.2146,0.76859,-0.18307,0.78928
0.2691,6911.2346,0.84128,-0.98514,0.93467
0.2736,6911.2546,0.10702,0.87617,0.75751
0.2763,6911.2746,-0.02004,2.00321,1.02324
0.2893,6911.2946,0.69468,3.74479,1.38304
0.3103,6911.3146,1.32264,4.50226,2.09409
0.3293,6911.3346,1.41672,4.2121,2.67441
0.3482,6911.3545,1.3819,3.41065,2.86805
0.3703,6911.3745,1.07097,2.30009,2.54185
0.3893,6911.3945,0.44911,1.43328,2.0892
0.41,6911.4145,0.10091,0.89144,1.83997
0.4324,6911.4345,0.02456,0.51026,1.92243
0.4503,6911.4545,-0.108,0.82241,2.27979
0.471,6911.4745,-0.14588,2.70632,2.95419
0.4966,6911.4945,-0.36579,2.8627,3.08247
0.515,6911.5145,-0.83432,2.88042,2.62126
0.5352,6911.5345,-1.42258,2.91768,1.93587
0.5543,6911.5545,-1.88318,2.64646,1.39465
0.5706,6911.5745,-2.06827,2.01971,1.21689
0.5907,6911.5945,-1.68587,1.5866,1.23643
0.6119,6911.6145,-1.39265,1.45893,0.85892
0.6306,6911.6345,-1.47634,0.81203,0.19857
0.6509,6911.6545,-1.54231,-0.04441,-0.16245
0.6739,6911.6745,-1.2607,-0.75057,-0.22109
0.6929,6911.6945,-0.66878,-1.15801,-0.14534
0.7133,6911.7145,-0.17459,-1.73284,-0.19788
0.7332,6911.7345,-0.03225,-2.41762,-0.58456
0.7508,6911.7545,-0.09701,-2.76337,-1.05553
0.7916,6911.7744,-0.14954,-2.80307,-1.43671
0.8081,6911.7944,-0.11839,-2.70167,-1.5485
0.8148,6911.8144,0.05082,-2.72672,-1.5033
0.8319,6911.8345,0.19865,-2.66013,-1.65479
0.854,6911.8545,0.25485,-2.5459,-1.93946
0.8716,6911.8745,0.33121,-2.65647,-2.2119
0.8959,6911.8946,0.61404,-3.09201,-2.48068
0.9151,6911.9146,0.76859,-3.30643,-2.63218
0.9333,6911.9346,1.02882,-3.41577,-2.84598
0.9529,6911.9546,1.30126,-3.40172,-3.08849
0.9743,6911.9747,1.32631,-3.25389,-3.30169
0.9934,6911.9947,1.18948,-3.0407,-3.40675
1.0211,6912.0147,1.04592,-2.78963,-3.43546
1.0377,6912.0348,0.89137,-2.52574,-3.5332
1.0549,6912.0548,0.94574,-2.21298,-3.56863
1.0758,6912.0748,1.08685,-1.81103,-3.30169
1.0938,6912.0948,1.22613,-1.69496,-3.33773
1.1116,6912.1149,1.10396,-1.78598,-3.56008
1.134,6912.1349,0.58716,-2.00956,-3.58024
1.156,6912.1549,-0.02187,-2.20198,-3.46295
1.1824,6912.175,-0.33036,-2.12624,-3.35972
1.1961,6912.195,-0.31325,-1.91365,-3.37499
1.2174,6912.215,-0.44092,-1.76705,-3.42691
1.2332,6912.235,-0.80317,-1.88067,-3.32917
1.2548,6912.2551,-1.10799,-1.87761,-3.09827
1.2825,6912.2751,-1.35783,-1.55202,-2.84293
1.3052,6912.2951,-1.49833,-1.1348,-2.53994
1.3177,6912.3151,-1.72496,-0.77073,-2.26077
1.3543,6912.3352,-1.96259,-0.52332,-1.98283
1.3581,6912.3552,-2.24725,-0.20567,-1.47153
1.3789,6912.3752,-2.45189,-0.05601,-0.8289
1.3951,6912.3953,-2.56429,-0.04624,-0.14412
1.4121,6912.4153,-2.53802,0.08754,0.50401
1.4309,6912.4353,-2.43723,0.40824,1.00491
1.4521,6912.4553,-2.45861,0.82424,1.3806
1.471,6912.4753,-2.40852,0.9397,1.56263
1.4921,6912.4953,-2.05116,1.17183,1.8418
1.519,6912.5153,-1.49222,0.94886,2.43984
1.5381,6912.5353,-0.7207,0.88044,2.93953
1.5514,6912.5553,0.08686,1.20176,3.06597
1.5777,6912.5752,0.7356,1.76314,3.02138
1.6033,6912.5952,0.79364,2.13211,3.09652
1.6186,6912.6152,0.49492,2.11989,3.25779
1.6336,6912.6352,0.3697,1.60921,3.74403
1.6528,6912.6552,0.63053,0.61655,4.52961
1.6733,6912.6752,1.16321,0.75766,4.94622
1.6951,6912.6952,1.48452,1.43083,5.21744
1.7105,6912.7152,1.49185,1.75093,5.27975
1.7366,6912.7352,1.48025,1.94274,5.18445
1.752,6912.7552,1.3874,2.1938,4.97554
1.7708,6912.7752,0.99522,2.13944,4.945
1.7926,6912.7952,0.37397,1.75276,5.15086
1.8212,6912.8152,-0.35357,1.19321,5.24798
1.8383,6912.8352,-0.77201,1.09608,5.17957
1.8559,6912.8552,-0.73353,1.75398,4.78861
1.8768,6912.8752,-0.66817,2.42532,4.102
1.8966,6912.8952,-0.92534,2.26283,3.58643
1.9109,6912.9152,-1.35356,1.34592,3.33353
1.9331,6912.9352,-1.79032,0.50537,3.16982
1.9529,6912.9552,-2.09454,0.25797,3.11912
1.9753,6912.9752,-1.97481,0.21765,3.17532
1.9969,6912.9952,-1.41831,0.03134,3.19548
2.013,6913.0151,-1.04873,-0.04685,2.88638
2.0315,6913.0351,-1.4684,0.44978,1.77399
2.0699,6913.0551,-2.12997,0.60555,0.61152
2.0719,6913.0751,-2.32972,-0.07617,-0.19177
2.0937,6913.0951,-2.1599,-0.89656,-0.64076
2.1133,6913.1151,-2.14279,-1.2698,-1.1099
2.1335,6913.1351,-2.18983,-1.34799,-1.70244
2.1579,6913.1551,-2.47938,-1.02057,-2.16548
2.1737,6913.1751,-2.80375,-0.62778,-2.1838
2.1903,6913.1951,-2.88805,-0.32968,-2.3524
2.2354,6913.2151,-2.53497,-0.46102,-2.86308
2.2371,6913.2351,-1.42014,-0.4714,-3.51793
2.2507,6913.2551,-0.24056,-0.27898,-3.88079
2.2682,6913.2751,0.3196,-0.10549,-4.03533
2.2904,6913.2951,0.30555,-0.13543,-4.15934
2.3108,6913.3151,0.19865,-0.21423,-3.98097
2.3373,6913.3351,0.38436,-0.12687,-4.47332
2.3567,6913.3551,0.79547,-0.26371,-5.09091
2.3703,6913.3752,1.19436,-0.52882,-5.15933
2.391,6913.3952,1.30982,-0.59724,-5.3322
2.4134,6913.4152,1.09174,-0.50683,-5.60953
2.4308,6913.4352,0.62443,-0.33151,-5.66634
2.451,6913.4553,0.40451,0.03378,-5.43788
2.4729,6913.4753,0.4601,0.70207,-5.35236
2.4918,6913.4953,0.43689,1.08325,-5.44949
2.5125,6913.5154,0.37886,0.88044,-5.58632
2.5329,6913.5354,0.65741,0.44795,-5.55822
2.555,6913.5554,1.29149,-0.16291,-5.31143
2.5737,6913.5754,2.35195,0.09731,-4.75921
2.5972,6913.5955,3.04345,0.47911,-4.2693
2.6187,6913.6155,2.46802,-0.75057,-4.68896
2.6375,6913.6355,1.05753,-1.09876,-5.82578
2.6542,6913.6556,-0.21246,-0.59052,-4.95774
2.673,6913.6756,-1.26315,-1.2643,-3.36033
2.6955,6913.6956,-1.67182,-1.95336,-2.06652
2.7149,6913.7156,-1.02858,-3.41577,-0.77209
2.7346,6913.7357,-0.84654,-3.56543,-0.21254
2.7576,6913.7557,-1.99985,-2.87577,0.36656
2.7778,6913.7757,-2.88561,-0.87885,0.74713
2.7958,6913.7958,-3.39385,-0.70048,0.76301
2.8142,6913.8158,-2.86545,-1.607,0.85709
2.8356,6913.8358,-1.70908,-1.56057,1.82286
2.8557,6913.8558,-0.62785,-1.7591,2.77826
2.8796,6913.8759,-0.54538,-3.08713,2.90837
2.9024,6913.8959,-1.39876,-2.62165,3.1069
2.9226,6913.9159,-2.36576,-1.17817,3.76786
2.9361,6913.9359,-2.55146,-0.20506,4.44225
2.9538,6913.9559,-1.81904,0.338,5.0409
2.9723,6913.9759,-0.31386,-0.12382,5.15147
2.9933,6913.9959,1.51507,-0.8703,5.26448
3.0187,6914.0159,3.14119,-0.76095,4.77762
3.0335,6914.0359,3.73251,1.50902,4.02259
3.0565,6914.0559,3.88706,1.98672,3.9334
3.0779,6914.0759,3.88156,1.71855,4.17042
3.0963,6914.0959,3.9964,0.5408,4.6249
3.1142,6914.1159,3.40203,1.26712,4.91262
3.1453,6914.1359,2.41793,1.29644,5.35733
3.1618,6914.1559,1.55416,1.18038,6.49354
3.1737,6914.1759,0.99033,0.21582,7.93396
3.1996,6914.1959,0.81318,-0.25943,8.2119
3.2144,6914.216,1.31898,0.11869,7.93152
3.237,6914.236,1.99399,0.39725,7.73482
3.2591,6914.256,2.20962,-0.86663,7.74337
3.2752,6914.276,2.36234,-1.89105,7.09524
3.2979,6914.2961,2.27743,-2.97351,6.78981
3.3267,6914.3161,2.39471,-3.99243,6.63221
3.3458,6914.3361,2.61157,-4.07673,6.25469
3.3577,6914.3562,2.13448,-3.70105,6.40435
3.3753,6914.3762,1.13816,-2.85255,6.60533
3.3932,6914.3962,0.08992,-1.69435,5.75378
3.4119,6914.4162,-0.00293,-0.91733,5.13375
3.4338,6914.4363,0.22003,-1.01935,5.18629
3.4522,6914.4563,0.37825,-1.81958,4.86436
3.4776,6914.4763,0.10397,-3.08774,4.75074
3.4946,6914.4963,-0.12938,-3.14516,5.44346
3.5177,6914.5164,-0.21551,-2.85378,5.98652
3.5492,6914.5364,-0.0854,-3.22029,6.21498
3.5679,6914.5564,0.27196,-3.77679,6.25164
3.5855,6914.5765,0.61587,-3.64851,6.37442
3.5985,6914.5965,0.78997,-3.83421,6.38847
3.6154,6914.6165,1.00316,-3.78229,6.14168
3.6348,6914.6365,0.43445,-3.24412,6.01829
3.657,6914.6566,-0.41771,-2.74932,5.80754
3.6802,6914.6766,-0.57165,-3.21785,5.49966
3.7036,6914.6966,0.03372,-3.79206,5.27975
3.7144,6914.7167,0.24997,-4.28625,5.09954
3.7389,6914.7367,0.35381,-4.52266,4.62979
3.7596,6914.7567,0.39963,-3.58437,4.09528
3.7733,6914.7767,0.05205,-2.44022,3.24618
3.8025,6914.7967,-0.41527,-2.72,2.76909
3.8139,6914.8167,-0.71154,-3.55138,2.26146
3.8418,6914.8367,-0.72681,-3.8953,1.94626
3.8609,6914.8567,-1.38715,-3.25756,2.10753
3.8808,6914.8767,-2.18494,-3.05292,2.00429
3.8931,6914.8967,-2.43357,-3.31925,1.65304
3.9175,6914.9167,-2.54291,-3.73098,1.19612
3.9425,6914.9367,-3.09697,-3.28077,1.56997
3.9608,6914.9567,-3.63697,-2.2087,1.82042
3.976,6914.9768,-3.59543,-1.3144,1.49055
3.9938,6914.9968,-3.59421,-2.09814,0.77034
4.0232,6915.0168,-3.62048,-4.06085,-0.2327
4.044,6915.0369,-3.79396,-5.19278,-0.12946
4.066,6915.0569,-4.73775,-2.8385,1.50705
4.0842,6915.0769,-5.12504,1.32882,2.01162
4.0953,6915.0969,-5.54409,2.05636,1.12037
4.1208,6915.117,-5.78294,-0.42925,-0.06532
4.1352,6915.137,-5.24049,-2.95274,-0.6603
4.1585,6915.157,-4.53494,-2.53368,0.04586
4.1807,6915.1771,-4.39017,-0.57586,0.83815
4.1935,6915.1971,-4.84832,-0.1171,1.16985
4.2167,6915.2171,-5.44208,-0.9381,0.92611
4.2348,6915.2371,-5.5612,-2.4164,0.98048
4.2538,6915.2572,-4.80311,-1.80859,1.08005
4.2816,6915.2772,-3.85505,-0.6791,1.58951
4.2989,6915.2972,-2.72006,-1.12625,2.00063
4.3272,6915.3173,-1.97481,-0.95948,2.42151
4.3446,6915.3373,-2.38958,0.91832,2.39769
4.3573,6915.3574,-3.63147,1.56095,2.57789
4.3738,6915.3775,-4.29854,-0.55326,3.3934
4.4126,6915.3975,-4.19408,-0.52516,4.23822
4.4141,6915.4176,-4.26738,-0.06945,4.3549
4.4349,6915.4377,-4.59908,0.4003,3.686
4.4562,6915.4577,-5.20934,0.09976,2.78498
4.4732,6915.4778,-5.30158,-0.5612,2.08981
4.4963,6915.4978,-5.17207,-0.1959,1.81614
4.5167,6915.5179,-5.32479,0.38259,1.85341
4.5339,6915.5379,-5.82204,1.06248,2.00368
4.5586,6915.558,-6.20749,0.91465,2.20343
4.5786,6915.578,-6.34127,1.02033,2.25413
4.597,6915.598,-6.40908,1.87493,2.33477
4.6164,6915.618,-6.20932,2.91646,2.75871
4.6404,6915.6381,-6.28446,3.86757,3.34025
4.6602,6915.6581,-6.65464,3.86086,3.80879
4.6791,6915.6781,-6.77071,4.75272,4.06168
4.7022,6915.6982,-7.19831,6.43077,4.51372
4.7149,6915.7182,-7.30827,7.57919,5.18934
4.7376,6915.7382,-6.79514,7.11738,5.46057
4.7567,6915.7582,-5.32846,5.69406,5.10138
4.7743,6915.7783,-4.69438,5.55662,4.94255
4.7956,6915.7983,-4.39566,5.90237,5.26081
4.8168,6915.8183,-3.97172,5.65497,5.75012
4.8347,6915.8384,-3.04749,4.89933,5.9236
4.8558,6915.8584,-1.40976,3.15164,5.54303
4.8764,6915.8784,1.59815,0.67214,5.58946
4.895,6915.8984,3.57124,-1.00591,6.23026
4.9138,6915.9184,3.2933,-1.35532,6.49843
4.9373,6915.9384,2.30247,-0.67604,6.51736
4.956,6915.9584,1.81683,-0.14703,6.15329
4.9859,6915.9784,2.07095,-0.48545,5.5693
5.0008,6915.9984,1.76002,0.0234,5.496
5.0159,6916.0184,0.80036,0.7711,5.99691
5.0346,6916.0384,0.24386,1.14922,6.93336
5.0575,6916.0584,0.30494,0.13336,7.17343
5.0745,6916.0784,0.43078,-0.28692,6.83257
5.0953,6916.0984,0.10947,-0.28081,6.5754
5.1159,6916.1184,-0.24361,-0.35473,6.29562
5.1348,6916.1384,-0.16176,-0.46896,5.76844
5.156,6916.1584,0.09053,-0.53554,5.25043
5.1811,6916.1784,-0.27721,-0.65038,5.00364
5.2091,6916.1984,-0.66145,-1.00774,5.10749
5.2166,6916.2184,-0.52156,-0.86174,5.22722
5.2457,6916.2384,-0.71398,-0.59602,5.88878
5.2665,6916.2584,-1.33523,-1.29607,6.62304
5.2901,6916.2783,-1.22222,-2.64791,7.07508
5.296,6916.2983,-0.41343,-3.22213,7.24613
5.3134,6916.3183,-0.31325,-3.02115,7.19664
5.344,6916.3383,-0.87769,-2.26001,6.91748
5.3598,6916.3583,-1.12509,-1.85318,6.45811
5.3759,6916.3783,-0.87891,-1.73711,5.91261
5.3957,6916.3983,-0.97177,-1.90877,5.42697
5.4154,6916.4183,-1.12692,-1.9332,5.13864
5.4338,6916.4383,-1.29797,-1.90877,4.89002
5.4539,6916.4583,-1.39509,-2.16533,4.83565
5.4771,6916.4783,-1.37371,-2.14578,5.1026
5.4929,6916.4983,-1.16724,-1.99979,4.90834
5.5136,6916.5183,-0.81905,-2.37241,4.04519
5.5379,6916.5383,-0.85142,-2.7878,3.36957
5.5552,6916.5583,-1.30652,-2.77864,2.95235
5.5803,6916.5783,-2.08843,-2.87943,2.86011
5.5967,6916.5983,-2.75244,-2.4787,2.94319
5.6148,6916.6183,-3.12506,-1.88067,2.595
5.6373,6916.6383,-3.19715,-2.35836,1.91144
5.6596,6916.6583,-2.97846,-3.71693,0.98659
5.6789,6916.6782,-2.92898,-4.05474,0.96032
5.7033,6916.6982,-3.71455,-3.13966,1.57363
5.7175,6916.7182,-4.13788,-2.29911,1.37571
5.7377,6916.7382,-4.00043,-2.83362,0.89313
5.7618,6916.7582,-4.20263,-3.95578,0.22423
5.7817,6916.7782,-4.44759,-4.98142,-0.32311
5.797,6916.7982,-4.77868,-3.67539,0.92306
5.8145,6916.8182,-4.8196,-0.36572,2.22054
5.8359,6916.8382,-5.15925,1.57744,1.80087
5.8555,6916.8582,-5.18551,0.48399,0.82532
5.876,6916.8782,-4.67239,-1.5734,-0.14229
5.8954,6916.8982,-4.38039,-2.31805,-0.70612
5.913,6916.9182,-4.10428,-1.57218,0.1778
5.9337,6916.9382,-4.37673,-0.14459,0.68238
5.9609,6916.9582,-5.04135,-0.14581,0.70315
5.9836,6916.9782,-5.48484,-0.7188,0.54371
6.0101,6916.9982,-5.29852,-1.34616,0.33724
6.022,6917.0182,-4.72431,-1.19772,0.7569
6.0542,6917.0382,-4.51662,0.38992,1.12648
6.0593,6917.0582,-4.87825,1.08753,1.5101
6.0793,6917.0782,-5.07373,0.35938,1.74834
6.0995,6917.0981,-4.57526,-0.20873,1.78255
6.1172,6917.1181,-4.05602,0.35632,1.79721
6.1344,6917.1381,-3.83733,0.42229,2.14784
6.1528,6917.1581,-3.86788,0.50415,2.47832
6.1742,6917.1781,-4.34008,1.13334,2.314
6.196,6917.1981,-5.03341,2.03559,1.90594
6.2137,6917.2181,-5.2185,2.37645,1.63594
6.2333,6917.2381,-4.67788,2.75641,1.97558
6.2594,6917.2581,-4.14521,2.18647,2.41662
6.2808,6917.2781,-3.72432,1.84744,2.57606
6.3037,6917.2981,-4.01632,2.92929,2.56018
6.3175,6917.3181,-4.80678,3.13698,2.38119
6.3369,6917.3381,-4.77257,3.5206,2.30056
6.3558,6917.3582,-4.86298,4.36971,2.68296
6.3811,6917.3782,-5.46101,5.07403,3.05192
6.3968,6917.3982,-5.79943,5.59632,2.9383
6.4146,6917.4182,-5.72002,6.25911,2.73061
6.4356,6917.4383,-5.33579,6.55477,2.73244
6.4547,6917.4583,-4.91734,7.47046,3.11362
6.4743,6917.4783,-5.35167,8.96586,3.24374
6.4965,6917.4984,-5.83792,10.51257,3.01955
6.5578,6917.5184,-5.30402,10.97744,3.33842
6.5595,6917.5384,-4.02853,9.86933,3.80573
6.5604,6917.5584,-2.10003,7.84553,3.86132
6.5742,6917.5785,0.94085,5.09114,4.18202
6.5933,6917.5985,2.05874,3.80466,4.87719
6.6154,6917.6185,1.80767,3.24205,5.57785
6.6335,6917.6385,1.0728,3.18829,5.84052
6.6541,6917.6586,0.14123,2.57987,5.47095
6.6758,6917.6786,-0.27355,1.33371,4.73852
6.6942,6917.6986,0.06121,0.72101,4.47952
6.7139,6917.7187,-0.21307,0.61166,4.87475
6.7371,6917.7387,-1.04873,0.57684,5.61023
6.7572,6917.7587,-1.31141,0.24514,6.59983
6.7751,6917.7787,-0.75369,-0.2411,7.2449
6.797,6917.7988,-0.14893,-0.76339,7.02805
6.8174,6917.8188,-0.07929,-0.73529,6.1539
6.8386,6917.8388,-0.85509,-0.62106,4.53449
6.8564,6917.8589,-2.41829,-0.0554,3.39767
6.8776,6917.8789,-2.88499,0.53164,3.0953
6.8959,6917.8989,-1.80621,-0.36389,3.33537
6.9191,6917.9189,-0.13305,-1.7646,4.06902
6.935,6917.9389,0.76065,-2.12685,5.10749
6.9552,6917.9589,0.73072,-1.94908,6.41962
6.9764,6917.9789,-0.52217,-1.01996,7.2785
6.9947,6917.9989,-1.94365,-0.09389,7.71893
7.0146,6918.0189,-2.65775,0.31173,7.85333
7.0364,6918.0389,-2.8795,0.39358,7.9248
7.0613,6918.0589,-2.80375,0.02584,7.82645
7.0919,6918.0789,-2.40608,-0.92894,7.38601
7.1093,6918.099,-1.78483,-1.56424,6.88449
7.1213,6918.119,-1.52032,-1.50987,6.37747
7.1359,6918.139,-1.56492,-2.39624,5.9627
7.1576,6918.1591,-1.33095,-3.05719,5.4624
7.1772,6918.1791,-1.43175,-3.19342,5.05923
7.2037,6918.1991,-1.52154,-2.81468,4.35612
7.2234,6918.2191,-1.29491,-2.95457,3.52412
7.2379,6918.2392,-0.81722,-3.37729,2.77337
7.2602,6918.2592,-0.98032,-3.23007,2.37386
7.2853,6918.2792,-1.64738,-3.60147,2.08554
7.3002,6918.2993,-2.05483,-3.03581,2.2352
7.3175,6918.3193,-2.80803,-2.21664,2.25108
7.3543,6918.3393,-3.3517,-2.62653,1.93954
7.3625,6918.3593,-3.27778,-3.43165,1.37327
7.3817,6918.3794,-3.10185,-4.04802,1.02507
7.3975,6918.3994,-3.30222,-3.45975,1.15274
7.4157,6918.4195,-4.54899,-1.68886,1.77277
7.4358,6918.4395,-5.02852,-1.02301,1.1955
7.4624,6918.4596,-4.78784,-2.44083,0.47041
7.476,6918.4796,-4.29609,-4.04863,0.05624
7.5066,6918.4997,-3.6443,-4.65888,-0.31272
7.521,6918.5198,-3.40362,-3.77191,-0.171
7.5356,6918.5398,-3.98455,-2.52513,0.90595
7.5558,6918.5599,-4.72675,-1.6296,1.27003
7.5794,6918.58,-4.98576,-2.14395,0.66405
7.6048,6918.6,-5.04257,-3.30948,0.30792
7.6173,6918.6201,-4.80861,-3.18303,0.63901
7.6382,6918.6401,-4.69193,-2.28201,0.8919
7.6572,6918.6602,-5.21606,-1.48299,1.18207
7.6763,6918.6802,-6.10548,0.07471,1.4539
7.6984,6918.7003,-6.93259,1.02583,1.5382
7.7216,6918.7203,-6.79453,-0.32907,1.12526
7.7402,6918.7403,-5.19284,-0.55998,1.41358
7.76,6918.7603,-3.12873,0.37037,2.01834
7.784,6918.7804,-2.61621,0.97696,2.3928
7.7998,6918.8004,-3.32787,1.95984,2.62982
7.8207,6918.8204,-4.26433,1.97023,2.69274
7.8383,6918.8405,-4.98576,1.28117,2.5669
7.865,6918.8605,-5.50072,1.57622,2.54796
7.8835,6918.8805,-5.95154,1.58172,2.53452
7.8979,6918.9005,-6.04256,2.25123,2.87477
7.9209,6918.9206,-5.84708,1.84867,3.4667
7.9462,6918.9406,-5.97597,3.61834,3.84116
7.9555,6918.9606,-6.06088,4.0209,4.04947
7.9767,6918.9807,-5.86785,3.77656,4.07573
8.0028,6919.0007,-5.58074,3.54015,3.65912
8.0254,6919.0207,-4.95216,3.43081,3.12889
8.0376,6919.0407,-4.24417,3.85291,3.04154
8.0589,6919.0607,-4.27716,4.98729,3.37202
8.0762,6919.0807,-4.54655,5.15833,3.49236
8.1024,6919.1007,-5.05845,4.80037,3
8.1266,6919.1207,-6.0786,5.27256,2.85156
8.1429,6919.1406,-6.93992,6.84127,4.15454
8.157,6919.1606,-7.33087,8.77466,5.63039
8.1773,6919.1806,-6.85073,8.71174,5.81609
8.1955,6919.2006,-5.66993,7.43381,5.13803
8.216,6919.2206,-3.58932,4.71546,4.6695
8.2376,6919.2406,-1.00964,2.35263,4.28954
8.268,6919.2606,1.24934,0.81936,4.25655
8.2863,6919.2806,2.70015,-0.51233,4.29687
8.3017,6919.3006,3.37821,-1.53308,4.48562
8.3174,6919.3206,2.89074,-0.53554,4.87963
8.3417,6919.3406,1.65251,0.29096,4.91079
8.3586,6919.3607,1.16565,0.27691,4.4447
8.3777,6919.3807,1.37335,0.24331,3.97922
8.3969,6919.4007,0.75943,0.56829,4.01648
8.4181,6919.4208,-0.01637,0.76438,4.60597
8.4363,6919.4408,-0.02553,-0.00531,5.75439
8.4609,6919.4608,0.78264,-0.88984,6.45689
8.4793,6919.4808,0.69773,-1.21849,6.36281
8.5036,6919.5009,0.09053,-0.83181,6.14779
8.5232,6919.5209,-0.02248,-0.23255,5.66093
8.5441,6919.541,-0.28027,0.43146,5.08305
8.563,6919.561,-0.77812,0.72345,4.65545
8.5827,6919.5811,-0.6535,0.35876,4.13377
8.6071,6919.6012,-0.31386,0.00813,3.86926
8.6267,6919.6213,-0.38595,-0.35289,4.22112
8.6426,6919.6414,-0.6419,-1.30096,4.85092
8.665,6919.6615,-1.01391,-1.73956,5.45568
8.6796,6919.6816,-1.65593,-1.63632,6.17406
8.7038,6919.7016,-1.83675,-1.41152,6.5137
8.723,6919.7217,-1.69931,-1.36143,6.66519
8.7406,6919.7418,-1.9296,-1.50804,6.84601
8.7626,6919.7619,-2.27352,-1.36571,7.01583
8.7847,6919.782,-2.37553,-1.48544,6.89671
8.8029,6919.8021,-2.03895,-2.3883,6.5754
8.8315,6919.8222,-1.83064,-2.68762,6.1875
8.8426,6919.8423,-2.00779,-2.76276,5.84602
8.8618,6919.8624,-2.04261,-2.60271,5.32312
8.8804,6919.8825,-2.26252,-2.43839,5.03357
8.9097,6919.9026,-2.50443,-1.96741,4.65178
8.9212,6919.9227,-2.57956,-1.82752,3.92668
8.9419,6919.9428,-2.38225,-2.67968,3.16005
8.9626,6919.9628,-2.053,-2.85744,2.83446
8.9815,6919.9829,-1.96809,-2.13051,2.36959
9.0066,6920.0029,-2.26008,-2.22947,1.95786
9.0388,6920.023,-2.27046,-3.40539,1.45146
9.0439,6920.0431,-1.96198,-4.41637,1.33906
9.0595,6920.0631,-2.4916,-4.08406,1.87112
9.0824,6920.0832,-3.12629,-3.09507,2.2187
9.1011,6920.1032,-3.62231,-1.35349,2.73122
9.1224,6920.1233,-3.76892,-0.10671,1.99452
9.146,6920.1433,-3.65957,-0.90939,0.73919
9.1621,6920.1633,-3.21547,-2.48665,-0.12091
9.187,6920.1834,-2.88438,-3.84399,-0.21254
9.2039,6920.2034,-3.12629,-3.84093,1.06478
9.2236,6920.2234,-3.50258,-2.58133,1.66648
9.2389,6920.2434,-4.44026,-1.25942,0.91023
9.2596,6920.2634,-5.17085,-1.68336,0.2902
9.2794,6920.2834,-5.494,-2.51536,-0.47277
9.3013,6920.3034,-5.93627,-2.03888,-0.6377
9.3318,6920.3234,-6.56179,-1.07799,0.02387
9.3416,6920.3434,-6.84035,-0.06701,0.59564
9.3596,6920.3633,-6.31195,0.27752,0.16009
9.3797,6920.3833,-5.91672,-0.32968,-0.11908
9.398,6920.4033,-5.89778,-0.2521,-0.20215
9.4181,6920.4233,-5.76278,0.338,-0.13007
9.4481,6920.4433,-5.92038,2.12294,0.17597
9.4593,6920.4633,-6.60394,2.87064,0.48568
9.4799,6920.4833,-7.06331,2.36607,0.83082
9.5017,6920.5033,-6.81164,1.63425,1.12098
9.5216,6920.5233,-6.29851,1.66357,1.74467
9.5401,6920.5433,-5.81348,2.02154,2.89738
9.5612,6920.5633,-6.00774,2.74053,3.48442
9.5788,6920.5833,-6.4329,3.79977,3.54367
9.6085,6920.6033,-6.52392,4.91582,3.27061
9.6241,6920.6233,-6.1684,4.36299,2.54796
9.6449,6920.6433,-5.80737,3.31535,2.01223
9.6601,6920.6633,-5.90389,3.85475,2.23031
9.6819,6920.6833,-6.36204,6.28538,3.27184
9.7033,6920.7033,-6.79759,6.93839,3.80451
9.7244,6920.7233,-6.73894,7.02697,3.72937
9.7417,6920.7433,-7.24413,9.02083,3.63713
9.7625,6920.7633,-7.72549,10.88519,4.42515
9.7792,6920.7832,-7.3663,11.14359,4.78495
9.8125,6920.8032,-6.38464,10.97316,3.83444
9.8324,6920.8232,-4.3132,9.91025,2.73977
9.8466,6920.8432,-2.25153,8.65493,2.82346
9.8622,6920.8632,-1.16846,7.68609,3.1295
9.8851,6920.8832,-0.24117,6.91518,3.15333
9.9025,6920.9032,1.39656,5.43567,3.25534
9.9239,6920.9232,2.47657,3.32513,3.82956
9.9389,6920.9432,2.24627,1.98733,4.51434
9.9691,6920.9632,1.23896,1.2433,5.02746
9.9847,6920.9832,0.41795,0.7039,5.5803
9.9987,6921.0032,-0.72375,0.81814,5.39826
10.0195,6921.0232,-1.12509,-0.3419,4.9511
10.04,6921.0432,-0.59059,-1.63693,4.75318
10.0658,6921.0632,0.45888,-2.32049,4.68293
10.0855,6921.0832,0.78264,-1.83363,4.48257
10.0997,6921.1032,-0.80317,-1.12442,3.87537
10.1179,6921.1232,-2.46044,0.00507,2.66586
10.1379,6921.1432,-2.96624,0.3887,2.19977
10.163,6921.1632,-2.22831,0.1132,2.51558
10.1775,6921.1832,-0.70237,-0.45185,3.21564
10.2042,6921.2031,-0.28637,-0.51844,4.06352
10.2246,6921.2231,-1.10127,-0.30525,4.55649
10.2403,6921.2431,-2.25764,0.27141,4.8326
10.2585,6921.2631,-3.10491,0.04417,5.08366
10.2789,6921.2831,-3.21181,0.02706,5.56563
10.3,6921.3031,-2.99129,-0.20262,6.10442
10.3302,6921.3231,-2.92165,-0.27287,6.44223
10.3424,6921.3431,-3.36086,-0.11282,6.84601
10.3608,6921.3631,-3.80862,-0.3028,7.25712
10.3778,6921.3831,-3.94301,-1.18184,7.46543
10.4315,6921.4031,-3.94485,-1.83668,7.57844
10.4324,6921.4231,-3.88926,-2.12868,7.73787
10.4377,6921.4431,-3.67423,-2.31744,7.74031
10.459,6921.4631,-3.43477,-2.29361,7.3573
10.4823,6921.4831,-3.73349,-1.97596,6.69635
10.4988,6921.5031,-4.24417,-1.87456,6.01584
10.5194,6921.5231,-4.29609,-2.30522,5.19728
10.5395,6921.5431,-4.0658,-2.53735,4.50151
10.5615,6921.5631,-4.01082,-2.48787,4.1918
10.5845,6921.5831,-3.78602,-2.7035,3.7306
10.6012,6921.603,-3.50136,-3.23129,2.719
10.6236,6921.623,-3.20936,-3.26183,1.69764
10.6453,6921.643,-3.31016,-2.10913,1.47772
10.6617,6921.663,-3.71088,-1.17573,1.28713
10.6823,6921.683,-4.03953,-0.87763,0.79783
10.7056,6921.703,-4.82266,-0.04807,0.44109
10.7246,6921.723,-5.37183,0.21216,0.18819
10.7504,6921.743,-5.34128,-0.31135,-0.28951
10.762,6921.763,-5.24049,-0.92711,-0.59067
10.7797,6921.783,-5.54226,-1.15618,-0.86494
10.8026,6921.803,-5.92466,-0.82265,-1.09524
10.8203,6921.823,-6.11953,0.02523,-1.22474
10.8388,6921.843,-6.11586,0.4675,-1.40312
10.859,6921.863,-6.03706,-0.00348,-1.66273
10.8806,6921.883,-5.77866,-0.69131,-1.83988
10.8991,6921.903,-5.51538,-0.04563,-1.65846
10.9255,6921.923,-5.55142,0.41924,-1.39456
10.9542,6921.943,-5.57097,0.30562,-1.16854
10.9707,6921.963,-5.44086,0.10648,-1.08424
10.9848,6921.983,-5.58685,1.18588,-1.07203
11.0083,6922.003,-5.92955,2.57865,-0.91137
11.02,6922.0229,-5.78416,3.91339,-0.82646
11.039,6922.0429,-4.87153,4.71118,-0.66886
11.0603,6922.0629,-4.12078,4.10581,-0.20521
11.079,6922.0829,-4.02792,3.7399,0.45697
11.1014,6922.1029,-4.65406,4.61222,1.24376
11.1234,6922.1229,-5.81532,5.43811,1.41542
11.1434,6922.1429,-5.90756,6.71176,1.36288
11.1649,6922.1629,-5.38466,7.5853,1.70436
11.181,6922.1829,-4.94178,8.11675,2.08981
11.198,6922.2029,-4.36634,7.60851,1.909
11.2216,6922.2229,-3.48914,6.24201,1.07822
11.2461,6922.2429,-2.99556,6.40572,1.00064
11.2786,6922.2629,-3.61681,9.26518,1.55103
11.3004,6922.2829,-5.07373,11.63839,1.87906
11.3134,6922.3029,-5.79516,12.57424,1.33539
11.3209,6922.3229,-4.6449,11.85891,-0.29378
11.3508,6922.3429,-2.40669,9.66591,-1.20764
11.3608,6922.3629,-1.66326,8.78137,-1.46481
11.378,6922.3829,-2.65409,8.08071,-0.97185
11.3992,6922.4029,-2.91004,7.10394,-0.25408
11.4193,6922.4228,-1.55087,4.4876,0.55043
11.4426,6922.4428,0.60243,1.61165,1.10204
11.4581,6922.4628,1.19864,0.23537,1.22666
11.4847,6922.4828,0.74721,0.6477,0.78623
11.5039,6922.5028,-0.43298,1.82362,0.09778
11.5297,6922.5228,-0.84654,1.85233,-0.34815
11.5414,6922.5428,-1.03652,0.61288,-0.47888
11.5585,6922.5628,-0.92045,-0.89107,-0.44894
11.5795,6922.5828,-1.11715,-1.70962,-0.09831
11.6008,6922.6028,-1.74207,-2.37425,0.24439
11.6188,6922.6228,-1.97725,-2.99611,0.43437
11.6388,6922.6428,-1.72007,-4.02725,0.33052
11.6609,6922.6628,-1.72007,-6.47254,-0.23453
11.6798,6922.6828,-1.31507,-9.332,-1.08058
11.7008,6922.7028,-0.45497,-10.40102,-1.8686
11.7292,6922.7228,-0.18497,-8.97709,-2.64684
11.7423,6922.7428,-0.57043,-7.128,-2.35118
11.76,6922.7628,-0.94489,-5.81036,-1.49841
11.7831,6922.7828,-0.96199,-5.38887,-1.66029
11.8012,6922.8028,-0.62968,-6.66496,-2.28093
11.818,6922.8228,0.26951,-6.847,-2.47152
11.8401,6922.8427,0.82784,-5.68697,-2.57476
11.8594,6922.8627,0.43139,-4.70958,-2.46175
11.88,6922.8827,-0.12633,-3.85132,-1.47275
11.8998,6922.9027,-0.16603,-4.53427,-1.1435
11.924,6922.9227,0.1901,-5.87817,-1.96328
11.9461,6922.9427,-0.06646,-3.38462,-2.60835
11.9636,6922.9627,-0.60402,0.00507,-2.0262
11.9814,6922.9827,-0.69993,0.05639,-1.21314
12.005,6923.0027,-0.22346,-0.79516,-0.72383
12.0218,6923.0227,0.74538,-0.66688,-0.10258
12.0413,6923.0427,1.35991,-0.46529,0.67932
12.0611,6923.0627,1.47292,-0.46774,1.28713
12.082,6923.0827,1.69344,0.31723,1.61517
12.1061,6923.1027,1.85288,1.03805,1.80576
12.1216,6923.1227,1.73192,1.9183,2.42334
12.1393,6923.1427,1.56394,2.28055,3.17898
12.1579,6923.1627,1.7136,2.19625,3.92913
12.1798,6923.1827,2.07157,2.12478,4.53022
12.2027,6923.2027,2.22123,2.22374,4.87597
12.2298,6923.2227,2.19801,2.28482,5.71346
12.242,6923.2426,2.28903,2.16387,6.68657
12.2688,6923.2626,2.54865,1.75398,7.21864
12.2941,6923.2826,2.84248,1.02827,7.75559
12.3067,6923.3026,2.99092,0.42107,8.11966
12.334,6923.3226,3.17051,0.26958,8.1893
12.3396,6923.3426,3.30918,0.39725,8.23817
12.3604,6923.3627,3.03551,0.63854,8.22779
12.3883,6923.3827,3.08194,0.89205,7.72504
12.403,6923.4027,3.01963,1.30927,6.80813
12.4377,6923.4227,2.17236,1.36486,5.79532
12.4415,6923.4428,1.13877,1.13762,4.44836
12.4588,6923.4628,0.35931,1.21214,3.42638
12.4786,6923.4828,-0.01882,0.97207,2.72389
12.5012,6923.5029,0.16933,0.68191,2.02445
12.5222,6923.5229,0.4485,0.32395,1.18329
12.5465,6923.5429,0.66108,-0.21117,-0.04028
12.5745,6923.5629,0.85289,-0.4378,-1.28461
12.5867,6923.583,0.82296,-0.49034,-2.65783
12.6014,6923.603,0.41734,-0.76645,-4.00296
12.6224,6923.623,-0.11778,-1.24353,-5.40123
12.6404,6923.6431,-0.54844,-2.2087,-6.56737
12.6612,6923.6631,-0.58448,-2.95579,-7.48672
12.6867,6923.6831,-0.42932,-2.9674,-8.08965
12.7015,6923.7031,-0.31508,-2.16289,-8.38286
12.7223,6923.7232,-0.6364,-1.12381,-8.26008
12.7454,6923.7432,-1.37555,-0.83303,-8.15318
12.7636,6923.7632,-1.79888,-0.9265,-8.13058
12.8048,6923.7833,-1.91433,-2.08958,-8.45311
12.8148,6923.8033,-2.14829,-3.70654,-9.03221
12.8256,6923.8233,-3.51052,-5.58618,-9.17454
12.8394,6923.8433,-4.64917,-5.9246,-8.2558
12.8633,6923.8634,-4.86481,-5.5147,-6.59119
12.8797,6923.8834,-3.89903,-5.40597,-4.75493
12.904,6923.9034,-3.35964,-6.15978,-3.85696
12.9457,6923.9235,-2.9864,-6.33388,-4.08604
12.9524,6923.9435,-2.02673,-4.47807,-4.05855
12.9615,6923.9635,-0.6474,-3.12378,-3.27236
12.9846,6923.9835,0.23775,-2.27284,-1.59737
13.0021,6924.0035,0.57433,-1.84951,0.05258
13.0237,6924.0235,0.7521,-1.49032,0.39955
13.0466,6924.0436,0.85045,-2.41456,-0.34326
13.0676,6924.0636,1.0276,-3.47808,-1.39762
13.0859,6924.0836,1.32692,-3.97777,-2.3017
13.1037,6924.1036,2.06668,-4.73891,-2.93944
13.1219,6924.1237,2.96648,-5.96736,-4.00723
13.1406,6924.1437,3.46006,-6.3913,-5.28761
13.1624,6924.1637,3.70807,-6.00767,-5.92657
13.1803,6924.1838,4.66896,-5.49638,-5.52768
13.2049,6924.2038,5.14544,-4.54954,-4.74088
13.2257,6924.2238,4.60055,-4.17874,-4.46844
13.2412,6924.2438,4.8113,-3.90813,-5.12695
13.2626,6924.2639,5.42766,-2.88615,-5.90886
13.2851,6924.2839,5.74287,-2.439,-5.65963
13.3007,6924.3039,6.06968,-2.09203,-4.79953
13.3249,6924.3239,6.50095,-1.02973,-4.52891
13.3614,6924.344,6.52416,-1.06944,-4.8936
13.3664,6924.364,5.58038,-1.42557,-5.38351
13.3834,6924.384,4.73005,-0.4714,-6.35357
13.4033,6924.4041,4.4967,0.72101,-7.04995
13.4199,6924.4241,4.60666,0.6477,-7.21428
13.439,6924.4441,4.83084,1.25307,-6.87525
13.4648,6924.4641,5.09474,2.16448,-5.84044
13.4831,6924.4842,4.7832,2.542,-4.03533
13.501,6924.5042,3.895,3.52854,-2.82582
13.5211,6924.5242,2.87608,2.90668,-2.9315
13.5404,6924.5443,2.50528,1.24635,-3.82581
13.5598,6924.5643,2.10272,2.42166,-4.43606
13.5832,6924.5843,1.25667,4.41063,-4.20699
13.603,6924.6043,0.19743,5.22492,-3.43913
13.6224,6924.6243,-0.40916,5.16811,-3.21555
13.649,6924.6443,0.02517,4.51509,-4.03472
13.6627,6924.6643,0.37458,4.70874,-4.36215
13.6818,6924.6843,-0.08418,5.91947,-4.22654
13.7088,6924.7043,-0.93084,6.88586,-4.38903
13.7204,6924.7243,-1.38715,5.32449,-4.66269
13.7414,6924.7443,-0.80256,3.52366,-4.88444
13.7686,6924.7643,-0.37861,3.61345,-4.97973
13.7847,6924.7843,-1.1819,3.60002,-4.63154
13.807,6924.8043,-2.19899,3.25854,-4.60161
13.8219,6924.8243,-2.26191,2.23962,-4.76776
13.842,6924.8443,-2.1544,1.79919,-4.71095
13.8603,6924.8643,-2.447,2.00199,-4.77204
13.8854,6924.8843,-3.07986,1.56828,-4.7024
13.902,6924.9042,-3.3181,1.28239,-5.20392
13.9268,6924.9242,-2.97357,1.03744,-5.78546
13.949,6924.9442,-2.61316,1.20359,-5.94979
13.9612,6924.9642,-3.09025,1.15106,-5.67551
13.982,6924.9842,-3.72249,-0.35595,-5.25462
14.0042,6925.0042,-3.71333,-1.45551,-5.32915
14.024,6925.0242,-2.31567,-0.22889,-7.04446
14.0465,6925.0442,-1.01025,-0.57097,-7.56614
14.0666,6925.0642,-0.96199,-0.25332,-6.91007
14.087,6925.0842,-2.04994,0.27874,-5.23507
14.1056,6925.1042,-3.38224,0.35876,-3.84902
14.1227,6925.1242,-3.83061,0.61288,-3.33345
14.1436,6925.1442,-3.13423,1.17794,-3.30169
14.1627,6925.1642,-1.88867,1.79796,-3.54114
14.1816,6925.1842,-1.38532,1.86638,-3.96264
14.2023,6925.2042,-1.72252,1.87554,-4.55213
14.2231,6925.2242,-2.25458,1.83523,-4.76715
14.2611,6925.2442,-3.0035,1.78208,-4.46111
14.2627,6925.2642,-3.69439,2.12172,-3.77633
14.2786,6925.2841,-4.2008,2.53955,-2.94677
14.305,6925.3041,-4.75485,2.55177,-2.34324
14.3207,6925.3241,-5.12809,2.08018,-1.96817
14.3392,6925.3441,-5.34128,2.13089,-1.55461
14.3619,6925.3641,-5.50988,1.8114,-1.10379
14.379,6925.3841,-5.55875,0.7656,-0.98895
14.4001,6925.4041,-4.78845,-0.45796,-1.11967
14.422,6925.4241,-3.75914,-1.79637,-1.70488
14.4396,6925.4441,-2.69379,-1.84524,-1.76964
14.4605,6925.4641,-2.15745,-1.37426,-1.09463
14.4823,6925.4841,-1.89845,-1.14152,-0.72444
14.4988,6925.5041,-0.79645,-1.4439,-0.60166
14.5185,6925.5241,1.01477,-1.75361,0.00065
14.5419,6925.5441,2.42159,-2.27529,0.77279
14.5618,6925.5641,3.25359,-2.95335,0.91573
14.5819,6925.5841,3.8895,-3.39867,0.37633
14.6078,6925.6041,4.18577,-3.3443,-0.27118
14.6292,6925.6241,4.21692,-3.07369,-0.50514
14.6502,6925.6441,4.27129,-2.91425,-0.31944
14.6649,6925.6641,4.45211,-2.92219,0.08251
14.6813,6925.6841,4.93713,-3.25511,0.4362
14.7037,6925.704,5.0984,-3.16593,0.28165
14.7231,6925.724,4.68363,-2.79086,-0.3115
14.7455,6925.744,4.02084,-2.62714,-0.33349
14.7641,6925.764,3.5749,-2.71572,0.09595
14.7829,6925.784,3.58712,-2.72794,0.17169
14.8002,6925.804,3.614,-2.8776,-0.04211
14.8222,6925.824,3.6421,-3.42127,0.00187
14.8434,6925.844,3.89622,-3.48602,0.16925
14.8642,6925.864,4.11247,-3.13172,0.16314
14.8913,6925.884,4.12102,-2.93563,0.39894
14.9114,6925.904,4.08376,-2.99794,0.82288
14.927,6925.924,4.49181,-3.1867,0.5376
14.9421,6925.944,4.74105,-3.44754,0.00798
14.9623,6925.964,4.2548,-3.60942,-0.00301
14.9806,6925.984,3.91271,-3.24778,-0.05127
15.0009,6926.004,3.96769,-3.28871,-0.18444
15.0272,6926.024,4.0074,-3.88064,-0.31516
15.0422,6926.044,4.06787,-3.25572,-0.62854
15.0622,6926.064,4.21204,-2.62348,-0.57539
15.0871,6926.084,4.32322,-3.34369,-0.55462
15.1047,6926.1039,4.5248,-4.07856,-1.39273
15.1211,6926.1239,4.1595,-3.70777,-1.55095
15.1465,6926.1439,3.5071,-3.17204,-0.79958
15.1658,6926.1639,3.57918,-3.00955,-0.50942
15.1812,6926.1839,4.04649,-2.43961,-0.79469
15.2017,6926.2039,4.27312,-2.42922,-1.53873
15.2204,6926.2239,4.1143,-2.68762,-1.88692
15.2409,6926.2439,3.8724,-2.55445,-1.56683
15.27,6926.2639,3.8559,-2.29483,-1.02316
15.3017,6926.2839,4.01962,-2.22153,-0.8961
15.3292,6926.3039,4.22426,-2.45183,-0.98406
15.334,6926.3239,4.26885,-2.92097,-1.31026
15.3445,6926.3439,4.26518,-3.14577,-1.37013
15.3701,6926.3639,4.21754,-2.79574,-0.91076
15.3836,6926.3839,3.94753,-2.9619,-0.28462
15.4053,6926.4039,3.43502,-3.63019,0.1155
15.4217,6926.4239,2.98481,-3.23618,-0.08976
15.4411,6926.4439,2.62562,-3.39012,-0.30234
15.4625,6926.4639,2.13998,-3.395,-0.57112
15.4794,6926.4839,1.47353,-3.14394,-0.18566
15.501,6926.5039,0.6794,-3.03642,0.9536
15.5189,6926.5238,-0.49957,-3.47014,2.32622
15.5387,6926.5438,-1.26926,-1.91304,1.94687
15.5659,6926.5638,-1.57469,-1.83241,1.93221
15.5873,6926.5838,-1.02919,-1.80797,2.32805
15.6018,6926.6038,-0.64129,-1.34127,2.50459
15.625,6926.6238,-0.83737,-1.45306,2.64142
15.6387,6926.6438,-1.16969,-2.07004,2.98412
15.6607,6926.6638,-1.65105,-1.88861,3.08674
15.6836,6926.6838,-2.12813,-0.97842,2.98656
15.6997,6926.7038,-2.39264,-1.09448,3.19365
15.7181,6926.7238,-2.46533,-1.11831,3.38912
15.74,6926.7438,-2.57651,-1.05539,3.51007
15.7622,6926.7638,-2.96013,-0.82021,3.71105
15.785,6926.7838,-3.56977,-0.83975,4.17225
15.8012,6926.8038,-3.87032,-0.49706,4.4056
15.8211,6926.8238,-3.87399,-0.22217,4.67683
15.8399,6926.8438,-3.4983,0.05944,4.86925
15.8605,6926.8638,-3.36758,0.32761,4.94255
15.8786,6926.8838,-3.67912,1.13884,5.2321
15.9022,6926.9038,-3.87643,1.74726,5.48011
15.9252,6926.9237,-4.01815,2.22129,5.46301
15.9414,6926.9437,-4.49585,2.58537,5.2602
15.9605,6926.9637,-5.08716,2.59759,5.02991
15.9906,6926.9837,-5.24477,2.6263,4.87291
16.0044,6927.0037,-5.06334,3.38255,4.89979
16.0185,6927.0237,-5.01142,3.51816,4.96271
16.0442,6927.0437,-5.22094,3.81504,4.62673
16.0632,6927.0637,-5.53859,3.52977,4.28526
16.0799,6927.0837,-5.58746,4.01052,4.25899
16.1009,6927.1037,-5.28631,4.40819,4.35673
16.1201,6927.1237,-4.98881,4.11436,4.00365
16.1392,6927.1437,-4.68033,3.44669,3.53573
16.1613,6927.1637,-4.26555,3.00748,3.33842
16.1857,6927.1837,-4.3694,3.42164,3.71044
16.2075,6927.2037,-4.60519,3.20845,3.85643
16.2228,6927.2237,-4.04869,3.34284,3.57849
16.2392,6927.2437,-3.279,3.35689,3.18815
16.2625,6927.2637,-2.86728,1.62753,2.36104
16.297,6927.2837,-2.77932,-0.49706,1.11976
16.3065,6927.3037,-2.65348,-1.43962,0.25111
16.3284,6927.3237,-2.55452,-0.91183,0.14237
16.3437,6927.3437,-2.61072,-1.02179,0.78561
16.3627,6927.3637,-2.97174,-1.48544,1.40076
16.3797,6927.3838,-3.34009,-1.70718,1.42824
16.4322,6927.4038,-3.6388,-1.40114,0.931
16.434,6927.4238,-3.87337,-1.37365,0.84914
16.439,6927.4439,-4.07252,-1.23132,1.2737
16.4613,6927.4639,-4.29609,-1.12442,1.72329
16.4827,6927.4839,-4.53677,-0.83609,1.69397
16.5022,6927.5039,-4.54105,-0.38344,1.06111
16.5217,6927.524,-4.0493,-0.84769,0.61518
16.5435,6927.544,-3.37369,-1.38342,0.57731
16.5647,6927.564,-3.06031,-1.26064,0.67444
16.5832,6927.5841,-2.77932,-0.84036,0.59197
16.6018,6927.6041,-2.32361,-1.04378,0.43314
16.6219,6927.6241,-1.86913,-1.33822,-0.03478
16.6457,6927.6441,-1.43358,-1.36998,-0.40374
16.6645,6927.6642,-0.79156,-0.87579,-0.41168
16.6886,6927.6842,0.12535,-0.51905,-0.31272
16.7104,6927.7042,0.96773,-0.22644,-0.21804
16.7308,6927.7243,1.43016,-0.14031,-0.171
16.7415,6927.7443,1.97994,-0.06823,-0.35731
16.7634,6927.7643,3.01047,-0.32724,-0.81058
16.7825,6927.7843,3.55597,-0.2069,-1.15449
16.8083,6927.8044,3.28963,0.11198,-1.08608
16.828,6927.8244,3.2206,-0.05785,-0.73911
16.844,6927.8444,3.70441,-0.08411,-0.70734
16.8724,6927.8645,4.2493,0.07899,-1.04393
16.8846,6927.8845,4.57795,-0.38771,-1.16244
16.9006,6927.9045,4.84184,-0.98941,-1.02438
16.9217,6927.9245,4.95851,-1.20139,-0.98345
16.9455,6927.9445,5.05137,-1.19589,-1.19603
16.9603,6927.9645,4.55229,-1.9894,-1.26262
16.9809,6927.9845,4.16072,-2.60576,-1.65785
17.0109,6928.0045,4.07459,-2.72488,-2.26749
17.0243,6928.0245,3.97563,-3.51473,-2.56498
17.042,6928.0445,4.51258,-3.25206,-2.79711
17.067,6928.0645,5.06847,-3.51107,-3.06956
17.0824,6928.0845,5.16193,-3.80001,-2.86858
17.1042,6928.1045,4.97745,-3.97532,-2.40127
17.13,6928.1245,4.89498,-4.25632,-2.1105
17.1445,6928.1445,4.99089,-3.9515,-2.20457
17.1638,6928.1644,4.94874,-3.62713,-2.41227
17.1868,6928.1844,4.99517,-3.93073,-2.37806
17.2098,6928.2044,5.02938,-4.05535,-2.29315
17.2247,6928.2244,5.28777,-3.95944,-2.38478
17.2477,6928.2444,5.87115,-3.89591,-2.64256
17.2808,6928.2644,6.36839,-4.26915,-2.98892
17.2984,6928.2844,7.11548,-4.44691,-3.50755
17.3137,6928.3044,8.21137,-4.31252,-3.8533
17.3372,6928.3244,8.83995,-4.18424,-3.99135
17.3414,6928.3444,8.59744,-2.62898,-3.88995
17.3624,6928.3644,8.02628,-1.9387,-3.47822
17.3839,6928.3844,7.24315,-1.53736,-3.02008
17.4012,6928.4044,6.35679,-0.56731,-2.59369
17.4216,6928.4244,5.50952,0.0851,-2.25344
17.4399,6928.4444,4.73921,0.19994,-2.21679
17.4612,6928.4644,4.03977,0.39114,-2.34996
17.4845,6928.4844,3.56513,0.78454,-2.70243
17.5028,6928.5044,3.29513,0.62816,-2.99259
17.5268,6928.5244,3.35927,1.33065,-3.00358
17.5473,6928.5444,3.39775,2.06858,-2.60957
17.5628,6928.5643,2.93838,1.33859,-2.54299
17.5812,6928.5843,2.75329,1.2659,-2.90707
17.6077,6928.6043,2.658,2.3569,-3.00603
17.623,6928.6243,2.09478,3.5206,-2.79589
17.6466,6928.6443,1.02943,3.81871,-2.25588
17.6629,6928.6643,-0.05119,4.18767,-2.33346
17.6802,6928.6843,-0.62724,3.61223,-3.01336
17.7011,6928.7043,-0.56126,3.25488,-3.15386
17.7375,6928.7243,-0.75552,3.23716,-2.99198
17.7453,6928.7443,-1.26742,3.52854,-3.1172
17.7668,6928.7643,-1.78116,3.92316,-3.06895
17.7901,6928.7843,-2.29246,3.85841,-2.86614
17.8028,6928.8043,-2.59544,3.7735,-2.9932
17.8219,6928.8243,-2.61316,3.65011,-3.1618
17.8471,6928.8443,-2.58567,3.32085,-3.33284
17.8588,6928.8643,-2.58995,2.96105,-3.57963
17.8834,6928.8843,-2.95952,2.78573,-3.56191
17.9079,6928.9043,-3.59787,2.75152,-3.4263
17.925,6928.9243,-4.10489,1.51391,-3.69875
17.9421,6928.9443,-4.17026,0.732,-4.26013
17.9608,6928.9642,-3.79152,0.46261,-4.8881
17.984,6928.9842,-3.56733,0.09548,-5.27356
18.0002,6929.0042,-3.47692,-0.20995,-5.4782
18.0256,6929.0242,-3.4922,-0.3871,-5.90458
18.0391,6929.0442,-3.44516,-0.37244,-5.87343
18.0588,6929.0642,-3.10735,-0.36328,-5.06159
18.081,6929.0842,-2.60339,-0.47934,-4.21371
18.0994,6929.1042,-2.35049,-0.78416,-3.81115
18.1188,6929.1242,-2.56307,-0.86785,-3.87956
18.1427,6929.1442,-2.74266,-0.99552,-4.32977
18.1604,6929.1642,-2.74877,-1.35593,-4.44645
18.1824,6929.1842,-2.62843,-1.69802,-3.93027
18.21,6929.2042,-2.56796,-1.31134,-3.52954
18.2365,6929.2242,-2.52092,-0.68581,-3.35972
18.2429,6929.2442,-2.47633,-0.41703,-3.15263
18.293,6929.2642,-2.53558,-0.0438,-3.32001
18.2965,6929.2842,-2.51664,0.40458,-3.48983
18.3089,6929.3042,-2.31567,0.47483,-3.01152
18.3277,6929.3242,-2.08537,0.56096,-2.14654
18.3422,6929.3442,-1.96259,1.01728,-1.50085
18.3587,6929.3641,-1.98824,1.79247,-1.31637
18.3798,6929.3841,-2.27474,1.45771,-1.68839
18.399,6929.4041,-2.93814,0.93787,-2.39699
18.4197,6929.4241,-3.5881,0.72345,-2.84476
18.4413,6929.4441,-4.05602,0.93848,-2.60041
18.4592,6929.4641,-4.30953,1.11502,-1.7678
18.4792,6929.4841,-4.41033,1.40396,-0.88632
18.5052,6929.5041,-4.40116,1.429,-0.61693
18.5212,6929.5241,-4.37551,-0.10183,-1.22658
18.5395,6929.5441,-3.85505,-1.16168,-2.12333
18.5626,6929.5641,-2.93631,-1.22765,-2.1441
18.5796,6929.5841,-2.24175,-0.86663,-1.45626
18.6009,6929.6041,-1.55453,-0.82631,-0.7611
18.6244,6929.6241,-0.75918,-0.76278,-0.23392
18.6413,6929.6441,-0.30409,-1.27835,0.02081
18.6627,6929.6641,-0.16176,-1.1739,-0.32005
18.6818,6929.6841,0.02517,-1.37854,-0.45261
18.7027,6929.7041,0.38619,-1.18062,-0.3848
18.7217,6929.7241,0.52791,-0.94849,-0.15817
18.7437,6929.7441,0.173,-0.93077,0.14421
18.7654,6929.7641,-0.21002,-1.11342,0.51561
18.7827,6929.784,-0.0854,-1.64365,0.87358
18.8035,6929.804,0.44789,-1.40786,0.40932
18.8247,6929.824,0.90726,-1.91915,-0.17222
18.8455,6929.844,1.04959,-2.48176,-0.36037
18.8625,6929.864,1.00866,-2.34615,-0.26507
18.8794,6929.884,0.93352,-1.77499,0.06724
18.8994,6929.904,0.86327,-0.44636,0.17414
18.9261,6929.924,0.76981,0.13091,0.4252
18.9648,6929.944,0.67879,0.94031,0.87236
18.9687,6929.964,0.75026,1.8224,1.7856
18.9827,6929.984,0.62931,0.94947,3.0452
19.0002,6930.004,0.32999,-0.20629,3.8656
19.0236,6930.024,0.70811,-0.70475,3.99754
19.0431,6930.044,1.57738,-1.13969,3.66523
19.0646,6930.064,2.26277,-1.33211,4.12705
19.0848,6930.084,2.647,-0.93566,5.41903
19.104,6930.104,2.38433,-0.49645,6.86189
19.1204,6930.124,1.39045,0.25675,7.66823
19.1402,6930.144,0.06915,1.06126,6.72811
19.1661,6930.164,-0.39511,1.05088,5.31579
19.1846,6930.184,0.5163,-0.02791,4.80755
19.2051,6930.2039,1.26156,-1.01385,5.10932
19.2266,6930.2239,1.24445,-1.24537,5.47645
19.2442,6930.2439,0.57372,-1.18672,5.30052
19.2697,6930.2639,0.08503,-1.30523,4.89185
19.2993,6930.2839,-0.28515,-1.45489,4.56198
19.3106,6930.3039,-0.53805,-1.54408,3.75198
19.3246,6930.3239,-0.47941,-2.07981,2.44411
19.3573,6930.3439,-0.30898,-3.03154,0.75507
19.3654,6930.3639,-0.00415,-3.91974,-1.23024
19.3825,6930.3839,0.13696,-3.80673,-2.50634
19.4009,6930.4039,-0.10922,-2.71633,-2.98831
19.4194,6930.4239,-0.48185,-1.54164,-3.0946
19.4418,6930.4439,-0.83371,-1.60272,-3.85941
19.4608,6930.4639,-1.23627,-2.40845,-5.40184
19.4792,6930.4839,-1.88195,-3.32048,-7.10066
19.499,6930.5039,-2.44639,-3.44937,-8.30101
19.5225,6930.5239,-2.91126,-3.55016,-8.67547
19.5389,6930.5439,-3.18493,-4.02541,-8.47694
19.5634,6930.5639,-3.80068,-4.46646,-7.91799
19.5828,6930.5839,-4.66017,-4.42492,-7.04873
19.6004,6930.6039,-5.05296,-3.81344,-6.17703
19.6225,6930.6238,-4.62596,-3.88308,-5.02066
19.6436,6930.6438,-4.3358,-4.46585,-4.63276
19.6649,6930.6638,-4.28143,-4.30825,-4.62726
19.6811,6930.6838,-3.67484,-3.50007,-5.02188
19.7027,6930.7038,-2.8569,-3.38584,-5.42933
19.7199,6930.7238,-2.18067,-3.46892,-5.10374
19.746,6930.7438,-1.3786,-3.67295,-4.48371
19.7619,6930.7638,-0.17642,-4.081,-4.30778
19.7819,6930.7838,1.01966,-4.33757,-4.62177
19.8017,6930.8038,2.22856,-4.71203,-4.99195
19.8259,6930.8238,3.88339,-5.03945,-5.13978
19.842,6930.8438,5.72943,-6.0034,-5.7427
19.8629,6930.8639,6.83509,-6.60999,-6.60402
19.885,6930.8839,7.29202,-5.21172,-7.08538
19.9065,6930.9039,7.57607,-2.86538,-7.08355
19.9198,6930.9239,7.27919,-1.92037,-5.96139
19.943,6930.944,6.72208,-0.775,-5.12267
19.961,6930.964,5.87665,-0.36694,-5.04571
19.9808,6930.984,4.95241,-0.91428,-5.21858
20.0028,6931.0041,4.42889,-0.09389,-5.07625
20.0198,6931.0241,4.52663,0.91221,-4.76593
20.0405,6931.0441,4.71356,0.45834,-4.89788
20.0671,6931.0641,5.19309,-0.62106,-5.60098
20.0991,6931.0842,5.64513,-1.87578,-6.81294
20.1049,6931.1042,5.53395,-2.43045,-7.73473
20.1311,6931.1242,4.62804,-1.03156,-6.84837
20.1499,6931.1443,3.51321,2.35629,-4.94491
20.1653,6931.1643,2.66166,3.9647,-3.57474
20.1892,6931.1843,2.48879,4.04106,-3.87956
20.206,6931.2043,2.91456,3.20723,-4.23814
20.2221,6931.2244,3.25298,2.30926,-4.31267
20.265,6931.2444,3.14119,1.8621,-4.51181
20.2678,6931.2644,2.60913,2.5817,-4.25463
20.2841,6931.2844,1.63052,3.30069,-3.54481
20.301,6931.3045,0.38374,3.75579,-3.6792
20.3219,6931.3245,-0.27355,3.90789,-4.70912
20.3381,6931.3445,-0.87525,3.84009,-5.1465
20.3618,6931.3646,-1.63822,3.98975,-5.40062
20.3805,6931.3846,-2.76649,5.21698,-5.76408
20.4008,6931.4046,-3.63514,5.13634,-5.91497
20.4214,6931.4246,-3.76159,4.23226,-6.19719
20.4392,6931.4446,-3.41706,3.19684,-6.28821
20.4596,6931.4646,-3.18615,2.22618,-5.99682
20.4815,6931.4846,-3.47753,1.13945,-5.59121
20.503,6931.5046,-3.92835,0.44795,-4.99745
20.5196,6931.5246,-3.82451,0.49865,-4.66697
20.5414,6931.5446,-3.3743,0.74544,-4.33466
20.5647,6931.5646,-3.2057,0.00202,-4.22898
20.585,6931.5846,-3.38774,-1.90571,-4.4886
20.606,6931.6046,-3.24785,-2.45183,-4.88627
20.6295,6931.6246,-2.91859,-1.98451,-4.21859
20.6413,6931.6446,-2.98884,-1.23498,-3.30352
20.6654,6931.6646,-3.23563,-1.42313,-2.70731
20.6819,6931.6846,-3.12506,-3.26306,-2.97793
20.7028,6931.7046,-2.62293,-4.28076,-3.26076
20.7234,6931.7246,-2.16478,-3.37301,-3.34628
20.7428,6931.7446,-2.21365,-2.05354,-2.91684
20.7621,6931.7646,-2.93203,-1.27896,-2.5155
20.7858,6931.7846,-3.82328,-0.64,-2.52528
20.8132,6931.8046,-4.06946,0.05333,-2.69876
20.8247,6931.8245,-3.89414,0.32761,-2.72564
20.8497,6931.8445,-3.95951,0.03073,-2.6786
20.8678,6931.8645,-4.41094,-1.24292,-2.50573
20.8884,6931.8845,-4.51723,-1.39136,-2.44525
20.9028,6931.9045,-4.39994,-1.04134,-2.0995
20.9251,6931.9245,-4.41705,-1.00285,-1.18198
20.9415,6931.9445,-4.56487,-0.32296,-0.51247
20.9627,6931.9645,-4.76951,0.34105,-0.22659
20.9809,6931.9845,-4.91001,0.43207,0.14604
21.0097,6932.0045,-5.09938,0.55302,0.60052
21.0272,6932.0245,-5.43963,1.29033,0.92123
21.0443,6932.0445,-5.81532,2.76496,0.98842
21.0654,6932.0645,-5.67359,4.19866,0.92733
21.0864,6932.0845,-5.71208,3.27565,0.25355
21.1037,6932.1045,-5.40054,1.95679,-0.50759
21.1246,6932.1245,-4.73286,1.60798,-0.59128
21.1493,6932.1445,-4.11955,1.49375,-0.47704
21.1669,6932.1645,-3.77136,0.39053,-0.87227
21.1916,6932.1845,-3.40667,-0.14031,-1.33653
21.2117,6932.2045,-2.93264,-0.32663,-1.38418
21.2255,6932.2245,-2.57712,-0.59907,-1.3121
21.2408,6932.2444,-2.04933,-0.96193,-1.25468
21.2609,6932.2644,-1.17274,-0.99491,-1.12334
21.2796,6932.2844,-0.22162,-0.67115,-0.64015
21.3022,6932.3044,0.39046,-0.23194,-0.10136
21.3233,6932.3244,0.70873,0.12297,0.16009
21.3434,6932.3444,1.0783,0.19811,0.28776
21.3632,6932.3644,1.67695,0.28485,0.48629
21.3866,6932.3844,2.31041,0.16084,0.6781
21.4024,6932.4044,2.74963,-0.02242,0.95849
21.4197,6932.4244,3.12836,-0.41826,1.29263
21.4428,6932.4444,3.84857,-0.63389,1.33845
21.4625,6932.4644,4.28045,-0.50194,1.04157
21.4815,6932.4844,4.36475,-0.70231,0.98903
21.5047,6932.5044,4.47654,-0.86113,1.30118
21.5265,6932.5244,4.61093,-0.46712,1.73184
21.5407,6932.5444,4.5303,-0.21362,1.74895
21.5631,6932.5644,4.21448,-0.66077,1.37632
21.5908,6932.5844,3.9457,-1.29729,0.84731
21.611,6932.6044,3.83391,-1.5899,0.37267
21.6341,6932.6244,3.86812,-1.65953,0.19124
21.6409,6932.6443,3.88034,-1.94725,0.38122
21.6638,6932.6643,3.8669,-2.4897,0.57487
21.696,6932.6843,4.13873,-3.45914,-0.09586
21.7049,6932.7043,4.42828,-4.63506,-1.11295
21.7226,6932.7243,4.69768,-4.26365,-1.46359
21.7416,6932.7443,4.82596,-3.06147,-0.83074
21.7599,6932.7643,4.68424,-2.01567,0.07884
21.7819,6932.7843,4.07398,-2.19526,0.7117
21.804,6932.8043,2.5627,-3.27222,0.14115
21.8201,6932.8243,2.231,-3.50923,0.09717
21.8394,6932.8443,2.90295,-3.31315,0.42032
21.8633,6932.8643,3.56391,-3.41944,0.4643
21.8854,6932.8843,3.62011,-3.20258,0.05441
21.9015,6932.9043,3.24076,-2.19221,0.03914
21.9265,6932.9243,2.69587,-1.86784,0.2059
21.9438,6932.9443,2.53338,-2.31499,0.30059
21.9589,6932.9643,3.0801,-2.85622,0.19307
21.9835,6932.9843,3.78504,-3.32781,-0.07021
22.0035,6933.0043,3.88889,-4.26182,-0.39641
22.024,6933.0243,4.19371,-4.75418,-0.47094
22.0414,6933.0443,4.58589,-4.97531,-0.48682
22.0608,6933.0642,4.75326,-5.23371,-0.7782
22.0813,6933.0842,4.90659,-5.72606,-1.33653
22.1042,6933.1042,5.22607,-5.82258,-1.68228
22.1214,6933.1242,5.36169,-5.3571,-1.62669
22.1408,6933.1442,5.08374,-5.08649,-1.58576
22.1631,6933.1642,4.57856,-5.0535,-1.51796
22.1888,6933.1842,4.10636,-5.07977,-1.77513
22.211,6933.2042,3.69891,-4.32413,-2.11844
22.2372,6933.2242,3.38126,-3.47686,-2.0433
22.2466,6933.2442,2.93961,-3.44387,-2.01215
22.2808,6933.2642,2.67388,-2.95396,-2.25711
22.2845,6933.2842,2.52177,-1.81775,-2.42693
22.3214,6933.3042,2.30919,-0.13848,-2.38783
22.3232,6933.3243,1.98971,0.9623,-2.21801
22.3437,6933.3443,1.97016,1.25857,-2.37745
22.3618,6933.3643,2.35928,1.97511,-2.50939
22.3792,6933.3843,2.39349,2.62324,-2.37439
22.4015,6933.4044,2.10272,3.03741,-2.28826
22.4204,6933.4244,1.98177,3.02397,-2.42265
22.4425,6933.4444,1.76002,2.80467,-2.87958
22.4659,6933.4645,1.02943,2.73931,-3.01519
22.4846,6933.4845,0.59633,3.08078,-3.2125
22.5042,6933.5046,0.27868,3.57864,-3.38354
22.524,6933.5247,0.12657,3.47173,-3.78183
22.5418,6933.5447,-0.04447,3.46196,-4.48493
22.5673,6933.5648,-0.56737,3.82237,-5.1239
22.5884,6933.5849,-1.32057,4.76127,-5.42383
22.6078,6933.6049,-1.99069,5.77592,-5.89664
22.6234,6933.625,-1.88806,5.14428,-6.57287
22.6439,6933.645,-1.46962,4.19255,-7.07195
22.6646,6933.6651,-1.84469,3.66416,-7.00353
22.6852,6933.6852,-2.25153,3.83703,-6.61807
22.7088,6933.7052,-2.0982,3.47784,-6.32058
22.7236,6933.7253,-1.75734,2.54016,-6.16359
22.7462,6933.7453,-1.48978,1.41801,-5.73232
22.7662,6933.7654,-1.39082,0.62632,-5.04876
22.783,6933.7855,-1.31202,-0.12199,-4.44339
22.803,6933.8055,-1.52704,-0.81349,-3.8649
22.829,6933.8256,-2.08598,-0.68032,-4.12757
22.844,6933.8457,-2.49893,-0.86907,-4.3536
22.8628,6933.8657,-2.26497,-1.44634,-4.60222
22.8849,6933.8858,-1.91005,-1.12991,-4.7024
22.9061,6933.9058,-1.99558,-0.74385,-4.68652
22.9262,6933.9258,-2.02795,-1.03828,-4.72744
22.9484,6933.9459,-1.65349,-1.36754,-4.90948
22.9702,6933.9659,-1.33767,-1.5001,-5.0115
22.9843,6933.9859,-1.34684,-1.58928,-5.09519
23.0104,6934.006,-1.53498,-1.29057,-4.8765
23.0223,6934.026,-1.76039,-0.30402,-4.33588
23.0425,6934.046,-1.92777,0.74056,-3.96447
23.0634,6934.066,-2.0475,0.46078,-4.03106
23.0844,6934.086,-1.85141,-0.38955,-4.36154
23.1059,6934.106,-1.59363,-0.73407,-4.66514
23.1264,6934.126,-1.76894,-0.27348,-5.14772
23.1437,6934.146,-2.1544,0.45284,-5.19048
23.1642,6934.166,-2.69929,0.50598,-4.71523
23.1854,6934.186,-3.22464,-0.359,-4.21615
23.2049,6934.206,-3.22586,-0.03524,-3.77938
23.2255,6934.226,-3.07864,1.33371,-3.5723
23.2473,6934.246,-2.95524,2.31781,-2.91623
23.2706,6934.266,-2.87339,2.59453,-1.99688
23.2939,6934.2859,-3.41095,1.12418,-1.76902
23.3062,6934.3059,-4.04075,-0.26371,-2.17097
23.3277,6934.3259,-4.11406,-0.04135,-2.51489
23.3445,6934.3459,-3.98394,1.10219,-2.36645
23.3642,6934.3659,-4.05908,1.74909,-1.82095
23.3812,6934.3859,-4.36634,1.10158,-1.67923
23.4012,6934.4059,-4.22523,-0.8086,-1.93457
23.4232,6934.4259,-3.36575,-3.07369,-1.93029
23.4424,6934.4459,-2.09881,-3.74991,-1.86737
23.4674,6934.4659,-0.78118,-3.4341,-1.56805
23.4855,6934.4859,0.62198,-2.63936,-1.2614
23.5018,6934.5059,1.68794,-1.19589,-0.48926
23.5221,6934.5259,1.40878,0.05639,0.4698
23.5453,6934.5459,0.308,-0.23561,1.16618
23.565,6934.5659,0.95613,-1.01507,0.85281
23.5812,6934.5859,2.29087,-1.49032,0.65733
23.6035,6934.6059,2.32202,-2.00101,0.73552
23.6289,6934.6259,1.63296,-1.63693,1.48139
23.6425,6934.6459,0.98789,-0.57403,3.00122
23.6689,6934.6659,0.51997,-0.09022,4.04092
23.6861,6934.6859,0.19377,0.06983,5.11298
23.7024,6934.7058,0.23653,-0.8764,6.32433
23.7236,6934.7258,0.75026,-3.42616,6.1313
23.7467,6934.7458,1.93779,-5.4585,5.71896
23.7674,6934.7658,2.64211,-4.85069,5.87107
23.7881,6934.7858,2.19007,-2.49886,6.54363
23.8016,6934.8058,1.15221,-0.70536,7.19664
23.8237,6934.8258,0.29212,-0.43719,7.60043
23.8484,6934.8458,-0.01882,-1.69069,7.54484
23.8623,6934.8658,0.14429,-3.31925,6.77087
23.8868,6934.8858,0.38619,-4.15492,5.87351
23.9022,6934.9058,0.46377,-3.78168,5.73423
23.9325,6934.9258,0.42467,-3.0352,6.29867
23.9562,6934.9458,0.10886,-2.9674,6.50209
23.9688,6934.9658,-0.2314,-3.31498,6.09709
23.9872,6934.9858,-0.42076,-2.0737,6.08731
24.0058,6935.0058,-0.56798,-0.9546,6.57662
24.0278,6935.0258,-0.45986,-1.51781,6.06716
24.0458,6935.0458,0.06426,-1.73162,4.6359
24.0643,6935.0658,0.22492,-0.70231,3.28222
24.0833,6935.0858,0.12718,0.62632,2.01162
24.1042,6935.1058,0.28906,1.33554,0.52233
24.1221,6935.1257,0.2292,1.80041,-1.0537
24.1442,6935.1457,-0.06463,2.19564,-2.19235
24.163,6935.1657,-0.34196,2.54994,-3.09888
24.1872,6935.1857,-0.48613,1.81446,-4.16484
24.2084,6935.2057,-0.34563,0.43268,-5.21003
24.2261,6935.2257,-0.21735,-0.39138,-6.16176
24.2459,6935.2457,-0.3157,-0.52638,-7.00414
24.2723,6935.2657,-0.73475,-0.46529,-7.72374
24.3274,6935.2857,-1.35905,-0.61129,-8.20693
24.3341,6935.3057,-1.93693,-0.651,-8.37981
24.3353,6935.3257,-2.41707,0.53347,-7.96014
24.3465,6935.3458,-2.71212,0.66481,-7.93082
24.3657,6935.3658,-2.86117,-0.68215,-8.31994
24.3828,6935.3858,-2.91065,-2.42922,-8.58323
24.4013,6935.4058,-3.26434,-3.85743,-8.77504
24.4208,6935.4259,-3.93202,-3.61308,-8.63698
24.4434,6935.4459,-4.22768,-1.54286,-7.21489
24.4624,6935.4659,-3.99982,1.00262,-6.03836
24.4817,6935.486,-3.59849,1.88776,-5.98399
24.5042,6935.506,-3.32909,0.96169,-6.92595
24.5252,6935.526,-3.19898,-0.32602,-7.93143
24.5438,6935.546,-3.09819,-1.64304,-7.48
24.5647,6935.5661,-2.9076,-1.35899,-5.82639
24.5864,6935.5861,-2.82696,-0.3474,-3.29619
24.6099,6935.6061,-2.73411,0.72528,-1.34081
24.6271,6935.6262,-1.93938,1.18954,-0.26446
24.6434,6935.6462,-0.50995,0.08693,-0.12885
24.6629,6935.6662,0.7973,-0.68032,-0.10991
24.6869,6935.6862,1.19009,-0.494,0.30914
24.7035,6935.7063,0.98423,0.08326,0.75018
24.7235,6935.7263,0.7973,0.64831,0.94994
24.7488,6935.7463,0.96101,1.34104,1.25048
24.7673,6935.7664,1.09785,1.8169,1.76666
24.7916,6935.7864,0.95735,1.85722,1.92121
24.8093,6935.8064,0.92864,2.17792,1.7911
24.8436,6935.8264,1.18215,3.3856,1.71596
24.8545,6935.8465,1.3538,4.96835,1.57913
24.8647,6935.8665,0.25546,5.33976,1.10449
24.8828,6935.8865,-1.37799,4.25303,0.64512
24.9101,6935.9066,-1.95831,4.31595,0.78989
24.9303,6935.9266,-1.88745,5.2408,1.03179
24.9474,6935.9465,-2.0475,6.01843,1.29813
24.9672,6935.9665,-2.26985,6.06547,1.7068
24.989,6935.9865,-2.11836,5.20293,1.63716
25.0078,6936.0065,-1.03468,3.62079,1.54553
25.0246,6936.0265,-0.46353,3.23961,1.46612
25.0495,6936.0465,-0.31386,2.58415,1.36533
25.0662,6936.0665,-0.13671,1.39724,1.09227
25.0849,6936.0865,0.32816,0.53408,0.77156
25.1085,6936.1065,0.55112,0.30012,0.50034
25.124,6936.1265,0.47599,0.32761,0.36167
25.1431,6936.1465,0.0606,0.26958,0.29937
25.1637,6936.1665,-0.13488,-0.33579,0.4252
25.1836,6936.1865,0.19193,-1.48422,0.32197
25.208,6936.2065,0.65436,-2.71877,0.09289
25.2267,6936.2265,0.7466,-3.81589,-0.37686
25.2448,6936.2465,0.59144,-4.80427,-1.04515
25.265,6936.2665,0.30555,-5.41819,-1.37868
25.2858,6936.2865,0.35809,-6.54157,-1.42999
25.3027,6936.3065,0.68918,-7.80667,-1.14289
25.3274,6936.3265,1.38923,-7.96916,-0.24919
25.3505,6936.3465,1.71665,-6.04616,0.37572
25.3633,6936.3666,0.82357,-3.41516,0.79417
25.3825,6936.3866,-0.94305,-1.45673,1.08433
25.4044,6936.4066,-1.85996,-1.50498,0.78684
25.4249,6936.4267,-0.96688,-2.3266,0.49423
25.4449,6936.4467,0.60671,-2.70656,0.5602
25.4671,6936.4667,1.38617,-3.19708,0.67627
25.4872,6936.4867,1.41305,-3.45181,0.53638
25.5107,6936.5068,1.18031,-3.58498,0.27676
25.5359,6936.5268,0.99705,-3.22213,0.15948
25.5463,6936.5468,0.54868,-2.31682,0.47591
25.5658,6936.5669,-0.14343,-3.31254,0.61824
25.586,6936.5869,-0.06891,-5.30273,-0.16062
25.604,6936.6069,0.68551,-5.1995,-0.32616
25.627,6936.6269,0.84984,-3.57032,0.56387
25.6465,6936.647,0.80952,-1.50376,1.56141
25.6723,6936.667,0.80524,-1.00041,2.16983
25.6881,6936.687,0.84739,-2.53185,1.65304
25.7066,6936.7071,1.26583,-1.97902,-0.18016
25.7225,6936.7271,1.10884,-0.03524,-0.04272
25.7476,6936.7471,0.63542,1.28911,0.77218
25.7675,6936.7671,0.62259,1.54995,1.31462
25.7831,6936.7872,0.75087,0.77415,1.51254
25.8101,6936.8072,0.75087,-0.04135,1.0043
25.8301,6936.8272,0.68551,-0.02425,0.61335
25.8424,6936.8473,0.66413,0.30928,0.85098
25.8637,6936.8673,0.78142,1.0973,1.37266
25.8857,6936.8873,0.9488,1.87554,2.05621
25.9089,6936.9073,1.20169,2.47969,2.95846
25.9262,6936.9273,1.63358,3.13942,4.28587
25.9457,6936.9473,2.1241,3.96104,5.78982
25.966,6936.9673,2.4503,4.47477,7.15388
25.9946,6936.9873,2.46374,4.48882,8.63768
26.0076,6937.0073,2.26277,3.40515,9.52282
26.0277,6937.0273,2.40815,1.53285,9.43791
26.0467,6937.0473,2.76001,-0.16352,8.99076
26.0707,6937.0673,2.84553,-0.76034,8.67433
26.0877,6937.0873,3.063,-0.77989,8.48068
26.1053,6937.1073,3.35499,-1.0615,7.7281
26.1245,6937.1273,3.14486,-0.63511,6.76415
26.1465,6937.1473,2.42892,0.48827,6.08854
26.1654,6937.1672,1.91641,0.62083,5.53326
26.189,6937.1872,1.18703,0.77049,4.99875
26.2034,6937.2072,0.36908,0.2317,4.70309
26.2258,6937.2272,0.47415,-0.19285,4.44042
26.2452,6937.2472,0.578,-0.60029,4.05252
26.2628,6937.2672,0.52852,-0.33518,3.37996
26.2838,6937.2872,0.20415,-0.2631,2.29262
26.3142,6937.3072,0.05327,-0.47934,0.64023
26.3243,6937.3272,-0.11778,-0.73041,-1.42877
26.3925,6937.3472,-0.55638,-0.69498,-3.25648
26.3952,6937.3672,-1.19351,-0.09877,-4.28884
26.3966,6937.3872,-1.74146,0.46017,-4.84473
26.4034,6937.4072,-1.65471,-0.03219,-5.26256
26.4251,6937.4272,-1.21061,-1.28446,-5.53745
26.4419,6937.4472,-1.0017,-3.19342,-6.22101
26.4617,6937.4672,-1.21672,-3.47991,-6.82393
26.4833,6937.4872,-1.66632,-1.53675,-6.55454
26.5056,6937.5072,-2.03039,0.60372,-5.81784
26.5245,6937.5272,-1.92349,0.5182,-5.89542
26.5463,6937.5472,-1.41647,-1.31378,-6.41099
26.5648,6937.5672,-0.97421,-2.42495,-6.57531
26.585,6937.5873,-0.58203,-2.42739,-6.6083
26.6069,6937.6073,-0.59364,-1.91854,-6.38961
26.6254,6937.6273,-0.66083,-0.7133,-6.05669
26.6537,6937.6474,-0.39511,-0.81959,-6.58142
26.6721,6937.6674,-0.22773,-1.98024,-7.37371
26.6852,6937.6874,-0.15321,-3.05475,-7.45923
26.7056,6937.7074,-0.29493,-2.32599,-6.794
26.7262,6937.7275,-1.30896,-0.75668,-5.93451
26.745,6937.7475,-2.48305,0.32211,-5.61992
26.7686,6937.7675,-3.34375,0.36304,-5.46048
26.8055,6937.7876,-3.09147,-0.04318,-5.00783
26.8133,6937.8076,-2.69013,-0.45918,-4.60955
26.8278,6937.8276,-3.3181,-1.13114,-4.05061
26.8471,6937.8476,-4.11406,-1.50926,-3.80931
26.8648,6937.8677,-4.63268,-1.51781,-4.46355
26.8858,6937.8877,-4.87397,-0.4824,-4.38903
26.9108,6937.9077,-4.75669,0.68252,-3.0439
26.9311,6937.9278,-4.17942,0.10159,-2.11355
26.9448,6937.9478,-3.1776,-0.921,-2.2962
26.9736,6937.9678,-1.78544,-1.10914,-2.48435
26.986,6937.9878,-0.19841,-1.08715,-2.05247
27.005,6938.0079,1.24079,-1.89594,-1.79896
27.0256,6938.0279,2.29514,-1.9216,-1.7623
27.0447,6938.0479,2.41609,-1.8208,-1.92785
27.0638,6938.068,1.59876,-1.67725,-2.1386
27.0907,6938.088,1.14672,-1.93931,-1.9871
27.1049,6938.108,1.02088,-2.07126,-1.77452
27.1247,6938.128,1.10212,-1.88128,-1.07569
27.147,6938.148,1.69222,-2.00284,-0.32921
27.1679,6938.168,2.33424,-2.26612,-1.02866
27.1874,6938.188,3.01657,-2.67662,-1.70061
27.2058,6938.208,3.55291,-2.77009,-0.89365
27.225,6938.228,3.80276,-3.12805,0.33907
27.2479,6938.248,4.08253,-3.18059,0.15948
27.2701,6938.268,4.48448,-3.80123,-0.80935
27.2976,6938.288,4.851,-4.48112,-1.87654
27.3042,6938.308,5.10146,-5.08527,-2.90584
27.3309,6938.328,5.74225,-5.35954,-3.5442
27.3471,6938.348,6.7343,-4.42187,-4.27785
27.3641,6938.368,7.74956,-3.83116,-5.04021
27.3858,6938.3879,8.27735,-3.62408,-5.81356
27.403,6938.4079,8.50703,-3.29604,-6.36029
27.4254,6938.4279,8.34332,-3.24962,-6.83249
27.4451,6938.4479,7.9206,-3.34674,-7.70297
27.4632,6938.4679,7.33906,-3.54283,-8.56124
27.4855,6938.4879,6.86564,-3.53611,-8.68219
27.5073,6938.5079,6.5938,-2.69739,-8.08781
27.5238,6938.5279,6.36289,-1.64182,-7.05973
27.5453,6938.5479,5.85832,-1.20261,-6.9064
27.5657,6938.5679,4.862,-0.2747,-6.4623
27.5845,6938.5879,3.4338,1.26956,-5.46476
27.6185,6938.6079,2.01842,2.30071,-4.06649
27.6363,6938.6279,0.89993,2.04597,-3.41531
27.6472,6938.6479,0.33671,1.8114,-3.62239
27.673,6938.6679,-0.09884,2.19686,-3.31329
27.6944,6938.6879,-0.82699,3.02641,-2.60896
27.7075,6938.7079,-1.35478,3.56275,-2.21496
27.7265,6938.7279,-1.59729,3.78694,-2.32552
27.7464,6938.7479,-2.07193,4.40575,-2.74213
27.7632,6938.7679,-2.91554,5.18032,-2.656
27.7855,6938.7879,-3.93446,5.21575,-2.53322
27.8065,6938.8078,-5.00225,5.66841,-2.40982
27.8262,6938.8278,-5.87946,5.99705,-2.24611
27.8542,6938.8478,-6.59906,6.13083,-2.45686
27.8671,6938.8678,-7.13478,5.75454,-2.80811
27.8831,6938.8878,-7.6754,4.52487,-2.84293
27.9053,6938.9078,-7.83117,3.76617,-2.48007
27.9245,6938.9278,-7.80796,4.62688,-2.42204
27.9558,6938.9478,-7.89226,4.60183,-2.44953
27.9646,6938.9678,-7.64302,3.98975,-2.91195
27.9921,6938.9878,-7.1354,2.40333,-3.33284
28.0117,6939.0078,-6.48177,1.17427,-3.33101
28.025,6939.0278,-6.03217,1.19015,-3.34567
28.0497,6939.0478,-5.83059,2.01299,-3.38354
28.0657,6939.0678,-5.45674,2.35385,-2.96143
28.0852,6939.0878,-5.1397,2.37645,-2.54788
28.107,6939.1078,-5.0444,2.1767,-2.74885
28.1248,6939.1278,-4.94728,2.61836,-3.11293
28.1456,6939.1478,-4.58381,3.87002,-2.96754
28.1696,6939.1678,-4.09206,5.5725,-2.71464
28.1851,6939.1878,-3.84039,6.43199,-2.74335
28.209,6939.2077,-3.74326,6.14977,-3.3982
28.2316,6939.2277,-3.44455,5.25302,-4.15384
28.2516,6939.2477,-3.14278,4.56946,-4.29312
28.2851,6939.2677,-2.85934,4.62138,-3.73235
28.2989,6939.2877,-3.01572,5.1058,-2.77817
28.3117,6939.3077,-4.16354,4.7179,-2.56865
28.3246,6939.3277,-5.18002,2.52062,-2.23817
28.3457,6939.3477,-4.91734,0.56463,-1.36524
28.3661,6939.3677,-3.6333,-1.57035,-0.92786
28.3848,6939.3877,-2.44395,-1.70535,-0.7837
28.4299,6939.4077,-2.40424,-0.54837,-0.62854
28.4319,6939.4277,-2.92104,-0.25638,-0.90587
28.443,6939.4477,-1.95404,-1.29973,-1.30904
28.4654,6939.4677,-0.30653,-1.97718,-0.90343
28.4836,6939.4877,0.40757,-2.74199,-0.36159
28.5074,6939.5077,0.69345,-2.59171,-0.12274
28.5263,6939.5277,0.95796,-1.59661,0.13443
28.5434,6939.5477,1.17848,-0.59052,0.20102
28.5638,6939.5677,1.49552,-0.14581,0.234
28.5867,6939.5877,1.78263,-0.30402,0.42826
28.6073,6939.6077,1.96589,-1.01996,0.45819
28.6256,6939.6276,2.31347,-1.63999,0.47468
28.6466,6939.6476,2.40632,-1.49216,0.5486
28.6646,6939.6676,2.29881,-0.95521,0.80883
28.6849,6939.6876,2.31836,-0.91367,1.28897
28.7084,6939.7076,2.76917,-1.202,1.89861
28.733,6939.7276,3.44601,-1.7365,2.24375
28.7568,6939.7476,4.03061,-1.50804,2.07637
28.7663,6939.7676,4.17294,-2.05232,2.22848
28.7881,6939.7876,3.95914,-2.81101,2.44595
28.8046,6939.8076,3.81864,-3.61186,2.46305
28.8255,6939.8276,4.23525,-2.2985,2.41785
28.8479,6939.8476,4.43745,-3.46098,2.97618
28.8675,6939.8676,4.78014,-3.4567,3.40928
28.9024,6939.8876,4.64148,-3.66928,3.70005
28.914,6939.9076,4.40385,-3.62835,4.09834
28.9247,6939.9276,4.16622,-3.51168,4.35612
28.9461,6939.9476,4.00007,-3.76396,4.1863
28.9625,6939.9676,4.09658,-4.20745,4.00671
28.9973,6939.9876,4.43928,-3.89408,4.16064
29.0104,6940.0076,4.42279,-2.90387,4.42087
29.0261,6940.0275,4.03916,-2.85683,4.22479
29.0454,6940.0475,3.99946,-2.74382,4.17408
29.0677,6940.0675,4.2829,-3.05903,4.18264
29.0842,6940.0875,4.92492,-3.72853,4.09223
29.1042,6940.1075,5.64024,-4.00281,4.00426
29.1273,6940.1275,5.98782,-3.79695,3.79107
29.1466,6940.1475,6.00798,-3.64118,3.58216
29.1668,6940.1675,5.96766,-3.36079,3.4441
29.1881,6940.1875,5.57976,-3.07674,3.37813
29.2073,6940.2076,4.87849,-3.06025,3.63102
29.2262,6940.2276,4.36475,-3.41088,3.89675
29.2529,6940.2476,4.05749,-3.64607,3.61331
29.274,6940.2677,3.78077,-3.9515,3.20647
29.3104,6940.2877,3.51382,-4.5361,2.65242
29.3137,6940.3077,3.19617,-4.8452,1.90777
29.3313,6940.3277,2.63906,-3.9515,1.41908
29.3466,6940.3478,1.75147,-3.35957,1.05317
29.3694,6940.3678,1.63724,-3.10851,0.8241
29.3847,6940.3878,2.03247,-2.61309,0.85647
29.4047,6940.4079,2.54438,-2.16533,0.68482
29.4259,6940.4279,2.90601,-1.76644,-0.16428
29.4437,6940.4479,2.83515,-0.66138,-0.93947
29.464,6940.4679,2.26399,0.75277,-1.64624
29.4859,6940.488,1.47353,2.01421,-2.17891
29.5188,6940.508,1.1064,3.08811,-2.33957
29.5371,6940.528,1.39534,2.9018,-2.50267
29.5495,6940.5481,1.94756,2.30193,-2.64745
29.5643,6940.5681,1.75392,2.45648,-3.18318
29.5843,6940.5881,0.8199,3.38682,-3.64682
29.607,6940.6081,0.03005,4.26952,-3.52587
29.6254,6940.6282,-0.12755,4.4198,-3.61567
29.6505,6940.6482,-0.05302,4.47844,-4.16423
29.6674,6940.6682,0.03922,4.7741,-4.77387
29.6847,6940.6883,0.05266,4.62993,-5.33709
29.7045,6940.7083,0.18705,3.68981,-5.83555
29.7277,6940.7284,-0.08418,3.1046,-6.03653
29.7483,6940.7484,-0.78728,3.09117,-6.12694
29.7665,6940.7685,-1.67365,2.8065,-6.19535
29.7913,6940.7885,-2.48915,1.66052,-6.5295
29.8072,6940.8086,-3.07436,1.05576,-6.79706
29.8262,6940.8286,-3.68156,1.52002,-6.52156
29.8491,6940.8486,-4.01754,1.81507,-6.14587
29.8656,6940.8686,-3.99433,1.36425,-6.32241
29.8955,6940.8887,-3.89781,0.72345,-6.45742
29.9093,6940.9087,-3.71638,0.23781,-6.22468
29.9278,6940.9287,-3.2228,-0.88618,-6.15137
29.9453,6940.9488,-2.68707,-1.78537,-6.28271
29.968,6940.9688,-2.64126,-0.95398,-6.15565
29.9862,6940.9888,-3.21303,0.28302,-5.90153
30.0102,6941.0088,-3.67545,0.91771,-5.83372
30.0342,6941.0289,-3.60765,0.89449,-5.79585
30.0521,6941.0489,-3.31199,0.51331,-5.6077
30.0671,6941.0689,-3.15011,0.49438,-5.42017
30.0905,6941.089,-3.39812,0.82119,-5.13733
30.105,6941.109,-4.03281,1.30194,-4.71401
30.127,6941.129,-4.82816,1.80529,-4.2809
30.1512,6941.149,-5.46651,2.2439,-4.07809
30.1666,6941.1691,-5.36083,3.59941,-3.95653
30.1845,6941.1891,-4.92834,4.29457,-3.89606
30.2401,6941.2091,-4.87092,4.2909,-3.67187
30.2419,6941.2292,-5.33762,4.45767,-3.40736
30.2439,6941.2492,-6.22643,5.22003,-3.59918
30.2652,6941.2692,-6.87639,5.61098,-3.8985
30.2853,6941.2892,-6.67175,5.6458,-3.34811
30.3045,6941.3092,-6.18367,4.30251,-2.85392
30.3277,6941.3292,-5.20262,2.00688,-2.7232
30.3479,6941.3492,-4.04564,-0.11527,-2.98404
30.3642,6941.3693,-2.5985,-1.28996,-3.21433
30.3857,6941.3893,-1.2607,-1.17267,-2.63584
30.4049,6941.4093,-0.19474,-0.87091,-1.64563
30.4259,6941.4293,0.46071,-0.70475,-0.69696
30.4473,6941.4494,0.92864,0.0344,0.11
30.4654,6941.4694,1.54439,0.38503,0.76301
30.4887,6941.4894,2.37089,0.41496,1.12709
30.511,6941.5095,3.10087,0.23781,1.44107
30.5292,6941.5295,3.45884,0.08693,1.68664
30.5562,6941.5495,3.52359,-0.16047,1.87845
30.5805,6941.5695,3.56941,-0.79638,1.85218
30.5895,6941.5896,4.03305,-0.22217,1.70069
30.6091,6941.6096,4.49487,-0.16536,1.89495
30.6277,6941.6296,4.59322,-0.25882,2.18083
30.6466,6941.6497,4.47532,-0.84036,2.31828
30.671,6941.6697,4.39408,-1.19772,2.67074
30.6925,6941.6897,4.2102,-0.59357,3.11484
30.7098,6941.7097,3.58224,-1.27835,3.21808
30.7312,6941.7298,3.19922,-1.84157,3.04032
30.7511,6941.7498,2.99031,-2.52391,2.86805
30.7702,6941.7698,2.84492,-3.36507,2.55224
30.7944,6941.7899,2.88524,-4.20073,2.09897
30.8167,6941.8099,2.90173,-4.64361,2.28407
30.8414,6941.8299,2.37578,-4.54587,2.62921
30.8531,6941.8499,1.87426,-4.00526,2.71228
30.8764,6941.87,1.67878,-3.38889,2.90104
30.887,6941.89,2.06668,-3.19342,3.33537
30.9077,6941.91,2.8718,-3.04986,3.85766
30.9293,6941.9301,3.603,-3.12133,3.88148
30.9478,6941.9501,3.95181,-3.42188,3.6579
30.9681,6941.9701,3.97319,-3.3553,3.81734
30.9901,6941.9901,3.9121,-2.83973,3.86682
31.0095,6942.0101,3.60911,-2.34309,3.41905
31.0308,6942.0301,3.23526,-1.95092,3.27856
31.0528,6942.0501,3.50466,-1.68458,3.35247
31.0802,6942.0701,3.53581,-1.4891,2.95846
31.094,6942.0901,3.25542,-1.38281,2.57667
31.1092,6942.1102,3.18212,-0.9607,2.66708
31.1284,6942.1302,3.51993,-1.29363,2.84545
31.1473,6942.1502,4.11491,-2.60637,2.9157
31.1681,6942.1703,4.48509,-2.94663,2.94197
31.1868,6942.1903,4.38491,-2.59538,3.06536
31.2125,6942.2103,4.1705,-2.44877,3.16127
31.2378,6942.2303,4.11247,-2.5569,3.35369
31.254,6942.2504,3.89866,-2.1018,3.62064
31.2768,6942.2704,3.33606,-1.32722,3.98166
31.3065,6942.2904,2.88707,-1.30096,4.21807
31.3209,6942.3105,2.94571,-1.44451,4.54854
31.3308,6942.3305,2.86752,-1.37548,5.1814
31.3763,6942.3505,2.71664,-1.57279,6.40252
31.3815,6942.3705,2.54254,-1.99979,7.63219
31.3923,6942.3906,2.46435,-3.41944,7.68289
31.4105,6942.4106,2.38677,-3.23251,6.37137
31.4272,6942.4307,1.82661,-1.92404,4.91567
31.4469,6942.4508,1.26706,-1.10242,3.54917
31.4754,6942.4708,0.97079,-0.45246,2.85828
31.4908,6942.4909,-0.16481,-0.82326,2.6066
31.51,6942.5109,-1.25948,-1.17695,2.79719
31.5305,6942.531,-2.22587,-1.02179,2.88271
31.5494,6942.5511,-3.0481,-0.58014,3.01772
31.57,6942.5711,-3.14461,-0.97536,3.14722
31.6004,6942.5912,-2.82391,-1.86417,2.84606
31.621,6942.6113,-3.02305,-1.89288,2.30361
31.6317,6942.6313,-3.88071,-1.32356,2.05866
31.6539,6942.6513,-4.2625,-0.46285,1.9652
31.6674,6942.6714,-3.96378,0.23537,1.42153
31.6891,6942.6914,-4.0658,0.10098,0.5095
31.7101,6942.7114,-4.56671,-0.95276,-0.10197
31.7291,6942.7315,-5.10183,-2.23069,-0.62243
31.75,6942.7515,-5.28264,-2.46832,-0.4129
31.7696,6942.7715,-5.11526,-1.20933,0.35984
31.7886,6942.7915,-5.37122,0.07532,0.59014
31.8088,6942.8116,-5.99919,-0.11832,-0.15329
31.8409,6942.8316,-5.61129,-1.49949,-1.07508
31.8589,6942.8516,-4.19836,-2.88798,-1.92235
31.8722,6942.8717,-2.60522,-3.0859,-1.91563
31.8911,6942.8917,-1.50688,-2.86905,-0.79286
31.9087,6942.9117,-1.80132,-2.709,-0.32799
31.9279,6942.9317,-3.31749,-3.06758,0.00126
31.9564,6942.9518,-4.68521,-2.56972,0.00798
31.969,6942.9718,-5.21117,-2.19465,0.45208
31.9881,6942.9918,-4.9149,-1.90144,1.10815
32.0126,6943.0118,-3.7286,-0.93199,1.58829
32.0398,6943.0318,-2.38286,0.52492,2.21626
32.0498,6943.0518,-1.85263,0.62327,2.40746
32.0705,6943.0718,-2.09637,-1.01079,2.20771
32.088,6943.0918,-2.13791,-1.02179,2.53086
32.1101,6943.1118,-2.14707,0.08388,2.99023
32.1284,6943.1318,-2.26313,0.56157,3.32071
32.1489,6943.1518,-2.54719,0.84807,3.33964
32.1695,6943.1718,-3.01939,0.55607,3.11607
32.1896,6943.1918,-3.15622,0.18345,3.08858
32.2103,6943.2118,-2.75427,0.32028,3.65485
32.2285,6943.2318,-2.95586,0.48949,4.44958
32.2519,6943.2519,-3.79518,0.97757,4.79289
32.2699,6943.2719,-4.82022,2.4803,4.67377
32.2871,6943.2919,-5.36572,2.58109,4.09223
32.339,6943.3119,-4.67483,2.49007,4.04458
32.3416,6943.332,-3.89842,2.73931,4.48868
32.3496,6943.352,-3.78358,3.57314,5.12337
32.3718,6943.372,-4.29121,4.21027,5.74584
32.4154,6943.3921,-4.71637,4.95614,5.89
32.4179,6943.4121,-4.01937,5.08686,6.27179
32.4302,6943.4321,-2.14402,4.94575,6.84234
32.447,6943.4521,-0.87586,6.13633,6.33471
32.4689,6943.4722,-1.17946,6.02943,4.14598
32.4896,6943.4922,-1.57835,4.79609,2.314
32.5083,6943.5122,-1.0414,4.35505,2.31339
32.5292,6943.5323,-0.92839,4.36665,2.67502
32.5505,6943.5523,-1.42014,4.67636,2.49482
32.5699,6943.5723,-1.78422,4.71729,1.98841
32.5918,6943.5923,-1.68648,4.45278,1.10876
32.6177,6943.6124,-1.82637,4.62749,0.35984
32.6354,6943.6324,-2.82391,6.08929,0.38305
32.6514,6943.6524,-3.6107,7.25055,0.39955
32.6744,6943.6725,-2.49771,6.32875,-0.04516
32.6917,6943.6925,-1.12937,5.92986,-0.8515
32.7123,6943.7125,-1.69503,8.12775,-1.27239
32.7316,6943.7325,-1.90089,10.08313,0.09045
32.7541,6943.7526,-0.19291,6.29332,1.37021
32.7765,6943.7726,1.93473,0.7039,1.48078
32.7923,6943.7926,1.50774,0.54752,1.36288
32.8129,6943.8126,0.30678,1.76314,1.17901
32.8327,6943.8326,0.24264,1.34714,0.93589
32.8721,6943.8526,0.41918,-0.33945,0.52844
32.879,6943.8726,0.11924,-2.12318,0.10389
32.8943,6943.8926,-0.3383,-3.73098,-0.44589
32.9138,6943.9127,-0.55699,-5.47194,-0.8735
32.9337,6943.9327,-0.57226,-6.54951,-1.34447
32.9506,6943.9528,-0.61258,-6.93802,-1.55766
32.9748,6943.9728,-0.58631,-6.97834,-0.95535
32.9913,6943.9929,-0.03897,-6.24469,-0.17711
33.0129,6944.0129,0.3642,-5.22393,0.22728
33.0357,6944.033,0.41246,-4.18791,0.36045
33.0509,6944.0531,0.09664,-2.85561,-0.10197
33.0743,6944.0731,-0.01087,-0.72186,-0.4801
33.093,6944.0932,-0.243,0.87861,0.12099
33.115,6944.1133,-0.79767,2.19869,1.40442
33.1328,6944.1333,-1.25093,2.15227,2.56445
33.1649,6944.1534,-1.37249,0.33433,3.03604
33.1756,6944.1734,-1.37371,-1.00896,3.64202
33.1944,6944.1935,-1.36822,-1.23254,5.32251
33.2152,6944.2136,-1.2265,-2.11341,7.06714
33.2312,6944.2336,-0.66572,-3.16104,8.17831
33.2519,6944.2537,-0.31081,-3.09568,8.64684
33.2808,6944.2737,0.02822,-2.41884,8.73725
33.3155,6944.2938,0.27196,-1.57523,8.30659
33.3226,6944.3139,-0.13977,-0.65955,7.60898
33.3335,6944.3339,-0.46291,-0.52882,6.51736
33.3593,6944.354,-0.82149,-1.00957,5.48072
33.3729,6944.3741,-1.36455,-0.91367,5.16185
33.3933,6944.3941,-1.74879,-0.43414,4.26938
33.4121,6944.4142,-0.9119,0.33433,2.70373
33.4306,6944.4342,0.3025,0.14374,1.39281
33.4538,6944.4543,0.6171,-0.11832,0.34823
33.4746,6944.4744,0.48942,-0.35839,-0.75682
33.4939,6944.4944,0.8254,-1.47627,-2.04819
33.5126,6944.5144,1.15588,-1.58134,-2.99014
33.5306,6944.5344,1.08563,-1.29485,-3.95531
33.5504,6944.5544,0.77164,-0.63695,-4.89177
33.5775,6944.5745,0.45155,-0.10977,-5.61259
33.5923,6944.5945,0.10091,-0.70964,-6.02431
33.6144,6944.6145,-0.11716,-2.20198,-6.26683
33.6327,6944.6346,0.1284,-3.47197,-6.7097
33.6511,6944.6546,0.03555,-1.58745,-7.85507
33.6734,6944.6746,-0.82638,-1.40053,-8.25214
33.6945,6944.6946,-1.67243,-3.37301,-8.93936
33.7159,6944.7147,-2.86728,-4.88796,-7.73901
33.7385,6944.7347,-3.67729,-4.68943,-5.48247
33.7546,6944.7547,-3.55756,-1.66381,-4.47332
33.7717,6944.7748,-2.76343,1.66846,-4.11597
33.8002,6944.7948,-2.00963,1.36242,-3.85269
33.8146,6944.8148,-1.49161,-0.40604,-4.82885
33.8352,6944.8348,-1.32729,-2.22336,-6.13305
33.8613,6944.8549,-1.53682,-3.42005,-6.71215
33.8747,6944.8749,-1.68403,-3.48358,-5.72254
33.8936,6944.8949,-1.64188,-2.85744,-3.44463
33.9104,6944.915,-1.46901,-2.89776,-1.63891
33.9346,6944.935,-1.18862,-3.5019,-1.36952
33.952,6944.955,-0.63945,-3.76091,-3.13186
33.9722,6944.975,1.03554,-2.84828,-5.35053
33.996,6944.9951,3.40203,-3.86659,-5.94795
34.0124,6945.0151,5.80945,-5.45912,-6.26072
34.0324,6945.0351,7.08188,-3.40233,-7.79338
34.0576,6945.0552,6.69887,-2.86294,-8.13729
34.0711,6945.0752,6.29631,-2.8605,-6.96565
34.0933,6945.0952,6.37022,-3.51779,-6.25583
34.1184,6945.1152,6.94871,-3.46708,-6.56981
34.1325,6945.1353,7.48689,-2.68945,-7.56736
34.1537,6945.1553,7.763,-2.15678,-7.92716
34.1749,6945.1753,7.69092,-1.62044,-7.95587
34.1974,6945.1953,7.11792,-1.68397,-8.27535
34.2217,6945.2153,6.11244,-1.28141,-8.63881
34.2349,6945.2353,5.31404,-0.07923,-8.34621
34.2596,6945.2553,5.06175,2.02582,-7.75611
34.2802,6945.2753,4.42584,1.36242,-7.33706
34.2969,6945.2953,3.44723,1.07897,-7.02735
34.3129,6945.3153,2.59202,2.31109,-5.74759
34.3342,6945.3353,1.95794,3.62323,-4.10619
34.3535,6945.3552,1.68489,4.20111,-2.84598
34.3724,6945.3752,1.69772,3.34345,-3.37988
34.42,6945.3952,2.22062,1.79308,-4.62787
34.421,6945.4152,1.73559,2.67883,-4.26746
34.4306,6945.4352,0.64703,4.28541,-2.96082
34.4513,6945.4552,-0.65778,3.61162,-2.60652
34.4724,6945.4752,-1.2491,3.34101,-3.20272
34.4952,6945.4952,-1.81232,4.27075,-3.60406
34.5121,6945.5152,-2.87339,5.71972,-3.18379
34.5335,6945.5352,-4.24417,6.54194,-2.81299
34.5529,6945.5552,-5.27898,5.9433,-3.8423
34.5711,6945.5752,-5.2692,5.28967,-4.73172
34.5945,6945.5952,-4.93689,4.15468,-4.52464
34.6125,6945.6152,-5.67176,3.38194,-4.01701
34.6326,6945.6352,-6.92037,3.32146,-3.82031
34.6552,6945.6552,-7.05232,3.60185,-3.53137
34.6719,6945.6752,-6.37976,3.09605,-2.97732
34.6918,6945.6952,-5.91855,1.56583,-3.12637
34.7226,6945.7152,-5.78172,0.91832,-4.0726
34.7429,6945.7352,-5.70108,1.16816,-4.54357
34.7527,6945.7551,-5.61434,1.59149,-3.62422
34.7745,6945.7751,-5.13481,2.71915,-2.45319
34.7922,6945.7951,-4.54838,3.18035,-1.58943
34.8131,6945.8151,-4.40971,1.70572,-1.85455
34.836,6945.8351,-3.97172,2.24145,-3.64438
34.8536,6945.8552,-3.42072,2.72526,-5.76164
34.8728,6945.8752,-3.10063,1.30744,-6.23628
34.8973,6945.8952,-2.75732,1.48764,-5.27417
34.9212,6945.9152,-2.43784,2.67455,-3.20761
34.9361,6945.9353,-2.73228,1.63608,-1.86737
34.9582,6945.9553,-3.23013,0.51087,-2.02742
34.9811,6945.9753,-3.06337,1.64708,-3.37438
35.0018,6945.9954,-2.40852,2.25672,-4.38964
35.0181,6946.0154,-1.84591,2.28849,-4.05671
35.0345,6946.0354,-1.79582,1.89081,-3.06467
35.0522,6946.0554,-2.53191,1.10341,-2.62973
35.0732,6946.0755,-3.46043,0.55607,-2.47457
35.0923,6946.0955,-4.10611,1.01911,-1.87348
35.1138,6946.1155,-3.87521,1.87249,-1.28949
35.1336,6946.1356,-3.61192,0.81081,-0.93031
35.1528,6946.1556,-3.65713,-1.73834,-1.22658
35.1717,6946.1756,-2.74205,-1.7139,-1.44527
35.1949,6946.1956,-1.30102,-1.472,-0.8735
35.2124,6946.2157,-0.36151,-1.16534,-0.12152
35.2326,6946.2357,0.46988,0.71918,0.43376
35.2604,6946.2557,0.74965,1.92502,0.91512
35.2968,6946.2758,0.03861,-0.08839,0.6164
35.3031,6946.2958,-0.29432,-2.02605,-0.25347
35.3147,6946.3158,0.39902,-2.33637,-0.8344
35.3312,6946.3358,1.09785,-1.22704,-0.74338
35.3563,6946.3559,1.06425,-0.22583,-0.24858
35.3729,6946.3759,0.67207,0.50293,0.10939
35.3928,6946.3959,0.3361,0.20299,0.27065
35.4122,6946.416,0.23714,-0.50317,0.24866
35.4325,6946.436,0.47293,-0.54715,0.0654
35.4505,6946.456,0.44972,0.08937,-0.01706
35.4705,6946.476,-0.0182,0.16512,0.15398
35.499,6946.496,-0.05058,0.01851,0.09106
35.5134,6946.516,0.05205,-0.17086,-0.08487
35.5332,6946.536,0.0832,-0.46102,-0.07082
35.5546,6946.556,0.16261,-0.62595,-0.0024
35.5732,6946.5759,0.25791,-0.30586,0.07151
35.5956,6946.5959,0.11496,-0.10305,0.04402
35.6174,6946.6159,-0.08662,-0.12504,-0.11541
35.641,6946.6359,-0.24789,-0.17208,-0.16978
35.6574,6946.6559,-0.18741,-0.39016,0.02753
35.6763,6946.6759,0.10824,-0.41031,0.18513
35.6926,6946.6959,0.25852,-0.24966,0.1326
35.7165,6946.7159,0.11863,-0.23316,0.08068
35.7379,6946.7359,0.04105,-0.19468,0.12283
35.7609,6946.7559,0.0722,-0.08411,0.1552
35.779,6946.7759,0.09969,-0.3535,0.05197
35.8027,6946.7959,0.23958,-0.46529,-0.05188
35.8205,6946.816,0.308,-0.26187,0.03975
35.8454,6946.836,0.21759,0.01668,0.1326
35.8561,6946.856,-0.02309,0.38809,0.18269
35.8741,6946.876,-0.60708,0.92259,0.11366
35.8931,6946.8961,-1.34012,1.66785,0.24194
35.9166,6946.9161,-1.47634,1.53957,0.03364
35.939,6946.9361,-0.9009,0.10403,-0.42573
35.96,6946.9562,0.09481,0.17001,-0.94619
35.9739,6946.9762,0.96285,0.09609,-0.89793
35.9937,6946.9962,0.41612,-0.12932,0.67444
36.0159,6947.0162,-0.45864,-1.11953,1.08494
36.0385,6947.0363,-1.00964,-1.20627,0.6836
36.0595,6947.0563,-1.25582,-0.56242,0.15642
36.0765,6947.0763,-1.64677,-1.00285,0.0257
36.093,6947.0964,-1.48856,-0.20629,0.18025
36.1115,6947.1164,-1.27964,1.74115,0.38366
36.1325,6947.1364,-1.87401,3.40332,0.02997
36.1549,6947.1564,-2.47144,3.01359,-0.39702
36.1741,6947.1765,-1.29613,1.02339,-0.25652
36.1943,6947.1965,0.74782,-0.60579,0.30731
36.214,6947.2165,1.41427,-1.65404,0.30731
36.2329,6947.2366,0.23775,-0.56059,0.19369
36.2541,6947.2566,-0.01698,-0.25699,0.01104
36.2763,6947.2766,-0.33158,-0.02791,0.05563
36.2934,6947.2966,-0.66572,-0.07006,0.30792
36.3229,6947.3167,-0.68099,0.02462,0.44475
36.34,6947.3367,-0.70054,0.22926,0.39955
36.3632,6947.3567,-0.69871,1.03927,0.17719
36.404,6947.3768,-0.82821,1.14739,0.00982
36.4051,6947.3967,-0.13671,-0.4488,-0.08426
36.4155,6947.4167,0.86755,-1.30706,-0.09709
36.4323,6947.4367,1.32203,-1.20994,-0.10258
36.4534,6947.4567,1.04409,-1.15862,0.12038
36.4717,6947.4767,0.07587,-0.47018,0.4533
36.4946,6947.4967,-0.81905,-0.43903,0.59991
36.5158,6947.5167,-0.90518,-0.73346,0.20896
36.5366,6947.5367,-0.26622,-0.19957,-0.9077
36.5585,6947.5567,0.42589,0.21888,-1.27056
36.5748,6947.5767,0.93047,0.29218,-0.80447
36.5974,6947.5967,1.00988,-0.13909,-0.48865
36.6136,6947.6167,1.08868,-0.37,-0.66153
36.6362,6947.6367,1.14061,-0.06579,-0.50087
36.6529,6947.6567,0.92803,0.57318,0.04769
36.6736,6947.6767,1.24384,0.4956,0.37878
36.6981,6947.6967,1.77224,-0.37855,0.11672
36.7216,6947.7167,1.60181,-1.20994,0.07212
36.7413,6947.7367,0.95979,-0.86724,0.19307
36.7591,6947.7567,0.41429,0.13519,0.245
36.7775,6947.7767,0.26157,0.63976,0.35434
36.8063,6947.7966,0.29945,-0.19162,0.3971
36.8203,6947.8166,0.39841,-1.10365,0.37328
36.8427,6947.8366,0.57678,-0.79944,0.04463
36.8543,6947.8566,0.57189,-0.32479,-0.39213
36.8752,6947.8766,0.33854,-0.11343,-0.39213
36.8935,6947.8966,-0.09151,0.09854,-0.12946
36.9228,6947.9166,-0.60464,0.53775,0.10511
36.9408,6947.9366,-0.49896,0.72651,0.17292
36.9575,6947.9566,-0.08479,0.2427,0.05441
36.9759,6947.9766,0.3923,-0.47262,-0.19788
36.9952,6947.9966,0.63053,-0.72063,-0.24186
37.0147,6948.0166,0.55357,-0.6571,-0.05433
37.0369,6948.0366,0.25363,-0.24172,0.03364
37.0643,6948.0566,-0.06768,0.45467,-0.08243
37.0864,6948.0766,-0.4061,0.43207,-0.2834
37.0948,6948.0966,-0.41221,-0.07312,-0.28157
37.1179,6948.1166,-0.07135,-0.5783,-0.18749
37.1339,6948.1366,0.38863,-0.70536,-0.20338
37.1558,6948.1566,0.57495,-0.44086,-0.16367
37.178,6948.1766,0.31411,-0.19407,-0.0922
37.1966,6948.1966,-0.108,0.192,-0.08059
37.219,6948.2165,-0.40855,0.24148,-0.12763
37.2459,6948.2365,-0.24789,0.07471,-0.08914
37.2592,6948.2565,0.08014,-0.04685,0.02142
37.2915,6948.2765,0.21698,-0.0719,0.15459
37.3041,6948.2965,0.27073,-0.06395,0.24989
37.3196,6948.3165,0.15467,-0.1623,0.2566
37.3607,6948.3365,0.05082,0.04783,0.13016
37.3637,6948.3565,-0.06952,0.34655,0.05746
37.38,6948.3765,-0.12633,0.27263,0.03669
37.393,6948.3965,0.02395,0.05516,0.00982
37.4155,6948.4166,0.18094,-0.07067,-0.02195
37.4337,6948.4366,0.08137,0.11014,-0.05616
37.4536,6948.4566,-0.09395,0.27019,-0.07937
37.4754,6948.4767,-0.09029,0.28485,-0.07326
37.4963,6948.4967,0.02761,-0.04685,-0.02561
37.5214,6948.5167,0.16506,-0.24477,0.0373
37.5456,6948.5367,0.11191,-0.20323,0.08923
37.5615,6948.5568,-0.07196,-0.05296,0.04036
37.5827,6948.5768,-0.20452,-0.01753,-0.0641
37.5996,6948.5969,-0.19963,-0.01936,-0.1258
37.6143,6948.6169,-0.09884,0.00141,-0.08181
37.6359,6948.637,0.1113,0.04417,-0.00851
37.6567,6948.657,0.1846,0.01118,0.00126
37.675,6948.6771,0.06304,-0.08778,-0.01156
37.6956,6948.6972,-0.10373,-0.04929,-0.05433
37.7153,6948.7172,-0.14465,-0.02364,-0.07876
37.7345,6948.7373,-0.04203,0.0344,-0.01951
37.7575,6948.7573,0.03005,0.06311,0.05991
37.7775,6948.7774,0.00745,-0.03524,0.06907
37.7991,6948.7975,0.01723,-0.08106,0.04219
37.8215,6948.8175,0.0496,-0.02608,0.06479
37.8475,6948.8376,0.04838,0.03684,0.1552
37.8552,6948.8577,0.09053,0.15657,0.21995
37.8779,6948.8777,0.09236,0.14374,0.19918
37.8993,6948.8978,0.07892,-0.15253,0.09045
37.9149,6948.9178,0.17116,-0.18674,0.02387
37.9338,6948.9379,0.0777,-0.04502,0.01715
37.9556,6948.958,-0.04081,0.21521,-0.00301
37.9743,6948.978,-0.10311,0.19689,-0.02806
38.0019,6948.9981,-0.00904,0.01973,-0.07998
38.0154,6949.0181,0.14551,-0.13543,-0.07387
38.036,6949.0381,0.16139,-0.15803,-0.04577
38.0562,6949.0581,0.08809,0.06311,-0.05799
38.0783,6949.0782,0.00257,0.31112,-0.0641
38.0984,6949.0982,-0.05058,0.21827,-0.07021
38.116,6949.1182,0.0606,0.03684,-0.0812
38.1366,6949.1383,0.13207,-0.07556,-0.07143
38.1611,6949.1583,0.09725,-0.08106,-0.0079
38.1781,6949.1783,0.04655,0.00446,0.02203
38.1985,6949.1983,0.0215,0.06616,0.00859
38.2153,6949.2183,-0.0066,0.00507,-0.02073
38.2812,6949.2383,0.05876,-0.12382,-0.02561
38.2825,6949.2583,0.11496,-0.1397,-0.02684
38.2838,6949.2783,0.04838,-0.07434,-0.00668
38.2966,6949.2983,-0.0744,0.12603,0.00615
38.3147,6949.3183,-0.1697,0.12053,-0.00668
38.3321,6949.3383,-0.12511,-0.00165,-0.03356
38.3535,6949.3583,-0.00415,-0.07739,-0.04272
38.375,6949.3783,0.0832,-0.01875,-0.02867
38.3941,6949.3983,0.02395,-0.00898,0.02631
38.4145,6949.4183,-0.00599,0.03073,0.03242
38.4347,6949.4382,-0.0066,0.12725,0.04708
38.4547,6949.4582,-0.03042,-0.07067,0.01715
38.4752,6949.4782,0.02211,-0.04624,-0.06349
38.4971,6949.4982,-0.06463,-0.06395,-0.1429
38.5205,6949.5182,-0.12999,-0.00898,-0.14412
38.5369,6949.5382,-0.10495,0.03928,-0.11297
38.5655,6949.5582,-0.08051,-0.04441,-0.0641
38.5787,6949.5782,-0.01454,-0.1061,-0.04883
38.598,6949.5982,0.01845,-0.12504,-0.08731
38.6252,6949.6182,0.02639,0.00263,-0.10197
38.636,6949.6382,-0.04325,0.06677,-0.07326
38.6562,6949.6582,-0.09151,0.05883,-0.04028
38.6763,6949.6782,-0.04936,-0.00592,-0.04638
38.6957,6949.6982,0.03433,-0.03891,-0.08609
38.7159,6949.7182,0.05632,-0.02119,-0.09953
38.7378,6949.7382,0.01234,0.09976,-0.08548
38.7576,6949.7582,-0.03225,0.2091,-0.0134
38.775,6949.7782,-0.02492,0.10342,-0.00118
38.7969,6949.7982,0.09603,0.09426,-0.06104
38.816,6949.8182,0.08748,0.11931,-0.04089
38.8354,6949.8382,-0.0292,-0.00287,-0.00546
38.8564,6949.8581,-0.06158,-0.03952,0.01898
38.8784,6949.8781,-0.0463,-0.08472,0.0312
38.9034,6949.8981,-0.02004,0.01302,0.05013
38.9179,6949.9181,-0.01087,-0.01936,0.02997
38.9348,6949.9381,0.00195,-0.01264,0.00737
38.9549,6949.9581,-0.0121,-0.05418,0.06785
38.9778,6949.9781,-0.00415,-0.05235,0.1216
38.9963,6949.9981,0.01356,-0.00714,0.11794
39.0181,6950.0181,0.0722,0.06921,0.0709
39.0423,6950.0381,0.08137,-0.01631,0.08678
39.056,6950.0581,0.08198,-0.08839,0.06846
39.0799,6950.0781,0.09481,-0.08472,0.0373
39.0998,6950.0981,0.11069,-0.0719,0.0202
39.1173,6950.1181,0.10275,-0.03219,0.03242
39.1441,6950.1381,0.03922,-0.01386,0.04586
39.1608,6950.1581,-0.01026,-0.05662,0.04341
39.1839,6950.1781,0.06548,-0.00348,0.04708
39.2011,6950.1981,0.08014,-0.03585,0.0819
39.2204,6950.2181,0.04166,-0.04624,0.10022
39.2405,6950.2381,0.00501,-0.00898,0.0709
39.2596,6950.258,-0.00538,0.01729,0.03669
39.2862,6950.278,-0.00782,-0.07251,0.03792
39.3003,6950.298,0.01295,-0.09144,0.05135
39.3168,6950.318,-0.06219,-0.12626,0.10816
39.3493,6950.3381,-0.21368,-0.23316,0.1662
39.3561,6950.3581,-0.23201,-0.27409,0.22484
39.3781,6950.3782,-0.07807,-0.17574,0.20224
39.3988,6950.3982,0.03066,-0.14581,0.18697
39.4197,6950.4183,-0.05669,-0.16475,0.16925
39.4368,6950.4383,-0.32058,-0.37183,0.12771
39.4571,6950.4584,-0.32975,-0.33945,0.06846
39.4778,6950.4785,-0.12511,-0.08289,-0.11847
39.4964,6950.4985,0.02395,0.12419,-0.31394
39.5228,6950.5186,0.01295,0.12847,-0.37198
39.5388,6950.5387,0.05143,-0.03585,-0.32311
39.557,6950.5587,0.14367,-0.17024,-0.27546
39.5866,6950.5788,0.16506,-0.10305,-0.30173
39.6042,6950.5988,0.11558,0.14741,-0.30783
39.619,6950.6189,0.06976,0.25736,-0.24064
39.6387,6950.639,0.03311,0.06005,-0.13374
39.6581,6950.659,0.10458,-0.07678,-0.07082
39.6765,6950.6791,0.12657,0.14924,-0.07387
39.6985,6950.6992,0.00073,0.44062,-0.07082
39.7217,6950.7192,-0.08418,0.36487,-0.02195
39.7376,6950.7393,0.00195,0.13336,0.02875
39.7584,6950.7593,0.03311,-0.00775,-0.04577
39.7763,6950.7794,-0.03592,0.14069,-0.15756
39.7968,6950.7995,-0.04692,0.27691,-0.07509
39.8193,6950.8195,0.05266,0.20116,0.11122
39.837,6950.8396,0.18033,0.06494,0.2114
39.8601,6950.8596,0.33182,-0.08411,0.19185
39.8799,6950.8797,0.38069,-0.06029,0.15764
39.8972,6950.8998,0.30555,0.05883,0.13016
39.9203,6950.9198,0.27807,0.05944,0.07579
39.9379,6950.9398,0.29028,-0.02119,0.00737
39.9587,6950.9599,0.22125,-0.06884,-0.0812
39.9748,6950.9799,0.11558,0.00996,-0.15512
39.9969,6950.9999,-0.00354,0.10342,-0.17711
40.0149,6951.0199,-0.00599,0.04967,-0.15023
40.0448,6951.0399,0.1394,-0.05907,-0.09342
40.0627,6951.0599,0.11619,-0.04135,-0.03295
40.0796,6951.0798,-0.03775,0.04356,-0.04089
40.0994,6951.0998,-0.08418,-0.0383,-0.03539
40.128,6951.1198,-0.04936,-0.19407,0.01837
40.1373,6951.1398,-0.04569,-0.25638,0.08006
40.1598,6951.1598,-0.04692,-0.13848,0.07151
40.1871,6951.1798,-0.0292,-0.03463,0.08923
40.1966,6951.1998,0.15284,-0.10794,0.06113
40.2156,6951.2198,0.19682,-0.28875,-0.03661
40.2627,6951.2398,0.01906,-0.2692,-0.09586
40.2653,6951.2598,-0.10678,-0.09816,-0.11114
40.2799,6951.2798,-0.0854,0.0851,-0.07815
40.2963,6951.2998,-0.00415,0.03378,-0.03111
40.32,6951.3198,0.09419,-0.08106,-0.00546
40.3388,6951.3398,0.10091,-0.12993,-0.02317
40.3556,6951.3598,0.03861,-0.09633,-0.03661
40.3738,6951.3798,-0.0463,-0.01997,-0.02073
40.394,6951.3998,-0.12816,-0.04868,0.03792
40.4175,6951.4198,-0.06646,-0.05174,0.02814
40.4412,6951.4398,0.02333,-0.07128,0.01531
40.4603,6951.4598,0.00134,-0.08656,0.00615
40.4778,6951.4797,-0.02737,-0.07434,0.00676
40.4957,6951.4997,-0.02492,-0.06762,0.0092
40.5166,6951.5197,-0.04325,-0.08717,-0.02745
40.5427,6951.5397,0.03433,-0.07617,-0.06288
40.5568,6951.5597,0.08748,-0.05418,-0.05555
40.5763,6951.5797,0.11741,-0.05418,-0.03539
40.5998,6951.5997,0.09969,0.03378,-0.06227
40.617,6951.6197,0.01784,0.10892,-0.08181
40.6374,6951.6397,-0.00721,0.04111,-0.09709
40.6587,6951.6597,0.0887,-0.01753,-0.08731
40.6803,6951.6797,0.11374,-0.06823,-0.00729
40.7101,6951.6997,0.00623,0.02218,0.01104
40.724,6951.7197,-0.03714,0.11503,-0.04944
40.7404,6951.7397,0.01478,0.15168,-0.05371
40.7561,6951.7597,0.04166,0.09793,-0.02012
40.7774,6951.7797,0.05266,0.0234,0.01776
40.7959,6951.7997,0.06793,0.00507,0.06663
40.819,6951.8197,0.05021,0.01973,0.04036
40.8402,6951.8397,-0.02492,0.04722,-0.04944
40.8568,6951.8597,-0.08357,0.06127,-0.10258
40.8765,6951.8797,-0.03042,0.03501,-0.06227
40.8978,6951.8996,0.01845,0.01546,-0.00423
40.9177,6951.9196,-0.01148,0.05883,0.0147
40.9395,6951.9396,-0.04692,0.13152,0.00798
40.9643,6951.9596,-0.04875,0.02523,-0.01095
40.9855,6951.9796,-0.00599,-0.12565,0.02203
40.9969,6951.9996,0.01539,-0.14337,0.06907
41.0165,6952.0196,-0.02187,0.05761,0.04036
41.0361,6952.0396,-0.09212,0.18406,0.00126
41.0587,6952.0596,-0.01882,0.057,-0.00912
41.0818,6952.0796,0.10763,-0.09694,-0.01156
41.0997,6952.0996,0.13818,-0.0609,0.00676
41.1207,6952.1196,0.06304,0.07899,0.02325
41.1387,6952.1396,-0.01087,0.17001,0.03181
41.1559,6952.1596,0.03433,0.17489,0.03181
41.1752,6952.1796,0.18888,0.01607,0.06113
41.1967,6952.1996,0.16689,0.00019,0.05258
41.2236,6952.2196,0.05693,0.06188,0.01715
41.2408,6952.2396,-0.01026,0.1022,-0.04944
41.2605,6952.2596,-0.02737,0.11014,-0.06104
41.2888,6952.2796,0.03128,0.03012,0.01959
41.302,6952.2995,0.10091,-0.10366,0.0593
41.3173,6952.3195,0.09114,-0.0383,0.03058
41.3352,6952.3395,0.03311,0.10526,0.02997
41.3616,6952.3595,0.02517,0.08937,0.06052
41.3771,6952.3795,0.0722,0.00446,0.09411
41.395,6952.3995,0.08014,-0.0719,0.10878
41.415,6952.4195,0.1058,-0.02852,0.10022
41.4391,6952.4395,0.13757,-0.00592,0.10328
41.4562,6952.4595,0.09664,0.05822,0.03608
41.4803,6952.4795,-0.06524,0.23537,-0.03905
41.4992,6952.4995,-0.18008,0.2653,-0.03233
41.5196,6952.5195,-0.09517,0.10709,-0.00546
41.5366,6952.5395,0.01539,0.01729,-0.00851
41.5574,6952.5595,0.04166,0.07044,0.04647
41.5819,6952.5795,0.04655,0.12786,0.08312
41.6007,6952.5995,-0.00782,0.21094,0.06296
41.6189,6952.6195,0.00684,0.16879,0.01715
41.6355,6952.6395,0.06793,0.08021,-0.02134
41.657,6952.6595,0.10702,0.07655,0.01898
41.6797,6952.6795,0.0777,0.16451,0.05991
41.7044,6952.6994,0.01723,0.19261,0.04158
41.7166,6952.7194,0.08442,0.0851,0.0257
41.7429,6952.7394,0.15406,0.01057,0.03669
41.7604,6952.7594,0.12413,0.02218,0.07701
41.7767,6952.7794,0.03738,0.09548,0.05502
41.8017,6952.7994,-0.00843,0.1413,0.0202
41.8167,6952.8194,0.02456,0.08876,-0.00362
41.8389,6952.8394,0.10091,0.01912,-0.03966
41.8601,6952.8594,0.11069,0.05028,-0.04455
41.876,6952.8794,0.00684,0.04539,-0.04089
41.9133,6952.8994,-0.00721,0.0405,-0.06899
41.9237,6952.9194,0.02211,0.06188,-0.06532
41.9371,6952.9394,0.03066,0.00202,-0.05433
41.9578,6952.9594,0.05876,-0.01753,-0.0415
41.9826,6952.9794,0.07037,0.01302,-0.01156
41.9964,6952.9994,0.14367,0.10098,0.02264
42.0188,6953.0194,0.22003,0.19566,0.03547
42.0385,6953.0394,0.20354,0.23232,0.03058
42.0551,6953.0594,0.07587,0.10342,0.0257
42.0912,6953.0794,0.00257,0.03928,0.0092
42.1022,6953.0994,0.01723,-0.00409,0.00859
42.1183,6953.1194,0.0722,-0.12504,0.04158
42.1395,6953.1393,0.16139,-0.33151,0.10206
42.1576,6953.1593,0.14795,-0.42375,0.1552
42.2183,6953.1793,0.03861,-0.34801,0.19674
42.2208,6953.1993,-0.07501,-0.16475,0.13993
42.2229,6953.2193,-0.10617,0.09243,0.03242
42.2367,6953.2393,-0.09029,0.14496,0.04647
42.2552,6953.2593,-0.04081,0.03073,0.08129
42.276,6953.2793,0.0325,-0.03524,0.09473
42.2936,6953.2993,0.0044,-0.01936,0.05746
42.3201,6953.3193,-0.06952,0.01546,0.0202
42.3373,6953.3393,-0.06035,0.09731,-0.00607
42.356,6953.3593,-0.01637,0.07349,-0.02561
42.3737,6953.3793,-0.00843,0.06127,-0.01706
42.3955,6953.3993,-0.02737,0.07899,0.0202
42.4139,6953.4193,-0.05852,0.06188,-0.00057
42.438,6953.4393,0.00195,-0.01203,-0.03905
42.4565,6953.4593,0.08259,-0.00592,-0.05433
42.4803,6953.4793,0.02211,0.00507,-0.06349
42.4993,6953.4993,-0.01637,0.03867,-0.07571
42.5261,6953.5193,-0.00721,0.07899,-0.07265
42.5467,6953.5392,0.01356,0.02218,-0.07754
42.5599,6953.5592,0.05571,-0.04441,-0.06471
42.578,6953.5792,0.08503,-0.02975,-0.0415
42.6043,6953.5992,0.10824,0.04356,-0.02439
42.6259,6953.6192,0.12657,0.04783,-0.0305
42.6432,6953.6392,0.11374,0.07532,-0.03417
42.6594,6953.6592,0.07343,0.2201,-0.01584
42.6767,6953.6792,-0.07135,0.22437,0.01165
42.6977,6953.6992,-0.05119,0.16023,0.02387
42.7176,6953.7192,0.03311,0.03745,0.01592
42.7359,6953.7392,0.13757,0.0063,0.00187
42.7574,6953.7592,0.10091,0.03623,0.0312
42.7795,6953.7792,-0.02126,0.03501,0.05258
42.8074,6953.7992,-0.08968,-0.05907,0.03058
42.8208,6953.8192,-0.12633,-0.13176,-0.00973
42.8368,6953.8392,-0.10067,-0.0945,-0.03539
42.8586,6953.8592,-0.0463,0.03562,-0.02745
42.8781,6953.8792,-0.01332,0.03989,-0.00668
42.9009,6953.8992,0.03555,-0.00837,0.0092
42.9166,6953.9192,0.05754,-0.08167,0.01409
42.9372,6953.9392,0.0496,-0.02791,-0.03844
42.955,6953.9591,0.06732,-0.02852,-0.00607
42.9761,6953.9791,0.01845,0.00996,0.04463
42.998,6953.9991,0.04288,0.08754,0.03914
43.0168,6954.0191,0.05266,-0.01508,-0.01401
43.0442,6954.0391,0.06548,-0.12565,-0.04638
43.0676,6954.0591,0.0441,-0.09205,0.01837
43.0806,6954.0791,-0.02187,-0.00165,0.00126
43.096,6954.0991,-0.02065,0.03378,-0.04822
43.1172,6954.1191,-0.00721,-0.0328,-0.09525
43.1381,6954.1391,-0.01332,-0.05418,-0.07265
43.1681,6954.1591,-0.02676,0.00874,-0.047
43.1809,6954.1791,-0.02065,0.08693,-0.02745
43.1976,6954.1991,-0.08357,0.03073,-0.05982
43.2189,6954.2191,-0.10128,0.0289,-0.07021
43.2385,6954.2391,-0.0011,-0.01142,-0.02928
43.2562,6954.2591,0.06426,-0.03402,0.00126
43.2807,6954.2791,0.00012,0.03134,0.0312
43.3008,6954.2991,-0.0292,0.03134,0.02875
43.3205,6954.3191,0.03005,-0.04624,-0.00485
43.337,6954.3391,0.05754,-0.09144,-0.04638
43.3593,6954.3592,-0.00354,0.00507,-0.05982
43.3764,6954.3792,-0.03409,0.10648,-0.05921
43.3966,6954.3992,0.00257,0.04417,-0.036
43.4178,6954.4192,0.07281,-0.06273,-0.03478
43.4351,6954.4393,0.05632,-0.10488,-0.04638
43.4557,6954.4593,-0.00049,-0.06151,-0.04822
43.4777,6954.4793,-0.02798,0.07227,-0.047
43.5013,6954.4993,-0.03103,0.08815,-0.02134
43.5226,6954.5194,-0.02798,-0.05479,-0.02439
43.5472,6954.5394,0.01051,-0.13665,-0.04272
43.5655,6954.5594,-0.00049,-0.06762,-0.00851
43.582,6954.5795,-0.06035,0.04111,0.00432
43.5972,6954.5995,-0.06158,0.07044,-0.00912
43.6196,6954.6195,-0.00171,0.01179,-0.0305
43.6358,6954.6395,0.05143,-0.03891,-0.02073
43.6591,6954.6596,0.01234,-0.02486,0.00798
43.676,6954.6796,-0.02492,0.03623,0.01898
43.6953,6954.6996,0.01845,0.11381,0.02081
43.7173,6954.7197,0.05205,0.06555,0.03058
43.7359,6954.7397,0.05632,-0.0218,0.01592
43.7591,6954.7597,0.02944,0.00813,0.02814
43.7825,6954.7797,0.03494,0.07288,0.05258
43.7963,6954.7998,0.05632,0.07105,0.04586
43.8241,6954.8198,0.06915,0.06188,0.01592
43.8425,6954.8398,0.0215,0.03378,-0.00423
43.8564,6954.8599,0.00928,-0.02852,-0.00423
43.8776,6954.8799,0.05632,0.01118,0.00065
43.9011,6954.8999,0.03861,0.07166,0.01287
43.9213,6954.9199,-0.01759,0.0405,-0.00546
43.9407,6954.9399,0.01295,-0.00714,-0.01401
43.9581,6954.9599,0.04777,-0.01936,-0.00851
43.9791,6954.9799,0.01967,0.02523,0.0031
43.9955,6954.9999,-0.00904,0.08082,-0.01767
44.0191,6955.0199,0.00012,0.05761,-0.04089
44.0364,6955.0399,0.04227,-0.01692,-0.05066
44.0581,6955.0599,0.04471,-0.02119,-0.03233
44.0822,6955.0799,-0.03653,0.03012,-0.01279
44.1027,6955.0999,-0.0182,0.06799,-0.0024
44.1223,6955.1199,0.04166,-0.01508,-0.01401
44.1374,6955.1399,0.04044,-0.10733,0.00248
44.159,6955.1599,-0.00538,-0.07617,0.01837
44.1816,6955.1798,-0.01332,0.02157,-0.00118
44.2112,6955.1998,0.04105,0.0686,-0.025
44.2236,6955.2198,0.06732,0.00324,0.00493
44.2441,6955.2398,0.05143,-0.03463,0.02203
44.2568,6955.2598,0.0215,-0.02608,-0.00179
44.3159,6955.2798,0.03128,-0.00837,-0.02806
44.3172,6955.2998,0.05205,0.00874,-0.02012
44.3257,6955.3198,0.02883,0.04967,0.00493
44.3369,6955.3398,0.02578,0.06188,-0.01034
44.3559,6955.3598,0.02517,-0.00042,-0.00485
44.38,6955.3798,0.02211,-0.06518,-0.00607
44.3942,6955.3998,0.03189,-0.01508,-0.02439
44.4156,6955.4198,0.01173,0.02829,-0.025
44.438,6955.4398,-0.03653,-0.00165,-0.0134
44.4573,6955.4598,0.00867,-0.01508,-0.01462
44.4764,6955.4798,0.05388,-0.03646,-0.06043
44.5005,6955.4998,-0.00782,-0.0157,-0.04944
44.5192,6955.5198,-0.04203,0.00935,-0.00546
44.5376,6955.5398,0.00012,-0.0609,0.01165
44.5609,6955.5598,0.05938,-0.09755,-0.02378
44.5816,6955.5797,0.05938,0.00935,-0.02745
44.6046,6955.5997,-0.01087,0.06555,0.01776
44.627,6955.6197,-0.00843,-0.01142,0.0312
44.6378,6955.6397,0.0496,-0.08961,0.00187
44.6569,6955.6597,0.04533,-0.08717,-0.03661
44.6781,6955.6797,-0.04692,0.00874,-0.06654
44.7014,6955.6997,-0.03836,0.11992,-0.04883
44.7259,6955.7197,0.04227,0.0405,0.01165
44.7426,6955.7397,0.10214,-0.09083,0.05319
44.7564,6955.7597,0.05449,-0.08595,0.05074
44.777,6955.7797,-0.0402,-0.04868,0.02509
44.7987,6955.7997,-0.05486,-0.01753,0.0092
44.8195,6955.8197,-0.00965,0.03012,0.01898
44.8407,6955.8397,0.0325,0.04539,0.01776
44.8661,6955.8597,0.03738,0.01485,0.02997
44.8889,6955.8797,-0.0121,-0.05723,0.00615
44.9028,6955.8997,-0.04386,-0.05235,-0.02684
44.9215,6955.9197,-0.0402,0.02462,-0.03478
44.939,6955.9397,-0.02065,0.07288,0.00554
44.956,6955.9597,0.03372,0.00446,0.01837
44.9775,6955.9797,0.04288,-0.05357,-0.00607
45.0058,6955.9996,0.03005,-0.04746,-0.01951
45.0226,6956.0196,-0.00965,0.04478,-0.03478
45.0449,6956.0396,-0.05791,0.10648,-0.01767
45.0577,6956.0596,0.00318,0.01057,-0.03111
45.0786,6956.0796,0.07343,-0.04196,-0.04028
45.1004,6956.0996,0.02822,-0.0383,-0.01095
45.1206,6956.1196,-0.01393,0.01729,-0.01828
45.1396,6956.1396,0.01051,0.10648,-0.01462
45.1626,6956.1596,0.03066,0.08693,0.0257
45.1787,6956.1796,0.06976,-0.01997,0.03669
45.2059,6956.1996,0.06793,-0.06701,0.01715
45.2195,6956.2196,-0.01087,-0.02364,0.00065
45.2387,6956.2396,-0.03836,0.03378,-0.02806
45.2639,6956.2596,-0.04142,0.08265,-0.025
45.2872,6956.2796,0.01295,-0.03463,0.0031
45.299,6956.2996,0.0496,-0.06762,0.00493
45.321,6956.3196,-0.03042,-0.03769,-0.02867
45.3383,6956.3396,-0.05425,0.03501,-0.05677
45.363,6956.3596,-0.0292,0.09059,-0.04211
45.3801,6956.3796,-0.00232,-0.00165,-0.00729
45.3981,6956.3995,0.03311,-0.02608,0.0092
45.415,6956.4195,0.02272,-0.04929,0.0257
45.4348,6956.4395,-0.02553,-0.03097,-0.00301
45.4562,6956.4595,-0.01393,0.02035,-0.0134
45.4755,6956.4795,-0.00538,0.07471,0.01898
45.4972,6956.4995,0.0099,-0.00165,0.0483
45.5216,6956.5195,0.04533,-0.07067,0.04525
45.5372,6956.5395,0.03189,-0.06029,-0.01218
45.5658,6956.5595,-0.00232,0.02951,-0.05188
45.5797,6956.5795,-0.03775,0.05028,-0.047
45.6011,6956.5995,0.02089,0.01424,-0.01645
45.6218,6956.6195,0.06426,-0.01875,-0.00546
45.6398,6956.6395,0.02395,-0.03219,-0.02806
45.657,6956.6595,-0.02126,-0.04013,-0.06349
45.6777,6956.6795,-0.04569,-0.03708,-0.05127
45.7062,6956.6995,-0.02431,-0.02486,-0.00668
45.7214,6956.7195,-0.01576,-0.0102,0.01043
45.7441,6956.7395,-0.01943,0.03073,0.02142
45.7584,6956.7595,0.00562,0.00996,0.02692
45.7752,6956.7795,0.02089,-0.03463,-0.00973
45.7953,6956.7994,-0.01087,-0.01142,4e-05
45.8176,6956.8194,-0.02676,0.01546,0.01043
45.8424,6956.8394,-0.01026,0.00691,-0.00362
45.8673,6956.8594,0.00928,-0.01936,-0.03172
45.8783,6956.8794,0.01234,-0.0383,-0.05249
45.9019,6956.8994,-0.01943,-0.01386,-0.04761
45.9209,6956.9194,-0.05302,0.0289,-0.05677
45.9392,6956.9394,-0.0347,0.1022,-0.05616
45.9553,6956.9594,-0.01332,0.04539,-0.02867
45.9761,6956.9794,0.07831,-0.05662,0.00248
45.9968,6956.9994,0.08686,-0.05174,0.01409
46.0147,6957.0194,-0.02615,0.06983,0.00248
46.0352,6957.0394,-0.02737,0.1022,-0.00546
46.0571,6957.0594,0.06793,0.01179,0.03486
46.0764,6957.0794,0.12046,-0.05907,0.05135
46.0996,6957.0994,0.05205,-0.01508,0.04463
46.1195,6957.1194,-0.03225,0.04295,-0.00546
46.137,6957.1394,-0.02187,0.06983,-0.0305
46.1567,6957.1594,-0.00599,0.04111,-0.01462
46.177,6957.1794,0.04777,-0.04685,-0.00485
46.1959,6957.1994,0.06915,-0.04318,-0.00607
46.2168,6957.2193,0.01356,0.07105,-0.00057
46.2376,6957.2393,-0.03653,0.09548,-0.03172
46.2627,6957.2593,-0.01882,0.02523,-0.06288
46.2974,6957.2793,0.06243,-0.05601,-0.0415
46.3267,6957.2993,0.07892,0.0008,-0.00118
46.3353,6957.3193,0.02822,0.06799,0.01959
46.3406,6957.3393,-0.00965,0.06005,-0.01584
46.3961,6957.3593,0.02761,0.03012,-0.01523
46.397,6957.3793,0.05876,-0.00592,0.01776
46.3978,6957.3993,0.02089,0.03623,0.07212
46.4183,6957.4193,-0.00538,0.00691,0.05319
46.4354,6957.4393,0.01723,-0.01692,-0.0079
46.4545,6957.4593,0.01295,0.00752,-0.036
46.4791,6957.4793,0.00745,0.03073,-0.0305
46.4985,6957.4993,0.04471,0.04234,-0.02623
46.5169,6957.5193,0.05388,0.01302,-0.00729
46.5377,6957.5393,0.03922,-0.02364,-0.04089
46.5565,6957.5593,-0.00049,-0.01203,-0.05799
46.5763,6957.5793,-0.0066,0.03195,-0.01401
46.5975,6957.5993,0.06304,-0.01997,0.02631
46.6165,6957.6193,0.04899,0.01118,0.01653
46.6355,6957.6392,0.01478,0.03073,0.02814
46.6569,6957.6592,-0.00538,-0.00959,0.0483
46.6769,6957.6792,-0.01759,-0.0438,0.07823
46.6974,6957.6992,0.02639,-0.02364,0.06479
46.719,6957.7192,0.04471,-0.02486,0.0092
46.7408,6957.7392,-0.02004,-0.01753,-0.01462
46.7605,6957.7592,-0.04936,0.02462,-0.01462
46.778,6957.7792,0.02761,0.01851,0.01287
46.7995,6957.7992,0.03189,-0.01692,-0.0024
46.8224,6957.8192,-0.01882,-0.06029,-0.00729
46.8394,6957.8392,-0.00843,-0.02669,-0.03783
46.8562,6957.8592,0.00928,0.03501,-0.047
46.8764,6957.8792,0.03433,0.05333,-0.02195
46.8999,6957.8992,0.016,0.03317,-0.00912
46.9189,6957.9192,-0.04447,0.04783,-0.01951
46.9411,6957.9392,-0.10311,0.04173,-0.0586
46.9603,6957.9592,-0.03287,0.01546,-0.06532
46.9756,6957.9792,0.04044,-0.01203,-0.02073
46.9972,6957.9992,0.0044,-0.00531,0.01959
47.0171,6958.0192,-0.03103,-0.00042,0.02692
47.035,6958.0391,0.01539,-0.02058,0.01898
47.0552,6958.0591,0.06671,-0.05907,0.01837
47.0802,6958.0791,0.0661,0.00385,0.02387
47.0977,6958.0991,-0.00599,0.04845,0.04708
47.1215,6958.1191,-0.02431,0.03073,0.00982
47.1439,6958.1391,0.00134,-0.01875,-0.03783
47.165,6958.1591,-0.01393,-0.01081,-0.05249
47.1805,6958.1791,0.00623,0.05028,-0.03356
47.2004,6958.1991,-0.02553,0.04356,0.00737
47.2162,6958.2191,-0.00965,-0.01997,0.02264
47.2386,6958.2391,0.04777,-0.03646,0.02509
47.258,6958.2591,0.038,0.00202,0.0147
47.2834,6958.2791,0.00195,0.05211,-0.00179
47.2975,6958.2991,0.00073,0.05516,0.0147
47.3188,6958.3191,0.00562,-0.02852,0.01348
47.3475,6958.3391,0.05693,-0.04013,0.00737
47.3567,6958.3591,0.03922,0.00568,0.0092
47.3754,6958.3791,0.00012,0.05639,0.01715
47.3944,6958.3991,0.01234,0.0515,0.02692
47.4226,6958.4191,0.03616,-0.0157,0.00432
47.4381,6958.439,-0.00354,-0.01692,-0.02073
47.4626,6958.459,-0.03042,0.01485,-0.03356
47.477,6958.479,-0.01332,0.02706,-0.02867
47.5003,6958.499,0.02395,0.09304,-0.05066
47.5278,6958.519,0.06976,0.08876,-0.01034
47.5459,6958.5391,-0.02248,-0.00592,0.00187
47.5627,6958.5591,-0.06646,0.00996,0.00737
47.577,6958.5791,-0.08906,-0.0157,-0.00057
47.5963,6958.5991,-0.09762,-0.01325,0.00432
47.6198,6958.6192,-0.11472,-0.04196,0.01531
47.6361,6958.6392,-0.119,-0.07739,0.02875
47.658,6958.6592,-0.09212,-0.11771,0.02509
47.6779,6958.6793,-0.0518,-0.14092,0.0202
47.6971,6958.6993,-0.04753,-0.10794,0.0147
47.7235,6958.7193,-0.0573,-0.08411,-0.0079
47.7425,6958.7393,-0.03836,-0.04868,-0.01401
47.7603,6958.7594,-0.00538,-0.08228,-0.02195
47.782,6958.7794,0.04777,-0.0835,-0.04516
47.7976,6958.7994,0.03189,-0.02303,-0.06715
47.8161,6958.8195,0.01478,0.01668,-0.11175
47.8358,6958.8395,0.05571,0.00202,-0.11053
47.8634,6958.8595,0.06793,-0.0328,-0.07815
47.8766,6958.8795,0.06304,-0.01386,-0.09709
47.901,6958.8996,0.0661,-0.00348,-0.10136
47.92,6958.9196,0.07159,-0.01875,-0.08914
47.9392,6958.9396,0.07037,-0.04013,-0.0812
47.9546,6958.9597,0.03738,-0.04257,-0.09709
47.978,6958.9797,0.027,-0.02425,-0.12091
47.9965,6958.9997,0.04594,-0.0554,-0.12335
48.0165,6959.0197,0.04899,-0.07434,-0.10564
48.0397,6959.0398,0.027,-0.03891,-0.11114
48.057,6959.0598,0.00928,0.01057,-0.13679
48.0792,6959.0798,0.01051,-0.0047,-0.13191
48.1014,6959.0999,0.02333,-0.06823,-0.08548
48.1187,6959.1199,0.02578,-0.06701,-0.04272
48.1357,6959.1399,0.00012,-0.01447,-0.03478
48.1601,6959.1599,-0.0011,0.00446,-0.01767
48.1766,6959.1799,0.03128,-0.02608,0.03853
48.198,6959.1999,0.03372,-0.03952,0.06907
48.2575,6959.22,0.00806,-0.03463,0.0654
48.2635,6959.24,-0.05363,-0.03646,0.02936
48.2658,6959.26,-0.0518,-0.02058,0.03486
48.2781,6959.28,-0.03042,-0.00959,0.04097
48.2955,6959.3001,-0.04264,-0.00592,0.06052
48.318,6959.3201,-0.07746,0.0008,0.05502
48.3365,6959.3401,-0.03653,-0.03585,0.04769
48.3553,6959.3602,-0.00049,-0.09389,0.03608
48.3775,6959.3802,0.00745,-0.06945,0.05319
48.3975,6959.4002,0.00562,-0.00653,0.07762
48.416,6959.4202,-0.01148,-0.0157,0.08068
48.4362,6959.4403,0.02333,-0.02364,0.06724
48.4576,6959.4603,0.0325,-0.11038,0.07335
48.4773,6959.4803,0.03433,-0.14459,0.04341
48.4966,6959.5004,0.06487,-0.08228,0.02264
48.5228,6959.5204,0.02333,-0.10305,0.03669
48.544,6959.5404,0.04533,-0.1507,0.02387
48.5636,6959.5604,0.09358,-0.14886,0.00737
48.5816,6959.5805,0.14917,-0.17269,-0.04028
48.5975,6959.6005,0.15772,-0.10488,-0.11663
48.6184,6959.6205,0.05327,0.00385,-0.14779
48.6386,6959.6406,-0.03348,0.01668,-0.14107
48.6567,6959.6606,0.01906,-0.01386,-0.14901
48.6821,6959.6806,0.05571,-0.02119,-0.15145
48.7045,6959.7006,0.02761,-0.01508,-0.13924
48.7211,6959.7207,-0.00354,-0.0383,-0.08792
48.7412,6959.7407,-0.00293,-0.04563,-0.04333
48.7627,6959.7607,0.02517,-0.0273,-0.04516
48.7859,6959.7807,0.03433,-0.03402,-0.03966
48.8028,6959.8007,0.03189,-0.07373,-0.03417
48.8205,6959.8207,0.03555,-0.05357,-0.03722
48.8375,6959.8407,0.03494,-0.02242,-0.03295
48.8585,6959.8607,-0.0011,-0.02119,-0.04577
48.8807,6959.8807,-0.01882,-0.00714,-0.04211
48.8994,6959.9007,0.00745,-0.02425,-0.00057
48.9193,6959.9207,0.06854,-0.01875,-0.00546
48.9414,6959.9407,0.07526,0.06311,-0.03417
48.9671,6959.9607,-0.0011,0.01668,0.00859
48.981,6959.9807,0.02456,-0.05296,0.0092
49.0006,6960.0007,0.06304,-0.02852,-0.00546
49.019,6960.0207,-0.01637,0.04417,-0.02317
49.0423,6960.0407,-0.08112,0.04478,-0.04638
49.0749,6960.0607,-0.05852,-0.00959,-0.01462
49.0829,6960.0807,-0.00354,-0.09694,0.02387
49.1013,6960.1006,0.04594,-0.02425,0.02936
49.1212,6960.1206,0.02089,0.00874,0.03975
49.1379,6960.1406,0.00806,-0.02486,0.02631
49.1611,6960.1606,0.05693,-0.06029,-0.01706
49.182,6960.1806,0.09786,-0.05662,-0.04272
49.2003,6960.2006,0.06732,-0.02669,-0.04822
49.226,6960.2206,0.00867,0.07777,-0.05127
49.2458,6960.2406,-0.0121,0.04234,-0.06166
49.2643,6960.2606,0.06487,-0.04135,-0.05982
49.2876,6960.2806,0.07281,-0.05601,-0.01706
49.3039,6960.3006,0.03311,-0.03585,0.03364
49.3241,6960.3206,0.02944,-0.03463,0.04952
49.3383,6960.3406,0.05571,-0.03402,0.04341
49.359,6960.3606,0.06487,-0.02913,0.03975
49.3802,6960.3806,0.04471,-0.01142,0.0202
49.3984,6960.4006,0.04227,-0.01386,-0.0189
49.4181,6960.4206,0.04227,-0.01142,-0.03539
49.4354,6960.4406,-0.00538,-0.01325,-0.03661
49.4555,6960.4606,-0.04936,0.00141,-0.09525
49.483,6960.4806,-0.04936,0.01607,-0.1374
49.4967,6960.5006,-0.04569,-0.0047,-0.12946
49.5226,6960.5205,-0.02309,0.03806,-0.0922
49.557,6960.5405,-0.0182,0.03073,-0.04577
49.5662,6960.5605,-0.02187,0.00263,-0.01218
49.5821,6960.5805,0.00928,-0.03341,0.04586
49.5999,6960.6005,0.05143,-0.01508,0.06113
49.6212,6960.6205,0.04594,0.00691,0.05624
49.6397,6960.6405,-0.01515,0.05639,0.05807
49.6584,6960.6605,-0.00965,0.01485,0.06479
49.6811,6960.6805,0.03738,-0.03158,0.00248
49.6963,6960.7005,0.01051,-0.02975,-0.03478
49.7228,6960.7205,-0.08418,0.05578,-0.04577
49.7398,6960.7405,-0.07929,0.00996,-0.03722
49.755,6960.7605,-0.0121,0.00263,-0.02989
49.7774,6960.7805,-0.00293,0.0063,-0.00485
49.7977,6960.8005,-0.03225,0.00568,-0.00362
49.8186,6960.8205,-0.00965,-0.00103,0.0092
49.841,6960.8405,0.01112,0.03256,0.04402
49.8561,6960.8605,0.06121,0.07288,0.06601
49.8757,6960.8805,0.07404,0.0796,0.07396
49.8981,6960.9005,0.06671,-0.02669,0.06968
49.9161,6960.9205,0.03738,-0.07312,0.0373
49.9363,6960.9404,0.02578,-0.01936,-0.00546
49.9617,6960.9604,-0.02004,0.05089,-0.01951
49.9858,6960.9804,-0.02798,0.0344,0.01409
49.996,6961.0004,0.04838,-0.00042,0.00493
50.0189,6961.0204,0.06793,-0.03219,-0.02378
50.038,6961.0404,-0.0347,-0.00531,-0.02684
50.0742,6961.0604,-0.05241,0.03317,-0.02195
50.0833,6961.0804,0.01173,0.0851,-0.03722
50.1085,6961.1004,0.02456,0.05272,-0.01095
50.1209,6961.1204,-0.00843,-0.01264,0.02387
50.1406,6961.1405,-0.00171,-0.01264,0.04036
50.1593,6961.1605,0.01417,-0.0383,0.03669
50.1767,6961.1805,-0.00354,0.03562,-0.00668
50.1991,6961.2005,-0.03164,0.08265,-0.00546
50.2188,6961.2206,-0.02309,0.04173,0.00982
50.2367,6961.2406,0.01234,-0.0102,0.02325
50.2586,6961.2606,0.03433,-0.03402,0.03058
50.2764,6961.2807,0.01784,-0.02913,0.01226
50.2979,6961.3007,0.02578,-0.00653,-0.01523
50.3691,6961.3207,0.01784,0.02584,-0.02867
50.3733,6961.3408,0.02761,0.01363,-0.04272
50.3746,6961.3609,0.0325,-0.05051,-0.0134
50.3828,6961.3809,0.00073,-0.08717,-0.02134
50.4019,6961.401,0.03738,-0.03463,-0.09586
50.4212,6961.4211,0.03983,-0.00775,-0.11419
50.4381,6961.4411,-0.04447,0.12908,-0.02134
50.457,6961.4612,-0.16176,0.15718,0.02692
50.4778,6961.4812,-0.11472,0.02645,0.00432
50.5024,6961.5013,0.06182,-0.23316,-0.04944
50.518,6961.5214,0.12718,-0.39932,-0.07326
50.5399,6961.5414,0.08503,-0.30525,-0.09953
50.5613,6961.5615,0.04227,-0.17574,-0.16062
50.5798,6961.5815,0.01417,-0.19346,-0.20765
50.5992,6961.6016,-0.00171,-0.36816,-0.25225
50.6216,6961.6217,0.02944,-0.30647,-0.26202
50.6402,6961.6417,0.04288,-0.2014,-0.2724
50.6574,6961.6618,0.02639,-0.23316,-0.22964
50.6794,6961.6819,0.01845,-0.20384,-0.18505
50.6972,6961.7019,0.00073,-0.19773,-0.19971
50.7202,6961.7219,0.01723,-0.21545,-0.24369
50.7442,6961.742,0.05571,-0.14031,-0.21865
50.7585,6961.762,0.06121,-0.04502,-0.14229
50.7792,6961.782,0.04288,-0.05968,-0.09037
50.8005,6961.8021,0.0551,-0.18429,-0.05371
50.8183,6961.8221,0.05754,-0.16963,-0.07937
50.8388,6961.8421,0.05388,-0.06029,-0.10869
50.8618,6961.8621,-0.01026,0.00996,-0.08304
50.8807,6961.8822,-0.03531,-0.0273,-0.01462
50.9021,6961.9022,0.04838,-0.0835,0.0257
50.9198,6961.9222,0.10336,-0.09877,0.04097
50.9398,6961.9422,0.14062,-0.08533,-0.00668
50.9599,6961.9622,0.14917,0.0686,-0.025
50.9807,6961.9822,0.12352,0.07471,0.02814
51.004,6962.0022,0.13451,-0.06579,0.05197
51.0266,6962.0222,0.17361,-0.10061,0.04341
51.0516,6962.0422,0.16567,-0.10183,0.02142
51.0617,6962.0622,0.17972,-0.06762,-0.01156
51.0816,6962.0822,0.09725,-0.11466,0.01043
51.1117,6962.1022,0.01661,-0.28631,0.06785
51.122,6962.1222,-0.00171,-0.2411,0.0935
51.1409,6962.1421,-0.03103,-0.19224,0.06907
51.1625,6962.1621,-0.08235,-0.14031,0.03914
51.1834,6962.1821,-0.12938,-0.15436,0.07518
51.2051,6962.2021,-0.13549,-0.22278,0.10511
51.2199,6962.2221,-0.08296,-0.17269,0.0874
51.238,6962.2421,-0.03409,-0.09694,0.05868
51.2584,6962.2621,-0.0292,-0.05723,0.08495
51.286,6962.2821,-0.11778,-0.00653,0.0428
51.3004,6962.3021,-0.16298,0.00568,-0.05371
51.3273,6962.3221,-0.13121,-0.24355,-0.11297
51.3457,6962.3422,-0.0683,-0.34068,-0.04638
51.3605,6962.3622,-0.05852,-0.26249,0.03914
51.3776,6962.3822,-0.0909,-0.17452,0.01165
51.4009,6962.4022,-0.07929,-0.12076,-0.09648
51.418,6962.4223,-0.04692,-0.24294,-0.14962
51.4414,6962.4423,-0.06768,-0.38588,-0.12274
51.4636,6962.4623,-0.07196,-0.25027,-0.04516
51.479,6962.4824,-0.07501,-0.10244,-0.01584
51.498,6962.5024,-0.03225,-0.18246,-0.04394
51.5207,6962.5224,0.03372,-0.44025,-0.04211
51.5411,6962.5424,0.01845,-0.50011,-0.02928
51.5604,6962.5625,-0.10556,-0.34678,-0.03172
51.5859,6962.5825,-0.16115,-0.27104,0.00432
51.6093,6962.6025,-0.08112,-0.36022,0.00859
51.6277,6962.6226,-0.00965,-0.44025,-0.06227
51.6492,6962.6426,-0.03164,-0.41154,-0.08792
51.6639,6962.6626,-0.04447,-0.34678,-0.01156
51.6852,6962.6826,-0.01576,-0.30891,0.09961
51.7037,6962.7027,0.01967,-0.28875,0.11427
51.7236,6962.7227,0.02089,-0.31074,-0.00973
51.738,6962.7427,0.00379,-0.34862,-0.0977
51.7609,6962.7628,-0.03348,-0.22095,-0.10686
51.7887,6962.7828,-0.06768,-0.10671,-0.06227
51.8008,6962.8029,-0.05486,-0.09022,-0.04822
51.8297,6962.8229,-0.00049,-0.13604,-0.08548
51.8398,6962.843,0.03677,-0.1452,-0.10014
51.8596,6962.8631,0.00562,-0.09328,-0.07387
51.8804,6962.8831,-0.04325,0.03806,-0.01401
51.9014,6962.9032,-0.03653,0.10159,0.01226
51.9256,6962.9232,0.00928,0.03684,-0.02317
51.9428,6962.9433,-0.01026,0.00813,-0.05005
51.9617,6962.9633,-0.05791,0.0289,-0.05494
51.9814,6962.9833,-0.04325,0.14313,-0.01584
52.0072,6963.0033,0.03494,0.20422,0.0257
52.0189,6963.0234,0.10519,0.19139,-0.00729
52.0398,6963.0434,0.04594,0.14618,-0.06532
52.0636,6963.0634,0.06243,0.17551,-0.047
52.079,6963.0835,0.17177,0.26286,-0.0024
52.0999,6963.1035,0.18705,0.37281,0.02387
52.1224,6963.1235,0.10947,0.36671,0.00493
52.1465,6963.1435,0.10519,0.2598,0.01409
52.1642,6963.1636,0.16139,0.23659,0.06052
52.1869,6963.1836,0.10336,0.29768,0.0654
52.2001,6963.2036,0.05571,0.32761,-0.03111
52.2233,6963.2237,0.05815,0.24575,-0.02989
52.2587,6963.2437,0.1449,0.14679,0.01715
52.26,6963.2637,0.17239,0.20849,-0.025
52.277,6963.2837,0.09603,0.22254,-0.06654
52.3159,6963.3038,0.12474,0.23109,-0.02073
52.3217,6963.3239,0.21942,0.24759,0.0312
52.3424,6963.3439,0.17849,0.22132,-0.02195
52.3609,6963.364,0.12657,0.15901,-0.00485
52.379,6963.384,0.09969,0.24209,0.06357
52.3993,6963.404,0.1113,0.30745,0.06601
52.422,6963.4241,0.21637,0.27141,0.07029
52.4518,6963.4441,0.28356,0.22254,0.13749
52.4646,6963.4641,0.25302,0.36304,0.18147
52.486,6963.4842,-0.07746,0.31662,0.05197
52.5017,6963.5042,-0.33708,0.15657,-0.06776
52.5224,6963.5242,-0.25094,0.02157,-0.25469
52.5457,6963.5442,-0.08418,0.1358,-0.35548
52.565,6963.5643,-0.04325,0.42168,-0.17528
52.5826,6963.5843,-0.10373,0.41741,0.09656
52.6035,6963.6043,-0.03775,0.2091,0.22179
52.6239,6963.6243,0.09236,0.05944,0.10206
52.6435,6963.6444,0.23714,0.02401,-0.0415
52.6643,6963.6644,0.22859,0.10831,0.00798
52.6843,6963.6844,-0.02309,0.27935,0.12954
52.7115,6963.7045,-0.27355,0.22865,0.14665
52.7425,6963.7245,-0.21246,0.05272,0.05441
52.746,6963.7445,-0.10556,-0.01631,-0.02806
52.7615,6963.7645,-0.13793,0.0851,-0.05066
52.7849,6963.7846,-0.18802,0.30501,-0.07082
52.8016,6963.8046,-0.17031,0.45895,-0.07571
52.8232,6963.8246,-0.10739,0.35082,-0.06593
52.8429,6963.8447,-0.03042,0.12725,-0.025
52.8608,6963.8647,0.06854,-0.02608,0.12893
52.882,6963.8847,0.26524,-0.01508,0.27004
52.9038,6963.9047,0.37947,0.14924,0.32624
52.9221,6963.9247,0.30983,0.20116,0.31036
52.9479,6963.9447,0.35626,0.15596,0.25599
52.9659,6963.9647,0.44056,0.15596,0.21995
52.9831,6963.9847,0.37947,0.19566,0.24622
53.0044,6964.0047,0.35503,0.33067,0.23584
53.0233,6964.0247,0.35748,0.38381,0.16559
53.0419,6964.0447,0.36664,0.38564,0.06724
53.0664,6964.0647,0.34404,0.3722,0.06846
53.0872,6964.0847,0.21576,0.46506,0.17964
53.1067,6964.1047,0.13268,0.34533,0.24133
53.1279,6964.1247,0.14612,0.13641,0.23645
53.1492,6964.1447,0.22675,0.0625,0.21568
53.1641,6964.1647,0.31655,0.0796,0.1552
53.1837,6964.1846,0.43628,0.10953,0.07396
53.2056,6964.2046,0.39535,0.11931,0.03303
53.2279,6964.2246,0.173,0.0796,-0.02134
53.2458,6964.2446,0.12657,-0.00348,-0.04089
53.2651,6964.2646,0.31899,-0.13298,-0.0024
53.2965,6964.2846,0.41979,-0.22278,0.06907
53.3038,6964.3046,0.2915,-0.16536,0.11794
53.3221,6964.3246,0.00073,0.046,0.1271
53.3553,6964.3446,-0.29493,0.32944,0.02997
53.3644,6964.3646,-0.38656,0.48644,-0.04272
53.3819,6964.3846,-0.4,0.61594,-0.03539
53.4006,6964.4046,-0.45192,0.55913,0.20163
53.4211,6964.4246,-0.33341,0.34655,0.31158
53.4413,6964.4446,-0.07379,0.12053,0.234
53.459,6964.4646,0.162,-0.06945,0.19796
53.4828,6964.4846,0.24508,-0.02608,0.24378
53.5046,6964.5046,0.15589,0.11075,0.33541
53.5217,6964.5246,0.0606,0.21032,0.36473
53.541,6964.5446,0.06243,0.15351,0.28837
53.5654,6964.5646,0.13024,0.10342,0.17047
53.5807,6964.5846,0.12413,0.15168,0.10145
53.6011,6964.6045,0.08992,0.16268,0.16803
53.6231,6964.6245,0.15039,0.06677,0.22851
53.6485,6964.6445,0.23714,0.07532,0.17536
53.6677,6964.6645,0.19865,0.12908,0.20163
53.6831,6964.6845,0.13696,0.13152,0.32502
53.7092,6964.7045,0.1956,0.13885,0.38672
53.7235,6964.7245,0.23775,0.12847,0.31647
53.747,6964.7446,0.17972,0.17734,0.099
53.7646,6964.7646,-0.07318,0.28852,-0.08487
53.7902,6964.7846,-0.14465,0.35815,-0.03417
53.8037,6964.8047,-0.08662,0.39725,0.04402
53.822,6964.8247,0.0099,0.21521,0.07884
53.8421,6964.8447,0.12291,-0.05785,0.04525
53.8635,6964.8647,0.0661,-0.11527,-0.02989
53.8807,6964.8848,-0.0402,0.04356,0.00065
53.901,6964.9048,-0.07624,0.13641,0.03853
53.9337,6964.9248,-0.04936,0.12175,0.07884
53.9539,6964.9449,0.00195,-0.04563,0.08373
53.9647,6964.9649,0.04533,-0.19407,0.06846
53.9853,6964.9849,0.01173,-0.24477,0.03425
54.0106,6965.0049,-0.06524,-0.03708,-0.08976
54.0263,6965.025,-0.18314,0.13213,-0.15145
54.0505,6965.045,-0.20207,-0.03341,-0.07754
54.0643,6965.065,-0.10311,-0.50256,-0.11969
54.0814,6965.0851,-0.12572,-0.80127,-0.15206
54.1042,6965.1051,-0.23873,-0.76645,-0.09831
54.1212,6965.1251,-0.20207,-0.3193,-0.09586
54.1481,6965.1451,-0.33524,0.24331,-0.17039
54.1644,6965.1652,-0.54355,0.03195,-0.21498
54.1819,6965.1852,-0.58936,-0.03891,-0.34388
54.2018,6965.2052,-0.36823,0.07716,-0.46788
54.2272,6965.2253,-0.09945,0.20055,-0.46361
54.243,6965.2453,-0.17214,0.38137,-0.25102
54.2707,6965.2653,-0.42871,0.50049,-0.0189
54.2985,6965.2853,-0.49162,0.15779,0.13321
54.348,6965.3054,-0.20452,-0.34495,0.21384
54.3504,6965.3254,0.13146,-0.51844,0.15337
54.3522,6965.3462,0.18827,-0.25393,0.0654
54.3692,6965.3662,-0.02859,0.00263,-0.00668
54.4005,6965.3862,-0.23628,0.00019,-0.06776
54.4045,6965.4062,-0.42199,-0.22644,-0.01828
54.4257,6965.4263,-0.2821,-0.53127,0.10878
54.4408,6965.4463,0.02761,-0.51599,0.02997
54.4629,6965.4663,0.00134,-0.25821,-0.06104
54.4822,6965.4864,-0.13854,-0.14276,-0.12457
54.5014,6965.5064,-0.13977,-0.41031,-0.17467
54.525,6965.5264,-0.00171,-0.45857,-0.16795
54.5462,6965.5464,0.016,-0.42864,-0.14534
54.5657,6965.5665,0.04288,-0.37366,-0.18322
54.5845,6965.5865,-0.0066,-0.16169,-0.2608
54.603,6965.6065,-0.14893,-0.08533,-0.28279
54.6252,6965.6266,-0.13916,-0.20995,-0.29806
54.6507,6965.6466,-0.03103,-0.38955,-0.29256
54.6676,6965.6666,-0.04142,-0.24721,-0.25652
54.6862,6965.6866,-0.10128,-0.08656,-0.19482
54.7067,6965.7067,-0.03714,-0.16352,-0.08609
54.7292,6965.7267,0.027,-0.31013,-0.04944
54.7445,6965.7467,0.11252,-0.2466,-0.13252
54.7657,6965.7668,0.05266,-0.19896,-0.18933
54.7885,6965.7868,-0.02309,-0.09633,-0.23697
54.8118,6965.8068,-0.03287,-0.05051,-0.20826
54.8294,6965.8268,0.04777,-0.17086,-0.08976
54.8432,6965.8469,0.1675,-0.24599,-0.0586
54.8629,6965.8669,0.19743,-0.22583,-0.09586
54.8853,6965.8869,-0.01087,-0.02058,-0.1093
54.9048,6965.907,-0.14343,-0.02486,-0.06471
54.9243,6965.927,0.02272,-0.18246,-0.05799
54.95,6965.947,0.16261,-0.22278,-0.07754
54.967,6965.967,0.0496,0.0008,-0.0641
54.9839,6965.987,-0.06158,0.10403,-0.05677
55.0051,6966.007,-0.0402,0.07105,-0.06715
55.0242,6966.027,0.05876,-0.03463,-0.07265
55.049,6966.047,0.11558,-0.07251,-0.0696
55.0744,6966.067,0.14795,0.02218,-0.04272
55.086,6966.087,0.17849,0.28363,-0.02867
55.1063,6966.107,0.12535,0.34288,-0.01095
55.1249,6966.127,0.13757,0.21155,0.02081
55.1433,6966.147,0.16994,-0.04746,0.05013
55.1666,6966.167,0.10153,0.11442,0.00676
55.1891,6966.187,-0.02431,0.18528,-0.03233
55.2064,6966.2069,-0.0402,0.30806,-0.0415
55.2309,6966.2269,-0.08906,0.18345,0.05441
55.2481,6966.2469,-0.02248,-0.03402,0.10572
55.271,6966.2669,0.06671,-0.09328,0.07884
55.2903,6966.2869,-0.01026,0.05822,0.04158
55.3094,6966.3069,-0.03836,0.16879,0.04036
55.3349,6966.3269,-0.02065,0.20238,0.00859
55.3459,6966.3469,-0.01454,0.19139,-0.01279
55.3676,6966.3669,0.00012,0.03501,-0.04577
55.3876,6966.3869,0.04166,0.08265,-0.16367
55.4033,6966.4069,-0.09578,0.20971,-0.21437
55.4234,6966.4269,-0.18375,0.30073,-0.17955
55.4427,6966.4469,-0.10556,0.14924,-0.13496
55.4716,6966.4669,-0.01515,-0.07251,-0.13007
55.4876,6966.4869,-0.03836,-0.06579,-0.16306
55.502,6966.5069,-0.05302,-0.05113,-0.13374
55.5296,6966.5269,-0.07746,-0.04685,-0.08365
55.5492,6966.5469,-0.08051,-0.09816,-0.02684
55.5662,6966.5669,0.01356,-0.13665,-0.0079
55.5899,6966.5869,0.09114,0.0515,-0.01584
55.6084,6966.6069,0.04227,0.03134,0.04708
55.6237,6966.6268,0.03983,-0.09022,0.07212
55.6463,6966.6468,0.07281,0.00385,0.04708
55.6684,6966.6668,0.0551,0.06127,0.04158
55.6822,6966.6868,0.02944,0.00324,0.04097
55.7019,6966.7068,0.04533,-0.06945,0.03669
55.7238,6966.7268,0.07098,-0.07251,0.03058
55.7446,6966.7468,0.03555,0.00263,0.04097
55.7725,6966.7668,-0.02065,0.0967,0.05135
55.7878,6966.7868,-0.03225,0.01302,0.05074
55.8124,6966.8068,0.04838,-0.12321,0.01592
55.83,6966.8268,0.08014,-0.07678,0.00371
55.8471,6966.8468,-0.00049,0.01118,0.02875
55.863,6966.8668,-0.05791,0.0179,0.01104
55.8821,6966.8868,-0.06585,-0.02364,0.00737
55.9162,6966.9068,0.03494,-0.0719,0.02509
55.9256,6966.9268,0.04838,-0.01508,0.02875
55.947,6966.9468,-0.00965,0.01912,0.05135
