AppTimestamp(s),SensorTimestamp(s),acc_x,acc_y,acc_z,gyro_x,gyro_y,gyro_z,mag_x,mag_y,mag_z,PitchX,RollY,YawZ,Quat_w,Quat_x,Quat_y,Quat_z
0.0437,6911.0146,-1.34319,6.37595,7.77421,-0.13305,-0.14886,-0.07326,-18.2,-11.5,-33.7,35.851063,6.076813,-71.584839,0.780222505167622,0.27879801,-0.138845,-0.542445
0.0452,6911.0346,-1.51079,6.78298,8.03758,-0.13671,-0.20079,-0.07326,-18.2,-11.6,-33.7,35.699478,5.9756,-71.577835,0.7804233218220096,0.27732,-0.13876501,-0.542934
0.0505,6911.0546,-1.89866,7.37916,8.18124,0.03005,-0.35473,-0.13801,-18.1,-11.6,-33.5,35.623539,5.814466,-71.631325,0.7801194909138728,0.27598599,-0.139614,-0.543832
0.0786,6911.0746,-2.36554,7.9873,8.01603,-0.00477,-0.53188,-0.08426,-18.1,-11.8,-33.5,35.750984,5.576436,-71.796425,0.7787967911222154,0.27549899,-0.14226399,-0.545286
0.1134,6911.0946,-2.90186,8.33447,8.27461,-0.06585,-0.27592,-0.13618,-18.1,-11.8,-33.2,35.84602,5.286959,-71.955627,0.7774911543764333,0.274551,-0.14508399,-0.54688197
0.1137,6911.1146,-3.69437,8.47094,9.10064,0.06671,-0.5502,-0.07326,-18.1,-11.9,-33.0,36.012684,5.332925,-72.205795,0.7760295283976242,0.27555799,-0.146203,-0.54815203
0.1379,6911.1346,-4.49405,8.3656,9.81892,0.45033,-0.07923,0.14054,-18.2,-11.9,-32.9,36.416286,5.267549,-72.436958,0.774047129754306,0.27761701,-0.14921699,-0.54910302
0.1516,6911.1546,-4.94418,8.20279,10.07032,0.60732,0.27813,0.49667,-18.1,-12.0,-32.9,37.19104,5.673934,-72.395401,0.7732373652448772,0.284724,-0.15023901,-0.54631901
0.1688,6911.1746,-5.46374,8.06871,9.93624,0.61832,1.03866,0.45391,-18.1,-12.1,-32.9,38.032619,6.452356,-72.036484,0.7742597225232755,0.29441699,-0.148268,-0.54023802
0.2034,6911.1946,-6.26821,7.98491,9.82131,0.64458,0.84074,0.526,-18.1,-12.2,-32.9,38.828163,7.985425,-71.800934,0.7756959387241109,0.307105,-0.14124,-0.53294802
0.2085,6911.2146,-6.86678,7.70238,9.87638,0.76859,-0.18307,0.78928,-18.0,-12.3,-32.8,39.646152,8.91295,-71.482437,0.776650569732064,0.31711501,-0.13815799,-0.52646399
0.2659,6911.2346,-6.74707,7.26184,10.0368,0.84128,-0.98514,0.93467,-17.9,-12.5,-32.8,40.585312,8.640862,-70.898575,0.7770497478206141,0.32270399,-0.143015,-0.521155
0.2741,6911.2546,-6.16526,6.51961,10.07032,0.10702,0.87617,0.75751,-17.9,-12.7,-32.8,41.377895,7.749743,-70.242355,0.7771760357070844,0.32468301,-0.151079,-0.51744902
0.2768,6911.2746,-5.16684,5.25543,11.43985,-0.02004,2.00321,1.02324,-17.8,-12.8,-32.9,41.317638,9.383009,-69.621056,0.7821481800725739,0.332385,-0.13789199,-0.50867498
0.2883,6911.2946,-4.6856,3.98407,12.34009,0.69468,3.74479,1.38304,-17.6,-13.0,-32.9,41.264332,11.893102,-68.531677,0.7898197128102842,0.34423101,-0.1172,-0.49391699
0.3096,6911.3146,-4.31688,2.842,11.51167,1.32264,4.50226,2.09409,-17.1,-13.2,-33.0,42.064339,15.766969,-67.009697,0.7981049018382984,0.36709899,-0.08949,-0.46931699
0.3276,6911.3346,-3.58423,2.05908,9.9961,1.41672,4.2121,2.67441,-14.0,-14.2,-33.5,43.50803,19.376389,-64.657219,0.8069785812522411,0.39229399,-0.063299,-0.436903
0.3474,6911.3545,-2.27456,1.57304,8.39193,1.3819,3.41065,2.86805,-10.1,-15.7,-34.6,45.116947,21.751266,-61.538414,0.8162704626862349,0.412844,-0.043017,-0.401761
0.3696,6911.3745,-0.80208,1.2546,6.71834,1.07097,2.30009,2.54185,-6.3,-16.8,-34.8,46.599274,22.788401,-58.167843,0.8248051355088546,0.427053,-0.029911,-0.36936101
0.3914,6911.3945,0.14366,1.12052,5.74147,0.44911,1.43328,2.0892,-5.8,-18.6,-36.2,47.393204,22.536074,-54.920334,0.8330674087824105,0.43224701,-0.022989,-0.34443101
0.4084,6911.4145,0.46688,1.06545,5.82288,0.10091,0.89144,1.83997,-4.2,-18.9,-36.1,47.339241,21.379854,-51.791107,0.8421380007186707,0.42908099,-0.019458,-0.32605901
0.4304,6911.4345,0.66082,0.67997,6.0623,0.02456,0.51026,1.92243,-3.6,-19.8,-33.9,46.876686,19.570271,-48.632671,0.8517673240153086,0.42140999,-0.019308,-0.310698
0.4483,6911.4545,0.83321,0.13647,6.08864,-0.108,0.82241,2.27979,-3.6,-20.1,-35.8,46.261513,17.122402,-45.144855,0.8621493006267069,0.41124499,-0.022697,-0.29506099
0.4719,6911.4745,1.53952,0.02634,5.77739,-0.14588,2.70632,2.95419,-3.7,-21.2,-36.6,45.507919,15.043391,-40.764061,0.8746328158288138,0.40148199,-0.02039,-0.27094999
0.4977,6911.4945,2.87313,0.17239,5.5212,-0.36579,2.8627,3.08247,-2.0,-21.1,-38.5,44.73539,13.822568,-35.464832,0.8883711447365679,0.39372799,-0.009071,-0.235993
0.5158,6911.5145,4.31927,0.57941,5.03516,-0.83432,2.88042,2.62126,-1.2,-21.1,-37.4,43.596645,12.339288,-29.931433,0.9021130674644392,0.38243699,0.001063,-0.19983201
0.5379,6911.5345,5.25064,1.12291,4.80292,-1.42258,2.91768,1.93587,0.0,-20.9,-36.4,41.818481,11.151277,-24.98765,0.915211994033579,0.36642399,0.01177,-0.16727801
0.5509,6911.5545,5.38472,1.75021,5.06868,-1.88318,2.64646,1.39465,0.4,-19.7,-40.1,39.446278,10.333299,-20.842358,0.9275421079229341,0.34589401,0.022576,-0.13969
0.5686,6911.5745,5.2291,2.42061,6.024,-2.06827,2.01971,1.21689,1.1,-19.0,-39.7,36.747963,9.494876,-17.441921,0.9387844606594848,0.32241401,0.030006,-0.117612
0.5886,6911.5945,5.61697,3.31607,7.27381,-1.68587,1.5866,1.23643,1.1,-17.9,-40.0,34.175499,8.18477,-14.372474,0.9485525015877402,0.29931799,0.031015,-0.098463
0.6098,6911.6145,6.29215,4.24505,7.88674,-1.39265,1.45893,0.85892,1.8,-17.2,-39.3,32.165161,6.941422,-11.741395,0.9557861714416044,0.281014,0.029581,-0.081418
0.6279,6911.6345,6.51722,4.84362,8.06631,-1.47634,0.81203,0.19857,2.3,-17.0,-40.4,30.451496,5.945055,-9.900416,0.9611812886219748,0.265609,0.027219,-0.069581
0.6488,6911.6545,6.24427,5.16684,8.5332,-1.54231,-0.04441,-0.16245,3.5,-15.2,-41.0,28.668926,4.664473,-8.778573,0.965996159903858,0.249669,0.020379,-0.064043
0.6747,6911.6745,6.03597,5.38233,9.54597,-1.2607,-0.75057,-0.22109,3.0,-13.0,-42.4,26.975208,2.75692,-7.832646,0.9702520560086435,0.234221,0.007413,-0.060799
0.6947,6911.6945,5.83485,5.95217,10.58509,-0.66878,-1.15801,-0.14534,2.4,-11.8,-43.8,25.770136,0.389939,-6.846961,0.9731193813144922,0.22279499,-0.010005,-0.057454
0.7103,6911.7145,5.85879,6.53637,11.17887,-0.17459,-1.73284,-0.19788,1.7,-9.9,-42.3,25.268589,-2.287357,-5.895264,0.974076350370442,0.217393,-0.030696,-0.054528
0.731,6911.7345,6.05991,6.96495,11.27943,-0.03225,-2.41762,-0.58456,0.6,-9.8,-45.5,25.264616,-5.4128,-5.123559,0.9732695114748227,0.21617199,-0.055793,-0.053882
0.7486,6911.7545,6.19159,7.2331,11.35126,-0.09701,-2.76337,-1.05553,-0.8,-9.0,-44.2,25.430256,-8.822037,-4.893551,0.9709776473318014,0.216049,-0.084325,-0.058434
0.7813,6911.7744,6.00724,7.24508,11.5835,-0.14954,-2.80307,-1.43671,-3.2,-9.0,-43.6,25.66065,-12.130482,-5.286083,0.9674605054920846,0.215836,-0.113096,-0.068149
0.8034,6911.7944,5.41346,7.19719,11.98813,-0.11839,-2.70167,-1.5485,-4.2,-7.9,-44.0,25.980547,-14.958359,-6.159637,0.9631507038628585,0.215737,-0.13862599,-0.081124
0.8124,6911.8144,5.00643,7.17804,12.36882,0.05082,-2.72672,-1.5033,-6.9,-7.7,-43.1,26.421803,-17.415745,-7.149217,0.9582840441475063,0.21627299,-0.16118801,-0.094531
0.8299,6911.8345,4.85559,7.25705,12.57713,0.19865,-2.66013,-1.65479,-7.5,-8.1,-41.4,27.088377,-19.758049,-8.195508,0.9524543142101671,0.21821401,-0.18285801,-0.108519
0.855,6911.8545,4.66165,7.28099,12.55558,0.25485,-2.5459,-1.93946,-9.4,-7.5,-40.1,28.023869,-21.853895,-9.368349,0.9457244588227904,0.221921,-0.20271701,-0.12354
0.8725,6911.8745,4.3073,7.11818,12.57473,0.33121,-2.65647,-2.2119,-10.4,-7.8,-40.9,29.19865,-23.679911,-10.878334,0.937956807524888,0.22676399,-0.221044,-0.141261
0.8913,6911.8946,3.91225,6.69918,12.49811,0.61404,-3.09201,-2.48068,-12.8,-8.2,-39.3,30.732153,-25.610762,-12.621035,0.9281172104055608,0.233338,-0.240824,-0.161727
0.9127,6911.9146,3.48128,6.28258,12.3808,0.76859,-3.30643,-2.63218,-15.5,-8.9,-36.2,32.698059,-27.835524,-14.558496,0.9153083831224533,0.241778,-0.26356199,-0.185173
0.9303,6911.9346,3.10537,5.83964,12.33291,1.02882,-3.41577,-2.84598,-17.3,-9.7,-33.8,35.003563,-30.148077,-16.632109,0.8998959670528589,0.251461,-0.28742,-0.210581
0.9505,6911.9546,2.71032,5.34642,11.94264,1.30126,-3.40172,-3.08849,-18.1,-11.5,-32.5,37.717094,-32.293556,-18.907246,0.8818796648051024,0.26304001,-0.31059301,-0.23797099
0.9721,6911.9747,2.23146,4.74545,11.07592,1.32631,-3.25389,-3.30169,-19.0,-12.9,-30.9,40.647915,-33.871544,-21.416399,0.8626546008974275,0.27572301,-0.330145,-0.26609799
0.9944,6911.9947,1.59698,4.10379,10.16609,1.18948,-3.0407,-3.40675,-19.0,-14.2,-28.4,43.39719,-34.463303,-24.62582,0.8436670134930012,0.28630999,-0.344219,-0.296253
1.0182,6912.0147,1.03912,3.44297,9.29457,1.04592,-2.78963,-3.43546,-20.1,-16.4,-26.5,45.953644,-34.298058,-28.395634,0.8246285010319131,0.295028,-0.35466,-0.32735699
1.0325,6912.0348,0.78532,2.61215,8.64812,0.89137,-2.52574,-3.5332,-19.5,-17.3,-24.6,48.245426,-33.328484,-32.736851,0.8058753933009245,0.30190301,-0.361451,-0.35884899
1.0585,6912.0548,0.01437,2.20273,8.25307,0.94574,-2.21298,-3.56863,-18.9,-17.9,-23.8,50.306908,-31.405394,-37.881302,0.786869264513197,0.30750799,-0.36453301,-0.39165199
1.0741,6912.0748,-0.38069,1.91542,7.66168,1.08685,-1.81103,-3.30169,-19.4,-19.7,-22.8,52.156441,-28.8002,-43.243187,0.7684783063852093,0.31352001,-0.36454901,-0.42219701
1.0952,6912.0948,-0.63448,1.68318,6.76622,1.22613,-1.69496,-3.33773,-16.8,-21.0,-20.0,53.774986,-25.687395,-48.660774,0.7509303558939003,0.320081,-0.36231399,-0.44986701
1.1125,6912.1149,-1.12052,1.54191,5.44698,1.10396,-1.78598,-3.56008,-16.7,-22.3,-18.7,55.273045,-21.950294,-54.876293,0.7311760566679683,0.326433,-0.35952401,-0.47913
1.1349,6912.1349,-2.01119,1.53952,4.21392,0.58716,-2.00956,-3.58024,-17.1,-23.7,-18.8,56.298721,-17.444258,-62.349216,0.7086365109243101,0.32976401,-0.35578701,-0.512353
1.1572,6912.1549,-2.81806,1.5036,3.68479,-0.02187,-2.20198,-3.46295,-12.1,-24.7,-13.9,56.414505,-12.564452,-70.613953,0.6849419943355926,0.32767501,-0.35023299,-0.54847097
1.18,6912.175,-3.41663,1.62811,3.89309,-0.33036,-2.12624,-3.35972,-14.5,-24.6,-12.9,55.59877,-7.669601,-79.370483,0.6593026993147227,0.32032499,-0.342677,-0.58760899
1.2006,6912.195,-4.01041,1.85077,4.16604,-0.31325,-1.91365,-3.37499,-9.8,-26.5,-11.8,54.368191,-2.827185,-87.922272,0.6322838308470645,0.31351301,-0.33283299,-0.62541902
1.2188,6912.215,-4.79334,1.9657,4.06787,-0.44092,-1.76705,-3.42691,-11.6,-25.5,-13.5,52.940678,2.016611,-96.418724,0.6023029884778587,0.308741,-0.321785,-0.66209102
1.2305,6912.235,-5.62415,2.0064,4.03196,-0.80317,-1.88067,-3.32917,-7.7,-27.4,-9.5,50.944832,6.827078,-104.608391,0.5713126899682341,0.30504599,-0.30683401,-0.69742501
1.2561,6912.2551,-6.49088,2.11654,4.28336,-1.10799,-1.87761,-3.09827,-7.9,-27.5,-9.4,48.375816,10.770069,-112.192589,0.538496900049313,0.298592,-0.29081401,-0.732319
1.2802,6912.2751,-7.34803,2.15485,4.79813,-1.35783,-1.55202,-2.84293,-6.5,-27.2,-10.4,45.4328,13.962738,-118.715027,0.5070405643380811,0.29182601,-0.27263999,-0.763816
1.3117,6912.2951,-7.97533,2.06865,5.3967,-1.49833,-1.1348,-2.53994,-5.7,-27.9,-9.8,42.233547,16.742844,-124.186234,0.478307333525756,0.28684199,-0.25141701,-0.79103303
1.3157,6912.3151,-8.47813,2.05668,5.97372,-1.72496,-0.77073,-2.26077,-7.3,-27.4,-12.8,38.906372,19.139166,-128.603561,0.45307806643416265,0.283656,-0.227947,-0.81381798
1.3524,6912.3352,-9.38556,2.12133,6.44778,-1.96259,-0.52332,-1.98283,-6.8,-27.8,-13.2,35.394539,21.224144,-131.966309,0.4322484468506506,0.281863,-0.201515,-0.83253002
1.3619,6912.3552,-10.54199,2.20034,6.85002,-2.24725,-0.20567,-1.47153,-7.3,-28.4,-13.2,31.786409,22.971296,-134.400696,0.41550278531509244,0.28053999,-0.173181,-0.84773999
1.378,6912.3752,-11.56195,2.43258,7.25226,-2.45189,-0.05601,-0.8289,-8.4,-27.4,-15.9,28.202177,24.396923,-135.757935,0.40466224018736896,0.27951899,-0.143434,-0.85880399
1.3955,6912.3953,-12.2946,3.05031,7.87238,-2.56429,-0.04624,-0.14412,-7.7,-26.4,-15.6,24.82803,25.474279,-135.975601,0.4009764967073752,0.278218,-0.113695,-0.86538202
1.4124,6912.4153,-12.40234,3.85718,8.83727,-2.53802,0.08754,0.50401,-8.1,-26.8,-17.7,21.847586,26.184809,-135.255035,0.4037104064305001,0.275931,-0.086026,-0.86803198
1.43,6912.4353,-11.88757,4.79573,9.90033,-2.43723,0.40824,1.00491,-7.8,-26.5,-16.0,19.378616,26.854509,-133.83989,0.41181781100692944,0.27475199,-0.06087,-0.86672503
1.4511,6912.4553,-10.93944,5.65767,10.95141,-2.45861,0.82424,1.3806,-8.2,-25.7,-19.9,17.416819,27.212208,-131.731628,0.42532479117805944,0.27237701,-0.039217,-0.86219001
1.4689,6912.4753,-9.97934,6.23948,12.13897,-2.40852,0.9397,1.56263,-8.0,-24.7,-23.5,15.667089,27.406429,-129.081558,0.4428879854974161,0.268814,-0.018675,-0.85512602
1.4928,6912.4953,-9.51724,6.36638,13.31456,-2.05116,1.17183,1.8418,-8.4,-23.0,-24.1,14.143261,27.749149,-126.303787,0.46145425072713275,0.26629901,0.00084,-0.84625298
1.5152,6912.5153,-9.04078,6.20117,14.05439,-1.49222,0.94886,2.43984,-8.1,-21.7,-27.1,13.265829,28.305889,-123.356606,0.4818045879431816,0.266938,0.01663,-0.83446503
1.539,6912.5353,-8.33686,5.91625,14.43987,-0.7207,0.88044,2.93953,-7.6,-20.4,-27.6,13.356946,28.581553,-120.118515,0.5052541726100829,0.26869699,0.024706,-0.81970102
1.5498,6912.5553,-7.05114,5.63612,14.79183,0.08686,1.20176,3.06597,-8.6,-20.3,-28.6,14.487878,28.840853,-116.85025,0.5298210456751032,0.274418,0.025315,-0.80208701
1.5812,6912.5752,-5.64809,5.38472,14.3848,0.7356,1.76314,3.02138,-8.1,-19.7,-29.6,16.464052,29.563354,-113.989899,0.551895274764932,0.28717101,0.021442,-0.78261399
1.6053,6912.5952,-4.62095,5.2267,13.14696,0.79364,2.13211,3.09652,-7.4,-19.8,-31.1,18.993219,30.910034,-111.453934,0.5716683974903453,0.30674499,0.016598,-0.76080698
1.6168,6912.6152,-4.45814,4.93221,11.77504,0.49492,2.11989,3.25779,-7.5,-20.1,-31.4,21.575954,32.409588,-108.773354,0.5917600688497658,0.32753,0.013513,-0.73645198
1.6319,6912.6352,-5.16445,4.30969,10.68804,0.3697,1.60921,3.74403,-7.5,-20.1,-31.5,24.104921,33.493404,-105.679413,0.613627046457944,0.34535199,0.010863,-0.70998299
1.6513,6912.6552,-5.61457,3.431,10.11581,0.63053,0.61655,4.52961,-7.5,-19.9,-30.5,26.971516,33.194763,-101.820328,0.6393088904568429,0.35651001,0.001682,-0.68130898
1.6718,6912.6752,-5.21234,2.57624,9.64893,1.16321,0.75766,4.94622,-7.7,-20.0,-31.7,30.194714,31.458933,-97.256271,0.6672222967662875,0.36212099,-0.015145,-0.65073299
1.6961,6912.6952,-4.07266,2.06626,9.02402,1.48452,1.43083,5.21744,-8.5,-20.3,-30.1,33.760426,29.726873,-92.320213,0.6943492328016933,0.371443,-0.032412,-0.61551499
1.709,6912.7152,-2.77257,1.67599,8.38715,1.49185,1.75093,5.27975,-8.2,-20.3,-30.3,37.354748,28.179916,-86.961319,0.7203587579374596,0.38407201,-0.046388,-0.57569098
1.7351,6912.7352,-1.46769,1.13489,7.68083,1.48025,1.94274,5.18445,-7.3,-20.5,-29.9,40.632996,26.351442,-81.130875,0.7451174482668081,0.395827,-0.057466,-0.53368402
1.7506,6912.7552,-0.53153,0.51237,6.71594,1.3874,2.1938,4.97554,-7.7,-20.1,-30.4,43.496246,24.265406,-74.955429,0.7680230639058829,0.406259,-0.065491,-0.49071899
1.7729,6912.7752,-0.12929,0.05028,5.64331,0.99522,2.13944,4.945,-7.6,-20.0,-30.7,45.760338,21.868721,-68.368706,0.7897475892668998,0.413984,-0.06992,-0.44724399
1.7934,6912.7952,0.23224,-0.38787,4.7239,0.37397,1.75276,5.15086,-7.7,-20.0,-31.0,47.171707,18.537672,-60.959183,0.8121925407574363,0.41520101,-0.073092,-0.40324801
1.8198,6912.8152,1.07982,-0.73744,4.40786,-0.35357,1.19321,5.24798,-7.6,-20.1,-31.1,47.43008,13.882393,-52.57938,0.8363682473085884,0.40695199,-0.077627,-0.35896
1.8427,6912.8352,2.36315,-0.73744,4.88671,-0.77201,1.09608,5.17957,-7.8,-20.1,-31.5,46.324852,8.36305,-43.78101,0.8615253074837674,0.389002,-0.084055,-0.315256
1.8566,6912.8552,3.91943,-0.44055,5.58584,-0.73353,1.75398,4.78861,-7.8,-20.1,-31.5,44.469326,3.277619,-35.336617,0.8849022116395346,0.36843899,-0.089577,-0.27051201
1.8756,6912.8752,4.95375,0.05267,5.76063,-0.66817,2.42532,4.102,-7.8,-20.0,-31.8,42.190742,-0.372267,-27.841291,0.9052943688139344,0.34862,-0.089531,-0.22558901
1.8953,6912.8952,5.12375,0.47167,5.42543,-0.92534,2.26283,3.58643,-7.8,-19.9,-31.9,39.721058,-2.713949,-21.614935,0.9220724325317399,0.329436,-0.085563,-0.18421
1.9094,6912.9152,5.07107,0.40703,4.95136,-1.35356,1.34592,3.33353,-7.9,-19.7,-32.0,36.959373,-4.879312,-16.418066,0.9359406946369198,0.30767199,-0.085176,-0.148654
1.9312,6912.9352,5.38951,0.15323,5.05192,-1.79032,0.50537,3.16982,-8.7,-17.2,-33.4,33.709385,-7.616744,-11.999996,0.9476855127211136,0.28107601,-0.093459,-0.11897
1.9538,6912.9552,5.82527,-0.07662,5.77739,-2.09454,0.25797,3.11912,-9.4,-14.3,-36.0,29.965162,-10.560714,-8.04412,0.9578671004220785,0.250559,-0.106738,-0.091202
1.9762,6912.9752,6.2323,-0.22985,7.02241,-1.97481,0.21765,3.17532,-10.6,-11.1,-36.3,25.937044,-13.209648,-4.224274,0.9664168186263523,0.21864399,-0.120227,-0.061472
1.9992,6912.9952,6.91467,-0.19872,7.99688,-1.41831,0.03134,3.19548,-13.9,-5.6,-38.9,22.133055,-15.548661,-0.712878,0.9722040258145407,0.189355,-0.133937,-0.032014
2.0117,6913.0151,8.10223,0.28492,8.23152,-1.04873,-0.04685,2.88638,-14.7,-3.1,-38.5,18.940407,-17.725769,2.685742,0.9749203071333574,0.166087,-0.148119,-0.002503
2.0321,6913.0351,9.49809,0.99602,7.75027,-1.4684,0.44978,1.77399,-14.0,-0.5,-39.3,16.156664,-19.440744,5.237112,0.9759278061147966,0.14600199,-0.160662,0.020882
2.0684,6913.0551,10.22834,1.46051,7.49169,-2.12997,0.60555,0.61152,-14.5,1.8,-40.3,13.368,-20.139053,6.433969,0.9775052049958609,0.124165,-0.16695,0.034559
2.071,6913.0751,10.15651,1.50839,7.9897,-2.32972,-0.07617,-0.19177,-14.2,4.2,-38.1,10.554403,-20.630022,6.141196,0.979143676633312,0.099909,-0.173198,0.036032
2.0988,6913.0951,9.91709,1.42699,8.66727,-2.1599,-0.89656,-0.64076,-14.4,6.3,-40.5,8.101727,-21.905037,5.059581,0.9789701318817137,0.077653,-0.18627501,0.029818
2.1127,6913.1151,9.83568,1.59698,9.44063,-2.14279,-1.2698,-1.1099,-15.7,7.6,-37.7,6.122824,-23.888287,3.534724,0.97682970066486,0.058599,-0.204953,0.019083
2.1338,6913.1351,9.89554,1.69994,9.93624,-2.18983,-1.34799,-1.70244,-16.4,9.1,-37.5,4.53861,-26.089149,1.378014,0.9734678018707142,0.041284,-0.225052,0.002769
2.1572,6913.1551,9.46696,1.64247,10.15172,-2.47938,-1.02057,-2.16548,-17.5,10.1,-35.1,3.308048,-28.155399,-1.417319,0.9694015830837497,0.024988,-0.24346399,-0.019012
2.1728,6913.1751,8.92825,1.43417,10.52763,-2.80375,-0.62778,-2.1838,-18.8,10.8,-34.6,2.088835,-29.677414,-4.771705,0.9654578151403819,0.006945,-0.25656801,-0.044898
2.1932,6913.1951,8.75586,1.18517,10.93705,-2.88805,-0.32968,-2.3524,-19.3,12.7,-34.1,0.748852,-30.755688,-8.366631,0.9614821532241875,-0.01306,-0.26493099,-0.072063
2.2362,6913.2151,8.66488,0.94813,12.03602,-2.53497,-0.46102,-2.86308,-19.7,14.0,-32.4,-0.351773,-31.600988,-12.213375,0.9568399853507378,-0.031903,-0.270428,-0.101529
2.2365,6913.2351,8.18842,0.84997,13.22119,-1.42014,-0.4714,-3.51793,-21.0,14.0,-29.6,-0.567048,-32.43013,-16.241745,0.9507749472380201,-0.04415,-0.275769,-0.13427299
2.2499,6913.2551,7.52521,0.86433,13.3002,-0.24056,-0.27898,-3.88079,-22.7,12.5,-28.8,0.663347,-32.985081,-20.202225,0.9436901538502348,-0.044325,-0.28045899,-0.16978499
2.2675,6913.2751,6.93621,0.94334,12.34727,0.3196,-0.10549,-4.03533,-23.1,10.3,-30.0,3.064173,-33.125263,-23.809811,0.9359848211571702,-0.033708,-0.28411901,-0.205116
2.2905,6913.2951,6.05033,1.1301,11.1645,0.30555,-0.13543,-4.15934,-24.0,8.4,-29.4,5.932966,-32.947346,-27.274561,0.9272061831148128,-0.018542,-0.28691199,-0.24005499
2.3114,6913.3151,5.65767,1.42938,10.35045,0.19865,-0.21423,-3.98097,-24.5,7.8,-28.3,8.697857,-32.633083,-30.852488,0.9168182735808333,-0.004361,-0.28940099,-0.27508599
2.3359,6913.3351,5.84442,1.27375,9.92188,0.38436,-0.12687,-4.47332,-24.3,5.8,-27.9,11.211011,-32.174309,-34.476913,0.9052702877376899,0.007912,-0.29120001,-0.30923399
2.3592,6913.3551,5.21234,1.11813,9.64414,0.79547,-0.26371,-5.09091,-21.5,2.0,-25.8,14.212288,-31.349266,-38.590572,0.8907040501002226,0.023827,-0.29239699,-0.34725001
2.3699,6913.3752,4.48927,1.19953,9.30894,1.19436,-0.52882,-5.15933,-21.6,-1.1,-26.0,17.656153,-30.431059,-42.99868,0.8724083099086114,0.04274,-0.295571,-0.38692999
2.3911,6913.3952,4.19477,1.24502,8.67925,1.30982,-0.59724,-5.3322,-25.5,-2.1,-27.5,21.266459,-29.464962,-47.452934,0.8512947012971595,0.062803,-0.30061901,-0.425419
2.4129,6913.4152,3.71113,0.94813,7.75266,1.09174,-0.50683,-5.60953,-20.3,-6.3,-23.9,24.812225,-28.092728,-52.353119,0.8272735397118415,0.082473,-0.30466899,-0.46475101
2.43,6913.4352,2.86834,0.55068,7.05832,0.62443,-0.33151,-5.66634,-19.7,-9.3,-22.2,27.901606,-26.051247,-57.910095,0.8010331226109192,0.099628,-0.30511001,-0.50529999
2.4498,6913.4553,2.04711,0.42139,6.89551,0.40451,0.03378,-5.43788,-22.6,-9.8,-23.8,30.183224,-23.297539,-64.112503,0.7735409077115439,0.112651,-0.30056599,-0.54644698
2.4714,6913.4753,1.60656,0.32802,6.51961,0.4601,0.70207,-5.35236,-17.3,-14.8,-21.8,31.84223,-19.857643,-70.503876,0.7462352981512594,0.124954,-0.29135999,-0.58534497
2.4904,6913.4953,1.07742,0.22746,6.12934,0.43689,1.08325,-5.44949,-15.2,-18.0,-22.0,33.083267,-15.470567,-77.216911,0.7183587800703208,0.139946,-0.276867,-0.62267202
2.5112,6913.5154,0.2921,0.17478,5.82766,0.37886,0.88044,-5.58632,-12.4,-19.1,-21.2,33.764175,-10.608878,-84.591202,0.6867073986642046,0.15435401,-0.26002699,-0.66105503
2.5317,6913.5354,-1.02954,0.06465,6.00484,0.65741,0.44795,-5.55822,-13.0,-20.2,-21.2,33.93232,-5.818141,-92.310204,0.65102514805654,0.166867,-0.243811,-0.69919801
2.5525,6913.5554,-2.72468,-0.06704,6.84044,1.29149,-0.16291,-5.31143,-12.5,-22.7,-20.9,33.983383,-1.544407,-99.990753,0.6117145471711456,0.177972,-0.232114,-0.73501998
2.5716,6913.5754,-3.82126,-0.07183,7.47253,2.35195,0.09731,-4.75921,-9.5,-23.2,-19.3,34.400547,2.33751,-107.496407,0.5696353915830539,0.190542,-0.226899,-0.76663297
2.5984,6913.5955,-4.03675,-0.20591,6.6489,3.04345,0.47911,-4.2693,-9.0,-24.5,-20.4,35.569321,6.748773,-114.738914,0.5277020085001003,0.211615,-0.22656401,-0.79083401
2.6119,6913.6155,-4.2642,-0.21309,5.15966,2.46802,-0.75057,-4.68896,-9.6,-26.4,-18.0,36.751137,11.404065,-121.683464,0.48744492789483357,0.235175,-0.22799399,-0.80938798
2.6317,6913.6355,-6.3999,0.55068,3.27297,1.05753,-1.09876,-5.82578,-6.6,-26.3,-15.9,36.337414,15.420205,-129.821884,0.43713072534499275,0.24646799,-0.22579201,-0.83497798
2.6525,6913.6556,-8.45897,0.93616,2.51638,-0.21246,-0.59052,-4.95774,-5.3,-28.3,-17.3,33.835644,19.838406,-138.454636,0.38111153971416273,0.25575501,-0.209567,-0.86338001
2.6736,6913.6756,-9.71118,0.32802,2.33921,-1.26315,-1.2643,-3.36033,-2.7,-27.2,-16.3,30.423737,23.306782,-144.67482,0.3372494585523597,0.26369601,-0.185728,-0.88443899
2.6912,6913.6956,-11.77744,0.45252,3.44776,-1.67182,-1.95336,-2.06652,-3.3,-27.9,-16.9,26.655634,24.552929,-148.363312,0.30634388891185665,0.26046801,-0.160322,-0.901447
2.713,6913.7156,-12.27545,1.24742,5.81569,-1.02858,-3.41577,-0.77209,-3.6,-27.9,-18.6,23.639908,24.113527,-150.246033,0.2871111294313402,0.249029,-0.141112,-0.91413301
2.7327,6913.7357,-11.76786,1.95373,6.71594,-0.84654,-3.56543,-0.21254,-4.1,-27.7,-20.3,21.863829,22.021997,-151.227234,0.2745465459221068,0.227902,-0.13372,-0.92455602
2.7556,6913.7557,-10.72156,2.14048,6.38074,-1.99985,-2.87577,0.36656,-5.4,-27.7,-19.1,20.218849,19.719513,-151.52948,0.2676470610388613,0.205928,-0.12617201,-0.93275899
2.7746,6913.7757,-9.29457,2.18118,6.80692,-2.88561,-0.87885,0.74713,-6.9,-26.6,-19.8,17.671814,18.487284,-150.656738,0.2708954143834478,0.19195101,-0.106465,-0.937249
2.7936,6913.7958,-8.22912,1.99683,8.66488,-3.39385,-0.70048,0.76301,-6.9,-26.5,-21.4,14.388708,18.726957,-149.042953,0.2808873043118889,0.188539,-0.076007,-0.93796498
2.8151,6913.8158,-8.11899,1.56825,11.19084,-2.86545,-1.607,0.85709,-7.0,-25.4,-22.8,11.018124,18.668474,-147.284958,0.2915594542280509,0.18158901,-0.04543,-0.93805897
2.8335,6913.8358,-8.9067,1.53712,13.16372,-1.70908,-1.56057,1.82286,-7.7,-25.2,-23.2,8.542233,17.701933,-145.422043,0.30377883055255783,0.168375,-0.024664,-0.93742198
2.8593,6913.8558,-8.17405,1.04869,13.73835,-0.62785,-1.7591,2.77826,-8.6,-24.4,-25.3,7.717419,16.62582,-142.808746,0.32404508647038477,0.15795501,-0.017113,-0.93260503
2.8716,6913.8759,-5.92822,0.61533,12.90754,-0.54538,-3.08713,2.90837,-11.4,-23.7,-24.9,7.960459,14.53456,-139.609344,0.3498636258212614,0.142205,-0.021057,-0.92570502
2.9001,6913.8959,-4.44377,0.6273,11.76068,-1.39876,-2.62165,3.1069,-13.8,-22.6,-27.1,7.80496,11.296665,-136.300079,0.37572999707502736,0.116347,-0.026317,-0.91902
2.9211,6913.9159,-3.7231,0.42379,11.59547,-2.36576,-1.17817,3.76786,-15.9,-20.3,-27.4,6.481107,9.073515,-132.409439,0.405654986194845,0.094995,-0.019698,-0.90886301
2.9369,6913.9359,-3.431,-0.00239,12.14616,-2.55146,-0.20506,4.44225,-17.5,-17.4,-27.6,4.306618,8.324093,-127.600777,0.44247168223586864,0.08162,-0.001604,-0.89305902
2.9524,6913.9559,-2.98566,-0.82602,13.20443,-1.81904,0.338,5.0409,-17.7,-13.6,-27.8,2.314067,8.650195,-122.022804,0.484489470872546,0.075712,0.018929,-0.87130898
2.9707,6913.9759,-2.77736,-1.77895,14.17889,-0.31386,-0.12382,5.15147,-18.3,-11.2,-29.4,1.504879,9.219665,-116.119362,0.5281746861375882,0.075121,0.031407,-0.84522301
2.9939,6913.9959,-2.12851,-2.30329,14.73197,1.51507,-0.8703,5.26448,-16.1,-11.4,-29.2,2.455726,9.005009,-110.376724,0.5703693284013787,0.076634,0.027266,-0.81735098
3.0196,6914.0159,-0.8356,-2.34639,14.29382,3.14119,-0.76095,4.77762,-20.8,-9.3,-28.8,5.232276,7.789391,-104.975044,0.6093540996399053,0.081552,0.005195,-0.78867602
3.0349,6914.0359,0.08619,-2.29611,13.66891,3.73251,1.50902,4.02259,-15.5,-10.5,-27.6,9.266726,6.925445,-100.254234,0.6415694256547767,0.097895,-0.023288,-0.760436
3.0577,6914.0559,-0.07901,-2.11414,12.20362,3.88706,1.98672,3.9334,-19.4,-10.6,-30.6,13.466412,8.247744,-96.390953,0.6665648937297102,0.131189,-0.039566,-0.73274499
3.0749,6914.0759,-0.77335,-1.85317,10.30256,3.88156,1.71855,4.17042,-13.3,-12.7,-27.7,17.596367,9.232261,-92.461464,0.6902879641604792,0.16289701,-0.055078,-0.70280403
3.0931,6914.0959,-0.79729,-1.70951,9.20838,3.9964,0.5408,4.6249,-15.2,-14.0,-27.5,21.640207,9.118236,-88.182205,0.7136156639235156,0.188729,-0.074131,-0.670551
3.1166,6914.1159,-0.35675,-1.39347,8.09265,3.40203,1.26712,4.91262,-14.7,-14.3,-28.5,25.563221,7.639892,-83.253288,0.7371379234281461,0.20816199,-0.09807,-0.63535702
3.134,6914.1359,-0.30407,-1.44854,6.75904,2.41793,1.29644,5.35733,-15.5,-14.4,-29.3,28.382992,6.300735,-77.533058,0.7632024184690456,0.224227,-0.111735,-0.595617
3.1589,6914.1559,-1.0463,-1.755,5.36078,1.55416,1.18038,6.49354,-16.6,-13.5,-29.9,29.891701,4.27616,-70.698448,0.7930656318426614,0.231067,-0.11971,-0.550749
3.1719,6914.1759,0.0,-2.60737,5.12375,0.99033,0.21582,7.93396,-17.0,-11.7,-29.6,30.198271,1.028446,-62.029251,0.828619017137152,0.227705,-0.12678801,-0.49544501
3.1976,6914.1959,3.42381,-3.07185,5.62655,0.81318,-0.25943,8.2119,-18.0,-11.2,-30.2,29.243416,-4.108157,-51.806316,0.8658889132391174,0.211778,-0.141404,-0.43057099
3.217,6914.216,5.61697,-3.47649,6.01442,1.31898,0.11869,7.93152,-18.7,-9.8,-31.0,27.33032,-9.354467,-41.65667,0.8983185084816854,0.1919,-0.15777899,-0.36235899
3.2342,6914.236,6.50764,-4.30491,6.29455,1.99399,0.39725,7.73482,-19.4,-7.6,-31.3,25.373163,-13.872666,-31.801529,0.9241240742013487,0.17738999,-0.173039,-0.29083499
3.2564,6914.256,7.43662,-4.67602,5.84442,2.20962,-0.86663,7.74337,-20.1,-5.6,-32.4,23.337484,-18.46401,-21.949423,0.9427916730630368,0.166071,-0.192249,-0.215881
3.2729,6914.276,8.29137,-4.3911,4.73827,2.36234,-1.89105,7.09524,-21.7,-3.6,-33.3,20.801851,-24.124784,-12.339401,0.9522260352549073,0.15343601,-0.223327,-0.140883
3.299,6914.2961,8.37278,-4.75024,3.76141,2.27743,-2.97351,6.78981,-24.6,-0.4,-32.3,17.851788,-30.227289,-3.592793,0.951982367639233,0.141642,-0.262146,-0.070332
3.325,6914.3161,9.05036,-5.11657,2.83243,2.39471,-3.99243,6.63221,-25.6,2.4,-29.9,14.118615,-36.95224,4.591131,0.9420705950524089,0.12906601,-0.30958599,-0.001214
3.3442,6914.3361,9.43105,-5.01361,1.66402,2.61157,-4.07673,6.25469,-27.4,5.5,-29.1,9.925101,-43.882687,12.301079,0.9222336829235093,0.119661,-0.36151701,0.066871
3.3563,6914.3562,9.10064,-5.44937,0.21309,2.13448,-3.70105,6.40435,-27.6,8.2,-28.1,5.301806,-50.094116,19.494003,0.8952422081982617,0.112894,-0.409711,0.13391501
3.3758,6914.3762,9.90272,-5.52359,-0.62969,1.13816,-2.85255,6.60533,-27.6,11.9,-26.9,-0.505325,-55.10043,25.872288,0.8636387838752494,0.099732,-0.45165801,0.20046601
3.394,6914.3962,11.52604,-5.87076,-0.54111,0.08992,-1.69435,5.75378,-26.1,16.2,-23.6,-7.120358,-58.444763,30.705179,0.8319371697674048,0.076746,-0.48421901,0.25985101
3.411,6914.4162,12.02644,-6.32328,0.32802,-0.00293,-0.91733,5.13375,-24.7,19.1,-23.2,-13.336226,-60.407085,33.984085,0.8038528440164902,0.05005,-0.50718498,0.306723
3.433,6914.4363,11.04479,-6.08625,1.00081,0.22003,-1.01935,5.18629,-22.1,21.3,-23.1,-18.945086,-61.466553,36.976742,0.7774059210223183,0.025688,-0.52291697,0.34862301
3.4525,6914.4563,10.26904,-6.36638,0.96489,0.37825,-1.81958,4.86436,-20.0,23.8,-22.7,-24.289059,-62.448376,40.228264,0.7475146448511895,0.005348,-0.537745,0.389902
3.4785,6914.4763,8.92586,-7.41507,0.39027,0.10397,-3.08774,4.75074,-18.3,25.1,-24.1,-29.119228,-64.365379,43.181316,0.7124289491978548,-0.008138,-0.55763698,0.42593399
3.4951,6914.4963,7.75984,-8.83487,-0.11493,-0.12938,-3.14516,5.44346,-16.2,27.5,-21.7,-34.287678,-67.313004,45.843758,0.6689565361823143,-0.019724,-0.583332,0.46025199
3.5143,6914.5164,7.14452,-10.2451,-0.43336,-0.21551,-2.85378,5.98652,-14.1,29.0,-24.6,-40.31741,-69.904694,48.377106,0.6209695837821848,-0.037303,-0.60631901,0.495361
3.5456,6914.5364,6.81171,-11.35605,-0.51956,-0.0854,-3.22029,6.21498,-10.6,30.7,-19.3,-46.901508,-71.95121,51.076042,0.5691032452907285,-0.058257,-0.62510902,0.53100502
3.5651,6914.5564,6.58665,-12.17489,-0.75659,0.27196,-3.77679,6.25164,-5.5,31.4,-20.1,-53.592175,-74.019897,53.970257,0.512039578097611,-0.076985,-0.64216298,0.56525701
3.587,6914.5765,6.1461,-12.59389,-1.31685,0.61587,-3.64851,6.37442,1.1,30.2,-19.3,-60.220592,-75.542229,57.698418,0.4506718359975911,-0.091674,-0.65543598,0.599078
3.5993,6914.5965,5.66485,-12.77106,-2.11175,0.78997,-3.83421,6.38847,3.2,29.8,-18.5,-66.804939,-75.540482,62.514988,0.38915167362541236,-0.10668,-0.66290802,0.63066101
3.6138,6914.6165,4.66644,-12.98176,-3.44776,1.00316,-3.78229,6.14168,3.4,31.0,-19.4,-73.116463,-73.489151,69.56002,0.32539303214607845,-0.117905,-0.66695601,0.65983897
3.6332,6914.6365,3.46452,-13.15175,-4.90587,0.43445,-3.24412,6.01829,8.0,27.6,-19.0,-78.894295,-66.971634,80.846497,0.2629781503110832,-0.127139,-0.66795403,0.68448198
3.6509,6914.6566,2.79651,-13.3409,-5.07586,-0.41771,-2.74932,5.80754,10.5,26.6,-20.4,-84.406548,-51.12326,100.46489,0.20466233053368554,-0.141965,-0.67027098,0.69906801
3.6842,6914.6766,2.20273,-13.37442,-4.16843,-0.57165,-3.21785,5.49966,8.1,27.6,-22.6,-87.47377,29.951283,-175.006363,0.1480891422061022,-0.157437,-0.675376,0.70508897
3.7006,6914.6966,1.11573,-13.43906,-3.76859,0.03372,-3.79206,5.27975,13.1,25.5,-20.3,-83.277863,78.315079,-122.664642,0.09014332222133728,-0.16690899,-0.67844599,0.709737
3.7115,6914.7167,0.53392,-13.5899,-3.89309,0.24997,-4.28625,5.09954,14.3,24.7,-18.8,-78.258385,82.035789,-114.536652,0.031964460734064434,-0.170812,-0.67581499,0.71629298
3.7398,6914.7367,0.49801,-13.61385,-3.64887,0.35381,-4.52266,4.62979,14.7,22.5,-21.5,-73.497658,81.120567,-110.563889,0.026948058904467265,0.16938099,0.67036402,-0.72193903
3.7606,6914.7567,0.26337,-13.2571,-3.45494,0.39963,-3.58437,4.09528,14.9,21.1,-23.0,-69.306221,78.929344,-107.97438,0.08106769579197408,0.164828,0.66249901,-0.726192
3.7715,6914.7767,-0.35675,-12.30178,-3.79253,0.05205,-2.44022,3.24618,12.5,21.3,-23.3,-66.057938,77.906273,-105.486252,0.12196551329650493,0.162916,0.65646601,-0.726385
3.8042,6914.7967,-1.55867,-11.21957,-4.27139,-0.41527,-2.72,2.76909,14.2,21.8,-23.5,-63.89341,78.237534,-102.397606,0.15235264764026935,0.159988,0.655402,-0.722247
3.8111,6914.8167,-1.90345,-10.15651,-4.19477,-0.71154,-3.55138,2.26146,12.8,20.9,-24.0,-62.253696,78.76796,-98.529579,0.18321977180113114,0.15084399,0.65719497,-0.71538198
3.844,6914.8367,-2.69835,-9.58668,-4.07745,-0.72681,-3.8953,1.94626,9.4,22.1,-24.5,-61.200699,78.457336,-94.525887,0.2160323678336163,0.13221,0.65903199,-0.70818597
3.8585,6914.8567,-3.71591,-9.56752,-3.94337,-1.38715,-3.25756,2.10753,9.2,22.5,-24.9,-60.26569,78.403618,-90.197304,0.2483416020380387,0.112596,0.66141701,-0.69869602
3.8791,6914.8767,-3.96013,-9.42865,-3.29452,-2.18494,-3.05292,2.00429,9.0,23.0,-23.9,-59.196686,80.365425,-84.299194,0.2786442770432574,0.096728,0.66917199,-0.68206298
3.8951,6914.8967,-4.00323,-8.98571,-2.52357,-2.43357,-3.31925,1.65304,9.3,23.7,-24.3,-58.209171,83.206123,-77.432182,0.3077779775003728,0.079059,0.68013901,-0.660631
3.9183,6914.9167,-3.8907,-8.81333,-2.31526,-2.54291,-3.73098,1.19612,9.3,23.8,-24.7,-57.438892,85.493599,-70.803833,0.3360003849165051,0.057209,0.68962598,-0.638942
3.9462,6914.9367,-4.14449,-9.39992,-1.66163,-3.09697,-3.28077,1.56997,9.3,25.0,-23.0,-56.832138,87.325249,-64.29406,0.3638912944662449,0.031628,0.69730502,-0.61672401
3.9616,6914.9567,-3.8476,-9.62738,-0.03352,-3.63697,-2.2087,1.82042,8.8,25.4,-23.4,-55.572601,90.612198,-56.917622,0.3891139812084367,0.011441,0.70914698,-0.587852
3.9745,6914.9768,-3.3448,-9.27063,0.74223,-3.59543,-1.3144,1.49055,9.4,26.6,-20.7,-53.955872,94.767998,-49.715881,0.40716075079015174,-0.003008,0.724186,-0.556566
3.9943,6914.9968,-2.45653,-8.65051,0.64167,-3.59421,-2.09814,0.77034,9.5,27.6,-20.6,-52.597271,98.64814,-43.399242,0.41867305937213084,-0.016916,0.73849899,-0.52824801
4.0242,6915.0168,-1.94655,-8.14772,0.1245,-3.62048,-4.06085,-0.2327,8.7,29.0,-18.8,-52.07095,100.799408,-37.319225,0.4344325798553095,-0.043573,0.74544501,-0.50366801
4.041,6915.0369,-2.64328,-9.37359,-0.56505,-3.79396,-5.19278,-0.12946,7.5,30.0,-16.9,-52.446129,100.904961,-31.086985,0.45899363612490285,-0.08569,0.74182898,-0.481323
4.0643,6915.0569,-3.50043,-10.35763,-0.09577,-4.73775,-2.8385,1.50705,6.9,32.4,-13.9,-52.110207,101.154312,-24.309261,0.48627137961998035,-0.126561,0.73714697,-0.45181501
4.0829,6915.0769,-3.5962,-10.43664,0.36632,-5.12504,1.32882,2.01162,9.3,35.1,-6.5,-49.773407,105.364525,-16.886686,0.4948391248587768,-0.146424,0.751077,-0.411798
4.0958,6915.0969,-3.28016,-10.14933,0.05267,-5.54409,2.05636,1.12037,9.8,34.4,-4.1,-46.832371,112.568962,-10.037966,0.47848287172110965,-0.15296499,0.77967,-0.37385899
4.1216,6915.117,-2.92341,-9.94582,0.05028,-5.78294,-0.42925,-0.06532,9.8,34.7,0.2,-44.310604,119.307327,-2.992163,0.45926654306176,-0.169597,0.80396998,-0.33755499
4.1339,6915.137,-2.82524,-9.88596,0.36632,-5.24049,-2.95274,-0.6603,10.4,34.9,3.7,-42.451649,122.826256,4.172553,0.457308283883137,-0.20291799,0.811674,-0.30146101
4.1592,6915.157,-3.80211,-10.2044,0.28013,-4.53494,-2.53368,0.04586,11.6,35.0,7.7,-41.169827,123.339958,10.443764,0.4705745767331251,-0.241154,0.80542201,-0.267768
4.1735,6915.1771,-4.92263,-10.35284,-0.22985,-4.39017,-0.57586,0.83815,11.6,34.5,10.4,-39.451805,123.918289,15.087323,0.4777938020460906,-0.26636699,0.80279797,-0.23722801
4.1921,6915.1971,-5.74387,-10.31214,-1.77895,-4.84832,-0.1171,1.16985,15.7,33.1,12.0,-37.033253,125.637054,19.035166,0.47391306765340385,-0.282552,0.80791301,-0.20699599
4.2136,6915.2171,-6.38314,-10.19482,-2.53314,-5.44208,-0.9381,0.92611,17.8,29.3,18.7,-33.970703,127.496475,23.021225,0.466796138434241,-0.297775,0.81470197,-0.172314
4.233,6915.2371,-6.41905,-9.83808,-1.56346,-5.5612,-2.4164,0.98048,15.5,28.6,20.1,-30.593025,128.098312,27.766907,0.46668586275285806,-0.32018301,0.81427598,-0.129003
4.2519,6915.2572,-6.67284,-9.39992,0.22985,-4.80311,-1.80859,1.08005,21.2,24.4,23.4,-27.30489,127.026451,32.262318,0.4750222228511207,-0.34277201,0.80625701,-0.082528
4.2792,6915.2772,-7.69999,-8.61939,1.94176,-3.85505,-0.6791,1.58951,21.6,21.6,25.1,-24.526644,126.391937,35.738846,0.4775664472010569,-0.35879099,0.80072099,-0.045224
4.3001,6915.2972,-8.39193,-7.72154,2.14048,-2.72006,-1.12625,2.00063,23.3,19.8,27.8,-22.032309,125.531227,37.911701,0.4800300974087552,-0.366211,0.79702097,-0.014771
4.3258,6915.3173,-8.61221,-6.92185,-0.03591,-1.97481,-0.95948,2.42151,25.9,16.7,28.0,-19.850971,123.522461,38.979237,0.49002525859824814,-0.366411,0.79086399,0.012344
4.343,6915.3373,-9.48133,-6.27539,-3.16763,-2.38958,0.91832,2.39769,25.2,13.9,29.6,-17.587698,121.995209,39.615005,0.496108205854771,-0.36262199,0.788064,0.036566
4.3565,6915.3574,-11.5428,-5.47331,-5.22191,-3.63147,1.56095,2.57789,25.6,10.8,30.3,-14.850952,122.8209,41.244873,0.4840808855197649,-0.36455101,0.79313099,0.060922
4.3741,6915.3775,-12.0432,-5.15487,-5.12854,-4.29854,-0.55326,3.3934,23.5,7.9,30.4,-10.836176,124.005104,43.846523,0.464668225313459,-0.36931601,0.79890698,0.097143
4.4129,6915.3975,-11.4183,-4.70236,-5.21234,-4.19408,-0.52516,4.23822,24.3,3.6,30.2,-5.70561,122.905472,46.175644,0.4562074745369039,-0.36591899,0.797737,0.14694799
4.4136,6915.4176,-9.39035,-3.88112,-5.46852,-4.26738,-0.06945,4.3549,25.2,-1.1,29.7,-0.046304,122.040283,48.318359,0.44221122076263486,-0.35820699,0.79808801,0.197971
4.4322,6915.4377,-7.32888,-2.90426,-5.95696,-4.59908,0.4003,3.686,21.6,-4.7,26.3,5.449152,121.641632,50.77224,0.422175723279039,-0.352952,0.79783499,0.24627601
4.4547,6915.4577,-6.26821,-2.07823,-5.76302,-5.20934,0.09976,2.78498,20.7,-8.9,26.4,10.352345,121.559647,54.182178,0.3969776995284232,-0.356626,0.79388303,0.29150701
4.4747,6915.4778,-6.22511,-1.30727,-4.87235,-5.30158,-0.5612,2.08981,19.7,-12.1,26.4,14.596013,120.530464,58.762016,0.374573030347701,-0.36766401,0.78142399,0.33748299
4.4966,6915.4978,-6.75664,-0.62969,-4.01759,-5.17207,-0.1959,1.81614,18.3,-16.1,24.0,18.122572,118.896652,63.922569,0.35408334666826535,-0.38225001,0.76388103,0.38078299
4.5139,6915.5179,-7.88435,0.09817,-3.87873,-5.32479,0.38259,1.85341,17.3,-18.7,21.2,21.321308,117.427383,69.298569,0.3299579296124281,-0.398458,0.74550599,0.420214
4.533,6915.5379,-8.92825,0.37111,-3.67521,-5.82204,1.06248,2.00368,16.8,-21.7,20.0,24.67378,116.334816,75.218079,0.297408496281024,-0.41723499,0.72627199,0.458249
4.5598,6915.558,-9.4526,0.28731,-2.91144,-6.20749,0.91465,2.20343,14.8,-24.7,16.9,28.372845,115.060394,81.919273,0.2575146182738757,-0.436827,0.70393699,0.497334
4.5797,6915.578,-9.67048,0.19154,-1.85556,-6.34127,1.02033,2.25413,12.6,-28.3,11.5,32.1954,112.835403,89.411858,0.21521814353027602,-0.45407099,0.67677498,0.53803003
4.5984,6915.598,-10.46537,0.44055,-0.51956,-6.40908,1.87493,2.33477,10.9,-31.5,9.9,35.779716,110.171638,97.728569,0.16859657912525716,-0.47207099,0.64577502,0.57593298
4.6139,6915.618,-11.65054,0.76377,0.5028,-6.20932,2.91646,2.75871,9.1,-31.8,7.0,39.211159,107.736717,106.587715,0.11473808611267103,-0.49171701,0.61338103,0.60729998
4.6368,6915.6381,-12.35925,0.54589,0.668,-6.28446,3.86757,3.34025,6.4,-32.9,2.9,42.811897,105.83902,115.705742,0.052172893108571934,-0.51178998,0.58153403,0.63021201
4.6669,6915.6581,-12.0025,0.22746,1.13967,-6.65464,3.86086,3.80879,3.1,-33.9,0.9,46.800278,103.617691,125.820107,0.01953205661980802,0.53035599,-0.54708999,-0.64732802
4.6757,6915.6781,-12.0025,-0.05746,1.73106,-6.77071,4.75272,4.06168,1.3,-34.8,-6.2,50.830704,99.864265,137.353729,0.09455786182639497,0.543446,-0.50869298,-0.66102701
4.7035,6915.6982,-13.06795,-0.53392,2.88989,-7.19831,6.43077,4.51372,-0.6,-33.9,-11.0,54.557102,95.609406,150.83371,0.17831349355401993,0.55974698,-0.463707,-0.66322201
4.7131,6915.7182,-13.75511,-0.91222,4.60658,-7.30827,7.57919,5.18934,-1.5,-32.8,-16.1,58.160572,90.411606,166.952194,0.2727215665102026,0.57726097,-0.41068801,-0.65094399
4.7387,6915.7382,-12.69923,-0.8763,6.59862,-6.79514,7.11738,5.46057,-1.9,-30.3,-16.8,61.43874,83.496727,-174.36911,0.371242091778289,0.59045601,-0.35254401,-0.62390202
4.7574,6915.7582,-10.9155,-0.64167,7.91787,-5.32846,5.69406,5.10138,-1.8,-27.7,-21.6,63.612999,74.147049,-154.511978,0.4594786729048254,0.59245598,-0.29714301,-0.591254
4.7753,6915.7783,-9.7878,-0.42858,8.29137,-4.69438,5.55662,4.94255,-1.7,-25.4,-26.0,64.397453,64.794891,-136.363998,0.5305998142229968,0.58812797,-0.24918699,-0.55720299
4.7962,6915.7983,-9.58668,-0.33041,8.78459,-4.39566,5.90237,5.26081,-2.3,-24.9,-26.1,64.191742,55.926861,-118.662865,0.5959629828030595,0.58105701,-0.20104299,-0.51651001
4.8151,6915.8183,-9.21317,-0.35196,10.04638,-3.97172,5.65497,5.75012,3.4,-22.8,-26.6,63.443691,47.536022,-101.127884,0.6581629147522056,0.57044297,-0.153881,-0.46662301
4.8329,6915.8384,-7.75266,-0.33041,11.68646,-3.04749,4.89933,5.9236,0.8,-19.3,-31.4,62.415089,39.35434,-84.077232,0.7149577692738636,0.55519903,-0.112811,-0.409711
4.8531,6915.8584,-6.12934,0.11253,14.10946,-1.40976,3.15164,5.54303,0.4,-21.2,-27.7,61.382801,32.034893,-69.098213,0.7606462169075975,0.53864199,-0.082792,-0.352743
4.8747,6915.8784,-5.52359,0.60575,15.2635,1.59815,0.67214,5.58946,4.0,-21.8,-28.9,61.302177,25.144552,-57.250885,0.7901923727158976,0.52647799,-0.074013,-0.30485901
4.8971,6915.8984,-4.84601,0.74462,13.12302,3.57124,-1.00591,6.23026,-2.4,-21.9,-29.7,64.426399,15.942019,-46.058365,0.8000376339123053,0.531748,-0.098548,-0.259754
4.9121,6915.9184,-3.25143,1.24981,9.71357,3.2933,-1.35532,6.49843,0.1,-24.9,-26.0,67.689178,1.851048,-31.293255,0.8020949613193562,0.53985298,-0.137272,-0.21531101
4.938,6915.9384,-1.43656,2.17161,7.5276,2.30247,-0.67604,6.51736,-3.7,-25.1,-24.9,68.133987,-14.675403,-13.711133,0.8071845909669484,0.53897399,-0.17136,-0.169103
4.9526,6915.9584,0.98884,3.30649,7.03199,1.81683,-0.14703,6.15329,-6.6,-26.7,-23.3,65.898758,-28.411045,2.082308,0.8157818767867547,0.530922,-0.19631401,-0.11867
4.9757,6915.9784,2.82046,4.14449,6.42863,2.07095,-0.48545,5.5693,-8.7,-26.9,-23.5,62.53896,-38.189568,14.242225,0.8225258246061335,0.521384,-0.216648,-0.068364
5.0017,6915.9984,3.18678,4.10858,4.88432,1.76002,0.0234,5.496,-12.8,-26.1,-23.2,58.979584,-45.771904,24.077072,0.8242150666415895,0.514148,-0.236479,-0.019976
5.0137,6916.0184,2.92341,3.38311,4.06069,0.80036,0.7711,5.99691,-14.5,-24.4,-22.9,54.517155,-50.746037,32.042725,0.826167527130545,0.50288701,-0.25191301,0.033041
5.0328,6916.0384,3.3041,2.38949,4.17083,0.24386,1.14922,6.93336,-16.8,-22.5,-24.8,48.717518,-53.381626,38.485062,0.8294943081490191,0.48276901,-0.264884,0.093326
5.0559,6916.0584,5.30092,1.55149,4.21871,0.30494,0.13336,7.17343,-21.6,-19.2,-25.8,41.826405,-55.334736,44.621307,0.8283016203461392,0.45713601,-0.28126201,0.160732
5.073,6916.0784,7.20437,0.77096,3.52916,0.43078,-0.28692,6.83257,-23.3,-15.8,-25.8,34.832062,-57.794495,50.203018,0.8178182322408446,0.432897,-0.30637699,0.223398
5.0975,6916.0984,8.76065,0.17957,2.83722,0.10947,-0.28081,6.5754,-25.7,-11.9,-26.7,27.957378,-59.919922,55.204815,0.8009242129148674,0.40999699,-0.33248201,0.282628
5.1144,6916.1184,10.26426,-0.39745,2.77018,-0.24361,-0.35473,6.29562,-25.9,-6.6,-28.2,21.011406,-61.519096,59.250164,0.7805640225929836,0.38477799,-0.359676,0.33659899
5.133,6916.1384,11.26267,-0.79969,3.01679,-0.16176,-0.46896,5.76844,-27.9,-3.7,-30.7,14.235467,-62.887745,62.609119,0.7569153542577927,0.35928401,-0.38735601,0.384642
5.1566,6916.1584,11.41351,-1.36234,2.55469,0.09053,-0.53554,5.25043,-26.4,0.2,-27.7,8.185904,-64.079361,65.711838,0.730810272530511,0.337906,-0.41168401,0.42691001
5.1776,6916.1784,10.90113,-2.04711,1.67599,-0.27721,-0.65038,5.00364,-26.1,3.1,-28.3,2.72072,-65.117653,68.492096,0.7037084289386051,0.319307,-0.43347701,0.46361101
5.2118,6916.1984,10.39834,-2.88989,1.61614,-0.66145,-1.00774,5.10749,-26.3,6.2,-28.0,-2.801417,-66.260361,70.579353,0.6756235056811595,0.29894099,-0.45780399,0.494553
5.214,6916.2184,9.30894,-4.08703,1.48684,-0.52156,-0.86174,5.22722,-25.3,9.4,-27.7,-8.509646,-67.582405,72.347061,0.6446630254596888,0.27759099,-0.48411301,0.52248198
5.2383,6916.2384,7.58267,-5.72471,0.35196,-0.71398,-0.59602,5.88878,-23.5,12.2,-28.0,-14.404801,-68.409615,74.191536,0.6119502416823439,0.25368199,-0.50739098,0.55110502
5.2676,6916.2584,6.60102,-7.44141,-0.34956,-1.33523,-1.29607,6.62304,-21.9,16.0,-27.1,-21.281582,-69.157143,75.889328,0.5736924333703901,0.223084,-0.53334999,0.58021402
5.2886,6916.2783,6.3999,-9.23232,0.01437,-1.22222,-2.64791,7.07508,-19.7,19.4,-25.5,-29.131735,-70.971626,77.0979,0.5253651844288885,0.189978,-0.56702,0.60530001
5.2977,6916.2983,6.42144,-10.93465,-0.27295,-0.41343,-3.22213,7.24613,-16.9,23.7,-22.1,-37.363419,-73.798431,78.576462,0.46454842070238384,0.161909,-0.60241503,0.62855101
5.312,6916.3183,6.51003,-12.3353,-1.7143,-0.31325,-3.02115,7.19664,-15.1,24.5,-26.0,-45.532215,-76.214317,80.751648,0.39803411212369577,0.136669,-0.63076103,0.65194398
5.3423,6916.3383,6.50285,-13.33611,-2.93299,-0.87769,-2.26001,6.91748,-11.3,26.9,-22.0,-53.630409,-78.457207,82.448402,0.33196478819233194,0.10912,-0.65480101,0.67017001
5.3585,6916.3583,6.2299,-13.90595,-2.98087,-1.12509,-1.85318,6.45811,-8.9,28.0,-21.9,-61.37994,-81.244316,82.306488,0.27278264651769857,0.076752,-0.67650002,0.67974001
5.3764,6916.3783,5.40627,-13.81975,-3.14847,-0.87891,-1.73711,5.91261,-4.9,28.8,-21.8,-68.452919,-85.028831,80.660004,0.21860836468337314,0.045556,-0.69427103,0.68419498
5.3961,6916.3983,4.33603,-13.70722,-3.49804,-0.97177,-1.90877,5.42697,-2.5,29.8,-20.2,-74.686119,-90.446228,77.212975,0.16891397080679305,0.018263,-0.70759797,0.68588603
5.4143,6916.4183,3.36874,-13.78623,-3.71591,-1.12692,-1.9332,5.13864,6.0,30.0,-16.1,-80.230255,-101.831985,67.847038,0.1209516235941441,-0.005783,-0.71927899,0.68408698
5.4343,6916.4383,2.36794,-14.13101,-3.88112,-1.29797,-1.90877,4.89002,8.0,29.5,-14.4,-84.471107,-133.294907,37.975525,0.07672007975777864,-0.030776,-0.72943699,0.67903501
5.4545,6916.4583,1.19235,-14.8038,-3.88351,-1.39509,-2.16533,4.83565,5.0,30.0,-16.3,-84.324005,165.827789,-21.276346,0.03311318097615067,-0.054415,-0.73822802,0.67153698
5.4742,6916.4783,0.57463,-15.21801,-3.56029,-1.37371,-2.14578,5.1026,12.4,28.7,-11.8,-80.028366,134.517578,-50.372635,0.015604612963425246,0.075672,0.74496597,-0.66261297
5.4943,6916.4983,0.5842,-14.87323,-3.37353,-1.16724,-1.99979,4.90834,14.4,27.9,-13.0,-74.465553,121.510284,-61.626263,0.063641603717687,0.101986,0.74805403,-0.652659
5.5217,6916.5183,0.44294,-13.79342,-3.77338,-0.81905,-2.37241,4.04519,11.8,27.5,-13.0,-69.080223,114.563705,-66.648087,0.10996357030961783,0.124668,0.74744397,-0.64319003
5.5346,6916.5383,-0.11732,-12.62501,-4.87235,-0.85142,-2.7878,3.36957,17.7,26.9,-10.4,-64.68914,109.854164,-68.878456,0.15275017273862088,0.13748901,0.74410802,-0.63566297
5.556,6916.5583,-1.02475,-11.75828,-6.02878,-1.30652,-2.77864,2.95235,19.1,26.1,-10.7,-61.247635,106.943398,-69.082443,0.1898218613631716,0.14232101,0.74150902,-0.62759602
5.5787,6916.5783,-1.90824,-11.19323,-6.64172,-2.08843,-2.87943,2.86011,19.1,25.5,-11.2,-58.419746,106.140358,-67.087692,0.2215359021528551,0.14116199,0.74354798,-0.61492401
5.599,6916.5983,-2.64089,-10.5827,-6.21075,-2.75244,-2.4787,2.94319,18.3,25.5,-11.9,-55.518661,106.901344,-63.310612,0.2522103169804114,0.136981,0.750687,-0.59505898
5.6153,6916.6183,-2.83961,-9.67048,-5.38233,-3.12506,-1.88067,2.595,18.4,25.9,-8.9,-52.327339,108.637856,-58.836704,0.2800835880687747,0.134073,0.76136798,-0.56911898
5.6384,6916.6383,-2.65764,-8.51404,-4.58025,-3.19715,-2.35836,1.91144,20.0,25.6,-7.7,-49.395798,110.856773,-54.16925,0.302345341783629,0.12952,0.77400398,-0.54104501
5.6606,6916.6583,-2.27935,-7.41267,-4.28336,-2.97846,-3.71693,0.98659,18.4,26.0,-11.2,-47.179867,112.005356,-49.635944,0.3258422638869911,0.115808,0.783535,-0.51622498
5.6768,6916.6782,-3.45494,-7.29775,-4.59701,-2.92898,-4.05474,0.96032,17.5,27.1,-9.1,-45.923244,111.552208,-45.108963,0.3545332893959316,0.089389,0.78725898,-0.49652699
5.7041,6916.6982,-4.46053,-7.43662,-4.57785,-3.71455,-3.13966,1.57363,19.0,26.9,-9.2,-44.235165,111.158379,-40.566883,0.383528721271406,0.065294,0.79059601,-0.472864
5.716,6916.7182,-4.36476,-7.12057,-3.82845,-4.13788,-2.29911,1.37571,19.2,27.1,-8.4,-41.711456,112.130493,-35.513451,0.4067366126600109,0.047175,0.79899001,-0.44040301
5.7386,6916.7382,-3.929,-6.5244,-3.47649,-4.00043,-2.83362,0.89313,19.5,26.9,-7.8,-39.309578,113.51062,-30.412752,0.4244137256781876,0.02865,0.80839801,-0.406872
5.7575,6916.7582,-3.4717,-6.19159,-3.49085,-4.20263,-3.95578,0.22423,19.6,26.9,-8.0,-37.455612,113.804893,-25.475857,0.44511997527365565,0.003924,0.81251901,-0.376385
5.7806,6916.7782,-3.46212,-6.70158,-3.0934,-4.44759,-4.98142,-0.32311,20.5,27.1,-6.1,-36.261246,112.987198,-20.020672,0.4715320278119818,-0.031424,0.81022102,-0.34671599
5.7974,6916.7982,-4.91784,-7.38155,-2.2171,-4.77868,-3.67539,0.92306,20.8,27.3,-4.7,-35.28632,111.595787,-14.220371,0.5005266878259531,-0.071503,0.80318397,-0.31504899
5.815,6916.8182,-5.7295,-7.37676,-1.55149,-4.8196,-0.36572,2.22054,21.8,26.9,-3.5,-32.727898,111.870148,-9.117304,0.5171918719923971,-0.094137,0.804874,-0.27537
5.8365,6916.8382,-5.89949,-6.6513,-1.28812,-5.15925,1.57744,1.80087,22.7,26.2,-0.5,-29.193321,114.92202,-4.868995,0.5110193260420975,-0.100775,0.82083702,-0.234372
5.8578,6916.8582,-5.97132,-5.8947,-0.92658,-5.18551,0.48399,0.82532,23.8,25.2,4.0,-25.927135,118.869064,-0.52132,0.494678373192865,-0.110259,0.83961302,-0.19541299
5.8745,6916.8782,-5.53317,-5.67683,-1.00799,-4.67239,-1.5734,-0.14229,24.8,24.5,5.6,-23.542322,120.622032,3.842954,0.49054618084914287,-0.1295,0.846591,-0.16086601
5.8973,6916.8982,-5.38233,-5.66485,-0.91701,-4.38039,-2.31805,-0.70612,25.1,22.8,8.3,-22.356974,120.044617,8.103053,0.5008236282313363,-0.156666,0.84081799,-0.13287801
5.9157,6916.9182,-6.71834,-5.79175,-0.86912,-4.10428,-1.57218,0.1778,26.1,22.6,9.7,-21.558508,118.901878,12.154956,0.5135541076438194,-0.184095,0.83117902,-0.107297
5.9324,6916.9382,-7.84604,-5.83006,-1.68318,-4.37673,-0.14459,0.68238,26.4,21.5,9.9,-19.974323,118.581795,15.552641,0.5184917097562697,-0.20232099,0.82697201,-0.079686
5.9578,6916.9582,-8.54996,-5.78457,-2.37751,-5.04135,-0.14581,0.70315,26.7,20.0,13.0,-17.779762,119.392212,19.029545,0.5137220185704513,-0.217905,0.82836503,-0.049178
5.9771,6916.9782,-8.71037,-5.74626,-2.37033,-5.48484,-0.7188,0.54371,28.0,18.1,14.0,-15.13382,119.914986,23.266869,0.5090747767811322,-0.237611,0.82719398,-0.011576
6.0145,6916.9982,-8.83487,-5.51641,-1.12531,-5.29852,-1.34616,0.33724,28.3,16.6,17.4,-12.544895,119.62867,27.797602,0.5078466402337419,-0.25971901,0.82087302,0.028378
6.0201,6917.0182,-9.3257,-5.02319,-0.07422,-4.72431,-1.19772,0.7569,28.1,14.2,14.1,-10.250119,118.357346,32.170326,0.5115909727483665,-0.28096199,0.80916899,0.06768
6.0571,6917.0382,-10.27623,-4.59461,-0.18675,-4.51662,0.38992,1.12648,32.8,10.6,20.3,-7.948314,117.395248,35.941658,0.5112902020998638,-0.29723999,0.79968798,0.103585
6.0578,6917.0582,-11.14535,-4.30251,-0.60096,-4.87825,1.08753,1.5101,32.5,7.9,22.9,-5.272666,117.880035,39.680882,0.4981696627496696,-0.312756,0.79687202,0.137861
6.0797,6917.0782,-11.17647,-3.76619,-0.4621,-5.07373,0.35938,1.74834,28.2,6.4,20.1,-1.9949,118.292419,43.711826,0.4814790907531292,-0.32782701,0.793329,0.177021
6.1007,6917.0981,-10.621,-3.03594,-0.13887,-4.57526,-0.20873,1.78255,32.3,2.2,23.9,1.445018,117.589615,47.686146,0.46949107284366964,-0.33974499,0.784899,0.219283
6.1165,6917.1181,-10.50368,-2.344,-0.27534,-4.05602,0.35632,1.79721,30.6,1.0,22.2,4.508741,116.382851,51.490246,0.45987545034385113,-0.35017201,0.77386999,0.258881
6.1336,6917.1381,-10.60903,-1.76937,-0.93137,-3.83733,0.42229,2.14784,31.5,-3.4,23.3,7.393083,115.592415,54.856056,0.44691326842802437,-0.35846201,0.76530498,0.29339701
6.152,6917.1581,-10.1206,-1.23545,-1.92739,-3.86788,0.50415,2.47832,30.8,-7.1,24.6,10.550734,114.746262,58.216938,0.43140579899078757,-0.364654,0.75682801,0.32882801
6.1731,6917.1781,-9.29218,-0.85715,-3.02397,-4.34008,1.13334,2.314,30.6,-9.8,24.1,13.934043,114.009628,61.840874,0.41145074460807524,-0.37112299,0.74814802,0.365035
6.1944,6917.1981,-9.02881,-0.67279,-3.14608,-5.03341,2.03559,1.90594,29.2,-14.3,24.2,17.25046,113.900383,66.317528,0.38264117658830044,-0.38480601,0.73850203,0.40015599
6.212,6917.2181,-9.96497,-0.35914,-2.11654,-5.2185,2.37645,1.63594,26.3,-16.7,23.3,20.393145,114.240555,71.859688,0.34540798878630324,-0.40719599,0.72567803,0.43390799
6.2319,6917.2381,-11.3345,0.07422,-0.95053,-4.67788,2.75641,1.97558,24.4,-19.3,20.0,23.401686,114.688835,77.613426,0.30474082965250954,-0.43139499,0.71103001,0.464185
6.2536,6917.2581,-11.5859,0.68716,-0.49083,-4.14521,2.18647,2.41662,21.8,-21.5,23.9,26.578278,115.253456,82.731888,0.26278540504693126,-0.45083699,0.69822299,0.49007601
6.2814,6917.2781,-10.94902,1.36953,-0.81645,-3.72432,1.84744,2.57606,18.5,-23.5,18.7,29.930418,115.129311,87.076096,0.2254929594684032,-0.46125501,0.686481,0.51491803
6.3031,6917.2981,-10.65692,1.87711,-2.01837,-4.01632,2.92929,2.56018,15.9,-25.2,19.9,33.178959,114.928665,91.460571,0.1874413124739566,-0.47136599,0.67394298,0.53710401
6.3167,6917.3181,-9.98652,2.35118,-2.4254,-4.80678,3.13698,2.38119,14.3,-27.3,18.0,36.644684,115.26387,96.547264,0.14009505198699723,-0.48640099,0.65926498,0.55601901
6.3372,6917.3381,-10.18764,3.01439,-2.23386,-4.77257,3.5206,2.30056,11.4,-30.1,13.7,40.14418,114.954369,102.746735,0.08916407531635037,-0.50352299,0.63852799,0.575149
6.355,6917.3582,-11.30577,3.36396,-2.59779,-4.86298,4.36971,2.68296,8.1,-31.9,12.4,43.605511,114.965004,109.232147,0.033693390833203,-0.52268797,0.61612201,0.588265
6.3816,6917.3782,-11.28661,3.35198,-2.58103,-5.46101,5.07403,3.05192,6.8,-33.1,10.2,47.611492,115.358932,115.997017,0.030058721683036204,0.54131103,-0.59274602,-0.59559298
6.3972,6917.3982,-10.5827,3.34241,-1.93218,-5.79943,5.59632,2.9383,3.8,-34.3,7.0,52.024094,115.300255,124.080162,0.10179381941512414,0.56057602,-0.56323898,-0.59846002
6.4134,6917.4182,-10.23553,3.83802,-0.81166,-5.72002,6.25911,2.73061,1.1,-35.8,4.1,56.255817,114.373077,133.56105,0.17571910704143304,0.58042401,-0.52699602,-0.59540403
6.4364,6917.4383,-10.24989,4.47011,-0.01197,-5.33579,6.55477,2.73244,-0.8,-34.6,-1.1,60.064316,112.898079,144.09024,0.2492979839289899,0.60110003,-0.485553,-0.58375299
6.455,6917.4583,-10.30256,4.79813,0.56026,-4.91734,7.47046,3.11362,-1.8,-34.9,-4.6,63.596043,110.893394,155.374802,0.3212043638748383,0.62015498,-0.44125199,-0.56349999
6.4734,6917.4783,-8.91389,4.49645,0.48364,-5.35167,8.96586,3.24374,-2.4,-34.2,-8.7,67.27375,109.011314,167.500183,0.39569184902994664,0.63880903,-0.39350501,-0.52962703
6.4971,6917.4984,-8.55714,4.02956,1.95133,-5.83792,10.51257,3.01955,-1.3,-32.9,-14.6,70.818565,104.792145,-176.154022,0.4754709678017781,0.65720898,-0.331691,-0.481648
6.5558,6917.5184,-8.75347,3.92422,4.58264,-5.30402,10.97744,3.33842,0.1,-30.7,-16.6,73.635391,96.700356,-154.423965,0.5544455476230464,0.67149901,-0.255979,-0.419707
6.5591,6917.5384,-7.95378,4.16843,7.66647,-4.02853,9.86933,3.80573,0.9,-29.4,-18.5,75.807518,86.100929,-130.348938,0.6227068061209861,0.67734498,-0.18129499,-0.34723499
6.5606,6917.5584,-6.58186,4.57306,10.63776,-2.10003,7.84553,3.86132,1.8,-28.7,-20.7,77.406685,74.280899,-106.849388,0.6738802436454114,0.67540997,-0.119532,-0.274625
6.5736,6917.5785,-5.78217,4.90347,11.60266,0.94085,5.09114,4.18202,2.8,-29.2,-21.3,78.889565,64.523727,-88.223091,0.704914158716875,0.67266202,-0.077997,-0.211041
6.5942,6917.5985,-4.9346,4.72869,9.44541,2.05874,3.80466,4.87719,2.4,-30.2,-20.1,81.852608,60.021347,-77.99427,0.7146574859632266,0.67866802,-0.063275,-0.157069
6.6149,6917.6185,-3.36396,4.81728,6.48609,1.80767,3.24205,5.57785,1.2,-31.2,-17.7,85.599503,43.370716,-56.86599,0.7190908146043306,0.68429202,-0.0622,-0.103846
6.6338,6917.6385,-1.30488,5.65767,3.95534,1.0728,3.18829,5.84052,-1.0,-33.1,-19.0,86.360565,-29.776571,20.445086,0.7247278350242938,0.684089,-0.067014,-0.047968
6.6528,6917.6586,1.10615,6.64411,2.59779,0.14123,2.57987,5.47095,0.7,-34.0,-15.1,81.953743,-58.041431,53.010139,0.732765238915056,0.67660397,-0.071857,0.009937
6.6748,6917.6786,2.37512,7.16367,2.77496,-0.27355,1.33371,4.73852,-0.8,-34.0,-15.7,76.963753,-61.290493,59.941204,0.7418713001700498,0.663104,-0.078212,0.061668
6.6945,6917.6986,2.45413,7.00804,2.65764,0.06121,0.72101,4.47952,-3.5,-32.6,-14.5,72.396652,-62.698231,63.565247,0.7476582191772119,0.64986199,-0.091229,0.101803
6.7126,6917.7187,2.07105,6.01202,1.755,-0.21307,0.61166,4.87475,-5.6,-31.8,-16.8,67.999542,-64.833359,67.818855,0.7480555394695768,0.63970298,-0.105488,0.141652
6.7353,6917.7387,1.79092,4.35279,1.42459,-1.04873,0.57684,5.61023,-11.1,-29.9,-19.6,62.891254,-66.066391,70.840805,0.7476782611116488,0.62595397,-0.12550899,0.18277401
6.7591,6917.7587,2.15964,2.86116,2.19794,-1.31141,0.24514,6.59983,-9.2,-28.1,-18.1,56.714821,-66.333237,72.809669,0.747090129768249,0.60571897,-0.151509,0.228048
6.7734,6917.7787,4.26181,1.98485,2.62652,-0.75369,-0.2411,7.2449,-11.7,-25.7,-19.3,49.389881,-67.582886,75.693291,0.7388045181521968,0.584207,-0.18598799,0.27978301
6.7978,6917.7988,7.67126,2.02316,1.7143,-0.14893,-0.76339,7.02805,-14.8,-24.4,-19.8,41.558723,-70.059593,79.472969,0.7189109539144327,0.56646401,-0.22698399,0.33281201
6.8247,6917.8188,11.7942,2.02077,0.23943,-0.07929,-0.73529,6.1539,-17.9,-19.8,-21.1,34.135342,-72.439117,82.995895,0.692543698067017,0.55161798,-0.266175,0.38111901
6.8366,6917.8388,14.74155,1.80768,-1.69515,-0.85509,-0.62106,4.53449,-21.3,-17.2,-22.7,27.651007,-74.328293,85.445824,0.6664229651156384,0.53788102,-0.30173999,0.41894799
6.855,6917.8589,14.66254,1.50839,-1.64008,-2.41829,-0.0554,3.39767,-24.0,-14.6,-21.6,22.392111,-75.288765,85.91433,0.6492858227989422,0.52080202,-0.33371499,0.44252399
6.8785,6917.8789,12.77824,0.71589,1.26178,-2.88499,0.53164,3.0953,-23.0,-10.8,-21.0,17.748833,-75.009117,84.408493,0.6437048757314021,0.494753,-0.363377,0.45696899
6.8965,6917.8989,10.38876,0.10295,5.07107,-1.80621,-0.36389,3.33537,-25.4,-6.5,-23.9,13.289861,-74.503944,82.733109,0.6396598161592142,0.466481,-0.39036801,0.46994001
6.9177,6917.9189,8.10223,-0.72786,6.28497,-0.13305,-1.7646,4.06902,-27.1,-3.7,-24.3,8.928173,-75.454704,82.411339,0.6246269564485829,0.448194,-0.41841501,0.48362401
6.933,6917.9389,6.38793,-2.0064,4.74306,0.76065,-2.12685,5.10749,-27.1,-1.0,-24.3,4.128594,-77.680649,83.835243,0.5942978162186354,0.43958199,-0.44762099,0.50320297
6.9557,6917.9589,5.28895,-3.57944,1.7574,0.73072,-1.94908,6.41962,-28.1,2.1,-22.5,-1.763003,-79.713036,86.023605,0.5545252339102519,0.42848,-0.47661099,0.53079998
6.9751,6917.9789,5.32247,-5.53077,-1.75021,-0.52217,-1.01996,7.2785,-27.3,7.0,-21.9,-9.212518,-81.101692,87.928123,0.5088958996653624,0.40594199,-0.50879103,0.56335402
6.9955,6917.9989,5.76781,-7.66647,-3.40705,-1.94365,-0.09389,7.71893,-25.3,12.4,-22.9,-17.822355,-81.813004,88.18438,0.46568518481203536,0.36605501,-0.546094,0.59238702
7.0133,6918.0189,6.12216,-9.98173,-3.41424,-2.65775,0.31173,7.85333,-21.6,18.0,-19.8,-27.166643,-82.498322,86.765572,0.4247840184241868,0.311876,-0.587075,0.61452001
7.0351,6918.0389,6.20357,-12.31136,-2.64807,-2.8795,0.39358,7.9248,-19.0,22.1,-19.7,-36.793285,-83.899254,84.027725,0.3831387722659238,0.25016299,-0.62838298,0.62909299
7.0575,6918.0589,6.23948,-14.2196,-1.87472,-2.80375,0.02584,7.82645,-13.9,26.6,-16.2,-46.372814,-86.31015,80.266197,0.3391133275027685,0.185662,-0.665829,0.638125
7.0797,6918.0789,6.34004,-15.43589,-1.39347,-2.40608,-0.92894,7.38601,-10.1,29.0,-17.7,-55.449352,-90.530098,75.274361,0.2915574671521875,0.124697,-0.69790697,0.64216101
7.1108,6918.099,5.92104,-15.98178,-1.69994,-1.78483,-1.56424,6.88449,-5.9,31.5,-15.8,-63.538921,-97.304604,68.915977,0.23946617607699616,0.074324,-0.72305101,0.64368403
7.1191,6918.119,5.12614,-15.87404,-2.63849,-1.52032,-1.50987,6.37747,-2.0,32.0,-12.2,-70.639618,-107.50248,59.719173,0.18627786439042823,0.031145,-0.74086398,0.64455497
7.1344,6918.139,4.42223,-15.52208,-3.24424,-1.56492,-2.39624,5.9627,1.1,33.0,-12.5,-76.32885,-125.605713,42.746128,0.1343437425867617,-0.008142,-0.75414503,0.64276803
7.1559,6918.1591,3.6369,-14.74634,-4.01041,-1.33095,-3.05719,5.4624,4.0,33.2,-10.5,-79.202805,-158.257355,12.374606,0.07700923987470408,-0.03797,-0.76521701,0.63802099
7.1778,6918.1791,3.12213,-13.85567,-4.45096,-1.43175,-3.19342,5.05923,6.4,32.8,-7.0,-78.102196,166.706818,-19.789118,0.019053429362177625,-0.060713,-0.77241701,0.63191998
7.2054,6918.1991,2.92341,-12.93387,-4.3073,-1.52154,-2.81468,4.35612,7.8,32.0,-8.8,-74.211754,145.033844,-38.514854,0.03643809938237192,0.079783,0.77789098,-0.62224799
7.2198,6918.2191,2.64089,-12.05757,-3.96252,-1.29491,-2.95457,3.52412,10.1,31.5,-7.5,-69.844193,134.106949,-46.71386,0.08448020162830973,0.094449,0.78165799,-0.610699
7.2356,6918.2392,1.62811,-11.22197,-4.30012,-0.81722,-3.37729,2.77337,11.1,30.2,-8.7,-66.502113,127.939903,-49.803936,0.1254202907963446,0.09816,0.782902,-0.60141402
7.2567,6918.2592,0.29689,-10.70001,-5.48289,-0.98032,-3.23007,2.37386,11.7,29.8,-8.4,-64.536972,123.848976,-50.589455,0.1585226858578252,0.091598,0.78188503,-0.59593302
7.2834,6918.2792,-0.35914,-10.12539,-6.18202,-1.64738,-3.60147,2.08554,13.1,30.7,-7.5,-62.529411,121.464478,-49.636692,0.1892648649483568,0.082689,0.78329599,-0.586335
7.2981,6918.2993,-1.70472,-9.64893,-6.78777,-2.05483,-3.03581,2.2352,13.6,29.5,-7.5,-60.342258,120.22979,-47.127197,0.22064415139413834,0.070115,0.78717601,-0.57162398
7.3158,6918.3193,-2.52835,-9.30415,-6.88115,-2.80803,-2.21664,2.25108,15.6,31.3,-5.9,-57.59354,120.41964,-44.060085,0.24679077111387243,0.06342,0.79476601,-0.55083501
7.345,6918.3393,-2.77975,-8.59545,-5.98569,-3.3517,-2.62653,1.93954,15.2,30.0,-5.1,-54.326015,121.960258,-40.01244,0.2689886722075089,0.058074,0.80682802,-0.52278203
7.3632,6918.3593,-3.00242,-7.86998,-5.31529,-3.27778,-3.43165,1.37327,16.7,30.2,-4.2,-51.141014,122.992493,-35.589825,0.2939616667592556,0.04614,0.81773502,-0.49271399
7.382,6918.3794,-3.59141,-7.38634,-5.27459,-3.10185,-4.04802,1.02507,16.4,30.1,-1.8,-48.518059,122.870705,-31.33436,0.32228483181629847,0.02708,0.82402599,-0.46516699
7.3964,6918.3994,-4.50603,-7.99448,-5.8109,-3.30222,-3.45975,1.15274,17.0,29.2,-2.2,-46.250229,121.998734,-27.308687,0.3521760658858291,0.004849,0.826554,-0.43904099
7.4149,6918.4195,-4.6018,-8.39672,-5.55951,-4.54899,-1.68886,1.77277,18.2,30.1,-1.7,-43.278915,122.239243,-23.192545,0.3748726117219548,-0.010862,0.83310598,-0.406555
7.435,6918.4395,-4.13012,-8.06392,-4.4342,-5.02852,-1.02301,1.1955,18.2,29.3,0.0,-39.288952,124.455811,-18.453852,0.3854627653128626,-0.021002,0.84764397,-0.363974
7.4611,6918.4596,-3.75183,-7.53239,-3.12692,-4.78784,-2.44083,0.47041,19.9,28.7,4.5,-35.759518,126.634399,-13.524048,0.39209059670879515,-0.036783,0.86066997,-0.32273701
7.4747,6918.4796,-3.38072,-6.96255,-2.07344,-4.29609,-4.04863,0.05624,21.0,28.1,5.8,-33.075489,126.535622,-8.833553,0.4103551622872556,-0.061725,0.86348999,-0.286677
7.5071,6918.4997,-3.69915,-6.65369,-1.73345,-3.6443,-4.65888,-0.31272,22.2,27.3,5.8,-31.384478,124.353127,-4.613292,0.4393614750899525,-0.091871,0.85581797,-0.25709301
7.5192,6918.5198,-5.83485,-6.61538,-2.20752,-3.40362,-3.77191,-0.171,22.5,27.4,6.7,-30.544241,121.537094,-0.761515,0.46955576855789993,-0.123033,0.842673,-0.232986
7.5372,6918.5398,-7.45577,-6.71355,-2.83482,-3.98455,-2.52513,0.90595,23.1,26.7,8.3,-29.436174,119.694107,2.740511,0.49094271612586293,-0.147581,0.83302402,-0.208005
7.5568,6918.5599,-6.92185,-6.44299,-2.93778,-4.72675,-1.6296,1.27003,23.4,25.8,9.3,-26.887241,118.986778,6.267316,0.5039399277432182,-0.163651,0.83025801,-0.173016
7.578,6918.58,-6.17962,-6.07428,-2.77018,-4.98576,-2.14395,0.66405,25.2,23.9,9.4,-23.996313,119.002357,10.387433,0.5106104820915839,-0.181365,0.82980502,-0.133444
7.6081,6918.6,-6.39511,-6.01921,-2.32963,-5.04257,-3.30948,0.30792,25.6,23.1,12.0,-21.661953,118.050438,14.917431,0.5221304734111955,-0.20521,0.82244003,-0.094133
7.616,6918.6201,-6.88593,-5.98569,-1.45093,-4.80861,-3.18303,0.63901,27.1,21.1,11.3,-19.653008,115.972603,19.744366,0.5394216114250521,-0.23237801,0.80759799,-0.053012
7.6369,6918.6401,-7.32888,-5.67922,-1.11573,-4.69193,-2.28201,0.8919,27.6,19.8,12.3,-17.653833,113.956146,24.068312,0.5534968463069685,-0.254531,0.79288799,-0.013559
7.6579,6918.6602,-7.64013,-5.63373,-1.69515,-5.21606,-1.48299,1.18207,28.6,18.7,13.3,-15.507646,112.717377,28.319506,0.5597259484433962,-0.27426699,0.78156298,0.025373
7.6747,6918.6802,-7.9873,-5.8947,-2.12612,-6.10548,0.07471,1.4539,29.4,17.0,15.7,-12.865872,112.503204,33.146626,0.5556878208946449,-0.29533899,0.77416903,0.068178
7.6991,6918.7003,-8.33447,-6.25145,-0.96968,-6.93259,1.02583,1.5382,29.6,14.2,15.6,-9.567556,113.866234,38.59885,0.5362613443534403,-0.318955,0.77314597,0.11374
7.7197,6918.7203,-8.93543,-6.05752,1.81247,-6.79453,-0.32907,1.12526,29.5,9.9,18.1,-6.014372,115.169487,44.668934,0.511985197327305,-0.34637201,0.76909298,0.162461
7.741,6918.7403,-9.62977,-5.23388,4.42462,-5.19284,-0.55998,1.41358,29.5,7.1,19.7,-3.026048,114.349792,50.417919,0.49972911615708304,-0.37073901,0.75393498,0.21072599
7.7608,6918.7603,-10.25947,-4.24265,4.62574,-3.12873,0.37037,2.01834,29.8,4.6,18.9,-0.617195,113.036179,54.443104,0.4926208155635732,-0.38416299,0.74031299,0.248355
7.7847,6918.7804,-10.2044,-3.28973,2.3416,-2.61621,0.97696,2.3928,29.2,2.0,19.9,1.631415,112.402779,56.501541,0.4843654470654358,-0.38632199,0.73568702,0.27369699
7.802,6918.8004,-10.42467,-2.62173,-0.3352,-3.32787,1.95984,2.62982,29.9,-0.7,23.0,4.201846,112.402023,58.586155,0.4699174531227579,-0.38852799,0.73422402,0.29856101
7.8214,6918.8204,-10.36482,-2.14766,-1.94176,-4.26433,1.97023,2.69274,28.2,-3.3,24.0,7.432014,113.312759,61.560631,0.44353183976194965,-0.39600399,0.73443401,0.32721099
7.8391,6918.8405,-10.37679,-1.77416,-2.7582,-4.98576,1.28117,2.5669,27.4,-7.8,23.9,11.088803,113.659195,65.597305,0.41394810128309517,-0.406863,0.72894698,0.362968
7.8587,6918.8605,-10.45101,-1.83162,-3.15326,-5.50072,1.57622,2.54796,26.4,-10.6,24.3,14.904415,113.382889,70.492325,0.3821389508281247,-0.42004901,0.717857,0.402753
7.8838,6918.8805,-10.84367,-1.69994,-2.72708,-5.95154,1.58172,2.53452,24.7,-14.9,22.2,18.845575,113.006943,76.114754,0.3445274081257394,-0.43599001,0.70346099,0.44312099
7.897,6918.9005,-11.74392,-1.06306,-2.03034,-6.04256,2.25123,2.87477,22.3,-17.8,22.6,22.875774,112.459061,82.407516,0.3013245487889744,-0.45378101,0.68561703,0.48292401
7.9202,6918.9206,-12.01687,-0.65124,-1.45811,-5.84708,1.84867,3.4667,19.5,-21.5,17.8,27.253923,111.930641,88.828079,0.2519018737897737,-0.46944001,0.66755998,0.52012998
7.9445,6918.9406,-12.62022,-0.06225,-1.07742,-5.97597,3.61834,3.84116,17.3,-24.4,17.5,31.969336,110.865211,95.303764,0.19983362709809363,-0.47980899,0.648736,0.55587
7.9542,6918.9606,-12.90514,0.23224,-0.60815,-6.06088,4.0209,4.04947,13.7,-27.3,16.5,36.998619,111.148415,102.200371,0.132986560241549,-0.49612999,0.630813,0.58158797
7.975,6918.9807,-12.10545,0.61054,-0.3759,-5.86785,3.77656,4.07573,10.9,-29.9,14.3,42.141438,110.865044,109.462822,0.06400433627105734,-0.50958198,0.61022401,0.60320503
8.0035,6919.0007,-10.33848,1.39107,0.1269,-5.58074,3.54015,3.65912,6.6,-32.9,8.3,46.94117,109.422363,117.350563,0.002798903566999815,0.51996303,-0.58579397,-0.62167197
8.0234,6919.0207,-9.39035,2.48286,0.95771,-4.95216,3.43081,3.12889,3.9,-33.6,7.3,50.847015,107.060989,125.966141,0.06372496941152131,0.53112298,-0.55725199,-0.63507301
8.0383,6919.0407,-9.4933,3.40226,0.96729,-4.24417,3.85291,3.04154,2.2,-35.0,4.7,53.867805,104.379791,134.461548,0.11846030616860118,0.541991,-0.52864403,-0.64245498
8.0594,6919.0607,-9.47893,4.05351,0.30407,-4.27716,4.98729,3.37202,0.5,-34.1,1.9,56.636555,102.332306,142.839417,0.17437584387804178,0.55522299,-0.50045598,-0.64098698
8.079,6919.0807,-8.54517,4.59222,-0.41182,-4.54655,5.15833,3.49236,-2.4,-34.5,-1.9,59.723282,100.517265,152.067764,0.23773448192800956,0.57030702,-0.46985501,-0.63045102
8.1029,6919.1007,-7.60901,4.58982,-1.26418,-5.05845,4.80037,3.0,-2.4,-34.0,-3.8,62.638744,96.912292,163.074768,0.3014418571094928,0.58169299,-0.435074,-0.61763799
8.1314,6919.1207,-8.42545,3.93379,-1.26657,-6.0786,5.27256,2.85156,-2.9,-32.6,-10.0,64.617271,90.464729,176.922073,0.36334719276757815,0.58972698,-0.392378,-0.605178
8.1423,6919.1406,-10.53241,3.04073,-0.34956,-6.93992,6.84127,4.15454,-2.9,-30.9,-13.5,65.895546,81.305283,-165.290894,0.43290394140166905,0.59501499,-0.33924699,-0.58605701
8.1554,6919.1606,-11.10704,2.02556,2.56187,-7.33087,8.77466,5.63039,-2.7,-27.3,-17.0,67.179375,70.155853,-143.187912,0.5169316786760506,0.59719598,-0.278438,-0.546453
8.1761,6919.1806,-9.20359,1.22347,5.22191,-6.85073,8.71174,5.81609,-2.0,-24.6,-21.7,67.609856,57.849709,-118.034874,0.6050890582428339,0.59522998,-0.210602,-0.48499
8.1966,6919.2006,-7.41986,0.96968,8.35841,-5.66993,7.43381,5.13803,0.6,-20.9,-24.5,66.19912,46.948689,-94.763443,0.6803628794272655,0.58472699,-0.142655,-0.41815099
8.2151,6919.2206,-5.32966,1.26657,11.78223,-3.58932,4.71546,4.6695,1.8,-19.0,-27.0,63.806145,39.302284,-76.885925,0.7366870590475985,0.56731701,-0.085835,-0.35787699
8.2385,6919.2406,-3.96492,1.87232,13.83173,-1.00964,2.35263,4.28954,2.1,-17.7,-28.4,62.192295,33.251068,-64.147591,0.7737343081226269,0.549447,-0.055185,-0.31048
8.266,6919.2606,-3.54592,2.76778,13.82694,1.24934,0.81936,4.25655,1.2,-17.9,-28.1,62.232857,27.806513,-54.97229,0.7945415641248732,0.539958,-0.049033,-0.273395
8.2848,6919.2806,-2.85158,3.48606,12.50051,2.70015,-0.51233,4.29687,0.0,-20.6,-27.9,63.957119,21.843044,-47.151619,0.8034950658984156,0.54088497,-0.060687,-0.241156
8.3023,6919.3006,-1.63768,4.07984,9.95779,3.37821,-1.53308,4.48562,-3.0,-22.7,-26.4,66.555702,13.573153,-38.772163,0.8046156561309257,0.546758,-0.087664,-0.214393
8.3159,6919.3206,-0.3783,4.83644,7.08705,2.89074,-0.53554,4.87963,-6.1,-23.9,-24.4,69.008041,2.070922,-27.553982,0.8026832983770747,0.55362499,-0.120415,-0.186277
8.3405,6919.3406,1.13249,5.75823,5.24346,1.65251,0.29096,4.91079,-8.1,-25.2,-23.3,69.680191,-11.222838,-13.235398,0.8049352826749488,0.55551499,-0.14524201,-0.14962301
8.3576,6919.3607,2.64567,7.01762,5.17642,1.16565,0.27691,4.4447,-8.5,-24.8,-23.4,68.179878,-22.74613,0.000652,0.8118973501135717,0.54948902,-0.163307,-0.110523
8.3757,6919.3807,3.35917,7.34563,4.65686,1.37335,0.24331,3.97922,-10.0,-24.7,-23.8,66.1203,-31.643209,10.633494,0.8166594389348353,0.54376799,-0.178885,-0.073375
8.398,6919.4007,2.98805,6.92424,3.40705,0.75943,0.56829,4.01648,-10.8,-24.6,-25.0,63.909676,-38.951294,19.578882,0.8182736399038159,0.53980201,-0.19392601,-0.037878
8.4172,6919.4208,1.99922,5.69119,3.44536,-0.01637,0.76438,4.60597,-12.2,-22.6,-25.1,60.772572,-43.944824,26.789789,0.8220581479780126,0.53109801,-0.205314,0.001211
8.4354,6919.4408,1.51558,4.39349,4.36955,-0.02553,-0.00531,5.75439,-14.0,-21.4,-27.1,56.470703,-48.016838,33.082344,0.8262876290709064,0.51633501,-0.22058401,0.044605
8.4581,6919.4608,3.41424,3.65845,4.1397,0.78264,-0.88984,6.45689,-15.9,-20.1,-27.6,51.252048,-52.974796,39.851788,0.8244210053663839,0.50097197,-0.246132,0.093681
8.4777,6919.4808,5.92822,3.05988,2.57145,0.69773,-1.21849,6.36281,-18.4,-17.1,-25.3,45.734295,-58.41983,46.613644,0.8136447519646887,0.48941299,-0.27876601,0.14403699
8.5056,6919.5009,7.83407,2.52596,2.03753,0.09053,-0.83181,6.14779,-21.4,-13.8,-27.0,39.771744,-62.552128,51.805672,0.8001123919066495,0.47478101,-0.31215999,0.192248
8.5196,6919.5209,8.95938,1.79092,1.96809,-0.02248,-0.23255,5.66093,-23.2,-11.0,-25.9,33.541119,-65.200111,55.579559,0.7860667643474057,0.455553,-0.34302801,0.23854201
8.5412,6919.541,10.15651,1.16362,1.60895,-0.28027,0.43146,5.08305,-23.4,-8.7,-27.6,27.692307,-66.678429,58.619518,0.7717022429495975,0.43556401,-0.36743999,0.28239599
8.5599,6919.561,11.14295,0.88828,1.81965,-0.77812,0.72345,4.65545,-23.1,-5.2,-26.8,22.168856,-66.931213,60.756733,0.7598704807004283,0.412027,-0.38574499,0.322539
8.5798,6919.5811,11.89715,0.59857,2.43019,-0.6535,0.35876,4.13377,-23.4,-2.9,-29.1,16.895319,-66.868607,62.284447,0.7483636712824719,0.38678399,-0.40305799,0.35762301
8.6088,6919.6012,10.96338,-0.11253,2.43737,-0.31386,0.00813,3.86926,-22.8,0.4,-27.7,12.264934,-67.22435,63.792236,0.734256839828544,0.366355,-0.420286,0.387312
8.6275,6919.6213,9.17726,-0.96729,1.86993,-0.38595,-0.35289,4.22112,-22.5,3.6,-25.1,7.895429,-67.854401,65.368263,0.7174586302949459,0.348764,-0.437801,0.41466501
8.6383,6919.6414,7.64492,-1.86753,1.33361,-0.6419,-1.30096,4.85092,-22.1,6.8,-26.6,2.995458,-68.923645,66.825729,0.6961421645585187,0.32948199,-0.46030599,0.44152701
8.6604,6919.6615,6.63454,-3.31368,0.19872,-1.01391,-1.73956,5.45568,-22.6,8.6,-28.7,-2.650565,-70.818222,68.090591,0.6676515298087768,0.308676,-0.490522,0.467278
8.6777,6919.6816,6.50764,-5.16684,-0.42139,-1.65593,-1.63632,6.17406,-22.2,11.6,-27.5,-9.205227,-73.005867,68.856178,0.6338993478026299,0.282031,-0.52555102,0.49236801
8.7047,6919.7016,6.92903,-6.84284,-0.07422,-1.83675,-1.41152,6.5137,-20.2,16.7,-25.4,-16.752926,-75.098167,68.899086,0.5965920567107134,0.24583,-0.56253302,0.51691598
8.7212,6919.7217,6.69439,-8.62418,-0.47167,-1.69931,-1.36143,6.66519,-16.2,22.3,-23.5,-24.641293,-77.068474,68.619957,0.5563152506615638,0.20519701,-0.59681702,0.54057097
8.7382,6919.7418,6.29455,-10.40791,-1.36234,-1.9296,-1.50804,6.84601,-13.8,25.1,-21.6,-32.737415,-79.17263,68.001678,0.51258283388112,0.161851,-0.62832999,0.562374
8.7596,6919.7619,6.10061,-12.03602,-2.1333,-2.27352,-1.36571,7.01583,-9.9,28.1,-22.4,-41.088432,-81.991905,66.506378,0.4647929809107268,0.115341,-0.65893602,0.58005798
8.782,6919.782,6.10061,-13.26428,-2.19555,-2.37553,-1.48544,6.89671,-7.2,30.1,-20.2,-49.479862,-85.688126,63.679535,0.4155785016116439,0.065134,-0.68653703,0.593059
8.8048,6919.8021,5.93062,-14.01608,-2.39188,-2.03895,-2.3883,6.5754,-3.6,32.2,-18.0,-57.403011,-91.198105,59.346245,0.3633676779544633,0.018286,-0.71084303,0.60193998
8.8332,6919.8222,5.39191,-14.45184,-3.32804,-1.83064,-2.68762,6.1875,0.2,33.1,-14.8,-64.494843,-99.414734,53.195499,0.3068403612191518,-0.019715,-0.73132002,0.60879499
8.8406,6919.8423,4.96094,-14.53804,-4.05351,-2.00779,-2.76276,5.84602,2.9,34.2,-11.6,-70.448135,-112.224472,42.662636,0.25010618205490076,-0.05288,-0.74866098,0.61168402
8.8588,6919.8624,4.30491,-14.49973,-4.66644,-2.04261,-2.60271,5.32312,4.7,33.9,-13.1,-74.566589,-132.315765,24.717367,0.19557677672116092,-0.083421,-0.76329303,0.61006099
8.8812,6919.8825,3.56029,-14.54043,-5.08305,-2.26252,-2.43839,5.03357,8.4,34.3,-11.4,-75.965256,-159.321243,-0.163368,0.14233156401641642,-0.11156,-0.77523798,0.60522902
8.9149,6919.9026,3.03833,-14.32973,-5.25304,-2.50443,-1.96741,4.65178,9.6,33.7,-11.3,-74.084076,175.400711,-23.57655,0.09162900689890571,-0.139275,-0.78566498,0.59576601
8.9196,6919.9227,2.50681,-13.69525,-5.09741,-2.57956,-1.82752,3.92668,12.0,34.3,-7.3,-70.099464,159.656631,-37.855263,0.04660803642376683,-0.165442,-0.79511398,0.58159298
8.9436,6919.9428,2.05189,-12.98176,-4.8532,-2.38225,-2.67968,3.16005,13.9,33.0,-7.5,-65.661812,150.82431,-44.942818,0.005172953796388899,-0.184636,-0.80363202,0.56573701
8.9607,6919.9628,1.32403,-12.19404,-4.78616,-2.053,-2.85744,2.83446,16.4,32.0,-2.8,-61.618114,144.566956,-48.406738,0.03838307201749005,0.193262,0.81012499,-0.552154
8.9822,6919.9829,0.45012,-11.07113,-5.31529,-1.96809,-2.13051,2.36959,16.7,32.1,-4.6,-58.335854,140.508911,-49.924221,0.07386729227093337,0.19756401,0.81456798,-0.540362
9.0129,6920.0029,-0.64885,-9.88117,-5.89949,-2.26008,-2.22947,1.95786,17.9,32.1,-3.4,-55.764694,138.935715,-49.580799,0.09782487150300744,0.198173,0.82025301,-0.52758199
9.0409,6920.023,-1.53952,-8.83009,-6.03357,-2.27046,-3.40539,1.45146,18.6,31.3,-4.6,-53.23682,137.726807,-48.246803,0.12342478051874131,0.193351,0.82707101,-0.51316202
9.0421,6920.0431,-2.7175,-8.64094,-6.37835,-1.96198,-4.41637,1.33906,19.2,31.2,-3.7,-51.154079,135.485901,-46.372211,0.1567409134573976,0.17836399,0.83175498,-0.50179899
9.06,6920.0631,-3.84042,-8.23152,-6.63932,-2.4916,-4.08406,1.87112,19.2,31.1,-4.6,-49.007496,132.29454,-44.811626,0.19560309268694973,0.16215201,0.83331698,-0.49094701
9.0795,6920.0832,-4.5587,-7.96336,-6.29215,-3.12629,-3.09507,2.2187,20.1,30.0,-3.9,-45.949348,129.882614,-42.890659,0.23367884172590261,0.15105399,0.83671898,-0.47167599
9.1016,6920.1032,-4.7694,-7.68083,-5.40627,-3.62231,-1.35349,2.73122,22.5,30.4,-1.6,-42.072189,128.871078,-40.832035,0.2645118628116322,0.148543,0.84312302,-0.443973
9.118,6920.1233,-4.07506,-6.39511,-4.25702,-3.76892,-0.10671,1.99452,23.2,29.3,-1.1,-37.722557,129.632401,-38.796154,0.28265385684310024,0.154668,0.85343099,-0.40968299
9.1429,6920.1433,-4.0152,-5.14051,-3.53874,-3.65957,-0.90939,0.73919,23.5,28.3,0.8,-34.197735,131.405304,-36.192696,0.2905949247154185,0.15559199,0.86562401,-0.376883
9.1824,6920.1633,-4.66644,-4.52997,-3.46691,-3.21547,-2.48665,-0.12091,23.6,28.1,1.9,-31.802687,131.981293,-33.084427,0.30386132044806163,0.14327,0.87390298,-0.35133401
9.1858,6920.1834,-6.13174,-4.8532,-3.84042,-2.88438,-3.84399,-0.21254,24.1,28.0,1.7,-30.32296,130.685852,-29.908813,0.3276913309081276,0.120943,0.87563401,-0.33355099
9.2047,6920.2034,-7.21395,-5.13572,-4.14449,-3.12629,-3.84093,1.06478,24.3,27.4,3.4,-28.735863,127.694031,-27.255058,0.36248293283237465,0.098576,0.87083501,-0.31707299
9.2243,6920.2234,-7.06551,-5.06629,-4.53476,-3.50258,-2.58133,1.66648,25.4,26.9,4.4,-25.895376,124.807472,-25.11849,0.3974792456042951,0.086501,0.86560398,-0.291989
9.2395,6920.2434,-6.4406,-4.70714,-5.20276,-4.44026,-1.25942,0.91023,26.3,25.5,3.1,-22.677845,123.647667,-22.518232,0.4202192522143167,0.0777,0.86578602,-0.260371
9.2576,6920.2634,-5.48289,-4.52039,-5.17882,-5.17085,-1.68336,0.2902,27.5,24.8,5.5,-19.579079,123.842926,-18.619509,0.43345017577340944,0.061678,0.87094998,-0.223076
9.2801,6920.2834,-5.06629,-4.61377,-4.82207,-5.494,-2.51536,-0.47277,28.0,23.3,7.8,-16.840506,123.389153,-13.742234,0.4502683330494827,0.035261,0.87299299,-0.18411499
9.2976,6920.3034,-5.77978,-5.2291,-4.58264,-5.93627,-2.03888,-0.6377,28.0,22.4,7.4,-14.663168,122.397736,-8.167676,0.4686556656838574,0.000573,0.87130398,-0.14557099
9.3289,6920.3234,-6.56271,-6.30173,-3.84999,-6.56179,-1.07799,0.02387,28.9,20.9,10.2,-12.34279,122.075821,-2.227814,0.47950581313404317,-0.035136,0.87071699,-0.1034
9.3422,6920.3434,-6.97213,-6.43102,-2.33442,-6.84035,-0.06701,0.59564,29.9,19.2,10.9,-9.094157,122.454659,3.699776,0.48181433544737906,-0.066346,0.87208998,-0.053965
9.3602,6920.3633,-7.09902,-5.6864,-0.79011,-6.31195,0.27752,0.16009,29.5,17.5,12.5,-5.663861,123.299492,9.277936,0.4762441650321607,-0.094474,0.87420899,-0.00498
9.3788,6920.3833,-7.4007,-5.04234,-0.40942,-5.91672,-0.32968,-0.11908,29.6,15.7,13.6,-3.094551,123.532043,14.461036,0.47213544351446385,-0.123519,0.87208998,0.03592
9.3985,6920.4033,-7.41986,-4.50124,-0.30168,-5.89778,-0.2521,-0.20215,29.6,13.3,14.7,-0.95837,122.822746,19.502102,0.47283216870648725,-0.152657,0.86468399,0.073805
9.4173,6920.4233,-7.779,-4.04872,-0.57463,-5.76278,0.338,-0.13007,30.1,11.6,17.2,0.980997,121.909004,24.619982,0.47272890270722806,-0.18232,0.85498899,0.110818
9.4417,6920.4433,-8.89713,-4.11336,-1.35277,-5.92038,2.12294,0.17597,29.5,9.4,16.7,2.950562,121.875381,29.668266,0.4636536388180293,-0.211623,0.84788102,0.14607801
9.4574,6920.4633,-10.39594,-4.0559,-1.96809,-6.60394,2.87064,0.48568,29.0,7.2,20.0,5.527329,123.278084,34.664368,0.44028878463313054,-0.239985,0.84586197,0.181853
9.4808,6920.4833,-11.14056,-3.86675,-1.80528,-7.06331,2.36607,0.83082,27.7,3.6,22.9,9.003812,124.795876,40.186272,0.4098897949954351,-0.26935399,0.84217501,0.22400901
9.5024,6920.5033,-11.71519,-3.31368,-1.0463,-6.81164,1.63425,1.12098,26.7,0.0,22.5,13.040794,125.052307,45.856209,0.3828982596110874,-0.29515499,0.83224899,0.27135599
9.5224,6920.5233,-12.94824,-2.45653,-0.30886,-6.29851,1.66357,1.74467,25.8,-4.7,25.5,17.120117,124.242424,51.43327,0.35950352984122397,-0.31658,0.81771499,0.319181
9.5379,6920.5433,-13.82215,-1.82683,-0.60575,-5.81348,2.02154,2.89738,23.9,-11.9,22.8,21.536007,123.45343,56.562912,0.3318297475352072,-0.33199599,0.80384398,0.36537999
9.5596,6920.5633,-13.56117,-1.16841,-1.31206,-6.00774,2.74053,3.48442,21.5,-16.4,22.3,26.652811,122.972023,61.385937,0.2960646115495397,-0.34182501,0.791426,0.41127399
9.5806,6920.5833,-12.35925,-0.5028,-1.78134,-6.4329,3.79977,3.54367,17.8,-20.8,20.8,32.300415,122.905502,66.795517,0.24873148262417324,-0.35346901,0.77759498,0.45666
9.6095,6920.6033,-11.01606,0.11253,-1.77176,-6.52392,4.91582,3.27061,14.1,-24.5,20.5,38.048538,123.26889,73.304871,0.18911263342135462,-0.37235001,0.75983602,0.498238
9.6222,6920.6233,-9.93624,1.14686,-1.54191,-6.1684,4.36299,2.54796,11.6,-26.8,19.5,43.317398,123.589363,80.557693,0.12484494841353903,-0.396438,0.73762703,0.532125
9.6434,6920.6433,-9.30176,2.2147,-1.79331,-5.80737,3.31535,2.01223,7.6,-29.9,15.5,47.629417,122.155525,88.578331,0.06994148996739123,-0.419366,0.70955497,0.56193602
9.6581,6920.6633,-10.19722,2.86355,-2.32484,-5.90389,3.85475,2.23031,7.7,-30.9,13.3,51.184727,119.070221,97.621323,0.020977192030380808,-0.44077501,0.67675298,0.58930701
9.6802,6920.6833,-11.80617,3.32565,-2.6744,-6.36204,6.28538,3.27184,4.0,-33.3,8.2,55.071175,116.343582,107.438278,0.03994278742349661,0.46305799,-0.64235002,-0.60939997
9.7107,6920.7033,-11.88997,3.48606,-2.31526,-6.79759,6.93839,3.80451,0.7,-34.1,3.2,59.985672,114.695862,118.775391,0.12428257138746261,0.490242,-0.60345501,-0.61648899
9.7224,6920.7233,-10.53002,3.68239,-2.22428,-6.73894,7.02697,3.72937,-1.0,-33.8,-0.2,65.027267,110.759949,132.562332,0.21226206929689298,0.512501,-0.55871701,-0.61654103
9.7422,6920.7433,-10.63537,3.57944,-2.23625,-7.24413,9.02083,3.63713,-2.5,-33.8,-3.1,69.226578,103.445824,150.241699,0.30006146522737637,0.53406,-0.505979,-0.60723001
9.7609,6920.7633,-11.4159,2.91862,0.23464,-7.72549,10.88519,4.42515,-3.3,-32.4,-9.1,72.452171,91.6483,174.935638,0.3986031029602743,0.55980301,-0.436986,-0.58032697
9.7776,6920.7832,-9.12937,2.50681,2.98805,-7.3663,11.14359,4.78495,-2.6,-29.9,-16.0,74.392632,74.486153,-153.292099,0.5024441489894175,0.580203,-0.35690999,-0.53247499
9.8135,6920.8032,-5.70316,2.55469,6.92903,-6.38464,10.97316,3.83444,-0.5,-25.9,-23.8,73.620163,56.768478,-120.704048,0.5959754824776601,0.59153199,-0.26984999,-0.47125801
9.8303,6920.8232,-4.24984,3.37593,10.0775,-4.3132,9.91025,2.73977,2.7,-23.0,-23.2,70.587624,47.971149,-97.571503,0.6680157580832499,0.59739703,-0.17849,-0.40621799
9.8446,6920.8432,-4.04393,3.92422,10.92747,-2.25153,8.65493,2.82346,5.8,-23.6,-28.8,67.963257,46.515324,-83.471535,0.7154173000828816,0.601161,-0.097506,-0.34245601
9.8601,6920.8632,-3.68479,4.18759,10.51326,-1.16846,7.68609,3.1295,8.8,-21.7,-24.2,66.991844,46.533543,-72.584946,0.746521161994474,0.60362399,-0.034589,-0.27775499
9.8858,6920.8832,-3.48846,4.28336,10.57312,-0.24117,6.91518,3.15333,11.0,-22.1,-23.8,67.021278,46.318272,-62.648632,0.7677348570118463,0.604092,0.016223,-0.213056
9.9032,6920.9032,-3.97928,4.38631,9.97455,1.39656,5.43567,3.25534,11.7,-23.4,-22.0,67.985077,46.420696,-54.371059,0.778495044429866,0.60636097,0.055904,-0.15214001
9.9245,6920.9232,-4.35279,4.32645,7.24747,2.47657,3.32513,3.82956,11.0,-25.4,-22.0,70.38546,46.714817,-48.556595,0.7778432199469761,0.61552399,0.077794,-0.100191
9.9417,6920.9432,-4.19956,4.50124,3.66324,2.24627,1.98733,4.51434,10.9,-27.2,-19.0,73.794807,44.157032,-42.227024,0.7726095277405783,0.62728798,0.080004,-0.056424
9.9632,6920.9632,-3.06467,5.02798,1.23545,1.23896,1.2433,5.02746,8.2,-28.9,-17.9,77.045998,35.034107,-30.342691,0.7691349164990496,0.634875,0.071834,-0.014321
9.9856,6920.9832,-0.78053,5.78936,-0.24661,0.41795,0.7039,5.5803,6.2,-29.6,-18.9,78.915237,15.418699,-8.653234,0.7693650907738143,0.63578498,0.055769,0.027288
10.0018,6921.0032,1.64966,6.64172,-0.51237,-0.72375,0.81814,5.39826,2.9,-30.2,-18.4,78.259544,-10.160947,18.955044,0.7713235109733917,0.63133401,0.035751,0.072106
10.0167,6921.0232,2.89707,7.39113,0.83321,-1.12509,-0.3419,4.9511,1.1,-30.1,-18.9,75.106438,-28.047945,38.548183,0.7747990489222087,0.62160403,0.013846,0.114469
10.0385,6921.0432,3.74704,7.76224,2.56666,-0.59059,-1.63693,4.75318,-0.8,-29.4,-20.8,71.133652,-39.998611,50.725689,0.7759190000188032,0.61306298,-0.017261,0.14766701
10.0666,6921.0632,4.81728,8.31292,3.33762,0.45888,-2.32049,4.68293,-3.3,-29.2,-22.3,67.136215,-50.532307,60.179779,0.7702955867515532,0.61095202,-0.05702,0.173583
10.0843,6921.0832,6.30173,8.37996,1.64966,0.78264,-1.83363,4.48257,-7.6,-28.8,-20.3,63.248936,-60.301262,68.583427,0.7567002210319355,0.61556101,-0.097893,0.197247
10.0984,6921.1032,9.0743,8.12856,-1.19235,-0.80317,-1.12442,3.87537,-9.9,-28.6,-19.4,59.035648,-66.905907,74.400795,0.7425222025484888,0.61746103,-0.13355599,0.222633
10.1167,6921.1232,11.00648,8.15251,-1.51558,-2.46044,0.00507,2.66586,-12.1,-27.1,-20.8,54.679398,-68.358383,75.326187,0.7393876745679222,0.60568702,-0.162889,0.24477801
10.1366,6921.1432,10.48453,7.31451,0.56984,-2.96624,0.3887,2.19977,-13.7,-24.9,-22.2,50.865864,-66.712151,73.423141,0.7458626053845306,0.584396,-0.183633,0.261628
10.1615,6921.1632,8.5308,6.38074,4.22589,-2.22831,0.1132,2.51558,-14.9,-23.3,-23.7,47.071198,-64.964027,71.531601,0.7528745636450602,0.56109601,-0.202627,0.27801701
10.1824,6921.1832,6.20835,5.8109,6.11498,-0.70237,-0.45185,3.21564,-16.4,-21.1,-25.3,43.345009,-64.950005,71.397072,0.7523826803597352,0.54417402,-0.22341999,0.29644299
10.2064,6921.2031,5.04234,5.43979,4.63292,-0.28637,-0.51844,4.06352,-18.1,-19.8,-25.3,39.524479,-66.546989,73.202606,0.7422677718952372,0.53479701,-0.245956,0.32021299
10.2206,6921.2231,5.48768,4.7263,1.92739,-1.10127,-0.30525,4.55649,-19.5,-17.1,-26.0,34.958836,-68.104362,75.17482,0.7288187765308601,0.52298301,-0.27142999,0.348766
10.2379,6921.2431,6.16765,3.61775,-0.10056,-2.25764,0.27141,4.8326,-21.4,-14.7,-26.7,29.807127,-68.452019,75.976219,0.7187695180276353,0.50214702,-0.29749501,0.37777701
10.2593,6921.2631,6.71115,2.18118,-0.07662,-3.10491,0.04417,5.08366,-21.3,-10.6,-26.1,24.021759,-68.043259,75.6222,0.711847713176758,0.47176501,-0.32661399,0.405011
10.277,6921.2831,6.58186,0.48125,1.0894,-3.21181,0.02706,5.56563,-22.0,-6.4,-27.7,17.738205,-67.897949,74.787308,0.7034587303840928,0.436699,-0.36070701,0.42933699
10.2975,6921.3031,6.42144,-1.0894,2.06386,-2.99129,-0.20262,6.10442,-22.7,-1.9,-29.6,10.872889,-68.063354,74.132408,0.6902591197696556,0.39845601,-0.39723501,0.45495
10.3289,6921.3231,6.36638,-2.88031,1.82923,-2.92165,-0.27287,6.44223,-22.2,3.3,-27.0,3.450144,-68.613167,73.857285,0.67021316520901,0.35835999,-0.43540499,0.48250899
10.3402,6921.3431,6.22511,-5.36557,0.8763,-3.36086,-0.11282,6.84601,-20.6,11.2,-26.4,-4.496378,-69.158356,73.442932,0.646131600395337,0.3132,-0.473878,0.50976402
10.3614,6921.3631,6.49806,-7.84843,0.22985,-3.80862,-0.3028,7.25712,-18.7,16.1,-27.3,-13.362058,-69.728905,72.409973,0.6182949389979511,0.258333,-0.514512,0.53502601
10.3769,6921.3831,6.7734,-10.21398,-0.15563,-3.94301,-1.18184,7.46543,-15.6,21.3,-23.0,-22.991646,-71.190987,70.806541,0.5822917945999065,0.198347,-0.55879998,0.55618101
10.4318,6921.4031,6.82608,-12.53882,-0.5842,-3.94485,-1.83668,7.57844,-12.9,26.4,-21.7,-32.885223,-74.061356,68.543114,0.5367354753652678,0.13853,-0.604572,0.57202899
10.4342,6921.4231,6.7327,-14.49015,-0.99602,-3.88926,-2.12868,7.73787,-8.4,30.3,-19.8,-42.77441,-78.399788,65.334419,0.4830365899845888,0.079754,-0.64794999,0.58350301
10.438,6921.4431,6.4382,-16.07516,-1.60656,-3.67423,-2.31744,7.74031,-5.3,32.5,-17.2,-52.367893,-84.390617,60.585217,0.4245617922980347,0.021759,-0.68533599,0.59126002
10.4584,6921.4631,6.25863,-16.90358,-3.18678,-3.43477,-2.29361,7.3573,-0.8,34.6,-15.8,-61.27668,-93.179077,53.304291,0.36239104265927957,-0.032631,-0.71572399,0.59610999
10.4775,6921.4831,6.01442,-17.14301,-5.0615,-3.73349,-1.97596,6.69635,3.5,35.7,-11.7,-68.71386,-107.31543,40.476952,0.30176474502820877,-0.083758,-0.7396,0.59574699
10.5,6921.5031,5.49247,-16.95865,-5.96653,-4.24417,-1.87456,6.01584,6.5,35.7,-9.1,-73.133224,-131.464783,17.184639,0.24525239272475835,-0.132715,-0.760557,0.58633697
10.5184,6921.5231,4.76461,-16.17093,-5.94977,-4.29609,-2.30522,5.19728,10.0,35.6,-6.8,-72.744499,-161.002319,-11.349903,0.19006621610501637,-0.175915,-0.78056997,0.56889302
10.5373,6921.5431,3.63451,-15.27308,-6.04554,-4.0658,-2.53735,4.50151,12.6,35.8,-1.7,-68.74437,177.93158,-30.771284,0.13540391590444933,-0.20912699,-0.79838002,0.54819798
10.5578,6921.5631,2.75581,-14.56916,-6.02639,-4.01082,-2.48787,4.1918,14.3,34.2,0.1,-63.399601,165.258606,-41.526459,0.08269347886284512,-0.236094,-0.81287801,0.525976
10.5821,6921.5831,2.98327,-13.87482,-5.70077,-3.78602,-2.7035,3.7306,17.7,33.6,1.8,-57.566967,157.11731,-47.602848,0.031430016275525885,-0.25928801,-0.824512,0.50195801
10.6033,6921.603,3.44297,-12.60586,-5.60739,-3.50136,-3.23129,2.719,18.8,32.2,4.0,-51.994892,151.333649,-50.701164,0.01929102348501541,0.27478999,0.83343798,-0.47906101
10.6192,6921.623,2.65764,-11.16211,-5.95696,-3.20936,-3.26183,1.69764,20.7,31.0,5.6,-47.198887,147.094742,-51.337673,0.06761272092365081,0.27849299,0.84122902,-0.45848
10.6427,6921.643,0.96729,-9.94582,-6.72073,-3.31016,-2.10913,1.47772,21.0,30.4,7.2,-43.25869,144.275452,-50.509239,0.10820311820062979,0.27522901,0.84844798,-0.43895
10.6589,6921.663,0.15802,-8.83727,-7.22113,-3.71088,-1.17573,1.28713,22.6,28.1,9.7,-40.136562,144.130447,-48.55167,0.12944459548030499,0.27108201,0.85806501,-0.416513
10.6791,6921.683,-0.53632,-8.31292,-8.04237,-4.03953,-0.87763,0.79783,22.8,27.5,9.7,-37.081638,145.211548,-46.113911,0.14195239284203606,0.26687399,0.86969501,-0.390203
10.707,6921.703,-1.56586,-7.74787,-8.49249,-4.82266,-0.04807,0.44109,24.2,26.7,13.2,-33.760891,147.046188,-43.094296,0.15017977748638373,0.260407,0.88373601,-0.35867101
10.7332,6921.723,-2.08062,-7.01283,-8.17645,-5.37183,0.21216,0.18819,27.2,23.8,16.9,-29.707928,149.704575,-39.779518,0.1533271749412314,0.25442499,0.90013403,-0.318618
10.7512,6921.743,-2.31526,-6.11258,-7.88195,-5.34128,-0.31135,-0.28951,27.7,22.2,20.1,-25.299885,152.161438,-36.623531,0.15605065022780087,0.247547,0.91566598,-0.27554399
10.7603,6921.763,-2.57145,-5.74387,-7.88195,-5.24049,-0.92711,-0.59067,26.4,22.1,22.5,-21.162315,153.598038,-33.48167,0.1634808878953739,0.235506,0.92853701,-0.23586001
10.783,6921.783,-2.91383,-5.63373,-7.8197,-5.54226,-1.15618,-0.86494,22.7,19.5,23.1,-17.08622,154.069351,-30.123035,0.1766353228211136,0.218237,0.93924803,-0.197448
10.8032,6921.803,-3.36635,-5.42064,-7.57309,-5.92466,-0.82265,-1.09524,27.2,15.7,26.0,-12.844431,154.168762,-26.587797,0.1910953812252925,0.19839101,0.94837701,-0.157177
10.8188,6921.823,-3.85239,-5.06629,-7.07987,-6.11953,0.02523,-1.22474,22.7,14.3,23.6,-8.405197,154.49234,-22.895313,0.2016050182074331,0.17719901,0.95656502,-0.113751
10.837,6921.843,-4.24265,-4.51321,-6.52679,-6.11586,0.4675,-1.40312,26.2,11.3,31.7,-3.967962,155.335144,-19.12936,0.20487030026287295,0.154938,0.96399498,-0.068819
10.8572,6921.863,-4.45814,-3.75422,-5.91625,-6.03706,-0.00348,-1.66273,26.0,7.8,28.8,0.320955,155.880554,-15.400876,0.2074147472129693,0.131616,0.96902901,-0.025281
10.879,6921.883,-4.67362,-3.34241,-5.19558,-5.77866,-0.69131,-1.83988,26.7,4.3,32.3,4.288518,155.318222,-11.506486,0.21616766875414015,0.105816,0.97048998,0.014957
10.9007,6921.903,-5.17403,-3.07664,-4.73348,-5.51538,-0.04563,-1.65846,24.3,2.0,33.6,7.756491,153.90799,-7.550945,0.22906866253531835,0.079235,0.96884298,0.050918
10.9269,6921.923,-5.8947,-2.31048,-4.47729,-5.55142,0.41924,-1.39456,24.4,-0.4,29.8,11.016239,152.903992,-3.724079,0.2360891966228017,0.053917,0.966443,0.08569
10.956,6921.943,-6.53876,-1.49163,-4.17083,-5.57097,0.30562,-1.16854,23.8,-2.7,30.5,14.385533,151.882431,0.00109,0.24100651805861978,0.030406,0.96241301,0.12146
10.9722,6921.963,-6.61778,-0.91461,-4.11336,-5.44086,0.10648,-1.08424,23.8,-5.5,29.9,17.77186,150.139587,3.821721,0.24943383570065053,0.007943,0.95543897,0.157658
10.9809,6921.983,-6.77819,-0.30407,-3.929,-5.58685,1.18588,-1.07203,20.7,-7.5,29.0,21.010874,148.1978,7.865355,0.2567262099104802,-0.015018,0.946814,0.193415
11.009,6922.003,-7.1493,0.42139,-3.28973,-5.92955,2.57865,-0.91137,20.0,-9.6,29.4,24.457081,147.100998,12.473659,0.2530390382222868,-0.042204,0.93827701,0.232005
11.0184,6922.0229,-7.51802,1.10376,-1.98007,-5.78416,3.91339,-0.82646,18.4,-12.3,27.3,28.290611,147.020081,17.64806,0.23603908785571856,-0.074085,0.92943102,0.273779
11.0397,6922.0429,-8.39193,1.98007,-1.2977,-4.87153,4.71118,-0.66886,15.5,-14.4,27.9,31.937349,147.854416,22.795015,0.2086884364228641,-0.107898,0.92066401,0.31174499
11.0588,6922.0629,-9.23711,3.29452,-1.4653,-4.12078,4.10581,-0.20521,14.1,-17.3,26.7,35.094597,149.139694,27.489555,0.17736947269741646,-0.140457,0.91184002,0.34257799
11.0772,6922.0829,-9.89793,4.1828,-2.49244,-4.02792,3.7399,0.45697,12.0,-19.2,29.1,38.223728,149.718353,31.697027,0.1511076651639479,-0.16681799,0.90076399,0.37143299
11.097,6922.1029,-10.1206,4.35279,-4.05111,-4.65406,4.61222,1.24376,10.4,-21.7,24.6,42.00346,150.514816,35.391449,0.12098677275148594,-0.18753999,0.88783801,0.40241101
11.1209,6922.1229,-9.90512,4.58743,-4.54433,-5.81532,5.43811,1.41542,6.6,-24.1,25.1,46.932331,152.34819,39.065655,0.07731888524752306,-0.208125,0.87127298,0.437709
11.1444,6922.1429,-9.98413,4.78376,-3.21551,-5.90756,6.71176,1.36288,3.7,-26.9,22.0,52.835381,154.139374,43.807163,0.02421113439512575,-0.23325001,0.84699303,0.47708601
11.1655,6922.1629,-10.44862,5.3105,-2.37273,-5.38466,7.5853,1.70436,-0.2,-30.2,17.3,58.614052,157.410797,49.2495,0.044765877144315014,0.26915699,-0.817298,-0.50751799
11.1816,6922.1829,-9.98173,5.63612,-1.73345,-4.94178,8.11675,2.08981,-3.6,-31.6,12.6,64.163948,161.987915,53.8284,0.11920345122411012,0.30466601,-0.78383303,-0.52780199
11.2007,6922.2029,-8.25546,6.34962,-1.14207,-4.36634,7.60851,1.909,-5.8,-33.4,9.3,69.478226,167.945435,57.354828,0.19624783394152134,0.33966801,-0.74567997,-0.53858501
11.2181,6922.2229,-6.38553,7.51802,-0.76377,-3.48914,6.24201,1.07822,-9.7,-34.9,5.3,74.061699,172.654999,61.354832,0.26266602338913053,0.37328899,-0.70485801,-0.54298902
11.2567,6922.2429,-5.80372,8.37757,-1.69515,-2.99556,6.40572,1.00064,-9.6,-35.4,4.3,77.675217,174.001831,67.470001,0.3139054464628793,0.40470099,-0.66509902,-0.543437
11.265,6922.2629,-6.17005,8.39672,-3.68,-3.61681,9.26518,1.55103,-11.4,-34.9,-0.1,81.017036,177.219635,72.785538,0.37043830724075855,0.43828699,-0.62119198,-0.53366703
11.3012,6922.2829,-5.92104,7.49887,-4.45575,-5.07373,11.63839,1.87906,-11.2,-34.5,-4.8,85.22242,-167.71933,69.551231,0.44860807984052165,0.476843,-0.55972701,-0.50801301
11.3142,6922.3029,-3.56747,6.43342,-2.35836,-5.79516,12.57424,1.33539,-9.8,-33.1,-12.6,87.861183,-55.568951,-28.456875,0.5380846597003112,0.51245701,-0.47628799,-0.47010899
11.3228,6922.3229,-1.64726,6.4406,1.18277,-4.6449,11.85891,-0.29378,-5.5,-32.1,-15.8,82.857155,-1.087345,-67.910339,0.6183834976012538,0.544855,-0.37547201,-0.423976
11.35,6922.3429,-1.72867,7.45577,2.54511,-2.40669,9.66591,-1.20764,1.2,-31.8,-18.5,78.635834,20.125694,-75.501961,0.6700701265431402,0.576047,-0.27508,-0.37882301
11.3599,6922.3629,-3.13411,7.61619,0.46928,-1.66326,8.78137,-1.46481,4.9,-31.5,-17.6,75.862419,36.463913,-80.307877,0.6966050827912326,0.60537899,-0.187886,-0.33609
11.3772,6922.3829,-4.78137,7.23071,-0.5866,-2.65409,8.08071,-0.97185,4.5,-28.5,-21.1,73.118286,48.234226,-81.437363,0.7144255700295721,0.62615597,-0.105899,-0.29378599
11.3995,6922.4029,-6.19638,6.85481,1.16362,-2.91004,7.10394,-0.25408,13.0,-28.3,-16.6,70.24501,53.850208,-77.264427,0.732324747257185,0.63194299,-0.030925,-0.25177801
11.4184,6922.4228,-6.79974,6.99847,4.3073,-1.55087,4.4876,0.55043,11.2,-25.2,-21.0,68.140625,56.710693,-71.30619,0.7474107955287773,0.62990201,0.032318,-0.208701
11.4432,6922.4428,-6.07906,7.30972,5.05192,0.60243,1.61165,1.10204,15.9,-27.5,-17.0,67.665825,58.646538,-68.323723,0.7523832945045491,0.63011003,0.064027,-0.18105599
11.4568,6922.4628,-4.31688,7.72633,3.55071,1.19864,0.23537,1.22666,16.4,-28.2,-15.5,68.592819,60.902893,-68.57505,0.7492909480409328,0.63720399,0.072286,-0.165254
11.4817,6922.4828,-2.55469,8.38475,1.59698,0.74721,0.6477,0.78623,15.4,-29.7,-17.1,69.627968,62.469898,-69.296112,0.745821646491934,0.64363402,0.072697,-0.15556499
11.5158,6922.5028,-1.46769,8.91628,0.48364,-0.43298,1.82362,0.09778,14.9,-29.2,-16.9,70.029846,63.916348,-69.175949,0.7444610521207271,0.64686501,0.080523,-0.144428
11.5305,6922.5228,-1.58022,9.46696,0.40463,-0.84654,1.85233,-0.34815,14.4,-28.4,-16.6,69.538177,64.426926,-66.835068,0.7475312609946289,0.64388901,0.099781,-0.129026
11.5395,6922.5428,-2.30569,9.73752,0.73504,-1.03652,0.61288,-0.47888,16.1,-27.7,-17.9,68.682709,64.381027,-64.409058,0.7514268212510913,0.63838702,0.11777,-0.11811
11.5566,6922.5628,-3.22988,10.04159,1.26178,-0.92045,-0.89107,-0.44894,15.5,-27.8,-18.5,67.703362,62.618523,-61.872925,0.757415632739145,0.63008302,0.12550201,-0.116474
11.5783,6922.5828,-3.96731,10.2858,1.15404,-1.11715,-1.70962,-0.09831,14.5,-26.9,-19.2,66.897278,59.757923,-59.77272,0.7640838651020448,0.62148601,0.122244,-0.122423
11.6012,6922.6028,-3.95774,10.39594,1.47248,-1.74207,-2.37425,0.24439,11.7,-26.0,-21.4,66.215988,55.042446,-56.713024,0.7735955397695748,0.61011899,0.110539,-0.130713
11.6171,6922.6228,-3.44057,10.66889,2.44216,-1.97725,-2.99611,0.43437,10.8,-25.9,-23.6,65.342377,48.559105,-52.463814,0.7864117926115043,0.59438598,0.092986,-0.140055
11.6371,6922.6428,-2.54272,10.87719,2.88271,-1.72007,-4.02725,0.33052,9.7,-25.7,-23.1,64.368042,41.497334,-48.321682,0.7993536090043001,0.57718402,0.069697,-0.15177201
11.6616,6922.6628,-0.79011,10.65931,3.5148,-1.72007,-6.47254,-0.23453,8.7,-24.6,-24.4,63.304836,34.128185,-45.39307,0.8101710753088384,0.55919802,0.03688,-0.171931
11.6811,6922.6828,1.11334,10.44143,5.30092,-1.31507,-9.332,-1.08058,5.4,-23.9,-27.1,61.813477,25.365654,-44.288651,0.8178332867810407,0.53515399,-0.014406,-0.211072
11.698,6922.7028,2.93778,10.07511,6.6896,-0.45497,-10.40102,-1.8686,-2.0,-23.6,-28.5,60.544964,15.914602,-45.865978,0.8149108975403869,0.50638503,-0.084431,-0.26900899
11.7302,6922.7228,3.51958,9.17247,6.68721,-0.18497,-8.97709,-2.64684,-7.0,-23.6,-29.4,59.961658,8.075071,-49.916626,0.7981996934249723,0.47765601,-0.15504199,-0.332692
11.7409,6922.7428,2.44695,8.198,6.37356,-0.57043,-7.128,-2.35118,-10.5,-24.1,-31.8,59.500275,3.033578,-55.185844,0.7752630844759086,0.45027,-0.20939501,-0.390356
11.7568,6922.7628,1.78852,7.52999,5.90189,-0.94489,-5.81036,-1.49841,-13.4,-24.4,-28.5,58.715076,-1.089972,-59.111729,0.7558282233454899,0.422355,-0.24903201,-0.43396199
11.7779,6922.7828,2.0495,7.1086,5.97611,-0.96199,-5.38887,-1.66029,-15.6,-23.8,-26.3,57.682861,-5.019903,-61.887329,0.7397019985130362,0.39360899,-0.280705,-0.46810001
11.8004,6922.8028,2.42061,6.79974,7.19001,-0.62968,-6.66496,-2.28093,-18.0,-23.4,-25.4,56.844524,-8.277677,-65.482384,0.7192272395466262,0.364972,-0.31014299,-0.503308
11.8172,6922.8228,2.89468,6.74467,8.03758,0.26951,-6.847,-2.47152,-21.4,-24.9,-22.8,56.672081,-12.178241,-70.001076,0.688048303860259,0.33305499,-0.34719199,-0.54325098
11.8394,6922.8427,2.93538,6.69918,7.16128,0.82784,-5.68697,-2.57476,-21.6,-25.8,-17.9,57.490997,-15.756604,-74.436752,0.651736464144549,0.306669,-0.38384399,-0.57780403
11.8585,6922.8627,2.25301,6.76622,5.51641,0.43139,-4.70958,-2.46175,-22.9,-27.5,-15.8,58.669849,-17.995886,-78.956413,0.6158941417395197,0.286809,-0.41288701,-0.60658002
11.8773,6922.8827,1.13249,7.34324,4.89629,-0.12633,-3.85132,-1.47275,-23.3,-27.8,-15.8,59.299747,-19.191776,-83.435707,0.5847423340614218,0.267685,-0.43273401,-0.63179302
11.9021,6922.9027,2.03992,7.52999,6.16047,-0.16603,-4.53427,-1.1435,-23.9,-27.2,-15.2,59.214237,-21.042002,-86.148643,0.5628057281601706,0.246399,-0.44770399,-0.64969099
11.9253,6922.9227,4.29533,7.84125,6.68482,0.1901,-5.87817,-1.96328,-24.9,-29.1,-11.6,59.280666,-24.16987,-88.767738,0.5349635700366706,0.21833099,-0.46830201,-0.66846001
11.9444,6922.9427,3.95534,7.95139,4.62574,-0.06646,-3.38462,-2.60835,-24.0,-30.1,-9.5,60.061077,-26.585447,-92.95237,0.4967999607804735,0.191075,-0.490242,-0.69017601
11.9644,6922.9627,2.3009,7.86998,3.99126,-0.60402,0.00507,-2.0262,-19.2,-32.3,-3.6,60.658924,-24.604952,-98.245064,0.47054703651307744,0.18382899,-0.49340701,-0.70805502
11.9802,6922.9827,1.14207,7.84364,5.1453,-0.69993,0.05639,-1.21314,-19.3,-31.2,-7.5,60.433815,-20.810442,-102.660027,0.46008715995126276,0.18743899,-0.48399299,-0.72037297
12.0059,6923.0027,-0.24182,8.05674,6.16765,-0.22346,-0.79516,-0.72383,-21.8,-30.4,-6.9,59.99662,-18.709616,-105.309486,0.45375788710352954,0.187345,-0.47758701,-0.72864002
12.025,6923.0227,-1.70233,8.4039,6.54595,0.74538,-0.66688,-0.10258,-17.9,-31.6,-4.7,60.044098,-18.478041,-106.712265,0.44560490102374245,0.18320601,-0.47920901,-0.73364198
12.0422,6923.0427,-2.14048,8.61699,6.49327,1.35991,-0.46529,0.67932,-22.1,-30.9,-6.5,60.813782,-19.307222,-106.413612,0.44126407315091914,0.18302999,-0.48619899,-0.73170799
12.0617,6923.0627,-1.75021,8.84206,6.01442,1.47292,-0.46774,1.28713,-18.5,-31.4,-2.9,61.743652,-21.471378,-104.370781,0.4415196308276219,0.182781,-0.496297,-0.72480398
12.0806,6923.0827,-0.838,9.00726,5.30092,1.69344,0.31723,1.61517,-20.4,-31.7,-2.9,62.537148,-24.414831,-101.194229,0.44548868540341124,0.18237101,-0.50673002,-0.71519601
12.1069,6923.1027,-0.40703,8.94022,4.47729,1.85288,1.03805,1.80576,-20.1,-30.6,-2.4,63.395874,-27.273682,-97.036858,0.45487439383574746,0.18794701,-0.51542097,-0.70150298
12.1203,6923.1227,-0.55787,8.67685,3.81887,1.73192,1.9183,2.42334,-21.4,-30.6,-2.2,64.125244,-30.190855,-91.933708,0.46933499755385766,0.19757199,-0.52188301,-0.68434501
12.1381,6923.1427,-0.56744,8.22194,3.84521,1.56394,2.28055,3.17898,-23.5,-29.2,-2.2,64.227158,-33.445431,-85.462395,0.4920494567847619,0.20859399,-0.52448702,-0.66278899
12.1567,6923.1627,0.07662,7.63774,4.15886,1.7136,2.19625,3.92913,-25.2,-28.0,-3.0,63.608501,-37.604553,-77.659912,0.5202103579806532,0.21689899,-0.52619302,-0.63675499
12.1812,6923.1827,1.12291,6.97692,4.21632,2.07157,2.12478,4.53022,-25.1,-26.3,-3.3,62.367401,-42.969013,-68.538918,0.5510843965488952,0.22173101,-0.53023601,-0.604972
12.2035,6923.2027,1.41741,5.99766,3.95774,2.22123,2.22374,4.87597,-29.0,-24.5,-5.9,60.543976,-48.705708,-58.871593,0.5830687224357683,0.22494701,-0.53585303,-0.567707
12.2308,6923.2227,1.42459,4.36476,3.91464,2.19801,2.28482,5.71346,-31.1,-21.7,-3.1,57.939705,-53.81205,-49.466187,0.6168965851254802,0.22665299,-0.54030001,-0.52549303
12.2397,6923.2426,2.26259,2.44934,4.18998,2.28903,2.16387,6.68657,-33.2,-15.7,-5.2,54.030945,-58.221237,-40.401978,0.6541613722130036,0.22277801,-0.54379201,-0.476165
12.2695,6923.2626,3.06707,0.56505,4.2235,2.54865,1.75398,7.21864,-35.2,-10.4,-6.9,48.888378,-61.938454,-31.784685,0.6924420748805339,0.21297701,-0.54770797,-0.41854599
12.2887,6923.2826,3.95534,-1.34079,4.0583,2.84248,1.02827,7.75559,-37.0,-5.6,-8.5,42.767937,-65.178535,-23.719736,0.7274408772836449,0.197576,-0.55396497,-0.35343501
12.3073,6923.3026,5.0615,-3.261,3.81408,2.99092,0.42107,8.11966,-36.1,0.5,-7.1,35.676441,-68.777489,-15.751678,0.7544339187289626,0.176734,-0.56721997,-0.27902699
12.3333,6923.3226,6.16526,-5.00164,3.44297,3.17051,0.26958,8.1893,-35.1,6.3,-8.4,27.775894,-71.85994,-8.504298,0.7734568555120573,0.151584,-0.58248502,-0.198741
12.3387,6923.3426,7.18522,-6.04554,2.8037,3.30918,0.39725,8.23817,-34.0,11.4,-10.3,18.911777,-73.335976,-2.002615,0.7893751535483745,0.121463,-0.59127599,-0.111921
12.3597,6923.3627,8.84924,-6.49806,2.2602,3.03551,0.63854,8.22779,-30.7,15.9,-13.4,9.54279,-73.660187,4.24646,0.7989424593728887,0.088665,-0.59448999,-0.020276
12.3873,6923.3827,11.14535,-6.1892,1.78134,3.08194,0.89205,7.72504,-26.9,20.6,-11.5,0.365013,-73.017197,10.248741,0.8007201595151949,0.055689,-0.59233397,0.069903
12.4037,6923.4027,12.66811,-5.94498,0.57223,3.01963,1.30927,6.80813,-23.3,23.2,-14.6,-7.661352,-71.438576,16.214699,0.7964761818529792,0.028452,-0.58433801,0.15285701
12.4366,6923.4227,13.25949,-6.29215,-0.62969,2.17236,1.36486,5.79532,-18.6,25.9,-16.1,-14.233303,-69.070221,21.86194,0.7892828908917255,0.006467,-0.57169002,0.223967
12.4407,6923.4428,13.00091,-6.41905,-1.07742,1.13877,1.13762,4.44836,-15.7,26.5,-18.9,-19.607395,-66.850571,26.238348,0.7796624288035046,-0.015197,-0.56089401,0.27801701
12.4572,6923.4628,12.50051,-6.51482,-0.77096,0.35931,1.21214,3.42638,-12.2,27.6,-18.9,-23.726545,-65.193497,29.103838,0.7702124818527026,-0.035172,-0.55382001,0.31435499
12.4773,6923.4828,12.17489,-6.67524,0.65843,-0.01882,0.97207,2.72389,-8.0,29.6,-17.9,-27.091053,-63.965843,30.754549,0.7621948541917868,-0.055006,-0.54917997,0.33828199
12.5053,6923.5029,12.32094,-6.76622,1.87951,0.16933,0.68191,2.02445,-6.9,28.6,-21.3,-29.72644,-63.253239,31.863468,0.7544596928245138,-0.070904,-0.54732198,0.35524899
12.519,6923.5229,13.17569,-6.75664,2.6337,0.4485,0.32395,1.18329,-5.5,29.0,-20.1,-31.420517,-62.786556,32.945847,0.7479986901090268,-0.079455,-0.54640901,0.368269
12.5518,6923.5429,14.40156,-6.48609,2.92102,0.66108,-0.21117,-0.04028,-6.1,28.5,-20.4,-31.981911,-62.690746,33.866642,0.7436653090059258,-0.079428,-0.54691303,0.37621701
12.5675,6923.5629,15.47659,-6.20835,2.69356,0.85289,-0.4378,-1.28461,-1.9,27.3,-18.1,-31.213829,-62.82378,34.556648,0.7432361576149128,-0.070153,-0.54751498,0.37802899
12.5876,6923.583,16.25234,-6.21075,2.17161,0.82296,-0.49034,-2.65783,-3.3,27.1,-20.3,-29.040977,-63.320915,34.66539,0.7473618853805029,-0.052342,-0.54862499,0.371108
12.6022,6923.603,16.56599,-6.76383,1.64247,0.41734,-0.76645,-4.00296,-10.1,26.7,-20.1,-25.59737,-64.324394,33.940643,0.7551467652718243,-0.027855,-0.55122501,0.353735
12.6231,6923.623,16.38402,-7.29536,1.59459,-0.11778,-1.24353,-5.40123,-10.8,23.8,-18.4,-20.926348,-66.087654,32.117596,0.7647561000006994,0.00204,-0.55739999,0.32318601
12.6379,6923.6431,16.18051,-7.44619,2.15485,-0.54844,-2.2087,-6.56737,-12.4,23.0,-19.6,-14.995502,-68.65802,29.341478,0.7734212666555523,0.037361,-0.56818497,0.27854899
12.6587,6923.6631,15.88122,-7.58267,3.20115,-0.58448,-2.95579,-7.48672,-20.7,22.2,-17.8,-7.865946,-72.115875,26.146013,0.776483617888491,0.078812,-0.58454001,0.221754
12.6879,6923.6831,15.32096,-7.57788,3.64648,-0.42932,-2.9674,-8.08965,-19.8,17.0,-18.1,0.382295,-75.783867,23.260925,0.773376115064074,0.126395,-0.60102999,0.157088
12.7055,6923.7031,14.53325,-7.28578,3.33283,-0.31508,-2.16289,-8.38286,-24.2,12.9,-14.0,9.433479,-78.777229,20.987429,0.7668634271987675,0.177672,-0.61027598,0.088974
12.7196,6923.7232,13.33372,-7.14452,2.37991,-0.6364,-1.12381,-8.26008,-28.0,5.8,-12.6,18.783142,-80.420731,18.964947,0.7605037048076754,0.22784901,-0.60770899,0.020217
12.742,6923.7432,11.78941,-7.12057,2.0064,-1.37555,-0.83303,-8.15318,-31.8,-2.5,-11.5,27.925182,-80.47477,16.395733,0.7554742001365761,0.271698,-0.59420002,-0.048634
12.7647,6923.7632,10.30975,-6.30891,2.38949,-1.79888,-0.9265,-8.13058,-31.5,-8.8,-10.5,36.796329,-79.313431,12.506151,0.7481229091404829,0.307502,-0.57549697,-0.120656
12.8125,6923.7833,9.35443,-4.89629,3.07904,-1.91433,-2.08958,-8.45311,-31.4,-13.3,-10.4,45.246799,-77.121063,7.29589,0.7355750386645943,0.33679399,-0.55507302,-0.19337299
12.8155,6923.8033,8.42785,-4.12055,3.10777,-2.14829,-3.70654,-9.03221,-28.8,-20.0,-9.3,51.647717,-74.81086,0.443622,0.7160491182138411,0.34814101,-0.54544598,-0.26183999
12.8264,6923.8233,7.10621,-3.60578,2.27696,-3.51052,-5.58618,-9.17454,-29.1,-23.7,-6.7,57.752728,-71.625595,-9.326057,0.6847813798992783,0.34866601,-0.54252601,-0.33937001
12.8379,6923.8433,4.98009,-2.11654,1.74064,-4.64917,-5.9246,-8.2558,-26.2,-27.2,-6.0,62.491081,-64.7164,-24.831387,0.6456144744097205,0.32953301,-0.541085,-0.42640001
12.8596,6923.8634,2.35597,-0.09338,2.70553,-4.86481,-5.5147,-6.59119,-24.1,-29.7,-7.5,64.232391,-54.139679,-44.44091,0.6066825073254204,0.29247999,-0.53583997,-0.50918299
12.8777,6923.8834,0.71589,1.2977,3.83084,-3.89903,-5.40597,-4.75493,-22.5,-30.2,-5.9,62.986832,-44.867729,-62.127983,0.5722700888900971,0.245711,-0.52789599,-0.57745898
12.9048,6923.9034,1.3384,2.3847,4.70475,-3.35964,-6.15978,-3.85696,-20.8,-31.2,-5.8,60.745762,-40.321148,-75.093895,0.535926028630351,0.195116,-0.525011,-0.63172501
12.9432,6923.9235,1.91063,3.9745,5.79175,-2.9864,-6.33388,-4.08604,-20.0,-32.0,-4.9,59.845642,-37.572834,-86.849022,0.48550402434917,0.15113001,-0.52734399,-0.68070102
12.9533,6923.9435,1.71191,5.96414,6.53876,-2.02673,-4.47807,-4.05855,-18.7,-32.9,-5.4,59.197742,-34.864353,-98.153427,0.43160434286915966,0.111866,-0.52669299,-0.72373903
12.9595,6923.9635,0.249,7.36479,6.73031,-0.6474,-3.12378,-3.27236,-16.8,-33.8,-4.2,58.700615,-31.462347,-107.666771,0.38783484892992687,0.087635,-0.52034003,-0.75574499
12.9855,6923.9835,-2.27456,8.50446,6.4406,0.23775,-2.27284,-1.59737,-16.0,-34.3,-4.4,58.971962,-28.979116,-114.383163,0.35314141801589843,0.075157,-0.51854801,-0.77508098
12.9995,6924.0035,-3.45733,9.14134,5.55711,0.57433,-1.84951,0.05258,-15.2,-34.1,-2.3,59.346436,-28.677717,-117.387192,0.3326576842592696,0.065373,-0.521608,-0.78293699
13.0207,6924.0235,-2.61934,9.18923,5.07826,0.7521,-1.49032,0.39955,-15.6,-34.3,-4.1,59.599377,-29.879383,-117.946808,0.3223705740152461,0.055791,-0.52678198,-0.78451598
13.0435,6924.0436,-1.13249,8.73192,4.9753,0.85045,-2.41456,-0.34326,-16.5,-34.7,-1.2,60.202133,-31.055084,-118.279213,0.3123251299621582,0.049057,-0.53360701,-0.78441697
13.0617,6924.0636,-0.76138,8.18363,4.82446,1.0276,-3.47808,-1.39762,-15.5,-34.5,0.6,61.502937,-32.119606,-120.14402,0.28943945133820276,0.039104,-0.54445201,-0.7863
13.0798,6924.0836,-0.99841,7.99209,5.1429,1.32692,-3.97777,-2.3017,-14.9,-34.7,1.5,63.600319,-32.473064,-123.94767,0.25335415415962553,0.027962,-0.55826902,-0.78953499
13.1046,6924.1036,-0.19394,7.87238,5.80851,2.06668,-4.73891,-2.93944,-12.5,-34.9,3.0,66.486023,-31.88061,-129.325043,0.20808460444655505,0.01798,-0.57470298,-0.79126102
13.1226,6924.1237,0.92419,7.60422,5.90907,2.96648,-5.96736,-4.00723,-11.3,-35.6,5.3,70.366875,-30.967581,-136.04715,0.1521132700273708,0.00546,-0.596591,-0.78797901
13.139,6924.1437,1.0439,7.30493,5.32008,3.46006,-6.3913,-5.28761,-7.3,-35.6,7.0,75.35936,-26.995562,-147.026031,0.08160563193505668,-0.008455,-0.622352,-0.77842599
13.1608,6924.1637,-0.7111,6.95058,5.55951,3.70807,-6.00767,-5.92657,-2.4,-34.9,9.0,80.334717,-10.108896,-171.295578,0.0013899154792231176,-0.018372,-0.64577198,-0.76330799
13.1788,6924.1838,-3.11974,6.50046,5.34881,4.66896,-5.49638,-5.52768,6.1,-34.4,15.9,82.564674,32.808857,138.94223,0.07830369981654697,0.023197,0.66714799,0.740435
13.2064,6924.2038,-5.02798,6.20357,4.38392,5.14544,-4.54954,-4.74088,11.3,-31.8,18.5,79.933693,73.958755,91.174034,0.15246585472872043,0.029792,0.68917602,0.70774502
13.2266,6924.2238,-4.9753,5.67683,3.88591,4.60055,-4.17874,-4.46844,11.8,-25.4,17.5,74.993454,91.364807,67.948097,0.21628721618185992,0.035458,0.70839697,0.67092198
13.2392,6924.2438,-4.69038,4.96812,3.19157,4.8113,-3.90813,-5.12695,19.2,-23.8,20.3,69.20343,97.032242,56.830635,0.2771134026182761,0.03741,0.72134203,0.63362002
13.2634,6924.2639,-5.26022,4.05111,1.85556,5.42766,-2.88615,-5.90886,20.0,-17.1,18.6,62.201763,100.008476,48.468323,0.3394139835416914,0.033487,0.73444098,0.586748
13.286,6924.2839,-6.45497,3.24185,1.44614,5.74287,-2.439,-5.65963,27.4,-12.9,22.5,54.407963,102.205383,41.540394,0.39600076056005096,0.022943,0.74899697,0.53071702
13.3043,6924.3039,-7.6521,2.28893,1.60895,6.06968,-2.09203,-4.79953,29.6,-7.7,21.4,46.876987,103.56868,35.140194,0.4467597169254182,0.016979,0.76151001,0.46927601
13.328,6924.3239,-7.6952,0.95292,1.35277,6.50095,-1.02973,-4.52891,31.3,-2.7,22.1,39.861546,104.994934,28.841078,0.48695305262694427,0.015256,0.77399498,0.40444499
13.3559,6924.344,-6.941,-0.20112,0.19872,6.52416,-1.06944,-4.8936,31.7,2.7,20.3,32.571064,106.537659,22.74505,0.5184764430383694,0.012723,0.78725898,0.33353201
13.3652,6924.364,-5.48289,-1.84599,-1.1301,5.58038,-1.42557,-5.38351,30.8,9.1,19.9,24.792042,106.768883,17.538851,0.5494592101903651,0.007021,0.79429901,0.259103
13.3825,6924.384,-3.98168,-3.93619,-1.89866,4.73005,-0.4714,-6.35357,30.6,14.1,17.7,16.523066,105.866875,13.758462,0.578460127095308,-0.008597,0.79434401,0.185277
13.4039,6924.4041,-3.15326,-6.2323,-1.91063,4.4967,0.72101,-7.04995,27.6,19.5,15.2,7.484603,105.957558,10.927647,0.5931353718250827,-0.03674,0.79683203,0.109084
13.419,6924.4241,-3.8069,-8.18363,-1.90824,4.60666,0.6477,-7.21428,23.1,25.3,14.4,-2.238843,106.788849,8.429832,0.5957297217932302,-0.070608,0.79957902,0.028178
13.438,6924.4441,-6.15807,-9.22035,-2.48047,4.83084,1.25307,-6.87525,18.3,30.4,10.5,-12.79671,107.086494,5.833072,0.5943103031329677,-0.106803,0.794891,-0.05947
13.4655,6924.4641,-8.79657,-9.05036,-2.9282,5.09474,2.16448,-5.84044,14.5,33.6,7.6,-22.805311,107.781403,2.678005,0.5812701754634927,-0.134986,0.78900898,-0.14618
13.4837,6924.4842,-10.30975,-8.33926,-3.8907,4.7832,2.542,-4.03533,10.0,35.3,4.4,-31.16605,108.482841,-1.28356,0.5604142510771111,-0.14821699,0.78336698,-0.22428501
13.5034,6924.5042,-9.01444,-8.29377,-4.76221,3.895,3.52854,-2.82582,7.1,36.0,2.1,-37.00967,109.168594,-5.58628,0.5362850990060416,-0.146047,0.78087699,-0.28513101
13.5198,6924.5242,-5.45895,-8.37996,-4.65208,2.87608,2.90668,-2.9315,4.0,36.6,-2.3,-41.438419,111.006859,-9.109434,0.5049006780512376,-0.138523,0.78433502,-0.332724
13.5389,6924.5443,-2.72947,-8.58587,-4.98967,2.50528,1.24635,-3.82581,1.7,37.0,-3.0,-45.924229,112.273506,-11.217459,0.4789438625264541,-0.141615,0.78215897,-0.37253901
13.558,6924.5643,-2.07584,-9.3664,-6.02639,2.10272,2.42166,-4.43606,-1.2,36.6,-5.6,-51.222176,113.35186,-12.082582,0.4546329111601358,-0.15685301,0.774288,-0.41132
13.5802,6924.5843,-2.64807,-10.01286,-6.27539,1.25667,4.41063,-4.20699,-3.8,35.9,-6.3,-56.654812,117.779877,-11.106318,0.4133628992447422,-0.17109001,0.77383697,-0.44837001
13.6039,6924.6043,-2.48047,-10.90832,-6.11258,0.19743,5.22492,-3.43913,-5.6,35.8,-7.2,-60.95182,126.351959,-7.582406,0.35813101362827954,-0.17750899,0.78255397,-0.477328
13.6183,6924.6243,-1.02236,-11.70322,-5.48768,-0.40916,5.16811,-3.21555,-7.3,35.6,-7.6,-63.510937,137.768372,-1.617181,0.2993675393000714,-0.178387,0.79580301,-0.49523199
13.6497,6924.6443,-0.23943,-11.44224,-5.45655,0.02517,4.51509,-4.03472,-9.2,33.4,-10.4,-65.333572,150.763306,6.511742,0.2417805607939554,-0.182266,0.80552,-0.50937098
13.6651,6924.6643,-0.24661,-11.00648,-6.39511,0.37458,4.70874,-4.36215,-10.0,34.3,-11.4,-67.119888,165.815964,17.268698,0.1840787683251927,-0.191624,0.80731201,-0.52691799
13.68,6924.6843,-0.05028,-11.34168,-7.50845,-0.08418,5.91947,-4.22654,-12.1,33.0,-12.0,-67.724709,-177.398209,29.414886,0.1231996592784218,-0.19853,0.80617398,-0.54359102
13.7096,6924.7043,0.81166,-12.33291,-7.47253,-0.93084,6.88586,-4.38903,-14.6,30.7,-15.2,-66.27877,-160.347473,40.240467,0.05113576701682489,-0.196211,0.80679899,-0.55494303
13.7184,6924.7243,1.85556,-13.28583,-6.5651,-1.38715,5.32449,-4.66269,-15.7,29.7,-13.7,-62.815521,-145.994858,48.064461,0.024999384005602525,0.193213,-0.80748498,0.55678701
13.7422,6924.7443,2.90904,-13.57793,-6.11258,-0.80256,3.52366,-4.88444,-15.5,28.9,-14.6,-58.54266,-136.26622,53.428818,0.08623486179034477,0.20126,-0.805004,0.551386
13.7668,6924.7643,3.15326,-13.13978,-6.68721,-0.37861,3.61345,-4.97973,-17.9,26.8,-18.2,-54.222397,-128.329407,58.518543,0.1379432241708139,0.218318,-0.79600698,0.54743201
13.7822,6924.7843,3.59381,-12.66571,-7.38155,-1.1819,3.60002,-4.63154,-19.4,25.5,-18.9,-49.586922,-121.208366,62.514923,0.19133884757418992,0.23445299,-0.78293598,0.54353702
13.8077,6924.8043,4.91784,-12.28024,-6.93382,-2.19899,3.25854,-4.60161,-16.4,23.4,-15.6,-44.36972,-116.304115,63.844727,0.24510811717015799,0.246801,-0.77296501,0.53060001
13.8207,6924.8243,6.54116,-11.56674,-6.01202,-2.26191,2.23962,-4.76776,-18.0,24.3,-18.3,-38.596436,-113.123856,63.538517,0.29695470121255757,0.25984401,-0.76547199,0.50828302
13.844,6924.8443,8.07349,-10.1613,-6.0647,-2.1544,1.79919,-4.71095,-23.3,21.9,-18.1,-32.872368,-111.218658,63.008194,0.33988726452304696,0.27733701,-0.75833499,0.482171
13.8591,6924.8643,9.15571,-9.14613,-6.22751,-2.447,2.00199,-4.77204,-20.3,19.9,-17.0,-27.432112,-109.716698,62.312122,0.37821498640577295,0.294211,-0.75043797,0.45523199
13.8812,6924.8843,9.98173,-8.76544,-5.67443,-3.07986,1.56828,-4.7024,-26.5,19.4,-17.2,-21.991682,-108.399757,60.992332,0.41627790037288775,0.30790401,-0.74265301,0.424705
13.9032,6924.9042,10.72875,-8.62897,-4.52757,-3.3181,1.28239,-5.20392,-24.7,15.8,-15.5,-16.405745,-107.728218,59.031345,0.4511522257365908,0.320595,-0.73706901,0.38782701
13.9273,6924.9242,10.87719,-7.96336,-3.60099,-2.97357,1.03744,-5.78546,-26.0,14.5,-13.9,-10.267105,-107.064255,57.248013,0.4851650907561872,0.33702701,-0.72855002,0.34676
13.9469,6924.9442,10.41749,-7.34085,-3.36635,-2.61316,1.20359,-5.94979,-27.9,11.2,-13.1,-4.033443,-106.358826,56.051624,0.5154696523277194,0.357288,-0.71611601,0.30629101
13.9594,6924.9642,9.73991,-6.7351,-2.52357,-3.09025,1.15106,-5.67551,-29.1,8.1,-11.1,1.696741,-105.247528,55.098366,0.5435989393009885,0.37547001,-0.70032799,0.270302
13.9829,6924.9842,9.39753,-5.50444,-0.78053,-3.72249,-0.35595,-5.25462,-32.5,5.2,-13.7,7.094193,-104.390793,53.250912,0.5688258945288087,0.38731501,-0.68796998,0.230481
14.0075,6925.0042,9.95779,-4.64489,0.29689,-3.71333,-1.45551,-5.32915,-33.9,2.2,-11.0,12.073867,-104.89093,50.829128,0.5832601483043561,0.39624301,-0.68457198,0.184825
14.0249,6925.0242,10.60903,-3.82605,1.22587,-2.31567,-0.22889,-7.04446,-36.1,-2.3,-10.4,17.581011,-105.386215,49.064602,0.5953653182480813,0.410638,-0.67663997,0.13811199
14.0448,6925.0442,9.85723,-2.32005,1.0056,-1.01025,-0.57097,-7.56614,-37.4,-6.6,-11.8,24.124041,-105.382965,49.326763,0.6080116878658828,0.439679,-0.65401298,0.096287
14.0674,6925.0642,7.74787,-0.91701,-0.62491,-0.96199,-0.25332,-6.91007,-35.8,-13.9,-9.5,30.529348,-106.130142,50.836987,0.6139181804700851,0.473876,-0.62856501,0.058754
14.0877,6925.0842,5.77978,0.35196,-1.90105,-2.04994,0.27874,-5.23507,-34.2,-17.4,-12.8,35.918781,-106.094704,51.854076,0.6220423724185353,0.49908301,-0.60263699,0.028427
14.108,6925.1042,5.14769,1.36713,-1.97049,-3.38224,0.35876,-3.84902,-32.8,-19.7,-11.8,39.825932,-104.293846,50.543991,0.6365404099723431,0.50593102,-0.58209997,0.00312
14.1211,6925.1242,5.09981,2.31526,-0.84997,-3.83061,0.61288,-3.33345,-32.6,-21.0,-15.4,42.785805,-100.946907,46.872486,0.6556010010203613,0.49863899,-0.56660599,-0.022453
14.1441,6925.1442,5.16445,3.58423,0.62251,-3.13423,1.17794,-3.30169,-31.3,-21.7,-14.8,45.323311,-96.641136,42.440403,0.676175452841124,0.48829499,-0.54974997,-0.046149
14.1611,6925.1642,5.26022,5.0591,1.31446,-1.88867,1.79796,-3.54114,-29.1,-22.3,-17.2,47.843735,-92.046371,38.819427,0.6956181044875126,0.48416001,-0.526851,-0.064285
14.1802,6925.1842,5.39191,6.00484,0.50759,-1.38532,1.86638,-3.96264,-26.7,-23.8,-18.0,50.765526,-87.803474,36.483894,0.7113040585216002,0.48945099,-0.49831399,-0.078533
14.2034,6925.2042,5.23867,6.17962,-0.419,-1.72252,1.87554,-4.55213,-24.3,-25.5,-18.9,54.358738,-83.265137,33.947685,0.724517857242801,0.49906501,-0.465581,-0.096137
14.2215,6925.2242,4.29293,5.78457,-1.0056,-2.25458,1.83523,-4.76715,-21.9,-26.2,-21.3,58.395424,-77.332985,29.695404,0.7369323990369124,0.50793397,-0.42958701,-0.119953
14.2603,6925.2442,2.48047,5.5188,-1.43896,-3.0035,1.78208,-4.46111,-19.4,-26.0,-22.7,62.061249,-69.164185,22.886353,0.7495150154007321,0.51247102,-0.39249,-0.146807
14.2621,6925.2642,0.56984,5.23867,-1.66163,-3.69439,2.12172,-3.77633,-15.2,-25.3,-23.3,64.458069,-58.326584,13.152701,0.7635910966683017,0.50984699,-0.35617101,-0.17357101
14.2776,6925.2841,-0.98884,4.93939,-1.54191,-4.2008,2.53955,-2.94677,-13.7,-24.8,-29.3,65.099564,-45.765785,2.131752,0.7803439907624712,0.50170201,-0.31849301,-0.194732
14.3043,6925.3041,-1.72867,4.17322,-0.75659,-4.75485,2.55177,-2.34324,-12.3,-21.9,-30.3,63.678146,-32.540279,-9.004947,0.8013903106650092,0.48616201,-0.277031,-0.211362
14.3202,6925.3241,-2.43019,3.30889,0.27534,-5.12809,2.08018,-1.96817,-9.5,-19.0,-33.0,59.944767,-20.860073,-18.647375,0.826044065119652,0.45943001,-0.234354,-0.227274
14.3388,6925.3441,-3.22748,2.77736,1.18756,-5.34128,2.13089,-1.55461,-6.9,-14.3,-36.2,54.85371,-12.652915,-25.137192,0.8500075930967558,0.42555699,-0.195088,-0.241514
14.3604,6925.3641,-3.75183,2.25541,2.64089,-5.50988,1.8114,-1.10379,-6.2,-8.2,-35.5,49.076405,-6.761664,-28.967854,0.8731140796835771,0.38798401,-0.15563101,-0.250837
14.3778,6925.3841,-4.06069,1.69754,4.65208,-5.55875,0.7656,-0.98895,-6.6,-4.3,-36.5,42.831356,-3.184436,-31.101532,0.8938101842063559,0.344695,-0.122772,-0.25926
14.403,6925.4041,-3.11735,0.7925,7.50126,-4.78845,-0.45796,-1.11967,-1.5,-1.5,-34.1,36.740067,-1.477202,-32.50811,0.9098948772716219,0.29910699,-0.099948,-0.269512
