AppTimestamp(s),SensorTimestamp(s),acc_x,acc_y,acc_z,gyro_x,gyro_y,gyro_z,mag_x,mag_y,mag_z,yaw_deg_ori,yaw_deg_ori_cal,yaw_deg,yaw_error,Quat_w,Quat_x,Quat_y,Quat_z,q_w,q_x,q_y,q_z,quat_angle_error_deg
0.0437,6911.0146,0.36217333840259336,0.6552755015873373,0.3137379921008119,-0.12560843731286944,0.11464695123389372,-0.11937966156544486,1.8628781841831188,23.453691999539004,-32.3364969154573,-71.584839,-64.12851888428212,0.0,71.584839,0.780222505167622,0.27879801,-0.138845,-0.542445,1.0,0.0,0.0,0.0,77.43809543722519
0.0452,6911.0346,0.5848862654557943,1.0730149544914582,0.7843241123702747,-0.18031913456141951,0.05906408547345666,-0.20146606777177553,1.716858182333313,23.301711368023014,-32.35975660219177,-71.577835,-64.23176726510998,0.0,71.577835,0.7804233218220096,0.27732,-0.13876501,-0.542934,1.0,0.0,0.0,0.0,77.40129859121252
0.0505,6911.0546,0.7411458335877867,1.5286521978825107,1.2581922898070363,-0.2173823009095093,-0.0005649685210271094,-0.2591034432686403,1.6520113331418305,23.13501548464307,-32.37858764084549,-71.631325,-64.40634750058645,0.0,71.631325,0.7801194909138728,0.27598599,-0.139614,-0.543832,1.0,0.0,0.0,0.0,77.45696564129678
0.0786,6911.0746,0.750255849491416,2.0313031880912416,1.7411514977998284,-0.2216530769304479,-0.0695204513537277,-0.2703045228140567,1.7603822430870473,22.970807455854754,-32.373996424381176,-71.796425,-64.67428661829031,0.0,71.796425,0.7787967911222154,0.27549899,-0.14226399,-0.545286,1.0,0.0,0.0,0.0,77.6989152727306
0.1134,6911.0946,0.6139997256342973,2.590550549719526,2.2183358677256937,-0.18538648087804455,-0.15668676344068827,-0.21756420919947697,1.8613212690647813,22.78721392882205,-32.37887070364855,-71.955627,-64.97886909437645,0.0,71.955627,0.7774911543764333,0.274551,-0.14508399,-0.54688197,1.0,0.0,0.0,0.0,77.93712327874587
0.1137,6911.1146,0.3291695176077942,3.1228997240337266,2.6731352983204992,-0.11099676970361383,-0.2650627243577347,-0.0987907271055827,1.912494920151044,22.779583211919558,-32.274832803330256,-72.205795,-65.17361132977872,0.0,72.205795,0.7760295283976242,0.27555799,-0.146203,-0.54815203,1.0,0.0,0.0,0.0,78.20306674382796
0.1379,6911.1346,-0.11113229143310654,3.667160591481991,3.0449522448058985,-0.01852847119955032,-0.3856600853227079,0.06886548698176001,2.1320457064948446,22.778798017209237,-32.18385840495743,-72.436958,-65.32701496370927,0.0,72.436958,0.774047129754306,0.27761701,-0.14921699,-0.54910302,1.0,0.0,0.0,0.0,78.56255645858036
0.1516,6911.1546,-0.6938614446096132,4.079104279744584,3.3242300233413182,0.06028265292751962,-0.5002421491227504,0.2448934346751232,2.2701352986729777,23.080827336241228,-31.916147196497047,-72.395401,-64.7616525730898,0.0,72.395401,0.7732373652448772,0.284724,-0.15023901,-0.54631901,1.0,0.0,0.0,0.0,78.70900357650953
0.1688,6911.1746,-1.3413606663974624,4.329793789418289,3.4995895000435286,0.09745815656975501,-0.5931141949059864,0.3941290456749409,2.1654333859970727,23.586084721563754,-31.542380455178964,-72.036484,-63.57661989360679,0.0,72.036484,0.7742597225232755,0.29441699,-0.148268,-0.54023802,1.0,0.0,0.0,0.0,78.52407081199631
0.2034,6911.1946,-2.0001578027201816,4.271464929315034,3.6140227443975768,0.10390207435139862,-0.6556470739090189,0.5202713120909102,1.769210295334382,24.40333263394387,-30.95456285013765,-71.800934,-62.08829271490164,0.0,71.800934,0.7756959387241109,0.307105,-0.14124,-0.53294802,1.0,0.0,0.0,0.0,78.26365710231669
0.2085,6911.2146,-2.7288590146142253,4.05839163735328,3.5865666149344477,0.1407327524445396,-0.6653858651568594,0.7073275221362467,1.5680237488301003,24.947662607633895,-30.557488852782804,-71.482437,-60.83359014622419,0.0,71.482437,0.776650569732064,0.31711501,-0.13815799,-0.52646399,1.0,0.0,0.0,0.0,78.090160992382
0.2659,6911.2346,-3.5722726389339288,3.737097115735053,3.3564749751658915,0.29597617822441297,-0.6076089339291992,1.0645141008913201,1.8139939231068691,24.978673836223827,-30.545094036593323,-70.898575,-59.90618897473817,0.0,70.898575,0.7770497478206141,0.32270399,-0.143015,-0.521155,1.0,0.0,0.0,0.0,78.0175176749643
0.2741,6911.2546,-4.42261793805098,3.238612989043319,2.935276997344989,0.6101823314393482,-0.5147836734927076,1.641346050599998,2.2758075837452143,24.604513504397453,-30.812502513399362,-70.242355,-59.327784957538256,0.0,70.242355,0.7771760357070844,0.32468301,-0.151079,-0.51744902,1.0,0.0,0.0,0.0,77.99452368467361
0.2768,6911.2746,-4.962430050088222,2.0699503217653725,2.4928117158767744,1.0853625876866717,-0.4951108589020571,2.3401896050590185,1.3717201055071246,24.81165539457053,-30.628397672278382,-69.621056,-57.735600441228506,0.0,69.621056,0.7821481800725739,0.332385,-0.13789199,-0.50867498,1.0,0.0,0.0,0.0,77.08463255179052
0.2883,6911.2946,-5.228805275755333,0.6294244866755034,1.7877933708566047,1.5592545415625572,-0.5862480725657969,3.011053384872798,0.06409098232268029,24.909772986203038,-30.423068111072702,-68.531677,-55.28629207664862,0.0,68.531677,0.7898197128102842,0.34423101,-0.1172,-0.49391699,1.0,0.0,0.0,0.0,75.66266686283736
0.3096,6911.3146,-5.151770109166174,-1.0378953039460446,0.6925876998909111,1.8627738724501024,-0.8054456002486514,3.4730916189375796,-1.3772512462680542,25.106790460631807,-30.032889628938584,-67.009697,-51.507938621144966,0.0,67.009697,0.7981049018382984,0.36709899,-0.08949,-0.46931699,1.0,0.0,0.0,0.0,74.10097405052933
0.3276,6911.3346,-4.67115348092799,-2.4549340322177313,-0.7620706647881157,1.8922650723145007,-1.0459240764962139,3.621485880827942,-2.5055484351685333,24.843889192764085,-30.072694555204684,-64.657219,-47.04801321108834,0.0,64.657219,0.8069785812522411,0.39229399,-0.063299,-0.436903,1.0,0.0,0.0,0.0,72.3964552831526
0.3474,6911.3545,-3.8668201046429638,-3.3811415962866898,-2.3174537027274287,1.6568176588933785,-1.2168355787220304,3.459565456548193,-3.109710834383323,24.022099604837848,-30.806108028744646,-61.538414,-42.64976296959488,0.0,61.538414,0.8162704626862349,0.412844,-0.043017,-0.401761,1.0,0.0,0.0,0.0,70.57364653202292
0.3696,6911.3745,-2.951558607216173,-3.868697259475316,-3.7136410399606454,1.2427243327591808,-1.30283693036652,3.0968355114667503,-3.1743125219947466,22.911283757902204,-32.02434609499483,-58.167843,-38.82655502196648,0.0,58.167843000000005,0.8248051355088546,0.427053,-0.029911,-0.36936101,1.0,0.0,0.0,0.0,68.86251993415007
0.3914,6911.3945,-2.109439513817997,-4.072820767139774,-4.772928224178996,0.7832933560775388,-1.3085584673219708,2.7111618055434317,-2.986571301479838,21.55540486071993,-33.514643054326285,-54.920334,-36.029701510225685,0.0,54.920334,0.8330674087824105,0.43224701,-0.022989,-0.34443101,1.0,0.0,0.0,0.0,67.16972675453289
0.4084,6911.4145,-1.4116727486894036,-4.19058744648736,-5.4831582754296635,0.3978465039485981,-1.2488578844481284,2.4825665768057306,-2.8851421232247088,19.995295739258825,-35.06173671323485,-51.791107,-34.094888283963975,0.0,51.79110700000001,0.8421380007186707,0.42908099,-0.019458,-0.32605901,1.0,0.0,0.0,0.0,65.26683870426439
0.4304,6911.4345,-0.826526538689192,-4.333353497704138,-5.940478235581541,0.14054451901574716,-1.1225307057775185,2.517732314088329,-2.771351678792332,18.401158144610367,-36.53863045207669,-48.632671,-32.47033088167929,0.0,48.632671000000016,0.8517673240153086,0.42140999,-0.019308,-0.310698,1.0,0.0,0.0,0.0,63.191166502050514
0.4483,6911.4545,-0.2273229419888712,-4.507048876183956,-6.220875466209076,0.0002369424783396079,-0.8900856935168749,2.8022339132911434,-2.4553077666820373,16.822134207642733,-37.959581760063045,-45.144855,-30.71778989544633,0.0,45.14485500000001,0.8621493006267069,0.41124499,-0.022697,-0.29506099,1.0,0.0,0.0,0.0,60.882460854890226
0.4719,6911.4745,0.6243085923799729,-4.679393795454702,-6.380931927919928,-0.060077844512612666,-0.5414304908445213,3.1949843858601965,-2.435212836936576,15.46007913662213,-39.17672640902588,-40.764061,-28.229751632703877,0.0,40.764061,0.8746328158288138,0.40148199,-0.02039,-0.27094999,1.0,0.0,0.0,0.0,57.99690150167556
0.4977,6911.4945,1.7902934858444746,-4.730799074053398,-6.43060939363362,-0.1382503086675183,-0.11461777473207935,3.514588107241939,-2.823000847163679,14.429635642890272,-40.08610648831323,-35.464832,-24.886784692950094,0.0,35.464832,0.8883711447365679,0.39372799,-0.009071,-0.235993,1.0,0.0,0.0,0.0,54.66145205451118
0.5158,6911.5145,3.025725027710741,-4.54853315114264,-6.248695207715704,-0.3405852378422862,0.3627002465863798,3.6302167317571836,-2.9228058402597297,13.257239242242603,-40.88331531008847,-29.931433,-21.440978919669888,0.0,29.931433,0.9021130674644392,0.38243699,0.001063,-0.19983201,1.0,0.0,0.0,0.0,51.125548455439976
0.5379,6911.5345,4.1780162660229765,-4.152857046458443,-5.805761088690927,-0.6272093931974294,0.7923521890157079,3.497082422696392,-2.983338451450377,11.979716379760516,-41.561640019610536,-24.98765,-18.447457361519294,0.0,24.987650000000002,0.915211994033579,0.36642399,0.01177,-0.16727801,1.0,0.0,0.0,0.0,47.52829806758153
0.5509,6911.5545,5.153016592800796,-3.604299433262142,-5.109175562222853,-0.9256956954429366,1.0853011107751127,3.149955949693493,-3.0581993350712624,10.603284099394003,-42.137839081873054,-20.842358,-15.971986088176443,0.0,20.84235799999999,0.927542107922934,0.34589401,0.022576,-0.13969,1.0,0.0,0.0,0.0,43.89028084460449
0.5686,6911.5745,5.910460693076782,-2.970767330332754,-4.190658180811692,-1.174353105477663,1.2007255975889113,2.6521781140059923,-2.897074483730574,9.157403880197812,-42.60809739847889,-17.441921,-13.899467872444157,0.0,17.441921000000008,0.9387844606594848,0.32241401,0.030006,-0.117612,1.0,0.0,0.0,0.0,40.30317145973062
0.5886,6911.5945,6.4361194600369664,-2.288906469549848,-3.1107096631134388,-1.3476157221385372,1.1354520091692109,2.0595802293588603,-2.2035410385780403,7.859760359670695,-42.95723388218777,-14.372474,-11.850652711016549,0.0,14.372474000000011,0.9485525015877402,0.29931799,0.031015,-0.098463,1.0,0.0,0.0,0.0,36.91726503463364
0.6098,6911.6145,6.772197288208913,-1.6319333459766572,-2.0183584429129944,-1.4234629395707665,0.9018042084150097,1.4314360239379411,-1.3081926120980858,7.178099181553067,-43.16059265794819,-11.741395,-9.919930929472569,0.0,11.741395000000011,0.9557861714416044,0.281014,0.029581,-0.081418,1.0,0.0,0.0,0.0,34.20266684936885
0.6279,6911.6345,6.945130415225293,-1.0596079691621627,-0.9852913470163251,-1.401123618714641,0.5476357214904874,0.8053619877642078,-0.4667815713089061,7.011876082878963,-43.32372227223662,-9.900416,-8.524750246481673,0.0,9.900416000000007,0.9611812886219748,0.265609,0.027219,-0.069581,1.0,0.0,0.0,0.0,32.033410993119844
0.6488,6911.6545,6.921444050485466,-0.5626795578387407,0.03093993571070186,-1.2935747367561052,0.10943240112295066,0.21029646468420787,0.5018425307043746,7.014365822272557,-43.53866614996682,-8.778573,-7.695609817845381,0.0,8.778572999999994,0.965996159903858,0.249669,0.020379,-0.064043,1.0,0.0,0.0,0.0,29.968844140616415
0.6747,6911.6745,6.682595939541348,-0.09980552118183628,1.0586992942953994,-1.1087827476979946,-0.38851416535463223,-0.3226981483219987,1.6964871207701635,7.163284701984564,-43.77237860381925,-7.832646,-6.976678930228727,0.0,7.832646000000011,0.9702520560086436,0.234221,0.007413,-0.060799,1.0,0.0,0.0,0.0,28.0206778878094
0.6947,6911.6945,6.2706312680969996,0.3042651342473226,2.049712533368865,-0.8650356705768474,-0.8931321817723494,-0.7875878287297499,2.948398618969201,7.632513539246727,-43.93302264760106,-6.846961,-6.169509695861717,0.0,6.846960999999993,0.9731193813144922,0.22279499,-0.010005,-0.057454,1.0,0.0,0.0,0.0,26.629617485232526
0.7103,6911.7145,5.722450660657296,0.5841911676316283,2.9452878051655205,-0.603160573545614,-1.333583972182298,-1.2097177482604553,4.1427930434111255,8.464743446777769,-43.94965080921416,-5.895264,-5.348202477677699,0.0,5.895263999999997,0.974076350370442,0.217393,-0.030696,-0.054528,1.0,0.0,0.0,0.0,26.149199398669346
0.731,6911.7345,5.010023362416126,0.7260513252311265,3.7232597672962076,-0.3601359131873819,-1.656094727126415,-1.6037931159051217,5.387052073144983,9.392821105830507,-43.78536455017364,-5.123559,-4.673265660438027,0.0,5.123559,0.9732695114748228,0.21617199,-0.055793,-0.053882,1.0,0.0,0.0,0.0,26.55481368431903
0.7486,6911.7545,4.149680287036406,0.752070413039089,4.358904948810032,-0.15763606122889515,-1.8430151394351726,-1.9498085210106475,6.635050491144375,10.112089041449938,-43.44293385217904,-4.893551,-4.49968318467309,0.0,4.893551000000002,0.9709776473318014,0.216049,-0.084325,-0.058434,1.0,0.0,0.0,0.0,27.67514603872019
0.7813,6911.7744,3.206987881347776,0.6985148276815822,4.839939709679442,0.008293628684708343,-1.9115574666927808,-2.2230851224388717,7.678556073776078,10.57138623970533,-42.957684545241676,-5.286083,-4.917781048242395,0.0,5.286082999999991,0.9674605054920846,0.215836,-0.113096,-0.068149,1.0,0.0,0.0,0.0,29.312830686495982
0.8034,6911.7944,2.2772032084950062,0.5984704245726933,5.171813866285909,0.15500856291742549,-1.900193176483223,-2.4212956859329067,8.287693685053526,10.871073636649115,-42.389528969140876,-6.159637,-5.807202581665934,0.0,6.159637000000004,0.9631507038628584,0.215737,-0.13862599,-0.081124,1.0,0.0,0.0,0.0,31.205054610025975
0.8124,6911.8144,1.3708278537257068,0.4797417108463691,5.377760979818877,0.31349658690256915,-1.854360232770946,-2.5678276280915817,8.53474402724592,11.095977056768366,-41.755203812335964,-7.149217,-6.832700247824145,0.0,7.149216999999993,0.9582840441475065,0.21627299,-0.16118801,-0.094531,1.0,0.0,0.0,0.0,33.215451279753346
0.8299,6911.8345,0.4630024225199523,0.32477048851555246,5.462070749086983,0.5026785211424655,-1.8130454300247423,-2.6998425967308393,8.619019093444445,11.314007010948721,-41.050266571989695,-8.195508,-7.9433010588353605,0.0,8.19550799999999,0.9524543142101672,0.21821401,-0.18285801,-0.108519,1.0,0.0,0.0,0.0,35.477999106530234
0.855,6911.8545,-0.4001664047787128,0.11283219491692087,5.407618641997551,0.7206495486865439,-1.8071398188936407,-2.8484979688903618,8.43651803651831,11.57565468219253,-40.32867674607972,-9.368349,-9.199124196778568,0.0,9.368348999999995,0.9457244588227904,0.221921,-0.20271701,-0.12354,1.0,0.0,0.0,0.0,37.92746776582328
0.8725,6911.8745,-1.2117519892302384,-0.1511600505764168,5.1994884951306055,0.9558203621567338,-1.8572014269710473,-3.0231098827198988,7.961078362922345,11.816691956181536,-39.61107235263717,-10.878334,-10.815254443959224,0.0,10.878333999999995,0.937956807524888,0.22676399,-0.221044,-0.141261,1.0,0.0,0.0,0.0,40.577575897116425
0.8913,6911.8946,-2.0617557859575264,-0.4625271729890459,4.812411633058835,1.2126806860587231,-1.9516907292201184,-3.2089205925100535,7.424836883842399,12.023892864806292,-38.82304788400939,-12.621035,-12.725275974184083,0.0,12.621035000000006,0.9281172104055608,0.233338,-0.240824,-0.161727,1.0,0.0,0.0,0.0,43.71360181508711
0.9127,6911.9146,-2.975627949840732,-0.783643017053067,4.21101613936934,1.4845254429772625,-2.0555624196241937,-3.3778933795359576,7.021251382689435,12.164219970899929,-37.95714089893129,-14.558496,-14.945091259402913,0.0,14.558495999999991,0.9153083831224532,0.241778,-0.26356199,-0.185173,1.0,0.0,0.0,0.0,47.50088088128894
0.9303,6911.9346,-3.864820347175691,-1.0557069873317966,3.379287851643207,1.7503437635314074,-2.1258041700010857,-3.506385081335709,6.725351064134436,12.195016468327262,-37.10482347078688,-16.632109,-17.444845140442247,0.0,16.632109000000014,0.8998959670528589,0.251461,-0.28742,-0.210581,1.0,0.0,0.0,0.0,51.71120812358857
0.9505,6911.9546,-4.647087664325656,-1.2688354621455082,2.3242230335279324,1.988151102109579,-2.119351997722838,-3.5849380067558045,6.538628571891108,12.207775077193105,-36.29096927589633,-18.907246,-20.276826551377823,0.0,18.907245999999986,0.8818796648051024,0.26304001,-0.31059301,-0.23797099,1.0,0.0,0.0,0.0,56.26011157418853
0.9721,6911.9747,-5.228426598994622,-1.3984957201285684,1.1100794978171802,2.1781863615646406,-2.0197308191959396,-3.6100206727176976,6.276892461615603,12.21401134525287,-35.55371901689632,-21.416399,-23.39409768094415,0.0,21.416399000000013,0.8626546008974275,0.27572301,-0.330145,-0.26609799,1.0,0.0,0.0,0.0,60.76807838065469
0.9944,6911.9947,-5.560283509321648,-1.3858800700254665,-0.14709606531866015,2.295554603440198,-1.8591130751938987,-3.5831129099566548,5.776981144648055,12.113456210655338,-34.947833571703825,-24.62582,-27.264746789694517,0.0,24.625820000000004,0.8436670134930012,0.28630999,-0.344219,-0.296253,1.0,0.0,0.0,0.0,64.94120514496424
1.0182,6912.0147,-5.718945178761072,-1.2404781539388385,-1.381855228537388,2.3694190276713103,-1.6719840459829003,-3.498917687963245,5.200007512891132,11.946750106656031,-34.419425114132295,-28.395634,-31.75859989106603,0.0,28.395634,0.8246285010319131,0.295028,-0.35466,-0.32735699,1.0,0.0,0.0,0.0,68.89830981530791
1.0325,6912.0348,-5.7204175592923585,-0.9725606508715696,-2.5273413932170854,2.4120019756800435,-1.4964512059631185,-3.3747945756944304,4.538056758402772,11.732418417219073,-33.93939346557965,-32.736851,-36.81330693006143,0.0,32.736851,0.8058753933009245,0.30190301,-0.361451,-0.35884899,1.0,0.0,0.0,0.0,72.61023669520945
1.0585,6912.0548,-5.560503532913147,-0.5896493720011877,-3.548359206410252,2.419684966305212,-1.3543329359552518,-3.2503269560431045,3.7581216463685934,11.524368609346759,-33.456722353118565,-37.881302,-42.534920179027566,0.0,37.881302000000005,0.786869264513197,0.30750799,-0.36453301,-0.39165199,1.0,0.0,0.0,0.0,76.21221118060701
1.0741,6912.0748,-5.244142348908507,-0.12694132279384662,-4.453085771174589,2.401931628499427,-1.2265533356012064,-3.165692937719774,2.817830681633451,11.300815668464653,-32.94409435721886,-43.243187,-48.05597839577118,0.0,43.243187000000006,0.7684783063852093,0.31352001,-0.36454901,-0.42219701,1.0,0.0,0.0,0.0,79.5651238816648
1.0952,6912.0948,-4.79350669554721,0.41425314578149397,-5.242580167888029,2.348782893125613,-1.079472699597758,-3.158699610148268,1.7018928401258648,11.027438282915806,-32.38742864139068,-48.660774,-53.13646343819545,0.0,48.660774,0.7509303558939003,0.320081,-0.36231399,-0.44986701,1.0,0.0,0.0,0.0,82.65793484725805
1.1125,6912.1149,-4.263946037720655,1.0647966974034921,-5.89290480998735,2.2467469686347017,-0.8865611672888332,-3.2351920420824922,0.5565951441808199,10.792967769938258,-31.735024832056332,-54.876293,-58.78442613426676,0.0,54.876293000000004,0.7311760566679683,0.326433,-0.35952401,-0.47913,1.0,0.0,0.0,0.0,86.02984430908725
1.1349,6912.1349,-3.699872120195427,1.8182200174508445,-6.334970384372985,2.0941379466655237,-0.6399044707571595,-3.365180232606924,-0.6871980422474753,10.592178173227463,-30.98621010679161,-62.349216,-65.70943195726237,0.0,62.349216,0.7086365109243101,0.32976401,-0.35578701,-0.512353,1.0,0.0,0.0,0.0,89.75182775577755
1.1572,6912.1549,-3.1427390576556666,2.6245461541931405,-6.526841916602616,1.9147042965072734,-0.3581723007867652,-3.497444382145068,-2.126230228243715,10.37962593573468,-30.181759239562552,-70.613953,-73.6551900653405,0.0,70.613953,0.6849419943355926,0.32767501,-0.35023299,-0.54847097,1.0,0.0,0.0,0.0,93.5379089935065
1.18,6912.175,-2.5963742150468274,3.4385877298587837,-6.47735977526888,1.74298163916598,-0.07110228547406733,-3.589649568591443,-3.6380022098042826,10.299762881179275,-29.343790281715155,-79.370483,-82.35083675602445,0.0,79.370483,0.6593026993147227,0.32032499,-0.342677,-0.58760899,1.0,0.0,0.0,0.0,97.50657132115417
1.2006,6912.195,-2.089177370791435,4.200487884864557,-6.232893023633739,1.6242752047996745,0.22984730433232584,-3.609691803727034,-4.984275182276535,10.512542914319033,-28.49849341083018,-87.922272,-90.37923383351615,0.0,87.922272,0.6322838308470645,0.31351301,-0.33283299,-0.62541902,1.0,0.0,0.0,0.0,101.56235770466671
1.2188,6912.215,-1.5966353205016877,4.908149057474474,-5.831538795933312,1.567319501539212,0.5369209928136132,-3.54293031753069,-5.9852771578831145,11.075017712979784,-27.680737993324094,-96.418724,-97.96768491824373,0.0,96.418724,0.6023029884778587,0.308741,-0.321785,-0.66209102,1.0,0.0,0.0,0.0,105.92996856670297
1.2305,6912.235,-1.0980366141025377,5.5424373378492975,-5.27783469522961,1.5439290937443422,0.8549372765614887,-3.3823747838993876,-6.777355434206049,12.009139643020543,-26.859777506269552,-104.608391,-104.80072060573185,0.0,104.608391,0.5713126899682341,0.30504599,-0.30683401,-0.69742501,1.0,0.0,0.0,0.0,110.31637113223384
1.2561,6912.2551,-0.5369891375838758,6.126561956264283,-4.618084781064706,1.5559490778043958,1.134862657007096,-3.119589306611614,-7.2100343833449845,13.196475666764478,-26.12103142671517,-112.192589,-111.45641057250108,0.0,112.192589,0.538496900049313,0.298592,-0.29081401,-0.732319,1.0,0.0,0.0,0.0,114.83725034548918
1.2802,6912.2751,0.04023040893476537,6.637726989456229,-3.859769685578117,1.6031701883105844,1.3735741410430231,-2.749607130843833,-7.2437418925775905,14.604169261029476,-25.487336343489403,-118.715027,-117.14100683471433,0.0,118.715027,0.5070405643380811,0.29182601,-0.27263999,-0.763816,1.0,0.0,0.0,0.0,119.0661930015143
1.3117,6912.2951,0.6174921186501681,7.055491690366832,-2.989360057855226,1.672158666259108,1.5716039443242864,-2.2804426020146567,-6.884505544886649,16.238810231078137,-24.91436554008681,-124.186234,-121.67373510011231,0.0,124.186234,0.478307333525756,0.28684199,-0.25141701,-0.79103303,1.0,0.0,0.0,0.0,122.85018092064136
1.3157,6912.3151,1.2141777896222556,7.374975530853068,-2.009978362118055,1.7359068163914246,1.7263781522026482,-1.7332595010609313,-6.2261305020951845,17.995420552391998,-24.353801379044064,-128.603561,-125.1704966813236,0.0,128.603561,0.4530780664341626,0.283656,-0.227947,-0.81381798,1.0,0.0,0.0,0.0,126.11731666017701
1.3524,6912.3352,1.848195613942375,7.549150326975058,-0.9075091476005106,1.759540332455159,1.8459585848732225,-1.1251721021026873,-5.482825489861902,19.789502986391888,-23.69044885662297,-131.966309,-127.63875914651742,0.0,131.966309,0.4322484468506506,0.281863,-0.201515,-0.83253002,1.0,0.0,0.0,0.0,128.7793258410715
1.3619,6912.3552,2.516154465779965,7.506924981186048,0.30497953017448687,1.7271246444296704,1.9198576418228834,-0.47311385819089746,-4.76026507968365,21.4826156150394,-22.90513497736699,-134.400696,-129.31318622568833,0.0,134.400696,0.4155027853150924,0.28053999,-0.173181,-0.84773999,1.0,0.0,0.0,0.0,130.89803348378499
1.378,6912.3752,3.1274835759257797,7.173673491736991,1.591833677731655,1.631604374958734,1.9368261283873633,0.199806820064871,-4.224721748266379,22.935776293639293,-22.06165548127739,-135.757935,-130.0164743517176,0.0,135.757935,0.4046622401873689,0.27951899,-0.143434,-0.85880399,1.0,0.0,0.0,0.0,132.26007378577702
1.3955,6912.3953,3.5881028868634006,6.521295571593787,2.8811528739478582,1.488586417360335,1.8789009998590258,0.8572466655874532,-3.9733010837006546,24.053640568918926,-21.321035094269874,-135.975601,-129.69901226096857,0.0,135.975601,0.4009764967073752,0.278218,-0.113695,-0.86538202,1.0,0.0,0.0,0.0,132.72152358819375
1.4124,6912.4153,3.853678976883636,5.5817138877774415,4.090651728075898,1.330973968174182,1.7329969569433608,1.4569264109577562,-3.9169712703858632,24.811846060631694,-20.880575704095516,-135.255035,-128.6087566637802,0.0,135.255035,0.4037104064305001,0.275931,-0.086026,-0.86803198,1.0,0.0,0.0,0.0,132.37932042796498
1.43,6912.4353,3.854624658341995,4.404978229786742,5.190038877154269,1.170100182201729,1.499308388088901,1.9720223939219519,-3.8468834923211244,25.29897516952549,-20.82658657974752,-133.83989,-126.84412261499314,0.0,133.83989,0.4118178110069294,0.27475199,-0.06087,-0.86672503,1.0,0.0,0.0,0.0,131.36184378582618
1.4511,6912.4553,3.668957311128942,3.17265595095977,6.1106249757210485,1.004653223363847,1.1944123060890028,2.3687626954532517,-3.7478138809673744,25.497946066221544,-21.271594714064964,-131.731628,-124.52378260612356,0.0,131.731628,0.4253247911780594,0.27237701,-0.039217,-0.86219001,1.0,0.0,0.0,0.0,129.65755327075368
1.4689,6912.4753,3.389396250179183,1.9513033269840587,6.832226058181309,0.822708407626294,0.8099335377685339,2.646159222749764,-3.6859503945929113,25.56076764023846,-22.006759491002565,-129.081558,-121.78697314680048,0.0,129.081558,0.4428879854974161,0.268814,-0.018675,-0.85512602,1.0,0.0,0.0,0.0,127.42341666685017
1.4928,6912.4953,3.0269428063474972,0.7648314261847649,7.32272546177952,0.6158259775854582,0.3243193936177733,2.8171964437998738,-3.589760459527044,25.629296316097143,-22.80867239650379,-126.303787,-118.95053481081291,0.0,126.303787,0.4614542507271327,0.26629901,0.00084,-0.84625298,1.0,0.0,0.0,0.0,125.03802495406288
1.5152,6912.5153,2.515666989961374,-0.28172871286236756,7.5305554053157095,0.3954125802481162,-0.24820740742266467,2.896396032949031,-3.488855380401379,25.672225519437745,-23.65734736391922,-123.356606,-115.8119200718427,0.0,123.356606,0.4818045879431816,0.266938,0.01663,-0.83446503,1.0,0.0,0.0,0.0,122.39334206872385
1.539,6912.5353,1.901846869337653,-1.008068259575977,7.411626655771187,0.21879216489161935,-0.8423320677657226,2.9123806691848872,-3.4775281332037498,25.490042302248604,-24.722259862247626,-120.118515,-112.29291523086283,0.0,120.118515,0.5052541726100829,0.26869699,0.024706,-0.81970102,1.0,0.0,0.0,0.0,119.30354728030377
1.5498,6912.5553,1.1713737315374666,-1.4684579082012488,6.964926782506655,0.10799595426014297,-1.3979450939326123,2.914077754767918,-3.3877885697793158,25.177061564175634,-25.88651047124511,-116.85025,-108.43669161775522,0.0,116.85025,0.5298210456751032,0.274418,0.025315,-0.80208701,1.0,0.0,0.0,0.0,116.01327119362394
1.5812,6912.5752,0.3576771209221059,-1.7755933522606981,6.208703251020101,0.020003188276108474,-1.866533279957519,2.9395684109013906,-3.022904306453409,24.982246252597186,-26.887631213121416,-113.989899,-104.45703839694596,0.0,113.989899,0.551895274764932,0.28717101,0.021442,-0.78261399,1.0,0.0,0.0,0.0,113.00573171695734
1.6053,6912.5952,-0.45272221788742417,-1.9362617023757753,5.215342513798806,-0.11867170123233994,-2.2317664697177713,3.003691298567551,-2.5176251767830795,25.032465283002153,-27.534339005734495,-111.453934,-100.19123905966504,0.0,111.453934,0.5716683974903453,0.30674499,0.016598,-0.76080698,1.0,0.0,0.0,0.0,110.26669936696575
1.6168,6912.6152,-1.1340642171102386,-1.8900605192333362,4.112826612132544,-0.3359131484901974,-2.526220330672239,3.102902134634831,-2.3115258106169705,25.197431448898712,-27.841727961871815,-108.773354,-95.51997553773965,0.0,108.773354,0.5917600688497658,0.32753,0.013513,-0.73645198,1.0,0.0,0.0,0.0,107.43598449137038
1.6319,6912.6352,-1.7291869815956873,-1.6539761313738808,3.001384898218708,-0.6068610278279674,-2.8134725882143954,3.226974304179755,-2.5228873111434993,25.217302704566993,-28.00956463475194,-105.679413,-90.54682233087667,0.0,105.679413,0.613627046457944,0.34535199,0.010863,-0.70998299,1.0,0.0,0.0,0.0,104.295546714012
1.6513,6912.6552,-2.3475352497625255,-1.2522458455159655,1.8869820518011888,-0.8530499989696445,-3.097933606753621,3.4020568918977876,-2.9219905625401026,24.608884841801988,-28.509918696951512,-101.820328,-85.3057636625055,0.0,101.820328,0.6393088904568429,0.35651001,0.001682,-0.68130898,1.0,0.0,0.0,0.0,100.51939102777581
1.6718,6912.6752,-2.9801791023320052,-0.9183003145080596,0.691143053096754,-0.9924701454690872,-3.3497550316160045,3.636871742421995,-3.2016560265470204,23.37340943721108,-29.37765130884675,-97.256271,-79.90592789321805,0.0,97.256271,0.6672222967662875,0.36212099,-0.015145,-0.65073299,1.0,0.0,0.0,0.0,96.29391873770535
1.6961,6912.6952,-3.5420676012294567,-1.0051347330285876,-0.6501312447572669,-0.9973489057705391,-3.569663859426494,3.8622710569827827,-3.222354846516737,22.17609478744964,-30.110467823339953,-92.320213,-73.87350179776477,0.0,92.320213,0.6943492328016933,0.371443,-0.032412,-0.61551499,1.0,0.0,0.0,0.0,92.04923572908314
1.709,6912.7152,-3.847230718183779,-1.4669806224258553,-2.0855973983452394,-0.894863699752674,-3.6953637362440506,4.061749337743652,-3.1379353441834645,21.173771902649115,-30.667851688043967,-86.961319,-67.25009562797254,0.0,86.961319,0.7203587579374596,0.38407201,-0.046388,-0.57569098,1.0,0.0,0.0,0.0,87.83178379197777
1.7351,6912.7352,-3.810948540740477,-2.0759862768674027,-3.5113983401217848,-0.7802436074504124,-3.6617318314708642,4.2453052465900445,-3.0183277563950046,20.250987942662423,-31.20784901902055,-81.130875,-60.52723962759608,0.0,81.130875,0.7451174482668081,0.395827,-0.057466,-0.53368402,1.0,0.0,0.0,0.0,83.66162432747699
1.7506,6912.7552,-3.4714672514239933,-2.7021354942345486,-4.831945362940457,-0.752976150072322,-3.486573541851253,4.390837983115198,-2.8947194450573193,19.466076518589258,-31.73366322336166,-74.955429,-53.955646181403665,0.0,74.955429,0.7680230639058829,0.406259,-0.065491,-0.49071899,1.0,0.0,0.0,0.0,79.64661575654885
1.7729,6912.7752,-2.8841492586298068,-3.298974772176174,-5.942028360707004,-0.8428298884059411,-3.2175226800618972,4.487729728186028,-2.928107853596927,18.744912466039356,-32.283291807335885,-68.368706,-47.69745047505082,0.0,68.368706,0.7897475892668998,0.413984,-0.06992,-0.44724399,1.0,0.0,0.0,0.0,75.67614085132453
1.7934,6912.7952,-2.1033082827723515,-3.862414994412138,-6.725365615338218,-1.0206598341770616,-2.86738263910218,4.555467340864873,-3.1436845858486784,17.709816662612766,-33.035250590468856,-60.959183,-41.82697674774504,0.0,60.959182999999996,0.8121925407574363,0.41520101,-0.073092,-0.40324801,1.0,0.0,0.0,0.0,71.37858987006949
1.8198,6912.8152,-1.1664244038418345,-4.395917420177098,-7.084995483302346,-1.219809576791719,-2.4261877919969423,4.604911644978886,-3.407642722186491,16.02854835289598,-34.081917012161696,-52.57938,-36.343159552074326,0.0,52.57938,0.8363682473085884,0.40695199,-0.077627,-0.35896,1.0,0.0,0.0,0.0,66.48284118358464
1.8427,6912.8352,-0.11959907972941222,-4.837233069825861,-6.996474790174236,-1.3802912994042797,-1.890136183922571,4.614364808027146,-3.573726383702197,13.65712590598386,-35.30656322524334,-43.78101,-31.25983312112615,0.0,43.78101000000001,0.8615253074837674,0.389002,-0.084055,-0.315256,1.0,0.0,0.0,0.0,61.023443757154105
1.8566,6912.8552,0.9718585914858047,-5.0946803595995735,-6.600335798271276,-1.4994032648637081,-1.3504322747734379,4.516593030788602,-3.566602862616355,11.181477604371718,-36.370339284850154,-35.336617,-26.232841124889404,0.0,35.33661699999999,0.8849022116395346,0.36843899,-0.089577,-0.27051201,1.0,0.0,0.0,0.0,55.521020332720425
1.8756,6912.8752,2.0269989135310196,-5.100843903099278,-6.093085565934,-1.6009782055915678,-0.9120977362508569,4.289735682915599,-3.6485200018549415,9.107469860151912,-37.110122384618506,-27.841291,-21.41681998529398,0.0,27.841291000000012,0.9052943688139344,0.34862,-0.089531,-0.22558901,1.0,0.0,0.0,0.0,50.27408237538071
1.8953,6912.8952,2.9212969001923383,-4.913149178489643,-5.604170921527507,-1.7429036447833826,-0.6450913938795106,3.9539487713059898,-3.8196113701870527,7.7007263150430205,-37.55956268784769,-21.614935,-17.16146042415381,0.0,21.614935000000003,0.92207243253174,0.329436,-0.085563,-0.18421,1.0,0.0,0.0,0.0,45.53807408865545
1.9094,6912.9152,3.5648257964251795,-4.663366777570796,-5.083919449129452,-1.9543484034426322,-0.5438033983516518,3.558480968513425,-3.74656612068829,6.904858154161895,-37.87344464000311,-16.418066,-13.492253471707773,0.0,16.41806600000001,0.9359406946369198,0.30767199,-0.085176,-0.148654,1.0,0.0,0.0,0.0,41.238688069452635
1.9312,6912.9352,3.9749420273666622,-4.442709748467864,-4.4058782544293935,-2.1900582771199053,-0.5487508947633133,3.162654673617837,-3.2133488776977326,6.639004155927834,-38.184378978422934,-11.999996,-10.27339963477364,0.0,11.99999600000001,0.9476855127211136,0.28107601,-0.093459,-0.11897,1.0,0.0,0.0,0.0,37.229770770557714
1.9538,6912.9552,4.3059661799736055,-4.204187292710073,-3.5254451571929986,-2.3538200715814024,-0.5961383737069162,2.8150172925916546,-2.539241999835979,6.864241409428587,-38.54718693822752,-8.04412,-7.193024337125097,0.0,8.044119999999992,0.9578671004220785,0.250559,-0.106738,-0.091202,1.0,0.0,0.0,0.0,33.382207905261836
1.9762,6912.9752,4.7054515332689215,-3.811620508649269,-2.4957973964269886,-2.3934405578879177,-0.6253260589487111,2.5053613436587794,-2.0744766049283068,7.466110082461018,-38.99882966276706,-4.224274,-3.932802251467544,0.0,4.224274000000008,0.9664168186263524,0.21864399,-0.120227,-0.061472,1.0,0.0,0.0,0.0,29.7818390678261
1.9992,6912.9952,5.174333243865755,-3.215999735918226,-1.4333115884305592,-2.3405380278110695,-0.5870878045813475,2.1456003537737343,-1.737678421761061,8.406205895941293,-39.51002030306838,-0.712878,-0.6863334424100935,0.0,0.7128779999999892,0.9722040258145408,0.189355,-0.133937,-0.032014,1.0,0.0,0.0,0.0,27.081312681011436
2.0117,6913.0151,5.645832872761283,-2.4305582174361033,-0.44793998620838593,-2.251237812836565,-0.5015677915202681,1.636122709563948,-1.3833664403880621,9.608099867822972,-39.96466264708203,2.685742,2.654069709505054,0.0,2.6857420000000047,0.9749203071333574,0.166087,-0.148119,-0.002503,1.0,0.0,0.0,0.0,25.718201791340277
2.0321,6913.0351,6.0312949095259025,-1.5661825512569265,0.38814179920983527,-2.1540215511383205,-0.40329851324072286,0.956671856228621,-1.089577121677463,10.75003052648568,-40.28474213310319,5.237112,5.286531939386656,0.0,5.237111999999996,0.9759278061147966,0.14600199,-0.160662,0.020882,1.0,0.0,0.0,0.0,25.19419779086249
2.0684,6913.0551,6.331676110994795,-0.7172518838157163,1.02667161220392,-2.0466960621455557,-0.3667432023810704,0.17930114526949129,-1.1889800764785194,11.426377800450531,-40.49570053801682,6.433969,6.602653099993283,0.0,6.4339689999999905,0.9775052049958608,0.124165,-0.16695,0.034559,1.0,0.0,0.0,0.0,24.35152355029358
2.071,6913.0751,6.387928694220866,-0.045471569230079334,1.5714459221206223,-1.9368731922072362,-0.4373490836399903,-0.6191446546205522,-1.165089638871097,11.68426520188189,-40.596462695998035,6.141196,6.40132194652553,0.0,6.141196000000008,0.979143676633312,0.099909,-0.173198,0.036032,1.0,0.0,0.0,0.0,23.444675183565746
2.0988,6913.0951,6.052876856112211,0.3764860537643171,2.1557655959080417,-1.8125133717021138,-0.5913836789771257,-1.3739527650834815,-0.5967807219452871,11.901461891381048,-40.50368086012037,5.059581,5.3701423657884355,0.0,5.0595810000000085,0.9789701318817136,0.077653,-0.18627501,0.029818,1.0,0.0,0.0,0.0,23.54235738929379
2.1127,6913.1151,5.378450163332873,0.5964027568767424,2.770855654843489,-1.671897221431239,-0.7354596566309891,-2.0348433758261733,0.28963376098395416,12.18025497843125,-40.19390872496755,3.534724,3.831800309489235,0.0,3.5347240000000113,0.97682970066486,0.058599,-0.204953,0.019083,1.0,0.0,0.0,0.0,24.71585247160902
2.1338,6913.1351,4.509764161396131,0.6670328042367668,3.3457894252761733,-1.5273131650131113,-0.7823319960831959,-2.5809108279108903,1.1823389363226329,12.485988251910578,-39.725047992577764,1.378014,1.5280445879928295,0.0,1.3780140000000074,0.9734678018707142,0.041284,-0.225052,0.002769,1.0,0.0,0.0,0.0,26.45569525668758
2.1572,6913.1551,3.5619968683788628,0.642344703642284,3.848639677792807,-1.3591300488868892,-0.7104133458143226,-3.010289761089692,1.9166133315862846,12.828115283057109,-39.181774282249364,-1.417319,-1.6059945767595396,0.0,1.417318999999992,0.9694015830837496,0.024988,-0.24346399,-0.019012,1.0,0.0,0.0,0.0,28.420437787772013
2.1728,6913.1751,2.6674361218031892,0.6491244423544932,4.272161170426745,-1.1211595680350435,-0.5802826420905814,-3.3153027627629545,2.287692958393714,13.00412851547501,-38.70480958024728,-4.771705,-5.49386153679073,0.0,4.771704999999997,0.965457815140382,0.006945,-0.25656801,-0.044898,1.0,0.0,0.0,0.0,30.206516508030667
2.1932,6913.1951,1.850863311484132,0.7745564981013171,4.627764071848569,-0.7431697985652076,-0.48451386344393343,-3.501566127681537,2.3254703276790964,12.905492993428833,-38.340704793846264,-8.366631,-9.721751204791765,0.0,8.366631000000012,0.9614821532241876,-0.01306,-0.26493099,-0.072063,1.0,0.0,0.0,0.0,31.908220432184926
2.2362,6913.2151,1.110475887829414,0.9633923727143661,4.872080614470306,-0.19807032505512595,-0.4739180614893164,-3.5796172637326644,2.1915561701949837,12.641542593167252,-38.02376204588551,-12.213375,-14.247618176853582,0.0,12.213374999999985,0.9568399853507378,-0.031903,-0.270428,-0.101529,1.0,0.0,0.0,0.0,33.78959134909124
2.2365,6913.2351,0.4194976206149291,1.073318385334856,4.914158275101917,0.4733509125141373,-0.5476375659283595,-3.565346788124077,2.126927608368219,12.457387649503874,-37.66322200279687,-16.241745,-19.00862658105254,0.0,16.24174500000001,0.95077494723802,-0.04415,-0.275769,-0.13427299,1.0,0.0,0.0,0.0,36.10426716809941
2.2499,6913.2551,-0.16757089369813644,0.9346569793692995,4.676910125118251,1.155837530133272,-0.6620723645376483,-3.494345152416464,2.1457998926590234,12.66022494462118,-37.167692313111274,-20.202225,-23.743234031056673,0.0,20.202225,0.9436901538502348,-0.044325,-0.28045899,-0.16978499,1.0,0.0,0.0,0.0,38.638395949950926
2.2675,6913.2751,-0.6099193393620641,0.5831289984365058,4.155648896895299,1.7430430772403511,-0.7919835326598209,-3.4205261995155727,2.2014842747180596,13.127928877770547,-36.53178612565453,-23.809811,-28.118254428157154,0.0,23.809810999999996,0.9359848211571702,-0.033708,-0.28411901,-0.205116,1.0,0.0,0.0,0.0,41.22432697607029
2.2905,6913.2951,-0.9034966654606119,0.17660189955898586,3.4336071176780685,2.188830329850181,-0.9457423100683549,-3.390585082579935,2.290030768326141,13.482186559740573,-35.792220357668,-27.274561,-32.33216389299389,0.0,27.274561000000006,0.9272061831148128,-0.018542,-0.28691199,-0.24005499,1.0,0.0,0.0,0.0,43.99316922888959
2.3114,6913.3151,-1.094086085969833,-0.16283080689909357,2.632335426083344,2.5099733231002865,-1.145956723310955,-3.4268163119251693,2.3760233403849216,13.390009096808628,-35.01217348631627,-30.852488,-36.65772726675575,0.0,30.852487999999994,0.9168182735808332,-0.004361,-0.28940099,-0.27508599,1.0,0.0,0.0,0.0,47.069439756926236
2.3359,6913.3351,-1.2370801248903696,-0.4293248014268628,1.832502373368861,2.743084614305195,-1.3831901587382047,-3.5324401195537654,2.283583549771722,12.829350514099286,-34.2474642817356,-34.476913,-40.98288175279843,0.0,34.476912999999996,0.90527028773769,0.007912,-0.29120001,-0.30923399,1.0,0.0,0.0,0.0,50.28057818585207
2.3592,6913.3551,-1.4399309214568272,-0.7506989003159044,1.0302249060925863,2.913890684429742,-1.6007532116970036,-3.695673159720158,2.1559855917209694,12.334219494284396,-33.422168509334114,-38.590572,-45.80795824567667,0.0,38.59057200000001,0.8907040501002226,0.023827,-0.29239699,-0.34725001,1.0,0.0,0.0,0.0,54.07629751747386
2.3699,6913.3752,-1.7592614251848202,-1.0423067131218962,0.18761673571461124,3.049766521714101,-1.7483880441201178,-3.870700104651472,2.077056205396529,11.901195653896027,-32.65351386954513,-42.99868,-51.02117053082165,0.0,42.99868000000001,0.8724083099086114,0.04274,-0.295571,-0.38692999,1.0,0.0,0.0,0.0,58.52056346339769
2.3911,6913.3952,-2.1492892035134945,-1.2292169841954452,-0.7114350213966283,3.173259865631341,-1.7731475077346543,-4.018680550922217,1.957935463328202,11.427024553064904,-31.97949779162546,-47.452934,-56.33357602512592,0.0,47.452934,0.8512947012971595,0.062803,-0.30061901,-0.425419,1.0,0.0,0.0,0.0,63.294462616163834
2.4129,6913.4152,-2.5409485180673315,-1.2830496549724597,-1.6415369182336068,3.290879421972518,-1.6661244043255763,-4.116638777839067,1.6968719801475984,10.918191663173491,-31.377432980881512,-52.353119,-61.985841321061045,0.0,52.35311899999999,0.8272735397118415,0.082473,-0.30466899,-0.46475101,1.0,0.0,0.0,0.0,68.36065032433294
2.43,6913.4352,-2.8769852317253104,-1.164858839620305,-2.5303180190453043,3.4108122508845655,-1.4791180328922306,-4.1449097802683665,1.156106550681132,10.35702092418809,-30.918430934501394,-57.910095,-67.95702696323329,0.0,57.910095,0.8010331226109192,0.099628,-0.30511001,-0.50529999,1.0,0.0,0.0,0.0,73.54225629069259
2.4498,6913.4553,-3.1247633528956547,-0.8557578707814978,-3.2941476183335556,3.5277390636828283,-1.3103774848292657,-4.108829234178642,0.24196943772322577,9.735694270628748,-30.653247369747845,-64.112503,-74.06023991061477,0.0,64.112503,0.7735409077115439,0.112651,-0.30056599,-0.54644698,1.0,0.0,0.0,0.0,78.65413423793103
2.4714,6913.4753,-3.3051254350048214,-0.40025878574457185,-3.895719005369382,3.6335841930967545,-1.221810047305752,-4.036120833477386,-0.967643808804235,9.238222398375738,-30.50895642206508,-70.503876,-79.73936098416382,0.0,70.503876,0.7462352981512594,0.124954,-0.29135999,-0.58534497,1.0,0.0,0.0,0.0,83.46937663509495
2.4904,6913.4953,-3.439387431314601,0.17283856582440138,-4.31494808944917,3.671711792612615,-1.2521685482858866,-3.978761827703901,-2.288902761557221,9.244822370326398,-30.36396727527427,-77.216911,-85.01666705840681,0.0,77.216911,0.7183587800703208,0.139946,-0.276867,-0.62267202,1.0,0.0,0.0,0.0,88.16171200739075
2.5112,6913.5154,-3.505834379679075,0.9321712581553178,-4.533467166831234,3.5642251635978033,-1.4690798461019423,-3.9720663061096237,-3.4854682306347957,9.805579390667882,-30.184676831935104,-84.591202,-90.63795608697427,0.0,84.591202,0.6867073986642046,0.15435401,-0.26002699,-0.66105503,1.0,0.0,0.0,0.0,93.25993448064017
2.5317,6913.5354,-3.4334625070542297,1.8597656280554065,-4.583134292683414,3.2831979025181255,-1.8339973090938673,-4.022784270782401,-4.425067208747802,10.813408584610166,-29.92577250807873,-92.310204,-96.64924141152063,0.0,92.310204,0.65102514805654,0.166867,-0.243811,-0.69919801,1.0,0.0,0.0,0.0,98.76212338795476
2.5525,6913.5554,-3.1383347937815342,2.8782451900050514,-4.583249626709156,2.8714228798346038,-2.2366939869217455,-4.108020706330425,-4.953570293457155,11.993508862601159,-29.60006260627537,-99.990753,-102.98199815546485,0.0,99.990753,0.6117145471711456,0.177972,-0.232114,-0.73501998,1.0,0.0,0.0,0.0,104.57284119441097
2.5716,6913.5754,-2.553261801929167,3.8812442854622513,-4.679617199040098,2.4322550256358926,-2.502395467897044,-4.2118161081801295,-4.957057325526314,13.159916518160108,-29.246887977778474,-107.496407,-109.48384039205814,0.0,107.496407,0.5696353915830539,0.190542,-0.226899,-0.76663297,1.0,0.0,0.0,0.0,110.55039117393234
2.5984,6913.5955,-1.7044078019726514,4.773838247183826,-4.899652031541416,2.1334663552455115,-2.42242138251921,-4.318063103958714,-4.364905539651774,14.333548160463742,-28.856585745031172,-114.738914,-115.57126412803564,0.0,114.738914,0.5277020085001003,0.211615,-0.22656401,-0.79083401,1.0,0.0,0.0,0.0,116.29936022387581
2.6119,6913.6155,-0.5432836061123636,5.615794190957578,-5.09287755813135,1.9877642222181982,-1.950166610265949,-4.3667087491605825,-3.5617053052744723,15.337353547885439,-28.46706082733875,-121.683464,-121.27685919820294,0.0,121.683464,0.4874449278948335,0.235175,-0.22799399,-0.80938798,1.0,0.0,0.0,0.0,121.65443600859628
2.6317,6913.6355,1.144810875177657,6.368467672824099,-5.018539390307338,1.7952270550433795,-1.184343703151391,-4.283018720869931,-2.739691244822451,16.40869192002014,-27.985325154704867,-129.821884,-128.7382178199585,0.0,129.821884,0.4371307253449927,0.24646799,-0.22579201,-0.83497798,1.0,0.0,0.0,0.0,128.15809413276358
2.6525,6913.6556,2.985245430559753,6.7370148500354246,-4.398764587565905,1.5951485083827883,-0.12241825614964785,-3.9488027929637366,-1.7762904911091901,18.15248276686492,-27.07947148239575,-138.454636,-136.4095233996307,0.0,138.454636,0.3811115397141627,0.25575501,-0.209567,-0.86338001,1.0,0.0,0.0,0.0,135.19489801788757
2.6736,6913.6756,4.4450017772576755,6.794200796739653,-3.3467284256149155,1.3517691297331198,1.0062698184997783,-3.302369100939533,-0.9828281695216727,19.913848009103113,-26.091401884296026,-144.67482,-141.7931752105405,0.0,144.67482,0.3372494585523597,0.26369601,-0.185728,-0.88443899,1.0,0.0,0.0,0.0,140.58123090356483
2.6912,6913.6956,5.49428781002424,6.574919951802185,-2.172902604704677,0.9957905068593003,1.9706710879573406,-2.468178977988525,-0.5651988869167557,21.394007601364706,-25.270073526275645,-148.363312,-145.28429842679333,0.0,148.363312,0.3063438889118566,0.26046801,-0.160322,-0.901447,1.0,0.0,0.0,0.0,144.32193247961246
2.713,6913.7156,6.0622310170498395,6.172621733084103,-1.123521647771538,0.6730436801849717,2.6431281806877873,-1.57711131050775,-0.24339921928589625,22.3825958469678,-24.847979044973634,-150.246033,-147.40778397433485,0.0,150.246033,0.2871111294313402,0.249029,-0.141112,-0.91413301,1.0,0.0,0.0,0.0,146.62983529956594
2.7327,6913.7357,6.267794507029991,5.731203781419558,-0.38864087073583065,0.5436010187981866,2.989535469754487,-0.7589801766898154,0.10014546866649177,22.670480717714042,-25.027049516568525,-151.227234,-149.0647745622102,0.0,151.227234,0.2745465459221068,0.227902,-0.13372,-0.92455602,1.0,0.0,0.0,0.0,148.13001381823128
2.7556,6913.7557,6.067089529608027,5.238772146805333,0.26297459025747116,0.6155484909978539,3.087713302908735,-0.016502554851363538,0.37606318069345335,22.874279948653562,-25.24615183358796,-151.52948,-149.90717685887208,0.0,151.52948,0.2676470610388613,0.205928,-0.12617201,-0.93275899,1.0,0.0,0.0,0.0,148.95139775580353
2.7746,6913.7757,5.414208167237384,4.668468252225855,1.110283091387064,0.6950770125971322,3.0199790527828276,0.664014988685349,0.3408095356520189,23.595232190646332,-24.99965901853097,-150.656738,-149.07970337275228,0.0,150.656738,0.2708954143834478,0.19195101,-0.106465,-0.937249,1.0,0.0,0.0,0.0,148.56488767456446
2.7936,6913.7958,4.439036460976125,3.9481164746953596,2.19484825196505,0.5982959180376289,2.8566801653918157,1.2615015290670843,0.2513500367848689,24.85000102625398,-24.266399062298294,-149.042953,-147.13089258327827,0.0,149.042953,0.2808873043118889,0.188539,-0.076007,-0.93796498,1.0,0.0,0.0,0.0,147.37366213780462
2.8151,6913.8158,3.6013587470063313,3.2027343271726165,3.1894002739106373,0.3032543325207093,2.6631352587872215,1.7379534102413385,0.0947806368834776,26.067348133246256,-23.578716824335086,-147.284958,-145.22624290213838,0.0,147.284958,0.2915594542280509,0.18158901,-0.04543,-0.93805897,1.0,0.0,0.0,0.0,146.0973172822626
2.8335,6913.8358,2.960528067606825,2.684102146722012,3.855420746787722,-0.1177962336117594,2.505528040204479,2.142095757471644,0.03780539364357338,26.818320343750063,-23.416681563125202,-145.422043,-143.50991766265943,0.0,145.422043,0.3037788305525578,0.168375,-0.024664,-0.93742198,1.0,0.0,0.0,0.0,144.63057897820082
2.8593,6913.8558,2.1697953927000215,2.4768721268279084,4.11317672576366,-0.5698012824936057,2.405523369243272,2.5435541181343626,0.27896299010693504,27.037166434096246,-23.841134796977602,-142.808746,-141.01436060870483,0.0,142.808746,0.3240450864703847,0.15795501,-0.017113,-0.93260503,1.0,0.0,0.0,0.0,142.184536232133
2.8716,6913.8759,1.4239855234139078,2.5575036917884737,3.947464539587367,-0.8396785124833028,2.357386252447516,2.96818102311182,0.6233758165851011,26.613284824729682,-24.85477829611551,-139.609344,-138.0801560476653,0.0,139.609344,0.3498636258212614,0.142205,-0.021057,-0.92570502,1.0,0.0,0.0,0.0,139.0420518200033
2.9001,6913.8959,0.9395334071029264,2.7053590651292336,3.5957008689163956,-0.8003412157352837,2.2900766567104576,3.4525849304296927,0.8541125841147839,25.784271056300984,-26.026592313743645,-136.300079,-135.25407706113393,0.0,136.300079,0.3757299970750273,0.116347,-0.026317,-0.91902,1.0,0.0,0.0,0.0,135.86112340902943
2.9211,6913.9159,0.43214696331443386,2.5559920153083175,3.418943211718224,-0.6249617587563281,2.0113926713348693,3.9901479751105375,0.9125040761014365,25.323807750128047,-26.524763714289357,-132.409439,-131.66523672887016,0.0,132.409439,0.405654986194845,0.094995,-0.019698,-0.90886301,1.0,0.0,0.0,0.0,132.1356430848697
2.9369,6913.9359,-0.1653845274863841,2.102416814335404,3.5399267295358534,-0.5099308048352458,1.4158417616458279,4.470262176318158,0.6011236288875015,25.322851716900225,-26.360161910557892,-127.600777,-126.98947532616431,0.0,127.600777,0.4424716822358686,0.08162,-0.001604,-0.89305902,1.0,0.0,0.0,0.0,127.47661831525156
2.9524,6913.9559,-0.8683120262744733,1.4604721332533692,3.85543421914063,-0.5584032894183004,0.5049855340123637,4.749703602678714,-0.04947863145836173,25.452911703460813,-25.94564784384032,-122.022804,-121.4972137433072,0.0,122.022804,0.484489470872546,0.075712,0.018929,-0.87130898,1.0,0.0,0.0,0.0,122.04194130920335
2.9707,6913.9759,-1.6643040009757788,0.7938062754336747,4.133655141659945,-0.7153205736027224,-0.6284028722113623,4.7535154550778405,-0.8971235431613582,25.31034104575076,-25.733039468037852,-116.119362,-115.63806608300143,0.0,116.119362,0.5281746861375882,0.075121,0.031407,-0.84522301,1.0,0.0,0.0,0.0,116.23558302810574
2.9939,6913.9959,-2.517468259838974,0.33492140058567177,4.133421521382067,-0.8129903944839629,-1.803120066370077,4.543304913329244,-1.757280051662331,24.50251581539325,-26.095913134329404,-110.376724,-109.82321587685983,0.0,110.376724,0.5703693284013787,0.076634,0.027266,-0.81735098,1.0,0.0,0.0,0.0,110.4480316753959
3.0196,6914.0159,-3.4204260557469413,0.15570161096166013,3.6827401752256517,-0.7283848246227671,-2.8371779804251505,4.288311795795727,-2.392737434091411,22.974173430560523,-27.008465928075662,-104.975044,-104.23620549573869,0.0,104.975044,0.6093540996399053,0.081552,0.005195,-0.78867602,1.0,0.0,0.0,0.0,104.91437039329824
3.0349,6914.0359,-4.28918259743252,-0.03045707756645999,2.7172816203114056,-0.5012795071135636,-3.6469598711696483,4.093686371437127,-2.578716475371424,21.44757097938457,-27.829137052413977,-100.254234,-99.2179793816282,0.0,100.254234,0.6415694256547767,0.097895,-0.023288,-0.760436,1.0,0.0,0.0,0.0,100.18210517341883
3.0577,6914.0559,-4.8692602941256435,-0.5562567622229808,1.345586557759077,-0.24599443895849404,-4.242710956004697,3.9197158299639447,-2.696731935871247,20.96188916706528,-27.864014594423388,-96.390953,-94.55296999329505,0.0,96.390953,0.6665648937297102,0.131189,-0.039566,-0.73274499,1.0,0.0,0.0,0.0,96.39501589668835
3.0749,6914.0759,-5.065431395901927,-0.8773711087336026,-0.2087034568699231,-0.07781171806803844,-4.443292743802356,3.964379803654655,-3.0688725082967228,20.420107089647658,-28.07569945457547,-92.461464,-89.63506240468998,0.0,92.461464,0.6902879641604792,0.16289701,-0.055078,-0.70280403,1.0,0.0,0.0,0.0,92.69418390051464
3.0931,6914.0959,-5.031169812218861,-0.9839309530975754,-1.7697595727777564,-0.12583691943484143,-4.280473125953126,4.281553902153175,-3.3242168390261373,19.661116862515822,-28.694143521577175,-88.182205,-84.48322372083888,0.0,88.182205,0.7136156639235156,0.188729,-0.074131,-0.670551,1.0,0.0,0.0,0.0,88.94027524676967
3.1166,6914.1159,-4.919791007510467,-1.067343282450132,-3.2404466902669853,-0.45069319414045816,-3.8539758041691936,4.821139830030717,-3.145304126516372,18.762026510396627,-29.664296532355372,-83.253288,-79.04503114834391,0.0,83.253288,0.7371379234281461,0.20816199,-0.09807,-0.63535702,1.0,0.0,0.0,0.0,85.02364421253432
3.134,6914.1359,-4.685510331663954,-1.534611151672118,-4.491236368405367,-0.9234825025732828,-3.4259824286048475,5.405026135977364,-3.2176003505332247,18.400858521651436,-30.37141275431759,-77.533058,-72.82479879074984,0.0,77.533058,0.7632024184690456,0.224227,-0.111735,-0.595617,1.0,0.0,0.0,0.0,80.50532952247765
3.1589,6914.1559,-4.331290079009587,-2.436834836840998,-5.4402602067290395,-1.4576216448492048,-3.0926080041372095,5.996721098094211,-3.6501682388409993,18.052501035240283,-31.05048330883749,-70.698448,-65.97738714126164,0.0,70.698448,0.7930656318426614,0.231067,-0.11971,-0.550749,1.0,0.0,0.0,0.0,75.05414077244961
3.1719,6914.1759,-3.7280139099157372,-3.8211584703141055,-6.013302661058374,-1.9117318944488337,-2.919006728275006,6.512970418132273,-4.425571574038067,17.27308024755082,-31.910907941499953,-62.029251,-58.00341742380762,0.0,62.029251,0.828619017137152,0.227705,-0.12678801,-0.49544501,1.0,0.0,0.0,0.0,68.0857241560377
3.1976,6914.1959,-2.7418937941462036,-5.409273183467349,-6.098476025035179,-2.2295982215335517,-2.8275498227764917,6.887869830930905,-4.995857037055726,15.651837890227288,-33.19713214916743,-51.806316,-49.32979971542537,0.0,51.80631600000001,0.8658889132391174,0.211778,-0.141404,-0.43057099,1.0,0.0,0.0,0.0,60.03127393747011
3.217,6914.216,-1.3556021906489164,-6.850359520934257,-5.777515548855815,-2.348161297396091,-2.9080805828735663,7.044105936083918,-5.29140530823553,14.013057319180508,-34.46711433126505,-41.65667,-40.653975105491355,0.0,41.65666999999999,0.8983185084816854,0.1919,-0.15777899,-0.36235899,1.0,0.0,0.0,0.0,52.12416913345077
3.2342,6914.236,0.34804961469024454,-7.857192594274346,-5.347672022109187,-2.277111883875882,-3.2568827492389927,6.9616045150994506,-5.482590147836018,13.035700202476166,-35.454401263562374,-31.801529,-31.69995191029224,0.0,31.801528999999988,0.9241240742013488,0.17738999,-0.173039,-0.29083499,1.0,0.0,0.0,0.0,44.92671732841313
3.2564,6914.256,2.173109855348958,-8.218970134415914,-4.945920094224377,-2.097335880597158,-3.768418145093865,6.709042194553313,-5.553828371228517,12.482773546109074,-36.27780272300759,-21.949423,-22.395461347013597,0.0,21.949422999999996,0.9427916730630368,0.166071,-0.192249,-0.215881,1.0,0.0,0.0,0.0,38.94841168608579
3.2729,6914.276,3.812491626846516,-7.932515678816093,-4.530667664206973,-1.9471275668648556,-4.275435859714348,6.387946556358812,-5.086705098347058,12.002375901021226,-37.0607269855878,-12.339401,-13.06935798641911,0.0,12.33940100000001,0.9522260352549072,0.15343601,-0.223327,-0.140883,1.0,0.0,0.0,0.0,35.56375517105315
3.299,6914.2961,5.165549930567159,-7.228544634606927,-4.149215771622545,-1.8374711486832092,-4.705411335213978,6.068956375696365,-4.3122341025707325,11.858700164607578,-37.599566288977215,-3.592793,-4.001583552083528,0.0,3.5927930000000003,0.951982367639233,0.141642,-0.262146,-0.070332,1.0,0.0,0.0,0.0,35.65507194917817
3.325,6914.3161,6.226076089213538,-6.230260242121265,-3.646716834652091,-1.8481293607232898,-4.912877906737326,5.790887658550909,-3.083560455311781,11.829170018303218,-37.93870451690508,4.591131,5.485623189235202,0.0,4.59113099999999,0.9420705950524088,0.12906601,-0.30958599,-0.001214,1.0,0.0,0.0,0.0,39.19551030419469
3.3442,6914.3361,7.006956829996714,-5.064899679683899,-2.9626080359296116,-2.0174977250261774,-4.883369813644667,5.4599717218516925,-1.5832457981949641,12.222921585471497,-37.93932130968812,12.301079,16.045815134969516,0.0,12.301078999999987,0.9222336829235092,0.119661,-0.36151701,0.066871,1.0,0.0,0.0,0.0,45.49030590801421
3.3563,6914.3562,7.5028705819878745,-3.7801382282013347,-2.074880730701686,-2.2895069948101625,-4.6452314249950675,5.006928206227652,-0.42068660723391105,12.971014851197712,-37.593738025083006,19.494003,27.868373171728113,0.0,19.494002999999992,0.8952422081982617,0.112894,-0.409711,0.13391501,1.0,0.0,0.0,0.0,52.92088471805016
3.3758,6914.3762,7.550262213131445,-2.368460474987609,-0.9553229974163227,-2.6245397824259746,-4.233283133582079,4.458059374647787,0.4176089444858686,13.384308896165683,-37.2056528438301,25.872288,40.45923413030681,0.0,25.872287999999998,0.8636387838752494,0.099732,-0.45165801,0.20046601,1.0,0.0,0.0,0.0,60.54473248572085
3.394,6914.3962,7.105917705276411,-1.036154702670943,0.13430236833212028,-2.9329572042661383,-3.7794345778347287,3.879763575127879,1.0345441480065265,13.370919887686451,-36.934478104112095,30.705179,51.989151014247525,0.0,30.705178999999987,0.8319371697674048,0.076746,-0.48421901,0.25985101,1.0,0.0,0.0,0.0,67.40350107727959
3.411,6914.4162,6.383332169908872,-0.07785498623045406,0.8923694520273155,-3.107532823908758,-3.4600625164595193,3.37755895786163,1.4823614175282085,13.457087409123966,-36.69982495745882,33.984085,61.33259442460684,0.0,33.98408499999999,0.8038528440164902,0.05005,-0.50718498,0.306723,1.0,0.0,0.0,0.0,73.00077378750356
3.433,6914.4363,5.646719951698883,0.5041010504071872,1.2491570225413575,-3.0864544425339835,-3.3903480607609415,3.0837826200469367,1.727938676252128,13.757572312489543,-36.50509066252428,36.976742,69.73597487631775,0.0,36.976742,0.7774059210223183,0.025688,-0.52291697,0.34862301,1.0,0.0,0.0,0.0,77.95265245664852
3.4525,6914.4563,5.018516539979267,0.7293924697891843,1.3559605466386166,-2.943272754392567,-3.572080737606048,3.0197126540759855,2.0344772435563225,14.314155287980997,-36.27781330437918,40.228264,78.70128311137073,0.0,40.228263999999996,0.7475146448511895,0.005348,-0.537745,0.389902,1.0,0.0,0.0,0.0,83.24891006491494
3.4785,6914.4763,4.589406105463963,0.5213391002387056,1.4300017857438014,-2.801725559371776,-3.9420731570471954,3.091774641170319,2.498915894016182,15.580329771387627,-35.6901599637571,43.181316,88.53945836444453,0.0,43.18131600000001,0.7124289491978548,-0.008138,-0.55763698,0.42593399,1.0,0.0,0.0,0.0,89.13422694773189
3.4951,6914.4963,4.284679195803564,0.18594654591582138,1.6608667704628282,-2.7418456691945106,-4.380752177418688,3.2358691589404343,3.0812465240227453,17.179927344826247,-34.68756457560518,45.843758,99.97146342895871,0.0,45.84375800000001,0.6689565361823143,-0.019724,-0.583332,0.46025199,1.0,0.0,0.0,0.0,96.02683846995482
3.5143,6914.5164,4.076702078935888,0.10617895208591399,2.083256582643786,-2.7930997068442927,-4.7207716500009,3.487104692596003,3.4249587099840966,18.365595818843133,-33.540379563252564,48.377106,111.62972914277803,0.0,48.377106,0.6209695837821848,-0.037303,-0.60631901,0.495361,1.0,0.0,0.0,0.0,103.22605352207135
3.5456,6914.5364,3.8451769938617217,0.39427580272710916,2.6346958442056057,-2.9211904616490285,-4.923971974421381,3.783392358198048,3.3377879531045647,19.250902432199084,-32.28496183530104,51.076042,123.0194437510819,0.0,51.076042,0.5691032452907285,-0.058257,-0.62510902,0.53100502,1.0,0.0,0.0,0.0,110.62456806442377
3.5651,6914.5564,3.4956991462486493,0.9765296283110265,3.175955096385831,-3.065395905783403,-5.040807906277912,4.0038069273007,2.7824093203936346,20.17833246286096,-30.90930471694054,53.970257,134.01560175996656,0.0,53.970257000000004,0.512039578097611,-0.076985,-0.64216298,0.56525701,1.0,0.0,0.0,0.0,118.4004384791531
3.587,6914.5765,3.072279969606825,1.8375990726861406,3.5615033749990914,-3.1485196170039202,-5.10250821193718,4.114990430270493,1.7429436859322642,20.941187467357864,-29.728792663673904,57.698418,143.9609800520484,0.0,57.698418000000004,0.4506718359975911,-0.091674,-0.65543598,0.599078,1.0,0.0,0.0,0.0,126.42640715230829
3.5993,6914.5965,2.622850771703243,2.8896221601319505,3.7316745638804587,-3.170188756058845,-5.098143399432303,4.119723485508967,0.7073454958707188,21.285881613891195,-28.988016187825533,62.514988,152.6099035003153,0.0,62.51498800000002,0.3891516736254123,-0.10668,-0.66290802,0.63066101,1.0,0.0,0.0,0.0,134.19655129405388
3.6138,6914.6165,2.106751317967279,3.952330323036443,3.7301317062418153,-3.035606381142931,-5.106563804950965,4.026093854140324,-0.323721557324804,21.393535273551358,-28.553059160168868,69.56002,160.309099453434,0.0,69.56002000000001,0.3253930321460784,-0.117905,-0.66695601,0.65983897,1.0,0.0,0.0,0.0,142.02122316729367
3.6332,6914.6365,1.514401931472877,4.845843931471901,3.63249019957785,-2.772928498481445,-5.098077926759625,3.920878080701201,-1.2133884657423373,21.36197959427701,-28.30540958619431,80.846497,167.08597730233663,0.0,80.846497,0.2629781503110832,-0.127139,-0.66795403,0.68448198,1.0,0.0,0.0,0.0,149.50630258875125
3.6509,6914.6566,0.7439548426355638,5.325646082733411,3.5620905468581707,-2.564219025061783,-5.027162148991727,3.818909285853336,-1.4099303105335528,21.518176179300067,-27.98963986381055,100.46489,173.75600772787655,0.0,100.46488999999997,0.2046623305336855,-0.141965,-0.67027098,0.69906801,1.0,0.0,0.0,0.0,156.38053416330948
3.6842,6914.6766,-0.19825419310355202,5.378101317514768,3.532670567205617,-2.428805549692717,-4.9002293195378375,3.7486711575978844,-1.3758662168257052,21.908235546913357,-27.480308388596356,-175.006363,-179.75817589791535,0.0,175.006363,0.1480891422061022,-0.157437,-0.675376,0.70508897,1.0,0.0,0.0,0.0,162.9675884894351
3.7006,6914.6966,-1.216281416875992,5.280955175353141,3.414380837302028,-2.316067762891685,-4.686048409745765,3.747193158720668,-1.7010126532121799,22.085239217626697,-27.048630135744723,-122.664642,-173.94008008749287,0.0,122.664642,0.0901433222213372,-0.16690899,-0.67844599,0.709737,1.0,0.0,0.0,0.0,169.6562952721691
3.7115,6914.7167,-2.184941633841899,5.245974125314187,3.102729637862705,-2.2099568744734173,-4.354854755298286,3.7597443999007107,-2.2202899804488956,21.847959649532285,-26.91228779345367,-114.536652,-168.85655536063356,0.0,114.536652,0.0319644607340644,-0.170812,-0.67581499,0.71629298,1.0,0.0,0.0,0.0,176.33651858420117
3.7398,6914.7367,-3.051839990168026,5.222391991906092,2.590269659763347,-2.0471292072229987,-3.9574017887090642,3.681304067962781,-2.6687071692149926,21.465535365601163,-26.941733052300204,-110.563889,-164.21804256692926,0.0,110.563889,0.0269480589044672,0.16938099,0.67036402,-0.72193903,1.0,0.0,0.0,0.0,176.911606042945
3.7606,6914.7567,-3.6203259852263994,5.232185819874292,1.909370475213807,-1.8061365418882724,-3.4993655997422737,3.5406495770674846,-2.8228365443186467,21.049013521955114,-27.102330434173723,-107.97438,-160.1776745599322,0.0,107.97438,0.081067695791974,0.164828,0.66249901,-0.726192,1.0,0.0,0.0,0.0,170.70012089738742
3.7715,6914.7767,-3.734615012699659,5.212864359196981,1.2128592351698,-1.541921406412833,-3.0191641767301545,3.4008604375612776,-2.3938005453732423,20.982032996721735,-27.11842257499337,-105.486252,-156.90627943902803,0.0,105.486252,0.1219655132965049,0.162916,0.65646601,-0.726385,1.0,0.0,0.0,0.0,165.98889691594187
3.8042,6914.7967,-3.4733056284044252,5.098220532504241,0.6361427527067889,-1.2433477391684011,-2.5833028516265157,3.3553821309669334,-1.7553315709017632,21.302850647278667,-26.89358632841081,-102.397606,-154.53260543464341,0.0,102.397606,0.1523526476402693,0.159988,0.655402,-0.722247,1.0,0.0,0.0,0.0,162.47341873801346
3.8111,6914.8167,-3.124033470573777,4.894151228516917,0.19616774379344015,-0.9016258454737045,-2.220980218252555,3.438712012996727,-1.3130501241263772,21.683515926410777,-26.6460772224764,-98.529579,-152.57700795494242,0.0,98.529579,0.1832197718011311,0.15084399,0.65719497,-0.71538198,1.0,0.0,0.0,0.0,158.88528223828607
3.844,6914.8367,-2.783556006954446,4.640948083419049,-0.09299305442801398,-0.49570054578357414,-1.909585577299957,3.6170394092855798,-1.4178101115521287,21.870298971945495,-26.60102754859404,-94.525887,-151.14845590290045,0.0,94.525887,0.2160323678336163,0.13221,0.65903199,-0.70818597,1.0,0.0,0.0,0.0,155.04779780869478
3.8585,6914.8567,-2.5424687548195424,4.261963399375567,-0.22948546863202246,-0.075099023733874,-1.638512718446739,3.810219531440665,-1.715042824679843,22.027649586990425,-26.658637284907197,-90.197304,-149.7743865588017,0.0,90.197304,0.2483416020380387,0.112596,0.66141701,-0.69869602,1.0,0.0,0.0,0.0,151.2412031676054
3.8791,6914.8767,-2.427107532883408,3.572529003395738,-0.20830373647933165,0.3279287754399305,-1.4409106306271453,3.9664071464904236,-2.1329148843492103,22.536741452655853,-26.47652949383193,-84.299194,-148.32953806897174,0.0,84.299194,0.2786442770432574,0.096728,0.66917199,-0.68206298,1.0,0.0,0.0,0.0,147.64138483038806
3.8951,6914.8967,-2.374822522470365,2.625978125676177,-0.1332129240457789,0.7265296921683526,-1.265809485202941,4.081384758547117,-2.9880813053932993,23.096751696738533,-26.21205451049109,-77.432182,-147.20543828956664,0.0,77.432182,0.3077779775003728,0.079059,0.68013901,-0.660631,1.0,0.0,0.0,0.0,144.14925598590926
3.9183,6914.9167,-2.3206866395692005,1.5774082291754674,-0.10192982617056146,1.1120197551609423,-1.0420808650957922,4.148891293068452,-4.1810240833492145,23.295133807651165,-26.152052574503482,-70.803833,-146.4911303212978,0.0,70.803833,0.3360003849165051,0.057209,0.68962598,-0.638942,1.0,0.0,0.0,0.0,140.73323537404013
3.9462,6914.9367,-2.2276179902126567,0.4856472105160923,-0.15031740745615352,1.4519660927794897,-0.7514731390760957,4.16962557827189,-5.496515176667,23.11195830215498,-26.284877046501535,-64.29406,-146.08477236886722,0.0,64.29406,0.3638912944662449,0.031628,0.69730502,-0.61672401,1.0,0.0,0.0,0.0,137.32126601621383
3.9616,6914.9567,-2.103833418860665,-0.7375160267537377,-0.31414926734271553,1.6695092481840688,-0.5030663985918694,4.182509962115315,-6.442945261273476,23.23101573874924,-26.102064202464145,-56.917622,-145.7952750754423,0.0,56.917621999999994,0.3891139812084367,0.011441,0.70914698,-0.587852,1.0,0.0,0.0,0.0,134.20124009001378
3.9745,6914.9768,-1.9336579269818355,-1.883267876118756,-0.591782480268991,1.76491267455148,-0.3234196467493219,4.253327668277349,-6.889006289802209,23.602864174223694,-25.719992365442966,-49.715881,-146.1173701844243,0.0,49.715880999999996,0.4071607507901517,-0.003008,0.724186,-0.556566,1.0,0.0,0.0,0.0,131.94679609082016
3.9943,6914.9968,-1.7485865778555074,-2.7458874590471503,-0.8483674762682316,1.8260081257592224,-0.17583176782036425,4.382960233171156,-6.901539920268485,23.80180483679712,-25.532284828424636,-43.399242,-147.25093890170615,0.0,43.399242000000015,0.4186730593721308,-0.016916,0.73849899,-0.52824801,1.0,0.0,0.0,0.0,130.49831901509194
4.0242,6915.0168,-1.5239781432155213,-3.2540155408411406,-0.8964816956355612,1.9746902792758247,0.1147508857169679,4.473410910852793,-6.922256335040512,23.09138875342416,-26.111566616431197,-37.319225,-148.94010623803297,0.0,37.31922500000002,0.4344325798553095,-0.043573,0.74544501,-0.50366801,1.0,0.0,0.0,0.0,128.50161289888462
4.041,6915.0369,-1.2276623746421684,-3.4711980405431584,-0.6849314289049637,2.2409464759454294,0.7073730487293961,4.381597593908067,-6.835370796150006,21.251636722813565,-27.59126456911257,-31.086985,-150.8367976480225,0.0,31.086985,0.4589936361249028,-0.08569,0.74182898,-0.481323,1.0,0.0,0.0,0.0,125.3556245456875
4.0643,6915.0569,-0.8772831901402027,-3.73639072844549,-0.4265687606688502,2.512047630559291,1.4740769190183323,4.097959005243252,-6.0791515936790255,19.494760913080558,-29.059712084945772,-24.309261,-152.9464280489039,0.0,24.309260999999992,0.4862713796199803,-0.126561,0.73714697,-0.45181501,1.0,0.0,0.0,0.0,121.8083932656307
4.0829,6915.0769,-0.3271049293684718,-4.353937630884783,-0.3741538184110329,2.7871864661950143,2.052339288897056,3.7967726033754072,-4.941878973356337,19.324593448977513,-29.580567076595766,-16.886686,-158.1309117484875,0.0,16.886685999999997,0.4948391248587768,-0.146424,0.751077,-0.411798,1.0,0.0,0.0,0.0,120.68171478183244
4.0958,6915.0969,0.4460609959807984,-5.012802792558307,-0.50983708658217,3.039592107172923,2.31695835215926,3.6210171044496193,-4.122540230892465,19.73736496133529,-29.800249264984327,-10.037966,-166.46369406612735,0.0,10.037966000000011,0.4784828717211096,-0.15296499,0.77967,-0.37385899,1.0,0.0,0.0,0.0,122.82727445045988
4.1216,6915.117,1.3649374170735076,-5.386674061350472,-0.6572186033944352,3.105997112475301,2.3769463111434996,3.6138158799326066,-4.069783730822252,19.50229039784282,-30.46150756923406,-2.992163,-175.8961711575832,0.0,2.992163000000005,0.45926654306176,-0.169597,0.80396998,-0.33755499,1.0,0.0,0.0,0.0,125.32042202287693
4.1339,6915.137,2.2329317711145005,-5.329531245536661,-0.6116824377842605,2.951280265168988,2.382403784691241,3.722153379899926,-4.1674971184142775,18.377376457784976,-31.69896342385588,4.172553,173.86413134327634,0.0,4.1725529999999935,0.457308283883137,-0.20291799,0.811674,-0.30146101,1.0,0.0,0.0,0.0,125.57289617935743
4.1592,6915.157,2.8523714187487963,-4.936186908209628,-0.3117042705230695,2.733930031899878,2.3991380325424627,3.8187864924975834,-3.5607279761801927,16.74883877655798,-33.18948833722025,10.443764,162.80014391742895,0.0,10.443763999999987,0.4705745767331251,-0.241154,0.80542201,-0.267768,1.0,0.0,0.0,0.0,123.8567999642099
4.1735,6915.1771,3.3394912805752703,-4.5437943364893485,0.020616421362186443,2.723216334123087,2.3627697406640755,3.8126706364568386,-2.528363611240067,15.268091851234828,-34.43398996624998,15.087323,153.40939451963118,0.0,15.087322999999998,0.4777938020460906,-0.26636699,0.80279797,-0.23722801,1.0,0.0,0.0,0.0,122.91717876812749
4.1921,6915.1971,3.9861247482765245,-4.204028704587509,0.19147862027559626,2.904567893166268,2.286676133822212,3.7188247829273022,-1.7514332023623913,13.804592702898905,-35.47861606732269,19.035166,146.35075628955408,0.0,19.035166000000004,0.4739130676534038,-0.282552,0.80791301,-0.20699599,1.0,0.0,0.0,0.0,123.4227929210609
4.2136,6915.2171,4.8786952742875185,-3.8348551566902946,0.08572711699549984,3.108135871749089,2.1665594165363866,3.5611791120335368,-1.2302509033525997,12.39434955272576,-36.425130938644784,23.021225,140.02536289504062,0.0,23.021225000000015,0.466796138434241,-0.297775,0.81470197,-0.172314,1.0,0.0,0.0,0.0,124.34694577879701
4.233,6915.2371,5.872433830271518,-3.2371832450725817,-0.23719697264498585,3.1585777547382117,2.062627627612775,3.3118872783352167,-0.5955857759883258,11.271818848207099,-37.31471672939786,27.766907,131.86463289195487,0.0,27.766907000000003,0.466685862752858,-0.32018301,0.81427598,-0.129003,1.0,0.0,0.0,0.0,124.36123427637979
4.2519,6915.2572,6.6078570621825605,-2.401152430943232,-0.5354036964784079,3.049583702803222,1.983381232205883,2.925427223781705,0.6692958515252343,10.670775036746676,-38.12955725444285,32.262318,123.48129054627555,0.0,32.26231799999999,0.4750222228511207,-0.34277201,0.80625701,-0.082528,1.0,0.0,0.0,0.0,123.2784060691174
4.2792,6915.2772,6.95341661873703,-1.4378631801953867,-0.6358221770188095,2.9314201661015593,1.9716843051665278,2.3290585989515935,1.9746399140872501,9.918256692256872,-38.98891191466856,35.738846,118.32303679977568,0.0,35.738845999999995,0.4775664472010569,-0.35879099,0.80072099,-0.045224,1.0,0.0,0.0,0.0,122.94683379705823
4.3001,6915.2972,6.704270357763537,-0.6587299838967695,-0.3252732304687864,2.81587875610818,2.074259309739638,1.7097137398671853,3.542375291872789,9.330237050361543,-39.63280854334786,37.911701,115.43834607932773,0.0,37.911700999999994,0.4800300974087552,-0.366211,0.79702097,-0.014771,1.0,0.0,0.0,0.0,122.62526451701197
4.3258,6915.3173,5.7879158670721695,-0.2852535758493051,0.48423135720313404,2.732839779844565,2.3393771787497597,1.2928113540550803,5.806218171360653,9.2346529736485,-39.72422827293251,38.979237,113.0075128006851,0.0,38.97923700000001,0.4900252585982481,-0.366411,0.79086399,0.012344,1.0,0.0,0.0,0.0,121.31551647455002
4.343,6915.3373,4.64431443261649,-0.2695453605312528,1.4315842930747689,2.7909474047028566,2.7378136127494783,1.1053805896807547,7.817918124843512,9.06030148576254,-39.34463904666353,39.615005,111.93421973486926,0.0,39.615005,0.496108205854771,-0.36262199,0.788064,0.036566,1.0,0.0,0.0,0.0,120.51429347006729
4.3565,6915.3574,3.8781222141479255,-0.2953325130918163,2.0999320012374483,3.007967084047381,3.205877118984202,1.0193522748663195,8.369304899247755,8.136220492768567,-38.91070989113952,41.244873,112.6208824817778,0.0,41.244872999999984,0.4840808855197649,-0.36455101,0.79313099,0.060922,1.0,0.0,0.0,0.0,122.09545586777038
4.3741,6915.3775,3.488292798307607,-0.6003292348653315,2.2937249880536417,3.2705061052578515,3.6498776886887887,1.0660202274009822,8.098532264787757,7.597837067734236,-38.169070153104386,43.846523,113.46755513773776,0.0,43.84652299999999,0.464668225313459,-0.36931601,0.79890698,0.097143,1.0,0.0,0.0,0.0,124.62249544729586
4.4129,6915.3975,3.0556662972499944,-1.4904577948894495,1.9349081933737615,3.469146760698057,3.939449759613803,1.4016102458991977,8.462398471018572,8.285281877592261,-36.76505423661555,46.175644,113.7550898458656,0.0,46.175644000000005,0.4562074745369039,-0.36591899,0.797737,0.14694799,1.0,0.0,0.0,0.0,125.71469557505355
4.4136,6915.4176,2.7942002392895327,-2.343277066362518,1.0199917515584431,3.5829719043350887,4.033670629098505,1.7988571760753975,8.616748181035149,8.684926553645308,-35.3320221835554,48.318359,115.25225844971428,0.0,48.31835899999999,0.4422112207626348,-0.35820699,0.79808801,0.197971,1.0,0.0,0.0,0.0,127.50989790002271
4.4322,6915.4377,2.621401204369154,-2.8205593917697023,-0.11173519416457722,3.580332018505393,3.9644800384642833,2.212426392083323,8.74026432085937,8.570758376342297,-34.08684906028907,50.77224,117.08666911817066,0.0,50.77224000000001,0.422175723279039,-0.352952,0.79783499,0.24627601,1.0,0.0,0.0,0.0,130.05594722128504
4.4547,6915.4577,2.5606510456660043,-2.805509315988286,-1.094698249053371,3.4630906983060634,3.829129238620732,2.6120025869431513,8.969926873012982,8.09665864148803,-33.12712282439187,54.182178,118.3526274463147,0.0,54.18217799999999,0.3969776995284232,-0.356626,0.79388303,0.29150701,1.0,0.0,0.0,0.0,133.22124934194682
4.4747,6915.4778,2.5851890887291145,-2.487738442653996,-1.7263354013488463,3.244036713743197,3.6826433831316483,3.0562016309738795,9.680555578218305,7.909535438527635,-32.22177460168017,58.762016,118.4882455066697,0.0,58.76201600000002,0.374573030347701,-0.36766401,0.78142399,0.33748299,1.0,0.0,0.0,0.0,136.00414806208013
4.4966,6915.4978,2.742645630134221,-1.9378041184119896,-1.9415587233275735,2.9729069101680112,3.598711969550861,3.4902193187412043,10.759348692377603,7.771279763716751,-31.369757849144797,63.922569,118.16346717537934,0.0,63.92256900000001,0.3540833466682653,-0.38225001,0.76388103,0.38078299,1.0,0.0,0.0,0.0,138.52544944512445
4.5139,6915.5179,3.0984405156240356,-1.1845711009404214,-1.8349515963383976,2.6816178561515263,3.6526657701612852,3.86560253142074,11.879580961163594,7.419563919091746,-30.663883782900644,69.298569,118.07070322089086,0.0,69.29856899999999,0.3299579296124281,-0.398458,0.74550599,0.420214,1.0,0.0,0.0,0.0,141.4675559779729
4.533,6915.5379,3.6501556858862387,-0.21754140294375238,-1.5973159289410575,2.3500356028925213,3.86852589819645,4.182046802788545,12.859801533832002,6.975567321987874,-30.132710820384606,75.218079,118.39266992683993,0.0,75.21807899999999,0.297408496281024,-0.41723499,0.72627199,0.458249,1.0,0.0,0.0,0.0,145.39596459990867
4.5598,6915.558,4.276841744254473,0.9321560400923858,-1.382896230440192,1.9328093049405455,4.1719295957091855,4.489164676369284,13.788627092591756,6.7929884938765515,-29.685033553392614,81.919273,119.14352210733833,0.0,81.91927299999998,0.2575146182738757,-0.436827,0.70393699,0.497334,1.0,0.0,0.0,0.0,150.15472131612088
4.5797,6915.578,4.826812723466458,2.1617878710677054,-1.216602168695351,1.388257703058503,4.445805176282811,4.867932426511894,14.797898825607962,7.167893838141279,-29.193344737727976,89.411858,120.32647654547742,0.0,89.411858,0.215218143530276,-0.45407099,0.67677498,0.53803003,1.0,0.0,0.0,0.0,155.14334876671748
4.5984,6915.598,5.182162635362733,3.516464214566015,-1.0866660649214523,0.661590128816159,4.6732286225706305,5.33079857007159,15.827482837555571,7.9411503497801625,-28.630440211492157,97.728569,121.74883931192095,0.0,97.728569,0.1685965791252571,-0.47207099,0.64577502,0.57593298,1.0,0.0,0.0,0.0,160.58753755127412
4.6139,6915.618,5.274748506064853,5.023509795634518,-1.0562250168508633,-0.22577129182338407,4.84440120788265,5.868148588791739,16.776820369741593,8.82839447363949,-28.015715444614123,106.587715,123.42458976878883,0.0,106.587715,0.114738086112671,-0.49171701,0.61338103,0.60729998,1.0,0.0,0.0,0.0,166.8229630146614
4.6368,6915.6381,5.036365563712926,6.681222679042401,-1.2405842584667894,-1.1959191159060953,4.944905864402607,6.467383530362156,17.6389319653913,9.594546598789028,-27.43037286284731,115.705742,125.45439476690026,0.0,115.70574199999999,0.0521728931085719,-0.51178998,0.58153403,0.63021201,1.0,0.0,0.0,0.0,174.01871122199924
4.6669,6915.6581,4.3474773772395725,8.406921780937676,-1.6774213094833055,-2.1550006477978134,4.891783078539323,7.159030893746833,18.280428165772445,10.43471575075694,-26.985517438251108,125.820107,128.19529803939233,0.0,125.82010700000001,0.019532056619808,0.53035599,-0.54708999,-0.64732802,1.0,0.0,0.0,0.0,177.76164884327324
4.6757,6915.6781,3.1364747240171784,9.98066851246166,-2.2532435196439815,-2.9485426717959933,4.608631541975274,7.949984309316683,18.67828783321385,11.405468238984472,-26.719774656854593,137.353729,132.45391408868366,0.0,137.353729,0.0945578618263949,0.543446,-0.50869298,-0.66102701,1.0,0.0,0.0,0.0,169.1482547873119
4.7035,6915.6982,0.976680758723826,11.282795329014899,-2.9256961687149676,-3.680760773019988,4.103752412044422,8.640667327857539,18.755267102855434,12.652733062126213,-26.54689974451741,150.83371,137.62717771025586,0.0,150.83371,0.1783134935540199,0.55974698,-0.463707,-0.66322201,1.0,0.0,0.0,0.0,159.45691807315256
4.7131,6915.7182,-2.1414268583936336,11.800677367779201,-3.651600594200782,-4.266243516267019,3.379065473323565,9.078355122612527,18.143538188585293,14.222938680714318,-26.543947838949904,166.952194,147.19796275579733,0.0,166.95219399999996,0.2727215665102026,0.57726097,-0.41068801,-0.65094399,1.0,0.0,0.0,0.0,148.34743938454045
4.7387,6915.7382,-5.671336283649366,11.0348830796484,-4.302268152997418,-4.594131791030329,2.5104219328011426,9.186777967505073,16.88569941487622,15.80752192656232,-26.731109071427355,-174.36911,-119.99656777990214,0.0,174.36911,0.371242091778289,0.59045601,-0.35254401,-0.62390202,1.0,0.0,0.0,0.0,136.4155185833293
4.7574,6915.7582,-8.646479797504366,9.12293848221601,-4.644064105251303,-4.56964052856654,1.6455620905677852,9.027394475609015,15.463364365321887,16.924364795741177,-27.118237886219376,-154.511978,-56.989256629142304,0.0,154.511978,0.4594786729048254,0.59245598,-0.29714301,-0.591254,1.0,0.0,0.0,0.0,125.2930553322761
4.7753,6915.7783,-10.759878745906528,6.608857600818749,-4.653220071891731,-4.372464447591124,0.8029773884564197,8.633065438880148,14.370382919862134,17.605741196872785,-27.505670675203195,-136.363998,-49.4802344961155,0.0,136.363998,0.5305998142229968,0.58812797,-0.24918699,-0.55720299,1.0,0.0,0.0,0.0,115.90801835912214
4.7962,6915.7983,-12.186701469440896,3.586881696256264,-4.384048285474904,-4.06810720867599,-0.14024996399453094,8.030251024143421,12.908218018476719,18.197268734265727,-28.05490509517322,-118.662865,-44.73192901678161,0.0,118.662865,0.5959629828030595,0.58105701,-0.20104299,-0.51651001,1.0,0.0,0.0,0.0,106.83737711025442
4.8151,6915.8183,-12.815463860180998,0.2321257581727126,-3.916631842300016,-3.6337077620579707,-1.2049034548220878,7.1735481206531375,10.90267306564134,18.563108876527888,-28.841145941993233,-101.127884,-40.30499788784959,0.0,101.127884,0.6581629147522056,0.57044297,-0.153881,-0.46662301,1.0,0.0,0.0,0.0,97.68016745479864
4.8329,6915.8384,-12.489049972122569,-3.010990972983099,-3.331728308005684,-3.017009461952897,-2.3736399285652157,6.058237974796602,8.483892618183992,18.39466442385835,-29.877888351792464,-84.077232,-35.791424328828036,0.0,84.077232,0.7149577692738636,0.55519903,-0.112811,-0.409711,1.0,0.0,0.0,0.0,88.72052338445228
4.8531,6915.8584,-11.294966408550914,-5.5363910138941055,-2.7985620691853264,-2.219067130035949,-3.6136716399297795,4.792186216953096,6.036827359430253,17.606864394030335,-30.975905803506976,-69.098213,-31.247034594168955,0.0,69.098213,0.7606462169075975,0.53864199,-0.082792,-0.352743,1.0,0.0,0.0,0.0,80.95759978425635
4.8747,6915.8784,-9.733458676575074,-6.816996196745004,-2.6524326633403428,-1.4466115754768025,-4.777511106621946,3.574511053287196,4.439139673289969,16.320682521453584,-31.895050729901754,-57.250885,-26.694968010377178,0.0,57.250885,0.7901923727158976,0.52647799,-0.074013,-0.30485901,1.0,0.0,0.0,0.0,75.59301468658835
4.8971,6915.8984,-8.353298084096854,-7.053607060587103,-3.3512083917991085,-0.9868873550818933,-5.737379610234013,2.5236508230634453,4.907687388925578,15.380493030500496,-32.19418546325283,-46.058365,-20.18140503175081,0.0,46.05836500000001,0.8000376339123053,0.531748,-0.098548,-0.259754,1.0,0.0,0.0,0.0,73.73260744330206
4.9121,6915.9184,-6.8154323358876026,-6.630751669518683,-4.130385106741969,-0.7261711649988158,-6.292081521201886,1.917546808306964,5.898421357198017,14.444373889797802,-32.38331454842477,-31.293255,-12.776138453202805,0.0,31.293254999999988,0.8020949613193562,0.53985298,-0.137272,-0.21531101,1.0,0.0,0.0,0.0,73.33875062375299
4.938,6915.9384,-4.996243172833589,-5.885547797169455,-4.410663728927037,-0.5839651803722544,-6.4040674865176825,1.8499025416700676,6.145944071024798,13.161409196654537,-32.92177910322605,-13.711133,-5.70222059189152,0.0,13.71113299999999,0.8071845909669484,0.53897399,-0.17136,-0.169103,1.0,0.0,0.0,0.0,72.35647327331172
4.9526,6915.9584,-3.1845036175118997,-5.02550004012193,-4.287689983438922,-0.5650031620235446,-6.195251258707983,2.1320234559142732,5.685732807951659,11.823518082897161,-33.70510996295698,2.082308,0.9500127430417392,0.0,2.082308000000012,0.8157818767867547,0.530922,-0.19631401,-0.11867,1.0,0.0,0.0,0.0,70.67050878603978
4.9757,6915.9784,-1.6939748048400218,-4.176411107431339,-4.084483089747749,-0.7509951397707,-5.862487344012367,2.5010642165059336,5.013566708420385,10.956747505091226,-34.40335630419156,14.242225,7.210164112811975,0.0,14.24222499999999,0.8225258246061335,0.521384,-0.216648,-0.068364,1.0,0.0,0.0,0.0,69.32311266542109
5.0017,6915.9984,-0.5711431672780045,-3.5134929286732635,-4.003225667402896,-1.1387928753707826,-5.5978961251854145,2.783443301658012,4.400656772662053,10.95661206731987,-34.81287245803249,24.077072,13.329287950532922,0.0,24.077071999999987,0.8242150666415895,0.514148,-0.236479,-0.019976,1.0,0.0,0.0,0.0,68.98201673442216
5.0137,6916.0184,0.4258838212661611,-3.0228880246076124,-3.9670565868246905,-1.5398929556643397,-5.471254376363722,3.0083246549876077,3.5111371001416316,11.223904420400183,-35.151725687698175,32.042725,19.474380765883208,0.0,32.04272499999999,0.826167527130545,0.50288701,-0.25191301,0.033041,1.0,0.0,0.0,0.0,68.58592045544373
5.0328,6916.0384,1.4608774967297649,-2.583787019296107,-3.8100606315771506,-1.825373429447868,-5.455567989647559,3.1842399314699565,2.4514496985579886,11.214905134526688,-35.59143071306691,38.485062,25.988342516008576,0.0,38.485062,0.8294943081490191,0.48276901,-0.264884,0.093326,1.0,0.0,0.0,0.0,67.90634756569249
5.0559,6916.0584,2.5172517062567805,-2.083056036516537,-3.36869017991945,-1.9402728234618865,-5.4964039807629925,3.2368027245893556,1.692152283839997,11.127382799823707,-36.064712783519596,44.621307,33.522897713455095,0.0,44.621307,0.8283016203461392,0.45713601,-0.28126201,0.160732,1.0,0.0,0.0,0.0,68.15066682521373
5.073,6916.0784,3.430366215145399,-1.5428881597029172,-2.5927366978131507,-1.9591211029156141,-5.526637509889684,3.084232212462004,1.4601828139238169,11.662779163504876,-36.364338103290734,50.203018,41.51498013156729,0.0,50.203017999999986,0.8178182322408446,0.432897,-0.30637699,0.223398,1.0,0.0,0.0,0.0,70.26603390101847
5.0975,6916.0984,4.079280984686406,-0.8642039700474158,-1.5728514779201692,-1.8374870416861273,-5.476423693248892,2.8394814103131214,1.2693081234761863,12.52102685309956,-36.57355848479413,55.204815,49.51654267484776,0.0,55.204814999999996,0.8009242129148674,0.40999699,-0.33248201,0.282628,1.0,0.0,0.0,0.0,73.56310192328577
5.1144,6916.1184,4.29993939349665,-0.08568925062524353,-0.5191634116534445,-1.6740908729833037,-5.312920601428963,2.5834596676761596,1.2632118014316545,13.297062916784808,-36.74102960948429,59.250164,57.31903733565545,0.0,59.250163999999984,0.7805640225929836,0.38477799,-0.359676,0.33659899,1.0,0.0,0.0,0.0,77.37550835196245
5.133,6916.1384,4.114893605286767,0.6404769624793735,0.299345078085004,-1.50783837058985,-5.105644311524908,2.3246519495434854,1.4160053632494969,14.003955046121378,-36.75015430686638,62.609119,64.85275406089637,0.0,62.60911899999999,0.7569153542577927,0.35928401,-0.38735601,0.384642,1.0,0.0,0.0,0.0,81.613976390932
5.1566,6916.1584,3.779799382914764,1.1845606304402296,0.6693603291645047,-1.320586912019249,-4.9568782483218525,2.078325388226886,1.2873746556865533,14.724540226011968,-36.518904813130604,65.711838,71.80576001886043,0.0,65.711838,0.730810272530511,0.337906,-0.41168401,0.42691001,1.0,0.0,0.0,0.0,86.09126973620134
5.1776,6916.1784,3.525100671358618,1.4863352094136464,0.5737313595520224,-1.143328759947967,-4.940306698130666,1.8734905115912777,0.8975646329628169,15.406430614870722,-36.10288026626288,68.492096,78.1893497520704,0.0,68.492096,0.7037084289386051,0.319307,-0.43347701,0.46361101,1.0,0.0,0.0,0.0,90.54941158073612
5.2118,6916.1984,3.4669083381560273,1.526167133499513,0.17007174139080128,-1.0213333594729996,-5.097771404992277,1.7268826008954514,0.687109512466904,16.094140961034984,-35.54233338592201,70.579353,84.4419270536373,0.0,70.579353,0.6756235056811595,0.29894099,-0.45780399,0.494553,1.0,0.0,0.0,0.0,94.9948245307327
5.214,6916.2184,3.718149050534609,1.392904188962032,-0.3160634726311464,-0.8919612275180038,-5.440717087016024,1.6609025709000351,0.5081932425718545,16.860209169570457,-34.847383496333435,72.347061,90.89397827379454,0.0,72.347061,0.6446630254596888,0.27759099,-0.48411301,0.52248198,1.0,0.0,0.0,0.0,99.7191700460598
5.2383,6916.2384,4.311276834013455,1.319973215702885,-0.6421680734996915,-0.6905027908663857,-5.901417850002036,1.7623522203435806,0.05275194739121858,17.31492836014926,-34.24272132758828,74.191536,97.4778705359345,0.0,74.19153599999999,0.6119502416823439,0.25368199,-0.50739098,0.55110502,1.0,0.0,0.0,0.0,104.53869576984144
5.2676,6916.2584,4.955829580327057,1.3758819398872884,-0.49806290596797176,-0.4777986199730955,-6.372301141189006,2.0171706902809743,-0.09194326943601183,17.559293175528218,-33.74071872543003,75.889328,105.00457672082167,0.0,75.889328,0.5736924333703901,0.223084,-0.53334999,0.58021402,1.0,0.0,0.0,0.0,109.98377231860549
5.2886,6916.2783,5.342261238592981,1.50059446211792,0.2621181868161635,-0.33050140699285735,-6.76710898038984,2.264196046725182,0.22843851184893538,18.21333824264473,-33.07278797656813,77.0979,113.8149536253144,0.0,77.09789999999998,0.5253651844288885,0.189978,-0.56702,0.60530001,1.0,0.0,0.0,0.0,116.61433891393213
5.2977,6916.2983,5.2640393830612595,1.8148673719312791,1.4647114960190368,-0.17834079475555398,-7.012404149857347,2.3842180040805667,0.37509238110419574,19.24308776609535,-32.22338186081857,78.576462,123.51603024279606,0.0,78.57646199999999,0.4645484207023838,0.161909,-0.60241503,0.62855101,1.0,0.0,0.0,0.0,124.6379989420145
5.312,6916.3183,4.6798691943601884,2.4169118865375405,2.744392352108747,-0.017943055553363507,-7.03773728383965,2.396163846526677,0.05809653927684266,19.954404394545847,-31.502444036348635,80.751648,133.04594264808088,0.0,80.75164799999999,0.3980341121236957,0.136669,-0.63076103,0.65194398,1.0,0.0,0.0,0.0,133.08932254660155
5.3423,6916.3383,3.6327040796215293,3.0132155665021676,3.8291290086550287,0.07932256852660591,-6.875109269219814,2.2536077961981196,-0.34535778539808604,20.371271066777386,-30.805386199690528,82.448402,142.12420653854727,0.0,82.44840199999999,0.3319647881923319,0.10912,-0.65480101,0.67017001,1.0,0.0,0.0,0.0,141.2238528040742
5.3585,6916.3583,2.4015424466902315,3.3512636652022314,4.551308216715498,0.09611324032497215,-6.5905083079556945,1.9978796664908014,-0.7214122444084303,20.608691961514882,-30.033613720186562,82.306488,150.51138962754226,0.0,82.306488,0.2727826465176985,0.076752,-0.67650002,0.67974001,1.0,0.0,0.0,0.0,148.34016429133635
5.3764,6916.3783,1.2539036457944368,3.4647102177992375,4.901703602725666,0.15996339189461906,-6.244470532573939,1.748935790227194,-1.5216010472424824,20.56640007092117,-29.29288078847523,80.660004,158.0730672148261,0.0,80.66000400000001,0.2186083646833731,0.045556,-0.69427103,0.68419498,1.0,0.0,0.0,0.0,154.7453825919999
5.3961,6916.3983,0.3495575470349759,3.424573515823269,5.012620964728791,0.2837487959063051,-5.898899709673592,1.5923162373249664,-2.814087772721755,20.131564668221905,-28.73832490923747,77.212975,164.71235938607032,0.0,77.21297500000003,0.168913970806793,0.018263,-0.70759797,0.68588603,1.0,0.0,0.0,0.0,160.55063792843328
5.4143,6916.4183,-0.3939582706819844,3.209685721515552,5.060190108685859,0.42525743984415837,-5.607365315977633,1.519260388569616,-4.192814446740425,19.489840877926532,-28.358417244582625,67.847038,170.802949905853,0.0,67.847038,0.1209516235941441,-0.005783,-0.71927899,0.68408698,1.0,0.0,0.0,0.0,166.1059467007195
5.4343,6916.4383,-1.0633257416204551,2.894045778429887,5.105686921847036,0.49215951234782557,-5.384174945594894,1.5221449258645072,-5.144235913680077,18.80884019266865,-28.163106115152313,37.975525,176.5598342739045,0.0,37.975525000000005,0.0767200797577786,-0.030776,-0.72943699,0.67903501,1.0,0.0,0.0,0.0,171.19987913574698
5.4545,6916.4583,-1.7828284670441188,2.547270838747534,5.098828898952865,0.5035465414641528,-5.201564688598229,1.573771835406898,-5.735802342903148,18.197648606256088,-28.073612860781846,-21.276346,-177.9290095471185,0.0,21.27634599999999,0.0331131809761506,-0.054415,-0.73822802,0.67153698,1.0,0.0,0.0,0.0,176.20481519292267
5.4742,6916.4783,-2.6925890976025055,2.281487103887218,4.900405278918628,0.4964684990619532,-4.999845284933664,1.670983361930545,-6.021538521406473,17.571311689543712,-28.134339199606252,-50.372635,-172.30941081956865,0.0,50.372635,0.0156046129634252,0.075672,0.74496597,-0.66261297,1.0,0.0,0.0,0.0,178.21177049402343
5.4943,6916.4983,-3.6872244438012087,2.248965697382394,4.40467967654768,0.39772963863464306,-4.741858906554306,1.8131790247159918,-5.66038229118302,17.01689639363077,-28.373749907179665,-61.626263,-166.3597930329376,0.0,61.626262999999994,0.063641603717687,0.101986,0.74805403,-0.652659,1.0,0.0,0.0,0.0,172.70227747470946
5.5217,6916.5183,-4.486439830379934,2.482759470210497,3.6676396328987213,0.3349886110910092,-4.411579726264192,2.005530321590738,-5.219384429489823,16.399068381098463,-28.750110571083518,-66.648087,-160.86335047023113,0.0,66.648087,0.1099635703096178,0.124668,0.74744397,-0.64319003,1.0,0.0,0.0,0.0,167.37356887525388
5.5346,6916.5383,-4.911549319673533,2.9102519398607885,2.848094472626098,0.40749212022308234,-4.029875766556308,2.255902812410792,-5.079891443588389,15.595624935722967,-29.237310898227697,-68.878456,-156.46182335564487,0.0,68.878456,0.1527501727386208,0.13748901,0.74410802,-0.63566297,1.0,0.0,0.0,0.0,162.42732622881573
5.556,6916.5583,-4.9943823766473665,3.298256118587281,2.0795580161489973,0.6202749897914313,-3.6426492409108397,2.525818490312555,-5.100213800775414,14.86488559157256,-29.65666782467945,-69.082443,-153.14565517347387,0.0,69.082443,0.1898218613631716,0.14232101,0.74150902,-0.62759602,1.0,0.0,0.0,0.0,158.11522316530076
5.5787,6916.5783,-4.848711744680344,3.3850977039722197,1.4201694305805699,0.9354109162386137,-3.2807527309206277,2.7757543181235693,-5.139311696575261,14.52230063725862,-29.819265127765057,-67.087692,-150.76826122759954,0.0,67.087692,0.2215359021528551,0.14116199,0.74354798,-0.61492401,1.0,0.0,0.0,0.0,154.40148011382223
5.599,6916.5983,-4.646420422612034,3.071968878489243,0.814305973609752,1.245921956877901,-2.9441115610038113,3.014613637698945,-4.98468738921764,14.66235667225393,-29.726221252128923,-63.310612,-148.80135750851466,0.0,63.31061199999999,0.2522103169804114,0.136981,0.750687,-0.59505898,1.0,0.0,0.0,0.0,150.78330801395626
5.6153,6916.6183,-4.393467815375537,2.47642943967907,0.22760713718642123,1.422440586370417,-2.655102068973178,3.270905567866436,-4.579222308270973,15.338758240842866,-29.40562571688274,-58.836704,-147.06061403613396,0.0,58.836704,0.2800835880687747,0.134073,0.76136798,-0.56911898,1.0,0.0,0.0,0.0,147.46961286591966
5.6384,6916.6383,-4.020257254428088,1.801222084224026,-0.2940243695576754,1.466353773659123,-2.437623330196601,3.553010470678477,-4.315399515673924,16.361520945567214,-28.916599681059836,-54.16925,-146.04515185380566,0.0,54.169250000000005,0.302345341783629,0.12952,0.77400398,-0.54104501,1.0,0.0,0.0,0.0,144.8029512383871
5.6606,6916.6583,-3.6264338833734273,1.2541367096792397,-0.7265942131076972,1.470066553425689,-2.2336744611056893,3.8712062392929285,-4.442337374145872,17.052291205247247,-28.61477090332808,-49.635944,-145.7570022439219,0.0,49.635943999999995,0.3258422638869911,0.115808,0.783535,-0.51622498,1.0,0.0,0.0,0.0,141.96677781267368
5.6768,6916.6782,-3.2907210372150213,0.8920675838603858,-1.042869756919373,1.5238731315521896,-1.9715086213689457,4.199917368464912,-5.0351372942301715,16.977396570703917,-28.753757175179057,-45.108963,-146.07267472307296,0.0,45.10896300000002,0.3545332893959316,0.089389,0.78725898,-0.49652699,1.0,0.0,0.0,0.0,138.47031303298695
5.7041,6916.6982,-3.058411409182435,0.46919381660938253,-1.2654651723799528,1.5891014655198958,-1.7610412879387356,4.475503443146414,-5.576402582360355,16.979187387218726,-28.878978601825814,-40.566883,-146.24742236707735,0.0,40.56688299999999,0.383528721271406,0.065294,0.79059601,-0.472864,1.0,0.0,0.0,0.0,134.89513638396375
5.716,6916.7182,-2.820411654453697,-0.1750878258275259,-1.4359150727385135,1.676789386108087,-1.6760239952008296,4.680846729128534,-6.235284350001283,17.504470038195482,-28.64764450619247,-35.513451,-146.87934504818404,0.0,35.513451,0.4067366126600109,0.047175,0.79899001,-0.44040301,1.0,0.0,0.0,0.0,132.0000038152373
5.7386,6916.7382,-2.4964992305205316,-0.8814987378699564,-1.5842695776807432,1.8157730970000665,-1.6149821469257597,4.838535150926734,-7.125571249915247,17.869070918726553,-28.39834437651275,-30.412752,-148.457296147151,0.0,30.41275200000001,0.4244137256781876,0.02865,0.80839801,-0.406872,1.0,0.0,0.0,0.0,129.77288039436618
5.7575,6916.7582,-2.1147454211886108,-1.5193479715114506,-1.6890186096414084,2.01962324203899,-1.420171737205965,4.9268824776354165,-7.931664903050212,17.44670903310484,-28.58616830983047,-25.475857,-150.50795154305584,0.0,25.47585699999999,0.4451199752736556,0.003924,0.81251901,-0.376385,1.0,0.0,0.0,0.0,127.13796999245551
5.7806,6916.7782,-1.6018329873426251,-2.0340189616556663,-1.6956252425600375,2.3269680347790254,-0.9458743281880055,4.861487276306434,-8.551329572437114,16.07894135444155,-29.288154155136592,-20.020672,-153.48595406254665,0.0,20.02067199999999,0.4715320278119818,-0.031424,0.81022102,-0.34671599,1.0,0.0,0.0,0.0,123.73242037996954
5.7974,6916.7982,-0.9606278461021909,-2.3763899083855637,-1.6317772038818568,2.6367633244857056,-0.18079307670332745,4.617880446153222,-8.631329840458415,14.177077003566506,-30.268670157009602,-14.220371,-157.6917957244894,0.0,14.220371,0.5005266878259531,-0.071503,0.80318397,-0.31504899,1.0,0.0,0.0,0.0,119.9302969841533
5.815,6916.8182,-0.19038809523964928,-2.7443598650723926,-1.6507772702424148,2.8622448556966695,0.510519399449554,4.268606436413101,-8.282155751710688,13.35859453028052,-30.755089733023507,-9.117304,-163.40529265737572,0.0,9.11730399999999,0.5171918719923971,-0.094137,0.804874,-0.27537,1.0,0.0,0.0,0.0,117.7118487610325
5.8365,6916.8382,0.7459954499303965,-3.08740599799169,-1.8282439473483612,3.0064829442780145,0.9201356874384696,3.9504970240110993,-8.366988596419198,13.437028418491025,-30.762156321039157,-4.868995,-170.79832469195864,0.0,4.868995000000012,0.5110193260420975,-0.100775,0.82083702,-0.234372,1.0,0.0,0.0,0.0,118.53649916650039
5.8578,6916.8582,1.6835642169350122,-3.236901995495891,-2.085125884414163,2.982669664240833,1.0706156179822481,3.7779384425003215,-8.928086011604767,13.283180871002862,-30.832565359775465,-0.52132,-179.03587261295672,0.0,0.5213200000000029,0.494678373192865,-0.110259,0.83961302,-0.19541299,1.0,0.0,0.0,0.0,120.70291172125592
5.8745,6916.8782,2.3031904188661336,-3.1277864227836774,-2.179741362177527,2.744260679861734,1.0597012566165065,3.806588033950581,-8.859453564526449,12.462099252466217,-31.44571680826023,3.842954,172.78266916214403,0.0,3.8429539999999918,0.4905461808491428,-0.1295,0.846591,-0.16086601,1.0,0.0,0.0,0.0,121.24702644104967
5.8973,6916.8982,2.5839397331363534,-2.8099643612171032,-1.9508210494321165,2.440958844198192,1.039550348923909,3.9217266093012007,-7.855175603064474,11.104128226896732,-32.5017011678157,8.103053,163.81936628598933,0.0,8.103052999999989,0.5008236282313363,-0.156666,0.84081799,-0.13287801,1.0,0.0,0.0,0.0,119.89098843667567
5.9157,6916.9182,2.7231670453681582,-2.452269133994742,-1.4908227115452846,2.2533592740953288,1.0967578970144745,4.013324022303551,-6.532772531072651,9.804599193691331,-33.481362269122656,12.154956,154.18095033185537,0.0,12.154955999999999,0.5135541076438194,-0.184095,0.83117902,-0.107297,1.0,0.0,0.0,0.0,118.19828317392246
5.9324,6916.9382,2.954346641165186,-2.23164039667841,-1.0012156409238742,2.2648811203809145,1.1892208666168256,4.07011761692676,-5.581245427250287,9.080719873492093,-34.10537741821907,15.552641,146.48218527590598,0.0,15.552640999999994,0.5184917097562697,-0.20232099,0.82697201,-0.079686,1.0,0.0,0.0,0.0,117.53773470594
5.9578,6916.9582,3.4515032042331,-2.038605613835997,-0.6236286723739255,2.419715392972475,1.3179421809773628,4.09303909651337,-5.292632729851135,8.48599444726081,-34.55370588858381,19.029545,140.54246508959,0.0,19.029544999999985,0.5137220185704513,-0.217905,0.82836503,-0.049178,1.0,0.0,0.0,0.0,118.17585774398553
5.9771,6916.9782,4.098985356320572,-1.7668750731268408,-0.39409355778879807,2.5489664421636333,1.4728015109644002,4.097312939897196,-5.03323429762246,7.951360881441708,-35.012917521135435,23.266869,134.04168143688082,0.0,23.266868999999986,0.5090747767811322,-0.237611,0.82719398,-0.011576,1.0,0.0,0.0,0.0,118.79555855735957
6.0145,6916.9982,4.717259398076355,-1.331533314141088,-0.24736829355070356,2.5802928639782787,1.6738668663188716,4.050928079877151,-4.295504731162344,7.413293470571363,-35.607267788149116,27.797602,127.4981089126668,0.0,27.797602000000012,0.5078466402337419,-0.25971901,0.82087302,0.028378,1.0,0.0,0.0,0.0,118.95899663221454
6.0201,6917.0182,5.1168212605411,-0.7784594391429831,-0.07211049396534719,2.491800492672892,1.9329413806362306,3.9583351631448402,-2.7761853601947637,7.044622172476503,-36.319920109552456,32.170326,121.30872646749452,0.0,32.17032599999999,0.5115909727483665,-0.28096199,0.80916899,0.06768,1.0,0.0,0.0,0.0,118.46027628062103
6.0571,6917.0382,5.3797884793559945,-0.20526252267233325,0.07877373981612124,2.405630809906282,2.2211286132079184,3.797737338075569,-1.1778867937444675,6.804452893760814,-36.997203051609716,35.941658,117.33256346998604,0.0,35.94165799999999,0.5112902020998638,-0.29723999,0.79968798,0.103585,1.0,0.0,0.0,0.0,118.50038454345685
6.0578,6917.0582,5.6471783487920275,0.418115393760345,0.06491853494325994,2.4022844336540707,2.5189250512164953,3.546086677224987,-0.40049439354109584,6.357160019877771,-37.57250886148843,39.680882,115.84812385031944,0.0,39.680882,0.4981696627496696,-0.312756,0.79687202,0.137861,1.0,0.0,0.0,0.0,120.2420408732376
6.0797,6917.0782,5.718751722233649,0.9108564245686259,-0.05208512064818116,2.3923096993485222,2.7404727170789265,3.2969035050222173,0.06256417194649755,6.237361468264607,-37.96222546806048,43.711826,114.95749395012677,0.0,43.711826,0.4814790907531292,-0.32782701,0.793329,0.177021,1.0,0.0,0.0,0.0,122.43590321243049
6.1007,6917.0981,5.4580352080349055,1.1073807931610218,-0.1463845480044199,2.314661899676799,2.873283768515307,3.1201172878433923,0.8931894024956044,6.651458265634102,-38.199918063734145,47.686146,113.94660291270803,0.0,47.68614600000001,0.4694910728436696,-0.33974499,0.784899,0.219283,1.0,0.0,0.0,0.0,123.99746791192429
6.1165,6917.1181,4.967149384359394,1.0636135656914387,-0.20607591418170657,2.158923884867281,3.003500909254097,3.0172569114294165,2.1145454056846935,7.123825513091202,-38.38500007087332,51.490246,113.04127538656704,0.0,51.49024600000001,0.4598754503438511,-0.35017201,0.77386999,0.258881,1.0,0.0,0.0,0.0,125.241858332618
6.1336,6917.1381,4.480085529745417,0.8706039235573197,-0.28405718829597504,1.9539805879043215,3.1780717679574986,2.995030539446301,3.3500007811027444,7.308953553589371,-38.56553325519108,54.856056,112.9602055117222,0.0,54.856055999999995,0.4469132684280243,-0.35846201,0.76530498,0.29339701,1.0,0.0,0.0,0.0,126.90837149809383
6.152,6917.1581,4.119941313233241,0.5642922774141776,-0.3594851551145144,1.67865685645181,3.3611515595797403,3.1276922010591504,4.5146195393263335,7.672907410973474,-38.5921963552265,58.216938,113.41172844939435,0.0,58.216938,0.4314057989907875,-0.364654,0.75682801,0.32882801,1.0,0.0,0.0,0.0,128.88638238902223
6.1731,6917.1781,3.9913653554050654,0.3634832430512572,-0.4206547090226742,1.3443160817715285,3.5242649702523288,3.38219526908423,5.478764910908822,8.131096298745383,-38.39010042894885,61.840874,114.2771750371747,0.0,61.840873999999985,0.4114507446080752,-0.37112299,0.74814802,0.365035,1.0,0.0,0.0,0.0,131.40799811941244
6.1944,6917.1981,4.096033291282626,0.5658909316418821,-0.4381032721321265,0.9511527270135185,3.6796433617142763,3.630585606070617,6.1286482263707365,8.378498041308935,-37.97163722483706,66.317528,115.17147053750293,0.0,66.31752799999998,0.3826411765883004,-0.38480601,0.73850203,0.40015599,1.0,0.0,0.0,0.0,135.0052410615291
6.212,6917.2181,4.274801632151043,1.2010576049818449,-0.3897008175199268,0.5099924765909345,3.8108848091823657,3.773846143664962,6.585466260347195,8.58532323400589,-37.304932965636965,71.859688,115.756731113865,0.0,71.859688,0.3454079887863032,-0.40719599,0.72567803,0.43390799,1.0,0.0,0.0,0.0,139.5865941957615
6.2319,6917.2381,4.346262097937054,2.0106816957224365,-0.29598125016353016,0.08547668788285323,3.897932089786398,3.789937131257859,7.057780933893779,8.923761784571825,-36.40612583207955,77.613426,116.25083230587538,0.0,77.613426,0.3047408296525095,-0.43139499,0.71103001,0.464185,1.0,0.0,0.0,0.0,144.51485543585667
6.2536,6917.2581,4.303185109022359,2.699240433221504,-0.21312955417880985,-0.26690370625481497,3.9632254812260412,3.741209285785332,7.502113089665688,9.296962544365545,-35.41130851083615,82.731888,117.17199973426082,0.0,82.73188800000003,0.2627854050469312,-0.45083699,0.69822299,0.49007601,1.0,0.0,0.0,0.0,149.52919473031045
6.2814,6917.2781,4.2222529370621515,2.976692609296915,-0.11041370913847182,-0.5439257935217039,3.9938133262828734,3.7939657799438367,8.094243058644652,9.921942418742173,-34.31677630825394,87.076096,118.64611502230733,0.0,87.076096,0.2254929594684032,-0.46125501,0.686481,0.51491803,1.0,0.0,0.0,0.0,153.93626472560604
6.3031,6917.2981,4.131027811186801,3.0498424815417327,0.008845476056876578,-0.8428109067239222,4.033569170355269,3.997174561759971,8.836316822131721,10.463220501910595,-33.29008459169039,91.460571,120.11755302973918,0.0,91.46057100000002,0.1874413124739566,-0.47136599,0.67394298,0.53710401,1.0,0.0,0.0,0.0,158.3930007321135
6.3167,6917.3181,4.094931830643487,3.224632683565625,0.09775475045131543,-1.217195588392113,4.099231000653116,4.334708890291522,9.440182813582794,10.776832854086773,-32.519863801189246,96.547264,121.45273205666048,0.0,96.54726399999998,0.1400950519869972,-0.48640099,0.65926498,0.55601901,1.0,0.0,0.0,0.0,163.89330693700086
6.3372,6917.3381,4.1066518264532155,3.4727682025903004,0.18638515688212287,-1.6569309047445941,4.105147576755474,4.841414533194619,10.017009279132692,11.427699923179363,-31.815175967774728,102.746735,122.61104628032362,0.0,102.746735,0.0891640753163503,-0.50352299,0.63852799,0.575149,1.0,0.0,0.0,0.0,169.7689624170428
6.355,6917.3582,4.053478218948939,3.9854471741337143,0.1810261787266736,-2.1542967978555043,4.082787555328113,5.422813625076836,10.643909587945075,12.006022801738208,-31.254832337670308,109.232147,123.4288160704484,0.0,109.232147,0.033693390833203,-0.52268797,0.61612201,0.588265,1.0,0.0,0.0,0.0,176.13829091633323
6.3816,6917.3782,3.8467962268599094,4.784611607084571,-0.029790158660119914,-2.6521351021860857,4.0154764710096815,6.053097994339874,11.010568149238795,12.398259180200284,-30.920898875314133,115.997017,124.22448863165596,0.0,115.99701700000003,0.0300587216830362,0.54131103,-0.59274602,-0.59559298,1.0,0.0,0.0,0.0,176.55500531299805
6.3972,6917.3982,3.2974834662217845,5.710749006085523,-0.4180631287949712,-3.1407197921741625,3.800964443910451,6.756249921962965,11.03755891622146,12.8572742478577,-30.67467019230569,124.080162,124.5397599516993,0.0,124.08016199999997,0.1017938194151241,0.56057602,-0.56323898,-0.59846002,1.0,0.0,0.0,0.0,168.31504809411842
6.4134,6917.4182,2.2958846612760953,6.535809494651701,-0.878245754003661,-3.600773589712909,3.3893588563046966,7.53992660460248,11.024268973364872,13.41083646317242,-30.352557496189863,133.56105,123.30585489127708,0.0,133.56105000000002,0.175719107041433,0.58042401,-0.52699602,-0.59540403,1.0,0.0,0.0,0.0,159.758983199469
6.4364,6917.4383,0.8230059359600903,7.10928939408756,-1.375158799768494,-4.019145994309575,2.800449546018483,8.384688121680636,11.16803345443928,13.94802187565605,-29.940845524068607,144.09024,117.60795846815542,0.0,144.09024,0.2492979839289899,0.60110003,-0.485553,-0.58375299,1.0,0.0,0.0,0.0,151.12805121867828
6.455,6917.4583,-1.0502227521933862,7.291466051217799,-1.9357828359409197,-4.3234777566113065,2.1013647035569023,9.245748757653297,11.478613624192205,14.377893182093493,-29.533480122856297,155.374802,97.52339380991042,0.0,155.374802,0.3212043638748383,0.62015498,-0.44125199,-0.56349999,1.0,0.0,0.0,0.0,142.52844930525612
6.4734,6917.4783,-3.4067353649042205,6.928235353969186,-2.612597676622106,-4.522288810992727,1.3489775749629773,9.949702964368909,11.80247791977061,14.694150935583819,-29.254677409037512,167.500183,32.888834252250014,0.0,167.500183,0.3956918490299466,0.63880903,-0.39350501,-0.52962703,1.0,0.0,0.0,0.0,133.38174020207535
6.4971,6917.4984,-6.099324932836373,5.5348095179989105,-3.221975159606946,-4.4606959450604995,0.37621396074434976,10.325490054946355,11.342292905076018,15.473282689494111,-29.16591484278223,-176.154022,-3.9895923760585212,0.0,176.154022,0.4754709678017781,0.65720898,-0.331691,-0.481648,1.0,0.0,0.0,0.0,123.21996175466616
6.5558,6917.5184,-8.442162692749351,2.8088608398871537,-3.555708293616763,-3.9697755255049723,-0.8207755977596278,10.163066575378242,9.76264221373827,16.672549978561214,-29.339818472484886,-154.423965,-13.247596196443832,0.0,154.423965,0.5544455476230464,0.67149901,-0.255979,-0.419707,1.0,0.0,0.0,0.0,112.65493206440118
6.5591,6917.5384,-9.55688141492211,-0.7161108609088074,-3.6244254574274324,-3.091586734096335,-2.0055278587889798,9.35563565748347,7.591524060676587,17.57803531245689,-29.824307798675985,-130.348938,-15.087251277538043,0.0,130.348938,0.6227068061209861,0.67734498,-0.18129499,-0.34723499,1.0,0.0,0.0,0.0,102.9718592865298
6.5606,6917.5584,-9.125300058472202,-3.9132497963612796,-3.516835727605809,-1.9730263291936234,-3.0319781087367264,8.06330290587185,5.405062329012211,17.79977598087525,-30.586661063253114,-106.849388,-14.267060101807322,0.0,106.849388,0.6738802436454114,0.67540997,-0.119532,-0.274625,1.0,0.0,0.0,0.0,95.2654901021653
6.5736,6917.5785,-7.629737305800124,-5.867260357652331,-3.4476112822622884,-0.9022929814590492,-3.8855215435928647,6.575179035470197,3.793345888343242,17.49642407152087,-31.399102470385237,-88.223091,-12.095348116954918,0.0,88.223091,0.704914158716875,0.67266202,-0.077997,-0.211041,1.0,0.0,0.0,0.0,90.35478103878941
6.5942,6917.5985,-5.860903164412239,-6.427743345380571,-3.6625009804507984,-0.24230512596059428,-4.601319127099056,5.12455438758401,3.4929119670681965,17.272787883578783,-31.911692193853956,-77.99427,-8.36531841485792,0.0,77.99427,0.7146574859632266,0.67866802,-0.063275,-0.157069,1.0,0.0,0.0,0.0,88.76972815160107
6.6149,6917.6185,-4.023954722610302,-5.952689264384292,-3.7751519805486886,0.07224631166606904,-5.012224689955778,3.9764029909255387,3.753574109985191,16.64321092935009,-32.53841311045718,-56.86599,-3.785310258045473,0.0,56.86599,0.7190908146043306,0.68429202,-0.0622,-0.103846,1.0,0.0,0.0,0.0,88.04106532404106
6.6338,6917.6385,-2.3744911603574286,-4.86758656083725,-3.6041222583588164,0.11848874560354111,-5.125851438794417,3.157422118611706,4.3112746979405605,15.478594710295873,-33.30361747935438,20.445086,1.2869185167099788,0.0,20.445086000000003,0.7247278350242938,0.684089,-0.067014,-0.047968,1.0,0.0,0.0,0.0,87.10757675194239
6.6528,6917.6586,-1.1489587258280902,-3.5715185540761523,-3.273598767609988,0.03181159953578938,-5.0708167541488836,2.55944448953286,4.867458341373657,13.985306079812512,-33.99783692511745,53.010139,6.446485542174628,0.0,53.01013900000001,0.732765238915056,0.67660397,-0.071857,0.009937,1.0,0.0,0.0,0.0,85.76256500610344
6.6748,6917.6786,-0.44678108567455244,-2.362126222772861,-3.0738642363920405,-0.12484391476938747,-5.021398969485213,2.089724946577509,5.219317191584173,12.489750854065104,-34.4253727748278,59.941204,11.26455718751739,0.0,59.941204,0.7418713001700498,0.663104,-0.078212,0.061668,1.0,0.0,0.0,0.0,84.21786692250971
6.6945,6917.6986,-0.10607027890038911,-1.5044895286426045,-3.22857810250893,-0.3329321621993441,-5.1269036721897345,1.6757656410983204,5.350030749146533,11.631935081697153,-34.408896905087985,63.565247,15.712025545400728,0.0,63.565247,0.7476582191772119,0.64986199,-0.091229,0.101803,1.0,0.0,0.0,0.0,83.22413848318239
6.7126,6917.7187,0.22516976474616257,-1.017641468656107,-3.686850639863719,-0.43006720129760856,-5.4248259681898015,1.3187709138259092,5.109444053425375,11.648030152412517,-34.009182026490436,67.818855,20.30296482347166,0.0,67.81885499999999,0.7480555394695768,0.63970298,-0.105488,0.141652,1.0,0.0,0.0,0.0,83.15555541506839
6.7353,6917.7387,0.8176265435938765,-0.658441572450537,-4.159203509760283,-0.4312667485504902,-5.8207421041853395,1.0920081023471153,4.94653134193852,11.79468541796751,-33.46041505128239,70.840805,25.518509187278962,0.0,70.84080499999999,0.7476782611116488,0.62595397,-0.12550899,0.18277401,1.0,0.0,0.0,0.0,83.22068007054149
6.7591,6917.7587,1.8142044181081058,-0.1851115628328025,-4.245112044480587,-0.3310550800763428,-6.15712539614284,1.0093617969362014,5.027690962168029,11.733656309794668,-32.89552477088739,72.809669,31.664346907725275,0.0,72.80966899999999,0.747090129768249,0.60571897,-0.151509,0.228048,1.0,0.0,0.0,0.0,83.32211851022815
6.7734,6917.7787,3.016837725882625,0.5223658198169243,-3.5915956041472157,-0.16924472063323184,-6.278484492970304,0.9258977605031713,5.4401069853928234,11.970670034334791,-32.21028373631147,75.693291,39.16665101681826,0.0,75.69329099999999,0.7388045181521968,0.584207,-0.18598799,0.27978301,1.0,0.0,0.0,0.0,84.74064361664652
6.7978,6917.7988,3.9987341871456725,1.3913514095214283,-2.1265610536597253,-0.034299559660457335,-6.092865067779338,0.6946404100779495,5.793834738241738,12.842022603424992,-31.44356650018681,79.472969,47.44494985932667,0.0,79.47296900000003,0.7189109539144327,0.56646401,-0.22698399,0.33281201,1.0,0.0,0.0,0.0,88.07072035361142
6.8247,6917.8188,4.403533861982018,2.1545056557349636,-0.2552370463578413,0.02899133215222305,-5.6185457038824405,0.32247075755020294,5.567861937943,13.946473036626204,-30.895664026959224,82.995895,55.35003784125052,0.0,82.99589500000002,0.692543698067017,0.55161798,-0.266175,0.38111901,1.0,0.0,0.0,0.0,92.33639312435477
6.8366,6917.8388,4.19621980622451,2.3653256314695854,1.357908869981566,0.014055357805013824,-4.999404059264713,-0.12384849135469564,4.819896422514512,14.948271833828386,-30.67853650309351,85.445824,62.13294711229577,0.0,85.44582400000002,0.6664229651156384,0.53788102,-0.30173999,0.41894799,1.0,0.0,0.0,0.0,96.41683158160552
6.855,6917.8589,3.6831196946434726,1.8289309302580836,2.144114207645341,-0.010853183639553288,-4.4392235062267265,-0.46227542395151144,3.8071916263739283,15.505828469395931,-30.84889069051364,85.91433,67.30904433637242,0.0,85.91433,0.6492858227989422,0.52080202,-0.33371499,0.44252399,1.0,0.0,0.0,0.0,99.02444481528975
6.8785,6917.8789,3.054918430082626,0.8259948193800929,1.9536562690383512,0.06971538745391903,-4.130953156416162,-0.49232525689042494,2.9518784354459005,15.447519535750207,-31.41256788759939,84.408493,71.43913132050484,0.0,84.40849300000002,0.6437048757314021,0.494753,-0.363377,0.45696899,1.0,0.0,0.0,0.0,99.86271837085405
6.8965,6917.8989,2.495152733253553,-0.2628641678179932,0.9826759626771793,0.3051015134283195,-4.1772158546894635,-0.18924270270164983,2.153171321501471,15.31439989813025,-32.067276852250544,82.733109,75.28501227825768,0.0,82.73310900000001,0.6396598161592142,0.466481,-0.39036801,0.46994001,1.0,0.0,0.0,0.0,100.46708495421458
6.9177,6917.9189,2.311286255270161,-1.133557707176512,-0.47319482404924074,0.571595179828376,-4.575175634710411,0.24643962821862628,1.1939894894983345,15.96207513511291,-32.25643305001349,82.411339,79.46699145527579,0.0,82.411339,0.6246269564485829,0.448194,-0.41841501,0.48362401,1.0,0.0,0.0,0.0,102.6903754312523
6.933,6917.9389,2.7244834340339423,-1.2958175439842337,-2.0026331758542364,0.7337672832661523,-5.253785772220484,0.5621883482666306,-0.03583460036782116,17.171246156231682,-31.837178038627158,83.835243,84.6511361879533,0.0,83.83524299999999,0.5942978162186354,0.43958199,-0.44762099,0.50320297,1.0,0.0,0.0,0.0,107.07481763329886
6.9557,6917.9589,3.6800178999394975,-0.5321499090931384,-3.0403990626946733,0.717864354310658,-6.074419270437251,0.6046550314828664,-1.39817680603565,18.006699006942995,-31.15049264242144,86.023605,91.02346592417224,0.0,86.02360499999998,0.5545252339102519,0.42848,-0.47661099,0.53079998,1.0,0.0,0.0,0.0,112.64395940437247
6.9751,6917.9789,4.853523388319277,0.7652776607514304,-3.1386650417287942,0.5745293200790295,-6.881296701280391,0.3126125787318978,-2.523451952648263,18.24076418098425,-30.434726905069958,87.928123,98.78642062780213,0.0,87.92812300000003,0.5088958996653624,0.40594199,-0.50879103,0.56335402,1.0,0.0,0.0,0.0,118.81937175262233
6.9955,6917.9989,5.938405933190822,1.9307442859253068,-2.189514560595608,0.3501975524029032,-7.543389488869586,-0.1999235567370348,-3.1674967692634652,18.007364576410236,-29.87207520718698,88.18438,107.40492535822655,0.0,88.18438000000003,0.4656851848120353,0.36605501,-0.546094,0.59238702,1.0,0.0,0.0,0.0,124.49084990175375
7.0133,6918.0189,6.613233671242835,2.4919890112736858,-0.37367524341543756,0.18381033190726587,-7.9660497166869,-0.7359022053187428,-3.4328734400574827,17.70927192359031,-29.47453628980041,86.765572,116.5883147207885,0.0,86.76557200000002,0.4247840184241868,0.311876,-0.587075,0.61452001,1.0,0.0,0.0,0.0,129.72601349903306
7.0351,6918.0389,6.564087337426719,2.3831113773718258,1.9078970220467717,0.17391728119291044,-8.120790807756638,-1.0882107334621454,-3.5225327222892027,17.639245807493896,-29.22989951361847,84.027725,126.12162118450287,0.0,84.02772500000003,0.3831387722659238,0.25016299,-0.62838298,0.62909299,1.0,0.0,0.0,0.0,134.94351705334864
7.0575,6918.0589,5.652502514380844,1.8989488425517203,4.130788330378643,0.28773033599230075,-8.044412316427898,-1.0902785785190017,-3.4848970565207154,17.737917787210833,-29.20883462333041,80.266197,135.87245575602674,0.0,80.26619700000003,0.3391133275027685,0.185662,-0.665829,0.638125,1.0,0.0,0.0,0.0,140.35427519016866
7.0797,6918.0789,4.057679199134359,1.3580768244612682,5.833404800356167,0.4372741464434029,-7.791872213887245,-0.7714426500778135,-3.4211431704140267,17.953666695157533,-29.319187107849178,75.274361,145.52700724065963,0.0,75.274361,0.2915574671521875,0.124697,-0.69790697,0.64216101,1.0,0.0,0.0,0.0,146.0975553266975
7.1108,6918.099,2.183148084992303,1.0240916318650317,6.766605751829587,0.6029774880494879,-7.419823347070154,-0.24031283318865015,-3.5978508829272027,18.028438420745225,-29.51314990859175,68.915977,154.5663059861342,0.0,68.915977,0.2394661760769961,0.074324,-0.72305101,0.64368403,1.0,0.0,0.0,0.0,152.28992841095788
7.1191,6918.119,0.34090968570002467,1.012612052239064,6.944871028660849,0.6881774821086264,-6.980674469594962,0.4114427481836336,-3.7497215749079498,17.69438686916817,-29.856696631331626,59.719173,162.86688662710998,0.0,59.71917300000001,0.1862778643904282,0.031145,-0.74086398,0.64455497,1.0,0.0,0.0,0.0,158.52871241025315
7.1344,6918.139,-1.3176555021245555,1.1816055463521762,6.518563965152367,0.6507433219083179,-6.503942919689386,1.0391667138301477,-3.5856094372820317,17.165677980005725,-30.194061117962804,42.746128,170.54955108191325,0.0,42.746128,0.1343437425867617,-0.008142,-0.75414503,0.64276803,1.0,0.0,0.0,0.0,164.55865314999338
7.1559,6918.1591,-2.794594322504815,1.3340520074543485,5.660108944294805,0.6288155282110446,-5.988376563625643,1.550167632758388,-3.274114798019731,16.625419429868344,-30.38336034308076,12.374606,177.66606581859452,0.0,12.374606,0.077009239874704,-0.03797,-0.76521701,0.63802099,1.0,0.0,0.0,0.0,171.16664550651916
7.1778,6918.1791,-3.973344543754364,1.4815346782079164,4.541950047079238,0.5859281858579853,-5.428782284150697,1.9542741761924662,-2.82283240211446,16.06538612174137,-30.457527411511368,-19.789118,-175.9798533431272,0.0,19.789118000000002,0.0190534293621776,-0.060713,-0.77241701,0.63191998,1.0,0.0,0.0,0.0,177.81650569752497
7.2054,6918.1991,-4.816353324406329,1.5528487920162646,3.346706406165998,0.4959088300664999,-4.852931615522906,2.2312558787027372,-2.1804783830841092,15.81354540555368,-30.314619170100933,-38.514854,-170.23392510581485,0.0,38.514854000000014,0.0364380993823719,0.079783,0.77789098,-0.62224799,1.0,0.0,0.0,0.0,175.82357683864964
7.2198,6918.2191,-5.200355758133979,1.6549881128695487,2.285996002599912,0.3965923594822406,-4.300120496846073,2.423643105503075,-1.658322291171956,15.829933216177817,-30.03759508974676,-46.71386,-165.4708455367735,0.0,46.71386000000001,0.0844802016283097,0.094449,0.78165799,-0.610699,1.0,0.0,0.0,0.0,170.3077297889114
7.2356,6918.2392,-5.125690191194422,1.8982903278717655,1.5155821257670787,0.41297486459201815,-3.792433874750553,2.598017941010849,-1.709709920979737,15.72304733220593,-29.893233317464983,-49.803936,-162.21195564716737,0.0,49.80393599999999,0.1254202907963446,0.09816,0.782902,-0.60141402,1.0,0.0,0.0,0.0,165.58994463116233
7.2567,6918.2592,-4.715937767885746,2.316336035991689,1.05012655245209,0.5948306226424609,-3.3449046771961717,2.7760084117335904,-2.3074541085138893,15.267169140830296,-30.04348734865057,-50.589455,-160.40198152223365,0.0,50.58945499999999,0.1585226858578252,0.091598,0.78188503,-0.59593302,1.0,0.0,0.0,0.0,161.75768395115847
7.2834,6918.2792,-4.26726994074495,2.6464128330808627,0.7798038522813577,0.9068301820321165,-2.9946145854197628,2.9147736449692934,-2.8717130710464627,14.910841057213158,-30.2729987578026,-49.636692,-158.97972773648547,0.0,49.63669199999998,0.1892648649483568,0.082689,0.78329599,-0.586335,1.0,0.0,0.0,0.0,158.18022865042101
7.2981,6918.2993,-3.87764254695879,2.7664262063194967,0.6204707218437324,1.3181486980467065,-2.698720443135851,3.0487804468061035,-3.4143501301468007,14.59795640422881,-30.55578217352295,-47.127197,-157.8940423748337,0.0,47.127196999999995,0.2206441513941383,0.070115,0.78717601,-0.57162398,1.0,0.0,0.0,0.0,154.50626017764833
7.3158,6918.3193,-3.5126569438412383,2.6088658108702805,0.5257932112139496,1.6894537102837917,-2.479359830836311,3.194115409100365,-3.615822405240957,14.654518147605593,-30.7017861637489,-44.060085,-156.81414580829556,0.0,44.060085000000015,0.2467907711138724,0.06342,0.79476601,-0.55083501,1.0,0.0,0.0,0.0,151.42462506695404
7.345,6918.3393,-3.1561653315133387,2.1188641774481414,0.474298389574745,2.0015358406464707,-2.330131832816406,3.3486775112204965,-3.787072075055759,15.118758153724755,-30.601182466592356,-40.01244,-156.1602510623008,0.0,40.01244,0.2689886722075089,0.058074,0.80682802,-0.52278203,1.0,0.0,0.0,0.0,148.7918083506222
7.3632,6918.3593,-2.8895651750199547,1.4825798583631098,0.40584590997070435,2.2792585527455382,-2.147292427850319,3.520798713615831,-4.085516090249287,15.363234054399584,-30.524270887022464,-35.589825,-156.0724912731089,0.0,35.58982499999999,0.2939616667592556,0.04614,0.81773502,-0.49271399,1.0,0.0,0.0,0.0,145.80943037125073
7.382,6918.3794,-2.7192254440341133,0.8464549469667473,0.31109888105640415,2.5477063351060347,-1.8534527265180647,3.686753823713457,-4.420801922590236,15.057335215834492,-30.682534251441886,-31.33436,-156.46266588070745,0.0,31.334360000000004,0.3222848318162984,0.02708,0.82402599,-0.46516699,1.0,0.0,0.0,0.0,142.39768351506953
7.3964,6918.3994,-2.6023378215564676,0.1673090067263754,0.15930997364754163,2.785408507134397,-1.4532279833268698,3.83870676743624,-4.614903212725782,14.368321987578744,-31.049790417329405,-27.308687,-157.12317639363158,0.0,27.308686999999992,0.3521760658858291,0.004849,0.826554,-0.43904099,1.0,0.0,0.0,0.0,138.75905816539202
7.4149,6918.4195,-2.3423271167661923,-0.755190348619097,-0.10603593827364577,2.9302637657910986,-1.1455170413425586,3.9702481930500584,-4.7319779574508924,14.162763878880668,-31.243862643438703,-23.192545,-158.25137404809882,0.0,23.192544999999996,0.3748726117219548,-0.010862,0.83310598,-0.406555,1.0,0.0,0.0,0.0,135.9671206312534
7.435,6918.4395,-1.7571735226330836,-1.8899229553289998,-0.5507747145225572,2.961025601837286,-1.091366370890055,4.089314683688193,-5.24764674812106,14.699190544785601,-31.108807919633296,-18.453852,-160.7602701245655,0.0,18.453852000000012,0.3854627653128626,-0.021002,0.84764397,-0.363974,1.0,0.0,0.0,0.0,134.6550553982514
