AppTimestamp(s),SensorTimestamp(s),gyro_x,gyro_y,gyro_z
0.0434,263.9105,-0.39279,-0.18143,-0.15394
0.0447,263.9205,-0.58582,-0.33353,-0.17165
0.0454,263.9305,-0.67745,-0.52657,-0.13622
0.0465,263.9405,-0.60659,-0.7086,-0.09285
0.0472,263.9505,-0.43005,-1.03481,-0.11668
0.0483,263.9604,-0.35186,-1.33169,-0.14111
0.055,263.9704,-0.40867,-1.1753,-0.10201
0.0697,263.9805,-0.58643,-0.73609,-0.01405
0.0746,263.9904,-0.81001,-0.25107,0.02321
0.0996,264.0005,-1.02014,0.11668,-0.02077
0.1008,264.0105,-1.19485,0.31276,-0.13622
0.1026,264.0204,-1.32436,0.30177,-0.21808
0.1209,264.0304,-1.43309,0.11118,-0.22174
0.1232,264.0403,-1.45752,-0.44471,-0.15577
0.1376,264.0505,-1.248,-1.20951,0.10934
0.142,264.0605,-0.90836,-1.50517,0.37202
0.1538,264.0705,-0.59804,-1.72081,0.46487
0.1618,264.0804,-0.42272,-1.76723,0.43249
0.1737,264.0905,-0.34514,-1.62612,0.3543
0.182,264.1005,-0.46731,-1.66033,0.25168
0.1944,264.1104,-0.56688,-1.81977,0.24801
0.2019,264.1205,-0.51679,-1.90468,0.27061
0.2138,264.1304,-0.21258,-1.2199,0.31215
0.2221,264.1404,0.21319,-0.13561,0.37018
0.2337,264.1504,0.69394,0.51252,0.551
0.2419,264.1605,1.11177,0.6353,0.83627
0.257,264.1704,1.62307,1.12338,1.18691
0.2625,264.1805,2.15758,1.86192,1.4282
0.2738,264.1905,2.63161,2.52104,1.48318
0.2821,264.2005,2.86435,2.7776,1.40438
0.294,264.2104,2.94987,2.75134,1.24494
0.3019,264.2204,2.85885,2.51493,1.08978
0.3137,264.2305,2.58396,2.04457,1.01159
0.322,264.2405,2.28769,1.61879,1.04275
0.3337,264.2505,1.96454,1.37689,1.18569
0.342,264.2605,1.75196,1.33657,1.33108
0.3537,264.2704,1.52167,1.48318,1.47463
0.3619,264.2805,1.27732,1.63223,1.52594
0.3741,264.2904,0.96272,1.85214,1.52228
0.3821,264.3005,0.69455,2.09832,1.49357
0.3958,264.3105,0.34941,2.39337,1.44164
0.4049,264.3205,0.0391,2.56808,1.37506
0.4158,264.3304,-0.29505,2.55158,1.29565
0.422,264.3404,-0.57116,2.49844,1.20096
0.4346,264.3504,-0.82039,2.39704,1.10261
0.442,264.3605,-1.05313,2.31884,1.03908
0.4537,264.3705,-1.22906,2.25593,0.9896
0.462,264.3805,-1.2761,2.22416,0.94745
0.4738,264.3905,-1.19852,2.13925,0.88148
0.482,264.4004,-1.10139,1.97309,0.83322
0.4937,264.4105,-0.99143,1.68232,0.74037
0.502,264.4205,-0.93157,1.43004,0.57177
0.5155,264.4305,-0.96639,1.21257,0.32803
0.522,264.4405,-1.03664,1.10567,0.13744
0.5362,264.4505,-1.15148,0.91996,-0.0672
0.542,264.4604,-1.24983,0.64324,-0.16188
0.5542,264.4705,-1.28954,0.15944,-0.20097
0.5619,264.4805,-1.23334,-0.34514,-0.2193
0.5796,264.4905,-0.92363,-0.97189,-0.22907
0.5875,264.5005,-0.47892,-1.26388,-0.24801
0.5964,264.5105,0.02566,-1.43676,-0.32987
0.6023,264.5204,0.29199,-1.5571,-0.4386
0.6165,264.5305,0.35491,-1.7654,-0.51129
0.6231,264.5405,0.24923,-2.03724,-0.54795
0.6337,264.5505,0.17959,-2.35366,-0.56566
0.642,264.5605,0.27306,-2.54242,-0.58215
0.6536,264.5705,0.50335,-2.60595,-0.61087
0.6619,264.5804,0.78863,-2.6817,-0.61514
0.6736,264.5904,1.0794,-2.76417,-0.6182
0.6819,264.6005,1.25044,-2.80082,-0.66096
0.6937,264.6105,1.33474,-2.77944,-0.7086
0.7019,264.6205,1.34329,-2.72324,-0.77397
0.7149,264.6304,1.31458,-2.71469,-0.92668
0.7219,264.6404,1.33169,-2.75439,-1.12888
0.7342,264.6504,1.31886,-2.73423,-1.38056
0.742,264.6605,1.2816,-2.65787,-1.56992
0.7536,264.6705,1.18264,-2.55586,-1.83015
0.7621,264.6805,1.07207,-2.52165,-2.01952
0.775,264.6905,0.97128,-2.57846,-2.13986
0.7837,264.7003,0.95173,-2.61328,-2.17407
0.7943,264.7104,1.03114,-2.50577,-2.16979
0.8019,264.7205,1.15515,-2.35122,-2.13253
0.8136,264.7304,1.28221,-2.21744,-2.07144
0.822,264.7405,1.36467,-2.15697,-2.0128
0.834,264.7505,1.40194,-2.11115,-1.93522
0.8421,264.7605,1.40927,-2.09527,-1.85275
0.8537,264.7704,1.38483,-2.12887,-1.7483
0.8619,264.7805,1.32802,-2.22905,-1.69088
0.8737,264.7904,1.24067,-2.38176,-1.64873
0.8827,264.8005,1.12766,-2.55769,-1.6078
0.8938,264.8105,0.97005,-2.74095,-1.51617
0.9019,264.8205,0.81306,-2.84663,-1.39338
0.9141,264.8304,0.65546,-2.94254,-1.24739
0.922,264.8405,0.52901,-2.91505,-1.15759
0.9337,264.8504,0.29871,-2.75439,-1.04091
0.942,264.8605,0.04093,-2.50027,-0.96578
0.9549,264.8705,-0.29138,-2.13436,-0.92485
0.962,264.8805,-0.57544,-1.84787,-0.95112
0.9759,264.8904,-0.98533,-1.60535,-1.01526
0.9832,264.9004,-1.32313,-1.5913,-1.07207
0.9936,264.9104,-1.60413,-1.47585,-1.08917
1.0019,264.9205,-1.78739,-1.237,-1.05863
1.0136,264.9305,-1.94683,-0.80146,-0.98166
1.0219,264.9405,-2.11359,-0.35186,-0.90652
1.0355,264.9505,-2.35366,0.12034,-0.83689
1.0423,264.9604,-2.59373,0.43005,-0.77213
1.0537,264.9704,-2.78005,0.67195,-0.64752
1.0619,264.9805,-2.81365,0.90836,-0.45754
1.0736,264.9905,-2.67192,1.21318,-0.18021
1.0819,265.0005,-2.44346,1.53633,0.08919
1.094,265.0105,-2.17957,2.01586,0.38362
1.1019,265.0204,-2.02135,2.38482,0.59193
1.1143,265.0304,-1.94072,2.72263,0.85277
1.1219,265.0405,-1.96088,2.83991,1.04091
1.1337,265.0505,-1.96576,2.79471,1.17958
1.1419,265.0605,-1.90101,2.80815,1.27915
1.1545,265.0704,-1.69759,2.90711,1.37567
1.1619,265.0804,-1.4447,2.91933,1.32375
1.1748,265.0905,-1.14904,2.84969,1.1411
1.1846,265.1005,-0.91996,2.755,0.94623
1.1935,265.1105,-0.72326,2.63283,0.81062
1.2052,265.1205,-0.54856,2.56869,0.78007
1.2147,265.1305,-0.40012,2.53448,0.84788
1.2218,265.1404,-0.24679,2.49783,0.93707
1.2354,265.1504,-0.06964,2.40742,1.00671
1.242,265.1605,0.1405,2.21927,1.02564
1.2544,265.1704,0.42455,1.92606,1.01098
1.262,265.1805,0.67745,1.59986,0.9841
1.2739,265.1905,0.97311,1.20402,0.94134
1.282,265.2005,1.19791,0.90958,0.94073
1.2952,265.2104,1.47157,0.71654,1.00548
1.3023,265.2204,1.72325,0.76297,1.08123
1.3146,265.2304,1.99875,0.96333,1.14598
1.3219,265.2404,2.14902,1.15759,1.19974
1.3373,265.2504,2.1985,1.3549,1.26938
1.3421,265.2605,2.12031,1.46669,1.34146
1.3534,265.2704,1.92789,1.51495,1.43614
1.3618,265.2804,1.74952,1.53572,1.51495
1.3736,265.2904,1.46119,1.51739,1.60291
1.3819,265.3004,1.14598,1.50273,1.64628
1.3935,265.3104,0.79229,1.49479,1.63468
1.4019,265.3205,0.55405,1.50517,1.55038
1.4134,265.3304,0.40867,1.51983,1.42087
1.4219,265.3404,0.33353,1.52533,1.2816
1.4334,265.3504,0.29932,1.52228,1.13132
1.4421,265.3604,0.28405,1.53694,1.04947
1.4538,265.3705,0.2529,1.62185,1.01281
1.462,265.3805,0.1857,1.75563,1.03847
1.4737,265.3905,0.01772,1.91567,1.13315
1.4824,265.4004,-0.23396,1.97737,1.24311
1.4942,265.4104,-0.63163,1.96332,1.37994
1.5022,265.4204,-0.99143,1.88757,1.43798
1.515,265.4305,-1.42209,1.76784,1.42515
1.5234,265.4414,-1.72142,1.81183,1.31519
1.5347,265.4514,-1.91751,1.91201,1.1863
1.5442,265.4615,-2.06106,1.96882,1.10567
1.5556,265.4715,-2.33412,2.02807,1.06779
1.5685,265.4814,-2.61206,1.89429,1.11911
1.5748,265.4914,-2.83258,1.62551,1.21012
1.5848,265.5014,-2.85702,1.39461,1.2199
1.5945,265.5114,-2.75317,1.14354,1.11972
1.6042,265.5215,-2.57724,0.99693,0.92974
1.6151,265.5315,-2.36283,0.79168,0.72693
1.6241,265.5414,-2.26264,0.6408,0.6243
1.6359,265.5514,-2.23271,0.48869,0.51374
1.6441,265.5614,-2.21072,0.37018,0.41661
1.6545,265.5714,-2.11237,0.14844,0.26023
1.6653,265.5815,-1.9621,-0.09224,0.1179
1.6744,265.5914,-1.78006,-0.36652,-0.00977
1.6841,265.6014,-1.60291,-0.65485,-0.1124
1.696,265.6114,-1.38605,-0.92607,-0.21869
1.7056,265.6214,-1.1863,-1.13804,-0.34636
1.7146,265.6314,-0.97983,-1.25411,-0.50885
1.724,265.6415,-0.84849,-1.24494,-0.62369
1.7344,265.6515,-0.71593,-1.14171,-0.77458
1.7441,265.6615,-0.60598,-0.9951,-0.91202
1.7545,265.6714,-0.46731,-0.84788,-1.02014
1.7642,265.6814,-0.32498,-0.79779,-1.0568
1.7798,265.6914,-0.06781,-0.83505,-1.07818
1.7842,265.7014,0.20953,-0.93646,-1.0739
1.7945,265.7115,0.52351,-1.19302,-1.05313
1.8044,265.7215,0.76053,-1.4563,-1.03908
1.8189,265.7314,1.02503,-1.86742,-1.00671
1.8256,265.7414,1.17042,-2.09649,-0.98838
1.8356,265.7514,1.33596,-2.27364,-0.9841
1.8441,265.7614,1.45447,-2.31884,-1.00793
1.8546,265.7715,1.52289,-2.30785,-1.02809
1.8642,265.7815,1.51006,-2.26998,-1.02442
1.8752,265.7914,1.41599,-2.21988,-1.02503
1.8884,265.8014,1.27182,-2.23088,-1.04824
1.8964,265.8114,1.14293,-2.23516,-1.13377
1.9054,265.8214,1.06229,-2.20278,-1.22967
1.9161,265.8315,1.0006,-2.12703,-1.35918
1.9252,265.8415,0.95417,-2.02929,-1.43737
1.9351,265.8515,0.89553,-1.91445,-1.50151
1.9453,265.8614,0.84177,-1.85581,-1.53816
1.9549,265.8714,0.80268,-1.80816,-1.60291
1.968,265.8814,0.78374,-1.80327,-1.68293
1.9753,265.8915,0.74648,-1.83809,-1.75624
1.9864,265.9015,0.71777,-1.87719,-1.78922
1.9962,265.9115,0.70983,-1.93278,-1.81977
2.0065,265.9214,0.70983,-1.94377,-1.83565
2.0153,265.9314,0.6915,-1.95599,-1.85031
2.0281,265.9414,0.66401,-1.96332,-1.84603
2.0365,265.9514,0.62797,-1.99142,-1.8326
2.0449,265.9615,0.59254,-2.02624,-1.79411
2.0687,265.9715,0.55405,-2.05923,-1.72264
2.0703,265.9825,0.53267,-2.08244,-1.63773
2.0802,265.9925,0.53878,-2.16307,-1.53633
2.0856,266.0024,0.57544,-2.25287,-1.45386
2.1011,266.0124,0.62308,-2.35305,-1.37811
2.1058,266.0224,0.62492,-2.41475,-1.35551
2.1159,266.0324,0.562,-2.40131,-1.38666
2.1257,266.0425,0.41539,-2.34022,-1.42393
2.1357,266.0525,0.14722,-2.18507,-1.44042
2.1441,266.0625,-0.15149,-1.98348,-1.40499
2.1556,266.0724,-0.47403,-1.69026,-1.32252
2.164,266.0824,-0.82833,-1.36101,-1.21318
2.1762,266.0924,-1.25838,-0.96883,-1.09528
2.1841,266.1024,-1.65178,-0.6408,-1.02992
2.198,266.1125,-2.06045,-0.34453,-0.99082
2.204,266.1224,-2.32495,-0.18631,-0.95661
2.2156,266.1324,-2.60717,-0.10018,-0.81612
2.2239,266.1424,-2.81914,-0.10568,-0.58338
2.2363,266.1524,-2.99996,-0.13256,-0.24862
2.2474,266.1624,-3.05494,-0.17043,-0.01955
2.2555,266.1725,-3.01767,-0.27367,0.1857
2.2643,266.1825,-2.8784,-0.3317,0.30849
2.2756,266.1924,-2.62061,-0.25901,0.40928
2.284,266.2024,-2.33045,-0.08369,0.5003
2.2957,266.2124,-2.06228,0.27978,0.62797
2.304,266.2224,-1.85398,0.69089,0.78007
2.3158,266.2325,-1.66949,1.13254,0.90836
2.324,266.2425,-1.51128,1.41354,0.9841
2.337,266.2525,-1.34635,1.60047,1.08673
2.3439,266.2624,-1.22601,1.70431,1.18874
2.3558,266.2724,-1.05374,1.79655,1.32619
2.3639,266.2824,-0.89614,1.84176,1.44103
2.3755,266.2924,-0.71349,1.83504,1.53327
2.3841,266.3025,-0.56627,1.78434,1.57237
2.3956,266.3125,-0.39889,1.67499,1.6194
2.404,266.3224,-0.23518,1.54732,1.66216
2.4183,266.3324,0.02566,1.40621,1.68477
2.424,266.3424,0.29077,1.26266,1.68538
2.4355,266.3524,0.64446,1.12949,1.6756
2.444,266.3625,0.94562,1.11788,1.67316
2.4555,266.3725,1.20585,1.16248,1.66461
2.4639,266.3824,1.34085,1.2199,1.67255
2.4755,266.3924,1.42393,1.30175,1.67499
2.484,266.4024,1.45447,1.34513,1.6921
2.4966,266.4124,1.518,1.37078,1.71714
2.504,266.4225,1.59191,1.32008,1.73364
2.5156,266.4325,1.68416,1.22845,1.76968
2.524,266.4424,1.78434,1.19363,1.8326
2.5359,266.4524,1.93644,1.23334,1.89918
2.5452,266.4624,2.08855,1.33841,1.91628
2.5555,266.4724,2.22783,1.49906,1.89124
2.564,266.4825,2.35244,1.63101,1.8552
2.5766,266.4925,2.48011,1.67499,1.82099
2.5841,266.5024,2.52471,1.71775,1.79472
2.599,266.5124,2.47339,1.78189,1.80205
2.604,266.5224,2.31762,1.84665,1.80022
2.6191,266.5324,1.97676,1.95904,1.77395
2.6241,266.5425,1.57603,2.0519,1.70492
2.636,266.5525,1.08429,2.15391,1.58886
2.6441,266.5625,0.73182,2.1814,1.50029
2.6555,266.5724,0.35247,2.15452,1.44897
2.6668,266.5824,0.11179,2.1814,1.40377
2.6754,266.5923,-0.07575,2.28036,1.33535
2.6839,266.6024,-0.23518,2.33106,1.32252
2.7003,266.6125,-0.41417,2.3219,1.34635
2.7039,266.6224,-0.55711,2.27608,1.41232
2.716,266.6324,-0.71654,2.21133,1.51433
2.7239,266.6424,-0.82772,2.14353,1.57298
2.7354,266.6524,-0.88392,2.09832,1.52838
2.7439,266.6624,-0.86621,1.9676,1.39766
2.7555,266.6725,-0.83627,1.68293,1.19058
2.764,266.6825,-0.87476,1.4789,1.02198
2.7772,266.6924,-0.98349,1.30298,0.93951
2.7839,266.7024,-1.07451,1.19791,0.95051
2.7954,266.7124,-1.17225,1.09956,0.9896
2.8039,266.7224,-1.20829,0.97555,1.0061
2.8156,266.7325,-1.19424,0.80512,0.93462
2.824,266.7425,-1.16309,0.62186,0.80451
2.8355,266.7524,-1.11788,0.32559,0.56261
2.844,266.7624,-1.05558,0.01405,0.3207
2.8564,266.7724,-0.94012,-0.42699,0.06414
2.865,266.7824,-0.81734,-0.87354,-0.12278
2.8756,266.7925,-0.67684,-1.30664,-0.25351
2.8846,266.8025,-0.5455,-1.53144,-0.34514
2.898,266.8125,-0.4441,-1.64506,-0.42272
2.907,266.8224,-0.39218,-1.67438,-0.52534
2.9169,266.8324,-0.36469,-1.65361,-0.66218
2.924,266.8424,-0.3708,-1.64201,-0.78741
2.9354,266.8525,-0.38668,-1.66522,-0.93585
2.9439,266.8625,-0.34697,-1.70554,-1.08978
2.9562,266.8725,-0.23946,-1.80755,-1.22784
2.964,266.8824,-0.12645,-1.90101,-1.3158
2.9754,266.8924,0.03421,-2.11726,-1.43859
2.9839,266.9024,0.1741,-2.31701,-1.55954
2.9954,266.9124,0.29932,-2.46973,-1.6811
3.0038,266.9224,0.37141,-2.54486,-1.75379
3.0346,266.9324,0.43677,-2.56319,-1.85459
3.0359,266.9424,0.48197,-2.5241,-1.94255
3.0366,266.9524,0.52657,-2.4569,-2.03785
3.0642,266.9624,0.55833,-2.40925,-2.11237
3.0649,266.9724,0.62797,-2.37199,-2.19911
3.0655,266.9825,0.73304,-2.34145,-2.29074
3.0774,266.9925,0.86987,-2.31457,-2.39642
3.084,267.0024,0.99082,-2.35611,-2.42819
3.099,267.0124,1.12827,-2.44041,-2.40437
3.104,267.0224,1.29565,-2.60106,-2.31946
3.1168,267.0324,1.54305,-2.85579,-2.16307
3.124,267.0425,1.80633,-3.05677,-2.00058
3.1373,267.0525,2.11237,-3.2498,-1.80327
3.144,267.0625,2.33717,-3.48071,-1.67255
3.1555,267.0724,2.59129,-3.82402,-1.55954
3.1675,267.0824,2.70735,-4.03476,-1.49601
3.1755,267.0924,2.6255,-4.23452,-1.46791
3.1882,267.1024,2.38421,-4.29072,-1.47096
3.1961,267.1125,1.91873,-4.16549,-1.47646
3.204,267.1225,1.47157,-3.85884,-1.48624
3.2175,267.1324,0.97555,-3.36892,-1.51861
3.2239,267.1424,0.70616,-2.95414,-1.53449
3.2357,267.1524,0.3036,-2.27731,-1.56198
3.2439,267.1624,-0.11606,-1.59375,-1.57603
3.256,267.1725,-0.67134,-0.86499,-1.5742
3.2646,267.1825,-1.2144,-0.3427,-1.61818
3.2756,267.1924,-1.75318,0.06475,-1.66949
3.2839,267.2024,-2.20889,0.36224,-1.71164
3.2956,267.2124,-2.55769,0.52718,-1.77945
3.304,267.2224,-2.68842,0.53939,-1.80327
3.3163,267.2325,-2.68414,0.48747,-1.72081
3.324,267.2425,-2.59557,0.41722,-1.5632
3.3365,267.2525,-2.41231,0.3653,-1.25288
3.344,267.2624,-2.28219,0.41478,-0.98166
3.3555,267.2724,-2.16552,0.51068,-0.62675
3.365,267.2824,-2.1307,0.64507,-0.37141
3.377,267.2925,-2.14047,0.91874,-0.05498
3.3839,267.3025,-2.15513,1.17653,0.20403
3.3956,267.3125,-2.09832,1.44714,0.46853
3.4039,267.3224,-2.00547,1.64078,0.67317
3.4169,267.3324,-1.88269,1.88146,0.95173
3.4238,267.3424,-1.78495,2.05434,1.18813
3.4359,267.3524,-1.69393,2.16796,1.42942
3.444,267.3625,-1.58825,2.19545,1.61818
3.4556,267.3725,-1.43309,2.21194,1.76907
3.4639,267.3824,-1.22723,2.20339,1.86864
3.4763,267.3924,-0.93462,2.10382,1.90346
3.4839,267.4024,-0.7251,2.05434,1.85031
3.4967,267.4124,-0.51557,2.05006,1.73669
3.504,267.4225,-0.32681,2.08488,1.62368
3.516,267.4325,-0.13867,2.09466,1.48807
3.5248,267.4433,0.04581,2.07389,1.38361
3.5367,267.4535,0.27428,2.0354,1.31886
3.545,267.4635,0.47892,2.02502,1.31764
3.5565,267.4734,0.68478,1.9957,1.36712
3.565,267.4834,0.81184,1.923,1.43859
3.5768,267.4934,0.88881,1.78739,1.51556
3.585,267.5034,0.96272,1.67133,1.54488
3.5965,267.5134,1.03481,1.56504,1.56992
3.605,267.5235,1.07573,1.48685,1.60413
3.617,267.5334,1.09406,1.42881,1.67011
3.6248,267.5432,1.12155,1.40682,1.7147
3.6395,267.5544,1.24678,1.42698,1.67072
3.6474,267.5644,1.39216,1.42637,1.56748
3.6576,267.5744,1.56259,1.40988,1.43798
3.6684,267.5844,1.63406,1.44042,1.37139
3.6779,267.5944,1.6304,1.49662,1.35734
3.686,267.6045,1.51311,1.56748,1.41537
3.6974,267.6144,1.28037,1.65056,1.5461
3.7059,267.6244,1.05069,1.70248,1.71164
3.7196,267.6344,0.73731,1.7318,1.95966
3.726,267.6444,0.48136,1.71836,2.15513
3.7375,267.6545,0.27917,1.72264,2.28219
3.7459,267.6645,0.18998,1.72753,2.28708
3.7585,267.6745,0.18815,1.7599,2.19362
3.7659,267.6844,0.2138,1.77456,2.0916
3.7802,267.6944,0.19914,1.7599,2.00669
3.786,267.7044,0.08552,1.74219,1.96332
3.7997,267.7145,-0.11912,1.72631,1.89551
3.806,267.7245,-0.32009,1.7373,1.83321
3.8174,267.7343,-0.58338,1.81244,1.72264
3.8268,267.7444,-0.82161,1.86375,1.62063
3.8375,267.7544,-1.02442,1.88757,1.54549
3.8459,267.7644,-1.16553,1.8668,1.47157
3.8596,267.7744,-1.18813,1.76968,1.35184
3.8659,267.7845,-1.08673,1.51617,1.18813
3.8776,267.7945,-0.8937,1.12705,0.95295
3.8863,267.8044,-0.72326,0.81245,0.75808
3.899,267.8144,-0.54734,0.38973,0.51313
3.9059,267.8244,-0.47403,-0.01955,0.32376
3.9175,267.8344,-0.55772,-0.41417,0.19059
3.9259,267.8445,-0.69516,-0.62308,0.135
3.9376,267.8545,-0.91324,-0.83383,0.07697
3.9459,267.8644,-1.04153,-0.97433,0.00489
3.9574,267.8744,-1.07085,-1.06352,-0.07819
3.9658,267.8844,-1.02503,-1.09467,-0.18692
3.9783,267.8944,-0.91935,-1.12277,-0.34331
3.986,267.9045,-0.86743,-1.13499,-0.48258
3.9983,267.9145,-0.85521,-1.13071,-0.70188
4.006,267.9245,-0.90408,-1.13621,-0.85765
4.0175,267.9344,-0.98777,-1.16309,-1.00976
4.026,267.9444,-1.02625,-1.2315,-1.10322
4.0383,267.9544,-0.956,-1.32191,-1.16064
4.0467,267.9644,-0.79046,-1.4111,-1.15026
4.0575,267.9745,-0.52046,-1.53755,-1.0794
4.066,267.9845,-0.25901,-1.63529,-1.00732
4.0775,267.9944,0.06231,-1.73913,-0.94318
4.0872,268.0044,0.27917,-1.80144,-0.93462
4.0978,268.0144,0.416,-1.82221,-0.96761
4.1059,268.0244,0.45632,-1.83565,-1.03297
4.1174,268.0345,0.46365,-1.88513,-1.14659
4.1281,268.0445,0.46548,-1.934,-1.2596
4.1375,268.0544,0.45632,-1.94683,-1.35734
4.1471,268.0644,0.44227,-1.94866,-1.42698
4.1607,268.0744,0.46853,-2.00791,-1.47768
4.1678,268.0844,0.54978,-2.09221,-1.50517
4.1775,268.0944,0.72754,-2.20889,-1.50945
4.1859,268.1044,0.9108,-2.33473,-1.48746
4.1977,268.1144,1.07573,-2.50455,-1.46241
4.2059,268.1244,1.20157,-2.71591,-1.4618
4.2188,268.1344,1.2596,-2.93093,-1.52472
4.2259,268.1444,1.23334,-3.02439,-1.63834
4.2375,268.1545,1.09223,-3.02562,-1.82588
4.2466,268.1645,0.90347,-2.87229,-1.99081
4.2575,268.1743,0.6072,-2.50943,-2.22477
4.2671,268.1844,0.3207,-2.03479,-2.41903
4.2787,268.1944,0.00061,-1.40438,-2.60351
4.2862,268.2044,-0.21441,-0.96822,-2.69025
4.3022,268.2144,-0.47159,-0.48564,-2.75012
4.3062,268.2245,-0.61697,-0.22541,-2.78371
4.3189,268.2345,-0.77213,0.02138,-2.8338
4.3262,268.2444,-0.8827,0.12523,-2.89978
4.3385,268.2544,-1.04763,0.14294,-3.00179
4.3465,268.2644,-1.13804,0.03421,-3.05616
4.3577,268.2744,-1.21379,-0.15699,-3.0415
4.3661,268.2845,-1.24617,-0.22052,-2.97675
4.3775,268.2945,-1.29992,-0.15882,-2.88817
4.386,268.3044,-1.40866,-0.04337,-2.77944
4.4004,268.3144,-1.60047,0.06353,-2.6029
4.4062,268.3244,-1.76662,0.02382,-2.41414
4.4236,268.3344,-1.9004,-0.13989,-2.13803
4.427,268.3444,-1.94133,-0.25717,-1.87841
4.4376,268.3545,-1.91934,-0.2584,-1.50456
4.446,268.3645,-1.87413,-0.18204,-1.12888
4.4575,268.3744,-1.83748,0.00611,-0.72754
4.466,268.3844,-1.84359,0.09835,-0.46609
4.4776,268.3944,-1.88146,0.03054,-0.22663
4.486,268.4045,-1.94194,-0.03421,-0.07819
4.4976,268.4145,-2.0354,-0.04826,0.11362
4.506,268.4245,-2.08916,0.03543,0.28527
4.5179,268.4344,-2.07267,0.29932,0.53939
4.5276,268.4444,-1.97371,0.55039,0.68906
4.5375,268.4544,-1.78006,0.88209,0.81978
4.546,268.4644,-1.60596,1.02931,0.90652
4.5576,268.4745,-1.45752,1.06046,1.0006
4.5659,268.4845,-1.35795,1.08001,1.13377
4.58,268.4944,-1.26022,1.09162,1.31519
4.5859,268.5044,-1.12888,1.11911,1.47096
4.5975,268.5144,-0.90897,1.22967,1.58642
4.6059,268.5244,-0.63163,1.38361,1.66522
4.6175,268.5345,-0.34575,1.52289,1.72814
4.626,268.5445,-0.18876,1.58275,1.80083
4.6375,268.5544,-0.135,1.57298,1.91751
4.6466,268.5644,-0.1179,1.56504,1.99631
4.6585,268.5744,-0.08552,1.52961,2.09038
4.666,268.5844,-0.04459,1.48013,2.12581
4.6787,268.5944,0.00183,1.33657,2.13192
4.686,268.6045,0.07758,1.16797,2.1026
4.6979,268.6144,0.26084,0.87537,1.9902
4.7059,268.6244,0.46059,0.71899,1.88269
4.7175,268.6344,0.77519,0.68845,1.76845
4.7259,268.6444,1.02625,0.85338,1.73669
4.7376,268.6545,1.20524,1.20035,1.76418
4.746,268.6645,1.3042,1.49418,1.82343
4.7582,268.6745,1.34207,1.69698,1.85886
4.766,268.6844,1.34451,1.74524,1.85214
4.7784,268.6944,1.36712,1.6756,1.83321
4.786,268.7044,1.40988,1.55832,1.81732
4.7975,268.7145,1.46608,1.38056,1.80877
4.8061,268.7245,1.52472,1.24067,1.82404
4.8176,268.7345,1.53083,1.0739,1.85764
4.826,268.7444,1.46485,0.95051,1.88024
4.8375,268.7544,1.28709,0.80451,1.91323
4.846,268.7644,1.08856,0.71471,1.94927
4.8584,268.7744,0.89064,0.66768,1.99814
4.8661,268.7845,0.78924,0.71227,2.01891
4.8781,268.7945,0.69028,0.88881,2.05067
4.8859,268.8044,0.6353,1.02748,2.05495
4.8975,268.8144,0.56322,1.21745,2.02196
4.9059,268.8244,0.47647,1.29748,1.97248
4.9192,268.8344,0.31521,1.24861,1.93461
4.926,268.8445,0.146,1.15148,1.9114
4.9405,268.8545,0.00794,1.08001,1.88574
4.9477,268.8644,-0.08002,1.07085,1.85642
4.9577,268.8744,-0.17226,1.09528,1.8271
4.9661,268.8844,-0.29199,1.13682,1.79533
4.979,268.8944,-0.46731,1.1582,1.74036
4.9897,268.9045,-0.60964,1.09284,1.64445
5.0008,268.9154,-0.67378,1.03481,1.44347
5.0087,268.9254,-0.66035,1.03236,1.26693
5.0199,268.9355,-0.63408,1.02014,1.04397
5.0302,268.9455,-0.58765,1.05435,0.85155
5.0398,268.9554,-0.51435,1.1472,0.64202
5.0484,268.9654,-0.4215,1.38544,0.4441
5.0605,268.9754,-0.39828,1.63529,0.29566
5.069,268.9864,-0.52412,1.75013,0.27061
5.0825,268.9964,-0.72815,1.75074,0.30543
5.0986,269.0064,-0.94379,1.66888,0.34147
5.1065,269.0165,-1.11788,1.50273,0.4105
5.1105,269.0265,-1.16431,1.30908,0.45571
5.1207,269.0365,-1.08123,1.09101,0.47098
5.1281,269.0464,-0.95112,0.91202,0.45509
5.1399,269.0564,-0.81795,0.60415,0.40806
5.1516,269.0664,-0.81367,0.22663,0.32559
5.162,269.0764,-0.91447,-0.25779,0.17471
5.1685,269.0865,-1.03603,-0.57299,0.05192
5.1833,269.0965,-1.19485,-0.8937,-0.06658
5.1883,269.1064,-1.25105,-1.10078,-0.16554
5.2025,269.1164,-1.20463,-1.18386,-0.27245
5.2086,269.1264,-1.13804,-1.10994,-0.37568
5.2202,269.1364,-1.09834,-0.94012,-0.54734
5.2283,269.1465,-1.10811,-0.7532,-0.72571
5.2407,269.1565,-1.14354,-0.53329,-0.92729
5.2484,269.1664,-1.16125,-0.42333,-1.07207
5.2603,269.1764,-1.11544,-0.39828,-1.15331
5.2684,269.1864,-1.01953,-0.50274,-1.18019
5.2802,269.1964,-0.86926,-0.71105,-1.11666
5.2884,269.2065,-0.66645,-0.90164,-0.99999
5.3049,269.2165,-0.40012,-1.07329,-0.87232
5.3104,269.2263,-0.19487,-1.26205,-0.8265
5.3335,269.2364,0.03726,-1.46913,-0.84727
5.3363,269.2464,0.19853,-1.59802,-0.91813
5.3411,269.2564,0.33781,-1.7037,-1.03908
5.353,269.2665,0.41783,-1.74219,-1.15759
5.3611,269.2765,0.50946,-1.80694,-1.32741
5.3687,269.2865,0.62675,-1.8216,-1.47524
5.3816,269.2964,0.8265,-1.70004,-1.61879
5.3887,269.3064,1.02381,-1.5632,-1.73425
5.4009,269.3164,1.24128,-1.40682,-1.89185
5.4088,269.3264,1.36345,-1.33718,-2.0128
5.4216,269.3365,1.37994,-1.42271,-2.12337
5.4328,269.3474,1.32436,-1.65422,-2.21072
5.4419,269.3575,1.25655,-2.12154,-2.32068
5.4512,269.3675,1.27549,-2.55525,-2.4007
5.4675,269.3775,1.34085,-2.96575,-2.44529
5.4747,269.3874,1.39399,-3.17589,-2.42208
5.4862,269.3974,1.45325,-3.26752,-2.42575
5.4902,269.4084,1.42393,-3.31028,-2.42575
5.502,269.4184,1.23273,-3.07265,-2.4514
5.5102,269.4284,0.98105,-2.89978,-2.5076
5.5229,269.4384,0.65057,-2.63711,-2.45507
5.5302,269.4485,0.43371,-2.43674,-2.39093
5.5421,269.4585,0.23091,-2.13436,-2.33778
5.5502,269.4684,0.16677,-1.89979,-2.32984
5.5629,269.4784,0.20403,-1.68538,-2.38604
5.5703,269.4884,0.28466,-1.62063,-2.43308
5.5822,269.4984,0.38057,-1.68965,-2.46301
5.5902,269.5085,0.42761,-1.85092,-2.47156
5.6053,269.5185,0.42822,-2.04823,-2.43674
5.6105,269.5284,0.41294,-2.08672,-2.40986
5.6229,269.5384,0.34086,-1.99386,-2.37749
5.6311,269.5484,0.17837,-1.79839,-2.39215
5.6421,269.5584,-0.11545,-1.507,-2.46118
5.6505,269.5685,-0.37568,-1.12827,-2.53937
5.6717,269.5785,-0.7141,-0.77458,-2.5638
5.6739,269.5884,-0.9841,-0.52901,-2.48256
5.6896,269.5984,-1.17897,-0.46426,-2.37382
5.693,269.6084,-1.24067,-0.81978,-2.28464
5.7064,269.6184,-1.18386,-1.49295,-2.07816
5.7169,269.6285,-1.09162,-1.62185,-1.89796
5.723,269.6385,-1.01343,-1.66949,-1.75624
5.7317,269.6485,-1.13499,-2.05617,-1.80327
5.7419,269.6584,-1.36284,-2.09649,-1.67316
5.7505,269.6684,-1.53022,-1.67011,-1.30298
5.7618,269.6784,-1.71959,-1.65544,-0.83444
5.7702,269.6884,-1.88269,-1.15698,-0.41905
5.7833,269.6993,-2.05923,-0.98838,-0.03299
5.7912,269.7094,-2.1869,-0.9444,0.19364
5.8033,269.7195,-2.33045,-0.79168,0.37996
5.8112,269.7295,-2.41903,-0.60598,0.49969
5.8252,269.7394,-2.4398,-0.20036,0.63958
5.8312,269.7494,-2.30968,0.39401,0.73243
5.8454,269.7594,-2.07267,0.65179,0.76358
5.8526,269.7704,-1.84603,0.56749,0.7758
5.8676,269.7804,-1.67438,0.42089,0.87354
5.8725,269.7904,-1.57115,0.2474,0.97677
5.8878,269.8004,-1.50273,0.05559,1.05863
5.8934,269.8114,-1.41354,-0.03115,1.12216
5.9062,269.8214,-1.2425,-0.03054,1.23456
5.9136,269.8315,-1.01343,0.04093,1.3494
5.925,269.8415,-0.65912,0.20281,1.46119
5.9337,269.8515,-0.35552,0.37568,1.54121
5.9445,269.8614,-0.00489,0.62858,1.60352
5.9532,269.8714,0.19059,0.82345,1.61085
5.9655,269.8814,0.25534,0.96883,1.59008
5.9745,269.8924,0.2303,0.87659,1.4954
5.9871,269.9024,0.22541,0.74281,1.35612
5.9946,269.9124,0.28833,0.81673,1.27488
6.0062,269.9225,0.43616,1.05496,1.2199
6.0146,269.9325,0.58032,1.36895,1.22662
6.0314,269.9424,0.7477,1.83382,1.29503
6.0366,269.9535,0.85338,2.31762,1.50395
6.0552,269.9635,0.92974,2.71591,1.81549
6.058,269.9734,0.99754,2.95048,2.07083
6.0709,269.9834,1.07024,3.18933,2.29319
6.0866,269.9934,1.08917,3.24064,2.49722
6.0876,270.0035,1.01648,3.317,2.70919
6.0993,270.0135,0.87965,3.53935,2.75745
6.1068,270.0235,0.68967,3.77087,2.79471
6.1151,270.0334,0.49663,3.57051,2.88634
6.1271,270.0434,0.34575,3.30967,2.87412
6.1352,270.0534,0.33414,3.61571,2.72263
6.1475,270.0634,0.49236,3.9975,2.41353
6.1552,270.0735,0.68539,4.08913,2.21744
6.1671,270.0835,0.86376,4.01094,2.13314
6.1752,270.0934,0.88698,3.91259,2.18445
6.1881,270.1034,0.69944,3.98651,2.24065
6.1968,270.1134,0.43555,3.94375,2.24737
6.2081,270.1234,0.01894,3.64564,2.23638
6.2153,270.1335,-0.37263,3.24308,2.23882
6.2272,270.1435,-0.81612,2.66643,2.23821
6.2352,270.1534,-1.11727,2.08122,2.21683
6.2512,270.1634,-1.39033,1.25899,2.2431
6.2596,270.1734,-1.55832,0.63347,2.30479
6.2719,270.1833,-1.65178,-0.07269,2.31884
6.2795,270.1935,-1.61391,-0.63897,2.29136
6.2881,270.2035,-1.45936,-1.28343,2.18568
6.2967,270.2135,-1.3439,-1.58581,2.11054
6.3072,270.2234,-1.26999,-1.85337,2.01586
6.3153,270.2334,-1.22478,-1.56076,2.00242
6.332,270.2434,-0.96883,-1.43431,2.04945
6.3354,270.2535,-0.72021,-1.42148,2.12154
6.3495,270.2635,-0.28588,-0.70188,2.27914
6.3557,270.2735,-0.07636,0.43921,2.32984
6.3688,270.2834,-0.07819,1.15209,2.20339
6.3774,270.2934,-0.27917,1.28526,2.0354
6.3901,270.3034,-0.697,1.07146,1.76784
6.3995,270.3144,-1.15331,0.69089,1.53205
6.4088,270.3244,-1.46302,0.2926,1.36162
6.4165,270.3344,-1.60902,-0.01894,1.21257
6.4288,270.3445,-1.55954,-0.10873,1.10383
6.4366,270.3545,-1.36895,-0.11423,1.03969
6.4501,270.3645,-1.08795,-0.10324,0.96822
6.46,270.3744,-0.90652,-0.13622,0.88026
6.4694,270.3844,-0.79596,-0.23579,0.74648
6.4766,270.3944,-0.79657,-0.32376,0.63774
6.4894,270.4045,-0.86926,-0.30299,0.52168
6.4966,270.4145,-0.94562,-0.21747,0.41539
6.5121,270.4245,-1.06046,-0.11729,0.21991
6.5208,270.4355,-1.13438,-0.05009,0.04948
6.5299,270.4455,-1.18264,-0.05192,-0.13622
6.5392,270.4554,-1.19302,-0.15638,-0.25595
6.5489,270.4654,-1.15698,-0.3769,-0.40378
6.5594,270.4754,-1.11422,-0.60842,-0.5174
6.5697,270.4854,-1.07085,-0.84177,-0.6579
6.5771,270.4955,-1.03847,-0.96639,-0.76114
6.5889,270.5055,-1.02564,-0.97861,-0.89186
6.5972,270.5155,-1.01526,-0.89492,-0.98838
6.6089,270.5254,-0.96883,-0.8546,-1.07146
6.6175,270.5354,-0.90103,-0.87293,-1.09711
6.6321,270.5454,-0.75992,-0.91874,-1.08123
6.6392,270.5555,-0.63225,-1.0006,-1.06168
6.6498,270.5654,-0.50702,-1.12705,-1.0739
6.6576,270.5755,-0.42638,-1.21318,-1.1301
6.6698,270.5854,-0.37446,-1.26388,-1.22356
6.6773,270.5954,-0.37996,-1.3323,-1.35551
6.6912,270.6054,-0.37446,-1.4337,-1.51495
6.698,270.6155,-0.32376,-1.52472,-1.61146
6.709,270.6255,-0.16371,-1.67438,-1.69454
6.7194,270.6355,0.02199,-1.80266,-1.76662
6.732,270.6454,0.30543,-1.81793,-1.88085
6.7376,270.6554,0.50946,-1.62246,-2.00364
6.7504,270.6654,0.61209,-1.3213,-2.1252
6.7585,270.6764,0.56933,-1.14354,-2.19789
6.7767,270.6864,0.43738,-1.1246,-2.26326
6.7858,270.6964,0.31215,-1.20829,-2.2993
6.7935,270.7065,0.25229,-1.35123,-2.32251
6.8013,270.7165,0.281,-1.45752,-2.33167
6.81,270.7264,0.41539,-1.6078,-2.35061
6.8181,270.7364,0.61148,-1.75868,-2.34328
6.8306,270.7464,0.91508,-1.95233,-2.32495
6.8381,270.7564,1.18019,-2.08977,-2.33045
6.8508,270.7665,1.53755,-2.20278,-2.3671
6.859,270.7765,1.82893,-2.22966,-2.3836
6.8714,270.7865,2.12887,-2.2602,-2.33717
6.8795,270.7975,2.36038,-2.34022,-2.27547
6.8919,270.8075,2.5864,-2.3164,-2.17896
6.9019,270.8174,2.72629,-2.16246,-2.12031
6.9121,270.8274,2.76172,-1.94683,-2.0971
6.9225,270.8374,2.68781,-1.81183,-2.10749
6.9321,270.8474,2.45262,-1.56198,-2.12276
6.9395,270.8575,2.13864,-1.40071,-2.16857
6.9526,270.8675,1.68843,-1.39461,-2.36832
6.9594,270.8774,1.36956,-1.38422,-2.54486
6.995,270.8874,1.00121,-1.32741,-2.72202
6.9957,270.8974,0.63102,-1.23761,-2.7941
6.9961,270.9074,0.24251,-1.2089,-2.78432
7.0012,270.9175,-0.05253,-1.16797,-2.73729
7.028,270.9275,-0.27245,-1.08123,-2.66459
7.0318,270.9375,-0.36835,-1.0403,-2.61084
7.0327,270.9474,-0.40745,-1.12827,-2.57907
7.0391,270.9574,-0.40073,-1.32619,-2.5864
7.0514,270.9674,-0.3708,-1.54977,-2.62122
7.059,270.9775,-0.36041,-1.72631,-2.64382
7.0725,270.9875,-0.37751,-1.98653,-2.66704
7.0798,270.9974,-0.40134,-2.20339,-2.65421
7.0904,271.0074,-0.46365,-2.38848,-2.61817
7.0988,271.0174,-0.54062,-2.16246,-2.60656
7.1129,271.0274,-0.63225,-1.65606,-2.54425
7.1191,271.0374,-0.68661,-1.05008,-2.39765
7.1305,271.0475,-0.80879,-0.65363,-2.24676
7.1392,271.0575,-0.96517,-0.55589,-2.16735
7.1504,271.0674,-1.113,-0.24435,-2.12825
7.1597,271.0774,-1.2199,0.12828,-2.069
7.1707,271.0874,-1.26205,0.30177,-1.96393
7.1798,271.0974,-1.23273,0.42761,-1.74891
7.1918,271.1075,-1.19485,0.50457,-1.34207
7.1992,271.1175,-1.22295,0.43555,-0.97983
7.2107,271.1274,-1.27488,0.24801,-0.58521
7.2191,271.1374,-1.21623,0.15027,-0.37446
7.233,271.1474,-0.96028,0.13256,-0.27794
7.2395,271.1574,-0.67928,0.32376,-0.25717
7.2517,271.1675,-0.3879,0.63652,-0.12889
7.2595,271.1775,-0.35552,0.87293,0.04704
7.2716,271.1875,-0.27917,0.88637,0.3934
7.28,271.1974,0.07391,0.416,0.79718
7.2993,271.2074,0.5791,-0.27306,0.99388
7.3084,271.2184,1.08551,-0.281,0.81123
7.3136,271.2284,0.94379,0.77885,0.29199
7.3205,271.2384,0.52351,0.69211,-0.07269
7.3327,271.2484,-0.11606,0.7141,0.16982
7.3405,271.2585,-0.95661,1.20402,0.73976
7.353,271.2685,-1.90285,1.40438,1.27488
7.3601,271.2782,-2.46851,1.7092,1.38666
7.372,271.2884,-2.93948,2.25959,1.25716
7.3824,271.2984,-3.05921,2.65543,1.0513
7.3919,271.3084,-2.97797,3.01095,0.9499
7.4023,271.3185,-2.83136,3.20032,0.95906
7.413,271.3285,-2.69147,3.02867,1.00487
7.4202,271.3385,-2.5919,2.52471,1.05191
7.434,271.3484,-2.44468,1.60963,1.18386
7.4405,271.3584,-2.21133,0.85765,1.37017
7.4548,271.3684,-1.80266,0.45204,1.64262
7.4604,271.3785,-1.43187,0.32926,1.81855
7.4734,271.3885,-1.01892,0.70677,1.79655
7.4825,271.3985,-0.79351,1.37506,1.59741
7.4929,271.4084,-0.76358,1.94133,1.39338
7.5006,271.4184,-0.89309,2.14597,1.37323
7.5128,271.4284,-1.23273,2.12581,1.50762
7.5206,271.4384,-1.63345,1.93217,1.77762
7.5329,271.4485,-1.98165,1.67621,2.19667
7.5419,271.4585,-2.12825,1.55832,2.54975
7.5559,271.4684,-2.15269,1.37689,2.83197
7.5645,271.4784,-2.05678,1.3549,2.81914
7.5726,271.4884,-1.79961,1.7428,2.55708
7.5804,271.4984,-1.52533,2.09771,2.29502
7.5925,271.5085,-1.22478,2.24188,2.04945
7.6011,271.5194,-0.95906,1.97615,1.88024
7.6138,271.5295,-0.7477,1.57115,1.75746
7.6229,271.5395,-0.63469,1.2034,1.73913
7.6337,271.5495,-0.56505,0.64691,1.76907
7.6411,271.5594,-0.56444,0.19181,1.75013
7.6535,271.5694,-0.53451,-0.03726,1.62612
7.661,271.5794,-0.36469,-0.15455,1.37567
7.6726,271.5894,-0.10507,-0.20036,0.96211
7.683,271.5995,0.20708,0.01405,0.63652
7.6935,271.6095,0.50396,0.32315,0.56383
7.7015,271.6194,0.62247,0.38179,0.68722
7.7134,271.6294,0.61209,0.25229,0.90958
7.7217,271.6394,0.51129,-0.03238,1.1692
7.7336,271.6494,0.37996,-0.43188,1.40316
7.7413,271.6595,0.32132,-0.7196,1.50395
7.7539,271.6695,0.31337,-0.96883,1.52472
7.7614,271.6794,0.35369,-1.26449,1.48501
7.7741,271.6894,0.40684,-1.61391,1.28526
7.7873,271.7005,0.46487,-1.52961,1.03358
7.7968,271.7104,0.48869,-0.99449,0.8094
7.8025,271.7204,0.44043,-0.47037,0.72204
7.8176,271.7304,0.20769,0.10018,0.77274
7.8248,271.7405,-0.09835,0.32193,0.86865
7.837,271.7505,-0.29444,0.24007,0.93279
7.8424,271.7605,-0.51068,0.05437,1.01587
7.8546,271.7704,-0.86437,-0.13806,1.12399
7.8628,271.7804,-1.18691,-0.29566,1.18935
7.8749,271.7904,-1.4899,-0.46304,1.25472
7.8827,271.8004,-1.65728,-0.49358,1.31153
7.8952,271.8105,-1.8106,-0.48503,1.35673
7.9057,271.8205,-1.82282,-0.48075,1.36467
7.914,271.8304,-1.55465,-0.41783,1.44958
7.9221,271.8404,-0.99266,0.01894,1.52594
7.9335,271.8504,-0.35491,0.54306,1.40743
7.9419,271.8604,0.13195,0.69822,1.25777
7.9538,271.8705,0.46059,0.5565,1.15454
7.9628,271.8805,0.58704,0.09102,1.03664
7.9736,271.8904,0.62553,-0.56505,0.91752
7.982,271.9004,0.68478,-1.15576,0.76297
7.9948,271.9104,0.85155,-1.51861,0.51924
8.002,271.9204,0.96578,-1.61024,0.38729
8.0142,271.9304,1.06963,-1.61452,0.30665
8.022,271.9404,1.10383,-1.46241,0.27917
8.0335,271.9504,1.06657,-1.16492,0.27306
8.0486,271.9604,1.0061,-0.93035,0.30116
8.0549,271.9704,0.98105,-0.65851,0.38423
8.0709,271.9804,1.0061,-0.51435,0.43616
8.0769,271.9904,1.08367,-0.4105,0.37874
8.0819,272.0004,1.24494,-0.26939,0.19059
8.0937,272.0103,1.44714,-0.11912,0.02688
8.1029,272.0204,1.46241,0.1857,-0.09102
8.1146,272.0303,1.32375,0.76603,-0.16616
8.1219,272.0403,1.20218,1.02686,-0.14416
8.1346,272.0503,0.98166,1.19058,-0.135
8.1421,272.0604,0.72754,1.23822,-0.17959
8.1536,272.0704,0.41722,1.09895,-0.24679
8.1618,272.0804,0.06781,0.94623,-0.28894
8.1744,272.0903,-0.32987,0.69578,-0.35797
8.1829,272.1004,-0.6127,0.42272,-0.44471
8.1946,272.1103,-0.74098,0.29932,-0.45326
8.2018,272.1204,-0.63958,0.4386,-0.39889
8.2134,272.1304,-0.42028,0.75931,-0.33598
8.2218,272.1404,-0.30482,1.02076,-0.25473
8.2334,272.1503,-0.34697,1.23334,-0.13867
8.2417,272.1603,-0.4948,1.43798,-0.00367
8.2616,272.1704,-0.71654,2.05006,0.25901
8.267,272.1804,-0.90225,1.75441,0.43494
8.2806,272.1904,-1.20707,1.60352,0.52107
8.2836,272.2004,-1.4001,1.63223,0.54611
8.2935,272.2104,-1.61696,1.72386,0.51374
8.3018,272.2204,-1.80572,1.80755,0.42638
8.3141,272.2303,-1.93033,2.02257,0.33964
8.3219,272.2404,-1.92361,2.29563,0.28894
8.3345,272.2503,-1.8106,2.3109,0.22419
8.3417,272.2602,-1.64995,1.85214,0.14416
8.3545,272.2704,-1.44042,1.24922,0.05192
8.3637,272.2802,-1.23761,0.94867,-0.02566
8.3751,272.2914,-1.04336,0.6689,-0.11545
8.3838,272.3014,-0.92974,0.48075,-0.19426
8.3975,272.3113,-0.86499,0.23763,-0.2529
8.4041,272.3214,-0.81978,-0.0562,-0.3146
8.4144,272.3314,-0.69883,-0.40806,-0.36835
8.4239,272.3414,-0.46914,-0.76236,-0.40745
8.4344,272.3514,-0.15455,-1.07818,-0.42577
8.4442,272.3614,0.09835,-1.26571,-0.42822
8.4545,272.3714,0.28527,-1.39522,-0.45571
8.464,272.3814,0.36408,-1.40438,-0.48136
8.4744,272.3914,0.34697,-1.43309,-0.47831
8.4842,272.4014,0.28894,-1.48074,-0.41356
8.4949,272.4114,0.22969,-1.66033,-0.26878
8.5039,272.4214,0.27855,-1.84542,-0.12217
8.5153,272.4313,0.51985,-1.97004,0.0452
8.5241,272.4413,0.76358,-1.97554,0.08919
8.5344,272.4514,1.07634,-1.96699,0.03971
8.5439,272.4614,1.26388,-1.96332,-0.03787
8.5568,272.4714,1.42454,-1.91079,-0.11423
8.5651,272.4814,1.48929,-1.79472,-0.15699
8.5744,272.4914,1.48807,-1.67316,-0.13317
8.5839,272.5014,1.47096,-1.60474,-0.07147
8.5957,272.5113,1.51922,-1.50639,0.01894
8.6047,272.5214,1.62918,-1.30481,0.11057
8.6144,272.5314,1.7764,-0.98838,0.20464
8.6228,272.5414,1.86619,-0.7086,0.27855
8.6353,272.5513,1.88146,-0.37751,0.35675
8.6428,272.5613,1.83198,-0.11606,0.40256
8.6544,272.5713,1.67316,0.19181,0.45815
8.6639,272.5814,1.46608,0.43433,0.52168
8.6748,272.5913,1.18141,0.6298,0.55772
8.6841,272.6014,0.91996,0.7703,0.5339
8.6944,272.6114,0.57482,0.88148,0.44471
8.7039,272.6214,0.25412,0.79474,0.32193
8.7144,272.6314,-0.06231,0.50519,0.16188
8.7241,272.6414,-0.23213,0.17776,0.03971
8.7353,272.6514,-0.29993,-0.12706,-0.0171
8.7449,272.6614,-0.23396,-0.26084,0.02199
8.7544,272.6714,-0.07575,-0.39462,0.11912
8.7642,272.6814,0.06903,-0.50274,0.22846
8.7752,272.6913,0.19975,-0.51068,0.34697
8.7828,272.7013,0.32865,-0.40928,0.47525
8.7946,272.7113,0.47464,-0.21197,0.62369
8.8041,272.7213,0.56994,0.01344,0.79107
8.8143,272.7313,0.60476,0.31521,0.97311
8.8228,272.7413,0.54184,0.70616,1.11788
8.8344,272.7514,0.33353,1.19546,1.23883
8.8443,272.7614,0.03726,1.63712,1.2987
8.8559,272.7714,-0.41233,2.08427,1.27365
8.864,272.7814,-0.81367,2.31701,1.2034
8.8744,272.7914,-1.3213,2.44529,1.09895
8.8843,272.8014,-1.65667,2.39581,1.00304
8.8962,272.8114,-1.8161,2.15025,0.92241
8.9039,272.8213,-1.7935,1.84909,0.85521
8.9162,272.8314,-1.5968,1.44653,0.75259
8.9243,272.8414,-1.3268,1.14598,0.64385
8.9344,272.8514,-1.06718,0.83444,0.5174
8.944,272.8614,-0.97005,0.56994,0.4386
8.9544,272.8714,-0.98594,0.23213,0.42455
8.9642,272.8814,-1.05619,-0.00122,0.49175
8.9745,272.8914,-1.11788,-0.26328,0.61942
8.9841,272.9014,-1.11972,-0.46242,0.72326
8.9946,272.9114,-1.07207,-0.59376,0.77336
9.0042,272.9214,-1.01831,-0.63286,0.76053
9.0153,272.9314,-0.94623,-0.52779,0.66279
9.0241,272.9414,-0.86193,-0.35797,0.50946
9.0358,272.9514,-0.78007,-0.06842,0.29138
9.0443,272.9614,-0.76847,0.11301,0.16554
9.0569,272.9714,-0.81795,0.27611,0.00855
9.0663,272.9814,-0.93279,0.2193,-0.1179
9.0743,272.9914,-1.10811,-0.08674,-0.24801
9.0831,273.0014,-1.19791,-0.40561,-0.35736
9.0952,273.0114,-1.2144,-0.83017,-0.48808
9.1041,273.0214,-1.09101,-1.24067,-0.60109
9.1154,273.0314,-0.7648,-1.70065,-0.76908
9.1241,273.0414,-0.3653,-1.99814,-0.9108
9.1343,273.0514,0.21502,-2.20156,-1.0739
9.1441,273.0614,0.67195,-2.15452,-1.17897
9.1544,273.0714,0.98716,-1.94744,-1.21379
9.1641,273.0814,1.03419,-1.70798,-1.19852
9.1744,273.0914,0.90591,-1.48318,-1.13804
9.1841,273.1014,0.70738,-1.2706,-1.04519
9.1944,273.1114,0.52473,-1.10506,-0.93646
9.2031,273.1214,0.50702,-1.08795,-0.88148
9.2149,273.1314,0.6524,-1.11788,-0.89919
9.2241,273.1414,0.86499,-1.1527,-0.96395
9.2344,273.1514,1.19119,-1.25838,-1.11788
9.2441,273.1614,1.46913,-1.37994,-1.32375
9.2544,273.1714,1.7318,-1.54488,-1.62246
9.2642,273.1814,1.89674,-1.65911,-1.86925
9.2759,273.1914,2.03235,-1.65911,-2.14719
9.2841,273.2014,2.0745,-1.5461,-2.34022
9.2944,273.2114,2.00364,-1.39399,-2.56991
9.3041,273.2214,1.90346,-1.29809,-2.74584
9.3144,273.2314,1.76418,-1.17164,-2.96209
9.3241,273.2414,1.65728,-1.07329,-3.12702
9.3344,273.2514,1.53144,-0.98716,-3.27424
9.3441,273.2614,1.4282,-0.9279,-3.37747
9.3544,273.2714,1.3439,-0.88759,-3.44467
9.3641,273.2814,1.27365,-0.89797,-3.47277
9.3774,273.2914,1.16981,-0.95417,-3.47338
9.3828,273.3013,1.08062,-1.03969,-3.45139
9.3978,273.3113,0.95112,-1.12705,-3.4013
9.4041,273.3214,0.85888,-1.16309,-3.30539
9.4145,273.3314,0.74648,-1.13682,-3.14657
9.4229,273.3414,0.66706,-1.13621,-3.00118
9.4345,273.3514,0.62186,-1.18935,-2.88084
9.4428,273.3614,0.60231,-1.21807,-2.80509
9.4552,273.3713,0.52718,-1.20768,-2.7831
9.4631,273.3814,0.44838,-1.17836,-2.87168
9.4744,273.3914,0.38118,-1.11911,-2.87656
9.4829,273.4014,0.30727,-1.05863,-2.81731
9.4944,273.4114,0.15272,-0.91813,-2.66459
9.5029,273.4214,-0.00244,-0.86865,-2.51738
9.5145,273.4314,-0.15821,-0.9334,-2.31457
9.5229,273.4414,-0.27428,-1.03175,-2.14597
9.5345,273.4514,-0.48258,-1.30786,-2.06045
9.543,273.4614,-0.67806,-1.18569,-1.98287
9.5555,273.4714,-0.86315,-0.96456,-1.80327
9.5662,273.4814,-1.0458,-0.93035,-1.55893
9.5748,273.4914,-1.30725,-0.80695,-1.29015
9.5829,273.5014,-1.53449,-0.72754,-1.16187
9.5945,273.5114,-1.84481,-0.62369,-1.03297
9.6035,273.5214,-2.11787,-0.55711,-0.88575
9.6164,273.5314,-2.4288,-0.61514,-0.62492
9.6229,273.5414,-2.67131,-0.76236,-0.35736
9.6366,273.5514,-2.89061,-0.96395,0.06414
9.643,273.5614,-2.97003,-1.10261,0.44227
9.6552,273.5714,-2.93826,-1.0287,0.78618
9.6629,273.5814,-2.70186,-0.58704,0.96944
9.6744,273.5913,-2.44224,-0.00428,1.10933
9.686,273.6014,-2.29319,0.18937,1.12888
9.6954,273.6113,-2.25348,0.1576,1.25472
9.7029,273.6214,-2.19178,0.01588,1.44897
9.7154,273.6314,-1.97187,-0.08125,1.71164
9.7229,273.6414,-1.63101,-0.00794,1.90529
9.7362,273.6514,-1.2144,0.22602,2.06045
9.7428,273.6614,-0.94012,0.42455,2.1307
9.7547,273.6713,-0.80756,0.58093,2.18995
9.7629,273.6814,-0.73976,0.64691,2.26814
9.7743,273.6913,-0.58521,0.63713,2.39337
9.7828,273.7013,-0.41356,0.61331,2.52287
9.7945,273.7114,-0.22785,0.46609,2.52776
9.8029,273.7214,-0.05498,0.46426,2.46362
9.8151,273.7314,0.18204,0.54489,2.35427
9.8228,273.7414,0.36896,0.56566,2.27914
9.8359,273.7513,0.55344,0.51618,2.23393
9.8428,273.7613,0.67684,0.48258,2.21561
9.8553,273.7713,0.82955,0.54734,2.02502
9.8629,273.7814,0.94867,0.59498,1.79839
9.8744,273.7914,1.0684,0.67867,1.50029
9.8829,273.8014,1.11177,0.79779,1.31825
9.8973,273.8113,1.07634,0.97189,1.22906
9.903,273.8214,0.96639,1.04763,1.29809
9.916,273.8314,0.83444,0.95051,1.49173
9.9229,273.8414,0.75931,0.89186,1.76051
9.9348,273.8514,0.70983,1.18019,2.1081
9.9428,273.8614,0.6579,1.25472,2.339
9.9547,273.8714,0.60659,1.28648,2.51249
9.9628,273.8812,0.60353,1.37689,2.56502
9.9754,273.8914,0.6463,1.51861,2.53143
9.983,273.9014,0.70921,1.61391,2.48195
9.996,273.9114,0.79168,1.68293,2.46057
10.0029,273.9214,0.84238,1.63162,2.48989
10.0144,273.9314,0.86804,1.55343,2.58885
10.0229,273.9414,0.91202,1.54121,2.67315
10.0381,273.9514,0.96578,1.57237,2.71896
10.0429,273.9614,0.93829,1.63773,2.67681
10.0554,273.9714,0.77824,1.61146,2.60839
10.0629,273.9814,0.55222,1.52716,2.58152
10.0746,273.9913,0.19059,1.42454,2.57174
10.0829,274.0014,-0.20097,1.28709,2.61878
10.0953,274.0114,-0.74342,0.97005,2.75622
10.103,274.0214,-1.13499,0.69028,2.91138
10.1149,274.0314,-1.59925,0.18937,3.14229
10.1229,274.0414,-1.91018,-0.0452,3.2944
10.1344,274.0514,-2.18629,-0.18021,3.40252
10.1429,274.0614,-2.18262,-0.16982,3.38419
10.1555,274.0714,-2.03052,-0.15455,3.33655
10.1639,274.0814,-1.69149,-0.15882,3.26752
10.1751,274.0914,-1.12521,-0.15088,3.12152
10.1829,274.1014,-0.58032,0.05192,2.9798
10.1944,274.1114,-0.06964,0.31398,2.83991
10.2027,274.1214,0.18876,0.49847,2.72446
10.215,274.1313,0.32681,0.59865,2.58824
10.2229,274.1414,0.27367,0.6072,2.45507
10.2346,274.1514,0.03176,0.61514,2.26936
10.2429,274.1614,-0.29993,0.55833,2.10199
10.2546,274.1714,-0.85277,0.37813,1.90407
10.263,274.1812,-1.34085,0.20464,1.76296
10.2754,274.1924,-1.73669,0.00061,1.55954
10.2838,274.2024,-1.76662,-0.12889,1.3604
10.2957,274.2123,-1.52716,-0.18815,1.05619
10.3039,274.2224,-1.14171,-0.1686,0.74464
10.3154,274.2324,-0.67867,-0.08491,0.38973
10.324,274.2424,-0.38973,0.00489,0.12645
10.3354,274.2524,-0.17104,0.08002,-0.10446
10.3455,274.2624,-0.11362,0.09102,-0.16982
10.3566,274.2723,-0.15149,0.08063,-0.10446
10.3639,274.2824,-0.22052,0.05253,0.04398
10.3755,274.2924,-0.31276,-0.00977,0.20953
10.3839,274.3024,-0.39279,-0.04765,0.34331
10.3955,274.3124,-0.45876,-0.10324,0.4215
10.4038,274.3224,-0.46181,-0.18265,0.38423
10.4165,274.3323,-0.37568,-0.28527,0.25412
10.4239,274.3424,-0.18387,-0.416,0.01222
10.4362,274.3524,0.16066,-0.57116,-0.40378
10.4465,274.3624,0.5174,-0.66035,-0.83078
10.4556,274.3724,0.8882,-0.66218,-1.29626
10.4639,274.3824,1.11483,-0.63835,-1.5797
10.4759,274.3924,1.29565,-0.65973,-1.78739
10.4839,274.4024,1.34879,-0.75503,-1.84665
10.4954,274.4124,1.34757,-0.83505,-1.86253
10.504,274.4224,1.31764,-0.85216,-1.88696
10.5155,274.4324,1.26205,-0.87842,-1.98348
10.5242,274.4424,1.24311,-0.93951,-2.12887
10.5362,274.4524,1.27243,-1.00793,-2.35489
10.5439,274.4624,1.34268,-1.05496,-2.60534
10.5564,274.4724,1.48135,-1.13987,-2.89061
10.5646,274.4824,1.60047,-1.27976,-3.20888
10.577,274.4924,1.68171,-1.51495,-3.52653
10.5858,274.5024,1.73608,-1.73058,-3.71589
10.5989,274.5124,1.76845,-1.88269,-3.80019
10.6061,274.5224,1.73608,-1.934,-3.80019
10.6159,274.5324,1.66766,-2.01586,-3.722
10.6242,274.5424,1.5687,-2.10871,-3.61449
10.6359,274.5524,1.45203,-2.22355,-3.47216
10.6442,274.5624,1.39949,-2.29869,-3.32799
10.6597,274.5724,1.37139,-2.38482,-3.13313
10.6646,274.5824,1.35551,-2.42391,-2.99752
10.6799,274.5923,1.25227,-2.43002,-2.90466
10.6883,274.6024,1.11483,-2.39704,-2.86923
10.7032,274.6124,0.86682,-2.36222,-2.83808
10.7053,274.6224,0.70983,-2.34511,-2.78188
10.7186,274.6324,0.56383,-2.31823,-2.63894
10.7241,274.6424,0.48442,-2.26387,-2.51249
10.7359,274.6524,0.43677,-2.18507,-2.34511
10.7459,274.6624,0.41233,-2.12764,-2.25287
10.7559,274.6724,0.405,-2.02135,-2.21255
10.7655,274.6824,0.40561,-1.89429,-2.19484
10.7766,274.6924,0.40928,-1.76051,-2.15941
10.7844,274.7024,0.42883,-1.67866,-2.08733
10.7969,274.7124,0.47037,-1.68782,-1.98898
10.8047,274.7224,0.51252,-1.76235,-1.9169
10.8169,274.7324,0.52901,-1.77456,-1.85886
10.8246,274.7424,0.49114,-1.75196,-1.86375
10.8438,274.7524,0.34819,-1.65728,-1.95049
10.8501,274.7634,0.1124,-1.46363,-2.08427
10.858,274.7734,-0.16188,-1.25777,-2.19423
10.8656,274.7834,-0.45693,-1.21501,-2.22905
10.8787,274.7934,-0.77213,-1.46608,-2.22416
10.8883,274.8034,-0.93951,-1.62796,-2.16368
10.8991,274.8133,-1.08551,-1.64995,-1.97004
10.9056,274.8234,-1.19913,-1.5516,-1.76235
10.9176,274.8334,-1.39399,-1.49845,-1.51922
10.9255,274.8434,-1.61635,-1.54427,-1.37994
10.9393,274.8534,-1.89674,-1.62368,-1.26938
10.9469,274.8634,-2.1307,-1.664,-1.20463
10.9568,274.8734,-2.43063,-1.67499,-1.08551
10.9652,274.8834,-2.64566,-1.50029,-0.89003
10.9769,274.8934,-2.89367,-1.1863,-0.59071
10.9965,274.9034,-3.1148,-0.92485,-0.3598
10.9974,274.9134,-3.41168,-0.7196,-0.09163
11.0051,274.9234,-3.53752,-0.79046,0.07025
11.0212,274.9334,-3.31089,-0.66218,0.23152
11.025,274.9434,-2.93582,-0.57421,0.37751
11.0366,274.9534,-2.46667,-0.51496,0.61148
11.047,274.9634,-2.02074,-0.35491,0.95234
11.0565,274.9733,-1.71409,-0.16921,1.4056
11.0649,274.9833,-1.59436,-0.03054,1.81916
11.0778,274.9933,-1.60841,0.13744,2.15086
11.0866,275.0034,-1.71653,0.32498,2.31396
11.0964,275.0134,-1.76662,0.58277,2.26814
11.1049,275.0234,-1.68232,0.92913,2.12276
11.1173,275.0334,-1.49906,1.21501,1.98837
11.1248,275.0433,-1.40621,1.33474,1.89979
11.1363,275.0533,-1.49906,1.56809,1.79045
11.1449,275.0634,-1.76418,1.70981,1.74952
11.1563,275.0733,-2.16124,1.64995,1.75318
11.1649,275.0834,-2.36955,1.70737,1.76845
11.1763,275.0934,-2.42697,1.79778,1.8497
11.1848,275.1034,-2.20034,1.65117,1.99325
11.1993,275.1133,-1.69943,1.42942,2.20461
11.2059,275.1234,-1.22295,1.33474,2.32984
11.2164,275.1334,-0.83078,1.30786,2.35061
11.2249,275.1434,-0.5565,1.28343,2.34022
11.2364,275.1534,-0.30238,1.12094,2.36405
11.2449,275.1634,-0.04337,1.01404,2.42819
11.2575,275.1733,0.23885,0.86193,2.53448
11.2648,275.1834,0.54123,0.54917,2.68475
11.2766,275.1934,0.97311,0.14661,2.89245
11.2849,275.2034,1.41049,-0.04826,3.10197
11.2977,275.2134,1.78312,-0.06475,3.32433
11.3052,275.2234,1.94866,0.05559,3.49109
11.3186,275.2334,2.04945,0.3146,3.70917
11.3251,275.2434,2.09649,0.49724,3.83746
11.3378,275.2534,2.20706,0.73243,3.78248
11.3451,275.2634,2.38604,1.10444,3.59739
11.3568,275.2734,2.66826,1.72814,3.26019
11.3649,275.2834,2.85091,2.16124,2.93093
11.3771,275.2934,2.89611,2.49538,2.62428
11.3849,275.3034,2.80754,2.71652,2.48378
11.3976,275.3134,2.42636,2.99019,2.47339
11.4058,275.3234,1.97676,3.11175,2.55953
11.4164,275.3334,1.1753,3.11114,2.70491
11.4249,275.3434,0.38179,2.96453,2.79349
11.4377,275.3533,-0.33842,2.76661,2.84052
11.4484,275.3634,-0.978,2.44835,2.95353
11.4585,275.3734,-1.664,1.79411,3.16917
11.4647,275.3833,-2.07511,1.24128,3.33777
11.4765,275.3934,-2.4624,0.55405,3.48621
11.4848,275.4033,-2.62244,0.06964,3.51614
11.4963,275.4133,-2.25715,-0.10385,3.42023
11.5081,275.4233,-1.76968,0.2364,3.25469
11.5164,275.4334,-1.19058,0.54978,2.99813
11.5249,275.4434,-0.83689,0.58948,2.7996
11.5364,275.4534,-0.52351,0.56566,2.57358
11.5475,275.4634,-0.39828,0.65851,2.39704
11.5567,275.4732,-0.47892,0.87109,2.17957
11.5646,275.4831,-0.69394,0.9896,1.99203
11.579,275.4943,-1.15454,1.0177,1.75685
11.5858,275.5043,-1.52777,0.97677,1.66339
11.6018,275.5143,-1.87963,0.81856,1.6475
11.6068,275.5243,-2.09099,0.56077,1.66583
11.6181,275.5343,-2.19973,0.09774,1.69332
11.6258,275.5444,-2.05434,-0.39156,1.64445
11.6373,275.5542,-1.68477,-0.73426,1.42576
11.6458,275.5643,-1.34451,-0.83689,1.11239
11.6581,275.5741,-0.9334,-0.83322,0.56016
11.6668,275.5853,-0.73548,-0.82833,0.17654
11.6786,275.5952,-0.61942,-0.85765,-0.06414
11.6868,275.6053,-0.57299,-0.86499,-0.08919
11.7001,275.6153,-0.56444,-0.88087,0.05742
11.7071,275.6253,-0.57299,-0.8436,0.25779
11.7197,275.6353,-0.6182,-0.78496,0.48136
11.7268,275.6453,-0.66584,-0.75686,0.65668
11.7387,275.6553,-0.73121,-0.85277,0.82406
11.7469,275.6653,-0.73426,-1.06291,0.9163
11.7591,275.6753,-0.66279,-1.45142,0.97494
11.7669,275.6853,-0.50763,-1.83076,0.95723
11.7784,275.6954,-0.26206,-2.10565,0.82894
11.7869,275.7053,-0.02688,-2.21988,0.61453
11.8023,275.7153,0.31093,-2.18873,0.18509
11.8071,275.7253,0.55039,-2.06228,-0.27245
11.8197,275.7353,0.7367,-1.90162,-0.78802
11.8268,275.7453,0.81856,-1.76601,-1.12705
11.8384,275.7553,0.8436,-1.60719,-1.47096
11.8468,275.7653,0.80146,-1.43981,-1.73058
11.8583,275.7753,0.70921,-1.21318,-1.99692
11.8668,275.7853,0.62125,-1.01404,-2.18262
11.8783,275.7953,0.51068,-0.75808,-2.41536
11.8872,275.8053,0.4386,-0.5565,-2.60534
11.8994,275.8154,0.40623,-0.38362,-2.84236
11.9069,275.8254,0.44043,-0.25045,-3.08182
11.9224,275.8352,0.50641,-0.0788,-3.39213
11.9284,275.8453,0.54367,0,-3.65481
11.9384,275.8553,0.58154,-0.04093,-3.98956
11.9469,275.8653,0.61025,-0.1631,-4.26995
11.9584,275.8753,0.66401,-0.32498,-4.50696
11.9669,275.8854,0.7532,-0.44593,-4.70244
11.9804,275.8953,0.88759,-0.50885,-4.84599
11.987,275.9053,1.04091,-0.57299,-4.92357
11.9995,275.9153,1.16614,-0.66584,-4.9474
12.0069,275.9253,1.23273,-0.74526,-4.89364
12.0184,275.9353,1.23761,-0.86193,-4.75253
12.0273,275.9454,1.16492,-0.99815,-4.60776
12.0392,275.9553,1.02137,-1.17103,-4.49658
12.0471,275.9653,0.8601,-1.29931,-4.47459
12.0592,275.9753,0.59743,-1.38605,-4.48803
12.0674,275.9853,0.31032,-1.38789,-4.46909
12.0795,275.9953,-0.02993,-1.36284,-4.38479
12.0874,276.0054,-0.27367,-1.31947,-4.26567
12.0996,276.0153,-0.61392,-1.30908,-4.13128
12.1073,276.0253,-0.84177,-1.40316,-4.05004
12.1192,276.0353,-1.10383,-1.61391,-3.94741
12.1351,276.0453,-1.24983,-1.91323,-3.8118
12.1393,276.0553,-1.32313,-2.17285,-3.65236
12.1471,276.0654,-1.36345,-2.20645,-3.47033
12.1609,276.0754,-1.45508,-2.08183,-3.24492
12.1671,276.0853,-1.66522,-1.95966,-3.06654
12.1795,276.0953,-1.99875,-1.85337,-2.91261
12.1876,276.1053,-2.25654,-1.67683,-2.62611
12.1998,276.1153,-2.48744,-1.22356,-2.20828
12.2077,276.1253,-2.59496,-0.70494,-1.88146
12.2207,276.1354,-2.61756,-0.47709,-1.56137
12.2282,276.1453,-2.5974,-0.51374,-1.36345
12.2478,276.1553,-2.59434,-0.70433,-1.21562
12.2561,276.1653,-2.71591,-1.04275,-1.20768
12.26,276.1753,-3.0641,-1.29198,-1.30236
12.2706,276.1853,-3.35732,-1.18447,-1.42881
12.2793,276.1954,-3.57295,-0.96211,-1.56931
12.287,276.2053,-3.45322,-0.81367,-1.56443
12.2988,276.2153,-2.92238,-0.69211,-1.39399
12.3071,276.2253,-2.18323,-0.47159,-1.01831
12.3188,276.2353,-1.36345,0.84116,-0.29016
12.3276,276.2453,-0.59498,0.36285,0.4441
12.3413,276.2554,0.07819,0.74648,1.11422
12.3487,276.2663,0.42883,0.85216,1.51983
12.3609,276.2763,0.63591,0.81856,1.67316
12.3688,276.2864,0.7477,0.77702,1.69943
12.3808,276.2963,0.87048,0.73793,1.67011
12.3888,276.3063,0.99632,0.6353,1.64384
12.4009,276.3163,1.13743,0.686,1.62857
12.4086,276.3263,1.24189,0.89064,1.65483
12.4209,276.3363,1.2761,1.26999,1.76845
12.4327,276.3464,1.16736,1.65728,1.92789
12.4408,276.3563,0.91385,1.96088,2.13314
12.4487,276.3663,0.59315,2.17835,2.28647
12.4614,276.3763,0.3091,2.35977,2.51738
12.4697,276.3873,0.17043,2.53081,2.72568
12.482,276.3973,0.14294,2.57907,2.87901
12.4896,276.4073,0.20892,2.54181,2.97736
12.5104,276.4173,0.36896,2.40986,3.03905
12.5184,276.4273,0.49052,2.27486,3.07754
12.5256,276.4374,0.52229,2.09954,3.08426
12.5323,276.4483,0.4777,1.94133,2.94926
12.5419,276.4584,0.43921,1.80511,2.62183
12.55,276.4683,0.47586,1.77151,2.21866
12.5618,276.4783,0.57421,1.78556,1.82099
12.5731,276.4883,0.69394,1.77579,1.49418
12.582,276.4983,0.84299,1.67866,1.31214
12.5902,276.5083,0.96028,1.57909,1.28404
12.6021,276.5184,1.03175,1.56504,1.32619
12.6101,276.5283,0.98655,1.61757,1.3439
12.622,276.5383,0.8436,1.69088,1.33352
12.6302,276.5483,0.6744,1.70554,1.2932
12.6446,276.5583,0.47037,1.68721,1.21807
12.6501,276.5683,0.30971,1.67072,1.1472
12.6645,276.5783,0.09346,1.6194,1.04336
12.6707,276.5883,-0.04215,1.5351,0.89675
12.6829,276.5983,-0.13683,1.48013,0.64996
12.6906,276.6083,-0.16371,1.4392,0.45632
12.7048,276.6183,-0.1295,1.28221,0.22174
12.7116,276.6293,-0.04398,1.05191,0.02993
12.724,276.6393,0.01405,0.83261,-0.09346
12.7316,276.6493,0.00367,0.67867,-0.15577
12.7446,276.6593,-0.09407,0.47831,-0.2193
12.7531,276.6694,-0.23396,0.34147,-0.27184
12.766,276.6793,-0.43799,0.20831,-0.29932
12.773,276.6893,-0.60903,0.05437,-0.27978
12.7852,276.6993,-0.73731,-0.19914,-0.2193
12.7911,276.7093,-0.80268,-0.40195,-0.14539
12.8031,276.7193,-0.78985,-0.52901,-0.11545
12.8114,276.7294,-0.68661,-0.54734,-0.17165
12.8243,276.7393,-0.49052,-0.44227,-0.26817
12.8326,276.7503,-0.32315,-0.30299,-0.29993
12.8495,276.7604,-0.19303,-0.21441,-0.19303
12.8524,276.7703,-0.12278,-0.20647,-0.00305
12.8673,276.7803,-0.04887,-0.22358,0.22419
12.8726,276.7903,0.01161,-0.2755,0.40561
12.8876,276.8003,0.05253,-0.34331,0.50274
12.8941,276.8103,0.0507,-0.38973,0.53329
12.9037,276.8204,0.08063,-0.42699,0.55894
12.9137,276.8303,0.12706,-0.49297,0.59743
12.925,276.8403,0.25168,-0.61025,0.67378
12.9323,276.8503,0.40134,-0.65546,0.76908
12.9443,276.8603,0.5962,-0.63347,0.95967
12.9523,276.8703,0.67134,-0.6524,1.18752
12.9642,276.8804,0.64935,-0.76114,1.53694
12.9723,276.8903,0.55589,-0.92668,1.82893
12.9843,276.9003,0.43982,-1.07634,2.11237
12.9924,276.9103,0.38057,-1.11972,2.31274
13.0054,276.9203,0.26084,-1.19424,2.66826
13.0136,276.9313,0.15882,-1.43431,3.05677
13.0281,276.9413,0.16616,-1.6811,3.50209
13.0362,276.9513,0.25595,-1.72325,3.81424
13.046,276.9613,0.36102,-1.77762,4.11051
13.0552,276.9714,0.41722,-1.73364,4.2559
13.0676,276.9813,0.53206,-1.47402,4.27606
13.0732,276.9913,0.6689,-1.10383,4.21314
13.0846,277.0013,0.74587,-0.49969,4.0592
13.1008,277.0113,0.54917,-0.00367,3.85761
13.1059,277.0213,0.02993,0.48808,3.598
13.1189,277.0314,-0.6072,0.85094,3.35487
13.1339,277.0413,-1.28648,1.10017,3.12519
13.1362,277.0513,-1.89918,1.18386,2.89184
13.146,277.0613,-2.37627,0.98044,2.5131
13.1531,277.0713,-2.55097,0.66768,2.01341
13.1659,277.0813,-2.39826,0.75136,1.33108
13.1732,277.0914,-2.11482,1.55038,0.85216
13.1853,277.1014,-1.64873,1.99814,0.40928
13.1946,277.1113,-1.35123,1.75257,0.1857
13.2059,277.1213,-1.06779,1.46058,0.16127
13.2136,277.1313,-0.85521,1.28954,0.28039
13.2289,277.1413,-0.6298,1.00304,0.46914
13.2347,277.1513,-0.46426,0.69394,0.562
13.2492,277.1614,-0.26512,0.37324,0.55589
13.2553,277.1712,-0.13073,0.15333,0.45937
13.2705,277.1813,-0.01038,-0.15699,0.26939
13.2742,277.1913,0.06658,-0.33781,0.12828
13.2897,277.2013,0.21197,-0.49908,-0.04948
13.2967,277.2113,0.39645,-0.54917,-0.22174
13.3075,277.2214,0.62614,-0.52962,-0.46548
13.3151,277.2313,0.8094,-0.51313,-0.80695
13.3247,277.2413,0.94928,-0.66279,-1.31336
13.3331,277.2513,1.07634,-0.90225,-1.80144
13.346,277.2613,1.2144,-1.1301,-2.30724
13.3532,277.2713,1.28648,-1.26816,-2.62122
13.3659,277.2814,1.28221,-1.22173,-2.90466
13.3735,277.2913,1.12888,-1.06168,-3.06532
13.3849,277.3013,0.84422,-0.8827,-3.15512
13.3932,277.3113,0.66523,-0.78069,-3.18688
13.4048,277.3213,0.66157,-0.72143,-3.24797
13.4134,277.3313,0.95723,-0.73915,-3.43673
13.4258,277.3414,1.46058,-0.7422,-3.79408
13.4346,277.3523,1.88208,-0.76664,-4.14044
13.4493,277.3623,2.16674,-0.821,-4.46054
13.4601,277.3724,2.17835,-0.86987,-4.56194
13.4672,277.3823,1.97126,-0.8882,-4.47764
13.475,277.3923,1.70065,-0.92057,-4.32004
13.4867,277.4023,1.25716,-0.9725,-4.12212
13.4968,277.4123,0.86682,-0.93829,-3.99995
13.5058,277.4223,0.44715,-0.78435,-3.89793
13.515,277.4324,0.16616,-0.66157,-3.78859
13.526,277.4423,-0.13439,-0.5791,-3.61754
13.5345,277.4523,-0.405,-0.52779,-3.44284
13.5524,277.4623,-0.74587,-0.82955,-3.17894
13.5626,277.4723,-0.98227,-1.17836,-2.95964
13.5695,277.4823,-1.22662,-1.39827,-2.69086
13.5838,277.4924,-1.43859,-1.32924,-2.34511
13.5883,277.5024,-1.64873,-1.20402,-1.91262
13.5955,277.5123,-1.84298,-1.15759,-1.56198
13.6083,277.5223,-2.08427,-1.14843,-1.24739
13.6143,277.5323,-2.29563,-1.18874,-1.09772
13.628,277.5423,-2.61756,-1.31336,-1.0177
13.6345,277.5523,-2.9853,-1.3323,-0.97005
13.6484,277.5624,-3.48621,-1.29259,-0.97983
13.6614,277.5723,-3.87655,-1.19546,-1.02442
13.6669,277.5823,-4.39029,-0.98288,-1.11483
13.6744,277.5923,-5.0714,-0.77213,-1.2315
13.6887,277.6023,-5.94677,-0.57727,-1.3323
13.6949,277.6123,-6.58818,-0.64385,-1.36528
13.707,277.6224,-7.309,-0.71471,-1.35795
13.7194,277.6323,-7.27174,-0.8601,-1.21562
13.7307,277.6423,-6.47945,-0.02993,-0.59865
13.736,277.6523,-5.80383,-0.04154,-0.2303
13.7474,277.6623,-5.08179,-0.6408,-0.10079
13.7544,277.6723,-4.45443,-0.82711,-0.04765
13.7675,277.6824,-3.70612,-0.63652,0.12034
13.7744,277.6922,-2.91199,-0.43066,0.27733
13.7884,277.7023,-1.96699,-0.63897,0.32681
13.7945,277.7123,-0.79596,-1.1918,0.23213
13.8114,277.7223,0.70677,-1.63162,0.02138
13.8208,277.7323,1.76601,-1.89429,-0.16616
13.8297,277.7424,2.27792,-2.37504,-0.30543
13.834,277.7523,2.18018,-2.71102,-0.36041
13.846,277.7623,1.62246,-2.7715,-0.32987
13.8541,277.7723,0.91508,-2.60839,-0.14661
13.866,277.7823,0.17471,-2.26875,0.2645
13.874,277.7923,-0.21747,-1.98348,0.70311
13.8895,277.8024,-0.44838,-1.58886,1.31031
13.8946,277.8124,-0.50824,-1.23639,1.75563
13.9079,277.8223,-0.45448,-0.59437,2.09893
13.9187,277.8323,-0.39951,-0.20403,2.1869
13.928,277.8423,-0.26023,0.21747,2.14963
13.9344,277.8523,-0.01466,0.17349,2.04579
13.9459,277.8623,0.5962,-0.20586,1.90712
13.9542,277.8724,1.42637,-0.54795,1.73669
13.968,277.8823,2.24921,-0.82955,1.47768
13.975,277.8934,2.95414,-1.18752,1.06413
13.987,277.9033,3.25652,-1.21745,0.67378
13.9951,277.9133,3.20765,-1.10017,0.4386
14.0073,277.9233,2.87779,-1.18264,0.27855
14.0151,277.9333,2.51371,-1.30786,0.2981
14.0274,277.9433,2.18934,-1.34513,0.65668
14.0352,277.9534,1.96271,-1.31458,1.15454
14.0522,277.9634,1.63284,-1.33474,1.5968
14.0554,277.9733,1.28037,-1.39461,1.74585
14.0713,277.9833,0.81551,-1.51922,1.79533
14.0808,277.9933,0.52779,-1.81488,1.73547
14.0933,278.0033,0.43494,-2.45629,1.61757
14.0963,278.0133,0.51374,-3.12702,1.55282
14.1075,278.0234,0.75198,-3.82035,1.67072
14.1181,278.0333,1.09834,-3.84173,1.91384
14.1301,278.0433,1.55404,-3.18078,2.05434
14.1391,278.0533,1.89429,-2.4007,2.0073
14.1505,278.0633,2.21378,-1.43248,1.7483
14.1553,278.0733,2.16674,-1.24189,1.26205
14.1676,278.0834,1.78006,-1.55954,0.59071
14.1753,278.0933,1.52594,-1.56748,0.10324
14.1873,278.1033,1.25166,-1.7318,-0.38179
14.1953,278.1133,1.03358,-2.03418,-0.5339
14.2082,278.1233,0.79412,-2.26875,-0.38668
14.2153,278.1333,0.61453,-2.13681,-0.12767
14.2304,278.1434,0.37324,-1.71348,0.27978
14.2352,278.1533,0.1631,-1.21318,0.66035
14.2475,278.1633,-0.04643,-0.35613,1.05374
14.2553,278.1733,-0.22969,0.50213,1.37017
14.2692,278.1833,-0.51618,1.31519,1.56748
14.2813,278.1933,-0.82711,1.81427,1.50884
14.2911,278.2034,-1.32252,2.23027,1.23517
14.2995,278.2134,-1.77456,2.02196,0.91508
14.3145,278.2233,-2.16002,1.15209,0.52473
14.3186,278.2333,-2.23577,0.35858,0.22113
14.3339,278.2433,-1.97676,-0.56505,0.00733
14.3423,278.2533,-1.43981,-1.28404,0.05498
14.3477,278.2633,-0.76358,-1.65728,0.13439
14.3584,278.2734,-0.33109,-1.5742,0.06903
14.3669,278.2833,0.01222,-1.48074,-0.05376
14.375,278.2933,0.17226,-1.38727,-0.25656
14.3878,278.3033,0.24801,-1.1918,-0.30665
14.3951,278.3133,0.13806,-1.22417,-0.2926
14.4092,278.3233,-0.08247,-1.31764,-0.28894
14.4201,278.3343,-0.27855,-1.49295,-0.26206
14.4307,278.3443,-0.27184,-1.88818,-0.21991
14.4365,278.3544,-0.0507,-2.30724,-0.15577
14.4506,278.3644,0.41478,-2.91627,-0.04581
14.4565,278.3743,0.88759,-3.22659,0.02321
14.4722,278.3843,1.54182,-3.34937,0.04154
14.4818,278.3953,2.03601,-3.34204,0.08674
14.4992,278.4053,2.33839,-3.52286,0.27
14.502,278.4153,2.339,-3.98651,0.49114
14.5131,278.4253,2.17285,-4.81851,0.6243
14.519,278.4363,2.04212,-5.40738,0.70555
14.5363,278.4463,1.93766,-5.46419,0.69089
14.5399,278.4563,1.8326,-5.61141,0.55894
14.5508,278.4664,1.7483,-5.89485,0.43433
14.5585,278.4764,1.76174,-5.96021,0.42638
14.579,278.4863,1.78739,-5.94128,0.40989
14.5819,278.4963,1.66033,-5.55399,0.34453
14.5961,278.5063,1.44164,-4.72993,0.29077
14.6038,278.5163,1.35918,-3.83562,0.39279
14.6122,278.5263,1.35551,-2.92788,0.58948
14.6187,278.5364,1.37139,-2.21011,0.8094
14.631,278.5463,1.40682,-1.73364,1.03786
14.6384,278.5563,1.43492,-1.58092,1.22906
14.6508,278.5663,1.47402,-1.66888,1.35979
14.6585,278.5763,1.55465,-1.90956,1.40132
14.6711,278.5863,1.78373,-2.30663,1.39399
14.6805,278.5964,2.0861,-2.78799,1.2761
14.6943,278.6063,2.47828,-3.48865,1.02442
14.7001,278.6163,2.76355,-4.0201,0.79107
14.7108,278.6263,3.05249,-4.44649,0.48014
14.7185,278.6363,3.25408,-4.53629,0.25534
14.7371,278.6463,3.44161,-4.49658,0.14355
14.7427,278.6564,3.51186,-4.4807,0.17043
14.7525,278.6663,3.50759,-4.39212,0.25045
14.7584,278.6763,3.46422,-4.19848,0.40134
14.7698,278.6863,3.42879,-4.01583,0.62003
14.7797,278.6963,3.47766,-3.91076,0.75869
14.79,278.7063,3.60655,-3.70856,0.84422
14.798,278.7164,3.7165,-3.48987,0.94318
14.8112,278.7263,3.93519,-3.78126,1.08429
14.8181,278.7363,4.24612,-4.35608,1.28465
14.8298,278.7463,4.60715,-4.82278,1.48746
14.838,278.7563,4.86737,-4.99443,1.60474
14.852,278.7663,4.981,-4.85088,1.58581
14.8583,278.7763,4.90952,-4.60226,1.43859
14.8722,278.7864,4.62486,-4.41167,1.21807
14.8799,278.7973,4.33775,-4.36891,1.23822
14.8924,278.8074,4.14044,-4.02377,1.62001
14.9009,278.8173,4.11845,-3.51675,1.87169
14.9135,278.8284,4.12273,-2.72385,2.00242
14.92,278.8384,4.04759,-2.25531,1.99264
14.9327,278.8481,3.91504,-1.82588,1.78189
14.9411,278.8594,3.84723,-1.59375,1.60535
14.9538,278.8693,3.91931,-1.44103,1.46608
15.0055,278.8793,4.11845,-1.45569,1.35856
15.0078,278.8893,4.48497,-1.43126,1.14476
15.0091,278.8993,4.87287,-1.25838,0.85949
15.0099,278.9093,5.17036,-0.92546,0.60476
15.0113,278.9194,5.24428,-0.80634,0.40684
15.0149,278.9293,5.09584,-0.71227,0.15149
15.0233,278.9393,4.83011,-0.48625,-0.12828
15.034,278.9493,4.36158,-0.18143,-0.47403
15.0412,278.9593,3.93764,0.12584,-0.76664
15.0549,278.9693,3.38847,0.65973,-1.20157
15.0635,278.9794,2.98102,1.18264,-1.61391
15.0732,278.9894,2.76233,1.82771,-1.87536
15.0826,278.9993,2.77394,2.32984,-1.8723
15.0969,279.0093,2.79593,3.07326,-1.83076
15.1011,279.0193,2.75683,3.63404,-1.91506
15.1159,279.0293,2.55769,4.17526,-2.16246
15.1221,279.0393,2.25776,4.35425,-2.44468
15.1373,279.0503,1.76296,4.26812,-2.88634
15.1446,279.0603,1.42087,3.92909,-3.32922
15.1547,279.0704,1.16553,3.43795,-3.98528
15.1627,279.0803,1.08062,3.17711,-4.53751
15.175,279.0903,0.99693,3.02256,-5.30536
15.1822,279.1003,0.90775,3.03417,-5.7177
15.1938,279.1103,0.72082,3.13985,-6.08177
15.2026,279.1203,0.49969,3.27179,-6.30413
15.2157,279.1304,0.11179,3.46666,-6.6059
15.2227,279.1403,-0.15882,3.54607,-6.8026
15.2363,279.1503,-0.47281,3.61327,-7.06282
15.2464,279.1614,-0.6915,3.48865,-7.24547
15.2569,279.1713,-0.76114,3.25225,-7.33588
15.2652,279.1813,-0.69211,3.0641,-7.31206
15.2769,279.1913,-0.49786,2.72263,-7.21126
15.2835,279.2013,-0.36469,2.44835,-7.17461
15.2959,279.2113,-0.21686,1.9511,-7.15323
15.3036,279.2214,-0.15944,1.55343,-7.10192
15.318,279.2313,-0.13683,1.27732,-6.96325
15.3242,279.2413,-0.16982,1.16431,-6.77083
15.3372,279.2513,-0.24679,1.14354,-6.57596
15.3453,279.2613,-0.30421,1.19119,-6.44952
15.3559,279.2713,-0.38729,1.1411,-6.40553
15.3636,279.2814,-0.51924,1.01404,-6.42691
15.3771,279.2913,-0.75259,0.90591,-6.51854
15.3835,279.3013,-0.96944,0.90591,-6.62056
15.3983,279.3113,-1.28221,0.99082,-6.7073
15.4097,279.3213,-1.55282,1.09223,-6.67676
15.4253,279.3313,-1.78922,1.1637,-6.5723
15.4327,279.3414,-1.90895,1.20157,-6.40675
15.4356,279.3514,-1.98165,1.31947,-6.10438
15.4488,279.3613,-1.9957,1.58642,-5.82704
15.4569,279.3713,-2.06289,2.1142,-5.60347
15.465,279.3813,-2.22599,2.65726,-5.55032
15.4759,279.3913,-2.67559,3.26324,-5.55399
15.4837,279.4013,-3.16917,3.50026,-5.62179
15.4973,279.4114,-3.62243,3.52714,-5.71648
15.5036,279.4213,-3.82707,3.56562,-5.72686
15.5169,279.4313,-3.82402,3.83684,-5.55582
15.5241,279.4413,-3.73605,4.2223,-5.22656
15.5367,279.4513,-3.61449,4.62364,-4.63402
15.5452,279.4623,-3.58089,4.76108,-4.09402
15.5578,279.4723,-3.68657,4.49719,-3.54302
15.565,279.4823,-3.77637,4.13495,-3.28035
15.5778,279.4924,-3.84784,3.67497,-3.03111
15.5848,279.5024,-3.81913,2.98041,-2.81975
15.6012,279.5123,-3.66336,1.67988,-2.53448
15.6052,279.5234,-3.30967,-0.13134,-2.04396
15.6179,279.5333,-2.83075,-1.57298,-1.51189
15.6255,279.5433,-2.44774,-2.19545,-1.11483
15.6392,279.5533,-1.98776,-2.71041,-0.88575
15.6479,279.5633,-1.77762,-2.53815,-0.87476
15.6578,279.5733,-1.48379,-2.02013,-1.01159
15.6665,279.5834,-0.72143,-2.19606,-1.20585
15.6769,279.5932,0.50152,-2.58579,-1.10933
15.6865,279.6033,1.89185,-3.23331,-0.76297
15.6972,279.6133,3.17467,-3.75255,-0.34453
15.7059,279.6233,3.83257,-3.68657,-0.03238
15.7196,279.6343,4.05431,-3.59433,0.36408
15.7277,279.6453,3.93519,-3.74155,0.67684
15.7395,279.6551,3.81913,-3.85395,0.93951
15.7474,279.6653,3.85395,-4.01522,1.0513
15.7597,279.6753,4.09096,-4.39395,1.12277
15.7687,279.6853,4.45443,-4.73298,1.1472
15.7916,279.6954,4.94007,-4.9474,1.14537
15.7971,279.7063,5.28032,-4.8466,1.08306
15.8022,279.7164,5.4538,-4.49047,1.03175
15.8105,279.7263,5.43242,-4.33409,1.102
15.8208,279.7363,5.30964,-4.29133,1.30359
15.8299,279.7463,5.18197,-4.41533,1.54915
15.842,279.7563,5.00421,-4.77636,1.80205
15.8484,279.7663,4.87959,-4.98161,1.92911
15.8607,279.7763,4.78552,-5.24611,2.05312
15.8685,279.7864,4.79163,-5.31392,2.15452
15.8805,279.7963,4.80568,-5.22107,2.18262
15.8889,279.8063,4.85638,-4.99077,2.11054
15.9051,279.8173,4.92296,-4.59187,2.05739
15.91,279.8273,4.78369,-4.22841,2.0971
15.925,279.8373,4.47948,-4.01033,2.0971
15.9298,279.8473,4.14533,-3.9749,2.02624
15.9408,279.8573,3.76843,-3.90037,1.90223
15.949,279.8674,3.37137,-3.6206,1.84542
15.9655,279.8773,2.89184,-3.17833,1.8607
15.969,279.8873,2.53265,-2.75317,1.90407
15.9807,279.8973,2.16857,-2.20461,2.03907
15.9894,279.9073,1.99081,-1.94316,2.2321
16.0019,279.9173,1.91506,-1.8888,2.39581
16.0094,279.9274,1.95294,-2.0916,2.38726
16.022,279.9374,2.08549,-2.46301,2.22233
16.0293,279.9473,2.21072,-2.8057,1.9902
16.0421,279.9573,2.28769,-3.31761,1.72264
16.0495,279.9673,2.31518,-3.78126,1.56687
16.0649,279.9773,2.32373,-4.3628,1.43492
16.0694,279.9873,2.37871,-4.98222,1.38117
16.0817,279.9974,2.56075,-5.82277,1.29992
16.0932,280.0073,2.70674,-6.33467,1.16064
16.1099,280.0173,2.79349,-6.48433,0.96639
16.1126,280.0273,2.64382,-6.22594,0.91263
16.1225,280.0373,2.23638,-5.84537,1.05802
16.1293,280.0473,1.88513,-5.69754,1.26388
16.1439,280.0574,1.65911,-5.83132,1.33474
16.1493,280.0673,1.61757,-6.18196,1.17653
16.1675,280.0773,1.71287,-6.90156,0.7813
16.1772,280.0873,1.88513,-7.54419,0.39645
16.1852,280.0973,2.04884,-8.01211,0.0843
16.1895,280.1073,2.14292,-8.32182,-0.10751
16.2016,280.1174,2.20522,-8.692,-0.39889
16.2094,280.1273,2.21561,-8.89542,-0.69639
16.2215,280.1373,2.14047,-8.80929,-1.05313
16.2293,280.1473,1.99997,-8.57349,-1.28587
16.2429,280.1573,1.67438,-8.08724,-1.36223
16.2496,280.1673,1.38117,-7.78242,-1.18508
16.2625,280.1773,0.9725,-7.35115,-0.83689
16.2697,280.1874,0.56749,-6.93149,-0.52779
16.2828,280.1973,-0.13317,-6.61262,-0.35858
16.2896,280.2073,-0.67012,-6.34445,-0.41478
16.3018,280.2173,-1.28404,-5.86675,-0.6353
16.3097,280.2273,-1.67927,-5.37134,-0.84605
16.3232,280.2373,-1.95294,-4.85027,-0.96639
16.3306,280.2483,-2.16918,-4.17343,-0.97005
16.3429,280.2583,-2.38054,-3.45078,-0.82589
16.3505,280.2684,-2.61145,-3.08731,-0.63041
16.3629,280.2783,-2.91871,-2.88328,-0.38729
16.3707,280.2883,-3.16978,-2.64932,-0.1631
16.3827,280.2983,-3.30784,-2.07633,0.04154
16.3905,280.3083,-3.37198,-1.25594,0.2755
16.403,280.3183,-3.50453,-0.51129,0.56261
16.4107,280.3284,-3.73361,-0.05925,0.81123
16.4257,280.3384,-4.12212,0.27061,0.97555
16.4346,280.3483,-4.59126,0.55222,1.12644
16.4435,280.3583,-5.15631,0.75747,1.37689
16.4517,280.3683,-5.55154,0.87659,1.65789
16.4637,280.3783,-5.97976,1.0513,2.14963
16.4704,280.3883,-6.17646,1.31275,2.49172
16.4827,280.3984,-6.34811,1.7764,2.8729
16.4905,280.4083,-6.46601,2.11237,3.11053
16.5054,280.4183,-6.61262,2.47828,3.37014
16.5133,280.4293,-6.72196,2.82281,3.70734
16.5254,280.4393,-6.84597,3.03417,4.04943
16.5318,280.4493,-7.01579,3.05433,4.20092
16.5424,280.4593,-7.28029,3.01829,4.14655
16.5522,280.4693,-7.42751,3.10381,4.06225
16.5627,280.4794,-7.45989,3.62243,4.07691
16.5709,280.4894,-7.5057,4.11906,4.06897
16.5835,280.4993,-7.58328,4.49475,3.94069
16.5908,280.5093,-7.58023,4.72688,3.868
16.6024,280.5193,-7.46783,5.12821,3.82829
16.6136,280.5293,-7.37009,5.39089,3.69146
16.6241,280.5393,-7.27174,5.55521,3.32555
16.6307,280.5494,-7.17767,5.52344,3.12396
16.6423,280.5593,-6.92904,5.60163,2.92421
16.6507,280.5693,-6.60773,5.7513,2.84236
16.6623,280.5793,-6.31574,5.75802,2.78921
16.6707,280.5893,-6.04696,5.71037,2.81242
16.6843,280.5993,-5.76535,5.50512,2.9798
16.6908,280.6094,-5.42448,5.27727,3.19238
16.7025,280.6193,-4.98161,5.24306,3.39763
16.713,280.6293,-4.55889,5.44831,3.45383
16.7233,280.6393,-4.25162,5.65661,3.27668
16.7337,280.6493,-4.14839,5.59125,3.047
16.7422,280.6593,-4.05309,5.47641,2.78371
16.7507,280.6694,-3.97429,5.36767,2.65238
16.7639,280.6793,-3.8851,5.18441,2.52043
16.7707,280.6893,-3.80813,5.39272,2.52715
16.7826,280.6993,-3.76965,5.86858,2.73912
16.7907,280.7093,-3.93947,6.19906,3.036
16.8028,280.7193,-4.45871,6.76655,3.36037
16.8115,280.7294,-4.89181,7.3255,3.40252
16.8222,280.7392,-5.19174,7.82885,3.21804
16.8307,280.7493,-5.13127,8.07442,3.06105
16.8421,280.7593,-4.86188,8.05609,3.00057
16.8507,280.7693,-4.45687,7.90521,2.97308
16.864,280.7793,-3.96329,7.77143,2.91688
16.8707,280.7894,-3.59922,7.38964,2.81181
16.8831,280.7993,-3.20765,6.70302,2.51921
16.8908,280.8093,-2.54548,5.99076,2.12887
16.9036,280.8193,-1.60596,4.91563,1.54121
16.9138,280.8293,-0.80756,3.65542,0.99082
16.9224,280.8393,-0.09835,2.22355,0.49724
16.9308,280.8493,0.21441,1.39033,0.26573
16.9437,280.8594,0.19731,1.10689,0.10812
16.9508,280.8693,-0.12339,1.34451,0.01833
16.9647,280.8793,-0.60903,1.87536,-0.07697
16.9707,280.8893,-0.84605,2.41964,-0.09774
16.9841,280.8993,-0.68661,2.93521,0.09285
16.9908,280.9093,-0.32559,2.96086,0.32193
17.0036,280.9194,0.16554,2.91077,0.59376
17.0107,280.9293,0.42944,2.72629,0.76908
17.0223,280.9393,0.48442,2.21194,0.73487
17.0308,280.9493,0.41172,1.59375,0.45265
17.0431,280.9593,0.41661,1.17958,0.06658
17.0509,280.9693,0.43066,0.80329,-0.27306
17.0622,280.9794,0.50396,0.25779,-0.65179
17.0708,280.9894,0.65607,0.16127,-0.78985
17.0823,280.9993,0.78313,0.17776,-0.68478
17.0908,281.0093,0.75564,0.11301,-0.42089
17.1037,281.0193,0.6408,0.05681,-0.02016
17.1108,281.0293,0.5174,0.06109,0.29322
17.1223,281.0393,0.36163,-0.10996,0.60964
17.1307,281.0494,0.26878,-0.67684,0.7196
17.1436,281.0593,0.38179,-1.5461,0.58154
17.1508,281.0693,0.64813,-2.12215,0.39218
17.1641,281.0793,1.00976,-2.56808,0.12217
17.1709,281.0893,1.07634,-2.47217,-0.04948
17.1837,281.0993,0.88087,-2.31762,-0.18387
17.1908,281.1094,0.55772,-2.24126,-0.25779
17.2049,281.1193,0.28039,-2.19484,-0.22174
17.2151,281.1293,0.02993,-2.02929,-0.09529
17.2237,281.1393,-0.24496,-1.99875,0.1179
17.2308,281.1493,-0.42272,-2.26936,0.31582
17.2424,281.1593,-0.44043,-2.47889,0.46487
17.2508,281.1694,-0.31765,-2.46912,0.6072
17.2623,281.1793,-0.18876,-2.4905,0.86743
17.2708,281.1893,-0.15882,-2.55403,1.20463
17.2823,281.1993,-0.17593,-2.54059,1.73852
17.2908,281.2093,-0.25351,-2.54731,2.25715
17.3025,281.2193,-0.47159,-2.68781,2.8729
17.3109,281.2294,-0.6744,-2.9462,3.182
17.3223,281.2394,-0.7025,-3.28035,3.29867
17.3308,281.2493,-0.58765,-3.40496,3.31517
17.3432,281.2593,-0.38118,-3.3225,3.34571
17.3522,281.2693,-0.29322,-3.12885,3.3903
17.3666,281.2793,-0.30238,-2.89917,3.51736
17.3709,281.2893,-0.38057,-2.76294,3.76476
17.3839,281.2994,-0.62003,-2.42636,4.16916
17.3907,281.3093,-0.97738,-2.21683,4.6835
17.4032,281.3193,-1.52167,-2.32679,5.33408
17.4143,281.3293,-1.9902,-2.64444,6.08605
17.4223,281.3393,-2.30602,-3.15084,6.94432
17.4308,281.3493,-2.52715,-3.56257,7.69996
17.4424,281.3594,-2.65849,-3.79836,8.28883
17.4515,281.3693,-2.72629,-3.92603,8.51241
17.4683,281.3793,-2.73729,-3.90037,8.40612
17.4716,281.3893,-2.54853,-3.70307,7.95041
17.4835,281.3993,-1.98714,-3.42573,7.00785
17.4912,281.4093,-1.4954,-3.10258,6.38782
17.5029,281.4194,-0.95539,-2.56014,5.95533
17.5107,281.4293,-0.69211,-2.05434,5.88935
17.5238,281.4393,-0.50457,-1.24128,5.82643
17.5314,281.4493,-0.49297,-0.83444,5.69326
17.5437,281.4593,-0.53695,-0.57849,5.35546
17.5507,281.4693,-0.57849,-0.51557,4.99199
17.5623,281.4793,-0.63102,-0.281,4.43122
17.5708,281.4893,-0.76603,0.10079,3.92298
17.5847,281.4993,-1.02809,0.43494,3.38358
17.5907,281.5093,-1.237,0.62247,2.91688
17.6023,281.5192,-1.32802,0.68295,2.4459
17.6108,281.5293,-1.2596,0.60781,1.91018
17.6229,281.5393,-0.9615,0.57727,1.21073
17.6308,281.5493,-0.59682,0.61392,0.49969
17.6422,281.5593,-0.2584,0.77336,-0.2529
17.6508,281.5693,-0.0055,0.97311,-0.94073
17.663,281.5793,0.23396,1.22906,-1.59069
17.6707,281.5893,0.47525,1.38666,-2.0861
17.6822,281.5993,0.76419,1.27854,-2.57358
17.6936,281.6093,0.99143,0.91508,-2.91444
17.7027,281.6192,1.27732,0.24068,-3.30784
17.711,281.6293,1.53327,-0.35552,-3.67374
17.7231,281.6392,1.77212,-0.81612,-4.11601
17.7307,281.6493,1.95416,-1.05863,-4.543
17.7431,281.6593,2.18507,-1.39522,-5.21618
17.7508,281.6693,2.41109,-1.54549,-5.9199
17.7629,281.6793,2.61267,-1.43248,-6.71707
17.7706,281.6893,2.60839,-1.26571,-7.25891
17.7822,281.6992,2.32617,-1.03603,-7.54541
17.7907,281.7093,1.84298,-0.93157,-7.56312
17.8024,281.7193,1.17469,-0.8998,-7.32489
17.8113,281.7293,0.62003,-0.86132,-6.97303
17.8234,281.7393,0.13011,-0.75931,-6.51976
17.8311,281.7493,-0.13317,-0.74464,-6.22166
17.8424,281.7593,-0.07819,-0.64752,-6.14897
17.8509,281.7693,0.24374,-0.85888,-6.21189
17.8625,281.7793,0.64202,-1.34451,-6.17096
17.8709,281.7893,0.90164,-1.68904,-6.083
17.8827,281.7993,1.102,-2.06411,-5.85759
17.8908,281.8093,1.17225,-2.16307,-5.69326
17.9033,281.8193,1.13865,-1.92423,-5.47091
17.9115,281.8293,1.04763,-1.48807,-5.30598
17.9233,281.8393,0.83078,-0.47953,-5.18869
17.9307,281.8493,0.67012,0.49114,-5.16181
17.9439,281.8593,0.51007,1.70126,-5.0262
17.9507,281.8693,0.41417,2.53509,-4.70305
17.9653,281.8792,0.26206,3.27241,-4.05004
17.9708,281.8893,0.10324,3.38969,-3.45444
17.9834,281.8993,-0.07514,2.90833,-2.88512
17.9907,281.9093,-0.22541,1.87413,-2.49416
18.0024,281.9193,-0.30299,0.22724,-2.19789
18.0107,281.9293,-0.5003,-1.12582,-2.16063
18.0223,281.9392,-0.95112,-2.28647,-2.54914
18.0308,281.9493,-1.28526,-3.09587,-3.09892
18.0423,281.9593,-1.55954,-3.67252,-3.65847
18.0506,281.9691,-1.74952,-3.93886,-3.82218
18.0629,281.9793,-1.73547,-3.69268,-3.69757
18.0708,281.9893,-1.48746,-3.36037,-3.30478
18.0833,281.9993,-1.10383,-3.18016,-2.71407
18.0908,282.0093,-0.79229,-3.16917,-2.32251
18.1023,282.0192,-0.55039,-3.4746,-2.11787
18.1113,282.0293,-0.61881,-4.00239,-2.24065
18.1231,282.0393,-0.91202,-4.68473,-2.51676
18.1308,282.0493,-1.13315,-4.94251,-2.71835
18.1423,282.0593,-1.04336,-4.76108,-2.88878
18.1508,282.0693,-0.59376,-4.45382,-2.89428
18.1642,282.0793,0.01772,-4.05004,-2.68781
18.1707,282.0893,0.48625,-3.63648,-2.32984
18.1823,282.0993,0.84605,-3.22903,-1.85947
18.1908,282.1093,1.11116,-2.99935,-1.35307
18.2023,282.1193,1.32985,-3.25225,-0.96333
18.2113,282.1293,1.507,-3.64503,-0.91752
18.2236,282.1393,1.79839,-4.02621,-1.11177
18.2307,282.1493,2.0635,-4.17038,-1.37506
18.2444,282.1593,2.32495,-4.21619,-1.8326
18.2517,282.1693,2.47156,-4.18137,-2.19789
18.2623,282.1792,2.50638,-3.94802,-2.42452
18.2708,282.1893,2.50394,-3.58456,-2.4117
18.2838,282.1992,2.56624,-3.23759,-2.22721
18.2907,282.2093,2.59373,-3.02378,-2.02319
18.3038,282.2193,2.61267,-2.96636,-1.88269
18.3116,282.2293,2.66826,-2.94498,-1.85947
18.3224,282.2393,2.79471,-2.94437,-1.90712
18.3307,282.2493,3.04394,-3.05494,-2.0354
18.3434,282.2592,3.43306,-3.3506,-2.27181
18.3519,282.2693,3.8118,-3.35854,-2.51982
18.3635,282.2793,4.10807,-3.14046,-2.77638
18.3715,282.2893,4.2614,-2.98591,-2.92971
18.385,282.2993,4.44282,-3.03722,-2.96209
18.3914,282.3093,4.69389,-3.15084,-2.9743
18.4041,282.3193,5.01948,-3.452,-3.06532
18.4114,282.3293,5.35729,-3.94252,-3.35365
18.4245,282.3393,5.73664,-4.58882,-3.90465
18.4331,282.3503,6.04573,-5.2565,-4.44343
18.4448,282.3603,6.2742,-5.5772,-4.78369
18.4527,282.3703,6.50938,-5.73969,-4.98466
18.4674,282.3803,6.75556,-5.74946,-5.22351
18.481,282.3903,6.98463,-5.68899,-5.53444
18.4867,282.4013,7.32366,-5.51245,-5.99748
18.4944,282.4113,7.59183,-5.23145,-6.46418
18.5062,282.4213,7.86184,-5.06652,-6.86674
18.5137,282.4313,8.03043,-5.01643,-7.14407
18.526,282.4413,8.02433,-4.81973,-7.55152
18.533,282.4513,7.9443,-4.42816,-7.89299
18.5448,282.4613,7.88505,-3.79714,-8.12878
18.5533,282.4713,7.94186,-3.16428,-8.05976
18.5652,282.4813,8.09885,-2.15513,-7.81174
18.5732,282.4913,8.18987,-1.21073,-7.4495
18.5851,282.5013,8.19354,0.02382,-6.80321
18.5935,282.5113,8.15261,0.94928,-6.10315
18.6139,282.5213,8.01883,2.00425,-5.3188
18.6157,282.5313,7.90276,2.47767,-4.92846
18.6259,282.5413,7.64498,3.11908,-4.44649
18.6388,282.5513,7.37742,3.84051,-4.00728
18.6483,282.5613,7.02434,4.40434,-3.61877
18.6553,282.5713,6.64621,4.37868,-3.57906
18.6693,282.5813,5.95838,3.90037,-3.86128
18.6745,282.5913,5.37622,3.61693,-4.05553
18.6858,282.6013,4.56377,3.4349,-3.91687
18.6936,282.6113,3.8008,3.68168,-3.41474
18.7061,282.6213,3.08853,4.44527,-2.78555
18.7136,282.6313,2.44163,4.93518,-2.30846
18.7267,282.6413,1.72936,4.48314,-2.1252
18.7336,282.6513,1.40804,3.92175,-2.30113
18.7458,282.6613,1.24983,3.24064,-2.51432
18.7552,282.6713,1.20463,2.84297,-2.57358
18.7684,282.6813,1.12766,2.74523,-2.67254
18.7768,282.6913,0.95051,2.87046,-2.85396
18.7883,282.7013,0.54123,3.26752,-3.12152
18.7971,282.7123,0.07025,3.55707,-3.31761
18.8067,282.7223,-0.74587,3.96574,-3.56379
18.8146,282.7323,-1.54671,4.48436,-3.75621
18.827,282.7423,-2.46423,4.95839,-3.93519
18.8341,282.7523,-3.02989,5.23023,-3.96146
18.8466,282.7623,-3.34265,5.41837,-4.00056
18.8539,282.7723,-3.26385,5.36584,-4.02255
18.8658,282.7823,-2.94254,5.24855,-3.88877
18.8739,282.7923,-2.755,5.21618,-3.74888
18.8855,282.8023,-2.72812,5.15082,-3.71345
18.8945,282.8123,-2.88817,5.1386,-3.80447
18.9055,282.8223,-3.08853,5.21679,-3.9804
18.9139,282.8323,-3.18016,5.31025,-4.14411
18.9264,282.8422,-3.18078,5.45503,-4.34997
18.9339,282.8523,-3.13801,5.52711,-4.44466
18.9453,282.8623,-3.07265,5.38478,-4.52957
18.9538,282.8723,-3.05738,5.10806,-4.67862
18.9662,282.8823,-3.12946,4.7116,-4.88387
18.9738,282.8923,-3.28279,4.34631,-4.99627
18.9961,282.9022,-3.61877,3.63343,-5.22595
18.9968,282.9123,-3.93825,2.9572,-5.50267
19.0073,282.9223,-4.16671,2.27486,-5.70121
19.0136,282.9322,-4.26079,1.79472,-5.80872
19.0276,282.9423,-4.23207,1.52594,-5.76535
19.0339,282.9523,-4.23024,1.38605,-5.59369
19.0457,282.9623,-4.32615,1.23456,-5.3188
19.0538,282.9723,-4.40984,1.18569,-5.06407
19.0664,282.9823,-4.43122,1.10139,-4.69816
19.0739,282.9923,-4.3573,0.92424,-4.38174
19.0862,283.0023,-4.24796,0.56016,-4.2333
19.0945,283.0122,-4.23024,0.28711,-4.36769
19.1055,283.0222,-4.28461,0.05437,-4.69633
19.1139,283.0323,-4.33348,-0.00428,-5.0714
19.1255,283.0423,-4.3799,-0.12523,-5.44098
19.1341,283.0523,-4.30904,-0.1912,-5.62851
19.1482,283.0623,-4.09096,-0.28466,-5.70548
19.1549,283.0733,-3.97429,-0.35919,-5.62851
19.1664,283.0833,-3.93825,-0.46181,-5.31758
19.179,283.0933,-4.01216,-0.4386,-4.93885
19.1882,283.1033,-4.24674,-0.21075,-4.4019
19.1958,283.1133,-4.47459,0.04093,-4.1154
19.2083,283.1233,-4.78246,0.61881,-3.77087
19.2157,283.1333,-4.9981,1.18935,-3.43367
19.2281,283.1433,-5.13005,1.70676,-3.13618
19.2347,283.1533,-5.12516,2.03296,-2.96025
19.2462,283.1632,-5.02253,2.23882,-2.85702
19.2595,283.1733,-4.8857,2.24982,-2.90222
19.2666,283.1832,-4.75681,2.29258,-2.99446
19.2748,283.1933,-4.68839,2.41475,-3.04089
19.2873,283.2033,-4.72626,2.6481,-2.99996
19.2954,283.2133,-4.90952,2.67681,-2.89978
19.3063,283.2232,-5.24306,2.5186,-2.79898
19.3148,283.2333,-5.47152,2.37993,-2.77638
19.3267,283.2432,-5.66089,2.2993,-2.87168
19.3349,283.2533,-5.71281,2.42758,-2.98896
19.3463,283.2633,-5.64989,2.84969,-3.05372
19.3548,283.2733,-5.53322,3.2889,-2.97369
19.3673,283.2833,-5.53872,3.42146,-2.71652
19.3748,283.2933,-5.78367,2.99446,-2.61817
19.3873,283.3032,-6.09644,2.1197,-2.65726
19.3949,283.3133,-6.22105,1.55404,-2.83686
19.4073,283.3233,-6.16546,0.85155,-3.03295
19.4148,283.3333,-5.99686,0.49541,-3.02623
19.4263,283.3433,-5.55215,0.23457,-2.79898
19.4348,283.3533,-4.90525,0.04826,-2.41047
19.4463,283.3632,-4.10196,-0.03176,-1.87658
19.4571,283.3732,-3.30478,-0.00977,-1.27304
19.4672,283.3833,-2.29136,-0.12217,-0.62003
19.4747,283.3933,-1.56381,-0.1741,-0.33781
19.4863,283.4032,-0.63347,-0.29993,-0.07514
19.4948,283.4133,0.09102,-0.5003,0.09713
19.5067,283.4232,0.92729,-0.73426,0.25656
19.5148,283.4333,1.43614,-0.9163,0.32437
19.5262,283.4433,1.73974,-1.13071,0.37446
19.5348,283.4533,1.8888,-1.0965,0.38973
19.5474,283.4633,2.10504,-0.9615,0.42699
19.5548,283.4733,2.34084,-1.00793,0.56444
19.5671,283.4833,2.59923,-1.34146,0.71227
19.5748,283.4933,2.79776,-1.65972,0.78496
19.5863,283.5033,3.11786,-2.03479,0.78191
19.5949,283.5133,3.47094,-2.26631,0.68539
19.6064,283.5233,3.81669,-2.65299,0.44654
19.6147,283.5333,4.12212,-3.06043,0.16249
19.6261,283.5432,4.42144,-3.36648,-0.07453
19.6349,283.5533,4.70183,-3.50942,-0.2364
19.6472,283.5633,5.01826,-3.54363,-0.33353
19.6548,283.5733,5.16609,-3.47705,-0.42333
19.667,283.5831,5.27543,-3.49354,-0.56688
19.6747,283.5932,5.32736,-3.6206,-0.69089
19.6887,283.6043,5.43975,-3.87838,-0.72815
19.6971,283.6143,5.53933,-3.95474,-0.71838
19.7071,283.6243,5.69021,-3.96329,-0.73609
19.7157,283.6343,5.88691,-3.85028,-0.79412
19.7271,283.6442,6.05856,-3.54485,-0.92118
19.7357,283.6543,6.08666,-3.29867,-0.98838
19.7486,283.6643,6.16302,-3.21804,-0.92118
19.7558,283.6743,6.2913,-3.28523,-0.7929
19.7672,283.6843,6.51732,-3.37686,-0.61209
19.7758,283.6943,6.76472,-3.37686,-0.41478
19.7873,283.7043,7.09948,-3.29012,-0.22907
19.7957,283.7143,7.37192,-3.21132,-0.13317
19.808,283.7242,7.71706,-3.35365,-0.00428
19.8156,283.7342,7.9327,-3.71101,0.04826
19.8274,283.7442,8.06586,-4.03293,-0.02627
19.8356,283.7542,8.12756,-4.21069,-0.14478
19.8474,283.7643,8.22041,-4.41533,-0.27733
19.8556,283.7743,8.3377,-4.47459,-0.36591
19.8676,283.7842,8.53806,-4.27484,-0.46487
19.8758,283.7943,8.67978,-4.11845,-0.48564
19.8873,283.8042,8.7366,-4.15633,-0.41783
19.8958,283.8142,8.79646,-4.32798,-0.33292
19.9084,283.8242,8.94062,-4.51124,-0.39218
19.9163,283.8343,9.08906,-4.6609,-0.51557
19.9282,283.8443,9.37251,-4.75375,-0.71349
19.9358,283.8543,9.64984,-4.75497,-0.89675
19.9483,283.8642,9.88136,-4.83133,-1.22173
19.9558,283.8742,9.6926,-4.88265,-1.49601
19.9677,283.8842,8.94795,-4.824,-1.7599
19.9758,283.8943,8.22347,-4.55461,-1.67011
19.9874,283.9043,7.22592,-4.37135,-1.00915
19.9959,283.9143,6.2632,-4.05431,-0.19975
20.0091,283.9243,4.86737,-3.71162,0.72754
20.0158,283.9342,3.97124,-3.60716,1.18141
20.0276,283.9442,2.76294,-3.55768,1.61207
20.0358,283.9543,1.86436,-3.67558,1.69515
20.0489,283.9643,0.93707,-3.82951,1.49051
20.0559,283.9743,0.38912,-3.85517,1.31397
20.0685,283.9843,-0.17349,-3.8735,1.19913
20.0759,283.9942,-0.67012,-3.95352,1.22478
20.0874,284.0042,-1.12094,-4.01338,1.39461
20.0958,284.0142,-1.41904,-3.93153,1.6811
20.1088,284.0243,-1.56748,-3.31639,2.01891
20.1159,284.0343,-1.65056,-2.96147,2.29136
20.1288,284.0443,-1.89307,-2.86129,2.57968
20.1358,284.0542,-2.14719,-2.75989,2.58518
20.1478,284.0642,-2.49661,-2.64627,2.4679
20.1558,284.0742,-2.74584,-2.57419,2.35366
20.1673,284.0842,-3.03967,-2.52348,2.24249
20.1758,284.0943,-3.2101,-2.339,2.23577
20.1875,284.1043,-3.28218,-2.03235,2.32129
20.1959,284.1143,-3.25286,-1.85337,2.4343
20.2074,284.1242,-3.12702,-1.80327,2.64566
20.2158,284.1342,-2.95353,-1.72081,2.8955
20.2282,284.1443,-2.74828,-1.58336,3.18749
20.2358,284.1543,-2.61145,-1.51556,3.38419
20.2478,284.1643,-2.54609,-1.28282,3.49415
20.2559,284.1743,-2.53204,-0.79718,3.53202
20.2673,284.1842,-2.58396,-0.19242,3.5363
20.2757,284.1942,-2.62855,0.02932,3.49171
20.2879,284.2042,-2.68414,-0.16616,3.34876
20.2958,284.2143,-2.75134,-0.59865,3.12213
20.3084,284.2243,-2.90222,-1.21501,2.74278
20.3159,284.2343,-3.05494,-1.47157,2.50577
20.3284,284.2442,-3.28829,-1.52838,2.29319
20.3359,284.2542,-3.48743,-1.27732,2.22233
20.3473,284.2642,-3.72506,-0.78191,2.32434
20.3557,284.2743,-3.89182,-0.2138,2.59373
20.3673,284.2843,-3.97551,0.51435,2.94009
20.3757,284.2943,-4.01033,0.96089,3.2553
20.3884,284.3042,-4.11479,1.41354,3.69451
20.3957,284.3142,-4.31698,1.53449,3.89243
20.4078,284.3242,-4.60531,1.45019,3.86311
20.4159,284.3343,-4.51185,1.18264,3.44589
20.4283,284.3443,-4.28827,0.90836,2.89794
20.4359,284.3543,-3.72017,1.24494,2.49722
20.4474,284.3643,-2.87718,1.73425,2.5076
20.4558,284.3742,-2.24493,2.19178,2.94254
20.4708,284.3842,-1.88146,2.71469,3.63037
20.4759,284.3943,-1.86864,3.28645,4.41717
20.4874,284.4043,-2.13986,4.03049,5.29681
20.5,284.4143,-2.51493,4.84172,5.97793
20.5084,284.4243,-2.87962,5.94616,6.62117
20.5168,284.4342,-3.08426,6.89545,7.03106
20.53,284.4442,-3.32983,8.13917,7.36642
20.5358,284.4542,-3.59616,8.83983,7.40063
20.5473,284.4643,-3.94375,8.67245,7.06038
20.5585,284.4743,-4.12823,8.27356,6.56863
20.5692,284.4843,-4.138,7.67125,5.77145
20.5759,284.4942,-3.90037,7.38964,5.30475
20.5885,284.5042,-3.35793,6.99624,4.91013
20.5988,284.5142,-2.85091,6.65599,4.70855
20.6081,284.5243,-2.23149,6.27236,4.53995
20.6267,284.5343,-1.79594,6.04451,4.28339
20.6284,284.5443,-1.42881,5.91256,3.87777
20.6368,284.5553,-1.1356,5.90157,3.51309
20.6504,284.5653,-0.76847,5.99076,3.18139
20.6569,284.5753,-0.49786,6.06406,3.05127
20.6686,284.5852,-0.15272,6.08544,3.00179
20.6768,284.5952,0.04887,6.0775,3.03417
20.6891,284.6052,0.135,6.15386,3.15145
20.6969,284.6153,-0.04093,6.15263,3.28462
20.7093,284.6253,-0.37446,5.84781,3.32983
20.717,284.6353,-0.54856,5.34202,3.1765
20.7301,284.6452,-0.39767,4.8014,2.93948
20.7369,284.6552,-0.02688,4.52101,2.86618
20.7492,284.6653,0.54184,4.42511,2.99874
20.7569,284.6753,0.95723,4.52957,3.28768
20.7697,284.6853,1.14476,4.7733,3.69329
20.777,284.6953,1.02259,4.93579,4.02743
20.7889,284.7052,0.67867,4.74215,4.36097
20.7968,284.7152,0.29322,4.19237,4.47581
20.8084,284.7252,-0.10018,3.20216,4.42205
20.8168,284.7353,-0.32132,2.41475,4.3011
20.8303,284.7453,-0.57116,1.70248,4.08058
20.8368,284.7553,-0.87415,1.54121,3.9132
20.8533,284.7652,-1.40071,1.79717,3.89915
20.8609,284.7752,-1.88696,2.10077,4.01216
20.8692,284.7852,-2.54975,2.50394,4.20703
20.8768,284.7953,-3.12396,2.69392,4.33653
20.8934,284.8053,-3.60166,2.60229,4.29866
20.8985,284.8153,-3.84662,2.39765,4.02927
20.9084,284.8253,-3.93031,2.25776,3.53691
20.9169,284.8352,-3.91565,2.33412,2.92055
20.9297,284.8452,-3.8961,2.87229,2.15819
20.9368,284.8553,-3.96329,3.34265,1.6921
20.9496,284.8653,-4.14472,3.81485,1.16981
20.957,284.8753,-4.2614,3.93214,0.77213
20.969,284.8853,-4.26567,3.81913,0.25779
20.977,284.8952,-4.09585,3.56806,-0.17715
20.9892,284.9052,-3.73788,3.28218,-0.61514
20.9969,284.9152,-3.38053,3.2944,-0.94379
21.0102,284.9253,-2.95109,3.50942,-1.4166
21.0181,284.9353,-2.66582,3.65358,-1.86436
21.0351,284.9453,-2.48072,3.71773,-2.35061
21.0379,284.9552,-2.46912,3.73911,-2.5693
21.05,284.9652,-2.59007,3.82218,-2.84785
21.057,284.9752,-2.78799,3.67252,-3.0696
21.0764,284.9853,-3.08182,3.29806,-3.31272
21.0791,284.9953,-3.3451,2.90833,-3.48682
21.0954,285.0053,-3.57967,2.48378,-3.65786
21.0981,285.0152,-3.68596,2.50027,-3.74888
21.1118,285.0252,-3.67008,3.01767,-3.8118
21.1184,285.0352,-3.51553,3.49965,-3.77026
21.1308,285.0462,-3.24675,3.66763,-3.45261
21.1378,285.0562,-3.03539,3.54363,-3.00057
21.1491,285.0662,-2.83747,3.17467,-2.34267
21.1577,285.0762,-2.75806,2.65421,-1.9059
21.1692,285.0862,-2.62306,2.01158,-1.57603
21.1794,285.0962,-2.26264,1.39766,-1.28343
21.1909,285.1062,-1.57237,0.89309,-0.98166
21.1997,285.1162,-0.86865,0.62247,-0.74587
21.2099,285.1262,-0.27306,0.5791,-0.57727
21.2177,285.1363,0.15211,0.73854,-0.5229
21.2294,285.1463,0.32926,0.83566,-0.65179
21.2379,285.1563,0.33475,0.51985,-0.82284
21.2495,285.1662,0.45937,-0.00672,-0.89003
21.2585,285.1762,0.74403,-0.2926,-0.821
21.2696,285.1862,1.2089,-0.44899,-0.66096
21.2779,285.1963,1.61207,-0.551,-0.42516
21.2896,285.2063,2.09588,-0.87048,-0.03971
21.2978,285.2163,2.50821,-1.18386,0.35247
21.3103,285.2263,3.06532,-1.37078,0.7367
21.3187,285.2362,3.38419,-1.24128,0.95173
21.3298,285.2462,3.77209,-0.71777,1.08062
21.3379,285.2562,4.07264,-0.416,1.08306
21.3499,285.2662,4.40556,-0.66035,1.0458
21.3579,285.2762,4.67617,-1.38727,1.01709
21.3742,285.2862,4.87776,-2.49294,0.99205
21.3827,285.2962,4.96756,-2.98102,0.9444
21.3917,285.3062,5.03719,-3.025,0.96028
21.399,285.3162,5.06652,-2.91322,1.09467
21.4103,285.3263,5.05919,-2.91261,1.34696
21.4187,285.3363,5.00726,-3.05372,1.52167
21.4301,285.3463,4.91075,-3.16123,1.59802
21.438,285.3562,4.80262,-3.05738,1.56992
21.4512,285.3662,4.54789,-2.90772,1.40255
21.458,285.3762,4.23818,-3.03967,1.18508
21.4701,285.3862,3.59433,-3.57723,0.86254
21.4802,285.3963,2.92666,-4.13617,0.67256
21.4917,285.4063,1.91934,-4.91258,0.62553
21.5022,285.4162,1.31825,-5.27604,0.75747
21.51,285.4262,1.02259,-4.0482,1.13804
21.5192,285.4362,0.88331,-4.63097,1.63773
21.5299,285.4462,0.73487,-4.89547,2.00119
21.5378,285.4563,0.7422,-4.86799,2.16246
21.5507,285.4663,0.80573,-4.61692,2.11665
21.5578,285.4763,0.89003,-4.39701,1.99203
21.5698,285.4862,1.01037,-4.22535,1.87963
21.5793,285.4962,1.14049,-4.20886,1.79717
21.5893,285.5062,1.25594,-4.45443,1.69943
21.5978,285.5162,1.31703,-4.83194,1.62734
21.6094,285.5263,1.33291,-5.2455,1.57909
21.6178,285.5363,1.31336,-5.34202,1.57603
21.6303,285.5462,1.26632,-5.2791,1.57909
21.6377,285.5562,1.24922,-5.33285,1.56504
21.6502,285.5662,1.18447,-5.44709,1.50273
21.6578,285.5763,1.12644,-5.54605,1.39522
21.6698,285.5863,1.11605,-5.75435,1.09895
21.6797,285.5963,1.1472,-5.99686,0.83994
21.6893,285.6062,1.01831,-6.49289,0.45693
21.6996,285.6162,0.89614,-6.57169,0.19914
21.7094,285.6262,0.7648,-6.35239,-0.05681
21.7178,285.6363,0.68783,-5.98831,-0.21075
21.7308,285.6463,0.67745,-5.49412,-0.28222
21.7378,285.6563,0.72754,-5.24245,-0.28772
21.7492,285.6662,0.81612,-5.22412,-0.26267
21.7577,285.6762,0.9499,-5.4593,-0.24862
21.7693,285.6862,1.11055,-5.90951,-0.26023
21.7778,285.6963,1.29565,-6.36399,-0.31154
21.7893,285.7063,1.53694,-6.84047,-0.43371
21.7977,285.7163,1.70859,-7.2864,-0.56077
21.8093,285.7262,1.86131,-7.99256,-0.77458
21.8178,285.7362,1.8888,-8.51913,-1.01892
21.8307,285.7462,1.77517,-8.8606,-1.33413
21.838,285.7563,1.58092,-8.93635,-1.5632
21.8498,285.7663,1.18813,-9.0799,-1.77456
21.8579,285.7763,0.91691,-9.5912,-1.84237
21.8693,285.7863,0.64324,-10.66387,-1.95477
21.8778,285.7962,0.50824,-11.51359,-2.14841
21.8903,285.8062,0.47098,-12.43844,-2.62916
21.8983,285.8162,0.57788,-12.92896,-3.26141
21.9128,285.8263,0.81428,-12.94851,-4.12823
21.919,285.8363,0.96211,-12.73654,-4.67006
21.9299,285.8463,1.06718,-12.36147,-5.09584
21.9378,285.8562,1.10994,-11.85445,-5.26627
21.9514,285.8662,1.06963,-10.84347,-5.10744
21.9577,285.8762,0.99571,-9.94183,-4.8014
21.9704,285.8863,0.84116,-8.93818,-4.24735
21.9792,285.8963,0.69516,-8.39512,-3.71406
21.9892,285.9063,0.42211,-7.77815,-2.99019
21.9986,285.9171,0.09407,-7.25219,-2.41231
22.0114,285.9273,-0.50946,-6.2968,-1.80144
22.0189,285.9373,-1.03419,-5.35546,-1.42637
22.0307,285.9472,-1.83015,-4.15388,-0.96333
22.0388,285.9572,-2.59007,-3.27668,-0.60109
22.051,285.9672,-3.40924,-2.49477,-0.25351
22.0602,285.9773,-3.94069,-1.83443,-0.00611
22.0704,285.9873,-4.36891,-1.02381,0.30055
22.0791,285.9973,-4.44038,-0.39156,0.54611
22.0909,286.0072,-4.23207,0.07453,0.80207
22.0987,286.0172,-3.94069,0.30604,0.99632
22.1109,286.0272,-3.53019,0.57482,1.26205
22.1187,286.0373,-3.26874,0.88698,1.50395
22.1322,286.0473,-3.14596,1.02503,1.76174
22.1388,286.0573,-3.16611,0.92241,1.94072
22.1518,286.0672,-3.28096,0.72143,2.21622
22.1588,286.0772,-3.40069,0.77824,2.54914
22.1703,286.0872,-3.54913,1.19058,3.025
22.179,286.0973,-3.70001,1.7709,3.53263
22.1903,286.1073,-3.88877,2.33473,4.18259
22.1988,286.1173,-4.07691,2.82403,4.93885
22.2116,286.1272,-4.2614,3.35548,5.76962
22.2188,286.1372,-4.44649,3.72811,6.30596
22.2304,286.1472,-4.61692,3.91626,6.51121
22.2388,286.1573,-4.68289,4.0592,6.40309
22.2503,286.1673,-4.45748,4.07142,6.06467
22.259,286.1773,-4.23146,3.97918,5.7855
22.2725,286.1873,-3.9187,4.32065,5.54482
22.2787,286.1972,-3.71895,4.62547,5.48435
22.2901,286.2072,-3.4856,4.73176,5.55643
22.2988,286.2172,-3.38419,4.60959,5.656
22.3109,286.2273,-3.41718,4.48803,5.67249
22.3195,286.2373,-3.52286,4.5204,5.61752
22.3313,286.2473,-3.6713,4.71038,5.33957
22.3387,286.2572,-3.68963,4.981,5.02314
22.3502,286.2672,-3.57784,5.51123,4.57538
22.3587,286.2772,-3.41413,5.93211,4.24979
22.3701,286.2872,-3.18444,6.22899,4.09341
22.3793,286.2972,-2.94804,6.02863,4.03232
22.3908,286.3072,-2.59618,5.49718,3.92786
22.3988,286.3172,-2.16735,5.10989,3.77515
22.4115,286.3272,-1.69759,5.01643,3.51003
22.4188,286.3372,-1.30175,5.09217,3.06715
22.4315,286.3473,-1.24739,5.2846,2.40559
22.4388,286.3573,-1.48318,5.49412,2.04945
22.4509,286.3673,-1.923,5.77634,1.87169
22.4588,286.3773,-2.23149,6.08116,1.95049
22.4703,286.3872,-2.44774,6.48556,2.17529
22.48,286.3972,-2.48683,6.67065,2.29624
22.4903,286.4072,-2.47767,6.80687,2.15147
22.4989,286.4173,-2.48561,6.85635,1.86314
22.5112,286.4273,-2.45018,6.67737,1.45325
22.5188,286.4373,-2.36344,6.44768,1.25838
22.5324,286.4472,-2.2321,6.32673,1.3323
22.5388,286.4572,-2.10993,6.38537,1.57786
22.5503,286.4672,-1.98959,6.66026,1.8216
22.5588,286.4773,-1.87658,6.79038,1.88818
22.5708,286.4873,-1.69576,6.82886,1.79106
22.5808,286.4973,-1.49357,6.8649,1.63223
22.5903,286.5072,-1.3213,7.03534,1.51922
22.6017,286.5172,-1.23945,7.37253,1.47768
22.6115,286.5272,-1.2596,8.03715,1.48196
22.6195,286.5373,-1.36284,8.7873,1.51433
22.6348,286.5473,-1.57542,9.64678,1.53083
22.6396,286.5573,-1.75196,10.22405,1.52777
22.6519,286.5672,-1.88146,10.59301,1.52961
22.6592,286.5772,-1.83382,10.51055,1.45325
22.6737,286.5872,-1.52411,9.88197,1.19607
22.6791,286.5973,-1.10139,9.04997,0.88575
22.6918,286.6073,-0.48564,7.86672,0.51007
22.6995,286.6173,-0.05864,6.83925,0.28894
22.7117,286.6272,0.11118,5.53138,0.05925
22.7195,286.6372,0.02382,4.59371,-0.11179
22.7359,286.6472,-0.16127,3.56684,-0.18815
22.7498,286.6573,-0.23518,2.72873,-0.13806
22.7553,286.6673,-0.18143,1.87352,-0.01222
22.7682,286.6773,-0.04765,1.21745,0.05864
22.7805,286.6873,0.1405,0.92974,-0.05803
22.7849,286.6972,0.29077,0.92241,-0.24435
22.7948,286.7072,0.26756,1.0513,-0.44288
22.8061,286.7172,0.15333,1.1527,-0.47586
22.8151,286.7273,-0.05315,1.1637,-0.3769
22.8194,286.7373,-0.20708,1.03175,-0.28588
22.8314,286.7473,-0.37813,0.56872,-0.24679
22.8397,286.7572,-0.43371,-0.19181,-0.27367
22.8515,286.7672,-0.32437,-1.3213,-0.33842
22.8597,286.7772,-0.16493,-2.35977,-0.36041
22.8736,286.7873,-0.011,-3.66641,-0.32376
22.8878,286.7973,0.04581,-4.75742,-0.21136
22.9074,286.8073,0.00794,-5.97609,-0.07208
22.9125,286.8172,-0.05437,-6.87834,-0.00672
22.9163,286.8272,-0.15211,-7.77204,0.00794
22.923,286.8372,-0.22541,-8.29066,-0.00855
22.9414,286.8473,-0.22297,-8.62481,-0.02993
22.9529,286.8573,-0.15027,-8.62175,-0.07086
22.9539,286.8673,-0.04704,-8.15383,0.16127
22.9633,286.8772,-0.0226,-7.35665,0.60842
22.9789,286.8872,-0.29138,-6.76961,1.31458
22.9808,286.8971,-0.52962,-6.65721,2.01036
23.0103,286.9073,-0.81856,-6.82214,2.68781
23.0139,286.9173,-0.90836,-7.16178,2.95476
23.0146,286.9273,-0.84116,-7.85206,2.81548
23.027,286.9373,-0.58521,-8.73171,2.29074
23.0324,286.9472,-0.18021,-9.70604,1.50762
23.0396,286.9572,0.31398,-10.37371,0.94745
23.0644,286.9672,0.8436,-10.41464,0.32987
23.0656,286.9773,1.26144,-9.93694,-0.03971
23.0756,286.9873,1.65606,-9.1306,-0.06231
23.0815,286.9973,1.93644,-8.52157,0.20036
23.0929,287.0072,2.2938,-7.86489,0.80573
23.1028,287.0172,2.59862,-7.23936,1.43676
23.119,287.0272,2.94254,-6.43363,2.00119
23.1239,287.0382,3.25652,-5.96876,2.24371
23.1359,287.0482,3.56929,-5.78062,2.23393
23.1403,287.0583,3.75926,-5.72564,2.07694
23.1526,287.0683,3.83135,-5.67555,1.85092
23.1617,287.0783,3.78064,-5.59308,1.72081
23.1729,287.0883,3.6768,-5.27177,1.74891
23.1816,287.0982,3.54546,-5.08301,1.86986
23.1939,287.1082,3.31639,-5.10439,1.94744
23.2005,287.1182,3.16734,-5.35423,1.92789
23.2132,287.1283,3.21498,-5.61324,1.80266
23.2202,287.1383,3.42023,-5.73786,1.60108
23.233,287.1483,3.81852,-5.98831,1.25288
23.2431,287.1582,4.27178,-6.28641,0.96517
23.2544,287.1682,4.78979,-6.51549,0.79962
23.2614,287.1782,5.29193,-6.56802,0.72876
23.2751,287.1883,5.73725,-6.36094,0.62614
23.2851,287.1992,5.93517,-6.14164,0.49724
23.3015,287.2093,6.14103,-5.73236,0.40317
23.3032,287.2193,6.30474,-5.31392,0.416
23.3151,287.2293,6.59612,-4.52773,0.49358
23.3215,287.2393,6.8252,-3.87166,0.47892
23.335,287.2492,7.04755,-3.24247,0.1967
23.3425,287.2603,7.15018,-2.55036,-0.17776
23.3639,287.2702,7.0445,-1.8607,-0.59071
23.3678,287.2802,6.77266,-1.38911,-0.86437
23.3807,287.2902,6.34139,-0.78496,-1.09345
23.3842,287.3003,5.96815,-0.20464,-1.2254
23.3971,287.3112,5.41654,0.72937,-1.35184
23.4054,287.3211,5.00238,1.45203,-1.34268
23.4215,287.3313,4.53812,2.40437,-1.11361
23.4284,287.3413,4.19054,3.36159,-0.72876
23.4361,287.3513,3.68779,4.2504,-0.281
23.446,287.3612,3.18444,4.66945,-0.07819
23.4576,287.3712,2.72079,4.83866,-0.0672
23.4659,287.3812,2.31151,4.70549,-0.18815
23.4781,287.3913,2.0073,4.20886,-0.4386
23.4835,287.4013,1.89796,3.6994,-0.66645
23.4973,287.4113,1.85398,3.39641,-0.87476
23.5057,287.4212,1.75929,3.27668,-1.08245
23.5156,287.4312,1.5351,3.01523,-1.56381
23.526,287.4412,1.44775,2.90528,-2.07267
23.5375,287.4513,1.54915,3.0305,-2.51005
23.5452,287.4622,1.6866,3.30112,-2.72996
23.5581,287.4723,1.61207,3.55951,-2.80387
23.5673,287.4823,1.43676,3.44895,-2.8338
23.5782,287.4932,1.23456,3.11114,-3.02562
23.5946,287.5033,1.11422,2.87901,-3.28279
23.5984,287.5133,0.9053,2.66398,-3.65114
23.6078,287.5233,0.58887,2.55281,-3.94619
23.6181,287.5332,0.19731,2.70858,-4.23207
23.627,287.5432,-0.09102,3.05616,-4.34631
23.6381,287.5532,-0.46487,3.6096,-4.40556
23.6504,287.5633,-0.72326,3.87961,-4.4697
23.6613,287.5733,-0.71288,3.74094,-4.58577
23.6676,287.5833,-0.551,3.37808,-4.6554
23.6803,287.5932,-0.19242,2.51371,-4.77758
23.6881,287.6032,0.07514,1.67866,-4.9364
23.7031,287.6132,0.10629,0.80634,-5.23023
23.7108,287.6233,-0.03848,0.37385,-5.45075
23.7254,287.6342,-0.46365,-0.01527,-5.94799
23.7346,287.6452,-0.99143,0.09774,-6.29985
23.7425,287.6552,-1.507,0.54245,-6.20089
23.7506,287.6652,-1.9566,1.00976,-5.80505
23.7591,287.6753,-2.25287,1.49357,-5.12027
23.7681,287.6853,-2.30541,1.60108,-4.51552
23.7803,287.6953,-2.19789,1.36589,-4.02377
23.7889,287.7052,-2.1252,1.02809,-3.76476
23.7997,287.7152,-2.11787,0.34941,-3.56867
23.8073,287.7252,-2.17835,-0.30299,-3.49598
23.8191,287.7353,-2.20461,-0.78618,-3.53447
23.8272,287.7453,-2.19301,-0.93646,-3.6432
23.8395,287.7553,-2.12459,-0.90897,-3.82402
23.8505,287.7652,-2.04396,-0.7929,-3.95169
23.8627,287.7752,-1.90712,-0.56505,-4.16916
23.8696,287.7863,-1.82099,-0.38301,-4.37135
23.8893,287.7962,-1.8442,-0.00244,-4.67434
23.8965,287.8062,-2.01524,0.47098,-4.92968
23.9249,287.8162,-2.34817,1.07879,-5.13616
23.9305,287.8263,-2.60717,1.58275,-5.1838
23.9332,287.8361,-2.8619,2.41597,-5.08973
23.9368,287.8463,-2.91688,2.77333,-5.0317
23.9459,287.8562,-2.9181,2.9181,-4.96389
23.9502,287.8662,-2.84297,2.66459,-4.92052
23.9674,287.8762,-2.70797,2.19667,-4.82522
23.9692,287.8863,-2.61267,1.77212,-4.66762
23.9841,287.8963,-2.58885,1.40499,-4.36952
23.9901,287.9063,-2.64138,1.26144,-4.08241
24.0009,287.9162,-2.73607,1.23761,-3.65908
24.0092,287.9273,-2.86129,1.36712,-3.2944
24.0216,287.9373,-3.047,1.59619,-2.93582
24.0299,287.9472,-3.29134,1.92423,-2.68292
24.0414,287.9572,-3.66153,2.4062,-2.5638
24.0494,287.9672,-4.1435,2.91505,-2.6145
24.0638,287.9773,-4.65357,3.38908,-2.79226
24.0693,287.9873,-5.03597,3.77881,-2.97064
24.0867,287.9973,-5.36156,4.25284,-3.0696
24.0903,288.0072,-5.55399,4.57172,-3.01584
24.1023,288.0172,-5.81177,4.78002,-2.80509
24.1137,288.0272,-6.04573,4.73543,-2.62061
24.1222,288.0373,-6.26076,4.38601,-2.53509
24.13,288.0473,-6.32001,3.90282,-2.58824
24.149,288.0573,-6.11904,3.24003,-2.74584
24.1525,288.0672,-5.78428,2.90772,-2.81426
24.1658,288.0772,-5.19113,2.44224,-2.79654
24.176,288.0872,-4.82034,2.02624,-2.70064
24.1857,288.0973,-4.32554,1.32619,-2.55953
24.1914,288.1073,-3.97368,0.75198,-2.44346
24.202,288.1173,-3.73055,0.14722,-2.36649
24.2106,288.1283,-3.56257,-0.34086,-2.3445
24.2419,288.1383,-3.30417,-0.67745,-2.34756
24.2534,288.1483,-3.09159,-0.65057,-2.26387
24.2542,288.1582,-2.7776,-0.3879,-2.10932
24.2556,288.1682,-2.58457,-0.19364,-2.00486
24.268,288.1792,-2.44652,-0.0281,-1.95294
24.2728,288.1903,-2.35244,-0.05742,-1.89307
24.2852,288.2003,-2.02074,-0.22358,-1.81366
24.2925,288.2102,-1.52228,-0.40195,-1.73791
24.3078,288.2202,-0.62797,-0.72754,-1.61696
24.3128,288.2302,0.43738,-1.23578,-1.40377
24.3265,288.2403,1.82465,-1.75624,-0.86621
24.3331,288.2503,2.80754,-1.91445,-0.27672
24.345,288.2601,3.61205,-1.79717,0.46242
24.3542,288.2702,3.79836,-1.39583,1.00121
24.3695,288.2802,3.59494,-0.75747,1.46363
24.3734,288.2902,3.30967,-0.3769,1.70004
24.3895,288.3003,2.91749,-0.16921,1.78922
24.3938,288.3103,2.71407,-0.24007,1.70309
24.4099,288.3203,2.61634,-0.49358,1.47952
24.4142,288.3302,2.70064,-0.72449,1.21379
24.4292,288.3402,2.88512,-0.97555,0.95234
24.4403,288.3513,3.09587,-1.22295,0.81978
24.4504,288.3612,3.15512,-1.28587,0.84544
24.4553,288.3712,3.02195,-1.17958,0.92424
24.466,288.3812,2.74156,-1.07146,1.00304
24.4745,288.3922,2.44346,-1.04336,1.07268
24.4867,288.4022,2.21378,-1.07085,1.11605
24.4944,288.4123,2.11054,-1.21868,1.09895
24.5215,288.4223,2.05434,-1.50884,0.98899
24.5388,288.4322,2.07389,-1.7654,0.80023
24.5476,288.4422,2.13925,-1.97859,0.5736
24.5506,288.4522,2.16491,-1.92361,0.43433
24.5531,288.4633,2.07877,-1.62979,0.3653
24.5573,288.4732,1.87352,-1.41293,0.36835
24.5711,288.4832,1.55282,-1.25472,0.39279
24.5821,288.4932,1.30175,-1.10994,0.39218
24.5892,288.5033,1.0232,-0.8546,0.37202
24.6,288.5133,0.96272,-0.76114,0.38851
24.6072,288.5233,1.03053,-0.62369,0.47281
24.6154,288.5332,1.07879,-0.46365,0.61575
24.6308,288.5432,0.99876,-0.3824,0.87293
24.6353,288.5532,0.81245,-0.29688,1.23456
24.6505,288.5633,0.59071,-0.17226,1.73302
24.6563,288.5733,0.45693,-0.11301,2.23088
24.677,288.5833,0.37874,-0.22724,2.66765
24.6807,288.5932,0.38423,-0.44715,2.85702
24.6886,288.6032,0.4667,-0.69211,3.06471
24.6958,288.6132,0.54978,-0.68722,3.28462
24.7086,288.6233,0.56994,-0.59193,3.66092
24.7167,288.6333,0.51985,-0.47525,4.03354
24.7384,288.6433,0.34331,-0.13928,4.66579
24.7422,288.6543,0.08796,0.25656,5.28093
24.7554,288.6643,-0.30116,0.79535,5.99992
24.7608,288.6743,-0.68234,1.16125,6.5723
24.7757,288.6853,-1.29015,1.25166,7.43362
24.7845,288.6953,-1.81244,0.8937,8.13734
24.7949,288.7052,-2.34633,0.18815,8.74209
24.8052,288.7152,-2.85641,-0.58215,9.14771
24.8189,288.7262,-3.29684,-1.47768,9.40366
24.8291,288.7362,-3.58822,-1.89796,9.33708
24.8349,288.7462,-3.81485,-2.16857,8.91924
24.8398,288.7563,-3.8851,-2.41719,8.34503
24.8506,288.7663,-3.75193,-2.70491,7.42323
24.8585,288.7763,-3.38908,-2.63161,6.61384
24.8707,288.7863,-2.76905,-2.26936,5.74763
24.8784,288.7962,-2.14841,-1.99509,5.04819
24.8911,288.8062,-1.2315,-1.89368,4.10929
24.9083,288.8162,-0.41233,-1.96699,3.38542
24.922,288.8272,0.44593,-1.91018,2.82159
24.9308,288.8372,0.85216,-1.67011,2.63588
24.9338,288.8471,1.00304,-0.99449,2.4569
24.939,288.8573,0.87659,-0.72143,2.37443
24.9507,288.8673,0.47281,-0.32987,2.1588
24.959,288.8772,0.10324,-0.12523,1.923
24.9707,288.8872,-0.27489,-0.03665,1.50823
24.979,288.8972,-0.45815,-0.17715,1.04397
24.9917,288.9073,-0.49786,-0.55161,0.44532
24.999,288.9173,-0.46304,-0.9108,-0.06903
25.0108,288.9273,-0.41478,-1.36223,-0.73426
25.0191,288.9373,-0.37568,-1.73302,-1.32191
25.0373,288.9472,-0.31765,-2.12459,-1.98959
25.0462,288.9572,-0.24374,-2.28158,-2.40192
25.0536,288.9672,-0.06109,-2.36527,-2.82525
25.0626,288.9772,0.13867,-2.33106,-3.2046
25.0729,288.9882,0.31215,-2.21683,-3.62487
25.0808,288.9983,0.32376,-2.15452,-3.94802
25.0925,289.0083,0.21747,-2.1362,-4.46115
25.1004,289.0183,0.04215,-2.04457,-5.00421
25.1133,289.0282,-0.22419,-1.85825,-5.55826
25.1204,289.0382,-0.49724,-1.57115,-5.83621
25.1475,289.0482,-0.88637,-1.05741,-5.99686
25.1513,289.0583,-1.19668,-0.62858,-5.98892
25.1547,289.0683,-1.46547,-0.32498,-5.91318
25.162,289.0783,-1.67988,-0.28894,-5.89729
25.1808,289.0883,-1.97676,-0.42028,-5.98404
25.1872,289.0982,-2.17285,-0.62858,-6.1001
25.1989,289.1082,-2.34878,-1.15331,-6.29008
25.2005,289.1182,-2.41047,-1.62001,-6.51793
25.2199,289.1283,-2.4514,-1.97371,-6.95837
25.2216,289.1383,-2.4288,-2.09099,-7.38353
25.2345,289.1483,-2.39826,-2.33167,-7.95285
25.2405,289.1582,-2.46179,-2.67926,-8.36458
25.2533,289.1682,-2.6481,-2.91933,-8.66024
25.2623,289.1782,-2.82036,-2.95109,-8.85694
25.2726,289.1883,-3.06349,-2.93521,-9.14526
25.2806,289.1983,-3.24492,-2.64688,-9.46658
25.2971,289.2083,-3.45444,-1.94866,-9.76957
25.3155,289.2182,-3.55462,-1.69515,-9.70237
25.3163,289.2282,-3.62915,-1.86497,-9.26988
25.3254,289.2382,-3.76598,-2.48744,-8.81234
25.3352,289.2483,-4.09463,-3.36648,-8.34625
25.3404,289.2582,-4.33898,-4.02255,-7.80258
25.3558,289.2683,-4.37196,-4.33226,-6.91011
25.3654,289.2782,-4.1661,-4.41106,-6.07383
25.3794,289.2882,-3.56623,-4.48192,-5.28398
25.3824,289.2982,-2.95842,-4.50513,-4.99016
25.3937,289.3083,-2.27547,-3.84601,-4.81545
25.4051,289.3183,-1.74769,-3.37686,-4.57905
25.4143,289.3283,-1.2089,-3.40435,-4.16916
25.4222,289.3383,-1.03725,-3.69024,-3.79958
25.4354,289.3482,-1.03053,-3.83807,-3.38725
25.4405,289.3582,-0.96517,-3.78431,-3.11847
25.4564,289.3682,-0.67623,-3.7049,-2.83991
25.4607,289.3783,-0.26084,-3.95413,-2.70735
25.4757,289.3883,0.42883,-4.36036,-2.89672
25.4815,289.3983,0.89736,-4.50147,-3.19299
25.495,289.4093,1.7599,-4.56255,-3.68657
25.5027,289.4193,2.48439,-4.5259,-4.23146
25.5162,289.4303,3.35854,-4.28339,-5.04086
25.5235,289.4403,3.88083,-3.98528,-5.6615
25.546,289.4513,4.48742,-3.14351,-6.44585
25.552,289.4613,4.88631,-2.66032,-6.83375
25.5608,289.4713,5.17586,-2.55708,-7.00174
25.5702,289.4812,5.28337,-2.65726,-6.97058
25.5814,289.4912,5.25711,-2.58396,-6.79771
25.5845,289.5012,5.30292,-2.32984,-6.56375
25.5997,289.5113,5.62363,-1.9059,-6.33834
25.6068,289.5213,6.0946,-1.43981,-6.21494
25.6173,289.5313,6.93637,-0.78435,-6.09216
25.6247,289.5412,7.54785,-0.5284,-5.87347
25.6366,289.5512,8.15444,-0.40806,-5.41104
25.6465,289.5612,8.45132,-0.2303,-5.00238
25.6615,289.5713,8.75431,0.57971,-4.49108
25.6669,289.5813,8.85022,1.37078,-4.19603
25.6808,289.5912,8.72254,1.95721,-3.85578
25.6858,289.6012,8.42383,1.87963,-3.69085
25.6955,289.6112,7.86794,1.42271,-3.62426
25.7034,289.6212,7.27235,0.82345,-3.65542
25.7169,289.6313,6.51671,0.18387,-3.79958
25.7233,289.6413,5.83376,-0.12462,-4.02743
25.7361,289.6513,5.10867,-0.13561,-4.31027
25.7434,289.6613,4.61387,-0.03604,-4.5149
25.7571,289.671,4.17954,-0.05009,-4.64196
25.7798,289.6812,3.99811,-0.08063,-4.6383
25.7862,289.6912,3.90221,-0.10873,-4.64868
25.7902,289.7013,3.90954,0.09896,-4.74826
25.8,289.7113,3.98834,0.63286,-4.87409
25.81,289.7213,4.10929,1.29809,-4.78796
25.8223,289.7312,4.20581,1.97187,-4.38357
25.8282,289.7412,4.18443,2.4233,-3.95535
25.8386,289.7512,3.96879,3.08609,-3.32189
25.847,289.7613,3.75926,3.52347,-3.0134
25.8606,289.7713,3.45261,3.81058,-2.86984
25.8633,289.7813,3.21865,3.76965,-2.82342
25.8751,289.7912,2.91199,3.59861,-2.74156
25.885,289.8012,2.6145,3.56257,-2.56808
25.9116,289.8112,2.13497,3.80936,-2.14841
25.9157,289.8213,1.71836,4.17282,-1.78495
25.9163,289.8313,1.22295,4.54423,-1.43981
25.9257,289.8413,0.7929,4.54178,-1.38666
25.936,289.8513,0.42761,4.07386,-1.68965
25.9429,289.8612,0.21991,3.59005,-1.96149
25.9558,289.8712,-0.02993,3.36892,-2.15635
25.9628,289.8813,-0.34636,3.66458,-2.14719
25.9757,289.8913,-0.89064,4.67923,-1.90773
25.9844,289.9013,-1.36895,5.58025,-1.69698
25.9972,289.9113,-2.02868,6.45074,-1.51983
26.0118,289.9212,-2.50088,6.70486,-1.57237
26.0183,289.9312,-2.93887,6.54053,-1.96454
26.0234,289.9412,-3.12396,6.43119,-2.31396
26.0444,289.9513,-3.28096,6.53931,-2.5467
26.0478,289.9613,-3.43978,6.86674,-2.61328
26.0548,289.9713,-3.93458,7.32611,-2.83747
26.0667,289.9812,-4.65235,7.66575,-3.05799
26.0784,289.9912,-5.52039,7.88627,-3.15145
26.0869,290.0012,-6.05734,7.78548,-3.10625
26.0998,290.0113,-6.31512,7.36765,-3.10992
26.1049,290.0213,-6.39332,6.97791,-3.18872
26.1162,290.0313,-6.42569,6.67737,-3.22231
26.1304,290.0412,-6.48739,6.50571,-3.1429
26.1365,290.0512,-6.52832,6.37071,-2.9346
26.1467,290.0612,-6.47884,6.35422,-2.74156
26.1591,290.0713,-6.26381,6.26931,-2.4343
26.1665,290.0813,-5.9596,5.9706,-2.05495
26.1768,290.0913,-5.55704,5.52161,-1.63101
26.1839,290.1013,-5.22717,5.22656,-1.53266
26.1962,290.1112,-4.77697,5.105,-1.81855
26.2034,290.1212,-4.3628,5.33163,-2.44041
26.219,290.1312,-3.94802,5.57781,-3.29745
26.2253,290.1413,-3.74216,5.56254,-3.87899
26.2356,290.1513,-3.75255,5.24611,-4.38723
26.2445,290.1613,-3.96879,4.73665,-4.61692
26.2592,290.1712,-4.39945,4.18321,-4.58088
26.2636,290.1812,-4.63463,4.11296,-4.42205
26.2773,290.1912,-4.89608,4.42022,-4.00667
26.287,290.2013,-4.98894,4.92052,-3.54607
26.3003,290.2122,-4.86249,5.5436,-2.97675
26.3069,290.2223,-4.66151,5.90707,-2.72018
26.3182,290.2323,-4.12151,6.06956,-2.40803
26.3277,290.2423,-3.452,5.83254,-2.21194
26.3484,290.2523,-2.67803,5.27788,-2.18934
26.3543,290.2622,-2.18568,4.68473,-2.42758
26.3612,290.2722,-1.79778,3.65542,-2.91444
26.3693,290.2823,-1.66216,2.76783,-3.55646
26.3773,290.2923,-1.62246,2.20339,-4.16182
26.3858,290.3032,-1.65239,1.94438,-4.45076
26.3974,290.3133,-1.72814,1.64262,-4.34936
26.4054,290.3233,-1.60963,1.54915,-3.89304
26.4186,290.3333,-1.3885,1.20463,-3.01523
26.4269,290.3432,-1.20951,0.93585,-2.38115
26.4405,290.3532,-0.9499,0.69944,-1.79289
26.4515,290.3632,-0.71777,0.70677,-1.41721
26.458,290.3733,-0.54611,0.99143,-1.18386
26.4715,290.3833,-0.42577,1.31214,-1.06963
26.4785,290.3933,-0.36224,1.52838,-0.96517
26.4898,290.4032,-0.36408,1.44531,-0.89736
26.4974,290.4132,-0.44043,1.14171,-0.84544
26.5073,290.4232,-0.47892,0.89736,-0.82833
26.5178,290.4332,-0.44043,0.53939,-0.76419
26.5251,290.4433,-0.37996,0.29016,-0.67989
26.5368,290.4533,-0.32865,0.06658,-0.56505
26.5451,290.4633,-0.33353,-0.0391,-0.43005
26.5581,290.4732,-0.35858,-0.13744,-0.19548
26.5675,290.4832,-0.34025,-0.2303,-0.03971
26.5826,290.4931,-0.25351,-0.32498,0.11362
26.5923,290.5033,-0.10507,-0.30238,0.10751
26.6022,290.5133,0.06292,-0.24557,0.06842
26.6148,290.5233,0.19487,-0.16921,0.09713
26.6255,290.5343,0.29077,-0.01588,0.19853
26.6318,290.5452,0.31643,0.08919,0.34086
26.6414,290.5553,0.32193,-0.02443,0.45448
26.6501,290.5653,0.34086,-0.19487,0.50946
26.6599,290.5753,0.42761,-0.4948,0.52534
26.6712,290.5852,0.56872,-0.79412,0.45754
26.6797,290.5952,0.7141,-0.9334,0.30849
26.6871,290.6052,0.70555,-0.8375,0.20708
26.6999,290.6153,0.55405,-0.59804,0.15638
26.7078,290.6253,0.35369,-0.36957,0.17104
26.7199,290.6353,0.12584,-0.06414,0.23518
26.7278,290.645,0.01649,0.16188,0.2865
26.7416,290.6552,-0.01344,0.37568,0.28588
26.7605,290.6652,0.01833,0.3543,0.1967
26.7641,290.6762,0.1124,0.011,0.01038
26.7772,290.6873,0.21319,-0.28833,-0.09224
26.784,290.6972,0.35308,-0.45754,-0.03787
26.7905,290.7072,0.46609,-0.52046,0.08613
26.8072,290.7172,0.52718,-0.59254,0.23213
26.8138,290.7282,0.58887,-0.55222,0.35858
26.8222,290.7382,0.73182,-0.56749,0.43188
26.8331,290.7483,0.84299,-0.61392,0.2474
26.8422,290.7583,0.98471,-0.8039,-0.20159
26.8519,290.7683,1.06474,-0.78435,-0.59437
26.865,290.7782,1.08856,-0.30055,-0.96578
26.8713,290.7882,1.0287,-0.02199,-1.08673
26.8824,290.7982,0.82833,0.02505,-1.13132
26.8914,290.8083,0.61636,-0.15638,-1.21868
26.904,290.8183,0.09285,-0.90408,-1.59925
26.9153,290.8283,-0.33475,-1.63712,-1.97004
26.9229,290.8383,-0.73609,-2.23088,-2.39154
26.9316,290.8493,-0.88759,-2.10015,-2.73668
26.9437,290.8593,-0.63958,-1.27365,-3.00301
26.9539,290.8692,-0.05864,-0.40745,-3.15634
26.9634,290.8792,0.697,0.40317,-3.31517
26.972,290.8892,1.19852,0.9334,-3.39519
26.9856,290.8993,1.67744,1.6249,-3.4294
26.9913,290.9092,1.99142,2.13497,-3.40802
27.0202,290.9193,2.19301,2.40009,-3.45566
27.0215,290.9292,2.22905,2.38787,-3.59861
27.026,290.9392,2.2712,1.90101,-3.8961
27.0374,290.9492,2.34206,1.20035,-4.3292
27.0437,290.9593,2.46118,0.22785,-4.86921
27.051,290.9693,2.57113,-0.34331,-5.11783
27.064,290.9793,2.63772,-0.35613,-5.04697
27.0709,290.9893,2.62489,-0.07391,-4.79712
27.0844,290.9992,2.44835,0.08369,-4.30049
27.093,291.0103,2.22416,0.16432,-4.01644
27.1066,291.0202,1.91506,0.07514,-3.84295
27.1235,291.0313,1.57359,-0.14661,-3.83135
27.1284,291.0412,1.19974,-0.56261,-3.98712
27.1361,291.0512,0.97983,-0.82711,-4.08241
27.1541,291.0612,0.76541,-1.05619,-4.02438
27.1571,291.0713,0.56016,-1.17775,-3.75988
27.1666,291.0813,0.33414,-1.4056,-3.30967
27.1787,291.0922,0.13867,-1.50945,-2.72812
27.1918,291.1023,-0.14478,-1.31825,-1.71531
27.1948,291.1121,-0.4948,-1.01343,-0.58887
27.2077,291.1222,-0.97738,-0.94623,0.47892
27.2144,291.1322,-1.50945,-1.0458,1.12033
27.2262,291.1422,-2.07694,-1.18874,1.55587
27.2342,291.1522,-2.58824,-1.36651,1.82832
27.2483,291.1623,-3.15695,-1.47341,2.04945
27.2545,291.1723,-3.59983,-1.47646,2.29807
27.2676,291.1823,-3.94863,-1.57725,2.474
27.2745,291.1922,-4.11479,-1.73302,2.58763
27.2871,291.2022,-4.12273,-1.89613,2.69025
27.2945,291.2122,-3.97918,-1.87963,2.76722
27.3065,291.2223,-3.86006,-2.04884,2.76233
27.3157,291.2323,-3.9132,-2.2266,2.61878
27.3294,291.2423,-4.02438,-2.29685,2.47889
27.3358,291.2523,-4.16854,-2.22172,2.44407
27.3544,291.2622,-4.33775,-2.08366,2.56686
27.3678,291.2722,-4.43549,-1.89979,2.79532
27.3707,291.2823,-4.52468,-1.66094,3.02439
27.3772,291.2932,-4.56072,-1.61818,3.05127
27.4001,291.3032,-4.53506,-1.97737,2.83686
27.4058,291.3132,-4.52162,-2.28586,2.69147
27.415,291.3242,-4.6157,-3.18505,2.54364
27.4173,291.3343,-4.54972,-3.55829,2.40375
27.4308,291.3443,-4.25101,-3.61388,2.12459
27.436,291.3543,-3.94008,-3.28829,1.90346
27.4484,291.3643,-3.3396,-2.21011,1.64262
27.4561,291.3742,-2.16857,-1.18997,1.4728
27.47,291.3842,-1.35001,-0.40317,1.47463
27.4808,291.3942,-1.11544,0.12339,1.53999
27.4877,291.4043,-1.08978,0.64935,1.70187
27.4961,291.4143,-1.5235,0.4667,1.97309
27.5085,291.4251,-2.41597,0.60292,2.8503
27.5171,291.4353,-3.29317,0.50152,3.41901
27.533,291.4453,-3.96024,0.17226,2.94681
27.5385,291.4552,-4.04576,0.15577,1.7599
27.5495,291.4652,-3.57478,0.25229,0.44899
27.5628,291.4752,-2.94559,0.12584,-0.16432
27.5696,291.4853,-1.92911,-0.24801,-0.49847
27.5793,291.4953,-0.9389,-0.37996,-0.48136
27.5897,291.5053,0.03848,-0.04948,-0.09529
27.6042,291.5153,0.59865,0.55039,0.55833
27.6119,291.5252,0.78191,1.35246,1.40927
27.6176,291.5352,0.64813,2.04273,2.30235
27.6296,291.5452,0.22663,2.96514,3.26752
27.6375,291.5553,-0.3543,2.63588,4.02316
27.6522,291.5653,-1.10444,0.7703,3.93764
27.6585,291.5753,-1.4844,-0.07819,3.08731
27.6762,291.5852,-1.45814,-0.78496,1.49845
27.6871,291.5952,-0.98349,-1.59558,0.07514
27.6911,291.6062,-0.00794,-2.79532,-1.17836
27.7,291.6162,1.16736,-3.79286,-1.87352
27.7197,291.6262,2.66398,-4.17343,-2.23149
27.7281,291.6363,3.50698,-3.463,-1.75807
27.7331,291.6463,4.57294,-3.24675,-1.18447
27.7439,291.6563,5.13799,-3.07021,-0.47281
27.7558,291.6673,5.39394,-3.03844,0.62614
27.7648,291.6773,5.31575,-3.08853,1.46974
27.7809,291.6873,5.15326,-3.28951,2.24554
27.784,291.6972,4.98405,-3.73239,2.88451
27.8013,291.7072,4.78552,-4.53018,3.28523
27.8038,291.7172,4.69878,-5.15387,3.33105
27.8173,291.7273,4.71344,-5.39028,3.07632
27.8264,291.7382,4.72871,-5.51672,2.81731
27.8339,291.7483,4.72993,-5.9315,2.75683
27.8406,291.7583,4.77636,-6.27359,2.80937
27.8533,291.7683,4.90586,-6.4208,2.80754
27.863,291.7782,5.00054,-6.49838,2.76355
27.8735,291.7882,5.03597,-6.78305,2.67376
27.8813,291.7982,4.97122,-7.1795,2.53448
27.8998,291.8083,4.62914,-7.54113,2.11359
27.9064,291.8192,4.16366,-7.42873,1.57481
27.9164,291.8292,3.587,-6.78855,0.99143
27.9248,291.8393,3.11908,-6.10438,0.67134
27.9335,291.8493,2.78616,-5.48435,0.5681
27.9412,291.8593,2.72324,-5.08545,0.63897
27.9575,291.8692,2.78799,-4.824,0.91935
27.9631,291.8792,2.87107,-4.91808,1.34513
27.9735,291.8892,2.76722,-5.01276,1.80511
27.9813,291.8993,2.50821,-5.26627,1.96393
27.9937,291.9093,2.18507,-5.40555,1.78373
28.0013,291.9193,1.93889,-5.44037,1.383
28.0137,291.9292,1.7373,-5.74763,0.84238
28.0212,291.9392,1.70065,-6.19295,0.52901
28.0334,291.9492,1.86253,-6.44096,0.19975
28.0421,291.9593,2.13742,-6.74762,-0.02321
28.0532,291.9693,2.62855,-7.3255,-0.15149
28.0618,291.9793,3.01584,-7.81969,-0.16371
28.0784,291.9893,3.30722,-8.64374,-0.13073
28.0841,291.9992,3.46238,-9.30226,-0.13806
28.1046,292.0092,3.61327,-10.07989,-0.29383
28.1086,292.0193,3.66397,-10.57469,-0.58338
28.1162,292.0293,3.66153,-10.86668,-0.99388
28.1218,292.0393,3.65542,-10.78605,-1.34818
28.1349,292.0493,3.58395,-10.50505,-1.64384
28.1415,292.0592,3.51614,-10.28819,-1.5797
28.154,292.0692,3.46971,-9.75307,-1.28831
28.1665,292.0792,3.43184,-9.08723,-0.967
28.1779,292.0893,3.31761,-7.98034,-0.34025
28.1838,292.1002,3.1991,-7.22715,0.23457
28.2012,292.1103,2.99813,-6.64194,0.81978
28.2029,292.1203,2.80876,-6.31635,1.12582
28.2137,292.1303,2.48011,-6.17951,1.30542
28.222,292.1402,2.15025,-6.33956,1.28893
28.237,292.1502,1.72386,-6.58207,1.03297
28.2438,292.1602,1.29931,-6.69569,0.70494
28.2577,292.1703,0.68173,-6.67187,0.24007
28.2636,292.1803,0.15577,-6.43363,-0.06597
28.2774,292.1903,-0.38362,-6.09216,-0.35064
28.2846,292.2013,-0.65851,-5.68716,-0.45876
28.3027,292.2122,-0.88453,-4.86004,-0.49358
28.3084,292.2223,-0.94318,-4.26628,-0.44593
28.3167,292.2323,-1.04336,-4.05737,-0.40195
28.3244,292.2423,-1.2535,-4.03538,-0.46365
28.3365,292.2523,-1.5687,-4.06775,-0.68173
28.3446,292.2622,-1.8833,-4.04576,-0.9951
28.3566,292.2722,-2.28403,-4.19848,-1.53755
28.3645,292.2823,-2.48989,-4.53445,-1.92728
28.3804,292.2923,-2.60901,-4.98527,-1.93644
28.3864,292.3032,-2.69086,-5.60469,-1.28037
28.3998,292.3133,-2.59068,-6.07689,-0.27
28.4071,292.3233,-2.44041,-6.19967,0.45632
28.4191,292.3333,-2.3109,-5.36156,1.00793
28.4254,292.3432,-2.27792,-3.95169,0.88392
28.4439,292.3532,-2.54792,-2.92482,0.281
28.4516,292.3643,-2.95842,-2.75989,-0.29688
28.4635,292.3742,-3.33105,-3.06105,-0.81367
28.4776,292.3842,-3.52653,-3.33899,-1.11727
28.4798,292.3942,-3.55646,-3.48926,-1.29259
28.4914,292.4052,-3.49659,-3.58578,-1.23089
28.5064,292.4152,-3.37198,-3.7666,-0.90713
28.5094,292.4253,-3.32922,-3.97612,-0.33964
28.5222,292.4353,-3.44406,-4.1606,0.49969
28.5278,292.4453,-3.64503,-4.27239,1.25411
28.5395,292.4552,-3.86128,-4.35547,2.21378
28.5586,292.4652,-3.90037,-4.02194,2.79104
28.5622,292.4752,-3.69696,-3.01218,2.95414
28.5687,292.4853,-3.33044,-1.72631,2.69025
28.5797,292.4953,-2.71713,-0.72937,2.22844
28.5876,292.5053,-2.21622,-0.78435,2.08122
28.5996,292.5153,-1.85947,-0.8601,2.10321
28.6075,292.5252,-1.87658,-0.53695,2.21927
28.6204,292.5352,-2.27303,-0.08369,2.41658
28.6292,292.5462,-2.89978,-0.32193,2.50149
28.6453,292.5562,-3.27424,-0.28039,2.49905
28.6507,292.5672,-3.32616,0.10446,2.46484
28.6651,292.5783,-3.14412,0.69639,2.44896
28.6715,292.5882,-2.89917,0.86804,2.50333
28.6843,292.5982,-2.46851,0.8491,2.64871
28.6931,292.6093,-2.15574,0.6579,2.68536
28.7107,292.6192,-2.04884,0.416,2.55953
28.7219,292.6292,-2.02196,0.10324,2.44041
28.7256,292.6392,-2.10077,-0.0507,2.36222
28.7368,292.6492,-2.42086,0.16677,2.5693
28.7444,292.6593,-2.82098,0.64568,3.22537
28.7529,292.6703,-2.95659,1.02625,4.00361
28.7645,292.6803,-2.99385,0.956,4.79224
28.7726,292.6903,-2.92482,0.58399,5.13371
