AppTimestamp(s),SensorTimestamp(s),acc_x,acc_y,acc_z,gyro_x,gyro_y,gyro_z,mag_x,mag_y,mag_z,PitchX,RollY,YawZ,Quat_w,Quat_x,Quat_y,Quat_z
0.0438,263.9115,-1.18992,8.6287,3.16992,-0.39279,-0.18143,-0.15394,23.64,-34.62,-10.26,55.055599,15.336499,110.290031,0.45165961257524295,0.16467185,0.4434987,0.75643617
0.0457,263.9315,-2.41336,9.07163,5.02064,-0.67745,-0.52657,-0.13622,23.7,-34.38,-10.14,54.599121,15.163222,110.129959,0.45480925592543325,0.16422832,0.43984812,0.75677687
0.0475,263.9516,-2.9712,10.02452,5.72693,-0.43005,-1.03481,-0.11668,24.12,-34.5,-10.2,54.004009,14.543065,110.068672,0.4594136863757819,0.16568257,0.43370563,0.75722373
0.0555,263.9715,-2.19069,8.91122,6.82108,-0.40867,-1.1753,-0.10201,24.12,-34.68,-10.2,53.613064,13.385701,109.881042,0.466178015690748,0.17214121,0.4263891,0.75580275
0.075,263.9915,-0.62249,7.33344,6.10761,-0.81001,-0.25107,0.02321,23.22,-34.38,-10.92,53.07674,12.268353,109.956917,0.4713787200779627,0.17665292,0.41866565,0.75585377
0.1013,264.0116,-0.38068,8.27436,4.9153,-1.19485,0.31276,-0.13622,23.46,-34.44,-11.64,52.137085,11.931175,110.335213,0.4728038320706597,0.17301175,0.41207945,0.75941688
0.1218,264.0315,-2.6408,7.93438,4.19943,-1.43309,0.11118,-0.22174,23.34,-34.14,-12.48,50.883587,12.307389,110.413254,0.474494631367612,0.16422801,0.40599218,0.76357996
0.1381,264.0515,-5.72454,7.69736,6.9791,-1.248,-1.20951,0.10934,22.86,-33.72,-12.96,49.384518,12.468287,110.271942,0.4790709497726554,0.15642968,0.39713535,0.76700997
0.1542,264.0716,-4.89135,9.21528,6.84023,-0.59804,-1.72081,0.46487,23.16,-33.12,-13.86,48.38168,11.020363,110.594757,0.4845745667858249,0.16020545,0.38519526,0.7688604
0.1741,264.0915,-4.80995,11.00854,6.90248,-0.34514,-1.62612,0.3543,22.98,-32.7,-15.12,48.119473,9.185451,110.925377,0.4891338049435346,0.17016451,0.37621069,0.76828229
0.1951,264.1115,-5.81552,10.25197,7.22091,-0.56688,-1.81977,0.24801,22.86,-32.1,-15.84,47.93116,7.841669,110.808868,0.49475387273241606,0.17865063,0.36905992,0.76622277
0.2142,264.1315,-5.60004,8.47308,14.35324,-0.21258,-1.2199,0.31215,22.98,-32.16,-17.16,47.269825,6.280698,110.624527,0.5025244329038729,0.18654832,0.35771877,0.76466084
0.2342,264.1515,-6.46434,5.28879,14.55914,0.69394,0.51252,0.551,22.44,-32.4,-18.42,47.049526,5.765541,110.68145,0.5042577425630553,0.18877484,0.35412487,0.76464617
0.2583,264.1715,-6.01423,4.92727,16.34521,1.62307,1.12338,1.18691,21.3,-32.34,-18.9,48.15947,5.670245,111.670593,0.4953790640862996,0.19148117,0.36254251,0.76583123
0.2743,264.1915,-2.17872,4.07254,13.15853,2.63161,2.52104,1.48318,20.46,-33.06,-18.6,50.307423,6.043648,113.436325,0.4772969835106259,0.19303346,0.38102341,0.76794976
0.2945,264.2114,0.0814,4.09169,6.62715,2.94987,2.75134,1.24494,19.56,-33.6,-17.64,52.600285,8.021269,114.905548,0.45500078445150344,0.18493316,0.40630645,0.77051222
0.3142,264.2315,-0.70629,3.03585,2.54743,2.58396,2.04457,1.01159,19.26,-34.5,-15.9,55.032036,10.341355,115.750069,0.4344343342666494,0.17698455,0.43217152,0.77017599
0.3341,264.2515,-1.41497,1.42694,2.93769,1.96454,1.37689,1.18569,19.38,-36.12,-13.5,56.863136,11.920811,116.355026,0.41917612284908007,0.17209962,0.45050597,0.76923174
0.354,264.2715,0.33998,0.84036,4.01268,1.52167,1.48318,1.47463,19.32,-37.32,-11.34,57.953747,12.063712,117.911652,0.40502756647166704,0.16969036,0.46017629,0.77161884
0.3744,264.2915,3.0574,1.64003,4.07254,0.96272,1.85214,1.52228,19.5,-38.4,-9.0,58.5583,10.972885,120.982399,0.3869695400047094,0.16721131,0.4647508,0.77865374
0.3972,264.3115,5.19063,2.75812,3.60088,0.34941,2.39337,1.44164,18.9,-39.12,-6.78,58.709648,9.025605,125.334961,0.36469300724219905,0.16346428,0.46562555,0.78960198
0.4162,264.3315,6.0717,3.52666,2.59771,-0.29505,2.55158,1.29565,18.12,-39.12,-5.28,58.415314,6.78169,130.482208,0.3387038616462196,0.15712596,0.46396613,0.8033222
0.4355,264.3515,6.48589,4.12042,2.47082,-0.82039,2.39704,1.10261,17.1,-39.54,-3.9,57.617374,4.259034,135.830704,0.3126228866839492,0.15088204,0.45846343,0.81811541
0.454,264.3715,6.70855,4.29041,3.63919,-1.22906,2.25593,0.9896,16.32,-40.02,-2.76,56.285133,1.813285,140.837006,0.28845632374770414,0.14491256,0.44900906,0.83317715
0.4742,264.3916,6.75883,5.00388,4.75249,-1.19852,2.13925,0.88148,15.66,-40.8,-2.22,54.580845,-0.284762,145.312958,0.26600633631218645,0.13878679,0.43699536,0.84794688
0.494,264.4115,7.78355,7.18021,4.51546,-0.99143,1.68232,0.74037,15.36,-41.7,-2.16,53.122566,-2.076623,149.208054,0.24524052486681025,0.13432163,0.42673421,0.86006552
0.5169,264.4315,9.29669,8.85855,3.72298,-0.96639,1.21257,0.32803,14.82,-41.82,-2.7,52.052856,-3.943894,152.495987,0.22815205379515588,0.13428061,0.4186044,0.86872649
0.5366,264.4516,8.54012,9.30866,3.16992,-1.15148,0.91996,-0.0672,14.1,-41.76,-3.78,51.111629,-5.447467,154.75473,0.21693028745718237,0.13599961,0.4111194,0.87488639
0.5545,264.4715,7.434,10.26634,3.8403,-1.28954,0.15944,-0.20097,13.68,-41.7,-4.14,50.098183,-6.600181,156.068222,0.21136084030257507,0.13865465,0.40269545,0.87973738
0.5802,264.4915,6.4404,12.23676,8.44674,-0.92363,-0.97189,-0.22907,13.44,-41.58,-4.32,48.970783,-8.118678,156.767273,0.2115276297223667,0.14634928,0.39198148,0.88328278
0.597,264.5116,6.31351,14.11861,10.32859,0.02566,-1.43676,-0.32987,13.44,-41.46,-5.16,48.35667,-9.904249,156.787964,0.2174800502569893,0.15923215,0.38386315,0.88317418
0.6171,264.5315,5.70299,14.59266,7.21373,0.35491,-1.7654,-0.51129,13.92,-41.64,-5.64,48.615196,-11.166921,156.082687,0.22712167112255893,0.17163436,0.38241804,0.87904143
0.634,264.5515,5.34386,14.70279,7.3502,0.17959,-2.35366,-0.56566,13.92,-41.46,-6.42,49.079979,-12.748807,155.172363,0.23937727991531096,0.1873665,0.38139907,0.87299889
0.6539,264.5716,4.73813,15.06432,9.55765,0.50335,-2.60595,-0.61087,13.56,-41.16,-7.5,49.488903,-14.886681,154.16951,0.25412950206274965,0.20744133,0.37824857,0.86562943
0.6739,264.5915,3.87861,14.75068,8.73644,1.0794,-2.76417,-0.6182,13.92,-40.92,-7.38,50.391914,-17.355434,153.326248,0.2688372662714553,0.22991784,0.37799993,0.85555851
0.694,264.6115,3.97198,13.95101,7.29513,1.33474,-2.77944,-0.7086,13.86,-40.74,-7.5,51.893589,-20.22156,152.789902,0.28288732797747146,0.25474942,0.38152274,0.84232885
0.7152,264.6315,4.44843,13.56315,6.11719,1.31458,-2.71469,-0.92668,14.34,-40.62,-7.86,53.634945,-23.083654,152.30011,0.2969571751339896,0.27918476,0.38643077,0.82737148
0.7345,264.6515,4.20422,12.46182,5.99029,1.31886,-2.73423,-1.38056,14.64,-40.74,-7.68,55.498951,-25.581602,151.379517,0.31320027851502225,0.3020798,0.39153534,0.81077337
0.7539,264.6715,3.41653,10.66856,5.21936,1.18264,-2.55586,-1.83015,14.76,-40.92,-7.62,57.58987,-27.389132,149.697296,0.33261022540633267,0.3225767,0.39748824,0.79203397
0.7767,264.6916,1.30005,8.34379,4.9943,0.97128,-2.57846,-2.13986,15.18,-40.92,-7.08,59.752159,-28.09503,146.985703,0.35493173640704995,0.3390969,0.40351093,0.77215004
0.7945,264.7115,-0.03591,6.34224,7.07008,1.03114,-2.50577,-2.16979,15.6,-40.74,-6.48,61.700356,-27.87307,143.324585,0.3793845366973712,0.35285461,0.40737247,0.75206959
0.8139,264.7315,-0.84515,4.97036,6.67982,1.28221,-2.21744,-2.07144,16.26,-40.44,-6.36,63.547642,-26.797773,139.095291,0.40330388425573827,0.36357149,0.41110715,0.73222446
0.8343,264.7515,-1.58257,3.86903,5.25767,1.40194,-2.11115,-1.93522,17.16,-39.96,-6.24,65.389091,-25.106234,134.672546,0.42485604992397213,0.37194523,0.41605577,0.71277744
0.854,264.7715,-2.06859,3.06458,3.73735,1.38483,-2.12887,-1.7483,18.42,-39.36,-6.36,67.117233,-22.848114,129.865494,0.445245610723732,0.3790755,0.420872,0.69348747
0.874,264.7915,-2.37505,2.52588,1.98719,1.24067,-2.38176,-1.64873,19.92,-38.64,-5.82,68.66465,-20.09411,124.536674,0.46545923809409856,0.385934,0.42451736,0.67393446
0.8942,264.8115,-3.51708,2.03507,1.46525,0.97005,-2.74095,-1.51617,20.88,-38.16,-5.22,70.007721,-16.445763,118.026215,0.48771279695824005,0.39272696,0.42639485,0.65275508
0.9144,264.8315,-4.1276,1.79086,1.98,0.65546,-2.94254,-1.24739,21.78,-37.74,-4.8,71.215462,-14.11085,112.436722,0.5080819129654239,0.40428948,0.42473891,0.63087213
0.9339,264.8515,-4.62081,2.08296,2.41575,0.29871,-2.75439,-1.04091,22.74,-37.26,-4.8,72.017616,-12.130288,107.140274,0.5276619595662992,0.41593724,0.41961929,0.61031854
0.9552,264.8715,-4.2545,2.86107,2.34392,-0.29138,-2.13436,-0.92485,23.34,-36.9,-5.34,72.230064,-9.416517,101.53746,0.5466681913247212,0.42287755,0.4130775,0.59303916
0.9762,264.8915,-4.71179,3.66073,1.1971,-0.98533,-1.60535,-1.01526,24.42,-36.3,-6.0,71.697838,-5.050829,95.01252,0.5660395116982592,0.42156282,0.4072842,0.57965821
0.9939,264.9115,-6.41646,4.20422,3.0143,-1.60413,-1.47585,-1.08917,24.66,-35.64,-6.9,69.97892,2.266523,86.141197,0.5906163478275231,0.40774786,0.40335172,0.56764549
1.0139,264.9315,-8.04691,4.66391,5.22415,-1.94683,-0.80146,-0.98166,24.66,-35.1,-8.1,67.25531,8.214907,78.981964,0.6157030270446964,0.38834947,0.39731017,0.55878359
1.0367,264.9516,-9.25119,5.70299,5.63116,-2.35366,0.12034,-0.83689,24.9,-34.62,-9.96,64.001556,12.928364,74.080681,0.6366742664756776,0.36279619,0.39339739,0.55521464
1.0541,264.9715,-10.87686,6.14592,7.32386,-2.78005,0.67195,-0.64752,24.96,-33.72,-12.12,60.191658,16.760645,71.177025,0.6535421588380154,0.33004946,0.39124948,0.55756062
1.0738,264.9915,-11.78426,6.5673,10.79306,-2.67192,1.21318,-0.18021,25.68,-32.82,-13.5,56.018631,19.470545,70.146255,0.6665229143164783,0.29302201,0.38814691,0.56500202
1.0942,265.0116,-11.63343,8.1355,12.33253,-2.17957,2.01586,0.38362,26.16,-31.74,-14.76,52.532845,21.161396,70.935547,0.6707787109550774,0.25875601,0.38652548,0.57766712
1.1146,265.0315,-11.1091,9.14585,10.4052,-1.94072,2.72263,0.85277,26.52,-30.54,-15.78,50.50267,21.920811,73.495621,0.6629650015464887,0.23269707,0.38836014,0.59624314
1.134,265.0515,-8.78433,11.08994,9.68694,-1.96576,2.79471,1.17958,27.06,-29.7,-16.14,48.849468,22.924591,76.627258,0.6492168545566948,0.20579575,0.39321092,0.61769795
1.1547,265.0715,-4.92727,13.32852,11.59272,-1.69759,2.90711,1.37567,27.66,-28.74,-16.8,47.371563,23.717245,80.09227,0.6329639321081043,0.17988418,0.39701438,0.63982648
1.1757,265.0915,-0.97205,15.85919,10.80982,-1.14904,2.84969,1.1411,28.02,-28.74,-16.8,46.365917,24.762104,83.420593,0.6141177263445007,0.15590344,0.40297943,0.66042495
1.1938,265.1115,-1.09654,15.72751,9.51695,-0.72326,2.63283,0.81062,28.62,-28.62,-16.26,45.809834,26.323658,85.852341,0.5964216913069788,0.13465026,0.41169006,0.67576754
1.215,265.1316,-1.98719,15.19839,8.8346,-0.40012,2.53448,0.84788,29.04,-29.04,-15.54,45.578079,28.135292,87.582596,0.5804008428330144,0.1161415,0.42177749,0.68684042
1.2356,265.1515,-1.46286,15.35402,8.45153,-0.06964,2.40742,1.00671,28.92,-29.16,-14.82,45.749634,29.917473,89.194817,0.5633773938160767,0.10042967,0.43302289,0.69642729
1.2546,265.1715,-0.84994,14.90151,7.77158,0.42455,1.92606,1.01098,29.16,-29.58,-13.8,46.380116,31.555027,90.661362,0.545720920291099,0.08865781,0.44520468,0.70435876
1.2742,265.1915,-1.59214,12.7994,7.26161,0.97311,1.20402,0.94134,29.22,-30.12,-12.66,47.525288,32.904118,91.613304,0.5300407906609701,0.08354158,0.45776758,0.70889097
1.2967,265.2115,-3.17232,10.08917,7.9703,1.47157,0.71654,1.00548,28.98,-30.06,-11.4,49.158672,33.876163,91.949493,0.5174503140374322,0.08603696,0.47023579,0.70973313
1.3149,265.2315,-3.34231,7.89847,8.16902,1.99875,0.96333,1.14598,28.98,-31.08,-10.08,51.371922,34.565392,92.028503,0.5049456327471366,0.09478872,0.48371634,0.7085644
1.3381,265.2515,-3.15077,5.9472,5.46596,2.1985,1.3549,1.26938,28.32,-31.98,-8.22,53.9991,35.527859,92.040825,0.48955083751146783,0.10460158,0.49987379,0.7067706
1.3536,265.2714,-2.62644,4.50589,3.08134,1.92789,1.51495,1.43614,27.72,-32.94,-6.18,56.67569,36.934639,92.044662,0.471494905448132,0.11199695,0.51758295,0.70516461
1.3738,265.2915,-1.96325,3.89776,1.80044,1.46119,1.51739,1.60291,27.54,-34.32,-4.32,59.077869,38.042946,92.57914,0.4522196290729231,0.11710945,0.53285593,0.70558298
1.3937,265.3115,-0.65122,4.61123,2.04465,0.79229,1.49479,1.63468,26.94,-35.4,-2.58,61.148277,38.221958,94.165947,0.43199877269313786,0.12083887,0.54392064,0.70917231
1.4136,265.3314,0.56743,5.06852,3.31358,0.40867,1.51983,1.42087,26.76,-36.12,-1.02,62.648998,37.182915,97.024452,0.4122052970463589,0.12241682,0.54953945,0.71631509
1.4336,265.3515,0.65841,4.80277,3.57694,0.29932,1.52228,1.13132,25.92,-36.72,0.24,63.683659,35.714924,100.281944,0.39403300116434664,0.12186696,0.55242449,0.72437119
1.454,265.3715,-0.1221,3.52187,3.33512,0.2529,1.62185,1.01281,24.9,-37.08,1.56,64.366776,34.358944,103.401329,0.377675267114872,0.11919886,0.55428189,0.73206872
1.4739,265.3916,-0.40701,2.28646,1.72622,0.01772,1.91567,1.13315,23.76,-37.86,3.3,65.052002,33.817322,105.981018,0.3607119853983167,0.11384226,0.55841088,0.73831165
1.4945,265.4115,-0.0407,1.85072,-0.37828,-0.63163,1.96332,1.37994,22.44,-38.22,3.96,65.702805,33.423138,108.872986,0.34106776762199936,0.10566443,0.56313711,0.74524117
1.5152,265.4315,2.03028,3.10528,0.48363,-1.42209,1.76784,1.42515,21.66,-38.64,4.44,65.786438,31.491131,113.425232,0.3203658852028959,0.09640044,0.56199628,0.75646073
1.5352,265.4525,3.18189,3.60567,2.22661,-1.91751,1.91201,1.1863,20.22,-39.36,4.8,64.962463,28.459051,119.12693,0.3004135890048336,0.08492122,0.55385309,0.77187228
1.5569,265.4726,2.76291,2.99754,1.04627,-2.33412,2.02807,1.06779,19.74,-39.72,4.56,63.535332,26.091391,124.244324,0.2822296463607157,0.07018046,0.54310107,0.78769433
1.575,265.4925,2.73418,3.41892,1.5682,-2.83258,1.62551,1.21012,18.78,-40.14,3.9,61.50013,23.854902,129.296844,0.26453410734935145,0.05368403,0.5281294,0.80512053
1.5947,265.5125,4.83389,5.59764,4.40773,-2.75317,1.14354,1.11972,17.76,-40.62,3.48,59.223755,19.713976,135.646362,0.2449910308781304,0.04594027,0.5069927,0.82512259
1.6154,265.5326,5.4516,7.00065,5.20499,-2.36283,0.79168,0.72693,17.22,-40.92,2.22,57.034679,14.760896,141.96846,0.22594260004229863,0.04755743,0.48440835,0.84382272
1.6361,265.5525,5.54018,8.09001,5.02782,-2.23271,0.48869,0.51374,15.84,-40.86,0.36,54.990055,10.963623,146.511826,0.21215489773665833,0.05125124,0.46448869,0.85826212
1.6547,265.5725,6.19619,9.46189,6.09085,-2.11237,0.14844,0.26023,15.48,-40.92,-1.26,52.913403,7.804021,149.973007,0.20209610892288726,0.05629947,0.44509786,0.87056041
1.6746,265.5925,6.29675,10.47942,7.33344,-1.78006,-0.36652,-0.00977,14.76,-40.56,-3.42,50.938251,5.137661,152.314819,0.1970731507883074,0.06349361,0.42679697,0.88032669
1.6962,265.6125,5.91847,11.73638,8.76996,-1.38605,-0.92607,-0.21869,14.76,-40.26,-4.74,49.287655,2.692769,153.682907,0.19731400148276493,0.07410115,0.41077757,0.88703889
1.7148,265.6325,5.67186,12.52646,10.33816,-0.97983,-1.25411,-0.50885,14.52,-40.26,-6.3,48.028599,0.327181,154.254517,0.20236889811805756,0.08812326,0.39731589,0.89074194
1.7346,265.6525,5.76045,12.45224,11.3964,-0.71593,-1.14171,-0.77458,14.28,-40.14,-7.56,47.000069,-0.546934,153.263748,0.21387932781308117,0.09645095,0.38692892,0.89176166
1.7547,265.6725,4.77643,12.23676,11.68849,-0.46731,-0.84788,-1.02014,14.58,-40.2,-8.76,46.253574,-0.740251,151.725189,0.22707535140025462,0.10169148,0.37941229,0.89114642
1.78,265.6925,3.61046,11.70286,11.39879,-0.06781,-0.83505,-1.07818,14.28,-40.2,-10.38,45.813347,-0.445827,149.900482,0.24064158196611404,0.10452704,0.37494746,0.88914573
1.7948,265.7125,2.63123,11.32457,10.1179,0.52351,-1.19302,-1.05313,14.58,-39.66,-11.34,45.901157,-0.192104,148.046265,0.2540889712132187,0.10881384,0.3744494,0.88509095
1.8199,265.7325,2.19788,10.87207,9.06445,1.02503,-1.86742,-1.00671,15.06,-39.36,-11.76,46.643627,-0.462714,146.228195,0.2682616773996517,0.1185416,0.37774596,0.87823206
1.8359,265.7525,2.48758,10.05804,9.22007,1.33596,-2.27364,-0.9841,15.24,-39.06,-11.7,47.91787,-1.518535,144.478882,0.28385672413052376,0.13539262,0.38299987,0.86856508
1.8549,265.7725,2.35829,9.15303,8.32224,1.52289,-2.30785,-1.02809,15.66,-38.52,-11.1,49.528728,-3.242307,142.982376,0.29937937061250675,0.15728304,0.38890639,0.85696316
1.8754,265.7925,2.05183,8.55927,6.45477,1.41599,-2.21988,-1.02503,16.2,-38.7,-10.56,51.244831,-5.146669,141.642059,0.3142536353577848,0.18015744,0.3947255,0.84438127
1.897,265.8125,2.12605,8.82742,5.96874,1.14293,-2.23516,-1.13377,16.44,-38.7,-10.38,52.796326,-6.820904,140.207031,0.32916553432458145,0.20114605,0.39919284,0.83176643
1.9174,265.8325,1.96085,8.37252,6.37576,1.0006,-2.12703,-1.35918,16.62,-38.82,-10.2,54.101768,-8.129256,138.389328,0.345674769494429,0.22014049,0.40163457,0.81898522
1.9357,265.8526,1.35991,7.51779,6.0717,0.89553,-1.91445,-1.50151,17.28,-39.42,-9.9,55.288147,-8.786158,136.054642,0.3634370314951521,0.23601973,0.4036223,0.80578983
1.9553,265.8725,1.25935,7.15387,5.62877,0.80268,-1.80816,-1.60291,17.88,-39.66,-9.48,56.346527,-8.889161,133.402237,0.38122314637000754,0.2489254,0.40531456,0.79273272
1.9758,265.8925,0.75896,6.54335,4.96079,0.74648,-1.83809,-1.75624,18.42,-39.36,-9.12,57.32481,-8.528891,130.3797,0.3995493318878523,0.25993502,0.40679348,0.77930301
1.9968,265.9126,-0.07661,5.65271,4.80037,0.70983,-1.93278,-1.81977,19.62,-39.06,-9.24,58.194115,-7.772287,126.909065,0.41909241565193733,0.26980507,0.40755928,0.76515502
2.016,265.9325,-0.68714,5.09007,4.48913,0.6915,-1.95599,-1.85031,19.74,-38.7,-9.6,58.953159,-6.738577,123.095253,0.43946722816553163,0.27901354,0.40750888,0.75030428
2.0367,265.9525,-1.4054,4.43167,3.97437,0.62797,-1.99142,-1.8326,20.04,-37.38,-10.32,59.566242,-5.316626,118.913216,0.46043122865389347,0.28682414,0.40687913,0.73497236
2.0689,265.9726,-1.98958,3.9217,3.632,0.55405,-2.05923,-1.72264,20.4,-36.72,-10.5,60.013344,-3.600828,114.42717,0.48190659183668505,0.29354811,0.40549192,0.71914661
2.0806,265.9936,-2.38702,3.66792,3.23935,0.53878,-2.16307,-1.53633,20.94,-36.12,-10.44,60.333389,-1.756251,109.706482,0.5039465159148747,0.30008587,0.40322265,0.70242286
2.1016,266.0134,-2.35829,3.68946,2.8922,0.62308,-2.35305,-1.37811,22.5,-34.92,-10.38,60.583378,-0.149083,105.342857,0.52411591733098,0.30675507,0.40040463,0.68620694
2.1161,266.0335,-2.18112,3.73974,2.04465,0.562,-2.40131,-1.38666,23.16,-34.86,-10.08,60.991325,1.103797,101.172722,0.5432833502304575,0.3157748,0.39731634,0.66878188
2.1359,266.0535,-3.63919,3.3854,1.51074,0.14722,-2.18507,-1.44042,23.58,-34.62,-10.62,61.366287,2.40374,97.003906,0.5616909671002497,0.32453039,0.39406425,0.65107346
2.1559,266.0735,-5.39414,2.82276,1.92254,-0.47403,-1.69026,-1.32252,23.88,-34.02,-11.28,61.114647,4.578691,92.381363,0.580988681672326,0.32684106,0.39040551,0.63498867
2.1764,266.0935,-6.14113,2.89459,2.1069,-1.25838,-0.96883,-1.09528,23.4,-33.84,-12.24,59.946072,8.112247,87.312019,0.6007727439849606,0.31824949,0.38834965,0.62207228
2.1983,266.1135,-7.05332,3.84269,2.93769,-2.06045,-0.34453,-0.99082,24.0,-32.82,-13.74,57.741085,11.849612,83.031921,0.6191708705336549,0.29968402,0.38600975,0.61466527
2.2159,266.1335,-9.1243,3.62003,4.01747,-2.60717,-0.10018,-0.81612,24.78,-31.86,-14.64,54.570408,15.325405,79.802773,0.6364944364149416,0.27251923,0.38234699,0.61189777
2.2365,266.1535,-10.00058,3.44526,5.95677,-2.99996,-0.13256,-0.24862,25.02,-31.14,-15.9,50.738239,17.758135,78.068733,0.6518026957489592,0.24098371,0.37492919,0.61360264
2.2557,266.1735,-8.80827,5.57849,9.28471,-3.01767,-0.27367,0.1857,25.44,-29.88,-17.46,46.74633,18.582737,78.207474,0.6625816572100285,0.21033868,0.36194643,0.62107807
2.2759,266.1935,-8.39647,7.70454,13.10586,-2.62061,-0.25901,0.40928,25.92,-29.1,-18.54,43.047916,18.367252,79.353462,0.669423609879288,0.18396977,0.3455112,0.6313867
2.296,266.2135,-8.12113,8.41083,15.07389,-2.06228,0.27978,0.62797,26.16,-27.78,-20.52,40.027061,17.999687,80.81823,0.6719401497980382,0.16210507,0.33104366,0.64236164
2.3162,266.2335,-6.99586,9.23683,14.63336,-1.66949,1.13254,0.90836,26.58,-27.0,-21.72,38.131168,17.380449,82.979721,0.6671583222718578,0.14726987,0.32088798,0.65592855
2.3373,266.2536,-6.34942,9.87129,13.23994,-1.34635,1.60047,1.08673,26.76,-26.4,-22.8,36.716774,17.63076,85.234825,0.6575054933344715,0.13055319,0.31777641,0.67056733
2.3561,266.2735,-5.39174,10.07959,12.49773,-1.05374,1.79655,1.32619,26.16,-25.5,-23.4,35.718315,18.283226,87.553566,0.6448094575220056,0.11400033,0.31866726,0.68532902
2.3757,266.2935,-4.20901,10.3645,11.70525,-0.71349,1.83504,1.53327,25.98,-25.56,-23.4,35.167461,19.046682,90.018044,0.6293255413207709,0.09909751,0.32221216,0.70022023
2.3958,266.3136,-3.0574,10.63026,10.91995,-0.39889,1.67499,1.6194,25.56,-24.84,-23.82,35.067799,19.77067,92.532669,0.6120297177849706,0.08689426,0.32762149,0.71451604
2.4185,266.3335,-2.30562,11.35809,11.57596,0.02566,1.40621,1.68477,25.44,-25.08,-23.52,35.369995,20.282717,94.955666,0.5944511287192813,0.07847314,0.33377752,0.72736675
2.4357,266.3535,-2.63602,11.44428,12.23198,0.64446,1.12949,1.6756,25.74,-25.8,-23.16,36.21558,20.554874,97.183456,0.5769856573195657,0.07508833,0.34153154,0.73810941
2.4557,266.3736,-2.69587,10.91517,11.75792,1.20585,1.16248,1.66461,25.56,-26.4,-22.32,37.745895,20.734718,99.066582,0.5598021977486483,0.07695802,0.35258865,0.74590898
2.4757,266.3935,-2.42772,10.08917,10.35013,1.42393,1.30175,1.67499,25.86,-27.9,-21.24,39.78651,21.083433,100.685776,0.5420540590937243,0.08104622,0.36733478,0.75144798
2.4968,266.4135,-2.46124,9.04769,10.06762,1.518,1.37078,1.71714,25.8,-28.5,-20.1,42.026455,21.563145,102.25528,0.5232860170988608,0.08511635,0.38383809,0.7560392
2.5158,266.4336,-2.27689,7.64469,10.00297,1.68416,1.22845,1.76968,25.62,-29.4,-19.14,44.395992,21.961765,103.820869,0.5040729176428097,0.08999339,0.40070629,0.75976717
2.5361,266.4535,-1.22583,6.25844,10.64701,1.93644,1.23334,1.89918,25.08,-30.54,-18.0,46.715656,21.788801,105.615868,0.48525444155324143,0.09712293,0.4150281,0.76344413
2.5558,266.4735,0.52672,5.26006,9.91199,2.22783,1.49906,1.89124,24.36,-31.56,-16.14,49.150253,21.294157,107.704453,0.46515505736665996,0.10541706,0.42915726,0.76703459
2.5783,266.4936,0.9074,4.08451,7.57047,2.48011,1.67499,1.82099,23.28,-33.24,-14.46,51.719784,20.945124,109.856415,0.443564564389169,0.11258496,0.44501474,0.76976424
2.5992,266.5135,1.21386,3.06458,4.82432,2.47339,1.78189,1.80205,22.32,-34.86,-12.3,54.381401,20.58201,112.095818,0.42107284111773424,0.11928999,0.46169606,0.77155966
2.6193,266.5335,2.22421,2.45166,2.2697,1.97676,1.95904,1.77395,21.54,-35.94,-9.36,56.933441,19.798471,114.897156,0.39688903122658237,0.1252562,0.47710589,0.77405423
2.6362,266.5535,3.43329,2.44448,1.06781,1.08429,2.15391,1.58886,20.4,-37.08,-7.02,58.912197,18.198978,118.760933,0.3709860027555676,0.1288114,0.48800269,0.7795065
2.6557,266.5735,2.98557,2.28407,1.85072,0.35247,2.15452,1.44897,19.92,-38.28,-4.68,59.94614,16.05076,123.392952,0.34529773832005967,0.12807678,0.49290052,0.78829873
2.6757,266.5934,3.02148,2.19788,3.14598,-0.07575,2.28036,1.33535,19.44,-39.48,-3.0,60.30814,14.235804,127.820457,0.3214345735522188,0.12298398,0.49478552,0.79796118
2.7005,266.6135,2.82276,2.03747,2.76291,-0.41417,2.3219,1.34635,18.66,-40.14,-2.28,60.358837,13.393054,131.558746,0.29876340855717,0.11289924,0.49668458,0.80703074
2.7162,266.6335,3.7972,2.05901,2.81558,-0.71654,2.21133,1.51433,18.12,-41.16,-1.26,60.082493,12.462215,135.439697,0.27598488646002267,0.10173911,0.49613342,0.8169046
2.7356,266.6535,6.08845,3.7589,3.24414,-0.88392,2.09832,1.52838,17.28,-41.1,-0.72,59.281582,8.504758,141.929749,0.24802210613874964,0.09993307,0.48724967,0.83131593
2.7557,266.6735,6.85699,5.23612,2.47082,-0.83627,1.68293,1.19058,15.9,-41.1,-0.24,58.387661,4.267123,148.387878,0.22014537466294495,0.10149536,0.4778499,0.84433061
2.7775,266.6935,5.94241,5.26006,2.15718,-0.98349,1.30298,0.93951,15.06,-41.82,-0.36,57.475536,0.554425,153.653824,0.19755642964087375,0.1054396,0.46911111,0.85427672
2.7956,266.7135,5.66229,5.72932,2.7677,-1.17225,1.09956,0.9896,13.98,-41.76,-0.54,56.32571,-2.783674,158.075729,0.17885296163844802,0.11074858,0.45915833,0.86308748
2.8159,266.7335,7.28795,8.03494,3.28484,-1.19424,0.80512,0.93462,12.72,-42.48,-0.72,55.013672,-5.960431,162.085007,0.16163302842838365,0.11736568,0.4484247,0.87121487
2.8374,266.7535,8.9615,10.21366,3.43329,-1.11788,0.32559,0.56261,12.24,-42.78,-1.02,53.76844,-8.896203,165.435059,0.14750786349884853,0.12576328,0.43842188,0.87761682
2.8566,266.7735,8.9184,11.55681,3.65834,-0.94012,-0.42699,0.06414,11.52,-43.08,-1.38,52.754765,-11.446363,167.63739,0.140030865825603,0.13642016,0.4298771,0.88146842
2.876,266.7935,8.06846,11.56399,4.93684,-0.67684,-1.30664,-0.25351,10.8,-42.84,-2.16,52.055477,-13.958528,168.710022,0.14079409244067742,0.1515003,0.4227024,0.88235331
2.8982,266.8136,7.32865,11.72919,6.21295,-0.4441,-1.64506,-0.42272,10.56,-42.42,-3.42,51.679611,-16.710398,169.100281,0.1476190870439308,0.17114563,0.41686025,0.88042337
2.9171,266.8335,7.16106,12.43548,6.54335,-0.36469,-1.65361,-0.66218,10.32,-42.12,-4.8,51.556435,-19.243376,168.991791,0.15750946569077143,0.1909412,0.41235781,0.87675154
2.9356,266.8535,7.02459,12.60068,6.55772,-0.38668,-1.66522,-0.93585,10.14,-41.52,-5.76,51.503353,-20.503839,167.710266,0.1717539643297881,0.20514435,0.40791968,0.87293637
2.9564,266.8736,6.21295,12.64617,6.95755,-0.23946,-1.80755,-1.22784,10.44,-41.28,-6.6,51.527378,-20.933994,165.551758,0.18970360467039377,0.21606089,0.40346038,0.86864835
2.9756,266.8935,5.51385,12.54801,6.94797,0.03421,-2.11726,-1.43859,10.56,-41.58,-7.14,51.855122,-21.242697,163.034836,0.21009687659588266,0.22734308,0.40059024,0.86238152
2.9956,266.9135,4.7884,11.77947,7.31429,0.29932,-2.46973,-1.6811,10.68,-41.22,-7.56,52.594467,-21.778334,160.322617,0.23289406019832185,0.2412076,0.39971334,0.85311693
3.035,266.9335,4.04141,10.82179,7.74764,0.43677,-2.56319,-1.85459,11.22,-41.04,-7.98,53.693665,-22.569073,157.454971,0.2577011142174617,0.25779378,0.40020436,0.84081447
3.037,266.9534,3.04303,9.83538,7.89129,0.52657,-2.4569,-2.03785,11.76,-40.92,-8.76,54.972443,-23.231573,154.395905,0.2831646470521166,0.27435386,0.40126559,0.82676095
3.0651,266.9735,2.32477,8.97347,7.90087,0.62797,-2.37199,-2.19911,12.54,-40.2,-8.88,56.34491,-23.369362,150.936325,0.30916672498169945,0.28883103,0.40275496,0.81165326
3.0777,266.9935,1.62806,7.85059,7.65187,0.86987,-2.31457,-2.39642,13.62,-40.14,-9.0,57.808365,-22.961128,147.044006,0.3355965983710881,0.30144188,0.40479809,0.79539061
3.1007,267.0134,-0.07901,6.26802,6.89051,1.12827,-2.44041,-2.40437,14.7,-39.9,-8.94,59.412544,-21.930635,142.629578,0.36247763501689273,0.31236947,0.40793365,0.77757663
3.117,267.0335,-1.42694,4.90811,6.58884,1.54305,-2.85579,-2.16307,15.6,-39.24,-8.64,61.126266,-20.706526,137.955292,0.3891651744898507,0.32388949,0.41140148,0.75788844
3.1375,267.0535,-1.68312,3.92649,6.02142,2.11237,-3.2498,-1.80327,16.86,-38.76,-8.28,63.064491,-20.106487,133.605499,0.41449449552745843,0.33959648,0.41470963,0.73544848
3.1558,267.0735,-1.42934,3.83791,4.94642,2.59129,-3.82402,-1.55954,18.0,-38.28,-8.1,65.347466,-20.456247,129.961349,0.4372080395323053,0.36013287,0.41820917,0.71010882
3.1757,267.0935,-1.2809,4.20661,3.17711,2.6255,-4.23452,-1.46791,19.26,-37.68,-8.04,68.017853,-21.77565,126.785629,0.4590400558067446,0.38599077,0.42095998,0.68050426
3.197,267.1135,-1.37427,4.61363,2.86586,1.91873,-4.16549,-1.47646,20.52,-38.1,-7.62,70.598511,-22.985275,123.130157,0.48206603638052636,0.412624,0.42051795,0.64847392
3.2177,267.1335,-2.47321,4.7477,4.27844,0.97555,-3.36892,-1.51861,21.06,-37.92,-7.5,72.341919,-21.904999,117.464539,0.5072133150920971,0.43185225,0.4156746,0.61923575
3.2361,267.1535,-3.86664,5.37977,4.81235,0.3036,-2.27731,-1.56198,21.6,-37.98,-6.9,73.147598,-17.388887,109.340118,0.5325620223194957,0.43965697,0.41033229,0.59557271
3.2562,267.1735,-4.94163,5.59525,2.97599,-0.67134,-0.86499,-1.5742,21.6,-37.8,-6.66,73.104393,-9.726863,99.482262,0.555798604370913,0.43546078,0.40883803,0.57819831
3.2758,267.1935,-5.51145,6.24168,1.56341,-1.75318,0.06475,-1.66949,21.96,-37.32,-6.9,71.773445,-0.326509,89.410072,0.5769962522707427,0.41824567,0.4107134,0.56873578
3.2959,267.2135,-6.78996,6.51702,2.50194,-2.55769,0.52718,-1.77945,22.38,-36.66,-7.8,68.996643,8.55903,80.85273,0.5982139468579855,0.39007008,0.4130736,0.56511557
3.3165,267.2335,-9.90481,6.1531,4.64475,-2.68414,0.48747,-1.72081,23.1,-35.46,-9.24,65.109764,15.806184,74.419472,0.6201702880138082,0.35440776,0.41462222,0.56380171
3.3367,267.2536,-12.05002,5.69581,6.47392,-2.41231,0.3653,-1.25288,24.36,-34.26,-10.92,60.949295,20.926352,70.18045,0.6405376055238174,0.31810436,0.4147678,0.56257343
3.3569,267.2735,-12.07396,5.70778,7.21373,-2.16552,0.51068,-0.62675,25.56,-32.4,-12.3,57.186302,24.128963,67.995087,0.6559383046173478,0.28539705,0.41384521,0.56305027
3.3772,267.2935,-11.51372,6.4428,7.82186,-2.14047,0.91874,-0.05498,26.7,-31.14,-13.2,53.906437,26.113127,67.465904,0.6652718347131574,0.25537682,0.41266912,0.56736255
3.3958,267.3136,-10.65659,7.38132,8.92558,-2.09832,1.44714,0.46853,27.66,-29.94,-13.62,50.979378,27.464085,68.345909,0.6680869927026101,0.2255131,0.41209427,0.57704586
3.4171,267.3334,-9.90481,8.03015,9.15064,-1.88269,1.88146,0.95173,27.9,-28.92,-14.34,48.773018,28.12072,70.556557,0.6633130092622456,0.19917376,0.41195369,0.59214848
3.4361,267.3535,-8.13071,9.26795,8.65025,-1.69393,2.16796,1.42942,27.78,-28.26,-15.42,47.270634,28.551466,73.561928,0.6518934420809177,0.17592688,0.41357058,0.61077332
3.4559,267.3735,-5.46596,11.09952,8.96868,-1.43309,2.21194,1.76907,27.96,-27.9,-16.02,46.323414,28.747074,77.13768,0.6354648705694643,0.15560733,0.41599259,0.63160187
3.4765,267.3934,-2.89938,13.10347,9.06684,-0.93462,2.10382,1.90346,28.14,-27.72,-16.92,45.965736,28.685507,80.929398,0.6158110590299875,0.13979702,0.41900781,0.65243083
3.497,267.4135,-0.77093,14.78659,9.10275,-0.51557,2.05006,1.73669,28.38,-27.66,-16.8,46.162224,28.63822,84.388016,0.5952727181538336,0.12860969,0.42369372,0.67051739
3.5163,267.4335,0.04788,15.27501,8.61913,-0.13867,2.09466,1.48807,28.74,-27.96,-15.84,46.668346,28.993856,87.200615,0.5753893123767648,0.11919289,0.430911,0.68486196
3.537,267.4545,-0.92895,14.24071,8.51139,0.27428,2.0354,1.31886,28.74,-28.32,-15.12,47.462692,29.852793,89.414391,0.5557373857729453,0.11049357,0.44114724,0.6959427
3.557,267.4744,-1.99676,12.38999,7.77158,0.68478,1.9957,1.36712,28.14,-29.04,-14.04,48.609615,30.986471,91.004402,0.5371285331702681,0.10434728,0.45353931,0.70349604
3.577,267.4945,-2.32716,10.51533,6.61757,0.88881,1.78739,1.51556,28.14,-30.24,-13.08,50.191814,32.132233,92.377525,0.517743644099042,0.10129952,0.46761325,0.70923746
3.5967,267.5145,-2.23858,9.00699,6.29914,1.03481,1.56504,1.56992,27.78,-31.44,-11.7,52.168205,32.499084,94.125946,0.4972995304872956,0.10355613,0.48023778,0.7150811
3.6183,267.5345,-2.19788,7.38132,6.07648,1.09406,1.42881,1.67011,27.48,-32.88,-9.84,54.191456,32.598019,95.893547,0.4774234977000717,0.10730971,0.49196416,0.7200852
3.6398,267.5555,-0.61292,7.50343,6.90967,1.24678,1.42698,1.67072,26.94,-33.96,-7.92,56.179249,32.093784,98.09536,0.45739864681123094,0.11240619,0.50159365,0.72564119
3.6578,267.5755,-0.45729,6.65588,6.28478,1.56259,1.40988,1.43798,26.58,-35.04,-5.7,58.345486,31.612814,100.338371,0.4361653377178263,0.11776955,0.51251298,0.73021954
3.6781,267.5955,-1.13964,4.53462,4.26168,1.6304,1.49662,1.35734,25.68,-35.58,-4.02,60.407757,31.578396,101.933632,0.41740614371822116,0.12220289,0.5241335,0.73220396
3.6976,267.6155,-1.7741,2.71263,2.15478,1.28037,1.65056,1.5461,24.84,-36.36,-2.76,62.306366,31.731638,103.476471,0.3987126795043158,0.124451,0.53560698,0.73393822
3.7198,267.6355,-1.47243,1.38385,1.30245,0.73731,1.7318,1.95966,24.12,-37.14,-1.2,63.820755,31.207407,105.986374,0.37857477515288235,0.12410089,0.54399318,0.7384792
3.7377,267.6555,1.50595,2.36787,2.46842,0.27917,1.72264,2.28219,22.74,-37.5,0.06,65.223145,28.83025,110.577133,0.35427665377472145,0.12485664,0.54848927,0.74703306
3.7588,267.6756,4.01747,3.51948,3.68946,0.18815,1.7599,2.19362,21.48,-38.4,1.32,66.392838,24.621599,117.054878,0.3272742709151475,0.12710643,0.54937893,0.75823367
3.7805,267.6954,4.06057,3.96959,2.81798,0.19914,1.7599,2.00669,19.8,-39.3,2.4,67.334244,19.782892,124.131096,0.29995718598541615,0.1295277,0.54946947,0.76898086
3.7999,267.7155,4.38378,4.16831,1.54187,-0.11912,1.72631,1.89551,18.18,-39.54,3.42,68.0728,14.453656,131.656891,0.2723868934317723,0.13226141,0.54927421,0.77885181
3.8176,267.7354,5.62159,4.68785,1.72383,-0.58338,1.81244,1.72264,16.68,-40.92,4.38,68.167152,7.004804,141.12114,0.24284193481210423,0.138447,0.54430717,0.79094243
3.8377,267.7554,6.68461,5.66468,2.16436,-1.02442,1.88757,1.54549,15.12,-41.4,4.86,67.419395,0.072914,150.123611,0.21409306632705044,0.14255092,0.53636557,0.8038379
3.8598,267.7755,7.69975,7.58244,2.81319,-1.18813,1.76968,1.35184,13.74,-41.76,5.22,66.000748,-5.630285,157.875168,0.18697998101867488,0.14480405,0.52597564,0.81695771
3.8791,267.7955,8.70292,9.50737,2.92811,-0.8937,1.12705,0.95295,12.3,-41.94,5.16,64.454018,-10.086512,164.017014,0.1635763626216496,0.14749479,0.51571321,0.82796615
3.8995,267.8155,8.14268,9.94551,2.05901,-0.54734,0.38973,0.51313,11.04,-41.82,4.8,63.348339,-13.798522,168.520218,0.14725837281688378,0.15385386,0.50844771,0.83434099
3.9178,267.8355,6.78038,9.34218,0.77572,-0.55772,-0.41417,0.19059,9.48,-41.88,4.38,62.738544,-17.199011,171.696716,0.13875176873159167,0.16459793,0.5041061,0.8363806
3.9379,267.8555,6.55054,9.28471,1.15161,-0.91324,-0.83383,0.07697,9.0,-41.94,3.9,62.108822,-20.467318,173.870911,0.13658691572589643,0.1791214,0.49878263,0.8369441
3.9576,267.8754,6.51462,10.08917,3.46441,-1.07085,-1.06352,-0.07819,8.52,-42.66,3.0,61.105358,-23.204144,175.008911,0.13886531364914434,0.19470826,0.48993087,0.83831549
3.9785,267.8955,6.76123,11.28387,4.53701,-0.91935,-1.12277,-0.34331,8.04,-42.24,2.04,60.083138,-25.315836,175.278351,0.14440143133621977,0.20965222,0.48023227,0.83938736
3.9985,267.9155,6.60321,11.9327,4.35745,-0.85521,-1.13071,-0.70188,8.52,-42.78,0.72,59.382008,-26.817785,174.827469,0.15287748527302306,0.22298886,0.47223857,0.83898461
4.0178,267.9355,5.92565,11.66455,4.42927,-0.98777,-1.16309,-1.00976,8.82,-42.78,0.06,58.919006,-27.502655,173.478745,0.16482153049070564,0.23380966,0.46516573,0.83772773
4.0385,267.9555,4.58729,11.30542,6.25605,-0.956,-1.32191,-1.16064,9.18,-42.42,-0.6,58.450226,-27.402275,171.216278,0.18023198641927887,0.24242488,0.45712692,0.83652949
4.0578,267.9755,3.01669,11.22641,7.5968,-0.52046,-1.53755,-1.0794,9.96,-42.78,-1.38,58.124687,-27.083782,168.56076,0.19786777983218373,0.25072032,0.4495073,0.8342247
4.0777,267.9955,2.84431,11.44189,7.80031,0.06231,-1.73913,-0.94318,10.62,-42.6,-1.56,58.220806,-27.144173,166.218201,0.21523687464284302,0.2602843,0.44489396,0.82945436
4.0983,268.0155,3.46441,11.82736,6.63194,0.416,-1.82221,-0.96761,10.8,-42.36,-2.82,58.846676,-27.903385,164.533127,0.23111710027944432,0.27225044,0.44417074,0.82169151
4.1177,268.0355,3.48356,11.4395,5.36301,0.46365,-1.88513,-1.14659,11.52,-42.48,-3.36,59.797535,-28.79681,162.930908,0.24719106230205382,0.28483275,0.44547436,0.8119849
4.1377,268.0555,2.88741,10.47224,5.17866,0.45632,-1.94683,-1.35734,12.12,-41.82,-3.54,60.896397,-29.382626,160.884628,0.265197388537949,0.29699188,0.44708461,0.80098784
4.1609,268.0755,2.10929,9.58399,5.23373,0.46853,-2.00791,-1.47768,12.96,-41.76,-3.96,62.072731,-29.536455,158.341064,0.28475673223559345,0.30819771,0.4486334,0.78908545
4.1777,268.0955,1.37188,8.66222,5.54976,0.72754,-2.20889,-1.50945,14.16,-41.52,-3.6,63.311695,-29.471539,155.462326,0.30537730602586266,0.31942651,0.44995275,0.77605021
4.198,268.1155,1.01035,7.86974,4.63996,1.07573,-2.50455,-1.46241,15.36,-41.16,-3.72,64.794014,-29.715197,152.741287,0.3258272686525378,0.33244166,0.45226854,0.76077086
4.219,268.1355,1.403,7.9679,3.52187,1.2596,-2.93093,-1.52472,16.44,-41.1,-3.72,66.562828,-30.638565,150.375015,0.34629217627832964,0.3488327,0.45519975,0.74242216
4.2377,268.1555,1.5706,7.75482,2.94008,1.09223,-3.02562,-1.82588,17.46,-40.56,-3.42,68.50544,-31.75041,147.792709,0.3684450336214,0.36739358,0.45741951,0.72113633
4.2577,268.1754,1.1157,6.95037,3.57454,0.6072,-2.50943,-2.22477,18.3,-40.5,-3.48,70.296425,-31.238092,143.582001,0.39331020240155984,0.38237604,0.45787755,0.6996026
4.2815,268.1954,-0.21069,5.82509,3.88579,0.00061,-1.40438,-2.60351,18.96,-40.02,-3.48,71.646942,-27.089987,136.45256,0.4197033570075777,0.38742381,0.45797256,0.68118501
4.3028,268.2155,-1.52511,4.7884,3.0957,-0.47159,-0.48564,-2.75012,20.34,-39.72,-3.96,72.291885,-18.76862,126.331657,0.44546349228002274,0.38018963,0.45984644,0.66750234
4.3193,268.2355,-2.20745,4.34787,2.18591,-0.77213,0.02138,-2.8338,21.36,-38.7,-4.2,72.03318,-8.127954,114.817078,0.46969698317397035,0.36423418,0.46330285,0.65731931
4.3388,268.2555,-3.62482,3.79242,1.12527,-1.04763,0.14294,-3.00179,22.68,-37.8,-5.04,70.937866,3.242029,103.090187,0.49343617267960316,0.34267768,0.46854725,0.6477316
4.358,268.2755,-6.14592,3.11486,1.47004,-1.21379,-0.15699,-3.0415,24.18,-36.84,-5.76,68.821609,14.526672,91.522667,0.5197580526308414,0.31636477,0.47439605,0.6361708
4.3777,268.2955,-7.12514,2.3104,2.11169,-1.29992,-0.15882,-2.88817,25.38,-35.4,-6.42,65.774323,23.820734,81.753983,0.5479354162217732,0.28830364,0.47874048,0.62245911
4.4006,268.3155,-8.01339,1.55863,1.65918,-1.60047,0.06353,-2.6029,27.54,-33.6,-7.26,62.092251,31.072948,74.331879,0.5743365592999843,0.25732467,0.4830521,0.60875463
4.4241,268.3355,-10.0748,1.75256,2.4349,-1.9004,-0.13989,-2.13803,29.88,-31.44,-7.92,57.868992,36.164391,69.47966,0.598081982680099,0.22314163,0.48530042,0.59748578
4.4378,268.3555,-11.3557,2.3128,4.59687,-1.91934,-0.2584,-1.50456,31.44,-29.28,-8.52,53.571976,38.890011,66.969055,0.6193013843832266,0.19046885,0.48231098,0.58954519
4.4577,268.3755,-11.1881,3.30879,5.45639,-1.83748,0.00611,-0.72754,32.52,-27.24,-9.06,49.786308,40.169437,66.065239,0.6354277214441676,0.16162194,0.47665343,0.58558643
4.4778,268.3955,-10.31422,4.88896,4.95839,-1.88146,0.03054,-0.22663,33.06,-25.8,-10.02,46.758736,40.816818,66.372208,0.6442270061073708,0.13605104,0.47144222,0.58668894
4.4979,268.4155,-10.40999,6.21535,6.30633,-2.0354,-0.04826,0.11362,33.42,-25.08,-10.62,44.170994,40.776653,67.492477,0.6494585576679447,0.1137214,0.46420851,0.59142327
4.5181,268.4355,-9.94551,7.4747,9.20331,-2.07267,0.29932,0.53939,33.78,-24.06,-11.94,41.856152,40.124485,69.381454,0.6516524408684463,0.0935174,0.45441356,0.60009325
4.5377,268.4555,-8.85615,8.87291,10.39084,-1.78006,0.88209,0.81978,33.66,-23.46,-13.14,40.033752,39.504021,71.81102,0.6484380662410612,0.07472447,0.44612795,0.61230236
4.5579,268.4755,-8.68377,9.84496,9.46907,-1.45752,1.06046,1.0006,33.24,-23.52,-13.8,38.92664,39.303356,74.335106,0.6398742616033621,0.05848991,0.4422538,0.62574071
4.5802,268.4955,-8.37492,10.23521,9.70131,-1.26022,1.09162,1.31519,32.76,-22.74,-14.94,38.427464,38.990334,76.987251,0.628349028058405,0.04665634,0.4397445,0.64001989
4.5977,268.5155,-7.00065,10.76433,11.29345,-0.90897,1.22967,1.58642,32.76,-22.56,-15.12,38.361115,38.593773,79.75425,0.6144884064906974,0.03785559,0.43833715,0.65485227
4.6177,268.5355,-6.10761,10.57998,10.37408,-0.34575,1.52289,1.72814,32.7,-23.16,-15.3,38.831829,38.49181,82.35701,0.5980416753301809,0.03153504,0.4406234,0.66873217
4.6389,268.5555,-5.9041,10.00776,7.98466,-0.135,1.57298,1.91751,32.58,-23.46,-15.12,39.856342,38.821709,84.643394,0.5793256007144758,0.02732278,0.44745252,0.68075073
4.6587,268.5755,-4.9129,10.10353,7.31429,-0.08552,1.52961,2.09038,32.34,-24.3,-14.04,41.151508,39.049568,86.982697,0.5593028600115401,0.02495677,0.45496988,0.69250262
4.6795,268.5955,-3.05261,10.35971,6.79235,0.00183,1.33657,2.13192,31.8,-25.68,-13.26,42.650436,38.994953,89.515968,0.5380737733958204,0.02450529,0.46215072,0.70448053
4.6981,268.6155,-1.52511,10.68053,7.43639,0.26084,0.87537,1.9902,31.8,-26.82,-12.12,44.328201,38.418991,92.159904,0.517220296309744,0.02763232,0.46797755,0.71604234
4.7178,268.6355,-1.99916,11.1905,9.57441,0.77519,0.68845,1.76845,31.32,-27.72,-11.34,46.120892,37.430733,94.444496,0.4995936217045457,0.03526561,0.47281006,0.72499186
4.7378,268.6555,-2.15478,9.93354,9.50019,1.20524,1.20035,1.76418,30.84,-28.92,-11.22,48.185135,36.706234,96.148277,0.4833049124977919,0.04501996,0.48032549,0.73053199
4.7584,268.6756,-1.60412,9.61272,7.31189,1.34207,1.69698,1.85886,30.18,-30.06,-9.96,50.561214,36.602398,97.720398,0.4638083174130962,0.05290984,0.49215055,0.73475862
4.7787,268.6955,-0.85473,9.17937,5.63116,1.36712,1.6756,1.83321,29.22,-30.9,-8.58,53.058701,36.754414,99.467247,0.4413433955470084,0.05873294,0.50575578,0.73890293
4.7978,268.7155,-0.7853,8.23366,4.60166,1.46608,1.38056,1.80877,28.62,-32.52,-7.32,55.575951,36.718853,101.238716,0.419229259004458,0.06534965,0.51880425,0.74217141
4.8178,268.7355,-1.46286,7.09163,3.14359,1.53083,1.0739,1.85764,27.72,-33.96,-5.4,58.152912,36.405743,102.919838,0.39854605234322593,0.0740968,0.53119916,0.74397457
4.8377,268.7555,-1.90578,5.97832,1.75256,1.28709,0.80451,1.91323,26.88,-35.28,-3.9,60.733768,35.826263,104.597252,0.3790425507553064,0.08420247,0.54288465,0.74465626
4.8586,268.7755,-1.70707,4.78601,2.28407,0.89064,0.66768,1.99814,25.74,-36.72,-2.94,62.997162,34.413906,106.910194,0.3608174274160909,0.0945427,0.55116028,0.74638784
4.8785,268.7955,-1.07978,4.09408,3.29203,0.69028,0.88881,2.05067,24.84,-37.2,-1.32,64.760719,31.860996,110.344627,0.34312656272966247,0.10383129,0.55510527,0.7505607
4.899,268.8155,-0.34237,4.01508,2.84671,0.56322,1.21745,2.02196,23.34,-37.92,0.24,66.21711,28.790939,114.63604,0.32380296786024254,0.11041064,0.55776262,0.75621557
4.9194,268.8355,-0.40701,3.77566,1.30005,0.31521,1.24861,1.93461,21.6,-38.34,1.56,67.472092,25.731594,119.310867,0.30285709337006456,0.11372333,0.56079996,0.76213384
4.9408,268.8555,-0.12929,3.40216,1.68791,0.00794,1.08001,1.88574,20.28,-39.0,2.82,68.454941,22.230877,124.363213,0.282703872065704,0.11659227,0.56252861,0.76814473
4.9579,268.8755,0.42138,3.21541,1.96085,-0.17226,1.09528,1.8271,18.66,-39.84,3.42,69.147476,18.23105,129.80574,0.26342268199042473,0.11952186,0.56273156,0.77437472
4.9799,268.8955,0.86191,3.70862,1.61848,-0.46731,1.1582,1.74036,17.22,-40.32,3.78,69.469017,14.027508,135.519638,0.24431796681588108,0.1211574,0.56142062,0.78130436
5.002,268.9165,2.38462,5.09965,3.28724,-0.67378,1.03481,1.44347,16.14,-40.86,3.78,69.212692,9.691334,141.353241,0.22610906364123184,0.12164766,0.55703163,0.78980523
5.0207,268.9365,3.43568,5.70538,4.60884,-0.63408,1.02014,1.04397,14.7,-41.34,3.78,68.27079,4.708003,147.620361,0.20845449095317528,0.12367932,0.5479213,0.80064499
5.0406,268.9565,4.20901,6.46674,6.17704,-0.51435,1.1472,0.64202,13.56,-41.52,3.42,67.107315,1.029893,152.399323,0.19395853022436094,0.12456588,0.53852707,0.81046408
5.0617,268.9765,3.37343,6.20577,4.93924,-0.39828,1.63529,0.29566,12.72,-42.18,3.24,66.045731,-1.009512,155.694611,0.1811955415686439,0.12194304,0.53118515,0.81862104
5.0833,268.9975,3.22499,5.92565,2.59292,-0.72815,1.75074,0.30543,12.24,-42.54,3.06,65.119926,-1.801294,158.261429,0.16721931530469417,0.1144823,0.52596343,0.82601088
5.1074,269.0175,3.96719,6.57448,2.86586,-1.11788,1.50273,0.4105,12.24,-42.48,3.0,63.939598,-2.733706,160.857056,0.15347166499224257,0.10796858,0.51858795,0.8341797
5.1212,269.0376,4.75488,8.00142,4.03184,-1.08123,1.09101,0.47098,11.58,-43.08,3.48,62.485935,-4.102305,163.511856,0.14088883537012073,0.10460915,0.50859177,0.84293634
5.1404,269.0575,4.82192,9.22007,2.92332,-0.81795,0.60415,0.40806,11.1,-42.96,3.0,61.333183,-5.803267,166.047241,0.12996793025197334,0.10509,0.50032759,0.8495509
5.1623,269.0775,5.39653,10.08677,1.62327,-0.91447,-0.25779,0.17471,10.44,-42.84,2.52,60.59766,-7.903758,168.249176,0.12276025742517956,0.11071379,0.4945752,0.85326886
5.1838,269.0975,5.66708,9.94073,3.11246,-1.19485,-0.8937,-0.06658,9.54,-42.84,2.1,59.736336,-10.256972,169.679062,0.1220220925537349,0.12181602,0.48702973,0.85619712
5.2031,269.1175,5.72693,10.46506,6.20098,-1.20463,-1.18386,-0.27245,9.18,-42.6,0.66,58.528034,-12.446052,170.17955,0.12702497395973547,0.13581266,0.47607648,0.85951775
5.2208,269.1375,5.9448,11.65019,7.23528,-1.09834,-0.94012,-0.54734,8.34,-42.12,0.0,57.362072,-14.167879,169.966797,0.13508956001725503,0.14942488,0.4649843,0.8620978
5.2414,269.1575,5.76284,12.34211,7.38611,-1.14354,-0.53329,-0.92729,8.04,-41.88,-1.32,56.357956,-14.861742,169.012268,0.1444753722793622,0.15830863,0.45519602,0.86421168
5.2608,269.1775,4.82192,11.85609,7.44836,-1.11544,-0.39828,-1.15331,8.46,-41.76,-2.76,55.412819,-14.423828,167.238159,0.15562289515141803,0.16172062,0.44605267,0.86640924
5.2808,269.1975,3.39498,11.41316,7.72609,-0.86926,-0.71105,-1.11666,9.0,-41.34,-3.84,54.595711,-13.609167,165.073578,0.16848882210887603,0.16354634,0.43785208,0.86784196
5.3058,269.2175,2.44687,12.01171,8.44674,-0.40012,-1.07329,-0.87232,10.2,-41.22,-5.34,54.057869,-13.17433,163.002136,0.18233803195954973,0.16778184,0.4313809,0.86747485
5.3343,269.2375,3.05261,12.64378,8.43238,0.03726,-1.46913,-0.84727,11.46,-41.7,-6.3,53.96265,-13.279413,161.245392,0.19598464074178987,0.17509113,0.42784595,0.86480111
5.3419,269.2575,3.4285,12.65575,8.31506,0.33781,-1.7037,-1.03908,12.06,-41.34,-6.36,54.333157,-13.741455,159.429413,0.21145447089630676,0.18565875,0.4270125,0.85934752
5.3621,269.2775,3.32076,12.23198,8.47308,0.50946,-1.80694,-1.32741,13.14,-41.28,-6.84,55.057644,-14.139338,157.305237,0.2289264875906018,0.19725645,0.4282403,0.85164124
5.3826,269.2975,2.48279,11.08515,9.60075,0.8265,-1.70004,-1.61879,13.92,-41.28,-6.78,56.083363,-14.180579,154.630173,0.2489401056686338,0.20872647,0.43120942,0.84173661
5.4018,269.3175,2.08774,9.74201,8.47069,1.24128,-1.40682,-1.89185,14.58,-40.8,-6.36,57.502388,-13.670547,151.576935,0.26920145813246177,0.21839841,0.43735579,0.82979071
5.4259,269.3375,0.92656,8.8777,5.01585,1.37994,-1.42271,-2.12337,15.84,-40.68,-6.84,59.292953,-12.419977,148.03862,0.2893085506386415,0.2257629,0.44685793,0.81587356
5.4426,269.3585,0.11732,8.20732,3.48356,1.25655,-2.12154,-2.32068,16.92,-40.62,-6.42,61.277111,-10.493533,143.461807,0.3128415499655465,0.23380041,0.4572407,0.79899842
5.4683,269.3786,-0.48842,7.3909,4.23055,1.34085,-2.96575,-2.44529,17.94,-40.5,-6.06,63.011364,-8.640891,138.153519,0.34038105973279575,0.24608709,0.46379918,0.78004628
5.4866,269.3985,-0.61052,6.57687,4.81235,1.45325,-3.26752,-2.42575,19.14,-40.02,-5.82,64.66732,-6.936351,132.184525,0.371379625987561,0.26308727,0.46734792,0.7579236
5.5024,269.4195,-0.30885,5.31513,3.53145,1.23273,-3.07265,-2.4514,19.86,-39.84,-5.28,66.297478,-4.848082,125.428741,0.40403009758153746,0.28192139,0.46930298,0.73282653
5.5234,269.4395,-1.90818,5.07092,2.86825,0.65057,-2.63711,-2.45507,21.12,-38.94,-5.1,67.327888,-1.474549,118.037979,0.43451108755440326,0.29449704,0.46968791,0.7098344
5.5427,269.4595,-2.38223,5.22654,3.92649,0.23091,-2.13436,-2.33778,22.74,-37.92,-4.98,67.465706,2.889812,110.236908,0.4639590931068039,0.30027449,0.46739784,0.69001192
5.5634,269.4795,-2.00395,5.45639,4.60884,0.20403,-1.68538,-2.38604,23.82,-36.9,-5.4,66.929245,7.510808,102.832359,0.4909234738599166,0.30044934,0.4641954,0.67323619
5.5827,269.4995,-2.57137,4.47955,3.74693,0.38057,-1.68965,-2.46301,24.84,-35.64,-5.94,66.156303,12.590206,95.383881,0.5163643368472705,0.29721281,0.46303689,0.65622348
5.6061,269.5195,-4.05578,4.00071,3.52426,0.42822,-2.04823,-2.43674,25.68,-34.5,-6.84,65.225586,17.748928,87.738914,0.5423639760891115,0.29383996,0.46271771,0.63670379
5.6237,269.5395,-4.11084,4.86262,3.9241,0.34086,-1.99386,-2.37749,26.76,-33.06,-7.98,64.063538,22.169781,80.524612,0.5689418275438728,0.2918461,0.46076709,0.6154874
5.6423,269.5595,-2.88741,4.70939,2.96402,-0.11545,-1.507,-2.46118,28.26,-32.04,-8.7,62.622536,25.991432,74.098267,0.5940014421578047,0.28839266,0.45843115,0.5948385
5.6727,269.5795,-3.9217,3.56497,2.229,-0.7141,-0.77458,-2.5638,29.52,-30.36,-9.6,60.469543,29.808748,68.405785,0.6177042808718242,0.27753168,0.45731831,0.57643521
5.6906,269.5995,-5.85622,3.1795,1.901,-1.17897,-0.46426,-2.37382,30.78,-28.68,-10.08,57.552444,33.540794,63.715714,0.6394938079265463,0.25799698,0.45808479,0.56093097
5.7073,269.6195,-8.43717,3.50032,4.29759,-1.18386,-1.49295,-2.07816,31.44,-27.66,-10.74,54.150242,36.214016,60.299568,0.6607720270663027,0.2350987,0.45658287,0.54739475
5.7233,269.6395,-6.3159,1.94649,4.78362,-1.01343,-1.66949,-1.75624,32.1,-25.68,-11.64,50.876884,36.987595,57.801579,0.6839032501946021,0.21818653,0.44764772,0.53318149
5.7421,269.6595,-8.63589,3.79002,6.17225,-1.36284,-2.09649,-1.67316,33.12,-24.66,-12.96,47.795353,36.988804,55.803726,0.7061235234303891,0.20380551,0.43608472,0.51931012
5.7623,269.6795,-9.80186,4.29759,6.11719,-1.71959,-1.65544,-0.83444,33.3,-23.52,-14.58,44.654175,36.361546,54.67963,0.7262424813826495,0.18805616,0.42214683,0.50891924
5.7843,269.7003,-8.71968,4.16591,6.27999,-2.05923,-0.98838,-0.03299,33.6,-21.72,-16.14,41.837185,35.251163,55.058071,0.7394742101957535,0.17102529,0.4080908,0.50733632
5.8035,269.7205,-8.11634,4.9943,7.26161,-2.33045,-0.79168,0.37996,33.3,-20.52,-17.82,39.185974,33.772263,56.678486,0.7472014762744681,0.15252134,0.39317322,0.51365554
5.8257,269.7405,-8.19775,5.93044,9.9096,-2.4398,-0.20036,0.63958,33.06,-19.2,-19.08,36.680336,32.276211,58.858475,0.7511718760824208,0.13362141,0.37830481,0.52418661
5.8463,269.7605,-7.63272,6.66785,10.19212,-2.07267,0.65179,0.76358,33.0,-18.36,-20.4,34.422848,31.509069,61.312214,0.7498871563754139,0.11273991,0.36831707,0.53786755
5.8684,269.7815,-8.13789,6.54096,9.08839,-1.67438,0.42089,0.87354,32.52,-17.76,-21.48,32.646248,31.467079,63.634315,0.7447505041156341,0.0926756,0.36375272,0.55176252
5.888,269.8015,-6.82108,6.8139,9.4571,-1.50273,0.05559,1.05863,32.28,-17.28,-21.96,31.448477,31.141005,65.785759,0.7390957481511751,0.07889266,0.35873228,0.56464553
5.9066,269.8225,-6.78038,7.10838,11.09234,-1.2425,-0.03054,1.23456,31.8,-16.8,-22.08,30.524643,30.236124,68.161652,0.7329102983948907,0.06948829,0.35079941,0.5787518
5.9271,269.8425,-6.17465,7.49625,12.83771,-0.65912,0.20281,1.46119,31.44,-16.56,-22.38,30.102034,29.200888,70.509239,0.7253325403528994,0.06469471,0.34383243,0.59286302
5.9447,269.8625,-4.79559,8.00382,12.44267,-0.00489,0.62858,1.60352,31.44,-16.38,-22.68,30.416584,28.499126,72.744621,0.7147836764532692,0.06386364,0.34203333,0.60664564
5.9657,269.8825,-3.29442,8.81784,9.85214,0.25534,0.96883,1.59008,31.26,-16.68,-23.4,31.38798,28.390987,74.666077,0.7018789392256726,0.06533759,0.34675443,0.61875546
5.9874,269.9035,-2.55701,9.61511,9.64624,0.22541,0.74281,1.35612,30.9,-17.4,-23.88,32.57502,28.509048,76.46846,0.6880116599421826,0.06724282,0.3538731,0.6299938
6.0065,269.9235,-2.85389,8.8777,10.97981,0.43616,1.05496,1.2199,30.96,-18.0,-23.4,33.60791,28.512514,77.90229,0.6767920532383563,0.06970043,0.35948032,0.63864565
6.0327,269.9435,-3.4692,7.04853,10.35971,0.7477,1.83382,1.29503,30.78,-19.26,-22.74,34.819324,29.024656,79.113983,0.6644513545274817,0.07104643,0.36881652,0.64608914
6.0561,269.9646,-4.37899,5.25527,9.09797,0.92974,2.71591,1.81549,30.78,-20.16,-21.6,36.412849,30.544205,80.432983,0.6466273286071806,0.0685989,0.38568017,0.65453655
6.0717,269.9845,-3.46441,5.19302,8.90882,1.07024,3.18933,2.29319,31.08,-21.36,-20.58,38.2854,32.306519,82.282074,0.6233407526835124,0.06429014,0.40515819,0.66570258
6.0881,270.0045,-3.46441,4.67827,6.82108,1.01648,3.317,2.70919,31.02,-22.86,-19.5,40.506882,34.142086,84.551994,0.5952195283709341,0.0595863,0.4263888,0.67849523
6.1073,270.0246,-2.72221,4.8291,5.95438,0.68967,3.77087,2.79471,31.32,-24.18,-17.64,42.823803,35.738728,87.383385,0.5633054250173193,0.05390221,0.44657466,0.69307476
6.1276,270.0445,-1.52511,6.34703,6.97431,0.34575,3.30967,2.87412,31.26,-26.04,-15.66,44.965603,37.018063,90.791519,0.5288412197528021,0.0457974,0.46415511,0.70907658
6.148,270.0645,-0.67756,6.01423,7.38611,0.49236,3.9975,2.41353,30.84,-27.48,-13.08,46.894089,37.574146,94.651535,0.49451348412735713,0.03811182,0.47722971,0.72543484
6.1676,270.0845,-2.58574,5.74369,4.96079,0.86376,4.01094,2.13314,30.42,-29.22,-10.56,48.754227,39.382885,97.676025,0.45974985969835147,0.02471397,0.49456933,0.73717058
6.1888,270.1045,-3.0143,5.92086,2.0231,0.69944,3.98651,2.24065,29.7,-31.2,-8.1,50.890793,41.663353,100.019081,0.42531962759737973,0.01203766,0.51403409,0.74480015
6.2087,270.1245,-2.3966,6.18183,-0.32801,0.01894,3.64564,2.23638,28.92,-32.76,-5.04,53.987331,44.79874,103.962372,0.37115199453193887,-0.00902894,0.53973401,0.7555474
6.2277,270.1445,-2.20745,6.92164,-1.30723,-0.81612,2.66643,2.23821,27.84,-34.08,-2.82,54.901077,45.160141,105.797241,0.3531003517566165,-0.0150046,0.54502684,0.76028991
6.2521,270.1645,-2.42293,7.03416,-0.83318,-1.39033,1.25899,2.2431,26.7,-34.62,-0.6,56.329529,44.50185,109.840591,0.32267018524601365,-0.02211848,0.54936182,0.77045202
6.2731,270.1843,-1.29287,6.32788,0.61531,-1.65178,-0.07269,2.31884,25.26,-35.16,0.66,57.373371,41.402401,114.817802,0.2990530091202311,-0.01941079,0.54535753,0.7827999
6.2889,270.2045,-0.73263,6.09803,2.727,-1.45936,-1.28343,2.18568,23.76,-35.88,0.48,58.036667,36.178322,120.423195,0.282243658811159,-0.006561,0.53507465,0.79623526
6.3077,270.2245,0.29449,5.80833,3.89297,-1.26999,-1.85337,2.01586,22.56,-36.72,0.06,58.38385,29.739676,125.858276,0.2725339570640031,0.01504521,0.52171254,0.80827898
6.3332,270.2445,0.7446,4.5825,6.09564,-0.96883,-1.43431,2.04945,21.12,-38.34,-0.72,58.183395,23.100725,131.076111,0.26590617245265286,0.0379934,0.50605524,0.81960875
6.3503,270.2645,1.02711,5.41808,9.73243,-0.28588,-0.70188,2.27914,19.74,-39.6,-1.8,57.734795,16.548031,136.470367,0.2568185310077967,0.06011041,0.49043113,0.83060718
6.3697,270.2845,4.51068,6.15549,4.61363,-0.07819,1.15209,2.20339,18.3,-40.44,-2.82,57.91367,11.010799,142.288864,0.23751969006667614,0.07630699,0.48318562,0.83922184
6.3909,270.3045,4.80277,6.05015,1.17555,-0.697,1.07146,1.76784,16.44,-41.22,-3.24,58.132389,6.912766,148.045837,0.2119914048762881,0.08281974,0.48070851,0.8468293
6.4096,270.3255,5.13317,5.69102,2.45645,-1.46302,0.2926,1.36162,14.52,-41.52,-3.84,57.325977,2.761342,153.399002,0.1905601631115942,0.0897418,0.47151932,0.85633099
6.4329,270.3455,4.63517,5.64313,5.54497,-1.55954,-0.10873,1.10383,12.84,-41.64,-4.74,55.572014,-1.231616,157.528671,0.17728235915654939,0.10015192,0.45535687,0.86671257
6.451,270.3656,4.38378,6.19619,6.92882,-1.08795,-0.10324,0.96822,11.34,-42.06,-5.34,53.670158,-4.607115,160.681717,0.1674835082468504,0.1110385,0.43864694,0.87590444
6.4696,270.3855,4.72855,6.4404,6.00466,-0.79596,-0.23579,0.74648,10.26,-41.88,-6.72,52.235783,-7.469518,163.231461,0.15901265051140429,0.12191413,0.42606172,0.88222635
6.4904,270.4055,5.30795,6.8115,5.77242,-0.86926,-0.30299,0.52168,9.36,-41.52,-7.68,51.034027,-10.022105,165.221329,0.15293752919984893,0.13336433,0.41543058,0.8867026
6.5131,270.4256,6.22492,7.01022,6.19859,-1.06046,-0.11729,0.21991,8.58,-41.7,-8.4,49.732704,-12.111894,166.631577,0.1490782147150993,0.14374034,0.40417272,0.89093143
6.5307,270.4465,5.73172,7.35259,5.94959,-1.18264,-0.05192,-0.13622,8.28,-41.52,-9.24,48.284267,-13.386967,167.246078,0.14804048140908943,0.15082264,0.39188677,0.89541125
6.5494,270.4665,5.28161,7.45554,6.0717,-1.15698,-0.3769,-0.40378,8.04,-41.7,-10.02,46.94828,-14.158446,167.169968,0.15048554838725123,0.15650085,0.38019323,0.89906323
6.5701,270.4865,4.99909,7.39329,6.57927,-1.07085,-0.84177,-0.6579,7.62,-41.52,-10.98,45.774006,-14.971448,166.580521,0.15704432998848286,0.16425411,0.36893594,0.90124577
6.5893,270.5065,5.21457,7.36696,8.03015,-1.02564,-0.97861,-0.89186,8.1,-41.16,-11.82,44.738369,-15.879804,165.528946,0.16750532420210235,0.17419565,0.35783452,0.90197134
6.6093,270.5265,4.9943,7.53216,9.15782,-0.96883,-0.8546,-1.07146,8.34,-40.5,-12.6,43.782059,-16.458549,164.013367,0.1805500578307298,0.18283617,0.34694952,0.90199703
6.6334,270.5465,3.97916,7.79073,9.51695,-0.75992,-0.91874,-1.08123,8.58,-40.02,-13.32,42.965908,-16.684834,162.21196,0.1948400446357212,0.18940736,0.33711901,0.90139502
6.6506,270.5665,4.0462,8.5066,9.38766,-0.50702,-1.12705,-1.0739,9.42,-39.9,-14.1,42.437881,-17.009857,160.468033,0.2091375011168942,0.19658749,0.32937971,0.89951313
6.6706,270.5865,4.70461,8.94474,9.23922,-0.37446,-1.26388,-1.22356,9.9,-39.3,-14.64,42.218292,-17.530535,158.713058,0.22422786874418604,0.2054562,0.32355905,0.89600176
6.6953,270.6065,4.72376,8.90882,9.42118,-0.37446,-1.4337,-1.51495,10.02,-39.0,-15.12,42.184616,-17.973515,156.68811,0.24123908984109374,0.21454914,0.31867927,0.89118791
6.7092,270.6265,4.19704,8.41562,10.46506,-0.16371,-1.67438,-1.69454,10.86,-38.7,-15.42,42.264969,-18.256512,154.199539,0.2613548397557575,0.22371063,0.3139393,0.88492334
6.7343,270.6465,4.09408,8.5042,11.70525,0.30543,-1.81793,-1.88085,11.04,-38.16,-15.78,42.67062,-18.664915,151.522705,0.28325877631863544,0.23471159,0.31082854,0.87639064
6.7506,270.6665,3.52905,8.38449,10.29267,0.61209,-1.3213,-2.1252,11.34,-38.16,-16.38,43.650806,-18.914604,148.749786,0.3054678221926424,0.24567258,0.31208986,0.86540991
6.7784,270.6875,2.71502,8.29351,7.87692,0.43738,-1.1246,-2.26326,12.18,-37.86,-16.92,45.000103,-18.302219,145.527695,0.32839928372757987,0.25228435,0.31730884,0.85312462
6.7942,270.7075,1.71425,7.92002,7.91044,0.25229,-1.35123,-2.32251,12.48,-37.74,-17.28,46.071476,-17.290609,142.032013,0.35158360652646126,0.2566539,0.32081798,0.84118581
6.8104,270.7275,1.28808,7.69257,9.086,0.41539,-1.6078,-2.35061,13.62,-37.74,-17.4,46.955235,-16.298307,138.309769,0.3758646532607209,0.26183876,0.32228971,0.82842958
6.8311,270.7475,0.7446,7.32865,9.74679,0.91508,-1.95233,-2.32495,14.76,-37.14,-17.46,47.954323,-15.472786,134.536301,0.4003148701529188,0.26904583,0.32386598,0.81392455
6.8517,270.7675,0.46926,7.20176,10.1562,1.53755,-2.20278,-2.3671,15.66,-36.72,-17.04,49.373657,-14.95888,130.81691,0.4243310453939695,0.27987397,0.32732522,0.79653746
6.8722,270.7876,-0.08619,6.70376,9.7875,2.12887,-2.2602,-2.33717,16.98,-36.42,-16.98,51.376991,-14.501396,127.066124,0.44739591677010565,0.29346451,0.3342526,0.77588058
6.8941,270.8085,-0.41659,6.45716,8.88009,2.5864,-2.3164,-2.17896,17.94,-35.94,-16.8,54.013412,-14.060447,123.211174,0.4693888552370295,0.31024355,0.34460586,0.75144517
6.9132,270.8285,-0.26576,6.09085,6.28957,2.76172,-1.94683,-2.0971,18.3,-35.4,-16.2,56.831322,-13.571459,119.668945,0.4874741557705393,0.32729453,0.35631946,0.72683126
6.9323,270.8485,-0.77812,5.75566,3.0957,2.45262,-1.56198,-2.12276,19.32,-36.0,-15.78,59.759785,-12.353952,115.843506,0.503228668463592,0.34209025,0.37012404,0.70195681
6.9554,270.8685,-0.70629,6.09564,1.69988,1.68843,-1.39461,-2.36832,19.86,-35.64,-14.46,62.307213,-9.941894,111.238632,0.5184298827815442,0.3522338,0.38347808,0.67831141
6.9952,270.8885,-2.51631,6.42125,1.50595,1.00121,-1.32741,-2.72202,20.4,-35.34,-13.38,64.103592,-5.624215,104.76371,0.5373524634020486,0.35647565,0.39446631,0.65465546
6.9963,270.9085,-3.28245,5.76763,1.63763,0.24251,-1.2089,-2.78432,21.66,-35.34,-12.3,64.984627,0.582991,96.477821,0.5597229287016535,0.35457465,0.40355536,0.63097554
7.0285,270.9285,-3.25851,4.77643,2.7653,-0.27245,-1.08123,-2.66459,22.44,-34.14,-11.82,64.644409,7.223087,87.936028,0.5836184657806316,0.34710336,0.40877989,0.6097604
7.0331,270.9485,-3.43568,4.98952,2.73657,-0.40745,-1.12827,-2.57907,23.76,-33.18,-11.82,63.497631,13.289182,80.220741,0.6067665663464461,0.33634171,0.41198474,0.59074289
7.0518,270.9685,-3.88818,4.73094,2.89938,-0.3708,-1.54977,-2.62122,24.84,-32.16,-11.94,61.962399,18.467012,73.295418,0.6296442907495128,0.32553595,0.41364619,0.57137662
7.0728,270.9885,-4.92727,4.66391,3.34231,-0.37751,-1.98653,-2.66704,26.28,-30.54,-13.26,60.150505,22.824068,66.694138,0.6540913316120256,0.3162277,0.41306666,0.54912704
7.0909,271.0084,-5.34146,5.11641,4.11084,-0.46365,-2.38848,-2.61817,27.12,-28.86,-13.92,58.066681,26.085848,60.656956,0.6799035285862668,0.30845433,0.40905923,0.52465004
7.1132,271.0285,-5.7413,5.28879,5.96874,-0.63225,-1.65606,-2.54425,28.2,-27.66,-15.3,55.666103,28.27771,55.503693,0.7057777246131695,0.30008888,0.40198702,0.50023085
7.1308,271.0485,-4.28323,4.84586,5.06134,-0.80879,-0.65363,-2.24676,28.68,-26.46,-16.74,53.102276,30.498875,51.397099,0.7266916834077681,0.28657404,0.399019,0.48018575
7.1507,271.0685,-5.01346,4.4604,5.82988,-1.113,-0.24435,-2.12825,29.22,-25.38,-17.34,50.376446,32.496105,48.475208,0.7433056063581567,0.26863685,0.39861012,0.46523219
7.1712,271.0885,-7.39569,3.80199,5.92565,-1.26205,0.30177,-1.96393,30.18,-24.0,-18.48,47.340805,34.535366,46.286865,0.7573679578720638,0.24567501,0.40066621,0.45332566
7.1923,271.1085,-9.41879,2.9736,5.84425,-1.19485,0.50457,-1.34207,30.54,-22.08,-19.08,44.249748,36.647552,44.672585,0.7684129825290462,0.22002172,0.40526122,0.44372883
7.2119,271.1285,-8.76757,3.88818,6.5649,-1.27488,0.24801,-0.58521,31.38,-19.74,-19.32,41.657097,38.094967,44.113586,0.7752387587788327,0.19696137,0.40891591,0.43931636
7.2337,271.1485,-7.17063,4.82671,9.4978,-0.96028,0.13256,-0.27794,31.86,-17.76,-19.86,39.552338,38.356911,44.623863,0.7800532075140396,0.17827919,0.40731525,0.4402588
7.2524,271.1685,-8.10198,4.28323,8.82742,-0.3879,0.63652,-0.12889,32.22,-16.5,-20.22,37.987019,38.674004,45.013836,0.7830041351203483,0.16385849,0.40680516,0.44109464
7.2723,271.1886,-10.41717,3.89058,6.79235,-0.27917,0.88637,0.3934,32.76,-15.42,-20.28,36.977684,39.813931,45.206921,0.7817197229693539,0.15115321,0.41271731,0.44241542
7.3003,271.2085,-7.65666,6.53617,9.34218,0.5791,-0.27306,0.99388,32.76,-15.54,-20.34,36.772964,40.386524,45.903992,0.7776538812729799,0.14486282,0.41707593,0.44756773
7.3138,271.2295,-4.5825,8.5473,9.0836,0.94379,0.77885,0.29199,32.94,-15.84,-19.98,37.859367,39.980251,46.177238,0.7742333538801522,0.15363197,0.41702062,0.45061484
7.3336,271.2495,-8.97826,5.40371,2.91135,-0.11606,0.7141,0.16982,32.7,-16.08,-19.5,38.224186,41.515533,45.492058,0.7699622722526941,0.15287146,0.42721498,0.44863769
7.3532,271.2695,-8.3821,5.25288,2.27689,-1.90285,1.40438,1.27488,32.64,-16.62,-19.2,37.832146,42.556831,46.234627,0.7645323071430806,0.1430409,0.43433765,0.45429116
7.3722,271.2895,-4.44124,7.43639,7.17782,-2.93948,2.25959,1.25716,32.88,-16.62,-19.02,36.937386,42.393505,49.693123,0.7543403258938716,0.12391106,0.43530962,0.47552314
7.3924,271.3095,-5.54737,7.52976,8.98065,-2.97797,3.01095,0.9499,32.94,-16.68,-18.6,35.27734,42.811401,53.882935,0.740849299151259,0.09390745,0.43788183,0.50058287
7.4133,271.3295,-7.05811,5.69102,6.00226,-2.69147,3.02867,1.00487,33.66,-16.38,-18.42,33.615292,44.266785,57.694817,0.7241371905053471,0.06059776,0.44514537,0.52325791
7.4349,271.3495,-7.78116,5.47554,4.93445,-2.44468,1.60963,1.18386,34.02,-16.32,-17.7,32.316883,45.569496,61.24305,0.7071593745329944,0.03132945,0.45079204,0.5438112
7.4556,271.3695,-7.52976,5.34386,8.71489,-1.80266,0.45204,1.64262,34.92,-16.14,-16.74,31.484652,45.171551,64.698952,0.6949954086897421,0.01382674,0.44632903,0.5635429
7.4747,271.3895,-3.3878,7.51061,11.81299,-1.01892,0.70677,1.79655,35.52,-16.2,-16.5,31.565773,43.764259,68.028046,0.6834752198660133,0.00858584,0.43847254,0.58354926
7.4939,271.4095,-2.87304,8.64786,9.43555,-0.76358,1.94133,1.39338,35.64,-16.56,-16.26,32.283062,43.163429,70.808792,0.668817591887181,0.00601802,0.43776354,0.60084099
7.5137,271.4295,-6.00705,7.75482,5.58328,-1.23273,2.12581,1.50762,35.64,-17.34,-15.72,32.865784,44.041473,73.10144,0.6511376972499217,-0.00349278,0.44508025,0.61474472
7.5337,271.4495,-7.24485,6.06691,5.33428,-1.98165,1.67621,2.19667,35.4,-17.94,-15.6,33.100735,44.64386,76.103989,0.6315769811344627,-0.01690385,0.44911376,0.63176072
7.5567,271.4695,-4.64715,6.71574,7.32865,-2.15269,1.37689,2.83197,35.28,-18.6,-14.94,33.425037,43.9911,80.417038,0.6086705241235173,-0.02794375,0.44608411,0.65555191
7.5733,271.4895,-1.59454,8.61194,10.55125,-1.79961,1.7428,2.55708,35.22,-19.68,-13.8,34.10807,42.365711,85.43232,0.5830669473108324,-0.03343077,0.43931964,0.68257862
7.593,271.5095,-2.20027,8.24802,8.48505,-1.22478,2.24188,2.04945,35.28,-20.16,-13.56,34.825542,41.651482,89.762009,0.5568554902689463,-0.04118663,0.43774068,0.70469761
7.6142,271.5305,-3.00472,7.73806,6.17943,-0.7477,1.57115,1.75746,34.56,-21.66,-13.26,35.741474,41.715122,93.174309,0.5318591024252151,-0.04908354,0.44119561,0.72115403
7.6342,271.5506,-2.17633,6.43322,4.15633,-0.56505,0.64691,1.76907,34.02,-22.68,-12.3,36.848759,41.258858,95.852638,0.5123187079926407,-0.04991521,0.44354272,0.73369467
7.6538,271.5705,-0.49799,6.33745,5.93044,-0.53451,-0.03726,1.62612,33.54,-23.4,-12.0,38.04274,39.573067,98.550888,0.4967695545973332,-0.04245415,0.44121462,0.74615502
7.6729,271.5905,1.40779,7.01262,8.66462,-0.10507,-0.20036,0.96211,32.88,-24.9,-11.88,39.056259,37.16869,101.087791,0.48544661834482256,-0.03057031,0.4355152,0.75745201
7.6942,271.6106,-1.30723,4.13957,8.01579,0.50396,0.32315,0.56383,32.4,-25.38,-11.76,39.771286,35.473934,102.47596,0.47996807036449907,-0.02054887,0.43198368,0.7632814
7.7142,271.6305,-2.83234,2.37744,4.35026,0.61209,0.25229,0.90958,32.1,-26.04,-11.58,40.651764,34.854424,103.134666,0.4746411609811505,-0.01399134,0.43418205,0.76551026
7.7368,271.6505,-1.94409,2.7653,3.16992,0.37996,-0.43188,1.40316,31.86,-26.88,-11.4,41.73103,33.747452,104.250511,0.46736895250250954,-0.00483968,0.43556133,0.76930434
7.7547,271.6705,0.25618,3.60088,3.14838,0.31337,-0.96883,1.52472,31.8,-27.12,-11.1,42.909081,31.272963,106.182137,0.45941870125083845,0.01094522,0.43228769,0.77584922
7.775,271.6905,2.09493,4.75488,4.46279,0.40684,-1.61391,1.28526,31.62,-27.66,-10.56,44.139336,27.761814,108.504951,0.45243908010275974,0.03265894,0.42592585,0.78282785
7.7976,271.7115,1.83396,5.73172,6.25605,0.48869,-0.99449,0.8094,30.72,-28.86,-10.56,45.252289,23.72566,110.563225,0.4494750095152559,0.05846786,0.41753793,0.78753781
7.8184,271.7315,0.05028,4.76207,3.7565,0.20769,0.10018,0.77274,29.94,-30.18,-11.34,46.132774,21.278013,111.950821,0.4460137438500451,0.07468136,0.41418386,0.78990263
7.8377,271.7515,-0.94092,5.31513,2.36547,-0.29444,0.24007,0.93279,28.92,-31.68,-11.58,46.722534,19.90987,113.531105,0.43822523733477975,0.0813075,0.41365486,0.79387492
7.8553,271.7715,-0.30885,6.57208,3.05021,-0.86437,-0.13806,1.12399,28.62,-32.7,-11.82,47.009941,18.241583,115.548439,0.42934544897390325,0.08701833,0.41064066,0.79966527
7.8758,271.7915,0.70868,7.74045,4.40054,-1.4899,-0.46304,1.25472,28.2,-33.12,-12.66,46.733665,15.726825,118.149811,0.42078363049058976,0.0941742,0.40157783,0.8079651
7.8967,271.8115,0.78051,9.10994,6.8139,-1.8106,-0.48503,1.35673,27.42,-33.18,-12.6,45.788372,12.693461,121.060043,0.4129939159755878,0.10155687,0.38671979,0.81827259
7.9145,271.8315,-0.71587,9.35415,12.08832,-1.55465,-0.41783,1.44958,26.46,-32.46,-12.66,44.204407,9.884321,123.860001,0.40574825456278796,0.10596045,0.36832631,0.82974482
7.9337,271.8515,-0.62489,11.54484,14.85602,-0.35491,0.54306,1.40743,25.26,-32.4,-14.22,43.048973,7.698426,126.427238,0.396303287491205,0.10922757,0.35493287,0.83966404
7.9541,271.8715,-2.10211,11.98537,10.49379,0.46059,0.5565,1.15454,24.3,-32.52,-15.0,43.152458,6.942119,128.360703,0.38423633248623273,0.10918973,0.35494167,0.84525526
7.9738,271.8915,-2.61686,13.18487,7.57525,0.62553,-0.56505,0.91752,23.7,-32.52,-15.66,44.017448,6.226888,129.779007,0.3744296824176282,0.11319912,0.36019889,0.84690326
7.9962,271.9115,-3.06697,13.35725,9.72046,0.85155,-1.51861,0.51924,23.04,-33.36,-16.38,44.864544,4.38357,130.784637,0.3713440219821771,0.1266392,0.36140141,0.84584582
8.0144,271.9315,-3.65355,12.03326,10.75475,1.06963,-1.61452,0.30665,21.84,-34.26,-16.02,45.933884,2.125899,131.198349,0.37371233592399555,0.14561602,0.3623414,0.84133452
8.0338,271.9516,-3.94564,10.52252,10.16339,1.06657,-1.16492,0.27306,20.82,-34.86,-15.84,47.186447,0.030663,131.447556,0.37667167681512603,0.16432989,0.36494976,0.83541954
8.0558,271.9715,-4.40533,8.54012,9.73004,0.98105,-0.65851,0.38423,19.74,-35.76,-15.48,48.363461,-1.513042,131.746689,0.37779077337183503,0.17841725,0.36889249,0.83027691
8.0774,271.9915,-2.9305,8.18817,9.27753,1.08367,-0.4105,0.37874,18.72,-36.24,-15.06,49.407482,-2.234474,131.922897,0.3774425333094121,0.18638799,0.37439194,0.82621264
8.0941,272.0115,-2.34392,6.8953,8.20014,1.44714,-0.11912,0.02688,18.24,-36.78,-14.34,50.499126,-2.153355,131.638977,0.3777242484732276,0.19019833,0.38210493,0.82167196
8.1151,272.0314,-3.48835,6.50505,5.93044,1.32375,0.76603,-0.16616,18.12,-37.68,-13.62,51.900692,-1.104984,130.722061,0.3786825351145811,0.19030426,0.39411721,0.81550932
8.1354,272.0514,-2.83473,5.39892,2.2721,0.98166,1.19058,-0.135,18.18,-38.22,-12.78,53.154087,1.236447,129.459915,0.3773900208551984,0.18225142,0.40868282,0.81076479
8.1538,272.0715,-2.11169,5.42526,-0.08619,0.41722,1.09895,-0.24679,18.24,-38.64,-11.82,54.143311,4.043277,128.102859,0.3749450661457768,0.17076831,0.42271402,0.80719715
8.1746,272.0914,-1.4054,4.79559,-0.93134,-0.32987,0.69578,-0.35797,18.66,-38.46,-10.56,54.66629,6.765077,126.587914,0.37433985932913283,0.15917145,0.43302292,0.80437881
8.1951,272.1114,-1.64003,4.67348,3.40216,-0.74098,0.29932,-0.45326,18.9,-38.16,-9.48,54.257797,8.896687,125.116463,0.3775228418115438,0.14825,0.43527728,0.80376124
8.2136,272.1315,-1.29287,4.17549,6.57687,-0.42028,0.75931,-0.33598,19.02,-37.92,-8.88,53.287361,10.451483,124.006073,0.3817696200656543,0.13775276,0.43253002,0.80510491
8.2336,272.1514,-1.42934,3.84988,4.67827,-0.34697,1.23334,-0.13867,19.92,-37.86,-9.18,52.616276,12.251612,123.285667,0.381720549206551,0.12512213,0.43322429,0.80681509
8.265,272.1715,-1.14922,3.58412,5.26246,-0.71654,2.05006,0.25901,20.52,-37.92,-9.36,51.808609,13.998489,123.171532,0.3780204785975412,0.10992421,0.43353477,0.81059533
8.2816,272.1915,0.92177,5.06134,3.17471,-1.20707,1.60352,0.52107,20.82,-37.92,-9.3,50.955265,15.350945,124.249039,0.36751561591148035,0.09273662,0.433213,0.81771553
8.2938,272.2115,2.03986,5.95917,4.40294,-1.61696,1.72386,0.51374,21.42,-38.16,-9.42,49.726158,15.471094,126.24073,0.3560015485896433,0.07943276,0.42682728,0.8275094
8.3143,272.2314,2.38941,5.97593,5.64792,-1.93033,2.02257,0.33964,21.12,-38.04,-9.0,48.108788,15.379972,128.517014,0.3438986307128374,0.06536852,0.41692185,0.83883065
8.3348,272.2515,2.71263,6.10043,6.11719,-1.8106,2.3109,0.22419,21.36,-38.1,-9.24,46.264278,15.684787,130.763092,0.3307669519216059,0.04804906,0.40607408,0.8505224
8.3547,272.2715,2.66235,6.94079,6.32069,-1.44042,1.24922,0.05192,21.42,-37.86,-9.84,44.703323,16.030123,132.727875,0.3186036609280098,0.03283951,0.39668697,0.86026317
8.3753,272.2925,2.77249,7.40287,6.83066,-1.04336,0.6689,-0.11545,21.12,-37.02,-10.74,43.549751,15.563106,134.228348,0.3115489822887881,0.02709856,0.3875103,0.86720163
8.3979,272.3124,2.77727,7.67821,6.56969,-0.86499,0.23763,-0.2529,21.54,-36.84,-11.52,42.710426,14.835478,135.270432,0.3079348956070609,0.02620568,0.37969035,0.87196594
8.4146,272.3325,1.32399,8.20253,8.27197,-0.69883,-0.40806,-0.36835,21.48,-36.48,-11.82,42.014694,13.862127,135.87175,0.30802167725999535,0.02927568,0.37212345,0.87509412
8.4348,272.3525,0.33758,8.07085,9.93833,-0.15455,-1.07818,-0.42577,21.66,-36.24,-12.3,41.460072,12.502231,136.044159,0.3121976769831239,0.03724749,0.36440253,0.8765592
8.4547,272.3725,0.35195,8.9208,9.82341,0.28527,-1.39522,-0.45571,22.44,-35.76,-12.54,41.473213,10.816897,135.829391,0.31913945212981343,0.05085267,0.35977456,0.8752864
8.4747,272.3925,-0.577,8.90164,8.27676,0.34697,-1.43309,-0.47831,22.44,-35.28,-12.9,41.891705,9.183778,135.27182,0.32773995514184534,0.06643959,0.35798427,0.87179101
8.4951,272.4125,-1.98958,8.19775,7.7644,0.22969,-1.66033,-0.26878,22.26,-34.86,-13.74,42.263004,7.820251,134.498428,0.3372078206377803,0.08043581,0.35628459,0.86768788
8.5168,272.4324,-1.76692,8.64786,9.91678,0.51985,-1.97004,0.0452,22.44,-34.5,-14.64,42.541023,6.018724,134.003784,0.3460519369729384,0.09650546,0.35259137,0.86406833
8.5346,272.4525,-0.95529,9.26556,10.25915,1.07634,-1.96699,0.03971,21.78,-35.28,-15.24,43.279106,3.749619,133.855667,0.352976031660042,0.11646095,0.35100517,0.85944176
8.557,272.4725,-0.71347,9.15064,9.65103,1.42454,-1.91079,-0.11423,21.48,-35.52,-15.36,44.608662,1.578145,133.566147,0.3598806050339153,0.13789074,0.35378125,0.85223877
8.5746,272.4925,-1.33836,8.53533,8.85136,1.48807,-1.67316,-0.13317,21.36,-35.46,-15.66,46.214108,-0.236745,133.032852,0.3672595936346296,0.15812853,0.35918739,0.84326756
8.5959,272.5124,-1.47962,7.99424,9.42358,1.51922,-1.50639,0.01894,20.76,-35.52,-15.3,47.745178,-1.726571,132.498505,0.37384103713388916,0.17559034,0.36483708,0.83444881
8.6146,272.5325,-1.6496,7.80031,9.40442,1.7764,-0.98838,0.20464,19.74,-35.46,-14.82,49.250023,-3.020932,132.178406,0.3783650028182574,0.19073234,0.37107274,0.82629663
8.6355,272.5524,-1.94649,7.75243,7.56807,1.88146,-0.37751,0.35675,18.9,-35.88,-14.16,50.988873,-3.855976,132.162216,0.37899392507804613,0.20217292,0.38092372,0.81877154
8.6546,272.5724,-2.11647,7.72369,5.33668,1.67316,0.19181,0.45815,18.12,-36.78,-13.14,52.801727,-4.13975,132.329544,0.3764152982325322,0.20916089,0.39338624,0.81228721
8.6752,272.5925,-2.56898,8.35576,3.2609,1.18141,0.6298,0.55772,17.58,-37.44,-12.3,54.442333,-3.837205,132.623672,0.3710865464282064,0.21093529,0.40669027,0.80771536
8.6946,272.6125,-2.76291,9.46189,1.652,0.57482,0.88148,0.44471,17.94,-37.86,-10.92,55.732239,-3.047683,132.880356,0.3646259876187838,0.2083092,0.41889721,0.80509645
8.7147,272.6325,-2.97839,9.14106,1.02472,-0.06231,0.50519,0.16188,18.0,-38.4,-10.14,56.54105,-1.686036,132.65918,0.3599312996975402,0.20199986,0.4285391,0.8037411
8.7355,272.6525,-3.96719,7.24725,3.61046,-0.29993,-0.12706,-0.0171,18.42,-38.64,-9.12,56.69212,-0.181471,131.66127,0.3610278046473538,0.19566952,0.43260369,0.80263716
8.7547,272.6725,-4.22098,6.05254,4.86981,-0.07575,-0.39462,0.11912,18.6,-39.36,-8.34,56.568954,1.058478,130.347839,0.36574760959078095,0.19156221,0.43345639,0.80102944
8.7762,272.6924,-4.16352,4.90333,5.11641,0.19975,-0.51068,0.34697,18.48,-39.6,-8.46,56.577591,1.877609,129.305161,0.36990937675787416,0.18982036,0.43441045,0.79901367
8.7952,272.7125,-3.61285,4.14436,5.08528,0.47464,-0.21197,0.62369,18.42,-39.78,-8.46,56.72625,2.385862,128.671936,0.37210517913184693,0.18918729,0.43603444,0.79725772
8.8145,272.7324,-2.49236,3.7565,4.28323,0.60476,0.31521,0.97311,17.94,-39.96,-8.7,57.067257,2.779894,128.663147,0.3699937632344912,0.18764234,0.43963981,0.79662526
8.8348,272.7525,-0.99599,4.30477,2.85389,0.33353,1.19546,1.23883,17.22,-39.42,-8.58,57.511654,3.066766,129.530273,0.3619751786950729,0.1838039,0.44501311,0.79821891
8.8561,272.7725,1.45328,5.24091,1.81241,-0.41233,2.08427,1.27365,16.62,-39.66,-8.28,57.715961,3.316525,131.444534,0.3472193873380729,0.17525618,0.45019341,0.80377227
8.8746,272.7925,2.65038,5.46357,1.32639,-1.3213,2.44529,1.09895,16.2,-39.54,-7.32,57.182201,3.617842,134.071915,0.32849708705721486,0.16109648,0.45122421,0.8139621
8.8964,272.8125,2.27928,5.42287,3.33273,-1.8161,2.15025,0.92241,15.36,-40.26,-6.72,55.732231,4.088469,136.685318,0.31055642838465797,0.14308047,0.44577324,0.82726592
8.9164,272.8325,2.57616,5.59764,5.77242,-1.5968,1.44653,0.75259,14.76,-40.86,-6.6,53.830254,3.96758,139.336502,0.29493866612526914,0.12824452,0.43493769,0.84106702
8.9346,272.8525,3.39258,5.53539,6.27041,-1.06718,0.83444,0.5174,14.4,-40.8,-6.78,52.179001,3.210991,141.717819,0.2827298305202385,0.12037192,0.42354888,0.85216242
8.9546,272.8725,3.23935,5.58807,5.05655,-0.98594,0.23213,0.42455,14.34,-41.04,-7.74,51.025517,2.088289,143.634186,0.27411944962672224,0.11875737,0.41426852,0.85973066
8.9747,272.8925,3.43089,5.59285,5.51863,-1.11788,-0.26328,0.61942,14.34,-40.56,-9.06,49.830456,0.340419,145.442047,0.2681847685780733,0.12255637,0.40306309,0.86637002
8.9949,272.9125,4.85544,6.05015,6.66785,-1.07207,-0.59376,0.77336,14.28,-40.68,-9.9,48.450459,-2.223928,147.520584,0.26262696037263855,0.13171954,0.38892937,0.87316149
9.0156,272.9325,6.79235,6.78517,7.65666,-0.94623,-0.52779,0.66279,13.62,-40.68,-10.86,47.069889,-5.177876,149.658386,0.2570919419062323,0.14436075,0.37416145,0.87924224
9.0371,272.9525,7.60159,7.94396,7.75721,-0.78007,-0.06842,0.29138,12.48,-40.32,-11.88,45.850258,-7.673444,151.393143,0.2522893919011191,0.15573768,0.36138126,0.88402456
9.0571,272.9725,7.01501,9.29669,6.36618,-0.81795,0.27611,0.00855,11.46,-40.02,-12.66,44.947937,-9.172719,152.474258,0.2488208430221778,0.1624182,0.352521,0.88737673
9.0747,272.9925,6.76841,9.61033,4.86981,-1.10811,-0.08674,-0.24801,10.62,-39.66,-14.04,44.152882,-10.078726,153.051392,0.24719618227508391,0.16639581,0.34511825,0.88999993
9.0954,273.0125,6.03339,9.70609,6.7732,-1.2144,-0.83017,-0.48808,10.44,-39.54,-14.94,43.154198,-11.103999,153.034912,0.25039301811189724,0.17282884,0.3349641,0.89175814
9.1157,273.0325,5.27921,10.47224,11.17374,-0.7648,-1.70065,-0.76908,10.56,-39.42,-15.18,42.140793,-12.485614,152.404358,0.2591968295813767,0.18377794,0.32286933,0.89151448
9.1345,273.0525,4.88657,10.67575,14.71955,0.21502,-2.20156,-1.0739,10.62,-39.42,-15.48,41.727348,-13.769731,150.941406,0.2740621984280633,0.19713597,0.31416824,0.88731372
9.1548,273.0725,4.19464,10.72602,14.06354,0.98716,-1.94744,-1.21379,10.8,-38.88,-15.66,42.543625,-15.2559,149.347092,0.2905748401077288,0.21434134,0.31409881,0.87804669
9.1748,273.0925,3.47878,10.88165,11.15219,0.90591,-1.48318,-1.13804,10.56,-38.76,-15.78,44.036636,-16.397606,147.863876,0.30534483474571844,0.22974685,0.31998265,0.86694407
9.1947,273.1125,2.63123,10.83137,10.05325,0.52473,-1.10506,-0.93646,10.5,-38.64,-16.2,45.283493,-17.054548,146.464325,0.3179725229610476,0.24086682,0.3250438,0.85745156
9.2152,273.1325,2.88741,10.9846,10.96784,0.6524,-1.11788,-0.89919,10.68,-38.58,-16.5,46.155102,-17.470114,145.19545,0.32875666999468245,0.24918985,0.32791185,0.84988075
9.2348,273.1525,2.98796,10.83376,10.62547,1.19119,-1.25838,-1.11788,10.86,-38.94,-15.78,47.309269,-17.973564,143.99057,0.33925418109684896,0.2585693,0.33266503,0.84106034
9.2546,273.1725,3.30879,10.73081,9.52174,1.7318,-1.54488,-1.62246,11.28,-39.06,-15.72,49.196884,-18.533016,142.631821,0.35097212347032,0.27030465,0.34226972,0.82861656
9.2762,273.1925,3.10528,9.72285,8.74123,2.03235,-1.65911,-2.14719,12.18,-39.36,-15.24,51.803211,-18.877983,140.606033,0.3665298286803514,0.28412852,0.35597724,0.81129962
9.2958,273.2125,3.04303,8.83939,6.74207,2.00364,-1.39399,-2.56991,12.66,-39.36,-14.22,54.577339,-18.513357,137.721222,0.38511421587333894,0.29652527,0.37049744,0.79151213
9.3149,273.2325,2.35111,7.71651,5.46117,1.76418,-1.17164,-2.96209,13.8,-39.54,-13.68,57.227673,-16.935457,133.79866,0.4055398863892708,0.30475152,0.38498387,0.7710067
9.3346,273.2525,1.32639,6.24887,4.58968,1.53144,-0.98716,-3.27424,15.48,-39.54,-11.94,59.572784,-13.880958,128.531342,0.42814734867643,0.30858725,0.39868173,0.75001109
9.3547,273.2725,0.44293,5.01825,3.72298,1.3439,-0.88759,-3.44467,16.56,-39.48,-10.92,61.500084,-9.374722,121.95256,0.45209998562775977,0.30864552,0.41151613,0.72869611
9.3776,273.2925,-1.04627,3.96001,2.47082,1.16981,-0.95417,-3.47338,18.54,-38.58,-10.32,62.952034,-3.664786,114.254646,0.47669538410743073,0.30616421,0.42350957,0.7068696
9.398,273.3124,-2.32956,2.88501,2.21942,0.95112,-1.12705,-3.4013,20.52,-37.68,-9.6,63.764881,2.823943,105.70536,0.5022336380802632,0.30217436,0.43351036,0.68448579
9.4147,273.3325,-3.03824,2.49236,2.66953,0.74648,-1.13682,-3.14657,22.44,-36.72,-9.06,63.807869,9.656766,96.715317,0.52885419565343,0.29652879,0.4410288,0.66172314
9.4347,273.3525,-3.92649,2.74136,2.81798,0.62186,-1.18935,-2.88084,24.3,-35.46,-8.52,63.255863,16.127363,88.258659,0.553899811751364,0.28951472,0.44724965,0.63979995
9.4554,273.3724,-3.4668,3.46202,2.59292,0.52718,-1.20768,-2.7831,26.34,-34.56,-8.04,62.401917,21.726313,80.715843,0.5768903734474795,0.28329164,0.45229098,0.61836576
9.4748,273.3925,-5.34386,2.81319,2.67911,0.38118,-1.11911,-2.87656,27.72,-33.36,-7.92,60.968502,27.213675,73.31749,0.6006568189236049,0.27449372,0.45701978,0.59581667
9.4947,273.4125,-6.74447,3.10289,2.62165,0.15272,-0.91813,-2.66459,29.28,-31.62,-8.46,58.838837,32.704254,66.14814,0.6249136582370717,0.26112819,0.46271351,0.57200629
9.5147,273.4325,-7.58004,3.03585,2.12605,-0.15821,-0.9334,-2.31457,31.14,-29.64,-9.18,56.33186,37.272831,60.291897,0.6466224458797382,0.24530029,0.46824151,0.54996097
9.5347,273.4525,-6.6463,3.47638,1.37906,-0.48258,-1.30786,-2.06045,32.46,-28.02,-9.24,53.740063,40.461803,55.890171,0.6661621694827001,0.23007891,0.47123754,0.53030825
9.5566,273.4725,-8.77236,3.24893,2.3104,-0.86315,-0.96456,-1.80327,33.66,-26.1,-10.08,50.897259,42.41584,52.634628,0.6856482389214665,0.21425954,0.47039872,0.51254696
9.575,273.4925,-8.90164,3.64398,2.30083,-1.30725,-0.80695,-1.29015,34.5,-24.84,-10.8,48.024143,43.744831,50.59724,0.7016208247906507,0.19599558,0.46904165,0.49931341
9.5949,273.5125,-8.00861,3.25611,1.91776,-1.84481,-0.62369,-1.03297,34.98,-23.28,-11.4,45.182583,44.32991,49.865261,0.7142578474452513,0.17577305,0.4658373,0.49186906
9.6166,273.5325,-9.69891,3.01191,2.0231,-2.4288,-0.61514,-0.62492,35.1,-21.96,-12.72,42.132347,44.493542,50.134171,0.7246962870220038,0.15167123,0.46097097,0.48920026
9.6368,273.5525,-11.91834,3.39258,4.02944,-2.89061,-0.96395,0.06414,35.28,-20.7,-14.22,38.99659,43.830265,51.562199,0.7333013821047675,0.12581423,0.45148957,0.4925414
9.6554,273.5725,-10.87207,4.9129,8.51378,-2.93826,-1.0287,0.78618,35.28,-19.26,-15.24,36.135315,41.891289,54.273502,0.7395637244353054,0.10274847,0.43455592,0.50363618
9.6746,273.5924,-8.98783,7.64229,11.42034,-2.44224,-0.00428,1.10933,34.86,-18.6,-17.22,33.924477,39.718487,57.613754,0.7405301882161686,0.0838638,0.41693947,0.52033007
9.6957,273.6124,-9.31584,8.63828,11.1498,-2.25348,0.1576,1.25472,34.2,-18.06,-18.42,32.377888,38.608013,60.789555,0.7351523888001413,0.06633938,0.40697098,0.53807497
9.7157,273.6325,-9.26077,9.72046,13.94144,-1.97187,-0.08125,1.71164,33.96,-17.46,-18.48,31.314747,36.976124,64.293106,0.7276580669946583,0.05424742,0.39471883,0.55836189
9.7364,273.6525,-7.40287,10.38605,15.45697,-1.2144,0.22602,2.06045,33.18,-17.52,-19.56,30.865738,35.182732,67.877014,0.7174233026036945,0.04780013,0.38331905,0.57972878
9.7549,273.6724,-5.8227,9.9934,13.20881,-0.80756,0.58093,2.18995,32.64,-17.58,-19.44,31.21051,33.944527,71.176193,0.7034329064442265,0.04561989,0.37836796,0.59994888
9.7745,273.6924,-5.31034,9.32063,11.99974,-0.58521,0.63713,2.39337,32.64,-17.7,-19.92,31.879631,33.042671,74.422127,0.6869460095287034,0.04432428,0.37699488,0.61968976
9.7948,273.7125,-3.19865,8.58561,10.90559,-0.22785,0.46609,2.52776,31.92,-18.48,-20.58,32.911507,32.060699,77.671417,0.6689380556783446,0.04600068,0.37702394,0.6389513
9.8169,273.7325,-2.2314,7.86735,10.20169,0.18204,0.54489,2.35427,31.5,-19.02,-20.4,34.272446,30.914024,80.73159,0.6509066022120608,0.05142726,0.3779788,0.65635955
9.8361,273.7524,-2.48039,6.36139,9.01178,0.55344,0.51618,2.23393,31.44,-20.28,-20.34,35.863361,29.88274,83.399879,0.6335458881642976,0.05892015,0.38104317,0.6707862
9.8556,273.7724,0.47645,7.185,9.74201,0.82955,0.54734,2.02502,30.66,-21.6,-20.28,37.665436,28.537867,85.991028,0.6166376113386207,0.06973664,0.38396516,0.68371457
9.8746,273.7925,0.44772,6.60321,8.80827,1.0684,0.67867,1.50029,30.06,-23.04,-19.98,39.511845,27.363165,88.190376,0.601101552243146,0.08096869,0.38840479,0.69373101
9.8975,273.8124,-2.00395,4.89854,6.82826,1.07634,0.97189,1.22906,29.34,-24.9,-19.8,41.174698,26.849144,89.629211,0.5884029170125544,0.08944759,0.39524367,0.6996882
9.9162,273.8325,-3.79242,2.79643,4.82432,0.83444,0.95051,1.49173,28.62,-26.46,-19.38,42.545753,26.89517,90.852791,0.575970513908397,0.09327468,0.40345427,0.70482796
9.935,273.8525,-4.3359,2.59771,5.03261,0.70983,1.18019,2.1081,28.08,-27.78,-18.72,43.713047,26.592312,92.626144,0.5619701712898945,0.09589679,0.40942687,0.71229416
9.955,273.8725,-2.22421,2.89698,4.58968,0.60659,1.28648,2.51249,28.08,-29.16,-17.88,44.979511,25.956499,95.370979,0.5425884326353128,0.09749416,0.41532153,0.72360259
9.9756,273.8925,-0.23942,2.77488,4.87938,0.6463,1.51861,2.53143,27.66,-30.48,-16.74,46.23027,24.799755,98.836823,0.5203232234862637,0.09943499,0.41967744,0.7370531
9.9963,273.9125,-0.67038,1.86269,4.57293,0.79168,1.68293,2.46057,27.06,-31.68,-16.08,47.412743,23.739552,102.464584,0.49659037385003735,0.09952574,0.42469811,0.75041598
10.0147,273.9325,-1.04387,0.8691,4.45561,0.86804,1.55343,2.58885,26.28,-33.36,-14.88,48.464439,22.739069,106.032524,0.47318401644131447,0.09846967,0.42957017,0.76280409
10.0383,273.9525,0.10295,1.45328,3.80918,0.96578,1.57237,2.71896,24.42,-34.32,-13.44,49.923717,21.360676,109.944389,0.44729842199159425,0.10044418,0.43602782,0.77441257
10.0556,273.9725,0.02155,2.49236,1.43413,0.77824,1.61146,2.60839,23.1,-35.28,-12.42,52.040874,20.105831,113.892792,0.41842909478634954,0.10412191,0.44760618,0.78340566
10.0761,273.9924,-0.08619,2.81319,-0.09337,0.19059,1.42454,2.57174,21.24,-36.36,-10.92,53.742279,18.528637,118.047195,0.3907364431444903,0.10647048,0.45638028,0.79227906
10.0956,274.0125,-0.31364,1.84832,-1.45807,-0.74342,0.97005,2.75622,19.32,-37.56,-9.36,54.624413,16.13703,122.856789,0.3641753974197313,0.10774764,0.45861596,0.80339164
10.1151,274.0325,0.73023,1.53708,-0.74699,-1.59925,0.18937,3.14229,18.18,-38.34,-8.58,54.381046,12.294026,128.731613,0.3384885544380312,0.11067922,0.4508124,0.81850094
10.1346,274.0525,3.49793,2.0638,2.71981,-2.18629,-0.18021,3.40252,16.38,-39.36,-7.98,53.019646,6.973797,135.416534,0.3136931057086577,0.11863972,0.43287322,0.8367449
10.1558,274.0725,5.08528,2.26252,6.68222,-2.03052,-0.15455,3.33655,14.4,-39.6,-7.98,50.808155,1.577876,142.019241,0.28833037760863983,0.12782648,0.40965912,0.85598212
10.1753,274.0925,6.76601,3.48596,10.13226,-1.12521,-0.15088,3.12152,12.6,-39.72,-9.0,47.810066,-4.738726,149.111221,0.2593981638704696,0.14424981,0.38019019,0.87599087
10.1946,274.1125,8.27197,4.97276,9.70609,-0.06964,0.31398,2.83991,10.26,-40.14,-10.32,45.641365,-9.927065,155.118469,0.23059145142099896,0.16111736,0.36014071,0.88947594
10.2152,274.1324,8.339,6.39491,6.79953,0.32681,0.59865,2.58824,7.92,-40.26,-11.58,44.46928,-14.09304,160.55159,0.20091880198380205,0.17535305,0.35096684,0.89761084
10.2348,274.1525,8.08761,7.82186,4.24013,0.03176,0.61514,2.26936,5.64,-40.62,-12.54,43.696987,-17.673351,165.488113,0.17255016041334112,0.18788813,0.34678262,0.90258867
10.2549,274.1725,7.96551,7.91523,2.54743,-0.85277,0.37813,1.90407,3.48,-40.74,-12.9,42.667854,-20.700705,169.562439,0.14843960833562286,0.19921422,0.34117684,0.90657473
10.2763,274.1935,9.71328,8.2983,5.99987,-1.73669,0.00061,1.55954,1.32,-40.98,-13.26,40.743069,-23.117754,172.317795,0.1311205813613366,0.21026701,0.32769686,0.91170716
10.2959,274.2134,11.91115,9.67018,11.6047,-1.52716,-0.18815,1.05619,-0.6,-40.92,-13.92,38.029453,-24.994249,173.904892,0.11947531463113059,0.22120515,0.30676517,0.91798097
10.3156,274.2335,12.13142,9.68694,12.81377,-0.67867,-0.08491,0.38973,-1.86,-40.68,-14.82,36.206543,-25.412729,174.146881,0.11559693983849657,0.22426978,0.29205155,0.92252171
10.3368,274.2535,10.16099,8.18578,9.94791,-0.17104,0.08002,-0.10446,-2.64,-40.92,-15.6,35.526035,-25.461733,174.066177,0.11522055913391317,0.22498706,0.2863192,0.92418957
10.3568,274.2734,7.99663,7.09881,7.94875,-0.15149,0.08063,-0.10446,-3.0,-40.44,-15.96,35.445908,-25.213333,173.736908,0.11712204158570434,0.2238166,0.28527486,0.92455763
10.3757,274.2935,7.23049,7.43878,7.41005,-0.31276,-0.00977,0.20953,-3.18,-39.66,-16.44,35.253426,-25.396387,173.727722,0.11732804471616365,0.22534263,0.28350425,0.92470545
10.3957,274.3135,8.43956,8.25281,7.75721,-0.45876,-0.10324,0.4215,-3.18,-39.42,-16.56,34.760334,-25.89641,174.014633,0.11539841566490347,0.22874698,0.27955386,0.9253149
10.4167,274.3334,10.01495,9.38048,9.27274,-0.37568,-0.28527,0.25412,-3.54,-38.76,-17.34,34.085171,-26.185234,174.149292,0.11382952399306005,0.23086478,0.27403873,0.92663211
10.4364,274.3535,11.35809,10.05565,11.1474,0.16066,-0.57116,-0.40378,-3.96,-38.52,-17.82,33.730934,-26.584078,174.040634,0.11502683884200421,0.23440535,0.27053413,0.92662519
10.4558,274.3735,10.68532,9.67018,11.30542,0.8882,-0.66218,-1.29626,-4.02,-38.76,-18.0,34.397438,-26.982208,173.388611,0.12243221304226552,0.23907158,0.27419817,0.92340159
10.4761,274.3935,8.51618,8.70292,9.4571,1.29565,-0.65973,-1.78739,-4.02,-38.52,-18.24,36.164467,-27.058332,172.133026,0.13584079311647804,0.24256346,0.28580269,0.91707528
10.4957,274.4135,7.4316,8.15226,7.93917,1.34757,-0.83505,-1.86253,-3.78,-38.52,-17.34,38.462128,-26.979467,170.566269,0.1520747984935455,0.24584632,0.30109495,0.90872145
10.5157,274.4335,7.55849,8.19056,7.33344,1.26205,-0.87842,-1.98348,-2.82,-39.18,-16.86,40.799526,-26.933165,168.910004,0.16887066743605209,0.25000668,0.31630716,0.89940488
10.5364,274.4535,7.70454,8.37492,7.44118,1.27243,-1.00793,-2.35489,-1.44,-39.66,-15.84,43.102238,-26.791075,166.967056,0.1872332543410242,0.25463763,0.33057475,0.8892827
10.5567,274.4735,7.41484,8.19056,7.15148,1.48135,-1.13987,-2.89061,0.12,-40.74,-14.76,45.548115,-26.613491,164.602539,0.20849643540348578,0.26077244,0.34487972,0.87725991
10.5805,274.4935,6.19619,7.07965,6.22492,1.68171,-1.51495,-3.52653,1.56,-41.34,-13.86,48.280746,-26.392633,161.757111,0.23302686177965462,0.26881084,0.36011389,0.86241359
10.5996,274.5135,4.38139,5.87777,5.80594,1.76845,-1.88269,-3.80019,3.3,-41.82,-12.54,51.338417,-25.73753,157.917709,0.26296776855399673,0.2778981,0.37603369,0.84393084
10.6164,274.5335,2.59771,4.55138,4.77643,1.66766,-2.01586,-3.722,5.34,-42.36,-11.28,54.363197,-24.699366,153.452484,0.2946128466408976,0.28763363,0.39063618,0.82333076
10.6363,274.5535,1.7741,4.10606,4.03662,1.45203,-2.22355,-3.47216,7.14,-42.42,-10.08,57.054245,-23.334583,148.613113,0.3257188921091397,0.29756296,0.40221277,0.8022396
10.6601,274.5735,1.5706,4.8291,4.47716,1.37139,-2.38482,-3.13313,9.78,-42.42,-9.18,59.307392,-21.8358,143.577194,0.3556914785990335,0.30817643,0.410027,0.78127378
10.6807,274.5934,1.47722,5.08528,3.28484,1.25227,-2.43002,-2.90466,12.24,-42.0,-8.1,61.316017,-20.52388,138.720978,0.3833779793239799,0.32027459,0.41553342,0.76011676
10.7041,274.6135,0.87388,4.85784,2.32477,0.86682,-2.36222,-2.83808,14.28,-41.34,-7.26,63.090355,-18.915442,133.633392,0.40996505351635026,0.331889,0.41925824,0.73891872
10.7189,274.6335,-0.49081,4.35505,2.99275,0.56383,-2.31823,-2.63894,16.68,-40.62,-6.54,64.351021,-16.316648,127.687103,0.43717607131230557,0.34018353,0.42019495,0.71874088
10.7363,274.6535,-0.6608,4.6256,3.91931,0.43677,-2.18507,-2.34511,18.66,-39.96,-5.46,65.097916,-13.26138,121.475502,0.46347276724292447,0.34614149,0.41864753,0.70008093
10.7563,274.6735,-0.56982,4.95121,4.2138,0.405,-2.02135,-2.21255,20.52,-39.24,-4.98,65.511703,-10.156301,115.513046,0.4874252173327395,0.35049236,0.41611186,0.68295145
10.7775,274.6935,-1.47962,4.41012,3.87382,0.40928,-1.76051,-2.15941,21.78,-38.4,-5.22,65.731537,-6.552658,109.302589,0.5104534089531658,0.35260516,0.41413251,0.66603392
10.7975,274.7135,-2.27928,4.32872,3.19387,0.47037,-1.68782,-1.98898,23.34,-37.38,-5.34,65.829422,-2.39564,102.881897,0.5320339112946483,0.35235488,0.41388112,0.64922136
10.8177,274.7335,-2.56419,4.81713,2.26491,0.52901,-1.77456,-1.85886,24.42,-36.42,-6.12,65.961197,1.727261,96.558121,0.5520731910430242,0.35279158,0.41467205,0.63150644
10.8481,274.7535,-2.07098,5.3271,1.61609,0.34819,-1.65728,-1.95049,25.14,-35.52,-6.6,66.139565,5.679974,90.383583,0.5706669591640819,0.35461634,0.41591489,0.61286318
10.8589,274.7745,-2.19309,4.69264,1.04387,-0.16188,-1.25777,-2.19423,26.34,-34.68,-6.6,65.965347,10.221509,83.711906,0.5899429189149148,0.35399899,0.4174591,0.59361601
10.8796,274.7945,-3.47399,4.06775,0.16999,-0.77213,-1.46608,-2.22416,27.24,-33.66,-7.38,65.069489,14.89592,77.389229,0.608868744507217,0.34789383,0.41868034,0.57702297
10.8993,274.8144,-5.21936,3.52187,1.50595,-1.08551,-1.64995,-1.97004,28.5,-32.28,-8.22,63.332237,18.929161,71.458336,0.6311140352921017,0.33863276,0.4159995,0.56032789
10.9183,274.8345,-5.94241,4.0869,1.71425,-1.39399,-1.49845,-1.51922,29.64,-30.9,-9.42,61.156143,22.580486,66.125938,0.6532284557685348,0.32613036,0.41342211,0.54407144
10.94,274.8545,-6.35421,4.12521,2.33195,-1.89674,-1.62368,-1.26938,30.42,-29.64,-11.4,58.621563,24.821426,62.51899,0.673374397126375,0.31145161,0.40829405,0.53184658
10.957,274.8745,-6.8115,3.86185,3.45483,-2.43063,-1.67499,-1.08551,30.72,-28.74,-12.78,55.519196,25.789637,60.207886,0.6941107652636505,0.2937285,0.398563,0.52257186
10.9773,274.8945,-8.07085,3.3878,4.98712,-2.89367,-1.1863,-0.59071,30.18,-27.54,-14.22,51.848141,25.84071,59.122505,0.7142688800458014,0.2714318,0.38514331,0.51750302
10.9976,274.9145,-7.97269,3.52426,5.31992,-3.41168,-0.7196,-0.09163,29.76,-26.34,-16.02,47.925087,25.443512,59.458736,0.7296996317534592,0.24423039,0.37121084,0.51970422
11.0215,274.9345,-8.58561,3.53624,10.76912,-3.31089,-0.66218,0.23152,29.52,-24.84,-17.58,43.575127,24.354948,61.115849,0.7418057139953684,0.21284209,0.35312694,0.5288893
11.037,274.9545,-11.31021,3.84748,14.10185,-2.46667,-0.51496,0.61148,29.16,-23.22,-19.68,39.640823,23.277376,63.032345,0.7497438419174804,0.18390432,0.33539557,0.53997517
11.0568,274.9744,-11.65737,3.97916,12.74673,-1.71409,-0.16921,1.4056,29.16,-22.08,-21.84,36.847042,22.468971,64.997437,0.7517615348011473,0.16212983,0.32244176,0.55190563
11.078,274.9944,-8.03494,6.02381,11.69567,-1.60841,0.13744,2.15086,29.34,-21.18,-23.28,35.334732,21.284311,67.881363,0.7455972925606476,0.14920296,0.31251729,0.56934708
11.0979,275.0145,-4.25689,8.06128,13.56315,-1.76662,0.58277,2.26814,28.8,-20.4,-24.54,34.276318,19.647844,71.744911,0.7335261505147681,0.13974071,0.30226263,0.59249407
11.1175,275.0345,-3.56257,9.19613,14.48971,-1.49906,1.21501,1.98837,28.08,-20.04,-25.2,33.226364,18.492914,75.573563,0.7193179625769414,0.12867297,0.29459235,0.61582488
11.1365,275.0544,-3.5937,10.14663,11.36767,-1.49906,1.56809,1.79045,27.18,-20.04,-25.62,32.351978,18.255493,78.847916,0.7044263513183153,0.11572162,0.29236847,0.63632751
11.1566,275.0744,-3.67989,10.0317,8.9615,-2.16124,1.64995,1.75318,26.76,-19.98,-26.16,31.21917,18.588337,81.988907,0.6888846226330299,0.09839238,0.29159856,0.6562981
11.1766,275.0945,-2.37265,9.663,11.82496,-2.42697,1.79778,1.8497,26.34,-20.52,-26.28,29.406679,18.906132,85.309158,0.6734623532950736,0.07649266,0.28647813,0.67714667
11.1995,275.1144,-3.12922,8.76038,14.85123,-1.69943,1.42942,2.20461,26.46,-20.7,-26.76,27.626858,19.282022,88.852142,0.655715006534507,0.05426432,0.28091297,0.69869959
11.2166,275.1345,-1.87466,8.31267,14.19762,-0.83078,1.30786,2.35061,26.94,-20.4,-26.58,26.906755,19.321062,92.377945,0.635564268832824,0.04100473,0.27849293,0.7189008
11.2367,275.1545,-1.31681,7.42681,12.72518,-0.30238,1.12094,2.36405,26.94,-20.58,-26.22,27.047396,19.383303,95.653412,0.6142682546846525,0.03345406,0.28072447,0.73671508
11.2577,275.1744,-1.92494,5.70299,11.24317,0.23885,0.86193,2.53448,27.06,-20.46,-26.04,27.76963,19.227865,98.717682,0.5929971209355727,0.03107877,0.2851308,0.75238883
11.2768,275.1945,-2.98318,3.84269,10.70208,0.97311,0.14661,2.89245,27.24,-20.76,-25.56,29.148689,18.464872,101.824165,0.5709821563193125,0.03608119,0.29068875,0.76692736
11.298,275.2144,-2.16675,2.54025,9.53371,1.78312,-0.06475,3.32433,26.52,-22.08,-24.96,31.310919,16.723524,105.117889,0.5480105001050941,0.05113202,0.29710841,0.78025419
11.3193,275.2345,0.21308,1.70946,7.83143,2.04945,0.3146,3.70917,25.62,-23.34,-24.66,33.962574,14.454358,108.881111,0.5218828202964577,0.07061605,0.30567732,0.79322952
11.3382,275.2545,4.956,3.52905,9.18416,2.20706,0.73243,3.78248,24.48,-25.86,-23.4,36.720444,11.712954,113.577431,0.4902419339579442,0.09060439,0.31520656,0.80752617
11.3591,275.2745,6.10521,4.37181,9.69173,2.66826,1.72814,3.26019,22.56,-28.5,-22.74,39.477962,8.92056,118.700958,0.455781684349953,0.10867857,0.3269901,0.82068843
11.3775,275.2945,4.10606,4.09648,6.4811,2.89611,2.49538,2.62428,21.0,-31.14,-21.54,42.481701,7.340635,123.343925,0.42096094581581633,0.11903937,0.34656209,0.82976878
11.398,275.3145,1.17076,2.86586,2.07577,2.42636,2.99019,2.47339,19.2,-33.66,-19.8,45.480324,6.708055,127.496872,0.38694932315445413,0.12229203,0.36995611,0.83573163
11.4167,275.3345,-0.3304,2.78206,-2.09732,1.1753,3.11114,2.70491,17.82,-35.28,-17.88,47.985355,6.31504,131.946823,0.35095956555498725,0.11934619,0.39131436,0.84229267
11.4379,275.3544,-0.0407,2.77009,-2.45166,-0.33842,2.76661,2.84052,16.44,-36.72,-15.18,49.221291,6.342657,136.379044,0.3158796908000479,0.10779373,0.40473422,0.85134643
11.4588,275.3745,-0.01915,0.87628,-1.93451,-1.664,1.79411,3.16917,15.3,-37.74,-12.84,48.812977,5.427128,141.368515,0.2824157413365591,0.09583953,0.40377128,0.86488432
11.4768,275.3945,1.47243,0.69432,0.77093,-2.4624,0.55405,3.48621,14.4,-38.64,-11.16,46.956402,2.880356,147.032684,0.25056736392244466,0.09090205,0.38844639,0.88207835
11.4965,275.4144,3.86664,1.06063,8.22648,-2.25715,-0.10385,3.42023,13.14,-39.6,-11.1,44.112617,-0.909856,152.761642,0.22112560157910202,0.09557132,0.36321467,0.90002483
11.5166,275.4345,6.05494,1.20189,9.05487,-1.19058,0.54978,2.99813,11.46,-40.26,-11.4,40.834061,-5.574388,158.591583,0.19053227951048282,0.1094972,0.33391032,0.91663063
11.5366,275.4545,7.35499,2.58334,6.95994,-0.52351,0.56566,2.57358,9.42,-40.68,-12.66,38.518581,-9.070578,163.567413,0.16030416578728002,0.12087213,0.31476793,0.92769265
11.557,275.4744,7.08205,4.64954,4.86741,-0.47892,0.87109,2.17957,7.02,-40.92,-14.4,37.015148,-12.016815,167.792267,0.13331630510168213,0.13226536,0.30334201,0.93419284
11.5792,275.4954,6.24168,4.93684,3.12204,-1.15454,1.0177,1.75685,4.44,-40.86,-15.0,35.644444,-14.140676,171.22789,0.10981443193455721,0.14006639,0.29388604,0.93912363
11.6023,275.5154,5.97593,4.16591,3.46202,-1.87963,0.81856,1.6475,3.12,-40.74,-15.9,33.52562,-15.620889,173.902283,0.08959345909660742,0.14513487,0.27840954,0.94519681
11.6195,275.5355,7.29513,4.12042,5.83706,-2.19973,0.09774,1.69332,1.74,-40.26,-16.5,30.822861,-17.071276,175.904266,0.07348620899660953,0.15238735,0.25752395,0.95134604
11.6376,275.5554,9.89284,5.66947,10.43872,-1.68477,-0.73426,1.42576,0.48,-39.6,-17.1,27.889423,-19.092981,177.555771,0.06037064634830079,0.16599211,0.23416109,0.95601809
11.6583,275.5753,11.30542,6.03099,11.26232,-0.9334,-0.83322,0.56016,-0.42,-38.46,-18.42,25.751957,-21.461205,178.698792,0.05236300614564984,0.18398401,0.21686955,0.95727509
11.679,275.5963,9.53371,4.53941,9.9934,-0.61942,-0.85765,-0.06414,-1.74,-37.56,-20.1,24.602873,-23.432575,178.960648,0.0519402401021712,0.2002873,0.20680782,0.95625192
11.7009,275.6165,6.95276,3.83791,9.60554,-0.56444,-0.88087,0.05742,-2.76,-37.02,-21.66,23.91699,-25.035007,178.699646,0.05574352757149753,0.21431592,0.19985874,0.95447254
11.72,275.6364,6.11,5.25288,9.83778,-0.6182,-0.78496,0.48136,-3.6,-36.66,-22.56,23.21035,-26.546211,178.593689,0.057882867409023236,0.22728522,0.19301784,0.95275134
11.7389,275.6564,6.54096,6.36618,9.47386,-0.73121,-0.85277,0.82406,-4.26,-36.72,-23.16,22.334055,-27.971758,178.80867,0.0566995287673543,0.2390478,0.1854534,0.9514454
11.7599,275.6765,7.49385,6.84263,9.72285,-0.66279,-1.45142,0.97494,-4.92,-36.54,-23.34,21.286432,-29.594172,179.207474,0.05373899046058303,0.25223178,0.17682739,0.94985437
11.7787,275.6965,9.21768,8.16902,11.56878,-0.26206,-2.10565,0.82894,-5.82,-36.06,-22.92,20.281073,-31.842949,179.665222,0.05106219675434873,0.27052796,0.16851956,0.94647157
11.8031,275.7164,11.77947,9.73004,12.90235,0.31093,-2.18873,0.18509,-6.78,-35.4,-22.98,19.691015,-34.534657,-179.941086,0.05027222455480027,0.29237479,0.16343589,0.94089234
11.8199,275.7364,11.92552,9.50977,11.46583,0.7367,-1.90162,-0.78802,-7.86,-34.56,-22.8,20.123877,-37.062237,-179.942017,0.05505488045614633,0.31284755,0.16581239,0.93359607
11.8388,275.7564,10.71166,8.41562,9.76116,0.8436,-1.60719,-1.47096,-9.06,-34.32,-21.72,21.5044,-39.046196,179.442017,0.06685349000064875,0.32917193,0.17423491,0.92564499
11.8585,275.7763,10.08198,7.76679,8.74123,0.70921,-1.21318,-1.99692,-9.54,-34.26,-21.3,23.399483,-40.4547,178.318817,0.0835832215795668,0.34131789,0.18528943,0.91770571
11.8798,275.7964,9.72046,6.86896,7.99663,0.51068,-0.75808,-2.41536,-9.78,-34.92,-20.22,25.538069,-41.130276,176.636414,0.10440377114061207,0.34851041,0.19679299,0.91044652
11.8996,275.8164,9.25598,5.95438,7.83862,0.40623,-0.38362,-2.84236,-9.54,-35.82,-19.08,27.840775,-40.973202,174.418121,0.1283704872541414,0.35027972,0.20854972,0.90406424
11.9228,275.8363,8.9184,5.17626,7.43878,0.50641,-0.0788,-3.39213,-8.46,-36.6,-18.6,30.403027,-40.136116,171.695648,0.15536905696531692,0.34809366,0.2216723,0.89752585
11.9386,275.8564,7.75961,3.98874,6.25365,0.58154,-0.04093,-3.98956,-6.96,-37.32,-18.18,33.144859,-38.912567,168.600433,0.18429017140006926,0.34438261,0.23590317,0.88982439
11.9587,275.8764,6.15549,2.62165,5.97832,0.66401,-0.32498,-4.50696,-4.56,-37.86,-18.12,36.117573,-37.227036,164.776321,0.2174208920520301,0.33969977,0.25099257,0.87996304
11.9806,275.8964,4.80037,1.2785,6.22253,0.88759,-0.50885,-4.84599,-2.04,-38.88,-18.24,39.161552,-35.242989,160.225357,0.2541377761342875,0.33583069,0.26569027,0.86720264
11.9997,275.9164,3.66073,0.54109,5.2433,1.16614,-0.66584,-4.9474,0.54,-39.0,-18.24,42.227077,-32.935776,155.211441,0.29174876173205366,0.33242893,0.28062931,0.85183382
12.0187,275.9364,2.44687,0.28012,3.59609,1.23761,-0.86193,-4.75253,3.66,-39.48,-17.82,45.182304,-30.446381,149.917542,0.328608512966184,0.33032084,0.29505891,0.83417314
12.0398,275.9564,1.46286,1.1971,1.93212,1.02137,-1.17103,-4.49658,6.66,-39.54,-16.86,47.774654,-28.022352,144.568527,0.36334317151562046,0.3304297,0.30689743,0.81523734
12.0598,275.9764,0.5794,1.66876,1.58736,0.59743,-1.38605,-4.48803,10.08,-38.7,-16.02,50.473679,-25.05582,138.539597,0.39905570838347754,0.33083287,0.31981051,0.79311121
12.0801,275.9964,-0.75417,1.40061,2.16196,-0.02993,-1.36284,-4.38479,13.32,-38.22,-15.18,52.962631,-20.902662,131.202377,0.43727364936332924,0.32900828,0.33227417,0.76820517
12.1001,276.0164,-1.86748,1.75734,2.04465,-0.61392,-1.30908,-4.13128,16.62,-37.5,-14.28,54.369064,-15.956813,123.158394,0.47504183892770363,0.32392097,0.33914232,0.74457568
12.1199,276.0364,-2.74854,1.92494,1.46046,-1.10383,-1.61391,-3.94741,19.26,-35.94,-14.7,54.642559,-10.846695,115.021355,0.5116768916513755,0.3162623,0.34030807,0.72274154
12.1398,276.0564,-3.5913,2.25773,3.12922,-1.32313,-2.17285,-3.65236,21.54,-34.32,-15.12,53.972107,-6.455487,107.185921,0.5486176769265052,0.30927679,0.33484781,0.70088762
12.1615,276.0765,-3.52905,2.63362,4.2545,-1.45508,-2.08183,-3.24492,23.76,-32.4,-16.02,52.781487,-3.310577,100.244225,0.5839484339669115,0.30472511,0.32437485,0.67891663
12.18,276.0964,-3.57933,3.06697,3.51948,-1.99875,-1.85337,-2.91261,24.78,-30.06,-17.7,51.130726,-0.92189,94.417816,0.6153445688050249,0.29847336,0.31173939,0.65960842
12.2007,276.1164,-5.48272,2.85149,5.27921,-2.48744,-1.22356,-2.20828,26.22,-28.2,-18.72,48.34602,2.087728,88.680428,0.647166242211949,0.28120571,0.29804143,0.64286119
12.2217,276.1365,-6.22253,4.22577,5.99987,-2.61756,-0.47709,-1.56137,27.48,-26.16,-20.1,44.873253,5.232908,84.224388,0.6732797401384609,0.25453895,0.28697044,0.63210148
12.2487,276.1564,-5.79636,4.65193,5.35104,-2.59434,-0.70433,-1.21562,27.84,-23.94,-21.66,41.456203,7.687817,81.323868,0.6924092433320646,0.22702408,0.27766392,0.62604493
12.2608,276.1764,-5.55934,4.88657,6.75883,-3.0641,-1.29198,-1.30236,28.44,-22.02,-23.04,38.06908,9.01105,79.257591,0.7094897760628005,0.20304912,0.26456615,0.62080598
12.2799,276.1965,-5.14993,3.94325,12.00932,-3.57295,-0.96211,-1.56931,28.5,-19.5,-24.54,33.903446,9.453853,77.533356,0.7282435387843308,0.17720416,0.24340422,0.61564147
12.2993,276.2164,-6.28957,2.17394,17.21192,-2.92238,-0.69211,-1.39399,28.38,-17.04,-26.28,29.193577,9.960847,75.962387,0.7464277302187412,0.14618957,0.22072557,0.61053622
12.3192,276.2364,-10.04607,-1.51074,20.21424,-1.36345,0.84116,-0.29016,28.14,-14.7,-27.66,25.888641,9.957719,75.064377,0.7580997316963115,0.12543909,0.20302497,0.60690254
12.3422,276.2564,-9.42118,1.62087,17.43458,0.07819,0.74648,1.11422,27.78,-12.36,-28.8,24.800392,10.514907,75.544373,0.7567121019520755,0.1142097,0.20171949,0.61127096
12.362,276.2774,-6.35421,3.94325,13.76427,0.63591,0.81856,1.67316,27.66,-11.22,-29.52,25.404938,10.77352,77.342842,0.7453712721977104,0.11369342,0.20829192,0.62298471
12.3817,276.2974,-5.34625,4.59687,13.08192,0.87048,0.73793,1.67011,27.84,-10.74,-29.7,26.547281,10.836083,79.302673,0.7321905789774782,0.11734813,0.2166148,0.63498378
12.4018,276.3174,-5.51145,4.29999,13.28303,1.13743,0.686,1.62857,28.2,-10.8,-29.28,27.951422,10.766527,81.101082,0.7193579644439156,0.12351125,0.22549339,0.64530754
12.4218,276.3374,-5.42047,3.54102,11.78905,1.2761,1.26999,1.76845,28.62,-11.82,-28.74,29.643452,10.794264,82.788139,0.7060930950769637,0.13092916,0.23661491,0.65444899
12.4419,276.3574,-5.04458,3.74453,9.56962,0.91385,1.96088,2.13314,28.68,-13.26,-28.32,30.89105,11.93998,84.453438,0.6912608748040627,0.12876418,0.2522504,0.66479164
12.4622,276.3774,-4.2928,3.3854,8.83939,0.3091,2.35977,2.51738,28.56,-15.36,-27.42,31.63596,13.479323,86.645622,0.6731656677547597,0.1194618,0.2678735,0.67883772
12.487,276.3984,-3.76368,4.10606,9.086,0.14294,2.57907,2.87901,28.62,-17.34,-26.52,32.078701,15.011275,89.77494,0.649609952300814,0.1054831,0.2822606,0.69800371
12.5113,276.4184,-3.5099,4.91051,8.6694,0.36896,2.40986,3.03905,28.98,-19.26,-25.2,32.647068,16.286535,93.206192,0.6237771952282822,0.09238053,0.29555961,0.71764362
12.526,276.4385,-1.48441,5.8634,7.513,0.52229,2.09954,3.08426,29.28,-20.88,-23.7,33.722439,17.058912,96.826546,0.5960155224088035,0.0842296,0.30876151,0.73643547
12.5447,276.4595,2.59053,8.10677,8.07085,0.43921,1.80511,2.62183,29.7,-22.38,-22.2,35.246998,17.085197,100.771111,0.566305217714318,0.08184299,0.32091448,0.75472778
12.5621,276.4794,2.87065,8.02776,8.27197,0.57421,1.78556,1.82099,29.52,-23.94,-20.58,36.530689,16.788733,104.010284,0.5422539533879164,0.08162048,0.32968757,0.7685082
12.5852,276.4994,0.76614,6.85699,6.89051,0.84299,1.67866,1.31214,28.92,-25.62,-19.44,37.818939,16.981108,106.26358,0.5230965977420283,0.08056065,0.34022686,0.77725518
12.6049,276.5194,0.21548,6.35182,5.47315,1.03175,1.56504,1.32619,28.5,-26.82,-18.06,39.342152,17.295418,107.982346,0.5063634884219491,0.08112149,0.35244361,0.78281468
12.625,276.5394,0.9481,6.62476,4.03662,0.8436,1.69088,1.33352,27.84,-28.14,-17.04,41.11311,17.442614,109.795174,0.48864087529305666,0.08342789,0.36558872,0.78779107
12.647,276.5594,1.20907,6.99346,3.36864,0.47037,1.68721,1.21807,28.2,-29.34,-16.2,42.758408,17.536942,111.788979,0.4700188968373417,0.08447742,0.37790784,0.79317808
12.6654,276.5794,0.95768,7.25443,3.16992,0.09346,1.6194,1.04336,28.5,-30.54,-14.7,44.091103,17.553631,113.784912,0.45237411379294595,0.08414838,0.38797441,0.79859412
12.6842,276.5994,1.32639,7.65426,4.13957,-0.13683,1.48013,0.64996,28.56,-31.74,-13.8,45.015347,17.457859,115.701477,0.4367129580793493,0.08264004,0.39495945,0.80402702
12.7063,276.6194,0.80924,7.41724,4.63517,-0.1295,1.28221,0.22174,28.56,-32.34,-12.9,45.602394,17.593054,117.089005,0.4248439682562848,0.07959243,0.40026262,0.80806094
12.7249,276.6404,-0.43814,7.06529,4.17309,0.01405,0.83261,-0.09346,27.96,-32.58,-11.46,46.101543,18.053497,117.706154,0.4174669727051924,0.07645612,0.4056251,0.80953324
12.7454,276.6604,-1.18752,7.185,3.5099,-0.09407,0.47831,-0.2193,27.84,-32.64,-10.8,46.63763,18.489491,117.780243,0.413866207836419,0.07555865,0.41073909,0.80888754
12.767,276.6804,-1.84114,7.07726,3.10767,-0.43799,0.20831,-0.29932,27.84,-32.7,-10.14,46.96431,18.831327,117.591286,0.4130279769642078,0.07532021,0.41396236,0.8076942
12.7856,276.7004,-2.52349,6.60321,3.60088,-0.73731,-0.19914,-0.2193,28.14,-32.4,-9.54,46.849716,18.995689,117.369026,0.41433301167760034,0.07443915,0.41367087,0.8072567
12.8035,276.7204,-1.78368,6.81869,5.76284,-0.78985,-0.52901,-0.11545,28.8,-32.58,-9.42,46.378407,18.478424,117.426895,0.41714109412163053,0.07571491,0.40878528,0.80818015
12.8259,276.7404,-1.20428,6.90488,8.29351,-0.49052,-0.44227,-0.26817,29.34,-32.16,-9.72,45.676071,17.629375,117.546844,0.42127952060252477,0.07807221,0.40119198,0.80961305
12.8497,276.7615,-3.16753,7.00304,7.98706,-0.19303,-0.21441,-0.19303,29.34,-32.16,-9.9,45.139538,17.353334,117.168854,0.4263997812958044,0.0788836,0.39640799,0.8092103
12.8675,276.7814,-4.9129,7.83383,7.41484,-0.04887,-0.22358,0.22419,29.04,-31.98,-10.68,44.9482,17.249058,116.922073,0.4290297386974651,0.07959311,0.39459798,0.80863518
12.8884,276.8014,-4.24253,9.15303,6.98149,0.05253,-0.34331,0.50274,28.44,-32.22,-12.0,45.080269,16.819185,117.153648,0.4285121502066701,0.08243589,0.39401704,0.80890805
12.9049,276.8215,-4.14915,9.73004,7.25443,0.08063,-0.42699,0.55894,27.42,-32.46,-12.3,45.386974,16.16058,117.577667,0.42695023557015394,0.08702558,0.39388436,0.80931771
12.9259,276.8414,-5.35583,10.11071,8.15226,0.25168,-0.61025,0.67378,26.7,-32.88,-12.66,45.761223,15.527458,117.954475,0.42546352905857,0.09189177,0.39428687,0.80936676
12.945,276.8614,-6.54814,9.53611,8.27676,0.5962,-0.63347,0.95967,26.04,-33.54,-12.06,46.358971,14.787074,118.337112,0.4237314398626457,0.09847672,0.39580509,0.80875975
12.9647,276.8814,-6.91924,9.04529,6.21774,0.64935,-0.76114,1.53694,25.14,-33.96,-11.46,47.377525,13.920416,119.042435,0.41910003460983813,0.10664734,0.39998487,0.8080802
12.9846,276.9014,-6.50744,8.47547,5.94959,0.43982,-1.07634,2.11237,24.12,-34.74,-11.4,48.473434,12.224174,120.669434,0.4107625420739373,0.11765486,0.40272757,0.80947018
13.0064,276.9214,-7.21852,5.99508,5.07571,0.26084,-1.19424,2.66826,23.1,-34.92,-11.28,49.344822,9.740643,123.1036,0.400152756464434,0.13029635,0.40245059,0.81297857
13.029,276.9424,-5.42526,3.76368,5.38456,0.16616,-1.6811,3.50209,21.9,-35.94,-11.82,49.8783,5.991989,126.856377,0.3853443402457941,0.14596997,0.397802,0.81972927
13.0465,276.9624,-1.8148,2.24576,4.88417,0.36102,-1.77762,4.11051,20.16,-37.38,-12.3,50.088058,0.983864,131.771149,0.3668175281623039,0.16584347,0.38953614,0.82837337
13.068,276.9824,0.61292,1.9824,6.18422,0.53206,-1.47402,4.27606,17.88,-38.64,-12.9,49.912312,-5.008392,137.793106,0.3433218704310499,0.18872637,0.37898821,0.83837962
13.0849,277.0024,3.58412,2.86825,5.35104,0.74587,-0.49969,4.0592,15.12,-40.38,-13.26,49.394695,-11.003854,144.276779,0.3155086032081829,0.21047471,0.36913577,0.84846538
13.107,277.0224,4.90572,3.35907,1.68073,0.02993,0.48808,3.598,11.82,-41.94,-13.56,48.702782,-16.03805,150.726593,0.28361180350811854,0.22613952,0.36293492,0.85831434
13.1346,277.0424,5.48751,3.50032,0.41899,-1.28648,1.10017,3.12519,8.4,-42.36,-13.44,47.134892,-19.484745,156.189407,0.25256343371042594,0.23306043,0.35358879,0.86998248
13.1464,277.0624,6.77559,4.35026,2.65278,-2.37627,0.98044,2.5131,5.76,-42.66,-13.44,44.209461,-21.813713,160.4776,0.22441303231343776,0.23541377,0.33443236,0.88451916
13.1679,277.0824,7.02459,4.36702,8.99262,-2.39826,0.75136,1.33108,3.24,-42.48,-14.1,40.353474,-22.949286,162.784622,0.2055183752679407,0.23521429,0.30626884,0.89924181
13.1857,277.1025,6.28239,1.68073,8.38928,-1.64873,1.99814,0.40928,1.86,-41.76,-15.3,37.012375,-22.576252,163.465179,0.1952042858123536,0.22845,0.28134108,0.91134685
13.2067,277.1224,4.30717,0.55067,6.64152,-1.06779,1.46058,0.16127,1.26,-41.16,-16.74,34.688473,-21.013149,163.542465,0.18812756289944801,0.21421729,0.2651839,0.9210844
13.2298,277.1424,4.66151,1.02472,6.608,-0.6298,1.00304,0.46914,0.96,-40.62,-18.12,32.902714,-20.153816,163.824173,0.18190966661864996,0.20536722,0.25244996,0.92790204
13.2502,277.1625,7.02459,3.07655,6.94558,-0.26512,0.37324,0.55589,1.32,-40.02,-19.26,31.543364,-20.315731,164.719162,0.17345457536779865,0.20378609,0.24260359,0.93248498
13.2714,277.1824,8.61913,4.95839,6.89051,-0.01038,-0.15699,0.26939,1.68,-39.36,-19.56,30.73057,-21.317631,165.751404,0.16615661009209198,0.20926751,0.23627038,0.93422449
13.2906,277.2024,9.38048,7.44118,8.80348,0.21197,-0.49908,-0.04948,1.98,-38.76,-19.62,30.454237,-22.70903,166.421616,0.16318024866778216,0.21907642,0.23324238,0.9332608
13.3079,277.2225,10.79546,10.74518,10.60392,0.62614,-0.52962,-0.46548,2.04,-38.22,-19.92,30.78994,-24.191841,166.730362,0.16417786577949556,0.23066877,0.23449633,0.92997259
13.3254,277.2424,11.03488,11.87045,10.02931,0.94928,-0.66279,-1.31336,1.98,-38.16,-19.5,31.846636,-24.705925,166.226303,0.17090724911514174,0.23637588,0.24139698,0.925551
13.3464,277.2624,10.17057,11.49696,10.09156,1.2144,-1.1301,-2.30724,1.62,-37.92,-19.08,33.650574,-24.87261,164.695892,0.18624600545258882,0.24193807,0.25269702,0.91810817
13.3663,277.2824,8.49942,10.62068,9.56962,1.28221,-1.22173,-2.90466,2.16,-38.34,-18.66,36.141109,-24.879539,162.156433,0.20998478155056022,0.24928665,0.267481,0.90676153
13.3855,277.3024,7.2257,9.13388,7.98945,0.84422,-0.8827,-3.15512,2.7,-38.7,-17.94,38.816208,-24.243206,158.84169,0.2378914905660119,0.25433531,0.28300175,0.89366168
13.4051,277.3224,6.63194,8.82742,10.16339,0.66157,-0.72143,-3.24797,3.96,-38.76,-17.28,41.060471,-22.690302,154.861374,0.2671527402373143,0.25463802,0.29551694,0.8811689
13.4273,277.3424,6.86657,8.39168,11.73877,1.46058,-0.7422,-3.79408,5.7,-39.36,-16.62,43.338932,-20.609568,150.472198,0.29687950656189305,0.25333482,0.30893639,0.86731905
13.4514,277.3634,4.42927,6.43322,7.98466,2.16674,-0.821,-4.46054,7.8,-39.48,-15.96,46.620708,-18.094053,145.326294,0.3296576538994188,0.25429997,0.33000225,0.84720474
13.4678,277.3834,0.77093,4.59447,3.88579,1.97126,-0.8882,-4.47764,10.2,-39.24,-14.7,50.011833,-15.152896,139.584885,0.3626141273076834,0.25687432,0.35195515,0.82380468
13.4869,277.4034,-0.20351,4.89135,1.4461,1.25716,-0.9725,-4.12212,12.84,-39.0,-13.62,52.843616,-11.571471,133.239685,0.39474186865076577,0.25854614,0.37053412,0.80002326
13.506,277.4234,-0.36871,5.31513,0.44532,0.44715,-0.78435,-3.89793,15.48,-38.46,-12.0,54.68565,-7.630698,126.603432,0.42551488913231034,0.25871384,0.38287801,0.77808011
13.5267,277.4434,-2.06141,4.25689,0.36392,-0.13439,-0.5791,-3.61754,17.88,-37.56,-11.28,55.547787,-2.914477,119.618042,0.4550473470411197,0.25370872,0.39132902,0.75856799
13.5533,277.4634,-3.49314,3.4692,-0.45969,-0.74587,-0.82955,-3.17894,20.16,-36.78,-10.92,55.544365,2.273024,112.61808,0.48302788266189817,0.24381953,0.39735451,0.74117845
13.5702,277.4834,-4.33351,3.43329,0.51236,-1.22662,-1.39827,-2.69086,22.44,-35.64,-10.8,54.411324,6.201572,106.609215,0.510845805755296,0.23422188,0.39479336,0.72685272
13.5887,277.5035,-5.83706,2.97599,1.14443,-1.64873,-1.20402,-1.91262,25.02,-34.08,-11.58,52.630642,8.634626,101.97979,0.5366928451460131,0.22582026,0.3859655,0.7155394
13.6087,277.5234,-4.98952,2.62405,1.04866,-2.08427,-1.14843,-1.24739,26.94,-32.4,-12.12,50.439034,9.846931,99.115486,0.5568538047229712,0.21628319,0.37344807,0.7096985
13.6287,277.5434,-4.34308,2.7246,1.1564,-2.61756,-1.31336,-1.0177,28.62,-30.78,-13.14,47.825596,10.038583,97.541519,0.5735185050480788,0.20597599,0.35639635,0.70825988
13.6491,277.5635,-4.19464,3.48596,2.04944,-3.48621,-1.29259,-0.97983,29.46,-28.98,-14.94,44.64806,10.030145,96.220406,0.59057277521308,0.192452,0.3356792,0.70817053
13.6676,277.5834,-3.72777,3.13162,3.44286,-4.39029,-0.98288,-1.11483,29.28,-27.42,-17.04,40.511238,10.051063,95.099724,0.6083957720193139,0.17213553,0.30994228,0.71004206
13.6924,277.6034,-4.20182,0.64643,1.92015,-5.94677,-0.57727,-1.3323,29.34,-25.74,-19.14,35.00959,9.732179,94.548164,0.6259966320734941,0.14391601,0.27505237,0.71537584
13.7077,277.6235,-7.05092,-1.59693,4.75488,-7.309,-0.71471,-1.35795,29.22,-23.7,-21.9,27.523046,10.886821,93.533066,0.6458689390415139,0.09507746,0.23564424,0.7199204
13.7315,277.6434,-11.9758,-2.12845,12.89996,-6.47945,-0.02993,-0.59865,29.04,-20.76,-24.24,18.5702,11.643045,93.25312,0.6623613019792894,0.03747107,0.18542174,0.72490841
13.7481,277.6634,-6.98389,-3.92649,13.09628,-5.08179,-0.6408,-0.10079,29.16,-16.86,-25.92,11.009058,12.586821,94.2155,0.6656965392469193,-0.01504628,0.14411978,0.73201859
13.7684,277.6835,-5.24091,-2.70305,17.45852,-3.70612,-0.63652,0.12034,28.86,-12.48,-27.6,5.169176,12.3893,95.447899,0.6644947553735169,-0.0496022,0.10568622,0.73811704
13.7886,277.7034,-4.71418,-2.70066,19.72343,-1.96699,-0.63897,0.32681,28.26,-8.16,-28.98,1.382369,11.944423,96.642731,0.660357287950755,-0.06972706,0.07814151,0.743613
13.8122,277.7234,-3.22978,-2.12126,20.74336,0.70677,-1.63162,0.02138,27.78,-4.68,-29.94,-0.112199,10.885678,97.408653,0.6570389049593877,-0.07190735,0.06186519,0.7478649
13.8301,277.7434,-3.00472,0.27773,12.24155,2.27792,-2.37504,-0.30543,27.18,-2.88,-31.02,1.272168,8.867252,97.165115,0.6588764294157802,-0.05064543,0.0594369,0.74818724
13.8464,277.7634,-2.70545,0.8691,8.67898,1.62246,-2.7715,-0.32987,26.28,-2.58,-32.22,3.490804,6.459278,96.403427,0.6638636142737319,-0.02171173,0.06020289,0.74511027
13.8663,277.7834,-2.91374,-0.70868,9.69412,0.17471,-2.26875,0.2645,25.56,-3.06,-33.0,4.600166,3.967286,95.870377,0.6679985504986803,0.00119556,0.05294837,0.74227554
13.8898,277.8034,-2.17633,-1.67594,12.69166,-0.44838,-1.58886,1.31031,23.94,-4.32,-33.66,4.246415,2.036977,96.300148,0.666127916861712,0.01148272,0.0394439,0.74470526
13.9082,277.8234,1.21625,-0.64165,15.10502,-0.45448,-0.59437,2.09893,22.38,-5.34,-34.56,3.43202,0.647032,98.025444,0.6554591794397733,0.01538042,0.02630595,0.7546156
13.9283,277.8434,3.00472,1.12767,13.98693,-0.26023,0.21747,2.14963,20.94,-6.0,-35.04,2.8577,0.12134,100.483887,0.6393275536910523,0.01513368,0.01984625,0.76852936
13.9479,277.8634,2.9305,0.88107,14.62378,0.5962,-0.20586,1.90712,19.68,-6.84,-35.28,2.66765,0.207285,102.908669,0.6229354107093151,0.01309072,0.0193325,0.78192478
13.9684,277.8834,4.29041,0.91219,14.6166,2.24921,-0.82955,1.47768,19.2,-7.38,-35.7,3.772642,-0.446363,105.040573,0.6082479000101282,0.0231184,0.02375246,0.79305476
13.9878,277.9044,3.83551,2.3535,11.6023,3.25652,-1.21745,0.67378,18.66,-8.46,-35.82,6.790855,-2.039163,106.642296,0.5970313896042897,0.049618,0.03688178,0.79983205
14.0078,277.9244,2.63362,2.3128,7.01022,2.87779,-1.18264,0.27855,18.06,-9.9,-35.82,10.299487,-3.747253,107.432037,0.5914495683799319,0.07933884,0.05304502,0.80067408
14.0279,277.9444,-0.71587,0.94092,6.31351,2.18934,-1.34513,0.65668,17.52,-11.7,-35.82,13.144874,-5.379699,107.893837,0.5883651292131912,0.10498083,0.06499705,0.79911256
14.0532,277.9645,-0.26815,1.92015,6.02142,1.63284,-1.33474,1.5968,16.74,-14.04,-35.58,15.198874,-7.202651,109.068878,0.5807473389551198,0.12728988,0.07137228,0.80089688
14.0728,277.9844,2.38462,3.06458,5.1619,0.81551,-1.51922,1.79533,15.72,-15.96,-35.28,16.506088,-9.376101,111.173668,0.5671112474673102,0.14758226,0.072314,0.80707806
14.0939,278.0044,4.06535,4.88178,5.20021,0.43494,-2.45629,1.61757,14.16,-17.76,-34.68,16.951469,-12.021278,113.336426,0.5533921186630694,0.16707642,0.06555815,0.81335402
14.1081,278.0245,4.956,3.51469,7.30232,0.75198,-3.82035,1.67072,12.72,-19.38,-34.5,17.143438,-15.964055,115.323494,0.541304073165227,0.19497049,0.0512606,0.81630188
14.1306,278.0444,5.23133,4.52504,10.3238,1.55404,-3.18078,2.05434,10.44,-20.04,-34.56,17.554531,-21.101685,117.709816,0.5264216113518219,0.23246773,0.03479516,0.81708527
14.1511,278.0644,6.34224,5.55694,9.23683,2.21378,-1.43248,1.7483,7.98,-21.42,-34.56,18.539036,-25.28878,120.759064,0.5066199832045662,0.26549095,0.02985401,0.81973135
14.1681,278.0845,8.75081,6.90248,4.53701,1.78006,-1.55954,0.59071,5.88,-22.2,-34.92,20.322931,-28.1029,123.654648,0.4885789858334129,0.29147416,0.03803625,0.82151484
14.1878,278.1044,7.61356,5.69102,3.20823,1.25166,-1.7318,-0.38179,2.94,-23.22,-34.5,22.133255,-30.906275,125.096924,0.4814561881418289,0.31734103,0.04363012,0.81583762
14.2111,278.1244,2.40617,4.31196,3.24175,0.79412,-2.26875,-0.38668,1.26,-24.72,-33.6,23.919323,-33.543316,125.395149,0.4827773010185396,0.34185377,0.04682016,0.80490369
14.231,278.1444,1.26174,4.0055,5.09007,0.37324,-1.71348,0.27978,-0.12,-25.92,-33.18,25.140793,-36.207466,125.56617,0.4844396617027938,0.36432177,0.04524837,0.79406577
14.248,278.1644,4.03184,3.37582,5.96396,-0.04643,-0.35613,1.05374,-1.74,-26.88,-32.1,25.268999,-38.1166,126.156181,0.4812764599383637,0.37769973,0.04007089,0.79000646
14.27,278.1844,5.54976,4.55856,5.24091,-0.51618,1.31519,1.56748,-2.52,-27.6,-31.62,24.515457,-38.516712,127.24556,0.47259093115492395,0.37779927,0.03636671,0.79536343
14.2913,278.2044,6.8115,4.82192,3.5099,-1.32252,2.23027,1.23517,-3.84,-27.9,-31.5,23.214104,-37.459877,128.402847,0.4618996422753384,0.36611712,0.03466086,0.80709702
14.316,278.2244,6.69658,4.48913,1.49159,-2.16002,1.15209,0.52473,-4.32,-27.36,-31.14,21.585598,-35.699974,128.672455,0.45668605743921176,0.34859553,0.0302554,0.81792641
14.3346,278.2444,4.87459,2.97839,7.00065,-1.97676,-0.56505,0.00733,-4.38,-26.82,-31.92,19.710985,-34.941639,127.815689,0.45948622669076583,0.33745295,0.01653599,0.82141614
