AppTimestamp(s),SensorTimestamp(s),acc_x,acc_y,acc_z,gyro_x,gyro_y,gyro_z,mag_x,mag_y,mag_z
43.0053,306.9083,-0.14485077126136,-0.3547757143688026,-0.03353437350316235,0.010690521698624897,0.02006133453147435,-0.009082039138734482,0.18137031456094826,0.5957759502778942,-0.0123120293427281
43.0121,306.9282,-0.12743409333697708,-0.30979585073748883,-0.07007712256046986,-0.08233277030880233,0.009516924085425591,-0.10852607491990228,0.3522435670046114,0.9711901154286018,-0.16808922986810454
43.0305,306.9481,-0.0891962583674797,-0.2525671856723618,-0.09270568623952274,-0.09772548136900262,0.005838115512183784,-0.11755614766039722,0.1967959898032652,1.1114151367802612,-0.5321949756743991
43.0507,306.9681,-0.03164183654391908,-0.19711371547495982,-0.09132344931471276,-0.055134906225024545,0.04035168140484792,-0.12507411801667603,-0.4020860234240058,1.0583466547711649,-0.3463884352887105
43.0751,306.9882,0.04317414482134391,-0.1484734312963909,-0.06225927017557905,-0.08390229642481904,0.05803386216612201,-0.07074290926315763,-0.529674669729281,1.071297047678468,-0.38580194385537336
43.0976,307.0081,0.1288062835987766,-0.1266105641475339,-0.00866494933541185,-0.17855212651528315,0.03771291560524463,-0.07883456513301779,-0.8034802027197988,0.3577027431372649,-0.4646289609886966
43.1163,307.0282,0.2080832149405229,-0.1534892438820753,0.060293589311702846,-0.21216380309694172,-0.03568347920103865,-0.06295279801439475,-1.2371668463000423,0.2128455529397427,-0.29571392427443394
43.1317,307.0482,0.2555743751505027,-0.23991796750179373,0.13140505033779676,-0.23221166997020862,-0.0628362538152933,-0.07672875767531331,-1.0885580716297003,-0.053780044104131196,-0.5903768216537525
43.1533,307.0681,0.2644739870209429,-0.35689587462350614,0.18887975525433887,-0.23094845618732102,-0.09984032836139006,-0.071588110057976,-1.0848517857199855,-0.46280107146390786,-0.46275212724742715
43.1735,307.0882,0.2115719720200568,-0.4968087888582751,0.22074264788734485,-0.19138490081769347,-0.14802428506969945,-0.06948887151836598,-1.1564289950101447,-0.40257976906289056,-0.21125640591730363
43.1915,307.1082,0.0982567941629004,-0.6272101935860768,0.21798616996829853,-0.24064335149869243,-0.17751467929189305,-0.015519891676912608,-0.6143557147930209,-0.06572543171671401,0.06276132030805463
43.2156,307.1281,-0.0361614540464511,-0.701751018720428,0.17765492284984477,-0.23229929080234077,-0.21192550297451282,-0.0008305395952428236,-0.3819466207278552,-0.10078904851268387,0.39496089251276695
43.2346,307.1492,-0.1890653766288541,-0.7287229791428975,0.10522877393306526,-0.1356205429539284,-0.23963326631435594,-0.043920765461050754,-0.13790156700396677,-0.4477097154245804,0.40434506121911445
43.2566,307.1691,-0.31020601409779647,-0.6962074537677241,0.014688644238921154,0.018647796122122928,-0.2185455640428378,-0.09279726975119269,0.08941679471051085,-0.34633587279483175,0.15847984111280164
43.2722,307.1892,-0.4002910450642603,-0.6097907610917978,-0.07373620609645945,0.08049705851993862,-0.15477413717638047,-0.2618458744667071,0.21750916178784274,-0.9921631969153545,-0.1943649022458773
43.2948,307.2092,-0.42733983525967556,-0.4985899219366079,-0.13942740794052724,0.08752197277746229,-0.0435296687797338,-0.08158381375835415,0.06962763459617231,-0.745028665503725,-0.6391744989267659
43.3147,307.2291,-0.4020411084975974,-0.3837832012804372,-0.16889250691540003,0.06665568768701624,0.014583363659500711,0.07111225137510206,0.17837789497238674,-0.5627770511711926,-0.5659779830172483
43.3326,307.2492,-0.3261568358967659,-0.2941331334372994,-0.15878367829363796,0.05277971297698272,0.08680032045729288,0.05511912545449702,0.7754417895029857,-0.4609809050814831,-0.8212273718299136
43.3533,307.2692,-0.2169876992831862,-0.24140197480841263,-0.11554714716497314,0.058918808500917845,0.0989427127056906,-0.046303718701216,0.8075241082383514,-0.08207052892221596,-1.0745999269013042
43.375,307.29,-0.09184958769823989,-0.2232758359540084,-0.05074891771793605,-0.020201694631121415,0.10697559328704724,-0.13254047544506992,1.011850744700837,-0.6032453828548009,-0.7198783498013527
43.3942,307.3101,0.02629188642580471,-0.2367906770518446,0.024351822099045753,-0.04722463866497814,0.03976134027713553,-0.09878124132960718,1.167955520864488,-0.451395770640158,-1.083984095607652
43.4197,307.3302,0.11494502314879762,-0.27631938896071573,0.10112604627628105,0.014189257344815062,0.07736749553785338,-0.05183036845800778,0.6966621539424881,-0.5174146455565585,-0.8587640466552998
43.4375,307.3502,0.177892399243763,-0.3334475198852008,0.17095617817439265,0.10194371226483577,0.12511911604198173,-0.021674967931406167,0.25533941183620656,-0.45761564661550147,-0.5978841566188309
43.4553,307.3701,0.2157263676356544,-0.3885907978620041,0.22269297428350024,0.17346640164642738,0.12519979020784958,0.15225934781825642,0.3191404255676041,0.30995063851915466,-0.7348930197315091
43.4857,307.3902,0.2183644792343245,-0.41885324347873154,0.24285045983191164,0.07741318888297072,0.0413778710744184,0.11760048472947851,0.007224448463271714,0.3080715804722935,-0.3651567727014081
43.4946,307.4102,0.2121866875714048,-0.415570227083582,0.21735521890587936,-0.04415828489316433,0.020652733662381174,0.03287676878671142,-0.47163496846840147,0.13514319549592277,-0.059232872874469385
43.514,307.4301,0.1635387692309454,-0.3739640804767451,0.14208684628758286,0.04346587224863625,-0.013577492058455234,0.023455063405538212,-0.6425782694284271,0.07129472954376459,0.10780533009851909
43.534,307.4502,0.0718102611519783,-0.30613841630453453,0.02576312812701405,0.1812589335644815,-0.055312511900214696,-0.0447934931507411,-0.47374666238804825,-0.11794930680588914,0.22979952328104541
43.5537,307.4702,-0.04833296893675321,-0.2170052222623841,-0.10823101918042624,0.21389464213919915,-0.03452311873696532,-0.08595996443174769,-0.33663375034370213,-0.6958492521309313,0.235430024504852
43.5772,307.4902,-0.1641533917864812,-0.1204812687270112,-0.22745876280278324,0.19849490051262372,-0.012825516821732778,-0.03549440757399751,0.33746170956708293,-0.800457400684079,-0.06298654035700876
43.5959,307.5101,-0.2419709462808902,-0.022707931620717214,-0.3010123240227094,0.07924320786831233,0.0018799887835364766,-0.08169673658845389,0.47793066493932773,-0.2295498773761587,0.12657366751121452
43.6236,307.5302,-0.2610268725390565,0.044367698921689736,-0.3077241994847777,0.03114841737048605,0.04541228769701349,-0.07258032949586053,0.1779442227166865,-0.24146581915652232,-0.18498073353953212
43.6363,307.5502,-0.193970104062314,0.07313153820147295,-0.24331947727820963,0.12665016599444046,0.1280651291655308,0.010884656617761765,0.554752084770421,0.49874292557662897,0.11718949880487134
43.6612,307.5701,-0.0808427034371543,0.05549827790913148,-0.12025900506807494,0.1659792231972137,0.16503328382272478,0.1012448170911849,0.6088753545724983,0.906307198349503,0.3499168827222944
43.675,307.5911,0.08553967802469908,0.024411682107160104,0.03354080818592895,0.14641952144771142,0.11220313297581067,0.023515747696505926,0.7480999605364956,0.5814997553262715,0.06651498779059276
43.6949,307.6112,0.23716052602204318,-0.014358867608123604,0.18586436235189455,0.0679995338924185,0.032091210132994694,-0.03908666735478745,0.8810729144154301,0.7339320693756756,0.3255180440857897
43.7177,307.6312,0.33838983538448114,-0.046600439201239685,0.3049753585868886,-0.025615025570517227,-0.019073058537206755,-0.06250611158397261,0.342635871591654,0.29962240386827194,0.1903860147143843
43.7391,307.6511,0.36035396854967644,-0.07248431454197662,0.3676699399690617,-0.09832526451520991,-0.10407853999430143,0.03333784427581665,-0.10014136547196596,0.39840353407381857,0.012086809293773482
43.756,307.6721,0.2887313458741439,-0.09119505259875671,0.36327893569632663,-0.08873913760453346,-0.2727365531481074,0.11055328683663485,0.08927669767778292,0.2767955256022637,0.18100184600803415
43.7765,307.6922,0.1589175331640586,-0.08389705625925109,0.29315979550293364,-0.08171352954837253,-0.3505237831999097,0.03994899112943869,-0.27690264626135463,0.49048359317962403,0.34053271401594465
43.7982,307.7132,-0.011464724310603192,-0.05287577035867902,0.17381754645409206,-0.17908562783445905,-0.2823487925736461,-0.14136785014150774,0.10390507692506705,1.1234914769354238,0.4118523961841896
43.8175,307.7332,-0.2058751265131643,-0.017982772380532197,0.03031105551152865,-0.15718606797946527,-0.1786255214726845,-0.09818159294927153,0.7024234664130056,1.1863054917606433,0.5957821028286111
43.8373,307.7531,-0.3822865477356727,0.004764076055211397,-0.10988243894592584,0.018007225866646145,-0.12266509962679395,0.16766721441720892,0.5917850388237504,1.3643472407072725,0.4644037409397375
43.8563,307.7732,-0.5055046994609326,0.0042964611203902825,-0.22054934208023463,0.11484483126533908,-0.12629394615489772,0.22961617852091695,0.7307160695647754,0.7377196313016157,0.5394770905905197
43.8794,307.7932,-0.5474322156822828,-0.01808322464330092,-0.2820013708761169,-0.006558612611015945,-0.07585529818829888,0.1547154975743312,0.7104932371947381,0.6603380706073938,0.12282000002867523
43.9048,307.8132,-0.501673739270294,-0.061089326201916316,-0.28558325853843075,-0.1708327125219308,-0.005402717635971008,0.0791347772021588,0.3732636953696813,0.7175149112920287,-0.5021656358140861
43.9161,307.8331,-0.3821878934530355,-0.15558953248541418,-0.23552000681066884,-0.1965601248680099,0.06949332581833871,0.04105288217492873,0.1499451947878909,0.5089402076849285,-0.4871509658839318
43.936,307.8532,-0.2251990515143377,-0.2497732170150079,-0.15311368954010274,0.0005596026939228537,0.14313763670232169,0.09759906754876876,0.44484090465983706,0.6572936088910121,-0.7536613571442092
43.9593,307.8732,-0.0677743657286187,-0.3226406833076119,-0.06627808503148824,0.18669761608011867,0.21813931969673578,0.27572591707080396,0.7243809878058348,-0.02155787560381979,-0.5115498045204362
43.9859,307.8931,0.0668339433242798,-0.33307176528988647,-0.00544578795508445,0.08223560152506419,0.2653828294553979,0.3057965472734249,0.515467339764719,0.0031775065412673518,0.08152965772074496
43.9993,307.9132,0.20877571533540368,-0.27284684344244003,0.0037528664095629535,-0.062274450701592696,0.2192605056501253,0.09354291702826169,0.9317700923732469,0.30425457271413425,0.3855767238064156
44.0232,307.9332,0.2809757128702459,-0.14435772659956542,-0.04495845276095535,-0.04124155989210655,0.05913042866893939,0.012831871624328941,0.9184561110505767,0.04170788851357929,0.6164272739825717
44.042,307.9531,0.2761843733673064,0.0025617410871698887,-0.13518891798287325,0.03922569950325178,-0.09545256307983888,-0.0417996305277926,0.7177657119814393,0.46542741428493883,0.40059139373657254
44.0573,307.9732,0.18270595121897948,0.13546291468112887,-0.23149051985234534,0.05827573858792564,-0.10137832075486101,-0.03378992973130119,0.5039714771387246,-0.30809684173989976,0.3818230563238769
44.0769,307.9932,0.033059641948516294,0.2291808928851214,-0.29513918231670305,-0.04582808690089527,-0.05444403878555072,0.01453572385577816,0.425625513833926,-0.6858418142296466,-0.03671086797923233
44.1043,308.0131,-0.12430022318031789,0.279916517173683,-0.29798277299833326,-0.17977705873485775,-0.02401566415611798,0.034123612002161505,0.33164372973771994,-0.6445288756261154,0.0984211613921739
44.1169,308.0341,-0.2493240194645657,0.24087151958725156,-0.22567029544993406,-0.17962669913602605,-0.025103434643361424,0.0871848299240875,-0.10349740879986492,-0.7504039345591457,-0.1718428973506429
44.1393,308.0542,-0.2993718571557922,0.17200264644254754,-0.09186204102850246,-0.13773618262890067,-0.022100232299184078,0.00744410756439112,-0.18598333027007183,-0.39781664767444685,-0.33700426658236227
44.1575,308.0742,-0.2750933776744337,0.07182154760721798,0.07894205813480834,-0.09426928721641442,0.0519485192582306,0.03239692496019351,-0.24781274711455073,-0.28915903211019733,-0.46650579472996606
44.1774,308.0941,-0.193098061582442,-0.016088265838293425,0.2519548449623181,0.002792894732627405,0.13376204734228989,0.08357442741713193,-0.07286958502183762,-0.3325114271353889,-0.8643945478791133
44.1982,308.1142,-0.0756492402141427,-0.0648342894896799,0.39530469900939,0.10129946442950288,0.1896647794629179,0.07694326100360303,-0.04857684300275347,-0.6738964266170638,-0.6898490099410395
44.2264,308.1342,0.04505386281687532,-0.06026107284437021,0.4845687788841635,0.07362492098119815,0.18084461008342848,0.0799202321228801,0.14840727015666777,-0.6885949250286478,-0.6016378241013725
44.2415,308.155,0.17032055728348822,-0.016198199670550417,0.5051820996813079,-0.002422156417016572,0.06222073021449727,-0.003961723886927568,0.5926390021776283,-0.8263581864986859,0.015840476776310654
44.2649,308.1762,0.2479046524632985,0.05053537789912671,0.4559497275431956,-0.022520349560588643,-0.05483806727564958,-0.059187869529408,0.3992911264115568,-0.9091150162483307,0.06651498779058901
44.2831,308.1972,0.2560455728347021,0.11189802141025434,0.34874337257228105,0.0184940089746971,-0.04734704435687796,0.01044422629981051,0.534152247503533,-1.116976065478089,0.3836998900651492
44.3091,308.2172,0.202235183650676,0.15643513190105834,0.20361601433278026,0.11929674913208876,-0.03104805538104961,0.08099346821726275,0.5439700884655797,-1.3801054515134032,-0.008558361860191354
44.3289,308.2382,0.10642663345546399,0.1868891467297022,0.04498159764666076,0.041458558544902685,-0.07637683702160337,0.09767414089841955,-0.19704552064037079,-1.0304022279702847,-0.41770811745695285
44.3492,308.2592,-0.0022814738034510063,0.2002797032765798,-0.10111498990869994,-0.04248763065717891,-0.14087521007450915,-0.045137266531016976,-0.17078118173436466,-0.4955633267530546,-0.5096729707791615
44.3824,308.2791,-0.09451717931496159,0.1973992366386021,-0.21125153420520545,-0.06443312153879577,-0.12336325354053371,0.020499675874285743,-0.050828633955128155,-0.3038575305217802,-0.3782946088902921
44.3939,308.2992,-0.1932796501574429,0.15042370633656105,-0.26656548736648505,-0.007636411367362272,-0.07850565047764609,0.06526372463168255,-0.11695148715525962,-0.3898192203626058,0.08152965772074519
44.4049,308.3192,-0.2615041025460517,0.0776130766368886,-0.2627595662340669,0.05820859930286332,-0.011472584322247506,0.1475306652071278,0.15531612120403487,-0.8737600485349809,0.04586981663662826
44.4229,308.3392,-0.2911381411607273,-0.006417058519979202,-0.20647479523104925,0.051777052466842166,0.03181182529442143,0.04031215845837434,-0.12074120273885743,-1.2173154569808986,0.2785972005540519
44.443,308.3591,-0.2777446135063849,-0.08058035325591512,-0.11513184261683676,-0.01511919936885448,0.06531706391310227,-0.1059598175843397,0.1517499323270466,-1.0878704195723008,-0.1042768826649364
44.4673,308.3792,-0.2289812100885688,-0.12102457854225152,-0.013209894493798148,0.0015609088508795452,0.08491973487545318,-0.06888953594365392,0.0899905639989342,-1.290778503206598,-0.2450394132601534
44.4873,308.3992,-0.1528919485469654,-0.11616745252253102,0.07361824553474045,0.04929206291978881,0.10156089010269065,-0.011494083301889417,0.008959137486064375,-0.9771733475863899,0.028978312965200002
44.5042,308.4191,-0.06307610097975609,-0.061244708596153385,0.12433574665552327,0.058964348834606314,0.10081906277455917,-0.09512735884097889,0.14811369493369525,-0.9904150914110748,-0.24316257951888834
44.5219,308.4392,0.024455551524329516,0.03548057424802814,0.12886844076529666,0.08361359491312252,0.09296238846135967,-0.18678910351397243,-0.29502716586926087,-0.8818884283894044,-0.0517255379093884
44.5483,308.4592,0.09077303250074148,0.1423691195514985,0.09208932680779625,0.19733524936101035,0.08762464603826418,-0.21726387858221344,0.01827325767605055,-0.6074258024084859,0.0289783129652021
44.5657,308.4791,0.1319674814414344,0.2683612907782424,0.02745064837377395,0.23878085882552827,0.07715742471827539,-0.21725230477414226,0.1628121226973421,-0.4552848392764623,-0.02357303179034522
44.5875,308.4992,0.1394713545686988,0.3740911741755088,-0.04348109017219335,0.11528904016759033,0.057472149039060005,0.0012367927707655725,0.36474687117472865,0.016710601283332845,0.6652249512555853
44.6083,308.5192,0.12426801820019578,0.44547514613989664,-0.10262231814556536,-0.024420799366513226,0.027581143927617943,0.04936975809374125,0.3740609913647135,0.3864581464612358,0.6652249512555806
44.628,308.5391,0.09663284832460178,0.46494610694479993,-0.13693895986139834,-0.03988803428549069,0.007060287429957725,0.024817019090452825,0.4508824111958102,1.1147509494140229,0.6558407825492368
44.6474,308.5592,0.0638005155911397,0.4334571604481529,-0.14199441695092765,0.06814543804468035,0.021883815877018105,-0.029897063746284577,0.20697745450464844,0.8385402179288227,0.62393460894765
44.6666,308.5792,0.0306303021899558,0.3719818757150845,-0.12147214247760565,0.19108145807075202,0.04387114003866242,0.04618101756732426,0.1679862847219153,0.644794965275887,0.2297995232810404
44.6857,308.5991,0.0036965790522374975,0.3113504297238366,-0.08371408192665106,0.23336380321446537,0.11209167992968537,0.1214479938990811,-0.25056825883898576,0.7137567951983065,0.2373068582461236
44.7049,308.6192,-0.007143450997206896,0.2762290560371908,-0.03834258529519035,0.17239953495176655,0.1221532167009525,0.12587919836221856,-0.7799147081793827,0.03580880928783385,0.44938907100958386
44.7276,308.6402,0.003517913161245917,0.27609799176009003,0.004936606977776953,0.08986359079567427,0.060892362933180434,0.08558076268654911,-0.5283736529621871,0.10736335163445596,0.3893303912889579
44.7465,308.6602,0.041561040457198106,0.3134651723988015,0.035992570332154854,0.023121126561645184,0.011615084682200169,-0.058612932793332434,-0.8247939063078364,0.30955778089141156,0.22792268953977532
44.7777,308.6801,0.09829921598541508,0.39110259372413575,0.04565909157079746,-0.05001589838840303,0.001069529991901303,-0.2066006476811904,-0.4008550551732751,0.40597865792569876,0.44000490230323347
44.7935,308.7002,0.1457951190901064,0.4828756060685861,0.03131104052765265,-0.04354120883560091,0.023108605219274377,-0.12639165530304725,-0.32752977570280534,0.608595390642617,0.26921303184770584
44.8079,308.7202,0.18723165978093448,0.5877028918655425,-0.00698402812176745,-0.027964283914359664,0.02489553973097014,0.0032365591220882995,-0.33327770701580317,0.4529582165020329,0.4193597311492684
44.8273,308.7401,0.2219889019841298,0.691131370363504,-0.06149510218479305,0.016244453616695832,0.04133171242351417,0.027332914720624674,-0.9657665824521466,0.37152718879670926,0.4306207335968884
44.8457,308.7602,0.2541194937980462,0.7704015925493879,-0.11779812456047464,0.07692689548845276,0.007286852028407115,0.0029178101916960135,-1.104487467644079,0.06345770060672103,0.3217643766032539
44.8677,308.7802,0.2806485471122343,0.8074866152389197,-0.15830462756087746,0.08168464090985197,-0.02257112635891765,-0.033468365550297,-0.986353038561518,0.3038911609186093,0.38369989006514726
44.8839,308.8002,0.292513540037337,0.7922077694990566,-0.16705383839808274,-0.012566832802258713,-0.03457426337400403,0.001747291548390902,-1.2061753987826815,0.6209925275473779,0.5601222617444854
44.9042,308.8201,0.2868683451641412,0.7261519189866767,-0.13590299075739956,-0.08647516746649538,-0.04024193829227128,0.11265002293125649,-0.943432056162463,0.7020012517927414,0.5582454280032184
44.9273,308.8402,0.2657758159243283,0.6236939363377396,-0.06893748511205915,-0.10163103826447543,-0.05026833723974771,0.15563201805131785,-1.018645502845973,0.8596778823549864,0.6708554524793897
44.944,308.8602,0.23918721524329672,0.4919981976020879,0.01821918656559845,-0.13732376979914324,-0.00476527275468791,0.1299065707653595,-1.2383277660344125,0.5536478505866586,0.8247558192634963
44.9644,308.8801,0.2189255281871474,0.37790638939607685,0.09771773118873356,-0.12084396662571842,-0.05236449307945424,0.011625693139939705,-1.014645641713286,0.7524770213776351,0.4400049023032312
44.9869,308.9002,0.2038725648024115,0.3051212610549779,0.14604684234171095,-0.03258059498925429,-0.05319558893337651,-0.1665002179652249,-0.6679618826655149,0.4419163274738087,1.0424685332507622
45.0091,308.9202,0.17824247617858302,0.28693087190120986,0.15054063462798845,-0.043432445378228095,-0.052325061345014134,-0.08643511617391245,-1.0713142776907087,0.4131314783176205,0.8773071640190462
45.0256,308.9401,0.12979661247368562,0.31491963825677133,0.11298743383816026,-0.08039176212950153,-0.03305882520290935,0.04416717496294203,-0.376632361670554,0.37615935764256986,0.6258114426889201
45.046,308.9602,0.0670139676319213,0.3770253569928604,0.04585537921010976,-0.034218037696459584,-0.03134973371804942,0.11753010346418089,-0.5320098903555385,0.204818679795682,0.250444694435006
45.065,308.9812,0.002121549963901903,0.44484336852806644,-0.03028798636782805,-0.01726375300333542,-0.0536771686206796,0.08135663554619842,-0.23565968552624733,0.3141899497372728,0.4231133986318075
45.0887,309.0012,-0.04945823092775631,0.5037462924885419,-0.09436658220533735,0.0026617873616303785,-0.08957081835789162,-0.025629769429884677,0.07371092540273831,0.3842877374969941,0.7234067972349372
45.1071,309.0211,-0.089277463013674,0.5437765618057107,-0.12916697558097584,0.034586034192436096,-0.08145648800689614,-0.04821308422733423,-0.42180513502198225,0.3480881628637242,0.7628203058016028
45.127,309.0412,-0.10910719036051429,0.5648161480897191,-0.12693176459646355,0.0248668950478235,0.002556849296505706,0.029457177710118274,-0.21754854707585994,0.1384790081296852,1.1288028853491672
45.1458,309.0612,-0.1019940030584799,0.5693775896673072,-0.09078938115537144,0.02729935599893235,0.05096810719338057,0.09608383710831712,-0.36550012278389543,0.6971792387398624,0.6952542911158985
45.1671,309.0811,-0.0634759289685676,0.5652217213950446,-0.03413354876265925,0.03047190783932787,0.02570992860383279,0.07564198960965615,-0.3484098070351489,0.23913919638209186,0.5807674328984483
45.1861,309.1012,0.0045995639436929026,0.560268221314518,0.02415155504410625,-0.01147583456555057,-0.007038074306413524,0.014707454143104325,-0.16808233736877537,0.361169508313607,0.40246822747784244
45.2042,309.1212,0.08412242574119949,0.5642181857334874,0.06584706520318634,-0.03823142248134917,0.0036432806156352217,-0.046762917356579954,-0.2096889218432153,0.5472086845720813,0.6896237898920897
45.2266,309.1411,0.1546405000014504,0.5832845879977226,0.07952584427987805,0.002477620146427426,0.025717344907850083,-0.07456414276038247,-0.7780965894827085,-0.012918854792781171,0.5188319194365532
45.2482,309.1612,0.20133006767355782,0.6123434341378347,0.06405499171951745,0.030824426220758188,0.0005195425687008085,-0.06396503701218614,-0.9675146526324573,0.10868915367877367,0.34991688272229243
45.2679,309.1812,0.220877263006572,0.6456811663577708,0.02672026741541495,0.04122414850544191,-0.025912179266260084,-0.0030871193634959527,-0.6770524761488906,0.6855546478768769,0.695254291115896
45.2879,309.2012,0.21634376090059448,0.6760268860995704,-0.019560508868544248,0.022366554759977147,-0.07242326048814166,-0.0019738441492995577,-0.6322433265367982,0.723371375471848,0.9279816750333237
45.31,309.2211,0.19219994565755538,0.6968922837115072,-0.060709232919935144,-0.004741699928974642,-0.08036843955964273,-0.03955962945758736,-0.6376976826268238,0.8695543677136891,0.7196531297524026
45.3258,309.2411,0.14774952615184028,0.6979899641775518,-0.08517035284587865,-0.0368784739217909,-0.04505643831510357,-0.046669075669516474,-0.2435059296013739,1.4535432364714957,0.5488612592968727
45.3455,309.2612,0.09891625157358108,0.6829377332849897,-0.08985803471572515,-0.049910216762922364,-0.0017112439301186473,0.03950543275525197,-0.3652065475609245,0.9989994051222865,0.3367790465334079
45.3663,309.2811,0.05935702624362271,0.6539921103905606,-0.07779956648726495,-0.019752718808308693,0.0034812433884861245,0.03285518519868682,-0.6893456347699219,0.7053370644265022,-0.17184289735064512
45.3871,309.3012,0.0424810894815906,0.6209152694071598,-0.057172870409573445,-0.0035151613239903273,-0.037573900208740005,0.006792846256170575,-0.032634065830855694,0.7569487918486999,0.0027026405874279627
45.4061,309.3222,0.0510924594900137,0.5960465623319737,-0.03753748007744495,-0.037926954268109846,-0.048699016462281045,-0.03705812288609859,-0.1081410877373385,0.612805256028518,0.4737879096460833
45.4274,309.3422,0.08063184818156999,0.5917010367719406,-0.02747083136032405,-0.03623937119048064,-0.011964001380979954,-0.03137944959626398,0.10754131431841814,1.026036148774196,0.5507380930381419
45.4524,309.3621,0.12014266776967758,0.6114646973566351,-0.03257914166095005,0.0033801721971101362,0.029761167622082862,-0.0073634850429786505,0.17111880134320503,1.18021656832788,0.7609434720603279
45.4699,309.3822,0.16383144309537762,0.646511064120729,-0.05467468364198435,0.022311279302999084,0.03652003167859429,0.04333323517057124,-0.15381758186082517,1.217610992462889,1.0030550246841012
45.4878,309.4022,0.20090017129785748,0.6950020499466973,-0.09261934434625385,0.027054851660507383,0.0037901802951458064,0.037652685046995364,-0.1851726531175233,0.8192095506713764,0.5169550856952857
45.5077,309.4232,0.22004927324546442,0.7512982425295955,-0.14045241621624005,0.05808989515975694,-0.02713055000950699,0.0014225993111512643,-0.502109314056181,0.6422022528516861,0.29736553796674925
45.5285,309.4431,0.2132638458002879,0.8121162515071905,-0.18895307492096886,0.04146369377881837,-0.029286998571326127,-0.017073910014683828,-0.2221221774969711,1.1901224995188013,-0.15495139367921942
45.5579,309.4632,0.1843814796704863,0.8778616435322488,-0.22868570012244774,-0.018337347752003193,-0.00616745606241978,-0.009316643356393178,0.04287295607562576,0.9010923276688806,-0.46838262847123424
45.5682,309.4832,0.13674925339891858,0.918457126061436,-0.24748355712471884,-0.091800793620297,-0.01730682044584128,0.005379903254618141,0.17395774274152292,1.4138180049974456,-0.26756141815539386
45.5865,309.5032,0.09814217584572488,0.9480270287771204,-0.24388562689670415,-0.0845199073726825,-0.061005325710631414,-0.02230276881786083,0.11031020720036981,1.5712032846423103,-0.4665057947299669
45.6054,309.5231,0.07880698404370512,0.9560968318823675,-0.21643289174708624,-0.026737628643715584,-0.05205919759103659,-0.022290256592919024,0.2729602106720554,1.547633306166743,0.18663234723184455
45.6265,309.5432,0.08421791385581578,0.9470619862764134,-0.16946199493054884,-0.011213623919836865,0.014167631697011433,-0.02848161829974378,0.17134232804981211,1.793602433908853,0.41372922992546424
45.6511,309.5632,0.11047205165286461,0.9270344896005918,-0.11003681422789505,-0.012296362786618088,0.05572865072296785,-0.006677502310544627,-0.42135808160876326,1.57485989402567,0.06839182153185996
45.6747,309.5831,0.15285270599504658,0.8950345872731689,-0.04572697472656825,-0.011979779392323104,0.04729546776759672,0.10298526758058886,-0.8702468737247177,1.5277493829067545,0.4099755624429227
45.6887,309.6032,0.2076138558580054,0.8492287351881402,0.01562516369956215,0.016772656042562378,0.005032567463886692,0.1559720377641112,-1.6013745933522598,1.3027575212160099,-0.4026934475267986
45.7063,309.6232,0.2526659321129519,0.8021779769509307,0.06623538649904306,0.051264023671671,-0.008220953235639794,0.09668411109989984,-2.015929275780471,1.2645184901610793,-0.6260366627378744
45.7255,309.6431,0.2775194361388329,0.7668194965004382,0.10071762044264765,0.0334073354055069,-0.012032420485857176,-0.009499009034919867,-1.8228749752373727,1.0454551535282972,-0.31823592916966875
45.7453,309.6631,0.2742462128573749,0.7544732024845295,0.11642970684794185,-0.04928251166345622,0.0003565276865714475,-0.056702941655967114,-1.689398300586375,0.5650105363644818,-0.45149112479980746
45.7669,309.6831,0.24152409035846611,0.7655335891168193,0.11315344589899445,-0.14118616627133213,0.0008898691177409366,0.02893698195816307,-1.8060782347115991,0.2855949447881012,-0.07424754280462764
45.7873,309.7031,0.1842124486122207,0.7835310514351839,0.09298772754063986,-0.10951926933384094,-0.050165369869813924,0.0519260056493504,-1.594255596755803,0.18289530011403418,0.21103118586834999
45.8053,309.7231,0.11433554820784692,0.7994933162877298,0.057857382672181955,0.013953916218209971,-0.04861361944709816,0.022867927250144384,-1.1139416848667898,0.31684155382591184,0.3442863814984838
45.8317,309.7431,0.04979451075956509,0.8161438420362279,0.010329182167923653,0.07211535470515706,-0.015092700828026178,0.0036960705830757956,-0.7572866066667275,0.6681030386662917,0.2185385208334229
45.8483,309.7631,-0.0029945352764040034,0.8397987429473885,-0.04438981054409315,0.03933566937632733,-0.013080749866770538,-0.06528101027043964,-0.6240200775648209,1.1223555190981211,0.11906633254613616
45.8681,309.7841,-0.0339189577280814,0.8672974702306713,-0.09823012919684454,-0.0018586103775126651,-0.028395284340578496,-0.08762377754338316,-0.5917976617967272,0.8781344968602927,-0.15682822742048705
45.8865,309.8041,-0.0420526514185548,0.889834626717454,-0.14265799213277944,0.008886306179750314,-0.00725080168554803,-0.03453284308722039,-0.4266723406660644,1.0979114878704161,-0.1624587286442932
45.9064,309.8242,-0.026450495125469792,0.8989305058713704,-0.17184521060660013,0.010600763572448801,0.03186083414918255,0.058307553175290454,-0.6746472070062716,1.240467316561114,0.04774665037789739
45.9275,309.8441,0.010391707038984205,0.8925263688629019,-0.18452708084304004,0.021130206015386413,0.02058537729539576,0.012128997388223487,-0.789145398695486,0.9025785280879993,0.12469683376994974
45.9494,309.8641,0.059395254531941,0.8781982962279307,-0.18391355599653475,0.03081784715180864,0.00379275234121361,-0.07961376394126819,-0.5080673909182682,1.4212621763067463,0.4812952446111636
45.9665,309.8842,0.1095357364353784,0.8677971355129324,-0.17539887126164205,0.015651356535525345,0.05413051052025715,-0.06975506910400274,-1.4065722226288468,1.3465322197011627,-0.014188863083997494
45.9864,309.9041,0.14938554114355973,0.8721324521976537,-0.16408818395422226,0.025776841489155062,0.08222451723276138,0.041529910750834745,-1.7538431321225592,1.0534525808401394,0.1002979951334456
46.0069,309.9241,0.1808811936943583,0.8947751055645075,-0.15295032495060934,-0.010928119441624239,0.04429775946192968,0.0623189724916306,-1.3747134306000885,1.112056730279455,0.07965282397947565
46.0315,309.9441,0.2092791865697034,0.9359417413798714,-0.14215476960312776,-0.04559944086239207,-0.010144433346830859,-0.03302856084359283,-1.6353450793006625,1.2841405083359054,-0.20750273843476472
46.0477,309.9641,0.22996547735530348,0.9828926720438431,-0.12732980229274574,-0.009015540582445346,-0.0416982516111611,-0.10046038191679633,-1.2847315076365695,1.1779446526532753,0.17537134478422786
46.0671,309.9841,0.24105676501560602,1.0354456722949916,-0.10593689486325905,-0.02062112406913542,0.0016191307713604008,-0.0914046591151707,-0.788851823472515,1.2043986944704235,-0.23377841081254086
46.0867,310.0042,0.2382161839857177,1.084647381771711,-0.07713881383356215,-0.01472494045633412,0.06104746917072848,0.038280173127826486,-1.0425045726093571,0.879751649821991,0.1153126650635996
46.1065,310.0242,0.2256496479229294,1.1241387900653812,-0.04576720074592635,-0.014731663575287605,0.03923978583321685,0.07207162622251435,-1.064839098899041,0.549277586825959,-0.012312029342730423
46.1281,310.0441,0.21073830276961258,1.1517189255916085,-0.020946667594401648,-0.06820697935014639,0.0029168280290925086,0.022115316919895295,-1.0836074363117367,0.4329138948672451,0.010209975552504526
46.1465,310.0641,0.1971035618824319,1.1611069884689014,-0.01023193052231285,-0.08119513277303199,-0.017669723192798206,-0.04951654526064596,-1.4892116222893028,0.7741679418063404,0.15660300737152802
46.1664,310.0842,0.183172547482769,1.1578956301750951,-0.017827911191181947,-0.10269142859772794,-0.050236757305913114,-0.1282781860186467,-1.4610591161702593,0.9487134797444094,0.12282000002867594
46.1878,310.1041,0.1645423154573557,1.1428726142362717,-0.04003815725951135,-0.12056655896705688,-0.05990256559575271,-0.13775494518956383,-1.3467844511876543,0.673216402636553,0.39308405877149466
46.2074,310.1241,0.13907536404694582,1.114363516557756,-0.06763305624479815,-0.07330288847774975,-0.04017780856204844,0.006792846256170577,-1.2997235106231875,0.34099423413623886,0.3142570416381754
46.228,310.1442,0.1189151334947462,1.081171034043456,-0.09240748495077095,-0.030209048347517843,0.01563600024538938,0.0316352432668616,-0.9056151872716169,-0.31153416108402465,0.46815740842227704
46.2464,310.1641,0.1181061153294366,1.0494025381563785,-0.10813934841366565,-0.03742707413353097,0.04526224037210799,-0.032890613563609526,-0.9696263465521041,-0.14440334862303822,0.6389492788778073
46.2693,310.1851,0.14219978390366939,1.0333169818724905,-0.11363567156219304,-0.07645003268020067,0.012735897382755764,-0.06418806742177369,-1.3860691961933582,0.17765098360119316,0.35742421768737564
46.2907,310.2051,0.1813090675947267,1.0324274124910167,-0.10856536650633525,-0.06731160600385433,-0.024073857223896804,-0.1393414953121837,-1.3619165512070002,0.459397382516612,0.5544917605206746
46.3094,310.2251,0.2182533214008514,1.0436365076952234,-0.09464701610027876,-0.0374417500220316,0.01086724986340404,-0.05438974406985237,-1.4878271758483261,1.0467515097403979,0.6070431052762273
46.3307,310.2451,0.2427188473364073,1.0653495563212383,-0.07632756407373105,-0.034972790655221145,0.07404279793762891,-0.009061706773204063,-1.2304681408017677,0.9623775270290545,0.385576723806419
46.3473,310.2651,0.2569844211342664,1.0894685945207971,-0.059418197293432354,0.008745658469317267,0.05004318250976708,-0.02176755839597546,-0.9735427780109097,1.1993147763323817,0.5451075918143269
46.3681,310.2852,0.2635811216273796,1.118999162977498,-0.05180033317439315,0.07748876985724425,-0.004623526885085563,-0.022345935993910028,-0.671374593352259,1.1527575212160095,0.5563685942619464
46.3927,310.3051,0.2686987974363132,1.1595023734240038,-0.05959065028681835,0.04935909486913668,-0.03582751181135257,-0.034536596754702935,-0.8325000533502368,0.8257796692285362,0.33114854530960147
46.4178,310.3251,0.2714990678380169,1.214465234166172,-0.08377654023649775,-0.02138828059541485,-0.02215723969157203,-0.05211439596418657,-1.4252004630088158,0.6070371293453539,-0.014188863084002273
46.4369,310.3461,0.2688268573559088,1.2714925598382762,-0.11768681180361024,-0.024472145497863716,0.0006207979132449754,-0.04766285913551871,-1.539698654698027,0.2691483408722368,0.06276132030804986
46.4675,310.3671,0.2653395979487414,1.3209884626450903,-0.15225072419617205,0.018053129517193733,0.005399503006601173,-0.020089981836904015,-1.7138445207957058,-0.01855602893336385,-0.29008342305062235
46.477,310.3871,0.2653910943869972,1.350295800238538,-0.17744788890777505,0.06492833281890947,0.0009537634772387028,0.022004270923536833,-1.1099418237341045,0.2096406928485621,0.11343583132233276
46.4953,310.4072,0.2651171178860221,1.3567310955861158,-0.18725422523252014,0.09430408719408566,-0.010890559396668945,0.011342916856255086,-0.7293576272542938,0.22926271102338794,0.5319697556254422
46.5123,310.4271,0.2626589828507461,1.346979620399183,-0.18186215447888385,0.0299568964313456,-0.010863142125657317,0.045775934284833585,0.01369962725494002,0.44421768898063185,0.6633481175143157
46.533,310.4471,0.2548413522407792,1.328164126114677,-0.16592577130215974,-0.04505458427693272,-0.03424432251698288,0.03818508021826884,0.2065437822489496,1.1598514499434942,1.0049318584253732
46.5568,310.4672,0.24047814646641802,1.305880867801882,-0.14694798491259695,-0.07590186112379536,-0.03039543896753112,0.025864605123704792,0.1917052574525761,1.2478525962059783,0.8078643155920694
46.5776,310.4882,0.21735236685164622,1.2805383538680137,-0.13206539723015015,-0.036422630222071706,-0.025840207376844566,-0.031615930647663944,0.22203950600762903,1.3639249372473115,0.47378790964609013
46.5939,310.5081,0.1876234431126244,1.2643326720181691,-0.12861872965932636,0.025626178670006168,-0.017689592245961765,-0.05496249116656313,-0.24525399978168427,1.190705201353562,0.46815740842227643
46.612,310.5281,0.15813872191610412,1.27147665891145,-0.14018211571491454,0.0009198504900335166,-0.0019028269617921813,-0.00048645340934342637,-0.2354361588196413,0.9275758153182464,0.07589915649693671
46.6369,310.5482,0.1350919920876698,1.3058418190588723,-0.16387953350100495,-0.027595353535455426,-0.0006830919198236422,0.043859061423750276,-0.10239315642434065,0.7684424301691022,0.3236412103445208
46.6513,310.5681,0.1249082879691768,1.3539432107234814,-0.19073514802703445,0.002128691270632541,0.003325985877921783,0.004732082808256596,0.2990710713878138,1.157520642604453,0.4306207335968877
46.6719,310.5881,0.1283590370348116,1.4104467010326383,-0.21298110344024773,0.007526112668842331,0.006957998546822478,-0.040364478326968475,0.46251837085452774,0.8028938992980941,0.33302537905086604
46.6966,310.6082,0.1426848618567571,1.4628276579415227,-0.22414364905747794,-0.04779678869036179,0.04245001011975692,-0.0235070704685088,0.011881508558264475,0.49294535306124576,0.5939052690873394
46.7144,310.6281,0.1671188532483856,1.4896157499867215,-0.22020570926916974,-0.07250503036353854,0.045848911746061094,-0.01678581603539895,-0.13418189993673413,0.6913522203922602,0.2185385208334278
46.7341,310.6481,0.1970387444941355,1.4916999747103414,-0.20533778995126553,-0.056170177020340314,0.017877002473890014,0.06713492787172831,-0.16233440605577754,0.5168066824541911,0.2523215281762799
46.7518,310.6682,0.231409296269162,1.4692815266409365,-0.18529841106567185,-0.03768912660333478,-0.01094248494067562,0.102909568619691,-0.48661359029750256,0.8462757401555041,-0.23377841081254094
46.7719,310.6882,0.2665183019101478,1.4386169006138982,-0.16780603937449723,0.0006419024986038539,-0.013396104508656092,0.011509955059228078,-0.20539548548755715,0.7418279899771538,0.10029799513344062
46.7924,310.7081,0.2976438748892334,1.4101907685512793,-0.15621701536279195,-0.05754060893338935,0.022966324612986085,-0.09973780092640756,-0.14604138630206245,0.389823404927215,0.888568166466663
46.8171,310.7281,0.3191251421156525,1.3897122429659894,-0.14958804447097604,-0.09832909677629881,0.02201569998694754,-0.05077902875727328,-0.851785492692514,-0.20579005469357403,1.0593600369221912
46.8384,310.7481,0.32617424755717944,1.3667533429919119,-0.14179084921060986,-0.01675124119142693,-0.03277959538684697,0.05958849220370693,-0.9251107721629839,-0.40840678741049236,1.2301519073777187
46.8523,310.7681,0.3206184543008667,1.3418623057684704,-0.12903306742112455,0.03341607481112561,-0.0501002361710212,0.08676473197166668,-0.46690785985704725,0.008451268886326174,0.8885681664666589
46.872,310.7881,0.3098365547051052,1.3293726232734095,-0.11222145277596965,-0.020221757646670765,-0.02188479740935877,0.04462637361830597,-1.1193259924404522,0.15145884686920688,0.1246968337699499
46.8924,310.8082,0.3002020016543449,1.335093576407759,-0.09379979118102905,-0.07452932000072691,-0.0228956840045068,-0.044907980008958535,-0.31989367717677153,0.40393920150403906,0.17724817852549296
46.9158,310.8281,0.2945125411151987,1.3607428195995614,-0.07864306304766636,-0.10026471309403186,-0.014317121182997385,-0.09364153212914046,-0.1909205844305198,0.6635723765307934,0.6671017849968551
46.9318,310.8481,0.2858494543445999,1.3903885412421566,-0.06957077513955325,-0.03652552773206769,-0.013740171938819672,-0.0700994680955257,-0.43700728355768975,0.4458348419423302,0.9354890099984022
46.9509,310.8682,0.2769627772428259,1.4295595555231935,-0.07307857669516535,0.0669124415786596,-0.017640762212310538,0.044804672823726584,0.1839857292526594,0.21599152136648672,1.224521406153914
46.975,310.8881,0.2698139187330293,1.4782209924869942,-0.09153392898328694,0.09105544772050257,-0.015078124132884124,0.0781641413522989,-0.579364406142973,0.23522068191356973,0.6877469561508156
46.9945,310.9089,0.269768659677952,1.5408737582938377,-0.12453397860860366,0.05105104994728837,-0.015055390326812128,0.025390391798410676,-0.8342481235305507,0.562941634110603,0.2504446944350057
47.0219,310.9291,0.2774390073403573,1.6098327302694944,-0.16587056557754584,-0.02058962682206699,-0.027819586296815323,-0.04820276164175726,-1.1641351420525445,0.11364211927423579,-0.10803055014747788
47.0328,310.9492,0.2775924352253048,1.6595659871226733,-0.20318395517908544,-0.034807084550969584,-0.02825982421601139,-0.08507628854523328,-1.8078263048919119,0.02275690967016737,-0.15495139367921615
47.0514,310.9691,0.2710137545942071,1.6848932456926995,-0.22995595182757375,0.048433513990164795,-0.01112411326097829,0.004465572416996315,-1.7872398487825405,0.0903929375482674,-0.10803055014747497
47.0762,310.9891,0.2539898161993097,1.6808007798758415,-0.24223634910169003,0.06785649250572805,-0.030451646464486087,0.09331707136806226,-1.6411764402875422,-0.10801392978274882,0.26733619810643705
47.093,311.0092,0.22756360278597648,1.6521380905676948,-0.24174500830018195,-0.0026803907516374584,-0.05999832266015224,0.07390404156524052,-1.2490963811817368,0.22288243667324584,0.38557672380641417
47.1144,311.0291,0.19696818406162658,1.60971618909396,-0.23395020585750023,-0.01884300570656537,-0.07148253538070529,0.010850560804795373,-1.2975417681871793,0.28252103723950195,0.013963643035041353
47.1333,311.0491,0.15869412412409872,1.5597609333145452,-0.22346427757370624,0.0022043043637693183,-0.0712192129446302,-0.038609325973257884,-0.9278662838874182,0.5945090398980111,0.015840476776315313
47.1633,311.0692,0.1212760050025482,1.5162984850761123,-0.21600902143494785,0.012117830519008221,-0.04054135078214898,-0.060621144896490876,-0.8693094806969567,0.5735612196788656,-0.36327993896013616
47.1756,311.0892,0.07606845997324801,1.482239569479095,-0.21257181959977534,0.011957115651841304,-0.029833782958583896,-0.011932949591722948,-1.2933183803478847,0.7887060418431252,-0.5641011492759811
47.1996,311.1091,0.04585286710509151,1.4766469763567307,-0.21677212293222514,-0.028197045919067777,-0.03833958469822026,0.05387853835151784,-0.7288405253247117,1.1444687429867877,-0.17371973109191322
47.2154,311.1291,0.032356997853418695,1.4892252311409135,-0.22459434798447495,-0.0467592172567573,-0.0546250469918953,0.032378782234027896,-0.7686289911024776,1.2817802551646453,0.18287867974930366
47.2382,311.1492,0.043603458207396195,1.5229813571217379,-0.23460069209611426,0.0027579378098328963,-0.032274685579036025,-0.05826478013432693,-0.6128878386781592,1.443375400195411,0.18850918097311445
47.2626,311.1691,0.07574525748560262,1.5679822006156738,-0.24242748460090105,0.045195335819347815,0.03782918207995646,-0.07405270556588649,-0.4346720629314335,1.3123132098251151,0.2992423717080161
47.2852,311.1901,0.12672224088874928,1.6207803598559491,-0.24563782822380645,0.031024670916818185,0.055129059684272765,-0.0224801296064108,-0.3031536040098396,1.5037276551390106,0.11906633254614085
47.295,311.2101,0.19612663733349178,1.6706842279083423,-0.24173324499208723,-0.011966248861326904,0.012299357059773183,0.01984778895481811,0.021922876226917007,0.8432018326069032,-0.14556722497287158
47.3173,311.2302,0.266800552683902,1.7209480531485746,-0.23285111620944235,-0.0553700049889763,0.02796806906834696,-0.029781325665572945,0.014356826217244933,0.736292322546934,-0.06486337409827832
47.3392,311.2501,0.32921351511061764,1.7539711162018203,-0.21856914987990994,-0.0626700785801916,0.0342956128028121,-0.016173029818874432,0.1418754240061572,1.0349076288381787,-0.014188863084003089
47.3541,311.2701,0.3733548659951648,1.758674370331551,-0.20078682791152874,-0.03842075775728005,0.024563401904863627,-0.010443369212402007,-0.5469885121846347,0.9159512244552638,0.0758991564969407
47.3764,311.2902,0.3919059259389101,1.7471833442482756,-0.18624455186304284,0.030982938901378605,0.018362321188547363,0.005550382319450123,-1.0580703448844018,0.9872438617167214,0.6577176162905027
47.3964,311.3101,0.3886305816921581,1.7278173160873374,-0.17892523345694414,0.04919760698438953,-0.009356736696784898,-0.008570601944238527,-1.1444160304545694,0.8239006111816751,0.7008847923397025
47.4138,311.3301,0.3685084367566089,1.7129531340501265,-0.18050461480482674,-0.019111441074261683,-0.03579683466042242,-0.04907830458205951,-1.4523321464262164,0.7148206921574641,0.8397704891936524
47.4343,311.3502,0.34092062976864285,1.709766491112626,-0.18923540290797564,-0.067866548172093,-0.01245249866697665,-0.047258714269898666,-1.142527863241532,0.46360724790251406,0.7590666383190591
47.4606,311.3699,0.3148592552706118,1.7163350798913906,-0.20063355843728575,-0.10036450931010743,-0.0052938577226659565,-0.011299518204044465,-1.2661866969304847,0.6809224790310153,0.5000635820238574
47.4785,311.3901,0.2944989788213543,1.7049705242185584,-0.20498609904316484,-0.06880580797378398,0.0034300905625393634,-0.040841506902874476,-1.0653428196711028,1.1821545180391764,0.37994622258260535
47.4972,311.4102,0.2863936770996847,1.6852034697093339,-0.20293670775502745,0.022583737627626218,0.013217273291282566,-0.005227335439790342,-1.123535999122227,1.1933568054421992,0.38933039128895297
47.5143,311.4301,0.2911225167432931,1.6670525253670656,-0.19692630442465933,0.07175859914960872,-0.008834585272426006,0.009677852522125439,-1.3486726184006916,1.033509765915714,0.33490221279213805
47.537,311.4501,0.3043851416096754,1.6658748435080921,-0.19250806189954003,0.01592651527588246,0.027658494710471257,0.018282509614599297,-0.8643588453789964,1.0602551586502427,0.2373068582461214
47.5549,311.4711,0.32306104777633676,1.6809166394417507,-0.19363192774682345,-0.10393119451339126,0.04296669401697428,-0.04806199911116203,-0.629697960361456,0.6551526457589892,0.2579520294000864
47.5753,311.4911,0.3397095154213419,1.7086165607799126,-0.20390546952529234,-0.04213102927544872,-0.014892281507782034,-0.06441923077757339,-0.4626844720177524,0.5146362734899511,0.3105033741556363
47.5973,311.5112,0.3477345536741729,1.736726704337008,-0.22288748718847823,0.053854168870624254,-0.011160053002129596,-0.020507577344336492,-0.4720686407241003,0.4564544275105942,0.32176437660325374
47.6163,311.5311,0.34396302168571674,1.7652107368992775,-0.24899756594504313,0.12911288157004017,-0.01355403426575092,-0.015716333608498848,-0.38165304550488394,0.20103111786974193,0.03648564793027596
47.6396,311.5511,0.3322782213356445,1.7961105868296465,-0.2777391265624465,0.0804239084763736,0.011166332553516185,-0.003428703104407015,-0.49985752310380654,0.27216335675640074,-0.01418886308399772
47.6607,311.5721,0.3207537234272974,1.8337344954462973,-0.3040574936660916,-0.004893378320622787,0.015003154412138741,-0.04495239840750192,0.02024485456296938,0.26879809829042156,-0.23753207829508025
47.6791,311.5921,0.3135627198253056,1.8673839746950696,-0.32074506672325165,-0.0498687178865366,-0.018565950896526972,0.020817173582183844,0.503761331589635,0.6266002558557427,0.41560606366672903
47.6984,311.6121,0.3099131995910236,1.8901609225181784,-0.3248780326256411,-0.051907292318222206,-0.04279711237297766,-0.021465388163631062,0.12237983911479162,0.938035002511712,0.7478056358714456
47.7245,311.6321,0.306278475119862,1.9024963696223745,-0.3191235996413246,-0.014163992378726281,-0.020156652748102924,0.009797657075943145,0.26291884300339813,1.1973768266210851,0.9261048412920493
47.7367,311.6522,0.29952874869757773,1.9027112900640641,-0.30799638265772716,0.03474845784567373,0.008748538643177131,0.020876606650657374,-0.16320175056717307,1.159429146483532,1.0143160271317186
47.7582,311.6721,0.2915951824986852,1.905170481770717,-0.30007007252830875,0.05361659769440846,0.004601005705332507,0.002170517557047184,-0.6691228023998846,0.7827186251207242,0.24481419321119938
47.7787,311.6921,0.2860385631764519,1.9188635549268265,-0.30018052896179465,0.041587287159417195,-0.023050719611613348,-0.004251069088706626,-0.6579205149968612,0.7921728070194672,0.30299603919055806
47.7964,311.7122,0.281698462252322,1.9433395787014265,-0.30745004786081,0.003999594830851215,-0.049758412048722445,-0.014093185227924214,-1.0070095431872508,0.5478208322390581,0.3480400489810253
47.8192,311.7321,0.2790864009597006,1.97526596258045,-0.3182374199554607,-0.0667222663679903,-0.03677195148153986,0.0005689527644971614,-0.6690527538835228,0.47115292592217706,0.2335531907635798
47.8367,311.7531,0.2743150500100248,1.9957193641801274,-0.32420010838182756,-0.06765378787102864,-0.002257384800377555,-0.026908206013312792,-0.22089120924623878,0.5377545026733382,0.631441943912731
47.8592,311.7731,0.2723675323918228,2.0072327556618417,-0.32390839819304434,-0.02152993880420089,-0.021457520586045463,-0.0030617821079888118,-0.2244573981232239,0.32364413163601585,0.48129524461116624
47.908,311.7932,0.28442015298055723,2.0296663469648024,-0.32243383223866945,-0.0105874409126912,-0.04344203365868541,-0.06522439245257802,-0.26556026182560355,-0.1231936233187301,0.37619255510007116
47.9138,311.8132,0.2800268799239643,2.01392982482351,-0.30627412180457037,-0.0959123823085855,-0.04574867031323003,-0.02133025613425965,0.10018540985783411,-0.015570458881418415,0.5976589365698766
47.9196,311.8342,0.27280491950679303,1.9945583428892715,-0.2876338282197184,-0.14418038012961204,-0.048208256803594626,-0.02865272297582285,0.16987445193495254,0.2845016019967259,0.28798136926039697
47.9383,311.8541,0.2694201737471591,1.991015718826821,-0.2751930120784822,-0.09970922695925516,-0.06399310714738181,-0.05039740589654845,0.6744110573266886,0.3886285554254775,0.6070431052762238
47.9594,311.8751,0.2582223477329371,1.981952933725547,-0.26604281154358866,-0.046451573326615286,-0.04392765462501473,-0.06831553762444897,1.045904660323124,0.6518888940033716,0.6783627874444671
47.9798,311.8961,0.2383425849765518,1.9669208321053226,-0.26195238350834077,0.004491675776366596,-0.009525510186527107,-0.004338967468922747,0.8019296551155987,0.6872438617167221,0.6577176162905068
48.0049,311.9161,0.2164111239379926,1.9570803642220465,-0.26580861177881954,0.02815021780972639,-0.015966549579696374,0.0015987088772070604,0.9161342715818407,0.7233124838074116,0.9392426774809383
48.0297,311.9362,0.19866859133329579,1.9598538867405753,-0.27725119159634576,-0.0015646880138360058,-0.04267296568578323,0.001573997232947011,0.6483702451272918,0.46717551978921856,0.3517937164635615
48.0408,311.9572,0.184166476738574,1.9571781249662086,-0.28774171929654124,-0.10286030991146759,-0.03616182145109895,-0.032894054425468514,0.7101996619717672,0.35851790422496976,0.48129524461116585
48.0618,311.9772,0.1824096378818631,1.9599680697986435,-0.29652245407241135,-0.06550592406156239,-0.009446629181686669,-0.01670730182388917,0.2992812169369031,0.22282354500880888,0.39683772625403596
48.0815,311.9971,0.1895846472861749,1.9541876451171885,-0.2971468961080499,0.056602454070646506,-0.002904684761991667,-0.021120050755237464,-0.04944418751414907,-0.031273962587722796,0.07214548901439935
48.1008,312.0172,0.2066179190298772,1.9503854617426815,-0.29183945774921605,0.10175469342664455,0.010129199245196247,-0.010512499255205435,-0.02529154252779313,0.25047243632769606,0.26921303184770606
48.1212,312.0372,0.23326637532714722,1.9634508668434056,-0.2865234845652422,0.02927527496260429,0.03584480476814661,-0.006407863863048899,-0.07373692953323534,0.31011103689395386,-0.1024000489236671
48.1459,312.0571,0.266971772485497,2.0028725973228303,-0.28803656359938595,-0.06226820691865066,0.02992521710436593,0.0071369324420699955,-0.3929253814242691,0.5031426351695459,-0.01043519560146312
48.1625,312.0771,0.30265750716400003,2.0508422098915746,-0.29681610255574514,-0.059007545187366096,0.0055573198383302444,-0.04118653150564453,-0.07991853310193207,0.47578509476804115,0.42874389985561856
48.1834,312.0972,0.33113559205337745,2.102470024098737,-0.3144803019895195,0.014676878301507226,-0.011265254530655164,-0.06019917011032876,-0.16044623884274029,0.1565133191750301,0.3105033741556365
48.2036,312.1171,0.3461182743698397,2.1457592134085233,-0.3368759971686244,0.05192954053718712,0.011879251330560125,-0.07554635241831352,-0.019837186437767537,0.10428944408585498,0.47754157712862727
48.2234,312.137,0.3490711769658565,2.1819159230281127,-0.3599769389609835,0.07116874741236258,0.025968333956647948,-0.016024759953314142,0.42294005062585616,0.005508313880309413,0.6558407825492372
48.2452,312.1581,0.3465033713215902,2.2141912975248865,-0.37898157125895815,0.044879976940058616,0.00839595702836344,-0.0018068059463265636,0.49997161600603723,-0.20089598076255005,0.6126736065000357
48.2655,312.1791,0.3439339108423956,2.239355340368895,-0.38839535625103516,-0.0690719296780348,-0.024225864003815708,-0.021178232601216814,1.0889657397549035,0.42686758648040884,0.8303863204873064
48.2895,312.1992,0.3420981533403891,2.2523740961296537,-0.3852791349467728,-0.09060061672158522,-0.024181723673828284,-0.006335918569633564,1.1749478015857375,0.5999563698315789,1.1569553914682098
48.3144,312.2191,0.3373971998025776,2.2414750019777316,-0.36842465681835557,-0.007650886743086936,-0.005547397807138985,0.028846893938582127,1.2612934871559047,0.7632996203666251,1.11378821541901
48.3232,312.2391,0.3303482571747229,2.213553118551828,-0.34490032346661986,0.07604789305087921,-0.01013696308454888,0.06513265907541722,1.1802620606430352,1.076904775986833,1.3878059416443633
48.3428,312.2592,0.3200637415589158,2.1832383870403667,-0.32392686580397817,0.08122163153089894,-0.016613784508426613,0.022979911663373462,0.5853098600320862,1.228201132198935,1.354022934301513
48.3669,312.2791,0.3092214010589064,2.1674442305587,-0.31341631750950705,0.019150022693786673,-0.02704375929852261,0.001975952459202243,0.13351207800144857,1.2590548836090016,0.8172484842984175
48.3898,312.2991,0.2958234152572724,2.1669313475293315,-0.31416553683765275,-0.08764379987896617,-0.04050945924959024,-0.042676424690589035,-0.3033771307164469,0.8903417895580359,0.46628057468100476
48.4108,312.3192,0.2780615940520122,2.16746028382626,-0.32156061000417346,-0.09618797433245058,-0.02592334086119361,-0.023240560077248524,-0.2502046350996483,0.7040112623821839,-0.13242938878398025
48.4234,312.3391,0.2575094880868415,2.1571014277330125,-0.3314405080510723,-0.01120243528367218,0.0013770012412325041,0.006357420828196038,0.16260197714825275,0.479412258319182,0.010209975552506514
48.4445,312.3591,0.24182923398007,2.1498170241037067,-0.34687414723813625,0.07400959803576362,-0.021678392178265497,0.023304291094989556,-0.02317984860814637,0.503564938629508,-0.01981936430780875
48.4635,312.3791,0.2344763645254988,2.1548314979983485,-0.3687815375183929,0.05718894924077662,-0.03751441470718498,0.0316324280162497,0.217088870689664,0.8772309982759341,-0.12679888756017382
48.486,312.3992,0.23732360217520582,2.181413670976198,-0.39758007744744556,0.011603982715194963,0.011218792834208796,0.030603297514786888,0.3651238760715825,1.5550480316438264,-0.017942530566537246
48.5046,312.4191,0.2502546263239722,2.227342063648125,-0.4306259314473453,0.014289444961774263,0.02105465876300043,-0.026951998800609084,0.0369148792135348,1.6801522511239397,-0.2844529218268191
48.5284,312.4391,0.2693408409218655,2.2832992924413467,-0.4636694819038445,0.027216009002034778,0.01201335581261565,-0.0726970059934428,0.3387194401328518,1.643340528823691,0.09654432765090333
48.5495,312.4592,0.2895994566033147,2.3350396278321814,-0.49115878401615576,0.03495238531035057,0.00973488892417355,-0.04546727646385688,0.2765263995490403,1.7617436772040636,0.33677904653340973
48.5659,312.4791,0.3064075637835813,2.3738418492816935,-0.5088389844340695,0.01291161017517293,0.014058083086072183,0.004057361078270188,0.329041696203533,1.2833385164619102,0.4662805746810115
48.5826,312.4991,0.31634398538135533,2.3957198188210898,-0.5135565546075186,0.016554970043423375,0.01406691426922494,0.00713912208143481,0.09852076935140289,0.9581087699787162,0.19226284845564914
48.6026,312.5192,0.3184199000000793,2.403239513754081,-0.5044564110884127,-0.012316504452254169,0.008937772396024172,0.0021877218663421583,-0.08144307657563533,0.8263329252310803,0.000825806846158661
48.6287,312.5391,0.3144224064460333,2.405148170116096,-0.48382227400363237,-0.06966002221050951,-0.01171603770515902,-0.012393399469581078,0.3071408421695478,0.631553221451205,-0.042341369203041365
48.6477,312.5591,0.3046134723931883,2.391630504900452,-0.45001289843923525,-0.07960270397169265,-0.022566664624494474,0.0013697351607721766,0.5420252538936943,0.839836574140925,-0.3689104401839472
48.6631,312.5792,0.2894234538470228,2.3685965159688642,-0.40842381388957905,-0.06398848911679766,-0.015430532524145533,-0.00405431435149686,0.6226230081508674,0.8475426505353866,-0.26193091693158493
48.6822,312.5991,0.2717957140562667,2.345395765772637,-0.3669738661086941,-0.017311467578638703,-0.02096499898755993,-0.016555903902093428,0.7368276246171074,0.883611272626078,0.01959414425885389
48.7036,312.6191,0.2531107445631548,2.3245448684982857,-0.33147035524787877,0.01246115340196804,-0.011702748907798141,-0.018750548156884636,0.36308223066830086,0.9903898301434667,0.25982886314135745
48.7318,312.6392,0.23708666551470542,2.3143415719554747,-0.30845115517919036,0.009395255723006027,-0.008555314517362628,0.02101080026315815,-0.010663163280509022,1.0971683876608562,0.5000635820238615
48.7501,312.6601,0.2293154317723189,2.3098162501456168,-0.29882020155864825,-0.040161955146058005,-0.026632021905559616,0.055537972184423676,-0.10857475999303738,0.9341164880431894,0.8547851591238065
48.768,312.6801,0.2331622312034881,2.313175391087629,-0.30340467201728155,-0.056556176509760865,-0.022360194360517317,-0.004359299834453165,0.2314937232303421,1.1105410840281207,0.45126590475085243
48.7861,312.7012,0.24804203629221722,2.322454613584316,-0.31952340867427,-0.0340118291946151,-0.03997324100661359,-0.08962698475656487,-0.20946539513660584,1.1605945501530541,0.3424095477572184
48.809,312.7211,0.2708871205307212,2.3395215608664257,-0.34397389422276897,0.010433400062483587,-0.026726819612601732,-0.052455979705097626,-0.2878113584414058,0.7828495776633062,-0.07612437654589778
48.8303,312.7412,0.2949671374517569,2.3659332988186943,-0.37306389821396396,0.05171201784954589,0.014560610667184554,0.009736034368104798,-0.1675652354391936,1.2763755402770052,-0.30322125923951265
48.8484,312.7612,0.3197764435656829,2.4033372379888394,-0.40477302767763507,0.008276419065006313,0.030927898203039154,-0.03306015421157087,-0.41154024064672023,1.3117305079903545,-0.32386643039347973
48.8728,312.7822,0.3421593253403105,2.44923176223177,-0.43780369860912866,-0.0338489910446957,0.015432355522886633,-0.03755986310626465,0.02396452163020231,1.4078600341072638,-0.42333861868076716
48.8994,312.8021,0.3584581341465786,2.4920516380342126,-0.46934677311132605,-0.011197491085225659,-0.011504344728399084,-0.0016360140758710324,-0.224373968449342,1.560161395614086,0.156603007371527
48.9081,312.8221,0.35940330238783597,2.511517913604227,-0.4931023772039558,0.00898354168838092,-0.00675994153203828,-0.03841601209790712,-0.008915093100196211,1.36000642277879,0.58076743289845
48.9344,312.8422,0.3432617930785851,2.5201005024213776,-0.5121886320556295,-0.019237846601196793,0.008521451072579886,-0.028535420866993504,0.0377822237249332,1.0375297870945983,0.8716766627952346
48.9482,312.8621,0.3160087653087723,2.5067095733700313,-0.5209156895342152,-0.02158757051519785,0.021069162805773384,-0.011219127158793423,-0.037361174442210834,0.8836407184582952,0.9730256848237929
48.9718,312.8831,0.2876177863973727,2.4882378989810667,-0.5215796176635178,-0.008578455624165123,0.006563675130176228,-0.0069634066504646866,0.2821208526717938,0.9924292865651271,0.5225855869190985
48.9867,312.9041,0.2694451228068605,2.4614800781574178,-0.509888977988805,-0.05343299182167461,-0.020952449294382534,-0.03353843400997107,0.10747126580205192,1.3376018479727445,0.5619990954857548
49.0067,312.9241,0.2690985531017343,2.4450805210973177,-0.48966925229325237,-0.08284253960139619,-0.020899645528656297,-0.06757731635288296,0.12435143600171018,1.8142589032106176,0.4812952446111636
49.0272,312.9442,0.2841252029310416,2.4407805015484985,-0.46180643757861817,-0.06290062378545853,0.018538232530157114,-0.0652234540357074,0.14704958603072826,2.1349874333905294,0.23918369198739003
49.0488,312.9642,0.30950160226025203,2.4528853097811107,-0.4316637746149772,-0.021863861047740966,0.05686216150400606,-0.008793945159449604,0.07183613934721907,2.292664063952774,0.35179371646356855
49.0671,312.9841,0.34274258894531345,2.4814083109130456,-0.40650377484720956,0.0046752614637002145,0.03933672107494131,0.020438365972070934,-0.17927124361427732,1.8997982895914822,0.03085514670647103
49.0875,313.0042,0.3767390729589279,2.527830275327881,-0.3945969428061551,-0.010758264544355495,0.00820885982499595,0.01272082562797049,0.09292631622865068,1.7274231606176538,0.0064563080699673375
49.1064,313.0242,0.4063608041505166,2.583887113872078,-0.3987798301355048,-0.03293479886042275,-0.015417652934621067,-0.010664522788248264,0.19992850642455468,1.6468367398322523,-0.001051026895111312
49.1406,313.0441,0.4339528974970757,2.6513381839069057,-0.42077272006855376,-0.046307433768420045,-0.04789398936420423,-0.08218784141741942,0.47583235217719766,1.0654405834986473,0.10217482887471024
49.1592,313.0641,0.43417345857303097,2.6932877647032134,-0.4426942964197187,-0.070599905791016,-0.039947315904299174,-0.13298372101363304,0.9428322827435425,0.9368401530099728,0.46628057468100675
49.1791,313.0842,0.41627476628799903,2.7126763192800145,-0.45970208898345377,-0.08364629186162324,-0.037036909542064095,-0.07676285348827974,1.0443801168494207,1.0024367244664107,0.2504446944350072
49.1906,313.1041,0.3811740393137198,2.692927370708821,-0.46156247467123296,-0.08823415928995558,-0.030777687597724604,0.020113048123584217,1.2599090407149283,0.49071605243256766,0.6633481175143107
49.2092,313.1241,0.3384624759231238,2.6531887849024205,-0.4550548834634276,-0.03274790793315727,-0.020374929185575076,0.09404465724842777,1.1694934454957118,0.7461393620734199,0.9486268461872885
49.2285,313.1451,0.2933241235962306,2.5993923215690553,-0.44614520488433507,0.023481471369121668,-0.029630777511445643,0.028024215148658965,1.1246842958836194,0.7083226344784488,0.7158994622698607
49.2496,313.1652,0.2504646144878906,2.5511998683781507,-0.44646857908276355,0.025383229590341155,-0.03641787653988482,-0.03801249284353416,0.8767794780597737,0.5393127639705995,0.9148438388444318
49.2695,313.1851,0.2120935146051734,2.524470041778506,-0.46366553155770185,-3.462578663352593e-05,-0.02685257987712786,-2.2875475249844805e-05,1.0516525916361217,0.8075260681439557,0.5282160881429045
49.2892,313.2051,0.1820060467995449,2.5235979610860784,-0.49683946448221245,-0.060454307149428906,-0.01879260432645925,0.014074961172296481,1.0646029492194546,1.0798182851606333,0.6671017849968522
49.3129,313.2252,0.1654509459485058,2.5437980314824418,-0.5371675732819396,-0.03865399001349295,-0.010322638083656287,-0.04441218309563983,0.6800889401233214,0.8558314287646094,0.46815740842228154
49.3339,313.2451,0.16668225980012952,2.5682295562531885,-0.5687945709113882,0.002631872557131664,0.01213770985421634,-0.014431015301352736,0.4285478849061261,0.784276886417989,0.5282160881429072
49.3484,313.2651,0.189931499588315,2.588693063369225,-0.5792241671341094,0.004788811111397065,0.03933872889066181,-0.0022609997117137982,0.26117077282308876,0.9345387915031508,0.8454009904174602
49.3695,313.2852,0.2289834429221837,2.6058145366739356,-0.563193610949819,0.009707337139507648,0.027417590264947427,0.01510534289625347,-0.10995920643401273,0.661532920109133,0.4043450612191141
49.3901,313.3051,0.2783020127753197,2.6181256171716596,-0.5221919262041955,-0.013316310765646685,0.010648973252990546,0.013445909063347633,0.5055094017699457,0.8894382909736784,0.49630991454132495
49.4081,313.3251,0.32772502186102564,2.625374025834702,-0.4654445278974111,-0.061970364051877086,0.021787842878362128,-0.00860344653471074,0.436547607171497,0.5698751644632867,0.06651498779059077
49.4328,313.3452,0.365590855896156,2.638255802292752,-0.4105895110581896,-0.056809941378251724,0.03166846345483931,-0.03136349650946319,0.18544022420999715,0.17700939010199562,-0.25442358196650616
49.4519,313.3652,0.39007914085147316,2.6503128781378993,-0.37041926276630677,-0.030438457672587158,0.02188766242995967,-0.004615487640136463,0.45181980422356594,0.16056278618613187,-0.11741471885382807
49.469,313.3851,0.39940495431084594,2.6696372366299803,-0.35806525324079724,-0.01871982248092937,-0.011710799381762074,-0.008971305947999577,0.17416788829061228,0.4791209074018014,-0.3013444254982456
49.4882,313.4051,0.39584054757564996,2.7000284855296575,-0.3777374561332947,-0.003596454832944472,-0.022697919964255724,-0.04663497985655008,0.20952282067999195,0.770321488215965,-0.04609503668558052
49.5081,313.4252,0.3824856428795283,2.7382816962182734,-0.42336735126967556,0.02518943807397145,-0.03452738394137699,-0.02190613128720586,0.18704819735758335,1.0629788236170261,-0.1511977261966783
49.538,313.4451,0.36506822991054694,2.7797355329398985,-0.48321526207907817,0.04530693522680409,0.0001530984061853936,-0.024484900847710243,0.3673756670239569,1.185009135548541,-0.3294969316172842
49.5493,313.4651,0.34598047568609896,2.8155911134117404,-0.5427880644461036,0.02328623167599916,0.003886736391194835,-0.03659892423073464,0.6974027825786787,1.0111772519878128,0.006456308069966893
49.5692,313.4852,0.3316929485803422,2.8417526290277446,-0.5921182845610284,-0.01324221547628435,0.008766364047037047,-0.0580786607883177,0.7950208040682348,0.8724089852230545,0.010209975552505718
49.5923,313.5062,0.32415426265905006,2.8522055171065204,-0.6246529224358712,-0.007995094120525964,0.016168516452739035,-0.018711760259565065,1.2472522583545642,0.520244001798316,0.1659871760778798
49.615,313.5261,0.3226243322963442,2.8436411412666858,-0.638370345144889,-0.0019177413387392727,-0.020461896300183458,-0.007628744211744749,1.1941498112541318,0.3950088297756196,0.7534361370952519
49.6306,313.5461,0.32349080800728597,2.8192539608319707,-0.6353234662107552,0.03230940446083131,-0.014091592342845849,0.0017513580214969827,0.693249443255747,0.19342654818564195,0.573260097933377
49.6503,313.5671,0.32514111433004994,2.7913111648171656,-0.6213225678887595,0.025315019202969274,-0.003104780941590487,0.003829012973082391,0.4698608941575951,0.2964175437770907,0.5995357703111505
49.673,313.5872,0.32637465746448796,2.770451881751398,-0.6018208071842273,0.005257598564040737,-0.007858788902947422,-0.021143823982626875,0.009993341345223755,0.8532387163404074,0.5357234231079835
49.6943,313.6071,0.32894361469389305,2.765307347028212,-0.5829153135377647,0.028371130145003216,0.015843106899019934,0.00016167984264166323,0.29950474364351265,0.8362094105897818,0.04962348411916461
49.7129,313.6271,0.33482671284269766,2.7773052070849937,-0.5701546602608796,-0.038776167843616836,0.005545859369575609,0.017919029480040094,0.5452978675477104,0.7521267787958198,0.13971150370010116
49.7305,313.6472,0.34299070141253524,2.8021809682758247,-0.5682458116003757,-0.06723045730602607,-0.026248735297361547,-0.007344091094318865,0.5756321161027633,0.868199119837153,-0.1943649022458781
49.7526,313.6671,0.35051063177669234,2.8345522157106746,-0.5805568752685704,-0.03405434299699268,-0.03253682658135459,-0.008935646106915452,0.8511022895997109,0.6081141955182187,0.28985820300166604
49.7725,313.6882,0.35170817910074076,2.8594073690306847,-0.603476802947503,-0.00800382399566496,-0.011985608773122755,0.014842898978099277,0.13030951286379766,1.0351989797555592,0.297365537966749
49.7918,313.7081,0.3443684283442538,2.8739130357438465,-0.6332382679242647,0.03177159719582627,-0.021613997385877107,0.030797237001384745,-0.5730293243840318,0.9944981888190049,-0.17935023231572167
49.8168,313.7281,0.32982534250076884,2.880722685098991,-0.664175722775701,0.026499486279402063,-0.03495308506770718,0.025791721413418817,-0.21848594010361977,1.0926671713575753,-0.016065696825267494
49.8311,313.7482,0.3083641851415824,2.8746503820370894,-0.68561770580439,-0.048360986400440016,-0.030690015682728063,0.021238835562722404,-0.7060723267793325,1.153631573968149,-0.42709228616330575
49.8517,313.7681,0.2854977103218445,2.8654127206460966,-0.6932231653339864,-0.0782879249911338,-0.03251303494502949,-0.009869058087573518,-0.6793042671012643,1.0555935439721618,-0.9113153914108502
49.8703,313.7881,0.261150172802352,2.845487062090521,-0.6789665598568357,-0.053968257133313886,-0.031743094226546066,-0.008375724040770036,-0.35516517989226687,1.349255884667946,-0.4026934475267972
49.8932,313.8081,0.2380502574013652,2.823725043985367,-0.645400792372602,-0.03516789033317843,-0.012292820065706273,0.026423901578603116,-0.46791530140116855,1.2742051313127651,-0.24503941326015632
49.9109,313.8281,0.22122357170310358,2.805910765990439,-0.5985547494495018,-0.0018918306224776616,0.026122750140638508,0.03455434534578287,-0.08151312509199836,1.1378986244296263,0.01208680929377135
49.9307,313.8481,0.214641566949562,2.8094914699706877,-0.5518160293015628,0.008613679829532251,0.03448291494309996,-0.02741213587284367,0.12106544119017637,0.35388573537910567,0.2861045355191271
49.9516,313.8681,0.2223869132997729,2.841545282485739,-0.516037908883787,-0.0634540522911073,0.039770975795134784,-0.08620145037312438,0.6443703839946046,0.57437638076657,0.5826442666397199
49.9725,313.8881,0.24360196700180348,2.893035900218426,-0.49513678849416126,-0.111523440200657,0.016400770755926754,-0.05172964504722631,0.503761331589635,0.6266002558557427,0.41560606366672903
49.9956,313.9081,0.2721626890776336,2.94691103729343,-0.48706336940378686,-0.0755104934619397,0.009543040535973827,-0.07015108102341061,0.23345193895974078,0.4386820215504109,0.49818674828258985
50.0119,313.9282,0.3019305984399201,2.98607279305766,-0.4864166008560036,0.02572011745435536,0.02077482821700325,-0.06123080305677993,0.4491343410154961,0.8519129142960878,0.5751369316746414
50.032,313.9481,0.3284863129559477,3.0151632904690837,-0.4940533435859822,0.10677849092527296,0.04896274373669238,-0.014015609433285075,-0.03656387844717801,0.5525839536275018,0.22229218831596664
50.052,313.9689,0.3539525797530277,3.0438521807250054,-0.5132594756765683,0.03439049218747986,0.027891151562375135,0.05437214562547172,0.13976373008651044,0.7818151265363666,0.2748435330715117
50.073,313.9891,0.3788312173257505,3.0765891569106363,-0.5461917735208159,-0.09495633740837449,-0.01464719193192173,-0.00956282138212303,0.354061685701287,0.9224624513479879,-0.0986463814411284
50.0943,314.0101,0.3982012110164846,3.105566883307383,-0.5897158177631996,-0.06194674889975791,-0.06395774317849896,-0.03499673382693752,0.24531142532507258,0.7402108370154554,-0.17184289735064603
50.1167,314.0301,0.403219319191567,3.120992686320412,-0.6371995399564432,0.02432164736836073,-0.052251686316163434,-0.04909519608573093,0.6016729283021599,0.7896521554734103,0.06088448656678463
50.1382,314.0502,0.38841620722236053,3.121319343555567,-0.6818613139793792,0.08443775448970284,-0.01114182216384243,0.024627146076961058,0.5023768851486562,0.35401668792168706,-0.03483403423796284
50.1576,314.0701,0.35980304077359065,3.113840815526755,-0.718430472001675,0.05922732770193958,-0.0008904682479745877,0.0630840950468215,0.7105632857111043,0.3487723714088455,0.11155899758106232
50.1792,314.0901,0.32757213151062764,3.101830963451711,-0.739801586007758,-0.019003692596053584,-0.007044794095532229,0.014899829601584454,0.851535961855411,0.28680296350354845,-0.0911390464760502
50.1934,314.1102,0.296782965291474,3.073440545474811,-0.7348439573002017,-0.08557611628663996,-0.0484918209771676,-0.03989026500167436,0.5009924387076796,0.08143311998762957,-0.4852741321426621
50.2134,314.1301,0.2716803190256587,3.0380428468843004,-0.7057152678789544,-0.11020493175247037,-0.04737647686531617,-0.061151976039646595,0.7770497626505719,0.4249885284335473,-0.7180015160600858
50.2347,314.1501,0.24898638949631413,2.9968466735108295,-0.6578065843538481,-0.04646278071685918,-0.024891140444526894,-0.028578900848666242,0.43916302186320566,0.19009073555188125,-0.6147756602902599
50.266,314.1702,0.2289699323742752,2.9733985876038953,-0.6119521346115635,0.013680037915469049,-0.00023966492409189488,0.021990194670477317,-0.3964915703012574,0.28903226413222605,-0.16058189490302777
50.2766,314.1901,0.2185157341765836,2.984386846106393,-0.5903089662111098,0.006967898140656946,0.006073068472073081,0.03926206998013402,0.15328785695827,0.1096647131412773,0.010209975552503848
50.2945,314.2101,0.21678807010840712,3.0557179705807647,-0.6169848755552645,-0.03603603493151436,0.0047806834246109835,-0.022806073066144617,0.04228580562968229,0.29745199490402957,0.24856786069374043
50.3173,314.2311,0.22228212692116023,3.1824411079125157,-0.6981466719183465,-0.019017418590157792,0.015156104741021711,-0.0038231509956971614,-0.08493921693625879,0.30065685499521083,-0.16058189490302577
50.3379,314.2511,0.2342706390280001,3.328385537672581,-0.8165894027873579,-0.006758009412271688,0.008304441643915571,0.010047901574779089,0.3974863888724027,0.6876956110089015,-0.31635909542839985
50.3585,314.2711,0.2560924197446728,3.450196134932427,-0.9383478567657468,-0.01882331553835484,-0.0025884563378000664,0.07712969315523582,0.2227667534862991,1.344433871615066,-0.26568458441412396
50.3853,314.2921,0.2946115571159814,3.5088909367171737,-1.0203473047906455,0.04366179561658179,-0.07880476717719295,0.2236322069425025,0.05575326514259683,1.4849502438841051,-0.318235929169667
50.3977,314.3121,0.35089335682724593,3.4811556220341138,-1.0231358756099613,0.05930200471970567,-0.06591347073782487,0.27396607263274025,0.08347209900594003,1.9808070138368445,0.028978312965197168
50.415,314.3322,0.4170355661069653,3.3717993252609575,-0.9271629342468499,-0.12377943170005587,-0.00213037654034643,0.011587218048243675,0.29354666678142544,1.6152693340448419,0.23355319076357886
50.4348,314.3522,0.47519050567120963,3.2028230579803276,-0.7382209215712072,-0.416947939527312,0.0516468749306655,-0.14039596306915364,0.4515396101581151,1.406825582980325,-0.07237070906335707
50.4552,314.3721,0.5075284133134017,3.0022274563335514,-0.49172315247254006,-0.3763003045562108,0.11000021175149335,0.2372745986021674,0.4610638758971906,0.8418760305625848,-0.10615371640620672
50.4752,314.3921,0.5028438021557966,2.8128506556227757,-0.2556958057956182,-0.191972392298829,0.05043726774726021,0.2524137651704948,0.7838885651815729,0.5513891041257626,-0.059232872874472195
50.4962,314.4122,0.45670912015430215,2.6934996834050446,-0.11206831247497126,-0.14394177501961794,-0.07339090512163099,0.1083214187126418,1.030045312825109,0.45756093951567745,-0.3388811003236323
50.5168,314.4319,0.37266788240279186,2.6803674298398485,-0.11607779415109415,-0.14995833495365263,-0.04458357671264616,-0.01804360744767309,0.6528738270320374,-0.2729022724013496,-0.2713150856379322
50.5418,314.4521,0.259314346426484,2.7787291795413482,-0.27477773098281244,-0.03345743254790532,0.014332018202987023,-0.049418949906099935,0.8726261387368429,-0.2784379398315701,-0.4364764548696517
50.5577,314.4722,0.1325741243822262,2.9561722406300235,-0.5432082374115803,0.1220819749684658,0.02349634480448792,-0.064479289457294,0.9572938026430625,-0.6894984236130071,-0.5716084842410597
50.5765,314.4921,0.02635293540380651,3.1628150086150626,-0.8460747834943396,0.1557290185132672,0.04247201478225669,0.0941557032447862,0.5464454061245602,-1.136758482027715,-0.6673270050458091
50.5992,314.5121,-0.032312062923798485,3.349347075891977,-1.1060762627078802,0.05262562805170779,0.05944499392058825,0.14148538372649852,0.2535913416558959,-0.720453681733437,-0.6785880074934268
50.6219,314.5331,-0.026311120949347705,3.481218589502931,-1.2691296697033538,-0.03963976841374766,0.0854675358347646,0.14368816092750192,-0.03766813082270257,-0.9662624111007476,-0.2731919193791967
50.6374,314.5532,0.04616188877154989,3.5294791498065137,-1.3087225061758458,-0.07932644126946674,0.10252416412930627,0.04902160543473575,-0.42043406973852293,-0.9274112323788377,-0.39143244507917896
50.6569,314.5731,0.14959263225764358,3.5082441288311146,-1.2421042979837245,-0.12302159171237267,0.12899623138328947,0.055020278877456814,-0.3007750971822587,-1.0375256025299886,0.09842116139217413
50.6757,314.5931,0.2646003524781844,3.4317713359158986,-1.1039152983145846,-0.11345151424343296,0.12469671169071583,0.05703193184247426,0.11959756507531812,-1.1552150965330201,0.16035667485406674
50.6984,314.6132,0.36227017017730717,3.3353130850043975,-0.9429561183014477,-0.025148547779227325,0.09431310376879058,0.13315974925022672,-0.25916851270781716,-1.22356477878846,-0.1887344010220666
50.7174,314.6331,0.4328708098393567,3.248956234226121,-0.7988661660784138,0.0173296650635285,0.024944023393876646,0.11609213601274486,-0.44138414958723143,-0.9853017274408135,-0.06861704158081666
50.7365,314.6531,0.46169717049485254,3.2021476830132465,-0.6956338888092974,-0.055756679637569403,0.0035946862470696687,0.07504797173054432,-0.1862769054930441,-0.6996368140568721,0.021470978000121453
50.7559,314.6732,0.44952588968503554,3.2037623684556897,-0.6352724601327717,-0.14620299360700756,0.03769153963655316,0.05542755179931232,-0.22992513537077067,-1.0782558392987596,0.5863979341222574
50.7801,314.6931,0.4078473844549711,3.250559175572884,-0.6072508926490203,-0.10977200979903319,0.06066363924599425,0.05475564531993781,-0.008494802002017493,-0.5093877724124986,0.5132014182127466
50.7959,314.7131,0.3659395974225225,3.3080835794676027,-0.5876763180522959,-0.04856507646866559,0.050498625894273376,0.0206873592484127,-0.20359074794840148,-0.8549826372800755,0.4831720783524361
50.8177,314.7332,0.33622895288196836,3.376427906035632,-0.568876488103806,-0.0501346585400397,-0.00844478294824612,-0.06708151943956424,-0.6780866800080535,-1.1448574160499196,0.18850918097311306
50.8419,314.7529,0.32821089909664375,3.437002489241882,-0.5422177430841659,-0.09923769244504346,-0.0009635931592695448,-0.07584820984503439,-0.8935455553571993,-0.9447024432146237,-0.23565524455380998
50.8574,314.7731,0.3421617697371611,3.465888756147706,-0.5036832469536832,-0.09317223098203103,0.025746267911407685,-0.007652830244757702,-0.6624508592166471,-1.5639153271431971,-0.3651567727014096
50.8778,314.7932,0.37444296371561486,3.4725852330604225,-0.46888004352998025,-0.06278043471856289,0.027859404744910107,0.04159215906992018,-0.45971881474422804,-1.422976651414197,-0.42709228616330513
50.9021,314.8132,0.42042334393818165,3.4599223893934017,-0.45226028730594886,-0.022214926571072338,-0.009344444740648468,0.03289710115224184,-0.4000711403357624,-1.4731610700817117,0.0027026405874266803
50.9186,314.8331,0.46736172765088685,3.4309466818960757,-0.46448188550960107,-0.018121873416717522,-0.03403351518364859,-0.0684478544032085,-0.8410302587027068,-1.423107603956779,-0.10615371640620798
50.9367,314.8531,0.49615241717640163,3.4032182280406915,-0.5141143531405118,-0.01500224586169616,-0.026181824342516178,-0.09364090651789339,-1.0759847189432197,-1.3198252574479508,0.23167635702231074
50.956,314.8732,0.488992338417595,3.382102032014415,-0.5954302976566892,0.04450458903974517,-0.04126144795357995,-0.05035330030362863,-1.0607825704075122,-1.4175719365265569,0.059007652825511174
50.9793,314.8931,0.44025353638603154,3.3712000367285246,-0.6955989960959335,0.07334040793211037,-0.054377370820915656,-0.015978777526653037,-1.1508345418873913,-1.1718941597018289,-0.025449865531614595
51.017,314.9131,0.364264734857588,3.3783149772507097,-0.8015230128916448,0.02436950599366795,-0.059882962839258674,-0.0006228366612090133,-0.8320097137356963,-1.3551802251612994,0.2523215281762784
51.0185,314.9341,0.2517877377427704,3.3835160818563055,-0.8870607533548436,-0.03067101034198864,-0.07603816412032953,-0.006292751393584366,-1.000911369292437,-0.8543704896130986,0.14158833744137161
51.0371,314.9542,0.16076879487493378,3.40526234612635,-0.9488017468002446,-0.04945628701064899,-0.08329887946602374,-0.09851598216084106,-1.4065155552700017,-0.5131164426740022,0.28798136926040196
51.058,314.975,0.098305942881524,3.4263467693310496,-0.9694535745765659,0.006225171920408588,-0.07786983409346669,-0.056566245598477984,-1.6447426291645273,-0.3221243008200694,0.11718949880487183
51.0809,314.9951,0.07226495871084998,3.4423261818561834,-0.9443785961979306,0.08890333700590412,-0.061609210563394384,-0.0045691924078518145,-1.8489992171106528,-0.11251514608602978,-0.24879308074269196
51.0976,315.0151,0.0873060148779835,3.4620208192782678,-0.8839612598550401,0.09874836433413606,0.030725958871643567,0.028289161511801518,-2.1962701266043654,-0.4055947849470531,-0.13430622252524888
51.1194,315.0352,0.1395460245080779,3.487507484586328,-0.8055088292858683,0.05051972818137125,0.10638841472450176,0.01772133632595969,-1.7718275546977402,-0.9420508391259836,-0.31448226168712684
51.1417,315.0551,0.2222709802782169,3.520192438539603,-0.7339676468694594,-0.0373559676995337,0.07489310026289105,-0.01315476835728943,-1.2480889396376131,-1.0428714257531906,-0.39893978004425706
51.1675,315.0751,0.3144495863619565,3.5505542478952035,-0.6905817931027836,-0.07362795036146531,0.01266480775891503,-0.06220362854600466,-1.2086640975991814,-1.170437405114928,-0.3858019438553703
51.1824,315.0952,0.390440265861074,3.555742665558752,-0.6828062698516251,-0.010567877087981672,-0.0031907379454863085,-0.062322494682951736,-1.1052280962802674,-1.4651341969376521,-0.5434559781220201
51.1983,315.1152,0.4303294559063347,3.5432977170937847,-0.7167001859363522,0.06569988469521683,0.008663385110344313,-0.025380463347919373,-1.435982459313659,-1.2718112477446766,-0.13993672374905755
51.2179,315.1351,0.4330822929454104,3.5199100062764805,-0.7826588211666385,0.08523642258949106,0.024125920054844586,-0.02032114519270372,-1.6839573256538694,-1.1292554190539763,0.0702686552731333
51.2379,315.1551,0.40956680112566074,3.4977274570598738,-0.8629026148161663,0.02021907256720748,-0.03370765008331359,-0.09667293142691435,-1.4869732124944481,-1.1439539174655604,0.15847984111280033
51.2639,315.1752,0.3760558757427011,3.4851930826547006,-0.9358284038107226,-0.04967668219487574,-0.04265532960822953,-0.09373412259370976,-1.2036434137648562,-0.9953091653420988,0.2035238509032671
51.2778,315.1951,0.3342196624817532,3.4697293673997938,-0.9758984022863882,-0.04903661047546262,-0.03771888494786821,-0.044891401310910656,-0.6553885299790357,-0.8241288858700094,-0.053602371650660244
51.2978,315.2151,0.3006033735150161,3.4650987356161886,-0.9822656591706879,0.0030305453200518543,-0.0018505190156785033,-0.014761338039816182,-1.0081137955627753,-0.9710255324891914,-0.14744405871413804
51.3194,315.2352,0.2808355786461335,3.4748867779093517,-0.9614316860742779,0.036928928052838025,0.03872545392759576,-0.020951448524146744,-1.2690390194863186,-1.1007619208151687,-0.07612437654589493
51.3394,315.2551,0.2796431105860791,3.507523223221289,-0.9306756498500841,0.0041139598002473705,0.02914065076153374,-0.10756920251747835,-1.3048276241314005,-1.0706512696146604,0.04962348411916364
51.3708,315.2751,0.2953067796924342,3.5701895055078015,-0.9091424713673428,-0.02356764704124474,-0.0015813116557173762,-0.09409165942142161,-1.5263280060165152,-1.3279536373023726,0.13408100247629376
51.3802,315.2952,0.3140209921742989,3.6340739625849614,-0.8962782715320687,-0.05406500831770667,-0.007058951569781328,-0.030641853935945037,-1.2860592867187046,-0.9542875776559464,0.027101479223928693
51.3989,315.3151,0.332937504342491,3.7029387688956903,-0.9008110551800146,-0.015447408684913849,-0.017347833846465818,-0.00931445371702836,-1.257976829116023,-0.4681763405193302,0.00457947432869619
51.4276,315.3351,0.3444158581245636,3.75786231939299,-0.9143997905431507,-0.005330108931936061,0.020359424621996417,-0.011088687213775192,-1.244956423016325,-0.5074498227012004,0.13220416873502377
51.4398,315.3552,0.35360623137090214,3.7849679705022043,-0.9270782385826808,0.02451965211600849,0.055993943119252654,-0.03648631420625846,-1.1998536981812604,-0.16781292872380416,0.006456308069967826
51.4647,315.3762,0.3518026060795369,3.7855458626414493,-0.9335808884780923,0.08413703373704855,0.018905709169700986,-0.028707463959943218,-1.0592446457762876,-0.22003680381297927,0.17349451104295863
51.4815,315.3961,0.3416210656617647,3.7691101589836777,-0.9340234617614753,0.052893779661115144,-0.007666466101086062,0.0357974348937504,-1.1567225702331172,-0.7043999354453174,0.1472188386651804
51.499,315.4161,0.319071201968377,3.740446119649707,-0.9278475764820675,-0.03279095667900779,-0.01591783140984828,0.02592622783154314,-1.3179180787474598,-0.7198120882342413,-0.0667402078395447
51.5192,315.4362,0.2869996493431423,3.7049853829271853,-0.9173362582065823,-0.038185537953202606,-0.016374235309856086,-0.006981862182253837,-1.1957137400158486,-0.8981451880982504,-0.24691624700142262
51.5394,315.4561,0.2514368011246703,3.663467232068467,-0.904112349776119,0.0011060613762458626,-0.03223631946727561,-0.033388600116293056,-1.169239255560753,-1.298003384476663,-0.37266410766648334
51.563,315.4761,0.21997271091820592,3.622300619883433,-0.892949495545132,0.032551645808218795,-0.03937169598904343,-0.04079990375494301,-1.0735094012842374,-1.0764782879622596,-0.42709228616330047
51.58,315.4962,0.1940084431764782,3.5924208716212624,-0.8905029592273961,0.04660855172774493,-0.02198287928798142,-0.017353871047756535,-0.2838248784662387,-0.8724342464906625,0.006456308069963374
51.6055,315.5161,0.1780176362109961,3.586319492646616,-0.9048317825108667,0.010084839438601292,0.004706104519327996,0.005492200473470769,-0.4699002794456088,-1.1501017325627607,0.3349022127921387
51.6231,315.5361,0.1743584385452589,3.6005539439257093,-0.9372468181469799,-0.04765990285287404,0.03243270231218096,0.032265859403928177,-0.6972186411600829,-1.25147557519251,0.580767432898451
51.6399,315.5561,0.1801571733677097,3.6299606418321315,-0.9867750704242443,-0.053061821801238356,0.02603080483232224,-0.0639215570305134,-0.32420049468994766,-1.3387630670776525,1.0800052080761542
51.664,315.5762,0.1897950248159871,3.6659743004336325,-1.0460807330306088,0.015311944711102645,0.03174215720883643,-0.08809986770241854,-0.723623077098817,-1.1631830780126446,0.6952542911158921
51.6826,315.5961,0.2022752085986146,3.6993714338603065,-1.1008511281977091,0.06805665299461872,0.03685734856663607,-0.06002274773864943,-0.3973722959701718,-0.6164282350150491,0.9148438388444375
51.708,315.6161,0.21738399135975028,3.730331213822351,-1.136287190290526,0.10883625250002495,0.009554865500154709,-0.0010782816490904296,-0.4759284048240577,-0.059476109909153356,0.5300929218841726
51.7195,315.6362,0.23956899550502653,3.7679879761051533,-1.1431583205874498,0.035872001675588926,-0.02755748961134864,-0.003047393049305746,-0.31989367717677153,0.40393920150403906,0.17724817852549296
51.7413,315.6561,0.2692098802809112,3.8149462893362807,-1.11697844885655,-0.09402201258153055,0.04232762199451073,0.021950155550663573,-0.48945253169581704,0.6126743034859378,0.7947264794031801
51.7604,315.6761,0.3111017812642995,3.857124865452581,-1.0576150653620788,-0.11442314236871463,0.0846706173139693,-0.010609468998504356,-0.841814173540223,0.45603212405063215,0.33114854530959936
51.7826,315.6962,0.35632557841842644,3.8901696115599775,-0.9803597596542099,-0.03890298735981909,0.059475578369121644,-0.035545082085011774,-0.34084375702547554,0.3460487064420621,0.500063582023862
51.8133,315.7161,0.39096758131626536,3.908550494366867,-0.9045890758970236,0.027499805148418422,0.029646891920194242,0.005645475229007781,-0.6072233370390442,0.3624953103579258,0.3630547189111839
51.8234,315.7361,0.41361279448248883,3.9157065298211804,-0.8513006971643782,0.048207210300734826,0.010786803864555931,0.03937311597649247,-0.5016756418004821,0.32089102083701465,-0.08363171151097386
51.8424,315.7562,0.40711686201526626,3.91912668809024,-0.8325400585478315,0.004783773482181725,0.004943495589526705,0.015301784827839686,-0.23529606178691337,0.30444441692115093,0.05337715160170422
51.8617,315.7761,0.37701501333885595,3.9188412041180034,-0.846967810912693,-0.06684564945162615,-0.014470926600082042,-0.050282919038331035,-0.40260312535358794,0.14314062280776493,0.359301051428645
51.8835,315.7961,0.3333497404449722,3.9116983627483237,-0.8840313468821235,-0.0777640714699916,-0.04035914311394784,-0.0597212031175521,-0.010089393992082224,0.15272575724908935,0.09654432765090593
51.9018,315.8162,0.2846767023477842,3.8892988805806863,-0.9279176265356972,-0.0281283329607935,-0.027535564356919697,0.0023416222331262638,0.046355715278727755,-0.12131456527186835,0.006456308069962921
51.9202,315.8361,0.2397967039513687,3.860765259384642,-0.9735945353085287,0.014199840956243446,0.014217113928709366,0.01575629139885046,-0.09236516991320454,-0.4293840534618566,-0.10240004892367155
51.942,315.8561,0.20114636164556288,3.836913663406675,-1.0206312796109194,0.029356307047945698,0.039815203697263324,0.001119490661936228,-0.24024669710487706,-0.18224952205022538,-0.5472096456045528
51.9649,315.8762,0.1700927784556337,3.825936151270047,-1.070172892931911,0.007163067445635877,0.05137311816294243,-0.04876987823724422,-0.6009016364376242,-0.42631014591325567,-0.19061123476334088
51.9837,315.8972,0.1476647313445708,3.8265547195032235,-1.1186891452312493,-0.037185358792471236,0.0418808754866783,-0.027355205249358496,-0.7530765999849529,-0.37379491990670055,-0.04609503668558017
52.0039,315.9171,0.1293699656720294,3.8353152307940044,-1.1589018310052916,-0.0242232603895585,0.003395885584737277,-0.010366419029009954,-0.5279399807064883,-0.21394788038021545,0.008333141811234793
52.0239,315.9371,0.11398187935432919,3.846060931556855,-1.1798171010548553,-0.01650438159338644,-0.030105065878995897,-0.06310701118680238,-0.7516221050276126,-0.4127770511711937,0.39308405877149244
52.0453,315.9572,0.10370039679283033,3.8585920383835792,-1.1740076397662167,-0.03273895439627125,0.01401858274311822,-0.04068917056420811,-0.7646425111273103,-0.3735035689893217,0.2654593643651645
52.0632,315.9772,0.10775785924620729,3.8739049311122344,-1.1397569427060097,-0.020621310562351232,0.061393974513422316,-0.010398638008235081,-0.6351656976089982,-0.7467473251757876,0.36305471891118424
52.0849,315.9971,0.1320843792274759,3.900473833180976,-1.086840014585411,-0.04207364854910134,0.07203747899557172,0.003964770613700884,-1.4140816052796754,-0.6200259527339742,0.3686852201349887
52.1004,316.0171,0.18480675583596268,3.9331574618037206,-1.0258001186941925,-0.040387430149004644,0.05187803307617121,-0.04348127355997013,-1.4404860412184048,-0.5317334555541084,0.4831720783524362
52.1206,316.038,0.2510925227085052,3.975481419986601,-0.9746191112267407,-0.05584269907251826,0.02153936575038687,-0.060140049847478776,-1.6413999669941497,-0.7213997953637235,0.6145504402413009
52.1581,316.0582,0.3108512185791076,4.023250194535559,-0.9458557449759974,-0.04604479452054451,0.03972837397262405,-0.032858707390007943,-2.0691151525547906,-0.09723394583968603,0.28610453551913023
52.1677,316.0781,0.3641124413121139,4.048391872772104,-0.9354710622304767,0.0031565735188363955,0.05464485581678567,-0.0384547999952267,-1.658196707519925,0.038460413376472775,0.3705620538762602
52.1888,316.0981,0.38978324203438514,4.0633935115062805,-0.9511578463902632,0.05478678970735816,0.05205419618562059,-0.051119986886937245,-1.012393850760915,0.3824381252823503,0.1284505012524848
52.2043,316.1182,0.3921174778738476,4.068307168495386,-0.9883497454514975,0.0038371379580012122,0.004868355339607522,-0.021680285627006423,-0.6145658603421102,0.8689716658789303,0.09654432765090636
52.2217,316.1381,0.37208438293513274,4.066932211095422,-1.038695049855111,-0.09101388192695867,-0.019505967947143606,-0.037881427287268836,-0.3821567662769445,0.8339080490829605,0.4287438998556187
52.2451,316.1591,0.33534203004489554,4.061584050680356,-1.0907217065673047,-0.08118763663649825,-0.011625247146289156,-0.06058579786103028,-0.14574781107909124,0.6916435713096408,0.5300929218841721
52.2628,316.1791,0.2912474093672549,4.042948096221449,-1.1274115049793834,0.0114656725578745,0.027571269858821905,-0.0249406586412152,-0.7970050239281306,0.49384885164560327,0.563875929227027
52.2828,316.1992,0.2526174736019184,4.024455321304559,-1.1464009998713132,0.07765438752722208,0.0539593026687769,-0.009219986418717796,-0.9432919591297362,0.07886985339564477,0.535723423107979
52.3019,316.2191,0.2327024634472024,4.020048526022221,-1.1497841331597256,0.05368835543065823,0.043659903670081004,-0.0010448114473711207,-1.059174597259926,-0.5316025030115263,0.16223350859533903
52.3226,316.2391,0.23577528713300988,4.0377716112641275,-1.141457745563834,-0.02967674896323291,0.017112256427956014,-0.06445864428614004,-1.0740131220562994,-0.4436013567490423,-0.034834034237964676
52.3455,316.2592,0.2581084391307535,4.073428897923899,-1.1244545939343296,-0.08911133686913318,0.02406181141137424,-0.03902629586944327,-1.1679248576361392,-0.7138541173440595,0.08903699268582864
52.3725,316.2791,0.2899716131628247,4.11242928141928,-1.101015254107317,-0.07849416152382989,0.035984298552254754,-0.010884425141600347,-1.1245702029813882,-0.6370552584845963,-0.11741471885382303
52.3971,316.2991,0.3235843028191501,4.134736071444935,-1.0728752453504493,0.006638790204212408,0.03404259926611694,-0.011831913375317932,-0.8377442638911728,0.037265563874734724,0.08903699268582817
52.4117,316.3191,0.3508897752621986,4.141568656530816,-1.0516795905267815,0.0599218972121514,0.018327862715338678,-0.006316837426597325,-0.8265419764881508,0.046719745773476644,0.14721883866517993
52.4266,316.3392,0.3597177442460508,4.140446452611413,-1.0475118791039473,0.007422056182850583,-0.015441151666326388,0.032595243725520986,-0.7044076862729012,0.17995234510801456,-0.021696198049078363
52.4441,316.3591,0.3462372609906888,4.136363839090833,-1.0632202491188425,-0.022035666639492014,-0.033143033164850476,0.007751595492335779,-0.8905531357686377,0.21385055823446306,0.3180107091207102
52.465,316.3791,0.3143659584210664,4.132091832920659,-1.0949438195531587,-0.07064863554601843,-0.004059440385314182,-0.01596345005109933,-1.5811651421397401,-0.16794388126638554,0.32739487782705773
52.4825,316.3992,0.2714089005201424,4.119393047667668,-1.1290956984034735,-0.05800887934959744,-0.024304951967504127,-0.07747730153245636,-1.566396665859732,0.05562067166967805,0.5357234231079816
52.5035,316.4191,0.2288447252144365,4.1048555318632145,-1.1588952558407382,-0.010757282191468624,-0.04224504958710543,-0.01687621686060343,-1.2852486095661513,0.26273862068987724,0.881060831501583
52.5261,316.4391,0.1937231317998862,4.092726141351807,-1.1781595971564072,0.023631137562116218,-0.03379684711487942,0.0066242440250798605,-1.4352418306774686,0.2567806497996948,0.7252836309762091
52.5477,316.4601,0.17332379280302979,4.09338073417481,-1.1889274143733817,0.05165308720056085,0.028837240643477275,0.05089468550852276,-1.099466783809752,0.23858594037955136,0.9110901713618983
52.5652,316.4802,0.1749867241519234,4.1132393587031295,-1.1973763113795128,0.017848378161994236,0.05496604460436426,0.0015023647451552185,-1.4633242882801505,-0.22933058733692316,0.747805635871442
52.5991,316.5001,0.18983314958062808,4.155712957352796,-1.2124390316455576,-0.022641973238918655,0.046179865918704335,-0.05163361372079802,-1.6375402028941923,-0.20546925794397602,0.40622189496038213
52.6072,316.5211,0.21969292514535588,4.191715374043901,-1.2271999229703978,-0.007195103393616985,0.0010764589595747313,-0.06996621289989555,-1.2569560064143814,-0.18584723976915019,0.8247558192634915
52.6294,316.5411,0.24153116767396493,4.223242088105925,-1.2469105054181358,0.014665196571746949,0.004790318744831094,0.006494116885685169,-1.061496436728662,0.15000209228230602,0.4850489120937056
52.6481,316.5612,0.2513617016767742,4.238909548837571,-1.2643692166405265,0.05539030240711311,0.04222797492410127,0.05808483557132647,-0.7180852913349086,-0.07284880627641613,0.5788905991571813
52.6663,316.5811,0.249237887714703,4.2426365581474075,-1.2754645090878152,0.06846289665668215,0.016524059271429265,0.017535529785574006,-0.7143790054251922,-0.4818698336361917,0.7065152935635135
52.6847,316.6011,0.2396513841514578,4.241852856450088,-1.2760917772262756,-0.008798012759216246,-0.015733579107140704,-0.0442385759745724,-0.6374174885613727,-0.3767084290805023,0.6746091199619313
52.7243,316.6212,0.22610783189355238,4.25903781828605,-1.2726991576009044,-0.06882260209536911,-0.0025200329912884725,-0.04554328823037828,-0.5849722404232465,-0.5435478906241092,0.8153716505571462
52.7419,316.6411,0.2149034095339299,4.257789096569085,-1.2449409567652963,-0.07261717932736245,0.0045175881703528814,0.0006562255334661925,-0.48349445483372977,-0.16638561996912246,0.6107967727587659
52.7487,316.6622,0.21127420347809023,4.250902892174296,-1.205809223620616,-0.03033973239103371,0.009589759175590995,0.02634194650523435,-0.6769824276325289,0.3739889486783299,0.6839932886682765
52.7677,316.6832,0.21296728961270212,4.254986004995014,-1.1732138931928642,0.032777088098967684,0.0017620462135996674,0.028692367960550923,-1.0238897133869094,0.07116377700118322,0.4287438998556168
52.7868,316.7031,0.2205451018808317,4.269381378630393,-1.1547289661298825,0.04597979394042123,-0.008383177569388337,-0.006222057322663211,-1.1742465582375639,0.07495133892712331,0.6427029463603467
52.8076,316.7231,0.22908767946772568,4.296035867339254,-1.155491485814075,-0.006465614329676275,0.0193072911560071,-0.020774400541220314,-1.2605922438077313,-0.08839191160792303,0.6858701224095465
52.828,316.7432,0.2355241222523013,4.327807249772075,-1.171833535417962,-0.030799384662709123,0.03785791509120351,-0.02981823672915125,-1.160862528398529,0.02593232392912882,0.4005913937365708
52.8481,316.7631,0.2390876339662773,4.354071975924332,-1.1955046800040778,-0.01959128179650397,0.011800152861675376,-0.015140145649929085,-1.0915371100607427,0.3357499176233979,0.46065007345720116
52.8681,316.7831,0.2394056302267598,4.369309298540966,-1.2196801874638192,0.006115602364935966,-0.02135716533739699,0.004190616273900327,-0.9375440278167383,0.2345070275362289,0.38557672380641655
52.9075,316.8032,0.23556609192595468,4.383469964689353,-1.2459305558809746,0.013822226979716403,-0.029290092725758297,0.018484894853032865,-1.1330035975024564,-0.10134230451522619,0.7252836309762093
52.9137,316.8231,0.2276807447024321,4.37836386450155,-1.2605460796614667,-0.037256404368804646,-0.0003456070865887705,-0.024254363103157626,-0.6735697169457886,-0.33685224506387196,1.170093227657093
52.9268,316.8431,0.2174033781530192,4.373822065867276,-1.2726537739335237,-0.04896625881238099,0.026617295363237835,-0.03142386799480736,-0.6940861245387934,-0.7160539721405186,1.1119113816777388
52.9478,316.8632,0.20721880523790248,4.36961532098452,-1.2812080143970699,-0.0332575000952276,0.008973599409588863,-0.03788236570413947,-0.9829403278747739,-0.40695003282359143,0.8697998290539631
52.9686,316.8831,0.19857412883260328,4.35938914208938,-1.2821536313071304,-0.0010902013912957535,-0.036447148626033675,0.00488473195254652,-1.0011215148415262,0.08032660798254564,0.17537134478422334
52.9873,316.9031,0.1882272998934577,4.347195175923814,-1.277302830646331,0.021095742386721912,-0.04770629720232414,0.027006971260890866,-1.5543270339453108,-0.5775476104609216,-0.16808922986810595
53.0084,316.9232,0.17485995432642998,4.342050860733774,-1.2719363848407534,-0.007328553052245631,-0.00794092892392289,0.029802827924135425,-1.2370267492673177,-0.4102858454573521,-0.3182359291696659
53.0303,316.9431,0.16095083955615003,4.3481391233651445,-1.2699535348035236,-0.04695162099979635,0.016650049801262615,-0.022633091556324276,-1.1751973324228404,-0.5189434610216045,-0.18873440102206868
53.0476,316.9631,0.15218603333488223,4.360884362527053,-1.2713261378422003,-0.025455735530597646,0.0017425397102946076,-0.019935768664496367,-1.2112094637745283,-1.1022186754020695,0.2842277017778607
53.0721,316.9832,0.15101899732165058,4.381971718004687,-1.2788803743906831,-0.0017935149025525236,-0.023739692395825643,-0.03421096610059267,-1.3147155136098085,-0.4959561843807971,0.45314273849212344
53.0917,317.003,0.15791809215378033,4.403229707466817,-1.2879003955409483,0.018105397143767223,-0.005498437708643223,0.024508905551261072,-1.3204634449228065,-0.6515933585213811,0.603289437793686
53.1058,317.0231,0.17246980835400788,4.424570069966414,-1.2965452845474668,0.01715134997667663,0.010780469855395112,0.026461125447804965,-1.4647087347211258,-0.5019141552709795,0.2973655379667496
53.1263,317.0431,0.1912768846065761,4.447743051458617,-1.3040446843326792,0.0022273564883910583,0.013533710228024572,-0.010805598124467027,-1.6241561730551572,-0.2544882729419705,0.16411034233660612
53.1469,317.0632,0.2120938873575126,4.468620030961091,-1.3084354985243947,-0.04444988386238136,0.006376820053235546,-0.037821681413171764,-1.316170008567147,-0.4569740531163074,0.013963643035043808
53.1668,317.0831,0.23000898817536808,4.483604890705847,-1.31078680119024,-0.03930844872752988,0.010417717889314726,-0.022462925297115834,-1.2898356211447792,-0.2337008510976244,-0.08926221273478444
53.1873,317.1031,0.23994359295395978,4.493410770253227,-1.316236163142307,-0.01278892805637129,-0.009679253949501976,0.009717578836315646,-1.033203833576892,-0.2985837681767215,0.4287438998556141
53.2173,317.1232,0.2402966117070358,4.50578318952566,-1.3330803440897727,-0.0005789469212053141,-0.02496137091147294,-0.013456312978386743,-0.5851123374559696,0.07958350777298671,0.837893655452385
53.2376,317.1431,0.23082730912180838,4.511786257266183,-1.356158972176603,-0.03714543827064359,-0.015913617277990223,0.002818338003408734,-0.6772760028555002,0.07216878229590408,1.0424685332507673
53.2487,317.1631,0.21281175625235832,4.510797177092448,-1.3805849605772238,-0.019754073501119775,-0.031219155706942562,-0.019462180950449347,-0.8818261660245946,-0.020042229352482177,1.0349611982856868
53.2712,317.1832,0.1924235913411922,4.5066812826163805,-1.4012768126513768,0.03138786487137473,-0.02397513779747664,-0.027330493605098448,-1.0917606367673536,-0.2776359479575761,0.8078643155920656
53.2948,317.2031,0.1711675751547858,4.495516274371505,-1.4085250780771317,0.034866040013528124,0.0026035480838743686,0.005476247386669976,-1.0220015461738685,-0.2891295862779784,0.48692574583497283
53.3081,317.2231,0.15550097229929088,4.478389053013953,-1.3992093635982352,-0.009028274459901545,0.012528798348610431,0.010427647601762628,-1.0108693072872117,0.03189029481931128,0.5563685942619446
53.3303,317.2432,0.1479080758737885,4.468245181271614,-1.3818444499610278,-0.05857919958153169,-0.021716937405496437,-0.005971812823827266,-0.7784602132220408,-0.0031733219766564226,0.888568166466663
53.3478,317.2631,0.1480219997471971,4.459553217373421,-1.3579641180531594,-0.07037248931718655,-0.05233933376655661,-0.030848618453108236,-0.6772760028555002,0.07216878229590408,1.0424685332507673
53.367,317.2831,0.15369513672126528,4.460116915504877,-1.3386410076463575,-0.04448779757485062,-0.04308624496407379,-0.029776946386843323,-0.38274391672288766,0.23026771631811113,1.1456943890205928
53.3865,317.3032,0.162728487837644,4.471889021995238,-1.330808611308319,0.0019531099337375475,0.00808338158917281,0.009664714685936554,-0.5308489706211679,-0.13598361785123408,1.048099034474576
53.4137,317.324,0.17515641538123533,4.499142690702482,-1.340501490499639,0.04929141065587997,0.028904846066455808,-0.0028331211971774693,-0.5323034655785094,-0.09700148658674207,0.6089199390174966
53.4319,317.3441,0.19594212334712763,4.542531391865921,-1.369255712135914,0.04315623103961552,0.016760732445616284,-0.01858132031454683,-0.28651034167430856,-0.18108411838070648,0.6990079585984329
53.449,317.3641,0.2203571133122253,4.591870378179677,-1.40999750316594,-0.026455620948318614,-0.0028927498795754043,-0.04796815742409856,-0.6580039446707441,-0.4443444569586023,0.62768827643019
53.4698,317.3851,0.24105405769746502,4.633066467306448,-1.4522222520456067,-0.061315058065065035,-0.0019172600034031559,-0.04267298382873003,-0.7815927298433302,-0.5385949250286477,0.35742421768737526
53.4993,317.4051,0.2509248831529268,4.654488291773639,-1.4864789952500443,-0.023789006278520874,-0.005145738926829409,-0.005277384339557533,-1.1271856176730968,-0.25727082957318914,0.5638759292270272
53.5137,317.4252,0.2500448195275032,4.641005001128224,-1.5011105175384147,0.016706741104718405,0.0037538948492541286,0.032091939477237194,-1.0386581896669176,-0.1524007759348804,0.2204153545746929
53.5314,317.4451,0.2386964275061682,4.611573184795804,-1.5048419348059812,-0.006054919309054618,-0.023236399716138608,-0.002606962731354484,-1.2226218967266411,-0.17697575970516835,0.2598288631413538
53.5621,317.4651,0.22246420851032161,4.586176668214382,-1.506253287919581,-0.04300450967364921,-0.03865785997662504,-0.021964938744432304,-1.1402760722891576,0.09356835180722879,0.447512237268312
53.5685,317.485,0.20087982088727158,4.555036699053719,-1.494834748815242,-0.04245139780627455,-0.02499056639890219,-0.019249473126438793,-1.117437825227415,-0.20883451640995584,0.1828786797493068
53.5968,317.5051,0.1840523424111467,4.554191726325055,-1.4888188092603658,-0.020309289950340585,-0.003641497692111636,-0.0011592983055885634,-1.421717703805709,-0.4153697635953945,0.4606500734572012
53.6129,317.5251,0.1767631488377407,4.566996622156886,-1.4758078198569715,-0.01536508200330329,-0.0038634084204803745,-0.001435818476802276,-0.8402195815501545,-0.20608140561095467,0.7478056358714391
53.6309,317.5461,0.1823035857668993,4.600775197177795,-1.4604840275172786,-0.02830369573878236,0.00250718641954941,-0.015108239476327502,-0.9243835246843127,-0.42789785304273853,0.49067941331751197
53.6498,317.5662,0.19975800610896222,4.647786354591093,-1.4414679093341916,-0.035388807349801404,0.015667494431231294,-0.008323485501638035,-0.9489698419263713,-0.38833301994348707,0.6746091199619292
53.6788,317.5861,0.22080562242868762,4.701622108130736,-1.4209524945598702,-0.03459594964310143,0.01970921221277113,0.0034689737003821774,-0.9114331671009801,-0.155605636026061,0.6295651101714597
53.6929,317.6061,0.24829252145167569,4.74382646733977,-1.3962498128066623,0.002468810659545355,0.01640472608918121,0.010729505028483485,-1.3013314837707737,-0.5449751993787916,0.21103118586834754
53.7146,317.6262,0.2691361753662243,4.781882716979129,-1.3802223005263399,-0.0035914965617648994,0.017944821317057637,0.049441390581533046,-1.2887447499267748,-0.26293744954599213,0.7196531297523986
53.7306,317.6461,0.2845939677443834,4.80747616824429,-1.3750208035083882,-0.06679492760650581,-0.006436451160335927,0.010771733787662054,-0.7223787276905649,-0.2674681116814922,1.1682163939158232
53.7519,317.6661,0.2902565140130084,4.824986398256807,-1.3871717135704424,-0.07212237427698442,-0.03702862051730338,-0.024811469918691147,-0.7841380960186773,-0.4703761953157894,1.0274538633206063
53.7761,317.6862,0.283610967916946,4.825581954946626,-1.4110604102353863,-0.026396993065409043,-0.029755257005536023,-0.027238215946152694,-1.0205470512165304,-0.32811171754246976,0.9261048412920527
53.7916,317.7061,0.2612187110318362,4.8058322498629975,-1.4407419995673456,0.028745587158706752,-0.009935259616018134,0.033256514813694966,-0.9338377419070256,-0.17451399982354598,0.5132014182127492
53.8136,317.7271,0.2252227730088452,4.778197460347206,-1.4779525945571648,0.06458061943505528,-0.01827005950265725,0.06236120125080917,-1.1004175579950302,-0.3553088595691775,0.0796528239794759
53.8307,317.7471,0.181594905852198,4.751528652974451,-1.5205658757802338,-0.008184601677846825,-0.0291284304026503,0.049786727989926644,-0.9258380196416544,-0.3889157217782465,0.05150031786043249
53.85,317.7671,0.13662083541025988,4.731912746512295,-1.5634444317890728,-0.09528733577497198,-0.03426738180482623,-0.003794685683954573,-0.8847351559392748,0.0579220331764994,0.15660300737152755
53.8758,317.7872,0.09869896606142131,4.721198607992338,-1.5980449672116495,-0.07130324319193986,-0.049640007790027085,-0.02417803853101267,-0.7928650657627189,-0.23648340772884302,0.3105033741556367
53.8934,317.8071,0.06569430448601352,4.703625736569862,-1.604732724145075,-0.004255671792373738,-0.07135506511271715,-0.012139714108886146,-0.8677148887068921,-0.08855230998272222,0.053377151601704455
53.9125,317.8271,0.0448299539830421,4.691896774623314,-1.5851301539137987,0.0223312022091946,-0.04298444630299347,0.03293182257645533,-1.1905395779912755,0.2019346164540988,0.006456308069963039
53.9297,317.8472,0.041064892028832095,4.694514771128492,-1.5441078877704337,0.01638644236870163,0.005938042685950082,0.06266399709440065,-1.1004175579950302,-0.3553088595691775,0.0796528239794759
53.9502,317.8671,0.05734771607719491,4.71940304038567,-1.4941772513615206,-0.03110340626040343,0.026856981185498712,0.04005941151455004,-0.8484428305221345,-0.6050655492372274,-0.3614031052188659
53.9799,317.8871,0.08999131611810413,4.7698234589000705,-1.4522271802082118,-0.07305653559179617,0.0006535793308637192,-0.013120359738699492,-1.1039136983556521,-0.8809849298050458,-0.08175487776970164
54.0005,317.9081,0.1322410981866508,4.816475923680303,-1.4182470633833637,-0.0636985145259476,-0.01375669006087509,-0.04722023917820264,-0.3997775651127899,-1.1713409036992848,-0.35577260399505733
54.0282,317.9282,0.1649818877093845,4.856613546642625,-1.406097063652645,0.0038475535765856695,0.007840932174831177,-0.00956344699337012,-0.45404093194759193,-0.9557737780750657,-0.5659779830172481
54.0385,317.9492,0.1802682790083151,4.881064552041664,-1.4186826398186592,0.04361810862638258,0.020124373483572013,0.015433163189728556,-0.8787770790771875,-0.7211378902785608,-0.027326699272886695
54.0545,317.9691,0.1727410064673211,4.895688315766413,-1.4590301659548113,0.02484670250924499,-0.009444344442681047,0.01629306584885356,-0.8581906229678161,-0.6535018624004608,0.01959414425885449
54.0747,317.9891,0.14700371220974978,4.904971989770326,-1.5211042308584075,-0.0187146633041737,-0.055824812485876944,-0.01880935561411108,-1.4946793595368453,-0.6277320291284364,0.2617056968826259
54.0958,318.0092,0.1080317602807287,4.905974802186803,-1.5886942653718317,-0.07594577172256867,-0.05130968467992569,-0.04317378563202547,-1.4329199912087325,-0.42482394549413754,0.40246822747784256
54.1164,318.0301,0.062391289198317906,4.892011145869488,-1.6421545629413146,-0.0472234745002216,-0.01069744190137392,-0.03073882367924397,-1.5023154580628832,-0.42307583998985715,0.35367055020483207
54.1378,318.0502,0.020045055382397592,4.864593063967686,-1.6702719496881733,0.035594998983129456,0.011403093695402601,-0.0005077241917444815,-1.5583268950779978,-0.4703467494835702,0.06276132030805252
54.1592,318.0701,-0.008783433169699595,4.834625314595315,-1.6731111613389358,0.05828567901995187,0.0023073099237016486,0.010461430609105482,-1.164358668759154,-0.4997437463067371,0.2391836919873935
54.1774,318.0911,-0.0177965846817498,4.815768433342233,-1.657645843281003,0.0003024344119435344,-0.01704680664595008,-0.01743864137173721,-1.2264816608266005,-0.6929062971249124,0.46815740842227976
54.196,318.1121,-0.007029635644351606,4.815049145301508,-1.6309219429081492,-0.0835303487382034,-0.0182080621768611,-0.028189457847352814,-0.584608616683909,-0.5532934234402317,0.4456354035270423
54.2159,318.1321,0.019273684059519597,4.830793493674059,-1.598120343997355,-0.11176272969342321,-0.0025288240992237124,-0.04231701102913591,-0.297712629077332,-0.1905383002794495,0.6408261126190742
54.2356,318.1522,0.05466157547041761,4.854372177669649,-1.5627498634550714,-0.0397397970077551,0.0030873585519183527,-0.00858686783666286,-0.3273896786700787,-0.014536007754479533,0.24669102695246645
54.2561,318.1721,0.09194746186011593,4.883474823289017,-1.5335955129937917,0.03526585864136737,0.0328184235764777,0.018752969272410866,-0.28585314271200235,0.11099051518559683,-0.02920353301415413
54.2784,318.1921,0.1240569467587242,4.920252145921081,-1.5215014137685918,0.03930946528537716,0.04104278476933842,0.022309882017740233,-1.0252741598278847,-0.20141979093287316,-0.021696198049075584
54.302,318.2122,0.1456610261779901,4.96582988622921,-1.5340435285062173,0.018742591771168573,0.031258168981245164,-0.0193817899051983,-1.205308054271286,-0.021629936481963083,-0.20187223721095338
54.3178,318.2321,0.15354692558967842,5.006713459078838,-1.5651478798724983,-0.05371488809334548,0.008693793821258042,-0.06287616063662624,-1.427242108412101,0.042378927844993204,0.2635825306238933
54.3362,318.2521,0.1437087896953792,5.0336269999621805,-1.6062318876522694,-0.0636392253560641,-0.008997097207597355,-0.0486341205966257,-1.7422906021377214,-0.4949217332538582,0.10217482887471345
54.3558,318.2722,0.11991811834763111,5.03805708458516,-1.6444719587094563,-0.006974046668709006,-0.020538989345995802,-0.03499172893696081,-1.7297038682937227,-0.21288398342105871,0.6107967727587644
54.378,318.2921,0.09093775222450828,5.0246493940468415,-1.672762838710142,0.03147774854718287,-0.017041859007466166,-0.007684423612735747,-1.7600381168487755,-0.32895632446239204,0.9448731787047437
54.3985,318.3121,0.06771922481518519,5.004041151335216,-1.68784221424027,-0.025160196796789856,-0.009275120140097072,0.014550112914461226,-1.5290835177409468,-0.32503780999386944,0.8378936554523828
54.4173,318.3322,0.059356854878780896,4.986211719520084,-1.6890673774805551,-0.05897898563626599,0.007940389055150935,-0.05165457169757552,-1.212146856802289,-0.14803051217417912,1.0574832031809194
54.4394,318.3531,0.0672483198992439,4.978394251759061,-1.6795392206115702,-0.029814077275081122,0.00819882089449705,-0.05857007842290678,-0.9342013656463592,-0.16476846700742237,0.8829376652428522
54.4585,318.3732,0.0878203615746973,4.978508199357572,-1.6625507915208966,-0.00201271873821296,0.01026524382307965,0.01763281233449648,-0.6768423305998009,-0.24914244971876562,0.661471283773044
54.4775,318.3931,0.11232503962712681,4.989865772264542,-1.6496261389178388,0.010586231987659412,0.00995273832348837,0.0492684090717127,-0.4293011365152894,-0.07038704639479443,0.8322631542285762
54.4969,318.4131,0.1321528931497915,5.0131505963855245,-1.6514253401849273,-0.006296923089749436,0.00848917684355349,0.004886295980664244,-0.37874405559020047,0.12306685534075966,0.9148438388444345
54.5206,318.4332,0.14003002652318292,5.046183673155044,-1.6732869488504003,-0.010923020615117825,-0.012408627813730477,-0.061385329034811136,-0.35422778686450707,0.395067721440056,0.7421751346476374
54.539,318.4542,0.130580657746093,5.0768697415402855,-1.7075256238035499,-0.012819597071198126,-0.012057401841428369,-0.038400059011106324,-0.2233665269052195,0.2944075331876482,1.2902105870983491
54.5583,318.4741,0.1049192055880428,5.098821529808988,-1.7440567165009302,-0.00030000735328928506,-0.003945945590393528,-0.025113014539788453,-0.36972351062319003,0.1909942341362392,1.273319083426921
54.582,318.4941,0.07038642856141719,5.108000048229791,-1.7707789321717728,-0.0009739418505621164,0.0077676605265148925,-0.004209465940775148,-0.5255347115638701,0.3409647883040204,1.2789495846507297
54.6011,318.5142,0.03945910765845259,5.1007057331948475,-1.7758037120335786,-0.015354405214813398,-0.007143212331843049,-0.005318674681865463,-0.6963379154911679,-0.3460150760452333,1.4234657827284856
54.6198,318.5341,0.020653143072963814,5.0815968580342705,-1.756072263394323,-0.037932117786584445,-0.023321030276823564,0.02244720368647646,-0.9883946839647996,-0.2607670405817504,0.6614712837730419
54.6389,318.5541,0.01676718850681891,5.057322689220975,-1.7151364317339706,-0.049060347289736635,-0.04038605319636712,-0.026190004301653635,-1.4949729347598175,-0.9295521955108617,0.6201809414651096
54.6592,318.5742,0.025501509523399413,5.037190531928802,-1.6642512845467456,-0.02802314034089681,0.004278629886439761,0.00408175991690669,-1.2640183356519918,-0.9256336810423385,0.5132014182127493
54.6905,318.5941,0.0395593521819812,5.035586875321517,-1.6225966910042084,-0.01619223523120932,0.024602241566502175,0.0570866728265946,-1.0030931117284452,-0.7958972927163618,0.44188173604450565
54.6997,318.6141,0.0676361651570083,5.043350187473998,-1.5953971937998104,-0.01401440040817961,0.010570817469286392,0.028711136297963624,-0.7219450554348659,-0.5887793436961637,0.7872191444381001
54.7186,318.6342,0.09312991925713249,5.073961218394976,-1.5999177974180958,-0.016001488746522408,0.0070508697715610715,-0.06924144227014196,-0.26403571835190026,-0.4737414537817692,0.8041106481095309
54.7391,318.6541,0.11159645830075421,5.116078141993177,-1.6315146712718305,0.015015372804638447,0.014399411388758386,-0.07703655840888154,-0.3803520287377867,-0.7629025781742708,0.8116179830746066
54.7595,318.6752,0.11673109385260699,5.159225687293829,-1.6799826352393126,0.03150516319502028,0.004366111809125738,-0.017469296322844618,-0.43461539557259193,-0.5473354525500492,0.6014126040524161
54.7787,318.6951,0.10712388421684221,5.195336999267529,-1.7329695105138812,0.03390000321501391,-0.006293880066913753,-0.005493845831050623,-0.7594817302602572,-0.8215067276135897,0.8322631542285698
54.8034,318.7151,0.08656939034418193,5.221026998810622,-1.7809791813005358,0.0052389094496234,-0.019848661412334934,0.004753666396281195,-1.119773045853669,-1.0753128842927406,0.8191253180396852
54.8323,318.7361,0.061332432312525,5.234506413457121,-1.8178148190266639,-0.02711858562204022,-0.016661130856649334,-0.03174324253644674,-1.071034083625254,-0.8331313184765716,0.8322631542285742
54.8525,318.7562,0.035819532795192704,5.229272628492472,-1.8368600900444447,-0.006368601975378061,-0.011629232247343961,-0.014507965484744787,-0.9680317545620378,-0.8065168782846233,1.0556063694396545
54.862,318.7761,0.012811862660596307,5.208486797026975,-1.840715202071355,0.01081289470540246,-0.0181099528265047,-0.03692392927359782,-0.8213111471047346,-0.7128491120493373,0.7027616260809725
54.8899,318.7961,-0.0038745202175669846,5.187100032480925,-1.8411864290583202,0.015102127749009096,-0.006816707956143563,-0.004305810072826986,-0.6750242119031267,-0.29787011379938066,0.7309141322000131
54.9014,318.8162,-0.0129604937857834,5.165410360571137,-1.8388008070516835,0.0032649042328628665,-0.004931493756250201,0.0020704197575128103,-0.3353193524190882,-0.11169998499832609,0.6971311248571637
54.9212,318.8359,-0.014018984565616899,5.1566239614785045,-1.8417937288325688,0.008566863907361149,0.004252656225639115,0.008384714074390707,-0.03678740515378883,-0.06080191195347219,0.5695064304508312
54.9397,318.8561,-0.004730604033994501,5.165262280429819,-1.8510857546179935,0.002593810113312327,-0.002636277297463555,0.006869483633939082,-0.17346664494243927,0.19578680135690096,0.18287867974930166
54.9612,318.8762,0.013449071130640616,5.194010097811284,-1.8659770405493614,-0.02357957093312393,0.0018867602146316338,-0.004573258880957903,0.04403387580999163,0.560290030021964,0.32927171156832946
54.9797,318.8961,0.037638369959473505,5.233316994742653,-1.8779857744262682,-0.04219653899338331,0.002657558241023489,-0.03890930656623747,-0.3820867177605793,0.5223423498844126,0.41748289740799854
55.0052,318.9161,0.060343827871750605,5.275339862882118,-1.8817453443084686,0.009519370428586471,0.03555219665723613,-0.050437445016362215,-0.32396358682581694,0.8227057616799369,0.41935973114927055
55.0387,318.9361,0.0748960195930572,5.308849391103817,-1.8722324132653607,0.054538928294402544,0.030257455425295773,0.00852829185559783,-0.2320934966492622,0.5283003207745951,0.5732600979333724
55.04,318.9561,0.09298455352746493,5.326030734968902,-1.8500961135355871,0.01631817188478782,0.014064765685684459,0.052539417477122,-0.6897793070256173,1.026648296441173,0.20915435212707745
55.0602,318.9761,0.09554087007292889,5.3330397583666285,-1.8263393234255985,-0.05433832849525661,-0.009127536670590974,0.01699875533557092,-0.8885114903653527,0.778508759734822,0.04023931541281499
55.0786,318.9962,0.0890665521099191,5.321994528101537,-1.8015241227279444,-0.06522354806107991,-0.020059897978695482,-0.025751763623067192,-1.774065964492595,0.9760710201459171,-0.3163590954283992
55.0983,319.0161,0.07421319944776761,5.295197505691406,-1.7805086065488622,-0.04863777975759284,-0.026420134497075615,-0.02854073856259376,-1.9732318200880272,1.0492427154542372,-0.10427688266493874
55.121,319.036,0.0539052870277571,5.258939763206562,-1.767368661700692,0.011943324458354297,-0.01377328835820334,-0.00382534063506198,-2.072527863241531,0.6136072479025141,-0.19999540346968622
55.1382,319.0561,0.033053616286914,5.228469949451643,-1.7693399522401754,0.07684685418572879,0.0029285959515184534,0.019388590299454157,-2.072527863241531,0.6136072479025141,-0.19999540346968622
55.1603,319.0761,0.017290812265674194,5.220875512731024,-1.7931571696743416,0.05664686261214898,0.008292648195323644,0.02051906982294552,-1.7385008865541272,0.3325745033644354,-0.09489271395859274
