AppTimestamp(s),SensorTimestamp(s),acc_x,acc_y,acc_z,gyro_x,gyro_y,gyro_z,mag_x,mag_y,mag_z,PitchX,RollY,YawZ,Quat_w,Quat_x,Quat_y,Quat_z
0.0361,21772.902,-2.38709,4.46772,8.72234,0.2738,-1.99106,-1.66524,-2.9,-30.2,-21.6,38.187248,7.320159,-155.254379,0.22247137651311327,0.12887201,-0.30593801,-0.91667902
0.0386,21772.922,-2.06626,4.81249,8.69122,0.03068,-1.99228,-1.59927,-2.7,-30.3,-21.4,37.814487,6.744297,-157.730713,0.20108512628267597,0.117068,-0.30664101,-0.92294699
0.0541,21772.942,-1.87711,4.86517,9.04796,-0.12082,-2.17859,-1.64875,-2.4,-30.3,-21.4,37.230049,6.095736,-160.146255,0.17986501481661152,0.104585,-0.305298,-0.92924899
0.0829,21772.962,-1.47008,4.36476,9.37598,-0.15442,-2.58787,-1.74649,-2.1,-30.3,-21.3,36.543217,5.197293,-162.643433,0.15718955431719817,0.089818,-0.30311799,-0.93559802
0.0835,21772.982,-1.07024,3.90985,9.4095,-0.13242,-2.86887,-1.8766,-1.8,-30.3,-21.3,35.858894,3.921552,-165.307953,0.13203180689167157,0.071625,-0.300978,-0.94172698
0.1029,21773.002,-0.94574,3.3855,9.64653,-0.21061,-2.966,-2.0623,-1.6,-30.2,-21.3,35.193932,2.460623,-168.177811,0.1046023882598262,0.051485,-0.29853499,-0.94725102
0.1258,21773.022,-0.90264,2.97848,10.39834,-0.32118,-2.43149,-2.20158,-1.3,-30.1,-21.4,34.413425,1.165908,-171.290405,0.07554291194797308,0.032152,-0.294213,-0.95220703
0.1437,21773.042,-1.34798,3.20115,10.25947,-0.28392,-1.59949,-2.25961,-1.1,-30.1,-21.4,33.518669,0.62175,-174.523376,0.04732885407400965,0.018965,-0.28777099,-0.95634103
0.165,21773.062,-1.74064,3.67282,9.51724,-0.14098,-1.36553,-2.19914,-0.9,-30.0,-21.5,32.693909,0.877183,-177.725449,0.021243599727917145,0.01293,-0.28124401,-0.95931399
0.187,21773.082,-1.25699,4.14688,8.20997,-0.07195,-1.48343,-2.12217,-0.6,-29.8,-21.5,32.058334,1.207124,179.235886,0.003735100842002243,-0.008283,0.276173,0.96106499
0.2058,21773.102,-0.61293,4.6856,8.028,-0.19168,-1.718,-2.21258,-0.3,-29.7,-21.5,31.516451,1.259974,176.328018,0.027870645198126973,-0.001876,0.27176201,0.961959
0.2266,21773.122,-0.79729,4.95854,8.46616,-0.3334,-1.78153,-2.4105,-0.1,-29.5,-21.6,30.952654,1.093894,173.336533,0.0534815212896922,0.006323,0.26691201,0.96221501
0.2485,21773.142,-0.67997,4.95136,9.44781,-0.3951,-1.99594,-2.62919,0.2,-29.2,-21.9,30.372862,0.836311,170.192001,0.08060042779898619,0.015376,0.26159701,0.96168298
0.272,21773.162,0.48604,4.0559,9.94103,-0.3334,-2.12423,-2.67928,0.5,-28.9,-22.2,29.814783,0.38556,166.860611,0.10970805009122854,0.026203,0.25593901,0.96008998
0.2892,21773.1819,0.8356,3.77577,9.75428,-0.36516,-1.41623,-2.94623,0.9,-28.6,-22.6,29.337524,-0.039934,163.49147,0.1389779592489402,0.036689,0.250559,0.957371
0.3168,21773.2019,0.08141,3.94337,8.93304,-0.46046,-1.27024,-2.99326,1.4,-28.0,-23.1,28.786366,0.386832,159.880508,0.16836820231195623,0.0402,0.245323,0.95386201
0.3349,21773.2219,-0.54829,3.91703,9.4095,-0.59546,-1.48587,-2.9224,2.1,-27.2,-23.4,28.098003,0.684345,156.383636,0.19709386709636614,0.044004,0.238796,0.949839
0.3445,21773.2419,-0.90504,3.78774,10.88437,-0.46229,-1.59705,-2.88819,3.4,-25.9,-23.9,27.299936,0.699414,152.930679,0.2260224829160133,0.049462,0.23082,0.94508702
0.3646,21773.2619,-0.32083,3.31128,10.54439,-0.24604,-1.2623,-2.75136,4.1,-25.1,-24.9,26.70792,0.622479,149.559402,0.25421912501237875,0.055535,0.22424901,0.93914902
0.3832,21773.2819,-0.8763,3.78056,10.04877,-0.20084,-1.00695,-2.63713,5.0,-24.0,-25.5,26.284222,0.887289,146.318146,0.2804350091903286,0.058653,0.21979401,0.93252701
0.4024,21773.3019,-0.81645,4.53476,10.40312,-0.22466,-1.11508,-2.6017,5.6,-23.4,-26.6,25.855131,1.261652,143.199585,0.3052983358942522,0.060431,0.215656,0.92554498
0.4299,21773.3219,-1.6305,4.54194,10.86522,0.05206,-1.21587,-2.40072,5.8,-22.5,-26.3,25.502525,1.271247,140.143936,0.330113355519373,0.065053,0.211178,0.91771299
0.4442,21773.3419,-3.04791,6.57228,10.74311,0.59145,-0.37837,-1.93708,6.6,-21.8,-26.7,25.580204,1.525366,137.405121,0.3514215299923434,0.068306,0.210958,0.90957898
0.4646,21773.3619,-3.12692,7.76224,10.60185,1.01478,-1.11447,-1.54734,7.3,-21.6,-26.7,26.290915,2.143207,135.182907,0.3672234062172228,0.069844,0.21715701,0.90172702
0.4839,21773.3819,-4.15646,7.73351,10.27623,1.52913,-1.77848,-1.43495,6.5,-21.7,-26.8,27.5756,1.828603,133.163986,0.38244595547760696,0.080487,0.22482701,0.89258599
0.5032,21773.4019,-5.4781,7.89871,9.44302,1.87488,-1.85117,-1.21687,6.5,-21.8,-26.3,29.487732,1.157215,131.118469,0.39777006308770835,0.096403,0.23572201,0.88143098
0.5327,21773.4219,-6.14371,7.35761,8.92107,2.10151,-2.13156,-0.78071,6.3,-22.1,-26.3,31.770138,0.523815,129.202026,0.4114057351653712,0.113426,0.249136,0.86937398
0.5512,21773.4419,-7.15649,6.43102,8.78938,2.28477,-2.76441,-0.49543,6.5,-21.9,-26.5,34.301464,-0.59913,127.553642,0.42359819697231904,0.134781,0.262326,0.85649502
0.5769,21773.4619,-5.86358,4.1397,9.14852,2.39534,-3.39849,-0.32806,6.6,-21.7,-26.6,36.973965,-2.404969,125.875175,0.43731483120626,0.161955,0.27325499,0.84134299
0.5864,21773.4819,-6.55552,2.22907,7.28578,2.24629,-2.08208,-0.16129,6.6,-21.5,-26.6,39.500103,-4.661936,124.067902,0.4531371387343339,0.19214401,0.28026,0.82413697
0.6062,21773.5019,-7.98251,3.36635,7.90111,2.08746,0.61428,0.56869,6.4,-21.5,-26.6,41.68335,-4.364155,122.426727,0.46158647576845174,0.202391,0.29445699,0.81195498
0.6271,21773.5219,-7.63295,2.02556,6.69679,1.41368,0.80609,1.26813,6.3,-21.7,-26.5,43.337257,-2.613621,121.577065,0.4607799364849336,0.198653,0.31185299,0.80682498
0.6485,21773.5419,-7.36718,2.00401,6.71115,0.95736,1.27157,1.58701,5.8,-22.2,-26.0,44.118965,-0.941319,121.290512,0.45700327673387575,0.19073901,0.32360399,0.80625498
0.6653,21773.5619,-5.75105,2.08062,5.7295,0.85473,1.74438,1.92665,5.0,-23.5,-25.0,44.458904,1.007538,121.458565,0.4496783360621234,0.177866,0.33397999,0.80908
0.6835,21773.5818,-3.34241,2.15724,4.92981,0.75761,1.73155,2.06165,4.4,-24.2,-24.7,44.706356,3.003032,122.244156,0.4377759427727155,0.162387,0.34461299,0.81438601
0.71,21773.6018,-2.57863,2.27696,4.16843,0.60611,1.49454,1.79409,3.8,-25.2,-22.7,44.871677,4.709455,123.412247,0.4239402900980979,0.14730699,0.35376999,0.82062298
0.7322,21773.6218,-1.68557,2.32245,3.35198,0.26769,1.17933,1.58212,3.4,-25.7,-22.1,44.857384,6.224965,125.285828,0.4057484433789733,0.130493,0.36142701,0.829283
0.7485,21773.6418,-1.13967,2.42779,4.32167,-0.30835,0.90444,1.31334,3.1,-26.5,-22.2,44.455029,7.391322,127.468765,0.38693167097550923,0.113549,0.36492801,0.83917701
0.7693,21773.6618,-1.71909,1.93218,7.2331,-0.68404,0.7163,1.09587,2.6,-26.9,-23.4,43.428955,8.175913,129.712189,0.36986303806803894,0.096849,0.362212,0.85007298
0.8025,21773.6818,-2.54751,1.00799,9.04796,-0.35844,0.87512,1.1985,3.7,-26.3,-21.6,42.040287,8.655475,132.081161,0.3532505328150819,0.080877,0.355459,0.86158103
0.8184,21773.7018,-2.29372,0.81645,8.51165,0.24753,1.37359,1.6261,1.8,-26.9,-23.3,41.030262,9.144736,134.62056,0.3343532975011902,0.06587,0.35110399,0.87212098
0.8321,21773.7218,-0.35914,1.12291,6.74946,0.43202,1.61916,2.18871,1.7,-27.1,-21.8,40.606052,9.655672,138.048508,0.3072748434480115,0.050068,0.351098,0.883066
0.8537,21773.7418,2.47807,2.04471,6.70397,0.01113,1.734,2.55828,1.7,-27.2,-22.3,40.290749,9.629012,142.303772,0.2748730396962203,0.0363,0.35024199,0.894683
0.8628,21773.7618,4.53715,2.86116,7.2786,-0.5527,2.10846,2.50636,1.7,-27.4,-22.0,39.556454,8.986153,147.251572,0.23903232992179,0.024372,0.34444001,0.90754098
0.8877,21773.7818,5.49965,3.5962,7.97772,-0.99619,2.39373,2.24002,1.4,-27.8,-21.7,38.346962,8.365012,152.278473,0.20241846255912285,0.011588,0.33452001,0.92031997
0.9104,21773.8018,6.64172,4.13252,9.68245,-1.14768,1.95147,1.99995,1.0,-28.1,-21.6,36.807323,7.713141,157.067322,0.16739094697473902,7.3e-05,0.32139501,0.932033
0.9301,21773.8218,7.99448,4.31209,9.14374,-0.82087,1.72239,1.72017,0.7,-28.4,-21.5,35.368412,6.666351,161.434525,0.13599821621837507,-0.005752,0.30822101,0.941526
0.9418,21773.8418,7.89153,4.90826,7.32648,-0.78605,1.50859,1.23942,0.3,-28.6,-21.3,34.303577,5.602917,165.19548,0.1086730563353207,-0.008364,0.298114,0.94828701
0.969,21773.8618,7.74069,5.54753,7.30733,-1.13424,1.11702,0.87168,0.0,-28.8,-21.4,33.22382,4.51753,168.25351,0.08678579632716145,-0.008338,0.28803101,0.95364398
0.9854,21773.8818,8.22194,6.03357,8.64573,-1.35904,0.54403,0.6591,-0.3,-28.9,-21.4,31.846405,3.161789,170.766632,0.06983506278224358,-0.00437,0.27548999,0.958754
1.0055,21773.9018,8.25546,6.95297,9.84047,-1.31139,0.1372,0.4227,-0.7,-29.0,-21.7,30.366695,1.433747,172.804443,0.05729918603958832,0.004383,0.26212999,0.96332002
1.0364,21773.9218,7.8197,7.95618,10.11102,-1.22282,-0.2226,0.10993,-1.0,-29.0,-22.0,29.00856,-0.393058,174.283676,0.0491517751357932,0.015805,0.249974,0.96687502
1.0444,21773.9418,6.72312,8.77023,10.70001,-1.27841,-0.66426,-0.23398,-1.4,-28.9,-22.2,27.805712,-2.243739,175.098251,0.04621131741077771,0.029261,0.239198,0.96942902
1.0652,21773.9618,6.63932,9.0312,12.54839,-1.16112,-1.28551,-0.35188,-1.7,-28.8,-22.5,26.611443,-4.086266,175.254089,0.0484751149636591,0.044188,0.228367,0.97136301
1.0841,21773.9818,7.23071,9.51724,13.59469,-0.68892,-1.76992,-0.54247,-2.1,-28.7,-23.0,25.48052,-5.619088,174.789551,0.055099621143524645,0.057772,0.217866,0.97270799
1.1035,21774.0017,6.83805,9.09106,13.05119,-0.19656,-1.82796,-0.89983,-2.4,-28.5,-23.3,24.933674,-7.307882,173.990891,0.06482329079890649,0.073434,0.211878,0.97237498
1.1255,21774.0217,5.75823,8.30574,12.34249,0.08443,-1.84201,-1.25657,-2.8,-28.3,-23.7,24.957993,-8.876505,172.787796,0.07791910497894354,0.088957,0.210255,0.97046798
1.1533,21774.0417,5.2698,7.54436,11.62899,0.24448,-1.86827,-1.49481,-3.1,-28.1,-24.1,25.363512,-10.295396,171.237045,0.09388258006445989,0.103983,0.21132401,0.96732402
1.1722,21774.0617,4.95136,6.7734,11.5404,0.35749,-1.86583,-1.75809,-3.3,-27.9,-24.6,26.002266,-11.633936,169.424835,0.11203603765476519,0.118958,0.21375901,0.96312201
1.1831,21774.0817,3.66324,5.6026,11.03282,0.58229,-1.71311,-2.04153,-3.6,-27.7,-24.9,26.903677,-12.760791,167.307785,0.13253315914977598,0.132972,0.217824,0.95776099
1.205,21774.1017,2.57863,4.30969,9.7854,0.87489,-1.61354,-2.18203,-3.7,-27.5,-25.0,28.185886,-13.641534,164.996201,0.15440947982465164,0.145769,0.224664,0.95101798
1.2317,21774.1217,1.77416,3.6369,8.4039,1.10885,-1.64164,-2.24801,-3.9,-27.3,-25.2,29.809204,-14.510936,162.686584,0.17640282132726617,0.159058,0.23387501,0.94280702
1.2494,21774.1417,1.2115,3.1796,7.41507,1.1791,-1.62148,-2.27672,-4.0,-27.2,-25.4,31.618958,-15.229972,160.30304,0.19869393774969377,0.171812,0.244249,0.93345797
1.2666,21774.1617,1.0894,2.62891,6.78298,1.18888,-1.56895,-2.2535,-4.1,-27.1,-25.4,33.404778,-15.760484,157.830444,0.22108146736617046,0.183603,0.25412801,0.92348897
1.3041,21774.1817,1.30009,2.76299,6.67763,1.162,-1.40585,-2.2474,-4.1,-27.0,-25.4,35.034786,-16.043135,155.308731,0.24293358336454796,0.19372299,0.26270601,0.913477
1.3359,21774.2017,1.38389,2.5523,6.28497,1.151,-1.23908,-2.29932,-4.1,-27.0,-25.3,36.54147,-15.999985,152.685043,0.2644313662408824,0.20172399,0.27047399,0.90345299
1.3434,21774.2217,0.34717,2.47807,5.31768,1.05204,-1.11569,-2.38056,-4.0,-27.1,-25.1,37.955837,-15.602973,149.903931,0.28587647744223255,0.20761199,0.27781901,0.89330202
1.3456,21774.2417,-0.52195,2.64089,4.60658,0.78937,-1.08148,-2.29077,-3.8,-27.2,-25.0,39.175854,-14.833494,146.921478,0.30744133993540845,0.21122199,0.284073,0.88327098
1.3667,21774.2618,-0.14126,3.09101,5.15487,0.49005,-0.99351,-2.04276,-3.6,-27.4,-24.7,40.016392,-13.87251,143.93866,0.3280079124052341,0.213034,0.28784701,0.87416899
1.385,21774.2818,-0.06704,3.31128,5.12854,0.39536,-0.73634,-1.90348,-2.9,-27.5,-23.9,40.525383,-12.790075,141.217834,0.3459176876970871,0.212832,0.28995499,0.86658502
1.4091,21774.3018,-0.76138,3.37832,4.74066,0.34833,-0.48711,-1.81002,-2.2,-27.8,-23.8,40.926601,-11.419707,138.667953,0.3615544553266352,0.209986,0.29259199,0.85998499
1.4256,21774.3218,-0.56744,3.24424,3.86915,0.29579,-0.28002,-1.61454,-1.5,-27.8,-23.6,41.26799,-9.788134,136.221619,0.37552290960454027,0.20498399,0.29603401,0.85400701
1.4462,21774.3419,0.02873,3.69915,3.18199,0.11742,-0.20122,-1.48259,-0.9,-28.1,-22.6,41.533253,-8.098948,134.077026,0.3869132181239095,0.198772,0.299896,0.849029
1.4645,21774.3619,0.06465,4.099,3.07904,-0.15319,-0.32767,-1.63348,-0.4,-28.1,-22.2,41.712048,-6.6289,132.228165,0.3965741746195784,0.19331799,0.30310801,0.844679
1.4849,21774.3819,-0.67279,4.34082,2.89947,-0.56003,-0.73939,-2.02626,0.3,-27.9,-22.2,41.638596,-5.263475,130.143143,0.4083499604975607,0.188567,0.30388001,0.83985102
1.5061,21774.402,-1.82204,4.00802,4.15646,-1.14341,-1.07293,-2.394,0.9,-28.0,-22.4,41.08757,-3.91593,127.43235,0.4251652974860008,0.18399,0.300291,0.83379102
1.5273,21774.422,-3.46452,3.50761,5.79654,-1.56796,-1.178,-2.60597,1.0,-27.9,-22.1,39.912628,-2.414684,124.202286,0.4460743200305074,0.177168,0.29230201,0.82715702
1.5503,21774.442,-6.00484,3.56747,7.64492,-1.80681,-1.33988,-2.78557,2.0,-27.6,-22.0,38.199005,-0.493582,120.636024,0.4691471988716545,0.165564,0.282258,0.82025599
1.5646,21774.462,-8.47094,3.08861,8.94022,-2.02061,-1.2122,-2.8326,3.1,-26.4,-22.6,35.965759,1.546211,116.911758,0.4940030938862629,0.150563,0.269804,0.81270999
1.5848,21774.4821,-10.71917,2.45892,8.92825,-2.51236,-0.39181,-2.58337,4.5,-24.5,-23.8,33.172359,3.931839,113.400368,0.5176819646421728,0.12915,0.25649801,0.80593699
1.6027,21774.5021,-14.11425,2.57145,11.32971,-3.09756,0.3339,-1.85705,5.7,-22.5,-24.6,29.590591,6.815775,110.680702,0.5363865565867587,0.097696,0.242364,0.802499
1.6243,21774.5221,-15.14618,2.46371,14.31058,-3.06152,0.70103,-0.48016,6.5,-20.4,-26.7,25.488775,9.582171,109.633751,0.5449738302474713,0.060082,0.226611,0.80501002
1.6426,21774.5421,-13.384,2.79412,15.5149,-2.49036,0.99607,1.04272,7.4,-18.6,-26.8,22.085442,10.582676,111.160896,0.5378476365692237,0.033141,0.20849501,0.816181
1.6619,21774.5622,-10.40073,4.16604,15.81179,-1.80253,1.44506,2.0928,7.7,-17.9,-27.3,19.770258,11.07992,114.273102,0.5181648732488913,0.012835,0.195135,0.83262402
1.6915,21774.5822,-7.35521,5.77978,15.53645,-1.33888,1.88977,2.69145,8.4,-17.0,-27.0,18.408873,11.863323,118.268135,0.48952533011026056,-0.00594,0.188903,0.85126102
1.7073,21774.6022,-4.82446,6.78298,15.16773,-1.08171,2.23552,2.99444,9.5,-17.1,-27.4,17.683435,13.023507,122.695862,0.45543903929834556,-0.025113,0.187745,0.869883
1.7274,21774.6223,-2.20752,7.75745,14.77507,-0.97542,2.41145,3.0262,9.3,-16.9,-27.5,17.339808,14.487961,127.296135,0.41827766387958093,-0.045323,0.189331,0.88721102
1.7452,21774.6424,-1.52276,8.41348,15.08154,-0.82942,2.47742,2.83317,9.6,-17.5,-26.8,17.192253,16.176142,131.789078,0.3806182187873828,-0.066545,0.19189399,0.902152
1.7712,21774.6624,-1.925,8.1118,15.08633,-0.46779,2.26484,2.6383,9.3,-18.2,-27.8,17.301992,17.950638,136.030502,0.3438109570023327,-0.087399,0.195509,0.91429299
1.7853,21774.6825,-1.80049,7.16128,14.49255,0.03679,1.84334,2.56378,9.5,-18.5,-25.8,17.891644,19.487764,139.964569,0.30854346843697567,-0.104624,0.20122799,0.92377597
1.8092,21774.7025,-1.56586,6.22033,14.40875,0.53708,1.54891,2.56439,9.3,-19.0,-26.5,19.066496,20.610092,143.543106,0.2753716735248561,-0.116594,0.20995601,0.930857
1.8455,21774.7226,-1.63768,5.34163,13.56117,1.09419,1.48049,2.70611,9.5,-18.9,-26.3,20.857731,21.453302,146.96373,0.24243601948951288,-0.124928,0.22255599,0.93599498
1.8524,21774.7427,-1.63768,4.08463,12.04081,1.58411,1.32044,2.91686,9.1,-18.2,-27.0,23.329836,22.137291,150.376678,0.20817890392227498,-0.131046,0.23989899,0.93911499
1.867,21774.7627,-1.66402,2.69116,9.55555,1.89198,1.15307,3.13555,9.3,-18.7,-26.1,26.400023,22.446455,153.999634,0.17152274106654175,-0.134247,0.26087001,0.94048101
1.8836,21774.7828,-1.90584,1.39586,8.15969,1.77225,1.14268,3.4868,9.1,-20.9,-24.4,29.512688,21.863234,157.917221,0.1344366663897907,-0.132092,0.280579,0.941145
1.9037,21774.8029,-1.22347,0.16281,7.36718,1.6232,1.2111,3.8918,7.8,-23.4,-23.0,32.345127,20.825588,162.303406,0.0955626723707489,-0.129383,0.29738501,0.94111103
1.9579,21774.8229,-0.36154,-0.69673,6.08864,1.54013,1.23614,4.15203,7.7,-25.5,-20.6,34.87487,19.318407,167.267838,0.05433020572719269,-0.126334,0.311344,0.94029403
1.9584,21774.8429,0.10774,-1.09418,4.8915,1.31411,1.31128,4.32368,5.5,-26.7,-20.7,37.009613,17.333939,172.613754,0.012673557032618073,-0.122393,0.32231301,0.93860197
1.9629,21774.863,0.89067,-1.48684,3.96492,0.86756,1.47805,4.40737,4.5,-28.3,-19.6,38.48444,14.968463,178.604004,0.03154423413684195,0.118987,-0.32822901,-0.93654299
1.9848,21774.883,2.61455,-1.91063,2.89947,0.31778,1.56906,4.45563,2.2,-30.0,-18.5,39.04343,12.300255,-174.966599,0.07692985256062645,0.115467,-0.32748699,-0.93461299
2.0037,21774.903,4.39349,-1.69275,3.36635,-0.34501,1.38336,4.2968,0.2,-31.2,-19.4,38.967098,9.387959,-168.223862,0.12354580950805226,0.110842,-0.32275,-0.931817
2.0245,21774.9231,6.63214,-0.68237,3.87154,-0.88257,1.55929,3.90096,-1.1,-30.6,-16.8,38.471649,6.539503,-161.741409,0.16811665491788697,0.105358,-0.31621,-0.92771101
2.0567,21774.9431,9.80455,1.35995,4.45096,-1.43112,2.11457,3.08912,-2.6,-31.0,-18.6,36.577057,3.458386,-155.467377,0.2108887079088392,0.094636,-0.300412,-0.92537701
2.0664,21774.9631,9.2443,2.31048,4.66405,-1.88255,2.65396,1.8002,-3.7,-31.2,-20.7,33.93359,1.260072,-150.32634,0.24801079797258815,0.084887,-0.279378,-0.923706
2.085,21774.9831,7.34803,2.07344,6.1461,-2.17882,2.41206,0.59924,-3.3,-30.9,-20.9,31.061556,0.628477,-147.257736,0.27297269609625685,0.080538,-0.25540701,-0.92399502
2.1183,21775.0032,5.39909,1.85317,7.91068,-2.06826,1.54524,-0.10082,-3.5,-29.8,-22.0,28.091717,0.508022,-145.984238,0.2847873997852063,0.075102,-0.23082399,-0.92734897
2.1315,21775.0232,5.25543,1.98485,9.30894,-1.71151,0.73035,-0.19367,-2.7,-29.7,-22.9,25.400707,0.062669,-145.72377,0.2875817826723382,0.065295,-0.209933,-0.932181
2.1437,21775.0432,6.56989,3.50282,11.07113,-1.32056,0.08772,-0.0605,-2.5,-29.0,-23.7,23.156729,-0.983147,-145.755585,0.28676509605626616,0.051056,-0.19428,-0.93670398
2.1654,21775.0633,6.97692,5.37036,10.88437,-0.80315,0.23677,-0.11242,-2.6,-29.4,-22.4,21.528393,-2.332802,-145.875717,0.28455350642415184,0.03567,-0.184378,-0.94008601
2.1859,21775.0833,6.61778,6.32328,9.9961,-0.56186,0.3681,-0.34822,-3.3,-29.3,-23.9,20.620583,-3.255704,-146.23494,0.2807424409955136,0.025212,-0.179313,-0.94254702
2.2047,21775.1033,6.49088,7.18043,9.90512,-0.64189,-0.03629,-0.60844,-2.6,-29.2,-23.0,20.086058,-3.977555,-146.909988,0.2744369199387715,0.016873,-0.176798,-0.94506198
2.234,21775.1233,6.4837,8.198,10.9993,-0.7439,-0.67464,-0.92854,-2.6,-28.8,-23.4,19.620031,-5.059235,-148.009796,0.26403457575120554,0.005097,-0.17561001,-0.94837803
2.2438,21775.1434,6.50524,8.66727,13.31456,-0.73107,-1.42295,-1.43128,-3.3,-28.8,-23.6,19.24671,-6.626625,-149.611557,0.24865002739561412,-0.01125,-0.175992,-0.95240402
2.2643,21775.1634,5.32247,8.12377,14.86845,-0.17457,-2.07841,-2.24923,-3.6,-29.0,-23.8,18.986809,-8.184525,-152.195053,0.22495355597100467,-0.028796,-0.176606,-0.957798
2.2943,21775.1834,3.90985,7.13494,14.82535,0.27197,-2.36796,-2.55161,-3.7,-29.0,-23.7,19.350353,-9.732061,-155.549744,0.1940584102360934,-0.046264,-0.181366,-0.96296799
2.3115,21775.2035,3.3472,6.39271,14.56916,0.59389,-2.3197,-2.58459,-3.7,-28.9,-23.7,20.293644,-11.443501,-159.034775,0.16093337729793622,-0.064608,-0.19022299,-0.96630299
2.329,21775.2235,2.77257,5.81809,13.80539,0.89749,-2.2183,-2.56749,-3.7,-29.0,-23.9,21.675514,-13.026501,-162.422562,0.12802269552700324,-0.081558,-0.201644,-0.96762502
2.3589,21775.2435,2.20513,5.68161,13.63061,1.19132,-2.11629,-2.58215,-3.8,-28.8,-24.4,23.445877,-14.459506,-165.682312,0.09569123546490062,-0.097144,-0.215349,-0.96697003
2.3794,21775.2635,1.80528,4.72869,12.56755,1.66413,-2.00938,-2.74159,-3.6,-28.5,-24.8,25.666561,-15.712445,-168.882874,0.06335554876504336,-0.111334,-0.231905,-0.96426702
2.3906,21775.2836,1.0032,3.54832,10.0368,1.97812,-1.94341,-2.945,-3.4,-28.3,-25.0,28.488806,-16.702435,-172.185913,0.029708174848004188,-0.12386,-0.25247601,-0.95918298
2.4074,21775.3036,0.21309,2.32245,8.49249,2.01965,-1.92142,-3.02503,-3.2,-28.2,-25.0,31.380133,-17.194849,-175.778671,0.0054270019126110985,0.133975,0.27251399,0.95276302
2.4274,21775.3236,-0.22746,1.68557,7.78139,2.05203,-2.12239,-3.05924,-3.0,-28.1,-24.9,34.131992,-17.375557,-179.626633,0.0412725040616589,0.143453,0.290575,0.94513702
2.4457,21775.3437,0.0407,1.30967,7.21874,2.16993,-2.34597,-3.09406,-2.7,-28.1,-24.7,36.793991,-17.483736,176.297668,0.07825247866310318,0.154217,0.30711201,0.93582898
2.4671,21775.3637,0.47885,0.66561,6.22511,2.24079,-2.42294,-3.32802,-2.3,-28.2,-24.4,39.437119,-17.491858,171.92952,0.11665378328429543,0.16624901,0.32257801,0.92449802
2.4866,21775.3837,0.03113,0.09817,5.03516,2.01965,-2.18531,-3.84175,0.2,-29.3,-21.6,42.004044,-16.993048,166.939514,0.15762154705864287,0.177352,0.336481,0.91130799
2.5059,21775.4038,-0.66561,-0.38308,3.96492,1.61709,-1.74977,-4.21072,1.3,-28.9,-20.6,44.157505,-15.192338,160.882568,0.20153185050879396,0.182666,0.34706801,0.89753097
2.5528,21775.4239,-1.23784,-0.70871,3.44057,1.10213,-1.24825,-4.5473,3.7,-28.7,-18.7,45.571548,-11.957558,153.819092,0.24697183712690746,0.180775,0.353421,0.88397902
2.5564,21775.4439,-2.41822,-1.19235,3.33522,0.68919,-0.88722,-4.82464,6.6,-27.6,-18.4,46.459538,-7.51349,145.859512,0.2938732845004453,0.173087,0.35856,0.86897302
2.5787,21775.464,-4.25463,-1.52515,2.7199,0.40392,-0.69908,-4.83075,9.8,-26.6,-18.0,47.457066,-2.498557,137.455353,0.34022908156837495,0.164557,0.36765701,0.849702
2.594,21775.484,-5.73908,-1.38629,2.29611,0.14063,-0.82492,-4.50332,10.3,-25.2,-18.8,47.835697,2.678423,128.988815,0.3849638169588663,0.155246,0.37501499,0.82889402
2.6058,21775.5041,-6.51482,-0.64885,2.28653,-0.10616,-1.167,-4.14047,12.3,-24.4,-15.2,47.492519,7.176408,121.126694,0.4270227487794999,0.147626,0.378167,0.80799001
2.6314,21775.5242,-9.35204,-0.17718,3.62733,-0.39876,-1.8414,-3.90712,14.3,-22.2,-19.5,45.811188,11.707984,113.437065,0.46965968901328914,0.133926,0.37523699,0.78783298
2.6509,21775.5442,-10.90592,-0.9625,4.30969,-0.63028,-2.16271,-3.37444,14.5,-20.5,-19.1,42.789017,16.138157,105.506042,0.5172050246896477,0.114565,0.36661199,0.76483297
2.6657,21775.5643,-11.11662,-0.84039,3.98886,-1.06949,-1.87377,-2.58276,15.1,-19.3,-20.2,39.534027,19.074997,99.399483,0.5575304208860893,0.096797,0.35521999,0.74404901
2.6849,21775.5844,-10.2882,-0.55547,4.00083,-1.80009,-1.23542,-1.80818,14.9,-17.8,-21.0,36.000397,21.143211,95.264626,0.5881364978901581,0.075794,0.34202299,0.72895199
2.7084,21775.6044,-10.20201,0.36393,5.92104,-2.69745,-0.75955,-1.40013,16.0,-16.1,-21.8,31.968246,22.686491,92.988335,0.6096011131742946,0.048728,0.32599601,0.72092903
2.7266,21775.6245,-11.88279,0.3783,9.00487,-3.28082,-0.46023,-1.16433,16.2,-15.3,-23.2,27.330723,23.968128,92.130936,0.624174878160792,0.015051,0.30641401,0.71853298
2.7482,21775.6445,-13.03683,0.26337,11.29619,-3.26922,-0.66976,-0.51926,16.7,-13.5,-23.0,22.536589,24.77124,92.407318,0.6327058602460853,-0.019745,0.28334701,0.72042203
2.771,21775.6646,-12.66571,1.40305,13.19724,-2.95523,-1.00023,0.45813,16.4,-12.4,-24.4,18.372082,24.77248,93.873253,0.6333426806043784,-0.048238,0.25850299,0.72782302
2.7857,21775.6847,-11.1669,2.34639,14.64817,-2.60276,-0.93548,1.44651,16.0,-11.2,-25.3,15.580909,23.248871,96.687347,0.6246131157844663,-0.06091,0.23188899,0.74321997
2.8076,21775.7047,-8.5332,3.36396,15.77827,-2.25152,-0.55919,2.17466,15.4,-10.9,-28.1,13.627819,21.512476,100.276451,0.6082322788104064,-0.067537,0.20824499,0.762972
2.8347,21775.7248,-6.06949,5.11417,15.61307,-1.94486,0.19706,2.37136,14.2,-11.7,-26.0,12.236447,20.327789,104.231247,0.5861467105517176,-0.074061,0.190543,0.78399003
2.8489,21775.7449,-6.10061,5.7726,14.77986,-1.87217,1.18483,2.18993,14.8,-11.1,-26.5,11.101662,20.103836,108.265419,0.5605294863407987,-0.084976,0.178969,0.80408698
2.8688,21775.7649,-7.50366,5.65288,14.79183,-1.85629,1.39375,2.15755,14.8,-10.9,-27.8,9.942588,21.01252,111.967194,0.5348852289884624,-0.102906,0.17224801,0.820755
2.8906,21775.785,-7.76463,5.68161,15.86446,-1.50931,1.10481,2.54118,15.1,-11.2,-26.5,8.968597,22.015059,115.768677,0.5076082329184581,-0.120424,0.166201,0.83678502
2.9218,21775.805,-5.65767,5.64809,16.31698,-0.70297,0.95942,2.90709,15.6,-11.6,-26.2,8.715395,22.686031,119.791206,0.4774306400712462,-0.132294,0.162816,0.85325801
2.9381,21775.8251,-3.00481,6.25385,15.60349,0.16507,1.08404,2.84844,15.3,-12.2,-25.6,9.528408,23.292364,123.669319,0.44592269658540606,-0.138953,0.166669,0.86837
2.9547,21775.8451,-2.30569,5.88034,14.62423,0.77105,1.22393,2.3848,15.0,-12.4,-25.4,11.131692,24.085625,126.95211,0.416579339650947,-0.143443,0.177606,0.87996697
2.9658,21775.8651,-3.69676,4.86277,13.40315,1.2463,1.34732,2.10441,15.4,-12.3,-25.6,13.156078,25.113535,129.403946,0.39184359232533,-0.14748099,0.193385,0.88730502
2.9915,21775.8852,-4.16843,3.75422,11.47097,1.5389,1.40291,2.20092,15.4,-11.7,-26.0,15.588807,26.284485,131.304611,0.3696735111251002,-0.150786,0.213193,0.89171398
3.013,21775.9052,-3.93858,2.70314,9.76146,1.56517,1.36626,2.36342,15.3,-11.9,-26.2,18.344913,27.437307,132.961868,0.3480510414658164,-0.152876,0.235422,0.89446402
3.0342,21775.9252,-4.27139,1.76937,8.50207,1.46926,1.20255,2.59677,15.2,-12.6,-25.6,21.120287,28.133444,134.409592,0.3283931422785192,-0.151398,0.25646001,0.89636201
3.0492,21775.9452,-4.1397,0.88588,7.32169,1.41551,0.81953,3.02498,15.4,-15.4,-24.6,23.768368,28.287294,136.246994,0.30687158801404174,-0.14749099,0.27440801,0.89932001
3.0684,21775.9653,-2.95932,0.56026,6.0623,1.42467,0.49028,3.38845,14.3,-18.2,-22.7,26.418671,27.761827,138.906906,0.28037368775378996,-0.140843,0.28969601,0.90422899
3.0899,21775.9853,-2.11654,0.39027,5.67204,1.35259,0.13781,3.55216,13.1,-20.2,-21.8,29.002445,26.600672,142.25679,0.2502387061253307,-0.131935,0.30262601,0.91016001
3.1062,21776.0053,-1.48206,-0.04549,5.49965,1.34037,0.00281,3.62424,12.3,-22.9,-19.9,31.342525,24.786263,145.996704,0.21953479065191348,-0.120468,0.31271499,0.91624302
3.1319,21776.0253,-1.59219,-0.53871,4.50603,1.38497,0.34489,3.77451,10.5,-24.5,-19.5,33.4468,22.711306,149.993271,0.1883501015927521,-0.109109,0.321318,0.921615
3.1482,21776.0452,-1.57543,-0.79729,3.08383,1.20537,0.82198,4.02497,9.2,-26.2,-18.6,35.333763,20.793394,154.466064,0.15369766764821083,-0.101736,0.329119,0.92612499
3.1732,21776.0652,-0.79011,-1.19474,2.48286,0.65009,1.10969,4.2687,6.4,-28.2,-19.8,36.860386,19.003399,159.583923,0.11446792053566565,-0.098871,0.334631,0.93013102
3.1933,21776.0852,0.57463,-1.39826,2.4685,-0.04874,1.25752,4.44036,5.3,-29.6,-18.3,38.680801,16.82073,165.617188,0.06880914051781109,-0.09591,0.342318,0.93213999
3.2073,21776.1052,2.5092,-0.97208,2.78933,-0.761,1.44995,4.50267,2.8,-30.6,-20.4,39.803177,14.216771,172.27536,0.020854056933358383,-0.093339,0.34485999,0.93376899
3.2287,21776.1252,5.37036,0.04789,3.5962,-1.73656,2.03699,4.18868,1.9,-30.4,-17.9,39.878483,11.60061,179.30835,0.028842084143132687,0.092954,-0.339845,-0.93543202
3.2491,21776.1452,6.08864,0.49322,4.23308,-2.42195,2.62281,3.59064,-0.3,-30.9,-19.5,38.585995,10.048431,-174.154572,0.07684365905498683,0.099333,-0.324487,-0.93751597
3.2662,21776.1652,5.23388,1.42938,6.25863,-2.97783,2.45787,3.0543,-0.6,-30.7,-19.8,36.306278,9.625299,-168.466202,0.12115954807013739,0.110514,-0.30087799,-0.939457
3.3004,21776.1852,7.82688,3.1796,9.08148,-3.20752,1.41696,2.51063,-1.7,-29.6,-22.0,32.702736,7.631719,-162.744583,0.16215656111579316,0.105275,-0.26814499,-0.94378
3.3397,21776.2052,10.52763,4.33603,11.51886,-2.95035,1.4078,1.60289,-3.1,-29.4,-23.4,28.870415,5.252178,-158.184494,0.19428048572597237,0.090692,-0.236128,-0.94777298
3.3448,21776.2252,9.54119,4.49884,12.81176,-2.39263,1.6271,0.46118,-2.9,-28.5,-26.1,25.469187,4.102326,-155.467484,0.2148103681323592,0.080917,-0.207848,-0.95084602
3.3498,21776.2452,8.08547,4.18519,12.5029,-1.57773,1.24225,-0.2688,-2.7,-28.1,-26.1,22.800568,3.849063,-154.384827,0.22365586492028314,0.075894,-0.18533801,-0.95387
3.3736,21776.2652,7.02959,3.69676,10.76466,-0.87035,0.88551,-0.66464,-2.5,-27.7,-27.1,21.104908,3.608259,-154.3349,0.223862505831324,0.070832,-0.171599,-0.95677698
3.3895,21776.2852,6.79256,4.07266,9.75906,-0.71519,0.48478,-0.8644,-1.5,-26.9,-27.0,20.089239,3.184805,-154.842514,0.21909524983486023,0.064676,-0.164204,-0.95960999
3.4091,21776.3052,6.73988,4.41265,10.30975,-0.81171,0.00464,-1.13806,-1.4,-26.8,-27.2,19.203054,2.420876,-155.698456,0.21093818289916075,0.055462,-0.158638,-0.96294498
3.4323,21776.3252,6.39511,4.49884,11.55956,-0.73901,-0.70946,-1.59316,-1.5,-26.5,-25.5,18.308311,1.254552,-157.031448,0.19826067043884366,0.042265,-0.153745,-0.96709299
3.4454,21776.3452,5.99287,4.52518,11.89955,-0.62906,-1.45533,-2.12156,-1.8,-25.8,-27.1,17.596207,-0.486794,-159.020798,0.17927758157845403,0.023718,-0.15116,-0.97182697
3.4669,21776.3652,4.94178,4.42941,12.97218,-0.73229,-1.73694,-2.43554,-1.8,-26.4,-27.0,17.037941,-2.635718,-161.682144,0.15401332890097544,0.001118,-0.14983,-0.97664201
3.4893,21776.3852,4.0583,4.57306,15.31139,-0.7494,-1.75526,-2.48991,-1.4,-25.1,-29.1,16.437487,-4.642031,-164.766922,0.1253428919644031,-0.020797,-0.146888,-0.980959
3.5047,21776.4052,3.28734,4.74545,16.59711,-0.3615,-1.85789,-2.54061,-1.7,-25.0,-28.6,15.95678,-6.009283,-168.106689,0.09523261806439823,-0.03727,-0.143241,-0.98439002
3.5405,21776.4252,2.67919,4.767,16.87245,0.22982,-2.10957,-2.64812,-1.9,-25.2,-28.4,16.055567,-7.364945,-171.480347,0.06446209882961491,-0.05307,-0.143704,-0.98609197
3.5535,21776.4452,1.78613,4.6401,16.25473,0.67881,-2.23357,-2.78435,-1.6,-25.0,-28.8,16.894995,-8.962031,-174.892548,0.03248307526943782,-0.070679,-0.14975201,-0.985659
3.5698,21776.4651,1.1301,4.05111,15.79982,0.94514,-2.08208,-2.82527,-2.1,-25.3,-27.9,18.288546,-10.523911,-178.352158,0.0011701433756735279,0.088259,0.159537,0.98323798
3.5906,21776.4851,0.74701,3.63451,14.88042,1.26401,-2.1004,-2.72509,-2.2,-25.5,-28.3,20.055727,-11.879903,178.28952,0.032666506162426036,0.104479,0.171652,0.97905701
3.6085,21776.5051,0.93856,3.23467,13.13978,1.72644,-2.16821,-2.60903,-2.0,-25.1,-28.5,22.247612,-13.283051,175.154907,0.063499286584496,0.121483,0.186667,0.97281301
3.6333,21776.5251,1.10137,2.86834,11.64575,2.04348,-2.2635,-2.6243,-1.7,-24.9,-28.5,24.979723,-14.746181,172.184158,0.09368572584113259,0.13961899,0.205441,0.964118
3.6473,21776.5451,1.10137,2.31526,9.95539,2.29882,-2.4486,-2.77518,-1.5,-24.7,-28.5,27.89712,-16.067616,169.080521,0.12497465811715505,0.157731,0.22469699,0.95342201
3.6874,21776.5651,0.97686,1.35995,8.07828,2.44787,-2.57199,-2.97433,-1.3,-24.6,-28.3,30.772703,-17.132362,165.595749,0.1587420611621254,0.175373,0.242292,0.940925
3.692,21776.5851,0.65603,0.58181,6.61299,2.39228,-2.64163,-3.26326,-1.2,-24.6,-28.1,33.726353,-18.004837,161.68837,0.19522058279853463,0.19343001,0.259036,0.92594498
3.7095,21776.6051,-0.1676,0.00958,5.44458,2.11923,-2.49075,-3.51372,-1.0,-24.7,-27.7,36.519417,-18.421806,157.130524,0.23500190587341827,0.210308,0.27300999,0.90885103
3.7308,21776.6251,-0.7925,-0.28731,5.16206,1.8144,-2.12056,-3.59863,-0.3,-25.1,-26.4,38.893608,-18.046131,151.910538,0.2766583529032494,0.22326,0.28309399,0.89077097
3.7459,21776.6451,-1.01757,-0.32802,4.2666,1.67207,-1.56651,-3.61512,0.9,-26.2,-23.8,40.791939,-16.698729,146.355408,0.316828930183876,0.23007099,0.29066801,0.87304002
3.7683,21776.6651,-1.61853,-0.64167,2.91862,1.48454,-1.08759,-3.67499,1.9,-26.4,-23.6,42.297924,-14.280777,140.622391,0.35400897628432954,0.229764,0.29800901,0.85619903
3.7907,21776.6851,-2.38949,-0.94813,1.20432,1.07831,-0.75772,-3.71103,3.0,-26.5,-21.6,43.759201,-11.210898,134.633408,0.3897336782516744,0.22665399,0.30723399,0.83805901
3.814,21776.7051,-2.93778,-0.84997,0.55308,0.42591,-0.32462,-3.62306,4.9,-26.1,-22.0,45.51527,-7.993391,128.818329,0.4216635953478542,0.22465099,0.32027599,0.81801897
3.83,21776.7251,-3.10537,-0.67758,0.00239,-0.29247,-0.13525,-3.55098,5.8,-25.6,-21.6,46.233971,-4.091344,122.691322,0.45303901838974064,0.21695501,0.328565,0.79983199
3.8519,21776.7451,-3.62733,-0.46688,0.82124,-1.02368,-0.21649,-3.53938,6.9,-25.2,-23.0,45.839367,-0.015856,116.646408,0.48371549940761643,0.204614,0.331357,0.78380799
3.8664,21776.7651,-4.00802,-0.56265,2.3416,-1.59667,-0.29896,-3.55098,9.2,-23.6,-21.9,44.339977,3.738008,110.765923,0.515680565734738,0.189401,0.32754499,0.76871002
3.8922,21776.7851,-4.71672,-1.23066,2.87552,-1.93325,-0.38693,-3.55648,10.5,-21.8,-20.8,42.037067,7.021628,105.326256,0.5476207924037577,0.17167599,0.319307,0.75410998
3.9116,21776.8051,-6.31849,-1.57783,4.62574,-2.28511,-0.73451,-3.45874,11.8,-20.0,-23.0,39.15163,9.652131,100.488823,0.5787424027938163,0.15257201,0.307363,0.739802
3.9685,21776.8251,-8.01603,-2.14288,6.42144,-2.50319,-1.38936,-3.22111,12.7,-18.3,-24.0,35.132904,12.180232,95.677322,0.6125731904028283,0.12646399,0.29034901,0.724195
3.974,21776.8451,-9.87638,-2.45174,8.06392,-2.64797,-1.9709,-2.76052,13.0,-15.7,-23.8,30.039486,14.219207,91.415108,0.6463194481751261,0.094015,0.26754799,0.70841402
3.9744,21776.8651,-11.02803,-2.59779,9.78301,-2.75914,-2.09552,-1.75443,12.4,-13.7,-27.1,25.036972,14.690344,88.689171,0.6730486657553669,0.066503,0.239518,0.69657302
3.9893,21776.8851,-10.95381,-2.44455,11.21718,-2.90025,-1.79253,-0.89005,12.0,-12.3,-27.8,20.331112,14.350588,87.496071,0.6902351919466718,0.041483,0.20990101,0.69122797
4.0066,21776.9051,-9.96976,-2.08062,12.41432,-3.04075,-1.13829,-0.06477,11.0,-10.5,-28.8,15.872969,13.920691,87.660873,0.6976295881067546,0.015754,0.181499,0.692909
4.0314,21776.9252,-8.98811,-0.78532,13.87243,-3.16293,-0.60439,0.53265,11.9,-8.6,-29.3,11.643516,13.850309,89.023026,0.6956819089085183,-0.012286,0.15613,0.70107001
4.0486,21776.9452,-8.96177,1.70712,15.96742,-3.11284,-0.37593,0.97003,11.6,-7.1,-28.5,7.884832,13.671779,91.251266,0.6868795257850386,-0.037136,0.13183799,0.71374798
4.0685,21776.9652,-7.43901,3.7231,17.36328,-2.84344,-0.15113,1.35121,11.7,-5.9,-28.3,4.770803,13.078813,93.953835,0.6738010531306105,-0.054975,0.107867,0.72892702
4.0903,21776.9853,-6.29215,6.17962,18.63464,-2.63575,0.24837,1.55402,11.1,-4.9,-29.0,2.017303,12.877121,96.917976,0.6573937689597309,-0.07232,0.087446,0.74495399
4.109,21777.0053,-6.0623,9.04557,20.44232,-2.35964,0.7053,1.75316,10.9,-4.6,-29.9,-0.442896,13.270407,100.154831,0.6377913797891439,-0.091078,0.071208,0.76148301
4.1306,21777.0253,-4.88671,10.83409,22.84138,-1.7671,1.04433,1.92848,10.7,-3.7,-29.4,-2.448072,14.2532,103.607132,0.615525329198904,-0.110585,0.060039,0.77800697
4.1514,21777.0453,-3.62493,10.6641,23.53333,-0.71702,1.34366,1.79287,11.8,-3.2,-30.2,-3.570899,15.673351,107.068726,0.5919205406361566,-0.127946,0.056176,0.793791
4.1693,21777.0654,-4.0583,9.04557,22.23563,0.48883,1.46094,1.57906,13.2,-4.0,-27.6,-3.466435,17.391096,110.066505,0.5700016990610817,-0.140971,0.062103,0.80707401
4.1893,21777.0854,-5.33923,6.30413,20.16937,1.64153,1.33571,1.55402,14.1,-5.3,-28.2,-2.054668,19.116325,112.238716,0.5521092407724758,-0.147688,0.077873,0.81688398
4.216,21777.1054,-6.45257,3.35198,17.50694,2.67695,1.04861,1.70796,13.8,-6.5,-28.5,0.619963,20.58107,113.846329,0.5361669294962523,-0.146782,0.101954,0.82497603
4.2542,21777.1255,-6.61299,1.0463,14.83253,3.5065,0.78716,2.01339,13.6,-6.9,-27.5,4.455269,21.667915,115.313293,0.5188866393814742,-0.138258,0.132737,0.83307999
4.2605,21777.1455,-6.1078,-0.61054,11.79659,3.94693,0.69797,2.31882,13.1,-7.5,-28.2,9.22937,22.456732,116.546646,0.5008053976230284,-0.123587,0.16918699,0.83981901
4.2737,21777.1655,-5.34163,-1.4653,8.91149,3.917,0.77005,2.48314,13.0,-9.0,-28.1,14.475198,23.106922,117.183441,0.48497132360520007,-0.10525,0.20888799,0.84266901
4.2871,21777.1855,-4.9346,-1.56346,6.94579,3.23222,1.1323,2.41351,13.7,-11.7,-25.7,19.630056,23.78476,116.887444,0.47467384179842875,-0.085734,0.24841,0.84001601
4.31,21777.2056,-5.43022,-1.59698,6.24666,2.46436,1.4982,2.40312,14.1,-13.7,-25.3,23.18243,24.779032,117.692955,0.4580877487117504,-0.078344,0.27667999,0.84110999
4.3467,21777.2256,-5.50204,-1.6305,6.30891,1.93963,1.58983,2.61265,14.0,-16.2,-23.4,25.783642,26.008219,119.024475,0.438618868237015,-0.078728,0.29861999,0.84394401
4.3542,21777.2456,-5.04713,-1.48684,6.24906,1.70689,1.45178,2.91869,14.0,-18.4,-22.8,27.887432,27.068176,121.322411,0.41317146080461553,-0.083207,0.31551501,0.85018599
4.3681,21777.2656,-4.27139,-1.12531,5.86597,1.64214,1.39863,3.21374,13.2,-20.7,-19.7,29.841864,27.753353,124.240349,0.3840793475800538,-0.087957,0.329326,0.85807401
4.3919,21777.2857,-2.77975,-0.66082,4.80052,1.49798,1.4078,3.39333,12.4,-22.4,-19.2,31.780304,28.146921,127.577782,0.3523212129914686,-0.092526,0.34156501,0.86639601
4.4078,21777.3057,-1.69994,-0.22506,4.39349,1.0832,1.55135,3.35363,10.9,-24.9,-17.8,33.499569,28.286713,131.348557,0.3183236923039497,-0.098094,0.35102901,0.87511498
4.4308,21777.3257,-1.13967,-0.01676,4.83165,0.64765,1.86045,3.31698,10.9,-25.7,-17.7,34.712486,28.302902,135.546799,0.28257948149325895,-0.106597,0.35603699,0.88432097
4.453,21777.3458,-0.49801,0.04549,4.87714,0.39781,2.25995,3.38478,9.2,-27.6,-16.8,35.531055,28.27915,140.065323,0.24529430309479122,-0.117614,0.35753399,0.89340198
4.4676,21777.3658,-0.0431,0.05746,3.98647,0.17973,2.81095,3.47091,8.0,-28.5,-17.0,36.289902,28.313799,144.952057,0.20481313818864133,-0.130707,0.357932,0.90158302
4.4899,21777.3858,0.8356,-0.07422,2.99284,-0.3334,3.25261,3.52406,7.5,-28.9,-15.2,37.708858,28.850359,150.095016,0.15870103344716932,-0.14701299,0.36320701,0.90624601
4.5178,21777.4058,1.95373,-0.16999,3.12692,-1.08721,3.36806,3.64868,5.6,-29.3,-15.5,39.184296,29.584824,155.613953,0.10870504350580859,-0.16663501,0.36769801,0.90841299
4.5352,21777.4259,3.67521,-0.10056,5.13811,-1.74694,3.11883,3.76474,5.1,-30.0,-14.3,40.006905,29.740871,161.945404,0.05580448129155838,-0.186289,0.36436301,0.91072601
4.5526,21777.4459,5.12135,0.70152,6.54355,-2.00473,3.24589,3.63829,3.8,-30.5,-16.2,40.300682,29.297724,168.713974,0.002934465784403718,-0.203493,0.35501701,0.91243899
4.5703,21777.4659,5.47331,1.42699,6.1078,-2.15805,3.14388,3.35179,2.8,-31.0,-16.4,39.669064,27.43117,176.400406,0.051718120479768925,0.21257401,-0.336472,-0.91592801
4.5862,21777.4859,5.84682,1.73824,6.52919,-2.49342,2.54278,3.14532,2.0,-31.1,-15.9,38.308449,24.325651,-175.639832,0.10421685688102134,0.21108399,-0.31294399,-0.92013502
4.6086,21777.5059,7.06311,2.07344,8.47573,-2.64491,1.59228,2.96512,0.7,-31.2,-20.3,36.417553,20.797247,-168.20282,0.1521279142987883,0.202135,-0.28810099,-0.92357802
4.6329,21777.5259,9.23951,2.78215,10.09666,-2.34681,0.54525,2.65907,0.0,-30.4,-20.4,34.192978,16.76383,-161.594864,0.19352926317469124,0.184049,-0.26481599,-0.92657697
4.6465,21777.5459,10.22834,3.82845,10.23074,-1.92043,0.09138,2.24613,-1.2,-30.0,-19.8,32.054554,12.469664,-156.163483,0.22665598540572363,0.158813,-0.246989,-0.92865598
4.666,21777.5659,9.72794,4.43659,10.65452,-1.66325,0.00036,1.45995,-2.3,-30.0,-22.0,30.080784,8.650359,-152.074051,0.25136033404119246,0.133119,-0.233541,-0.92981499
4.689,21777.5859,8.66488,4.56109,10.19243,-1.45373,-0.36677,0.88818,-3.3,-29.4,-22.2,28.193169,5.520564,-149.340393,0.2674304393399134,0.109361,-0.222271,-0.93119103
4.7066,21777.6059,8.28658,4.6425,9.97934,-1.47388,-1.13401,0.3274,-3.5,-28.7,-23.3,26.437326,2.467844,-147.694305,0.2754987352698366,0.083737,-0.21375801,-0.93348598
4.7332,21777.6259,8.47094,5.45895,11.73434,-1.56674,-1.69051,-0.25231,-4.4,-28.6,-22.2,24.604017,-0.850111,-147.086166,0.27526842791355505,0.053407,-0.206384,-0.937433
4.7513,21777.6459,8.4063,6.01921,13.46301,-1.42501,-1.93364,-0.86318,-6.3,-28.4,-24.4,22.811577,-3.900051,-147.593628,0.266914810237722,0.02312,-0.199099,-0.94264603
4.7772,21777.6659,7.9897,6.73749,14.23875,-1.16845,-1.94708,-1.43983,-5.8,-27.6,-24.5,21.352886,-5.770749,-149.310471,0.25072473943641826,0.00126,-0.191522,-0.94892299
4.7953,21777.6858,7.54915,6.86439,14.82774,-0.97359,-1.79253,-2.01466,-5.9,-27.4,-24.8,20.286589,-7.221424,-151.781967,0.22872925734737054,-0.017278,-0.185571,-0.95548302
4.8085,21777.7058,6.61059,6.33046,14.68648,-0.79094,-1.43395,-2.49174,-6.7,-27.3,-25.7,19.571148,-8.264415,-154.868942,0.20188452464852064,-0.032429,-0.18090799,-0.96201003
4.8309,21777.7258,5.27938,6.02639,14.7631,-0.57041,-1.06315,-2.80145,-6.3,-27.3,-25.7,19.164639,-8.704985,-158.375046,0.17203675842284372,-0.042367,-0.177076,-0.96811801
4.8475,21777.7458,3.95774,5.53077,14.60747,-0.12204,-1.10591,-2.98043,-6.0,-26.8,-24.6,19.124954,-8.756736,-162.124466,0.14023341159345623,-0.048634,-0.17532299,-0.97325802
4.8759,21777.7658,3.14368,5.1022,13.8437,0.47172,-1.43517,-3.05862,-4.9,-26.9,-25.9,19.678499,-8.915679,-165.924896,0.10717960945580823,-0.055132,-0.17846701,-0.97653598
4.8938,21777.7858,2.57145,4.62334,12.77106,1.06426,-1.78581,-3.09467,-4.6,-27.4,-24.7,20.941151,-9.424188,-169.647293,0.07356138356529068,-0.064111,-0.187666,-0.97737402
4.9095,21777.8058,2.50441,3.91464,11.04958,1.52302,-2.05642,-3.20218,-5.1,-27.5,-24.4,22.90003,-10.242083,-173.292419,0.03943740877643966,-0.075767,-0.2025,-0.97555
4.937,21777.8258,2.26738,3.70155,9.7447,1.6623,-2.14561,-3.45019,-5.6,-27.4,-24.8,25.305223,-11.21965,-176.942932,0.004624215176653658,-0.089531,-0.220457,-0.971268
4.9499,21777.8458,2.15485,3.29213,9.29218,1.73133,-1.9764,-3.76906,-5.6,-27.3,-25.0,27.7626,-12.010649,179.154572,0.03224459822667589,0.103323,0.237839,0.96525502
4.9713,21777.8658,1.44375,2.11175,8.39912,1.93413,-1.66669,-4.17223,-5.4,-27.2,-25.1,30.285738,-12.135519,174.82872,0.0708947008739002,0.113649,0.25489599,0.95764601
4.9906,21777.8858,0.44055,0.90982,6.66327,2.11128,-1.38508,-4.51859,-5.1,-27.1,-24.9,32.955589,-11.394805,169.996323,0.111252421540297,0.119443,0.27286801,0.94810301
5.0311,21777.9058,0.2083,0.49083,5.75105,2.08074,-1.03933,-4.73667,-1.8,-27.5,-22.4,35.557056,-9.730736,164.624741,0.15259238661938246,0.120737,0.29069999,0.93681997
5.034,21777.9258,0.2083,0.00958,5.40388,1.85777,-0.70519,-5.13251,1.4,-27.1,-22.1,37.743187,-7.103132,158.445084,0.19629010252093582,0.11795,0.30617201,0.92402202
5.0515,21777.9458,-0.65364,-1.18277,3.85478,1.57678,-0.43885,-5.58211,3.9,-27.4,-20.8,39.23328,-3.394544,151.134735,0.24430375389854123,0.110659,0.31803399,0.90935397
5.0783,21777.9658,-2.20992,-1.86514,3.3448,1.16505,-0.04423,-5.80263,7.4,-26.5,-18.3,39.69669,1.332027,142.971909,0.2949132978042866,0.097439,0.32541001,0.893107
5.0865,21777.9858,-3.56508,-2.32963,2.83482,0.91521,0.24043,-5.82462,10.0,-25.3,-18.3,39.50423,6.889428,134.323273,0.34592408949036735,0.078816,0.33284399,0.87369299
5.112,21778.0058,-6.20117,-2.3823,2.44216,0.77043,0.25815,-5.58211,12.7,-23.6,-18.8,39.25071,12.700539,125.697205,0.3941417065775696,0.05963,0.34456599,0.84992403
5.1332,21778.0258,-8.54517,-1.88669,2.04232,0.68186,0.07794,-4.89122,15.5,-21.2,-16.9,38.195091,18.109142,117.632126,0.4391433395625395,0.040071,0.35341799,0.82501101
5.1523,21778.0458,-10.2475,-0.95532,1.37192,0.44301,-0.24765,-3.94133,15.7,-20.1,-17.6,35.545269,23.434315,110.315514,0.4818403631107705,0.012036,0.355786,0.80068803
5.173,21778.0658,-10.31214,-0.01915,1.16601,-0.07317,-0.7174,-3.10444,17.8,-17.5,-17.5,32.550243,27.716433,104.560287,0.5170926397790436,-0.015405,0.35589501,0.77827799
5.1916,21778.0858,-8.82051,-0.15084,1.755,-0.65288,-1.22137,-2.50274,19.0,-15.7,-17.7,29.473396,30.505222,100.30603,0.5464562916858763,-0.038086,0.351439,0.75922698
5.2134,21778.1057,-7.79815,-0.4166,3.98647,-0.9577,-1.64836,-2.05375,19.0,-14.8,-19.4,26.265717,31.968693,97.47876,0.5703726898096012,-0.057542,0.34105,0.74501598
5.2369,21778.1257,-8.66488,-0.42139,5.73908,-1.14585,-2.30077,-1.83506,19.5,-12.9,-18.2,23.107456,32.191021,95.59919,0.5911825945353258,-0.071954,0.325012,0.73463798
5.252,21778.1457,-10.46298,-0.85954,5.6888,-1.29062,-1.85606,-1.5901,19.7,-12.0,-21.1,20.020201,31.517193,94.321762,0.6098089615054038,-0.082366,0.30451801,0.72706097
5.2767,21778.1657,-12.31136,-0.99841,5.38472,-1.80681,-1.032,-0.92548,18.2,-11.4,-23.3,17.003189,31.300346,93.750496,0.6219054144223856,-0.097415,0.286282,0.72234797
5.2919,21778.1857,-12.77346,-0.56505,7.16606,-2.52885,-0.61539,-0.04034,18.3,-11.0,-20.5,13.959735,31.535215,94.669991,0.6230943827562715,-0.119078,0.26878899,0.72479397
5.3076,21778.2057,-13.08711,-0.3759,9.33049,-2.98516,-0.55308,0.59068,18.9,-10.4,-21.0,10.867975,31.785683,96.956192,0.6152863963882834,-0.14372601,0.248905,0.734038
5.3308,21778.2257,-13.95623,0.22506,10.4965,-3.00288,-0.42846,1.13313,19.3,-9.4,-22.9,7.934373,31.940527,100.090378,0.6013269975001287,-0.167688,0.227253,0.74742401
5.3494,21778.2457,-12.24911,2.15485,12.44783,-2.92102,-0.49383,1.92909,18.2,-8.5,-24.2,5.702292,31.494614,104.00705,0.5811362704052975,-0.184136,0.204595,0.76584297
5.3681,21778.2657,-9.15331,4.31688,14.8469,-2.68889,-0.29774,2.40373,17.8,-9.0,-23.6,4.138274,30.629528,108.678368,0.554169116755887,-0.194153,0.182172,0.788679
5.3923,21778.2858,-6.91945,5.88513,15.59391,-2.3798,0.37482,2.28278,18.0,-8.9,-23.3,2.944738,30.224421,113.438057,0.5239931662347896,-0.204267,0.163754,0.81048799
5.4094,21778.3058,-7.52042,7.779,15.47899,-2.1831,0.8232,2.16488,17.6,-8.7,-25.3,1.942164,30.665924,117.812851,0.4941462340866315,-0.217963,0.150537,0.82804
5.4277,21778.3258,-6.7758,9.41429,17.07118,-1.8685,0.93743,2.32188,17.5,-8.7,-25.0,1.158623,31.562218,122.110176,0.463296898048475,-0.23327,0.140129,0.84338897
5.4469,21778.3459,-4.49166,9.93863,18.30663,-1.08293,1.05716,2.23391,18.1,-8.6,-24.3,0.922098,32.601841,126.272293,0.43167934729013735,-0.246894,0.133718,0.85721397
5.4791,21778.3659,-3.88591,9.08148,17.21962,0.00991,1.16589,1.90343,18.0,-9.5,-23.9,1.488633,33.800579,129.574203,0.4041354416876096,-0.25769499,0.13507099,0.86719298
5.4934,21778.3859,-5.44219,7.62577,15.28745,0.98302,1.03578,1.73239,18.3,-9.3,-23.9,2.93764,35.074821,131.916351,0.3812870317443797,-0.26514,0.145043,0.87366098
5.5083,21778.4059,-6.95537,5.34163,13.25231,1.72461,0.49822,1.89427,18.3,-8.9,-23.7,5.202682,36.068592,133.542984,0.36172494656788573,-0.26717699,0.161633,0.878434
5.5391,21778.426,-7.24986,3.35198,10.65213,2.3428,-0.08394,2.35242,18.2,-9.0,-24.0,8.302271,36.391251,134.87915,0.34264393028326035,-0.26122701,0.18299299,0.88366801
5.5492,21778.446,-6.16047,2.88271,9.39753,2.70077,-0.26842,2.71527,18.0,-9.2,-24.2,12.239732,36.086834,136.208328,0.32192210819522726,-0.24795499,0.208903,0.88951898
5.5686,21778.466,-4.34082,2.56427,8.87797,2.75208,0.11337,2.55584,17.5,-11.0,-23.9,16.599211,35.659946,137.187134,0.3026648426531557,-0.231931,0.23852099,0.89314598
5.5894,21778.4861,-3.66324,1.89866,7.36718,2.54011,0.8122,2.18382,16.7,-13.9,-22.7,20.732525,35.551739,138.361588,0.28158107637765656,-0.21980201,0.26689801,0.895078
5.6068,21778.5061,-4.23547,1.65205,6.09582,2.03798,1.29356,1.94375,16.6,-16.0,-21.1,24.173828,36.135166,139.517365,0.26069601777261536,-0.215662,0.29169801,0.89467299
5.6291,21778.5261,-5.34642,1.57783,5.27698,1.46438,1.44262,1.92054,15.9,-18.6,-20.3,26.838007,37.103802,140.686722,0.24066472833811656,-0.217435,0.31129301,0.89325202
5.6518,21778.5461,-5.33923,1.31446,5.21234,1.01539,1.1604,2.15755,15.6,-20.3,-19.7,28.911478,38.013809,142.521149,0.21714380936549768,-0.222828,0.324828,0.89313102
5.6673,21778.5662,-4.33843,1.17319,5.55472,0.88772,0.52021,2.46482,14.8,-21.7,-18.4,30.708927,38.266598,144.733932,0.19326164937079424,-0.225439,0.33415201,0.89452201
5.6926,21778.5862,-3.17002,1.24263,4.96573,1.18033,0.37666,2.62364,13.7,-22.9,-16.3,32.569294,37.684101,147.25386,0.16919596730448286,-0.22262301,0.34200799,0.89713001
5.7176,21778.6062,-2.86834,1.25939,3.11495,1.3813,0.80609,2.59799,12.7,-25.5,-18.2,34.684307,37.10104,149.590866,0.1458300572929318,-0.218935,0.35234299,0.89814001
5.7297,21778.6262,-2.8037,0.94813,1.99204,1.00073,1.15917,2.61876,11.9,-26.2,-15.7,36.755924,37.056587,152.055969,0.12004017243198177,-0.220465,0.36291,0.89737499
5.7677,21778.6463,-1.68557,0.91461,0.88588,0.26891,1.56357,2.61815,10.7,-27.8,-15.3,38.542534,37.167061,154.849228,0.09215709897137445,-0.225502,0.37082601,0.89618301
5.7777,21778.6663,-0.84518,0.93856,0.72307,-0.65349,2.0883,2.47765,10.6,-28.3,-15.1,40.341576,37.190613,158.409988,0.05863024602250557,-0.232816,0.37709701,0.89451498
5.793,21778.6863,-1.18995,0.81645,0.93616,-1.49404,2.63319,2.36219,10.0,-29.2,-15.6,41.241215,37.290882,162.599258,0.02287773907884942,-0.245308,0.37511799,0.893637
5.818,21778.7064,-1.99204,0.5004,1.62332,-2.2057,3.07485,2.43183,8.2,-29.3,-14.8,41.357788,37.519569,167.471222,0.016246688405316297,0.2626,-0.36520499,-0.89297402
5.837,21778.7264,-1.52276,0.20591,2.98805,-2.77197,3.35585,2.70672,7.8,-29.1,-14.7,40.963299,37.725716,173.116821,0.059716152068430325,0.28244299,-0.34869999,-0.891666
5.8492,21778.7464,0.59378,0.59378,4.69038,-3.08596,3.21901,2.90037,7.3,-29.4,-15.0,40.307358,37.677349,179.459259,0.10706899597436914,0.30159199,-0.32751,-0.88899702
5.8684,21778.7665,3.34959,1.42459,5.70316,-3.14582,2.98872,2.70489,6.6,-29.6,-17.1,39.488823,37.28854,-174.004532,0.15449819353623448,0.31722501,-0.30392301,-0.88494599
5.891,21778.7865,4.04154,2.28174,6.20835,-3.19408,2.75109,2.19604,7.3,-29.7,-16.3,38.398594,36.972645,-167.940536,0.19778402032732523,0.33054799,-0.27870601,-0.87974
5.9109,21778.8065,3.14608,2.593,6.11258,-3.33519,2.35586,1.56624,7.2,-29.3,-17.4,36.831898,36.716949,-162.661758,0.23409597026860385,0.34061101,-0.251367,-0.87521303
5.9338,21778.8265,2.40385,2.50681,8.33208,-3.58748,1.31678,1.1539,6.4,-28.7,-18.1,34.553696,34.858765,-157.2108,0.2671951619667162,0.33635899,-0.22126199,-0.875507
5.9494,21778.8466,3.0096,3.18199,12.45262,-3.44515,0.07672,1.15696,5.8,-28.2,-19.9,31.673441,31.548386,-152.070251,0.29541904451344875,0.31717601,-0.191744,-0.88054597
5.9667,21778.8666,4.12055,4.17562,15.48138,-2.69623,-1.01001,1.28035,4.8,-28.2,-22.5,28.84527,27.527657,-147.757935,0.3181266169353314,0.288535,-0.16842701,-0.88722903
5.9869,21778.8866,5.70316,5.25064,16.31698,-1.48366,-1.42479,1.26325,2.8,-27.8,-23.6,26.761995,23.135103,-144.401962,0.3355266285139525,0.25504699,-0.156241,-0.893287
6.0214,21778.9066,7.25705,6.42384,13.90834,-0.74879,-1.45044,0.85336,1.4,-28.2,-24.8,25.744812,18.987263,-142.016693,0.34765297275587914,0.223547,-0.155442,-0.897219
6.0345,21778.9265,6.38314,6.64651,13.79821,-0.92472,-1.11691,0.22355,0.0,-28.2,-25.3,25.077684,15.82668,-140.758575,0.3528173231814148,0.19879501,-0.15742099,-0.90067703
6.0499,21778.9465,5.02798,6.32328,15.09351,-1.05117,-0.90494,-0.20466,0.1,-27.1,-26.7,24.022812,14.364211,-140.618042,0.351482430848371,0.184706,-0.15319601,-0.904917
6.1304,21778.9665,4.87714,7.05832,16.73119,-0.73657,-1.13768,-0.26819,-0.7,-26.7,-27.3,22.840483,13.287881,-140.93045,0.34714925033751565,0.172644,-0.147432,-0.90991497
6.133,21778.9865,5.91386,7.87238,16.78147,0.10276,-1.44861,-0.40319,-1.8,-26.2,-27.8,22.21578,11.906337,-141.392685,0.3414914697878406,0.15939499,-0.147202,-0.91449898
6.1333,21779.0065,5.97132,8.12377,15.07196,0.61039,-1.46999,-0.90166,-1.1,-25.7,-26.1,22.388657,10.503558,-142.329208,0.3321985429202236,0.147397,-0.153981,-0.91880798
6.1357,21779.0265,5.0615,7.37437,13.44864,0.68003,-1.57689,-1.46427,-2.2,-26.5,-27.2,22.918367,9.348201,-144.029419,0.3170108732845595,0.13710099,-0.163674,-0.92407697
6.1477,21779.0465,4.11097,6.45975,13.3409,0.64643,-1.73449,-1.83201,-1.5,-27.0,-26.3,23.394461,8.300882,-146.31871,0.29699583092285997,0.126415,-0.173004,-0.93052799
6.1667,21779.0665,3.58662,5.88273,13.8437,0.82358,-1.79741,-2.07391,-1.9,-26.6,-26.2,23.867212,7.270109,-149.029999,0.2733264831689368,0.114875,-0.18231,-0.93747503
6.1913,21779.0865,3.05988,5.00882,13.0464,1.151,-1.58361,-2.30604,-1.6,-26.8,-25.4,24.610304,6.395993,-152.012222,0.24743266984110945,0.104343,-0.19329099,-0.94367802
6.2068,21779.1065,2.593,4.41265,12.28263,1.41184,-1.23175,-2.49174,-1.0,-26.9,-26.0,25.704752,6.014278,-155.303391,0.21961114193646858,0.097467,-0.206057,-0.94858402
6.2307,21779.1265,2.18837,3.53156,11.26267,1.68979,-1.04238,-2.60903,-1.1,-26.6,-26.5,27.08733,6.195179,-158.81073,0.19092643788904626,0.094633,-0.220199,-0.951895
6.2495,21779.1465,1.80049,2.74623,9.47893,1.94207,-1.05888,-2.65729,-1.3,-26.5,-26.6,28.593864,6.11364,-162.144302,0.16318482216885116,0.089318,-0.235589,-0.95388198
6.2678,21779.1665,1.5898,2.10696,8.05913,2.04898,-1.07048,-2.70188,-1.5,-26.5,-26.5,30.169275,5.895782,-165.35643,0.1361657898996659,0.082373,-0.251454,-0.954696
6.2983,21779.1865,1.38868,1.56346,6.92664,2.01904,-1.14073,-2.86254,-1.5,-26.6,-26.2,31.713747,5.821198,-168.58136,0.10938143588287552,0.07575,-0.26666999,-0.95455998
6.3121,21779.2066,0.72068,0.7111,5.59542,1.94757,-1.09431,-3.11605,-1.2,-26.7,-26.0,33.071289,5.935683,-172.007431,0.08142361668164548,0.069322,-0.28007999,-0.95400202
6.3616,21779.2266,-0.07662,0.24422,4.55391,1.80158,-0.93182,-3.32313,-0.1,-26.9,-24.9,34.156487,6.44983,-175.743057,0.051968031864976325,0.064628,-0.291013,-0.95311803
6.364,21779.2466,-0.82602,0.00718,3.40705,1.57617,-0.64593,-3.47951,2.2,-27.1,-23.0,34.849915,7.470668,-179.929108,0.020134247009510876,0.062343,-0.29878199,-0.95207
6.3721,21779.2667,-1.56825,-0.23464,2.08302,1.28112,-0.19756,-3.59008,4.2,-27.3,-22.0,35.049297,9.12952,175.461258,0.013765178207338174,-0.063947,0.30293101,0.95076501
6.387,21779.2867,-2.57385,-0.33759,1.4629,0.75638,0.23188,-3.75929,5.8,-27.2,-20.6,35.341812,12.006221,170.367996,0.047930151236976956,-0.073951,0.309185,0.94691002
6.4071,21779.3067,-4.07266,-0.33041,1.31685,0.30068,0.34856,-3.8778,8.1,-26.7,-20.5,35.022175,15.421551,165.099335,0.08251152615046935,-0.088212,0.312244,0.94229198
6.432,21779.3267,-5.88992,-0.32562,1.18277,-0.08478,0.22089,-3.923,11.0,-24.7,-20.0,33.927315,18.788755,159.931656,0.11752625030408748,-0.103585,0.31065199,0.93752497
6.4478,21779.3468,-7.39113,-0.50759,0.92898,-0.51421,-0.04118,-3.75501,13.0,-23.5,-18.8,32.183933,21.658617,155.053452,0.1529803963178283,-0.117461,0.30480799,0.93268001
6.4671,21779.3668,-7.96815,-0.30647,1.09179,-1.07865,-0.37837,-3.41965,14.9,-22.5,-19.5,29.833078,23.751692,150.768753,0.1873562111033939,-0.128859,0.29392901,0.92838502
6.4898,21779.3868,-8.60742,0.14605,2.05908,-1.74083,-0.52742,-3.17408,15.2,-19.8,-18.1,26.276291,26.423834,146.779312,0.2212299375399721,-0.15002701,0.27567399,0.923338
6.5113,21779.4069,-8.71516,0.05746,3.77577,-2.22403,-0.82003,-3.00243,15.6,-18.3,-20.7,21.993906,28.729044,143.713943,0.25114645517665546,-0.173884,0.25143999,0.918405
6.5354,21779.4269,-8.81093,-0.61772,5.17163,-2.43722,-1.13462,-2.84971,17.0,-16.4,-21.1,17.440355,30.048378,141.686432,0.276149357830504,-0.19399101,0.22240099,0.914684
6.5549,21779.4469,-8.84206,-1.15165,6.42623,-2.62048,-1.1108,-2.7031,17.1,-14.3,-22.5,12.8297,30.615377,140.250946,0.2981102273951029,-0.210089,0.190533,0.91142201
6.5689,21779.4669,-9.85005,-1.55149,7.95139,-2.77442,-0.85546,-2.57238,17.3,-11.5,-22.6,8.174315,30.904604,139.415619,0.31561270634706656,-0.22544,0.156601,0.90831798
6.5876,21779.487,-10.82691,-2.61215,8.75826,-2.62109,-0.56408,-2.30543,16.8,-10.2,-23.4,3.61743,31.204161,138.910477,0.32989147226704735,-0.241055,0.122806,0.90442401
6.6096,21779.507,-11.71279,-3.01679,8.79896,-2.45982,-0.45412,-1.7697,18.6,-8.1,-24.3,-0.505699,31.594833,138.738037,0.3401619532018522,-0.25627199,0.091947,0.90008903
6.6313,21779.527,-11.36323,-3.08143,9.51485,-2.39629,-0.41808,-1.05804,17.6,-6.0,-24.1,-4.073045,31.998894,139.174088,0.3442431671707077,-0.270071,0.064059,0.89691401
6.6483,21779.5471,-11.97616,-3.12213,10.57312,-2.32238,-0.40159,-0.56629,18.9,-4.1,-23.3,-7.103937,32.423462,140.342133,0.34137076366587077,-0.28231001,0.038559,0.89570099
6.6705,21779.5671,-12.53403,-2.77975,11.38957,-2.1269,-0.32156,0.01708,18.4,-4.2,-25.3,-9.622497,32.656776,141.800034,0.3351962681317306,-0.291067,0.015611,0.89592397
6.6884,21779.5871,-11.84208,-1.48445,12.2515,-1.99556,-0.30996,0.7605,18.0,-3.2,-25.9,-11.510555,32.566097,143.794571,0.32348027096213916,-0.29506999,-0.004811,0.89903897
6.71,21779.6071,-10.18046,-0.07422,13.51808,-1.99984,-0.1774,1.34449,17.8,-3.0,-24.5,-12.857198,32.70929,146.493958,0.30503550106071103,-0.29890299,-0.02222,0.90394503
6.7388,21779.6272,-9.38316,1.69754,15.49335,-1.98884,-0.18534,1.72262,17.8,-3.1,-26.4,-13.890061,33.145664,149.639954,0.282422020356026,-0.30360901,-0.037709,0.90919602
6.7506,21779.6472,-8.2794,3.15565,17.42793,-1.69868,-0.32462,2.07264,18.4,-2.9,-24.6,-14.598736,33.653156,153.175598,0.25600335538074454,-0.30750799,-0.051696,0.91500199
6.7703,21779.6672,-6.28258,4.28815,19.10392,-0.79888,-0.25742,2.26629,17.7,-3.1,-25.4,-14.609702,34.047573,156.639084,0.22847024803010899,-0.30899301,-0.060269,0.92124498
6.7958,21779.6873,-5.03516,4.52997,18.83337,0.0881,0.03518,2.19848,17.6,-4.4,-26.5,-13.697659,34.468582,159.595993,0.20273654917068992,-0.309688,-0.059993,0.92703402
6.8106,21779.7073,-5.0591,4.02478,17.6075,0.85596,0.3455,2.12212,17.7,-4.5,-27.0,-12.007638,35.021786,161.924164,0.18007211523997804,-0.31119099,-0.051503,0.93170899
6.8437,21779.7273,-5.43022,2.99284,15.66335,1.50653,0.50188,2.21436,18.0,-4.9,-24.4,-9.63353,35.736637,163.721268,0.1597839272999003,-0.31398201,-0.035826,0.93520099
6.858,21779.7473,-5.25783,2.07344,13.75511,2.0337,0.44568,2.35059,18.0,-4.4,-25.2,-6.589031,36.451069,165.043106,0.1412444101492839,-0.31669,-0.013482,0.93785697
6.8704,21779.7673,-4.76221,1.39347,11.96419,2.44726,0.30702,2.37441,18.0,-4.2,-25.4,-2.99966,36.971268,166.165573,0.1224267602925906,-0.31764099,0.01353,0.94017702
6.8919,21779.7873,-4.8939,0.89785,10.00807,2.67328,0.2667,2.38052,17.9,-4.7,-25.3,0.938479,37.320694,167.131287,0.10357495825844863,-0.31706199,0.043565,0.94172502
6.9199,21779.8073,-5.20755,0.66082,8.05195,2.73009,0.26975,2.49536,18.0,-7.8,-25.2,5.095268,37.421986,168.115234,0.08378095025708242,-0.31439701,0.075053,0.94260401
6.9364,21779.8273,-5.51401,0.69673,6.6489,2.62319,0.31923,2.63158,16.6,-11.2,-24.4,9.275776,37.182598,169.180527,0.063413657335782,-0.309131,0.106256,0.94293499
6.9486,21779.8473,-5.4781,0.85954,5.55232,2.35807,0.33939,2.72932,16.0,-14.2,-23.1,13.223634,37.050362,170.410263,0.04228448231656342,-0.30537799,0.135175,0.94163901
6.9741,21779.8673,-5.28177,0.80687,4.88193,2.03676,0.21417,2.74704,16.1,-17.3,-22.0,16.813843,36.930401,171.824463,0.02073835620293941,-0.302643,0.160658,0.939237
6.9882,21779.8873,-5.11657,0.77335,4.62574,1.72155,0.08527,2.71894,14.4,-19.7,-22.5,19.972654,36.661175,173.27359,0.0013889013067246443,-0.29954401,0.182501,0.93646401
7.0083,21779.9073,-5.24825,0.6273,4.56588,1.39046,0.05778,2.74704,14.7,-21.5,-20.0,22.701372,36.264233,174.972321,0.020341273237408124,0.29662499,-0.200243,-0.93354303
7.0326,21779.9273,-4.83883,0.45491,5.19558,1.0722,0.15613,2.94557,12.8,-22.9,-19.8,25.047342,35.803944,176.626007,0.03930004880708592,0.29387099,-0.21508899,-0.93050098
7.0479,21779.9473,-3.98168,0.24182,5.43022,1.0044,0.29297,3.24306,11.4,-23.8,-18.6,27.165508,35.228397,179.020065,0.06314917478985654,0.292218,-0.226346,-0.92703199
7.074,21779.9673,-2.50681,-0.20591,4.50363,1.16505,0.53854,3.49901,10.1,-26.1,-19.1,29.335783,34.548912,-178.209335,0.08963077731649784,0.291015,-0.237276,-0.92248398
7.0985,21779.9873,-1.65684,-0.50759,3.04552,1.13573,0.73157,3.55216,8.4,-27.6,-17.3,31.6035,33.890778,-175.067139,0.1189121964726052,0.29139599,-0.24817701,-0.91616398
7.1095,21780.0073,-1.17319,-0.31126,2.37033,0.6727,0.61856,3.56315,7.5,-28.3,-16.7,33.761501,33.044777,-171.782196,0.1481076723580512,0.29138401,-0.258176,-0.909123
7.131,21780.0273,0.42858,-0.2083,2.64328,-0.15136,0.79693,3.53872,5.8,-28.9,-17.3,36.302357,31.559952,-167.890915,0.18069836447931528,0.28859001,-0.27085701,-0.90038902
7.1499,21780.0473,1.94655,-0.21309,3.23706,-0.74818,1.31372,3.38417,3.8,-30.4,-17.5,38.041672,29.862902,-163.295654,0.2157776918584952,0.28675401,-0.27618399,-0.89159101
7.1726,21780.0673,3.39269,0.47885,3.05031,-1.39264,1.81708,3.17587,3.0,-30.9,-18.0,39.010334,28.445667,-158.36409,0.2520743976237964,0.288225,-0.27443799,-0.88208199
7.19,21780.0873,5.91386,1.78134,4.42941,-2.24418,2.09197,2.69634,1.8,-31.6,-16.9,39.040115,27.414017,-153.250748,0.28884422856100156,0.292371,-0.264155,-0.872531
7.2102,21780.1073,8.98571,3.29692,7.02959,-2.74509,2.26423,1.82463,1.0,-31.2,-17.1,37.888565,26.78661,-148.502014,0.3221183841974864,0.29658401,-0.244498,-0.86515802
7.2323,21780.1273,7.54197,3.71831,7.87716,-2.72433,2.60448,0.64627,1.0,-30.5,-20.4,35.675278,24.359093,-143.242065,0.3547191549587077,0.28499901,-0.22082999,-0.862661
7.2481,21780.1472,4.19956,4.31927,8.29137,-2.5038,1.98567,-0.19611,1.8,-30.2,-21.6,33.082554,23.23966,-139.841248,0.3762282736127094,0.27708799,-0.195632,-0.86220801
7.2709,21780.1672,3.40226,3.88351,9.34964,-2.26312,0.70347,-0.37021,1.4,-29.2,-22.5,30.460703,22.132227,-137.944199,0.3868483893473507,0.26537701,-0.17419299,-0.86578298
7.2982,21780.1872,4.11097,3.8069,10.58988,-1.93875,-0.26231,-0.25292,0.6,-29.1,-23.5,28.044943,20.157572,-136.664841,0.39209880163027766,0.245873,-0.15901799,-0.87207699
7.3078,21780.2072,4.57785,5.02558,11.72716,-1.53192,-0.83041,-0.15885,1.0,-28.5,-22.6,25.995296,17.530355,-135.742523,0.3945011102118203,0.221276,-0.14997999,-0.87915403
7.3367,21780.2272,4.71912,6.57707,12.51248,-1.1092,-0.97458,-0.16068,1.0,-28.2,-23.9,24.436613,14.726604,-135.232742,0.39419224502227285,0.195748,-0.14637899,-0.88592798
7.3486,21780.2472,5.50923,7.09424,12.42389,-0.85996,-1.19754,-0.41052,0.2,-28.0,-24.9,23.37431,12.048838,-135.177307,0.3909427055707262,0.171817,-0.14704999,-0.89219898
7.3725,21780.2673,5.20755,7.75266,13.53005,-0.93632,-1.18105,-0.81675,-0.5,-27.9,-24.8,22.497461,9.487523,-135.672668,0.38368065036863636,0.14845601,-0.149437,-0.89912099
7.3932,21780.2873,4.34561,8.54277,15.45026,-0.94671,-0.80048,-1.10752,-0.3,-27.0,-26.0,21.444567,7.731838,-136.88118,0.3718955344278816,0.129821,-0.148296,-0.90710998
7.4095,21780.3073,3.76619,8.62418,16.34332,-0.60035,-0.3796,-1.32804,-0.8,-26.5,-25.9,20.269648,7.410192,-138.743301,0.3567258180984378,0.121398,-0.141928,-0.91535002
7.4309,21780.3273,2.89468,7.94181,16.44627,0.08932,-0.51643,-1.63103,-0.6,-26.6,-26.4,19.526186,7.534838,-140.863266,0.3398680253497523,0.117688,-0.137747,-0.92285699
7.4641,21780.3474,2.23146,7.20198,15.27069,0.58656,-0.9196,-1.90837,0.0,-25.8,-26.9,19.540394,7.527406,-143.394867,0.31938961508790487,0.114593,-0.14045,-0.930125
7.4776,21780.3674,1.29051,6.04794,15.10069,0.95003,-1.13279,-2.17837,0.1,-26.5,-27.3,19.999689,7.237606,-146.355194,0.2949329209053136,0.109653,-0.147894,-0.93761301
7.4941,21780.3874,0.3759,4.45096,14.15256,1.50103,-1.21587,-2.24862,0.8,-25.9,-26.8,20.917561,6.906545,-149.606339,0.2678655677574106,0.104661,-0.159335,-0.944408
7.5134,21780.4075,-0.11732,3.37593,12.09827,2.03309,-1.27512,-2.1857,0.4,-26.6,-25.9,22.484818,6.597532,-152.963013,0.2398042363853473,0.100373,-0.176052,-0.94943398
7.5287,21780.4275,-0.17239,2.84919,10.29059,2.33486,-1.31972,-2.14782,0.1,-26.6,-26.3,24.628513,6.316257,-156.242218,0.21230275163303824,0.096506,-0.19731,-0.95219898
7.5486,21780.4475,-0.26098,2.45892,8.56432,2.42588,-1.21587,-2.19853,0.3,-26.4,-26.5,26.849506,5.776854,-159.32106,0.1858659431660356,0.089835,-0.219311,-0.953565
7.572,21780.4675,-0.46688,1.97767,6.84044,2.41794,-0.92937,-2.2981,0.5,-26.2,-26.6,28.998747,5.581504,-162.439896,0.15965599490686067,0.084757,-0.23994701,-0.95380902
7.5963,21780.4876,-0.39506,1.47008,5.08783,2.27438,-0.70702,-2.43493,1.2,-26.1,-26.1,30.979553,5.944531,-165.690674,0.13360595715842594,0.082798,-0.258407,-0.95316303
7.6262,21780.5076,-0.76617,1.02714,3.77098,1.92436,-0.60623,-2.61025,2.4,-26.3,-24.9,32.598278,6.784877,-169.217484,0.1065620528097076,0.082868,-0.27358499,-0.95232803
7.6386,21780.5276,-1.2977,0.45012,3.22988,1.54684,-0.67342,-2.686,4.1,-26.6,-23.3,33.648823,7.930181,-173.023788,0.07807911206167656,0.083634,-0.28418499,-0.95191801
7.652,21780.5477,-1.96331,0.27774,3.08143,1.19376,-0.89455,-2.74464,5.7,-26.6,-22.8,34.117733,9.147966,-177.06131,0.04783923297043538,0.083711,-0.290369,-0.95204502
7.6727,21780.5677,-2.62891,0.49801,3.40945,0.87917,-1.15723,-2.74525,6.3,-26.7,-20.5,34.366833,10.3029,178.66333,0.015464678595403387,0.082343,-0.295219,-0.95174903
7.6963,21780.5877,-2.52596,0.35435,3.44536,0.62994,-1.26413,-2.77091,7.7,-26.1,-20.9,34.588806,11.203924,174.514664,0.016533006103537293,-0.07894,0.29998299,0.95052898
7.7098,21780.6077,-2.71271,0.03831,2.88031,0.31106,-1.11569,-2.9224,8.5,-25.8,-21.2,34.571426,12.043338,170.317566,0.04910290064649664,-0.074871,0.30289701,0.94880801
7.7297,21780.6278,-3.65845,-0.10535,2.54033,-0.21,-0.83286,-3.07451,10.4,-24.2,-20.6,34.048962,13.139508,166.072388,0.08192437234986845,-0.073328,0.301976,0.94695401
7.75,21780.6478,-4.83165,-0.11732,3.91464,-0.69442,-0.69908,-3.11055,10.9,-23.8,-22.4,32.81485,14.456787,161.719955,0.11607866346577285,-0.074656,0.295836,0.945216
7.7729,21780.6678,-6.21075,-0.19872,5.23388,-0.80499,-0.89272,-3.05924,11.7,-23.1,-21.0,30.986696,15.727719,157.637451,0.14925939579986067,-0.078033,0.28515899,0.94356602
7.7902,21780.6879,-7.83646,-0.43097,5.54993,-0.70786,-1.34171,-2.80206,12.2,-21.5,-21.7,28.335938,17.435282,153.46904,0.18380717175643488,-0.087518,0.26920301,0.94132102
7.8133,21780.7079,-8.44461,-0.06225,4.98488,-0.84714,-1.55857,-2.16554,12.9,-20.4,-23.3,25.684805,18.604057,149.80394,0.21593180798650247,-0.095022,0.25282499,0.93830901
7.836,21780.7279,-8.76305,0.34478,5.41585,-1.3401,-1.41746,-1.75443,12.7,-19.8,-23.1,23.057095,19.224716,147.143173,0.24121420238534785,-0.101204,0.235278,0.93606502
7.8537,21780.7479,-9.62738,0.42379,7.18522,-1.93875,-1.44678,-1.49481,13.1,-18.2,-23.4,20.102589,19.65185,145.361923,0.26039267522393905,-0.109224,0.214196,0.93508601
7.8726,21780.768,-11.00409,0.70392,9.85005,-2.30283,-1.60255,-1.03483,13.2,-16.9,-23.9,16.779087,19.654234,144.349289,0.2746930758137161,-0.116736,0.188548,0.93561
7.8914,21780.788,-10.88916,1.8412,11.77504,-2.38713,-1.40157,-0.34577,12.8,-15.0,-26.0,13.491875,19.211264,144.202759,0.28227538473313574,-0.122095,0.161143,0.93778801
7.9112,21780.808,-9.63217,3.18439,13.09908,-2.38835,-0.61111,0.27181,12.9,-14.7,-27.4,10.573094,18.851868,144.950729,0.2813993356453767,-0.12813801,0.13577899,0.94125402
7.9712,21780.8281,-9.38556,5.04474,13.77666,-2.51541,0.28747,0.81426,12.7,-13.4,-27.2,8.045433,19.198208,146.426224,0.27287041903683873,-0.139277,0.114264,0.94503301
7.9743,21780.8481,-8.01843,7.03917,16.0153,-2.61254,0.61673,1.47155,12.3,-12.4,-26.8,5.67428,19.597641,148.792007,0.2566261887785811,-0.15059599,0.0927,0.95019501
7.9759,21780.8681,-4.73588,9.1988,18.9435,-2.23014,0.61123,1.8057,12.0,-11.9,-27.4,3.541604,20.079285,151.835083,0.23425569393079848,-0.161606,0.071911,0.955948
7.9923,21780.8881,-2.42779,9.58907,20.40162,-1.41096,0.85252,1.53142,12.7,-11.0,-27.0,2.052407,20.719168,154.845917,0.21102973760870763,-0.171646,0.056346,0.96064001
8.0091,21780.9081,-3.0934,8.46616,20.27233,-0.34684,0.8067,1.15879,12.8,-11.5,-28.8,1.401344,21.644808,157.082474,0.192866649913351,-0.181623,0.049071,0.96302003
8.0296,21780.9281,-4.39828,6.78777,18.77111,0.89994,0.54953,1.1142,13.2,-12.0,-26.8,1.846423,22.468319,158.589417,0.17909155205045219,-0.18846799,0.051713,0.96422601
8.0496,21780.9481,-4.70475,4.8939,15.90996,2.00377,0.36444,1.26386,12.8,-13.0,-27.6,3.618312,23.006039,159.509842,0.16800724603468598,-0.19064,0.065894,0.96492898
8.068,21780.968,-4.28815,3.52198,13.32174,2.67756,0.34123,1.40863,13.2,-13.2,-26.2,6.526936,23.37035,160.159225,0.15707955211325247,-0.189578,0.08975,0.96505499
8.0897,21780.988,-4.49645,2.50681,10.60424,2.83699,0.46279,1.47338,12.9,-13.5,-26.6,10.066133,23.755507,160.604507,0.14641236838675545,-0.187639,0.119163,0.96392697
8.1106,21781.008,-4.87474,1.69036,8.5308,2.6574,0.65521,1.59434,12.9,-13.2,-26.9,13.69986,24.283079,161.082489,0.13477204000437104,-0.18682501,0.149334,0.96157801
8.1288,21781.028,-4.79334,1.0463,7.24508,2.38556,0.82198,1.78065,12.8,-13.4,-26.5,17.165695,24.903736,161.847565,0.12054398172393206,-0.187547,0.17753699,0.95852798
8.1503,21781.048,-4.45335,0.59617,6.10301,2.04898,0.9527,1.96147,13.1,-15.2,-25.7,20.296333,25.56613,162.955811,0.10371159955414683,-0.18993101,0.202206,0.95513499
8.1725,21781.068,-4.24265,0.41421,5.4781,1.63053,1.03639,2.16611,12.9,-17.4,-23.8,22.903616,26.232594,164.288132,0.08584250564655657,-0.193894,0.221949,0.95172203
8.1887,21781.088,-3.75901,0.35435,5.3536,1.24019,1.1775,2.50147,12.6,-19.2,-22.7,25.020796,26.836733,166.199127,0.0641897428860701,-0.19959401,0.236396,0.94876701
8.2091,21781.108,-3.31368,0.45731,4.96333,1.09175,1.19766,2.73665,11.1,-21.1,-22.7,26.862272,27.337112,168.432755,0.040641764842830164,-0.205928,0.247711,0.94582301
8.2332,21781.128,-2.43019,0.30647,3.9721,0.89872,1.17994,2.97184,11.1,-22.7,-20.2,28.592415,27.640415,171.211014,0.013355239767952663,-0.21242499,0.256818,0.94273102
8.2516,21781.148,-1.66163,0.06943,3.57705,0.51754,1.10359,3.19053,9.8,-24.0,-19.8,30.102133,27.610283,174.269043,0.015046866369441456,0.21754,-0.263383,-0.93972301
8.2746,21781.168,-0.78532,0.04549,3.85718,0.15774,1.05044,3.35546,7.9,-26.0,-18.8,31.222818,27.125975,177.964264,0.046483759255029185,0.22118001,-0.265578,-0.93722302
8.3038,21781.188,-0.12929,0.5028,3.95295,-0.10127,1.037,3.42449,6.7,-27.3,-20.5,32.478806,26.181076,-177.877365,0.08066071888954944,0.222462,-0.26831001,-0.93381703
8.3134,21781.208,0.38308,0.838,4.04632,-0.29308,0.98569,3.55033,5.6,-28.1,-19.9,33.959515,24.966427,-173.411194,0.11669050567025592,0.222775,-0.27277899,-0.928626
8.3363,21781.228,2.79172,1.64966,4.03914,-0.49833,1.02173,3.53872,4.1,-28.4,-19.3,35.286343,23.389864,-168.609512,0.15374259821805977,0.22166599,-0.276162,-0.92247599
8.3579,21781.248,5.21952,2.47568,3.11016,-1.02245,1.37359,2.96573,3.2,-29.6,-19.7,36.168045,21.852486,-163.797989,0.18978195203148013,0.221334,-0.27635199,-0.91576397
8.3735,21781.268,4.47969,2.57145,4.07027,-1.85506,1.49759,2.23208,2.2,-29.7,-20.4,36.005993,20.960575,-159.528107,0.22150825837801066,0.224244,-0.26833299,-0.91030002
8.3907,21781.288,5.04234,3.07425,7.04875,-2.22586,1.07732,1.93642,1.9,-29.3,-21.4,34.713116,19.972656,-155.479446,0.2501674920785649,0.224131,-0.25194901,-0.90758097
8.411,21781.308,6.51243,4.05111,8.18603,-2.06031,0.74073,1.60777,1.4,-29.0,-22.1,32.927288,16.916904,-150.935379,0.2783763551805718,0.206889,-0.23596001,-0.90775901
8.4318,21781.328,5.62894,4.4749,8.19321,-1.75427,1.24408,1.01768,0.3,-30.0,-22.5,31.182253,14.350379,-147.448074,0.3000640089904481,0.19022299,-0.222261,-0.90795201
8.4486,21781.348,4.30012,5.18839,8.21715,-1.62599,1.20438,0.70675,-0.1,-29.7,-24.2,29.581762,12.965175,-145.042114,0.3160401155433904,0.180308,-0.209161,-0.90766698
8.4705,21781.368,5.605,6.13653,9.46217,-1.65226,0.39987,0.7489,0.0,-28.7,-23.4,28.083755,11.66067,-143.169067,0.3282678996297376,0.169753,-0.19788399,-0.90789098
8.4894,21781.3879,7.79336,6.941,11.02324,-1.56612,-0.31668,0.64383,-0.9,-29.0,-25.9,26.624039,9.599786,-141.516495,0.3377668052727498,0.152494,-0.189794,-0.90919602
8.512,21781.4079,8.38475,7.06072,12.02405,-1.30956,-0.64471,0.0574,-1.2,-27.9,-24.6,25.282825,7.107283,-140.332886,0.34318949889225897,0.13100301,-0.18495101,-0.911511
8.5347,21781.4279,5.67683,6.941,12.62501,-0.94182,-1.04666,-0.64998,-2.0,-28.1,-27.2,24.159801,4.760662,-140.221039,0.3405616293894235,0.109326,-0.182806,-0.91577703
8.5498,21781.4479,4.09421,6.70158,12.98894,-0.46046,-1.60071,-0.92732,-2.3,-27.7,-26.0,23.415737,2.479825,-141.113907,0.3300097225099279,0.087511,-0.18425199,-0.92167598
8.5696,21781.4679,4.09182,6.35441,12.60586,0.14613,-2.10224,-0.96885,-2.2,-27.3,-25.0,23.247904,0.152554,-142.53775,0.3147962605860176,0.065938,-0.19039699,-0.927526
8.5919,21781.4879,4.38631,6.29215,11.71279,0.17606,-1.8756,-1.168,-3.0,-28.1,-26.2,23.576344,-2.186803,-144.209717,0.2970326153258582,0.044987,-0.200115,-0.93257803
8.6164,21781.5079,3.58662,6.01442,12.0863,-0.08539,-1.46449,-1.34454,-2.7,-27.8,-26.5,23.861921,-4.031307,-146.155823,0.2776521566491783,0.027214,-0.20767599,-0.93757099
8.6317,21781.5279,2.83243,5.93301,13.16372,-0.0634,-1.24947,-1.35737,-3.2,-27.7,-25.3,23.944586,-5.338813,-148.300644,0.2575932228235421,0.012765,-0.211779,-0.94267303
8.6511,21781.5479,2.69835,6.13892,13.47019,0.34039,-1.24763,-1.30178,-2.8,-27.5,-25.0,24.159651,-6.323973,-150.457672,0.23777276025465954,0.00112,-0.215802,-0.94704401
8.669,21781.5679,2.58103,5.9785,12.44783,0.83458,-1.23603,-1.30178,-2.8,-27.8,-25.7,24.875854,-7.185546,-152.545319,0.21816846157957828,-0.008436,-0.22334,-0.949974
8.6917,21781.5879,2.26259,5.71274,11.33689,1.21514,-1.44311,-1.29139,-3.0,-27.8,-25.8,26.133152,-8.085901,-154.566483,0.1983519991703135,-0.01735,-0.235107,-0.95135701
8.7194,21781.6079,2.59779,5.73189,10.29538,1.50286,-1.7516,-1.26512,-3.2,-27.6,-26.1,27.786777,-9.299511,-156.472397,0.1782093328753011,-0.028247,-0.25034299,-0.951195
8.7417,21781.6279,2.72468,5.70556,9.59146,1.66413,-1.91226,-1.3873,-3.4,-27.4,-26.3,29.73391,-10.818233,-158.336746,0.15706961160224323,-0.041486,-0.268004,-0.94962198
8.7538,21781.6479,2.71271,5.19079,8.70558,1.71605,-1.86705,-1.63653,-3.5,-27.2,-26.2,31.868122,-12.327735,-160.385254,0.1338050932465559,-0.055246,-0.286542,-0.94706798
8.7717,21781.6679,1.89866,4.57546,7.84364,1.63298,-1.73755,-1.90409,-3.7,-27.2,-26.2,34.059048,-13.530697,-162.818359,0.10772524320622269,-0.067932,-0.30438799,-0.94399601
8.7889,21781.6879,1.3791,4.15646,7.20677,1.54074,-1.49076,-1.99389,-3.7,-27.2,-25.9,36.145851,-14.264342,-165.646744,0.07963417465648755,-0.078652,-0.32016101,-0.94072801
8.8091,21781.7079,1.39347,3.8883,6.05512,1.41368,-1.24336,-2.05009,-3.7,-27.4,-25.6,38.063217,-14.520646,-168.668121,0.051580869205157864,-0.08695,-0.33368999,-0.93724602
8.8333,21781.7279,1.03193,3.64409,5.33444,1.22858,-0.9813,-2.17409,-3.6,-27.5,-25.1,39.764259,-14.280557,-171.926132,0.023559950381954582,-0.092844,-0.344841,-0.933761
8.8488,21781.7479,0.81166,3.22509,4.85798,1.14917,-0.84141,-2.28588,-3.3,-27.8,-24.6,41.275009,-13.494998,-175.43132,0.004545409627245651,0.095916,0.35411799,0.93025798
8.8708,21781.7679,0.44773,2.79412,3.76859,1.11741,-0.79804,-2.38301,-2.0,-28.5,-22.9,42.685486,-12.362579,-179.117813,0.032085214603610614,0.097502,0.36259201,0.926278
8.9,21781.7878,0.45731,2.66722,2.22668,0.88955,-0.72901,-2.53328,-0.6,-28.8,-21.8,43.991619,-10.930775,176.995117,0.05987897344193026,0.098057,0.37039301,0.92174202
8.911,21781.8078,0.22506,2.47089,1.23784,0.25242,-0.64288,-2.90896,-0.2,-29.0,-21.7,45.037853,-9.053303,172.664032,0.08908125716961675,0.097181,0.37634799,0.91705102
8.9399,21781.8278,-0.57702,1.89148,2.09978,-0.58569,-0.32034,-3.29564,0.7,-29.1,-22.2,45.511028,-6.255632,167.467133,0.12148917378844874,0.092173,0.37842399,0.91298401
8.9518,21781.8478,-1.59938,1.33361,2.57863,-1.11714,-0.15785,-3.50761,2.9,-27.9,-20.1,44.922668,-2.565011,161.687332,0.1554658127360455,0.081202,0.373806,0.91077203
8.9692,21781.8678,-2.73666,1.18038,3.0934,-1.35049,-0.34661,-3.56198,4.6,-27.7,-21.6,43.617725,1.165972,155.917908,0.18997866034362862,0.068259,0.36528999,0.90874201
8.9884,21781.8878,-4.19477,0.84757,3.45973,-1.5814,-0.43335,-3.42881,5.9,-26.4,-20.2,41.812653,4.405377,150.404816,0.22515808727252004,0.056358,0.35392201,0.90601701
9.01,21781.9078,-5.57387,0.54589,4.66644,-1.87217,-0.48894,-3.14964,7.5,-25.2,-20.9,39.537086,7.037856,145.617249,0.257792614224612,0.044597,0.33957401,0.90346199
9.0405,21781.9278,-5.88273,0.56265,5.854,-2.06581,-0.46145,-2.82711,8.6,-23.9,-21.5,36.786053,9.126387,141.544235,0.2878100819116664,0.032301,0.32185,0.901407
9.0682,21781.9478,-6.71834,0.4621,6.27779,-2.26434,-0.16091,-2.63713,10.4,-21.6,-24.5,33.193314,11.871428,137.567398,0.31741913038577224,0.010426,0.30070999,0.89928299
9.0762,21781.9678,-9.11261,0.29689,8.69122,-2.4641,-0.3631,-2.2193,11.0,-19.2,-23.9,29.171349,14.501026,134.23642,0.3440111839879624,-0.015394,0.277648,0.89684498
9.0909,21781.9878,-9.91469,1.16362,12.24672,-2.19409,-1.06621,-1.32988,11.8,-17.3,-25.9,25.13839,15.992759,132.174835,0.3641074653768299,-0.03677,0.25204101,0.89585102
9.1084,21782.0078,-9.21556,2.29372,13.58272,-1.4244,-1.31727,-0.46795,11.5,-17.2,-27.9,21.930206,16.049835,131.321823,0.37645712324985964,-0.047249,0.228094,0.89667201
9.132,21782.0278,-8.62897,2.86595,11.64575,-1.02979,-0.78338,0.18568,11.8,-16.4,-27.5,19.91309,15.664948,131.31842,0.3807017050408363,-0.051695,0.211385,0.898727
9.1489,21782.0478,-8.47813,3.21312,11.89715,-1.30895,-0.21222,0.66521,10.4,-15.9,-25.7,18.409794,15.679316,132.049072,0.3774280443488267,-0.058634,0.19950999,0.90238899
9.1689,21782.0678,-9.34007,4.28815,12.4191,-1.49465,0.1317,1.07754,11.6,-14.6,-27.3,16.860954,16.036383,133.587906,0.36717614525271075,-0.069612,0.18780001,0.90833199
9.1909,21782.0878,-7.6952,5.46852,13.71919,-1.5533,0.23188,1.62121,11.2,-14.4,-27.7,15.506984,16.039944,135.718887,0.3523480510483343,-0.077701,0.175842,0.91591102
9.2172,21782.1078,-5.80133,6.6896,14.57635,-1.39081,0.47806,1.92359,11.0,-14.5,-28.5,14.366471,15.730154,138.538757,0.33189096707090404,-0.083131,0.16390499,0.92524201
9.2327,21782.1278,-4.39828,7.90829,14.94506,-1.13058,0.69492,1.98834,10.4,-14.9,-27.2,13.504069,15.718637,141.570282,0.30857885586916006,-0.089897,0.154671,0.93422401
9.253,21782.1478,-2.58582,8.91149,15.83573,-0.83248,0.79082,2.16183,10.5,-14.8,-28.8,12.965825,15.941272,144.576843,0.2844482531648594,-0.097231,0.148432,0.94212699
9.268,21782.1678,-0.27295,9.37598,16.59711,-0.34806,0.94048,2.23941,10.3,-15.3,-26.8,12.867373,16.283936,147.630844,0.25894668246196867,-0.104239,0.14575499,0.94912398
9.3046,21782.1877,0.8763,8.99529,15.82616,0.32145,1.13046,1.97246,11.1,-15.4,-27.8,13.372187,16.83708,150.50386,0.23363230532826587,-0.111297,0.148397,0.954467
9.318,21782.2077,-0.56984,8.15729,13.63779,1.04655,1.34366,1.40619,11.4,-15.5,-26.5,14.542912,17.729883,152.629974,0.21292830045317854,-0.11894,0.157674,0.95689797
9.3368,21782.2277,-2.00401,6.66806,12.89796,1.38252,1.23675,1.20949,11.4,-15.2,-27.3,16.254623,18.979071,153.889938,0.19785619358448137,-0.127496,0.172702,0.95643699
9.3505,21782.2477,-2.58103,5.10938,11.7535,1.79791,1.02601,1.1875,11.3,-15.0,-27.5,18.318068,20.099792,154.868744,0.18438116757304454,-0.134056,0.19046,0.95485997
9.3711,21782.2677,-3.25621,3.81647,10.12299,2.0056,0.94232,1.24492,11.2,-15.1,-27.5,20.79998,21.065088,155.706604,0.17121608549934664,-0.138422,0.211335,0.95229298
9.3878,21782.2877,-3.57226,3.09101,9.42387,2.09174,0.8739,1.4123,11.1,-15.3,-27.3,23.557196,21.649223,156.721405,0.15644318642746627,-0.13961799,0.233467,0.94948697
9.4085,21782.3077,-4.00323,2.43019,8.38954,2.1852,0.74623,1.60655,10.8,-16.1,-26.6,26.354578,22.027655,157.977356,0.13980055011980266,-0.139851,0.25517601,0.94645798
9.4363,21782.3277,-3.98647,1.79331,6.71355,2.2469,0.60084,1.88327,11.0,-18.7,-24.1,29.153973,22.18173,159.41095,0.12209185739974458,-0.13903899,0.27627501,0.94309801
9.4484,21782.3477,-3.79732,1.69994,5.03037,2.09113,0.52754,2.22169,10.4,-20.7,-23.0,31.896439,22.06876,160.887131,0.10482411574470724,-0.136704,0.29649901,0.93936801
9.4678,21782.3677,-3.58423,1.81486,4.35519,1.72033,0.46034,2.59127,9.5,-23.2,-22.4,34.406635,21.666351,162.848129,0.08495452286982444,-0.134216,0.31401801,0.93603498
9.4919,21782.3877,-2.77975,1.74303,4.44617,1.43872,0.36077,2.96695,8.5,-24.6,-22.0,36.570263,20.843096,165.554108,0.061128792912995125,-0.131596,0.32771701,0.93356699
9.5109,21782.4077,-1.45572,2.01598,3.35677,1.27745,0.48295,3.23268,8.0,-26.2,-19.9,38.504482,19.551792,168.840912,0.03476073542316007,-0.127947,0.33898601,0.93140203
9.5302,21782.4277,0.0431,2.88989,2.01359,0.75516,0.80304,3.23268,6.7,-26.9,-19.1,40.230587,18.054733,172.588562,0.006121383928412318,-0.125075,0.348463,0.92891997
9.5525,21782.4477,-0.09338,2.69835,2.77496,-0.09027,1.08465,3.01338,5.6,-28.0,-19.1,41.553108,16.406139,176.849319,0.02516753499569276,0.123701,-0.35462999,-0.92644602
9.5687,21782.4677,-0.89306,2.12851,4.15167,-0.64922,1.16223,3.01276,4.2,-28.8,-17.9,42.163086,14.668884,-178.625504,0.057023941042153234,0.123387,-0.355299,-0.92481703
9.589,21782.4877,-0.68955,1.81007,5.58584,-0.73718,0.88673,3.35546,2.1,-29.7,-19.8,42.218544,12.656609,-173.768097,0.09004879274071109,0.122134,-0.35183501,-0.92368102
9.6179,21782.5077,2.24583,2.20273,6.36159,-0.4458,0.5758,3.72381,-0.1,-30.4,-18.4,42.07386,9.914505,-168.327347,0.1254179586967511,0.116601,-0.347572,-0.92188299
9.6341,21782.5277,5.08065,2.89468,5.28895,-0.2265,0.91605,3.6389,-1.3,-30.9,-19.4,41.866322,6.538081,-162.442093,0.1624575728745187,0.107077,-0.34439,-0.91844302
9.6533,21782.5477,6.76622,3.46452,3.79014,-0.47207,1.36626,3.06835,-2.2,-31.2,-18.0,41.386921,3.199156,-156.558762,0.1996204888329831,0.097324,-0.340561,-0.91361803
9.6702,21782.5677,6.30652,3.98407,4.1828,-1.0475,1.50553,2.28278,-3.4,-31.5,-19.7,40.438435,0.404218,-151.453156,0.2325378359646438,0.088418,-0.334126,-0.90910298
9.6963,21782.5876,6.23948,4.16843,4.98488,-1.51054,1.26608,1.3787,-4.5,-31.5,-20.7,38.894794,-1.7539,-147.535141,0.25866580023590174,0.079201,-0.32366601,-0.90667498
9.7097,21782.6076,5.25543,3.46212,5.9378,-1.59972,1.27035,0.94193,-4.3,-30.7,-21.2,36.975803,-3.167552,-145.08519,0.2760464761394357,0.070089,-0.310247,-0.906991
9.7332,21782.6276,4.60419,3.31368,6.99368,-1.47572,0.84641,0.90772,-4.6,-30.8,-21.4,35.004585,-4.210958,-143.384186,0.2888914568341188,0.061142,-0.29633501,-0.90828902
9.7479,21782.6476,5.24586,3.96013,7.07508,-1.28146,0.13109,1.06044,-5.6,-30.7,-22.1,33.16095,-5.615542,-141.905212,0.29919363630311385,0.048638,-0.28473601,-0.909419
9.7696,21782.6676,6.54355,5.54753,7.85801,-1.28207,-0.70274,1.06349,-4.9,-29.9,-21.7,31.450846,-7.764709,-140.500168,0.3072519054483138,0.030034,-0.27652299,-0.91007102
9.8034,21782.6876,7.47014,6.52919,9.27303,-1.29673,-1.01001,0.77211,-5.9,-29.7,-22.4,29.786772,-10.464659,-139.496155,0.3111378847051884,0.005914,-0.270634,-0.91099697
9.8097,21782.7076,7.28578,6.64651,10.73832,-1.21182,-1.22748,0.35733,-7.3,-29.4,-23.6,28.233164,-13.025711,-139.157959,0.3102711235276003,-0.018538,-0.26547399,-0.91263998
9.8352,21782.7276,6.26103,6.3999,11.15971,-0.88318,-1.32216,0.05679,-7.4,-29.1,-23.3,26.961706,-15.375169,-139.456314,0.3046491549536939,-0.041984,-0.261787,-0.914819
9.8539,21782.7476,5.58584,6.61538,11.70082,-0.56492,-1.50298,-0.04217,-8.0,-29.2,-23.4,26.146324,-17.517784,-140.143372,0.29575730238010883,-0.06325,-0.260728,-0.91681403
9.8719,21782.7676,6.01202,6.51722,11.36802,-0.18313,-1.55734,-0.18023,-8.4,-29.1,-23.7,25.728252,-19.688826,-140.967194,0.28501890833528754,-0.083822,-0.26244301,-0.91807503
9.8885,21782.7876,5.88752,6.26821,10.11821,0.04961,-1.38386,-0.47955,-9.4,-29.0,-23.3,25.776619,-21.604723,-141.932526,0.2727584192961601,-0.101258,-0.26670301,-0.918814
9.9103,21782.8076,5.54753,5.96174,9.39992,-0.04874,-1.16028,-0.85035,-9.4,-28.9,-23.1,26.110102,-23.091215,-143.260406,0.2578877823801276,-0.115292,-0.271485,-0.92005301
9.944,21782.8276,4.71672,5.19558,9.24908,-0.1648,-0.6612,-1.22603,-9.2,-28.8,-22.8,26.49184,-23.94367,-145.12027,0.24004445976718544,-0.125453,-0.274358,-0.92269599
9.9653,21782.8476,3.41184,4.64968,8.94262,-0.13853,-0.23238,-1.42761,-8.9,-29.0,-23.3,26.934053,-23.961056,-147.407867,0.22054262645062384,-0.12983701,-0.27530599,-0.92666602
9.974,21782.8676,2.98087,4.46293,8.43024,0.02151,-0.06072,-1.40013,-8.9,-29.1,-23.5,27.476137,-23.42412,-149.827637,0.2010189802321656,-0.129867,-0.27584699,-0.93093199
9.989,21782.8876,3.10059,4.65208,7.30254,0.19011,-0.02957,-1.41112,-9.2,-28.8,-23.7,28.170412,-22.748981,-152.074799,0.18286399274908902,-0.12807199,-0.27769199,-0.93436903
10.0096,21782.9076,2.97608,4.80292,6.89551,0.06977,-0.14075,-1.54551,-9.3,-28.6,-24.0,28.970932,-22.044167,-154.276169,0.16493041460233973,-0.12581199,-0.28056601,-0.93715101
10.0301,21782.9276,2.77736,4.88193,7.89632,-0.07561,-0.35211,-1.72205,-9.4,-28.4,-24.2,29.664961,-21.354095,-156.67218,0.14560749441151644,-0.124543,-0.28257599,-0.93991399
10.1017,21782.9476,2.33921,4.81967,8.58587,-0.01758,-0.5427,-1.88454,-9.5,-28.2,-24.4,30.303324,-20.738586,-159.294647,0.1243493930843245,-0.124703,-0.28414199,-0.94247001
10.1058,21782.9676,1.77655,4.72151,7.91547,0.17606,-0.3741,-1.92547,-9.4,-28.1,-24.4,31.106649,-20.135502,-161.975586,0.10229504898087663,-0.124977,-0.287128,-0.944179
10.1083,21782.9876,1.48924,4.66884,7.54915,0.12536,-0.14441,-1.89554,-9.3,-28.0,-24.4,32.005291,-19.25004,-164.571793,0.08154715394653207,-0.122782,-0.29091501,-0.94532698
10.1086,21783.0075,1.3791,4.82207,7.77421,0.06366,-0.01491,-1.8595,-9.0,-28.0,-24.3,32.769474,-18.072428,-167.102509,0.062398253783097886,-0.118438,-0.29374599,-0.94646299
10.1297,21783.0275,1.53712,5.06868,7.35282,0.07832,0.06389,-1.88943,-8.6,-28.0,-24.3,33.438427,-16.71533,-169.564346,0.04453575361750447,-0.112746,-0.29610699,-0.94743103
10.1513,21783.0475,1.32164,5.15008,7.12776,-0.01331,0.16713,-2.01099,-7.8,-28.0,-24.0,34.071304,-15.183926,-172.073853,0.02692561941830152,-0.105948,-0.298435,-0.94814903
10.1695,21783.0675,1.20432,5.1453,7.33845,-0.03285,0.28136,-2.08857,-6.3,-28.0,-24.5,34.594582,-13.405621,-174.763519,0.00867940581143529,-0.097835,-0.30008,-0.94884402
10.1879,21783.0875,0.66082,4.95375,7.59943,0.15163,0.32229,-2.14905,-4.8,-28.0,-24.5,35.091221,-11.416148,-177.589355,0.010131299953087486,0.088502,0.30189899,0.94916898
10.2116,21783.1075,0.08141,4.66405,7.25465,0.55969,0.12315,-2.09285,-3.4,-27.7,-24.3,35.780155,-9.39448,179.529633,0.02908097229357684,0.079187,0.30583799,0.94833899
10.2419,21783.1275,0.81645,4.98967,6.96495,1.00195,-0.30446,-1.96334,-1.9,-27.8,-24.2,36.833862,-7.731159,176.732101,0.048297951612454676,0.072925,0.31325901,0.94563103
10.256,21783.1475,2.56427,5.62894,5.84682,1.30128,-0.31851,-2.21135,-0.6,-27.8,-23.7,38.283825,-6.527436,174.032486,0.06774611361280813,0.070752,0.32413399,0.94092602
10.2706,21783.1675,1.12052,4.8508,4.11815,1.06182,-0.15846,-3.11421,0.0,-27.8,-24.0,39.942261,-4.862758,170.611664,0.09129804926174417,0.067664,0.33683199,0.93468201
10.2942,21783.1875,-1.95852,3.85239,4.33843,0.41369,-0.20183,-3.82404,1.9,-27.4,-21.8,41.162254,-2.099337,165.816238,0.12195316750916986,0.060412,0.346668,0.92806202
10.3088,21783.2075,-6.19399,3.56268,5.61697,-0.09883,-0.37349,-3.71408,2.9,-27.0,-24.0,41.473663,1.428939,159.990616,0.15811701771352707,0.050024,0.35069099,0.92168999
10.3402,21783.2275,-7.64731,4.57067,7.39113,-0.34317,-0.62333,-2.8888,4.5,-26.3,-22.6,40.929668,4.93667,154.372498,0.19291267973401724,0.038126,0.349558,0.91604602
10.3545,21783.2475,-6.34004,4.91545,7.67126,-0.37677,-0.61295,-1.92364,5.9,-25.5,-23.5,39.978985,7.684227,149.937637,0.22105447579051626,0.027641,0.345741,0.91150099
10.3728,21783.2675,-4.04632,5.63373,7.49408,-0.54903,-0.34661,-1.3256,6.3,-25.1,-23.1,38.979431,9.694809,146.959747,0.24007352803130905,0.018159,0.341373,0.90856999
10.3909,21783.2875,-1.78852,6.4813,8.26982,-0.87157,-0.07477,-1.27245,7.4,-24.1,-22.8,37.820148,11.287477,144.99292,0.25276025186531814,0.008273,0.33556199,0.90743703
10.4087,21783.3075,-3.33283,5.83006,8.91867,-0.96626,0.51593,-1.74038,7.9,-23.2,-22.6,36.338539,13.010957,143.152359,0.2648363109409262,-0.004216,0.32796001,0.90679997
10.4307,21783.3275,-4.98249,4.95615,8.83009,-0.78238,0.69125,-1.73488,9.6,-22.7,-23.9,34.747509,15.230687,141.045792,0.2781052491584793,-0.020553,0.32120401,0.90502101
10.4527,21783.3476,-4.7239,4.79094,7.3193,-0.56186,0.351,-1.78741,10.2,-21.3,-23.2,33.325138,17.415905,139.161713,0.2896998762892385,-0.037043,0.316223,0.90261
10.4687,21783.3676,-5.0184,4.82686,7.22592,-0.53071,-0.36799,-2.0452,10.9,-21.0,-23.8,32.006001,19.060308,137.173004,0.303610631493101,-0.048901,0.31121999,0.89920598
10.4888,21783.3876,-7.6928,4.61616,9.50767,0.07771,-0.60073,-2.26817,12.1,-20.3,-23.2,30.70253,20.293503,134.945862,0.32059381893442657,-0.057083,0.30579799,0.894678
10.5168,21783.4076,-8.47334,2.8013,7.45098,-0.48428,-3.87069,-1.69884,12.1,-19.7,-23.6,29.88801,20.980942,132.1819,0.34211210461695074,-0.058053,0.30310199,0.88753498
10.5496,21783.4277,-7.91547,2.66004,9.43344,-1.03773,-5.27629,-0.2407,10.5,-19.1,-24.9,28.426805,17.438335,130.621735,0.36641196409233157,-0.032145,0.281892,0.886141
10.5592,21783.4477,-4.85798,2.49244,7.40549,-1.2839,-4.24637,0.85763,9.5,-18.7,-26.4,27.11167,11.932826,130.862015,0.37985880251609244,0.005029,0.25403199,0.88946599
10.5767,21783.4677,-5.05192,5.86597,10.90832,-1.2387,0.77738,1.48499,9.0,-18.4,-27.1,25.725254,9.141513,131.798752,0.3806350531976001,0.019695,0.23428699,0.894337
10.5999,21783.4878,-3.02876,4.99206,12.0432,-1.42379,2.3076,2.73177,8.9,-18.3,-27.4,24.614479,10.614002,134.09726,0.36120158436701105,-0.00045,0.23067699,0.90350503
10.6158,21783.5078,-1.58022,3.75422,11.04,-1.593,1.32655,2.61937,9.0,-18.1,-29.0,23.513071,12.126247,137.814194,0.33028267581488363,-0.023563,0.226253,0.91606098
10.6341,21783.5278,-0.85954,4.15167,13.70962,-1.46716,0.78532,2.40556,9.4,-17.6,-28.0,22.334417,12.393847,141.412628,0.3025307936409117,-0.036337,0.216719,0.927463
10.6493,21783.5478,0.85236,3.43818,15.65137,-1.0585,0.86657,2.35853,9.7,-17.4,-27.2,21.344931,12.152426,144.764725,0.27707636901832683,-0.043405,0.207,0.93728101
10.673,21783.5679,-0.23943,2.40625,9.91709,-0.45802,0.86229,2.15939,8.8,-17.8,-27.2,20.86927,11.951771,147.768143,0.25339558491855996,-0.048364,0.201472,0.94491303
10.6944,21783.5879,-0.06465,0.94334,6.63454,-0.92166,1.64298,2.44588,9.0,-17.4,-27.7,20.705921,12.099687,150.692108,0.22915288486929294,-0.055095,0.19912601,0.95121098
10.7128,21783.6079,-0.07422,1.83162,6.84284,-1.60522,0.9301,2.54729,9.4,-16.9,-28.2,19.918447,12.544909,154.038025,0.20150930764403893,-0.066244,0.191691,0.95825899
10.7389,21783.628,-0.75899,3.10298,8.00167,-2.16111,-0.02835,2.53446,8.9,-16.8,-28.7,18.470575,11.821291,157.557053,0.17485166814188538,-0.068634,0.176364,0.966236
10.7554,21783.648,0.21309,0.67519,12.14376,-2.03527,-0.05034,2.55767,8.7,-16.4,-28.6,16.546482,10.588016,161.04689,0.14914289575370304,-0.06647,0.156358,0.97411001
10.7724,21783.668,1.73585,-0.16999,9.64653,-1.02245,0.43224,2.73421,8.7,-16.3,-28.9,14.928316,9.580991,164.36702,0.12363506030709882,-0.06443,0.139511,0.98035699
10.791,21783.688,2.08302,0.33041,8.03519,-0.04446,0.9075,2.67435,8.5,-16.3,-29.3,14.323955,8.803194,167.555984,0.09771524501222724,-0.062227,0.131828,0.98448002
10.8129,21783.7081,1.38629,-1.90105,7.95618,0.88283,2.2514,2.92541,8.0,-16.2,-29.8,14.717422,8.905643,170.49472,0.07201881489666391,-0.066154,0.133635,0.98619401
10.839,21783.7281,1.91303,2.11893,12.11982,1.79669,2.25201,3.90218,7.7,-16.2,-30.0,16.023697,9.986565,173.882797,0.04052757552678876,-0.078658,0.14325,0.98572302
10.8523,21783.7481,7.21395,2.174,7.9442,1.9549,-2.54572,3.28765,7.4,-16.4,-30.0,18.582769,9.71194,178.094406,0.0030350775706709226,-0.080854,0.16224299,0.983428
10.8823,21783.7682,4.08942,1.03912,5.88273,1.41734,-4.27081,-0.52659,7.2,-16.7,-29.9,20.453587,4.082918,-179.884842,0.007344486001069151,0.035235,-0.177397,-0.98348099
10.8972,21783.7882,-2.47089,1.21629,6.95297,1.2634,-4.1523,-1.29567,6.8,-17.0,-29.9,21.459797,-1.29044,178.159286,0.017932840572533828,0.014053,0.185966,0.982292
10.9095,21783.8082,-4.78616,4.63053,3.45494,1.04655,-2.3759,0.54792,4.7,-18.5,-29.4,22.45101,-5.688361,176.078247,0.04317803561858622,0.055295,0.192652,0.97875601
10.9345,21783.8282,1.4198,3.84042,0.05986,-0.45191,-0.3295,2.78491,2.7,-20.0,-29.3,22.864597,-7.879231,176.691132,0.04185894647885419,0.073023,0.195715,0.97704202
10.958,21783.8483,2.60976,2.77018,-0.00958,-2.00045,-0.66792,3.21802,0.8,-20.0,-28.9,21.482409,-9.643513,179.320724,0.02151064000349037,0.083683,0.185221,0.97889102
10.973,21783.8683,5.05431,1.03912,3.62733,-3.52822,-1.28184,3.98282,-0.5,-19.9,-30.5,18.050266,-11.663524,-177.858368,0.00261765530961287,-0.097416,-0.157904,-0.98263401
10.9916,21783.8883,10.19003,0.86673,8.55474,-4.30402,-2.84077,4.18135,-3.9,-18.6,-32.6,12.788308,-14.58567,-174.76738,0.03089717833621524,-0.120977,-0.11611,-0.98535699
11.0094,21783.9083,12.03841,0.42618,10.36482,-3.89169,-3.58847,3.42937,-7.0,-16.4,-33.0,7.094994,-19.662247,-172.18837,0.05646046228787001,-0.165869,-0.072434,-0.98186201
11.0337,21783.9283,11.47815,-0.64167,11.73674,-2.7396,-3.45958,2.60287,-9.4,-14.3,-33.6,2.110916,-24.837082,-170.954575,0.07305962828730492,-0.212927,-0.034888,-0.97370797
11.0516,21783.9483,12.20601,0.9218,11.459,-1.38958,-3.53838,2.18016,-12.0,-13.0,-31.7,-1.440082,-29.460012,-170.32724,0.08472558665255657,-0.25436401,-0.009325,-0.96334499
11.0694,21783.9683,12.01687,0.84518,7.83646,-0.31324,-3.43514,1.33044,-14.8,-12.5,-32.0,-3.397978,-34.043884,-169.755844,0.09398217902155395,-0.29397199,0.002113,-0.95117998
11.0908,21783.9883,12.22277,0.05986,5.37275,-0.66266,-1.65081,0.52776,-15.7,-11.9,-32.4,-4.113944,-38.037983,-169.652237,0.09686015217735175,-0.32740501,0.004427,-0.93989599
11.1115,21784.0083,12.34967,-0.2107,8.38475,-1.9754,0.04007,0.01403,-16.8,-11.1,-32.7,-4.975768,-40.017979,-170.810654,0.09001108115226525,-0.34401399,0.013273,-0.93454599
11.1341,21784.0283,11.72716,-0.4597,12.61065,-2.49892,0.33145,-0.89494,-17.2,-9.6,-31.0,-6.497326,-40.607685,-173.428009,0.07331354729324856,-0.34891799,0.033203,-0.93369102
11.1526,21784.0483,10.30496,-1.15643,14.49494,-1.52153,0.5086,-1.79169,-16.9,-8.1,-30.4,-7.609756,-40.588215,-176.784378,0.04928298417445655,-0.34768501,0.052505,-0.93484199
11.174,21784.0683,6.25624,-2.54751,13.45582,-0.2265,0.47378,-2.36896,-17.1,-9.5,-32.7,-7.168252,-40.349831,179.963516,0.02126232833627066,-0.34419399,0.058788,-0.93681502
11.1924,21784.0883,5.56908,-2.2171,12.58191,0.76982,0.24349,-1.96884,-16.7,-10.0,-32.2,-5.436107,-40.112457,177.361282,0.0054121495544796824,0.34143999,-0.052421,0.938425
11.2123,21784.1083,4.75742,-1.01757,9.76385,0.99279,-0.08699,-1.87904,-16.2,-10.0,-31.6,-3.252774,-39.971565,175.798035,0.024779099804464674,0.340442,-0.03918,0.93912202
11.2377,21784.1283,3.80929,-1.77655,8.27461,0.48822,-0.28491,-1.75321,-16.6,-11.4,-32.7,-1.20058,-39.979839,174.266052,0.04344736074469826,0.34091601,-0.026931,0.938703
11.2742,21784.1483,1.73106,-3.59141,9.9937,0.14857,0.55014,-1.77336,-15.9,-11.6,-31.0,0.158129,-39.771446,172.41481,0.06267703907333162,0.339486,-0.021204,0.938281
11.2933,21784.1683,-0.39984,-2.75581,11.39435,0.56091,0.70591,-1.29445,-15.3,-11.4,-31.6,1.130247,-38.424019,170.558945,0.08094761433890317,0.32869899,-0.017797,0.94079101
11.3101,21784.1883,0.05986,-1.83401,8.72713,1.26951,-0.16824,-0.63899,-15.9,-11.2,-32.0,2.067894,-37.080669,169.57338,0.09185722086999994,0.31816,-0.01185,0.94350201
11.3202,21784.2083,1.06066,-1.06306,6.93861,1.36297,-0.53537,-0.12953,-16.4,-10.8,-31.9,3.061636,-36.506229,169.508209,0.09513824784890583,0.31411201,-0.003363,0.944601
11.3323,21784.2283,4.38871,-0.2921,6.67045,1.19315,-0.5543,0.45935,-16.6,-10.8,-31.7,3.680235,-36.269505,169.909805,0.09349634052998758,0.31257099,0.00304,0.94527698
11.358,21784.2482,5.58105,0.53871,6.84044,0.81686,-0.19817,0.34328,-16.9,-10.8,-31.6,3.865328,-36.124237,170.618088,0.08813982877292131,0.31145599,0.006614,0.946141
11.3772,21784.2682,3.76141,0.77335,6.87636,0.64887,-0.17923,0.13864,-16.9,-11.0,-31.4,3.999484,-35.873928,170.922867,0.08595774105675315,0.30944499,0.00874,0.94698399
11.3934,21784.2882,2.37273,0.50759,6.05512,0.52365,-0.54819,0.3384,-16.8,-11.2,-31.4,4.210211,-35.761055,171.063309,0.0853404379325516,0.308617,0.010948,0.94728702
11.4137,21784.3082,2.61934,0.42618,6.79974,0.19256,-1.09919,0.78677,-16.8,-11.4,-31.3,4.121978,-36.12751,171.336548,0.08288962603028126,0.31157199,0.010688,0.94654
11.4316,21784.3282,5.09023,1.14207,7.99927,0.02212,-1.26718,1.09343,-16.7,-11.8,-31.2,3.509646,-37.039448,171.740891,0.07795930884441624,0.31874901,0.006099,0.94460797
11.4504,21784.3482,6.54116,1.01996,8.43982,0.06183,-1.15173,1.34755,-16.7,-12.2,-31.1,2.693907,-38.065887,172.350906,0.07069830280409088,0.32677799,0.000426,0.94245303
11.4705,21784.3682,7.21634,1.36713,7.9897,0.29946,-0.9868,1.21377,-16.9,-12.6,-30.9,1.887687,-39.077106,173.147354,0.06183164264743295,0.33472601,-0.004489,0.940274
11.4921,21784.3882,6.34243,1.32164,6.59623,0.44362,-0.76566,0.96087,-17.0,-12.9,-30.7,1.464061,-40.059647,173.93721,0.05406314795847455,0.342637,-0.006125,0.93789101
11.5097,21784.4082,6.1485,0.5028,6.30891,0.32817,-0.32828,1.02623,-17.2,-13.1,-30.4,1.206557,-40.750435,174.617661,0.04768816873711538,0.34822699,-0.006487,0.93617398
11.548,21784.4282,5.08305,0.63448,7.1924,0.43385,-0.40708,0.99202,-17.4,-13.3,-30.2,0.833269,-41.081291,175.242554,0.041433999546748035,0.35084301,-0.007759,0.93548501
11.5544,21784.4482,4.52279,-0.12929,6.46454,0.70568,-0.77727,1.24798,-17.7,-13.5,-30.0,0.585483,-41.572098,176.055252,0.03400380275939087,0.35482901,-0.00744,0.93428302
11.572,21784.4682,5.36318,-0.15084,5.23867,0.76921,-1.01551,1.50759,-18.1,-13.6,-29.7,0.274874,-42.47686,177.264984,0.023117537051757585,0.36219901,-0.00641,0.93179202
11.5982,21784.4882,5.83724,-0.37111,4.87235,0.49799,-0.73023,1.63526,-18.6,-13.6,-29.3,-0.27854,-43.464233,178.612183,0.010363518545331605,0.37021199,-0.006742,0.92886502
11.6189,21784.5082,6.06949,-0.49083,4.95136,0.20538,-0.61111,1.82769,-19.0,-13.6,-29.1,-1.244623,-44.223248,179.820496,0.0029205260894165736,-0.37637401,0.010652,-0.92640197
11.6309,21784.5282,6.37835,-0.59139,5.28656,-0.00353,-0.55614,1.97613,-19.6,-13.4,-28.6,-2.609136,-44.830799,-179.034744,0.0165196712340152,-0.38138399,0.017835,-0.924097
11.6498,21784.5482,7.28099,-0.56026,5.62655,-0.13792,-0.64227,1.9523,-20.4,-13.0,-28.1,-4.221043,-45.417637,-177.929901,0.03088553458109275,-0.38633701,0.026998,-0.92144501
11.6684,21784.5682,7.70478,-1.02954,6.15568,-0.17824,-0.92143,1.80142,-21.1,-12.4,-27.7,-5.858445,-46.137768,-176.985657,0.044198778407779055,-0.392427,0.036707,-0.91798699
11.6938,21784.5882,7.8604,-1.01996,6.99128,-0.04079,-1.178,1.56807,-22.1,-11.7,-27.1,-7.361949,-47.176926,-176.195969,0.05604749795575021,-0.401072,0.04555,-0.91319501
11.7113,21784.6082,7.79097,-1.34558,5.90189,0.25975,-1.01734,1.45384,-22.8,-11.0,-26.2,-8.549829,-48.393711,-175.407471,0.06698980982178925,-0.411129,0.051562,-0.90764898
11.7338,21784.6282,7.16846,-1.84599,5.25304,0.25486,-0.66059,1.41718,-23.7,-10.1,-25.8,-9.498096,-49.222855,-174.491196,0.07798089529878416,-0.41817001,0.055239,-0.903328
11.7496,21784.6482,7.54675,-2.28174,6.16526,0.19378,-0.66915,1.50454,-25.1,-9.6,-25.0,-10.525461,-49.791504,-173.620895,0.08881738561396073,-0.42317399,0.059747,-0.89970303
11.7874,21784.6681,7.24508,-2.4661,7.01523,0.35077,-0.55675,1.57723,-25.2,-8.5,-25.2,-11.671098,-50.273228,-172.642822,0.10089494600543199,-0.42761201,0.064743,-0.89597797
11.7941,21784.6881,7.04396,-3.07664,6.29455,0.62199,-0.37776,1.67497,-25.4,-8.2,-25.7,-12.748034,-50.538651,-171.447662,0.11427544743294607,-0.43054,0.068483,-0.892685
11.8119,21784.7081,7.50845,-3.18678,5.78217,0.69347,-0.30751,1.74217,-25.9,-7.6,-24.5,-13.764465,-50.49094,-169.971619,0.12940420487039633,-0.43127701,0.070961,-0.89006698
11.8323,21784.7281,8.21236,-3.00481,5.27698,0.5719,-0.23421,1.67864,-26.4,-6.8,-24.6,-14.799144,-50.403965,-168.387466,0.14533641922105883,-0.431887,0.073213,-0.88712502
11.8486,21784.7481,7.41028,-3.36635,5.61218,0.40208,0.07672,1.68597,-26.2,-6.3,-23.6,-15.883801,-50.121284,-167.060684,0.1592461946622262,-0.43094599,0.077095,-0.88486302
11.8682,21784.7681,5.52838,-4.52039,5.89949,0.52487,0.04801,2.1319,-26.1,-5.3,-22.1,-17.115932,-49.579578,-165.713913,0.17354609474736038,-0.42820299,0.082492,-0.883017
11.8953,21784.7881,7.73351,-3.96492,5.59781,0.65742,-0.26842,2.46787,-26.9,-5.1,-23.2,-18.665916,-48.884239,-163.719299,0.19363088295067937,-0.42508799,0.088336,-0.87977499
11.9134,21784.8081,9.0767,-3.40466,5.32487,0.59451,-0.56774,2.27056,-27.0,-4.2,-22.8,-20.275284,-48.516205,-161.517548,0.21550509085258096,-0.42495501,0.093441,-0.87420797
11.9331,21784.8281,9.48133,-3.79971,5.63373,0.50593,-0.48161,1.91993,-27.1,-3.7,-22.3,-21.689533,-48.473289,-159.612488,0.2345154115220569,-0.427174,0.097504,-0.86776602
11.9514,21784.8481,9.79258,-3.12692,5.86837,0.53159,-0.45595,1.5247,-27.3,-2.7,-22.2,-22.778442,-48.47607,-158.082169,0.24952698847631485,-0.42933699,0.100275,-0.86217803
11.9756,21784.8681,10.29778,-3.17481,6.05752,0.55541,-0.69419,0.9963,-27.4,-2.7,-23.2,-23.394896,-48.725254,-156.931915,0.2603097111173536,-0.432715,0.100192,-0.857297
11.9944,21784.8881,10.35045,-3.42142,6.79256,0.65681,-0.75039,0.3555,-27.5,-2.4,-22.2,-23.443308,-49.404137,-156.266602,0.2660111853450147,-0.43839401,0.09648,-0.85307699
12.0112,21784.9081,10.16848,-3.67521,6.49567,0.8694,-0.93365,-0.22177,-27.8,-2.2,-22.0,-22.858078,-50.270878,-155.974518,0.2670095817666467,-0.444556,0.08881,-0.85040498
12.0292,21784.9281,10.26665,-3.45973,5.88992,0.91643,-1.12729,-0.73978,-27.8,-1.9,-21.7,-21.71814,-51.421028,-155.930771,0.2644304042654695,-0.452084,0.077178,-0.84837502
12.0485,21784.9481,10.71199,-2.74384,5.79415,0.84435,-0.97702,-1.1796,-27.9,-1.8,-21.7,-20.198393,-52.789913,-156.26416,0.257654321323745,-0.46061599,0.063706,-0.84698802
12.0765,21784.9681,10.86761,-2.78454,4.86277,0.72401,-0.40036,-1.65913,-28.1,-1.6,-21.6,-18.359219,-53.980843,-156.995361,0.24636105916974743,-0.46737799,0.049959,-0.84756601
12.0913,21784.9881,10.92747,-2.86355,5.40627,0.5041,0.23738,-2.20158,-28.2,-1.3,-21.3,-16.191172,-54.601738,-158.21875,0.22964609581436166,-0.46955699,0.037091,-0.85170603
12.1564,21785.0081,11.84687,-2.06626,7.02001,0.63543,0.2386,-2.79412,-28.3,-1.3,-21.1,-13.673883,-54.778744,-159.917145,0.2076424027110543,-0.46819699,0.024439,-0.85853302
12.1581,21785.0281,10.86043,-2.32724,6.35201,1.23225,-0.19389,-3.68049,-28.2,-1.5,-20.8,-10.396871,-55.066555,-161.752304,0.18138853505334618,-0.467278,0.006328,-0.86527997
12.1592,21785.0481,8.47334,-2.65286,4.15646,1.59144,-0.11265,-4.33594,-26.9,-5.3,-19.4,-5.986145,-55.647831,-163.53331,0.15060023007286383,-0.46792799,-0.021048,-0.87058598
12.1745,21785.068,8.06392,-1.67839,3.39029,1.297,0.07978,-4.35732,-28.8,-8.8,-18.9,-1.272141,-56.016186,-165.36824,0.11759646890319032,-0.466993,-0.050073,-0.87497503
12.1894,21785.088,8.58826,-0.72307,3.90985,0.78571,0.44507,-4.26264,-24.4,-12.1,-15.8,3.012463,-56.074322,-167.191727,0.08614891032497152,-0.464362,-0.075467,-0.87820899
12.2106,21785.1081,8.63615,-1.30249,5.09023,0.35138,0.80243,-4.50699,-26.9,-15.0,-17.8,6.841988,-55.583241,-169.399216,0.05388689567825807,-0.45855999,-0.095558,-0.88186598
12.2301,21785.1281,8.62178,-1.31206,7.27381,0.4253,0.88612,-5.0531,-21.3,-19.5,-16.2,10.637478,-54.499863,-172.22348,0.0177022312740359,-0.44926399,-0.113134,-0.88603002
12.2507,21785.1481,8.03998,-0.25858,8.74629,0.94759,0.7334,-5.49781,-19.3,-22.6,-15.7,14.882243,-53.009708,-175.388016,0.02208112430288466,0.43749401,0.133607,0.88896602
12.2711,21785.1682,7.26184,0.04789,6.87636,1.50897,0.51715,-5.92847,-16.5,-24.7,-14.6,19.722557,-51.426464,-178.567703,0.06321210312353095,0.425495,0.15963501,0.888524
12.2917,21785.1882,4.61616,0.77814,3.08143,1.4827,0.8794,-5.96329,-14.2,-26.7,-13.0,25.013172,-49.591827,178.148315,0.10513490133633073,0.412559,0.189946,0.884682
12.3237,21785.2082,3.80211,2.45413,1.67599,0.65804,1.37053,-5.32921,-12.8,-28.6,-15.0,29.75593,-46.936691,174.577744,0.14407922801056017,0.395601,0.217053,0.88069803
12.3528,21785.2282,3.95774,2.94735,4.68081,-0.23322,1.31861,-4.97735,-10.0,-29.5,-14.6,33.151005,-43.414173,170.34259,0.18010102019133473,0.375545,0.23426799,0.87843502
12.3589,21785.2483,3.19875,3.4693,6.54834,-0.29308,1.08404,-5.03783,-7.1,-29.6,-15.7,35.650421,-39.408676,165.193588,0.21783967686993894,0.35543901,0.24442901,0.87547898
12.3744,21785.2683,2.79412,4.85798,5.75584,-0.09944,1.01012,-4.9743,-6.7,-29.3,-17.5,38.023758,-34.950848,159.53418,0.2564808407994635,0.33460101,0.25534901,0.87009001
12.3895,21785.2884,1.21629,5.8133,4.18998,-0.11471,0.73584,-4.78798,-4.8,-29.7,-17.5,40.288605,-30.264774,153.709534,0.2936530486400913,0.314264,0.267997,0.86208099
12.4099,21785.3084,1.28094,5.28177,5.00643,-0.43786,0.58924,-4.39703,-2.5,-29.4,-15.0,42.181797,-25.566935,147.661774,0.32985405886749286,0.29600301,0.27955899,0.85171902
12.4328,21785.3285,0.34478,6.38553,6.0216,-0.7891,0.69064,-4.1142,1.1,-28.0,-17.0,43.293079,-20.748381,141.601074,0.36340238314380774,0.27739301,0.28762501,0.84158403
12.4496,21785.3485,1.02475,6.76143,7.33845,-0.86058,1.10786,-3.74646,2.8,-27.5,-17.9,43.739216,-15.4902,135.368484,0.3956110027156724,0.255851,0.29396501,0.831635
12.4697,21785.3686,0.43815,7.4007,7.07269,-0.67121,0.67598,-3.64994,4.0,-27.1,-19.6,43.690601,-10.28072,129.591385,0.4238439444289366,0.23306599,0.29990801,0.82224798
12.4941,21785.3887,-6.17005,7.31212,9.67526,-0.45191,0.57213,-3.63223,6.4,-25.2,-18.4,43.539497,-5.474744,123.924469,0.4516663491515384,0.21328001,0.30612999,0.81042802
12.5108,21785.4087,-8.83727,6.51482,9.90033,0.13819,-0.07111,-2.00672,7.8,-24.3,-18.9,43.326569,-1.062105,118.623085,0.47724424534803966,0.195803,0.31304401,0.79743499
12.5341,21785.4288,-5.05192,6.47891,8.33208,0.6672,-0.9196,-0.27186,7.4,-24.6,-19.2,43.470348,1.126624,115.779831,0.4906501389960263,0.189096,0.31850901,0.788706
12.5526,21785.4489,-1.09897,7.42465,6.71834,0.95858,-0.75955,0.4679,6.4,-25.4,-18.4,44.115002,1.084415,115.236458,0.4933363040261678,0.19370601,0.32182401,0.78455502
12.5756,21785.4689,-2.98327,6.85241,5.26022,1.05265,0.01441,0.6817,7.2,-25.8,-18.1,45.103111,0.790053,115.645721,0.4895687118558328,0.198842,0.32799301,0.78307402
12.5925,21785.489,-5.42543,6.17005,3.21312,0.82663,0.7108,1.30967,5.6,-26.8,-18.9,46.211243,1.041152,116.460968,0.4812181735463234,0.19950099,0.338018,0.78381902
12.6119,21785.509,-4.75742,5.67443,3.59141,0.18156,0.93438,2.38235,5.9,-26.7,-16.6,47.043163,1.385894,118.354706,0.4656296045299309,0.194951,0.34838301,0.78981799
12.6329,21785.5291,-5.00403,5.42543,4.83883,-0.09394,0.83175,3.29376,5.4,-27.7,-19.1,47.246624,0.642086,122.003433,0.4421881849677575,0.18977,0.35296899,0.80241501
12.6503,21785.5492,-5.42064,4.33364,4.79813,0.04717,-0.51582,3.99259,4.3,-27.6,-16.4,47.218361,-1.293607,126.830154,0.41408317367014524,0.18847001,0.35350099,0.81734401
12.6795,21785.5692,-4.04154,3.06707,3.90506,0.41613,-2.46753,4.48984,3.0,-28.3,-16.8,47.171539,-5.483107,132.526291,0.3860078828302591,0.201006,0.34820899,0.83026803
12.703,21785.5893,-3.53395,1.6712,2.96411,0.69163,-3.99592,5.20211,0.5,-28.6,-17.2,47.024174,-12.177207,138.81604,0.3603029078000064,0.23056699,0.33713999,0.838664
12.7131,21785.6094,0.32802,0.06704,4.4342,1.14856,-4.81936,6.01944,-3.6,-29.8,-17.6,46.305923,-20.836071,145.873047,0.3333213452532849,0.27241701,0.320896,0.84363002
12.7401,21785.6295,2.15724,-1.95373,3.47888,2.3373,-5.39602,6.62909,-4.7,-31.0,-14.4,44.679184,-31.339327,154.388428,0.29750149884822313,0.32472199,0.30149499,0.84566498
12.7511,21785.6496,2.9713,-3.68479,0.15084,3.52238,-5.22987,7.22224,-10.2,-31.6,-10.2,42.262356,-45.154816,165.600616,0.2452625017229494,0.39701,0.28536999,0.837134
12.7749,21785.6697,5.47331,-4.67602,-2.88031,3.57614,-4.17612,7.99559,-16.7,-30.3,-7.6,38.178616,-58.006687,176.797104,0.18161042670496616,0.46601301,0.27311099,0.821742
12.8047,21785.6898,10.57551,-4.50363,-3.31607,3.13204,-3.81327,8.0182,-23.6,-27.8,-5.1,31.735701,-68.042473,-173.834244,0.10988725227358852,0.52521402,0.255234,0.80431998
12.8117,21785.7099,12.00729,-4.29293,-3.33522,3.14914,-3.89879,7.50629,-22.5,-25.9,0.0,23.721001,-75.925255,-166.735687,0.03649219991229943,0.57927102,0.230487,0.78101802
12.8315,21785.7299,12.0001,-3.47409,-3.4286,3.35501,-4.37771,6.62909,-28.9,-21.0,1.5,14.573839,-83.062805,-161.150131,0.038654916514970876,-0.63324898,-0.20136601,-0.74629301
12.8567,21785.75,9.42626,-4.767,-3.88112,3.53582,-5.06799,5.84596,-25.9,-18.7,8.2,6.352307,-89.706619,-156.713257,0.1045886565104406,-0.68179297,-0.180593,-0.70114601
12.8736,21785.77,9.71597,-5.30092,-3.64648,3.83637,-4.88778,5.60467,-27.2,-14.6,10.8,-1.396325,-96.067543,-152.986542,0.16498056614856055,-0.72482401,-0.16572499,-0.64803302
12.8935,21785.7901,7.38873,-5.5188,-2.6361,4.08194,-5.65014,4.95532,-26.8,-11.4,12.1,-8.907101,-101.754204,-149.756622,0.22226657702191716,-0.75945199,-0.15447,-0.591582
12.9154,21785.8102,5.23388,-7.93702,-4.67602,4.74472,-6.65624,4.86491,-25.4,-6.8,18.4,-16.101555,-107.912598,-146.692459,0.27545963784983024,-0.79063398,-0.150492,-0.525711
12.9409,21785.8302,3.39748,-10.21158,-8.07828,5.36781,-6.45037,4.86246,-23.5,0.0,22.3,-23.818918,-114.440788,-143.490631,0.33071507633450864,-0.81625801,-0.151586,-0.44874501
12.9518,21785.8503,3.012,-10.92029,-10.27144,5.03733,-5.28362,5.04389,-21.0,4.6,23.7,-32.097073,-120.277481,-140.556473,0.3871570552727146,-0.83099699,-0.151673,-0.36952499
12.9772,21785.8703,2.31287,-11.04479,-8.95219,4.30368,-4.68253,4.99014,-18.1,8.9,25.1,-40.211346,-125.542664,-139.210678,0.4362316787488948,-0.83746803,-0.143562,-0.29620799
12.9949,21785.8904,0.24182,-11.83011,-10.40312,4.20777,-4.93665,5.17095,-17.0,13.0,21.7,-47.827133,-131.426102,-139.734009,0.47632709469655404,-0.839724,-0.130266,-0.22584701
13.016,21785.9104,1.82204,-13.1326,-12.45262,4.1137,-5.73994,5.19355,-12.5,17.1,22.5,-55.320709,-139.193756,-142.261414,0.5115867317150239,-0.83787501,-0.115334,-0.15146799
13.0385,21785.9304,3.54113,-12.85247,-10.02483,3.61462,-6.50963,5.00602,-8.8,19.7,22.3,-62.350693,-149.890198,-147.142807,0.5423358610673276,-0.83051598,-0.104702,-0.071781
13.0517,21785.9505,4.44377,-11.32492,-9.93385,3.37761,-5.72039,4.55459,-4.1,21.4,20.8,-68.286209,-165.23938,-156.534271,0.5666031085092277,-0.81829202,-0.096314,0.009094
13.0711,21785.9705,3.78535,-10.46537,-9.31612,2.78262,-4.73934,3.58759,-0.7,21.5,17.8,-72.474922,175.539063,-170.842606,0.5862974524241087,-0.801552,-0.087271,0.078444
13.0925,21785.9905,1.86753,-10.51565,-7.78139,2.12411,-3.71614,2.66396,2.4,22.2,14.8,-74.42939,155.368393,172.915237,0.6002542218867265,-0.78452998,-0.080685,0.13303199
13.116,21786.0105,1.2115,-10.43425,-6.74946,1.56089,-2.98371,1.76904,3.3,22.7,13.0,-74.724274,139.299072,159.815872,0.6086074688317911,-0.77065402,-0.077192,0.172426
13.1348,21786.0306,0.85236,-10.6641,-4.83883,1.21026,-2.9941,0.9627,5.3,22.8,14.9,-74.508575,131.395691,154.245132,0.6108448753251999,-0.76270097,-0.081195,0.196375
13.1529,21786.0506,-1.2115,-11.3752,-4.20914,1.16078,-2.95256,0.38299,6.5,23.5,13.7,-74.680428,126.951813,152.474091,0.611594720371767,-0.75538099,-0.093854,0.215738
13.1714,21786.0706,-1.37431,-12.11982,-5.58584,1.00989,-2.57504,0.04762,6.8,23.7,12.2,-75.193283,123.298218,151.369354,0.6132834383793998,-0.74727303,-0.108312,0.23180801
13.1971,21786.0907,-0.88349,-10.95141,-5.33444,0.62261,-2.82367,-0.28896,8.0,25.1,11.9,-75.776527,121.08445,151.549118,0.613710388701006,-0.74032301,-0.123889,0.244812
13.2164,21786.1107,-2.86116,-11.36323,-6.14371,0.32511,-3.21584,-0.52109,8.2,23.9,10.1,-76.422295,120.362648,153.791931,0.6112780927257084,-0.73368901,-0.14501899,0.25886101
13.2402,21786.1307,-3.90267,-11.53083,-4.80052,-0.13548,-3.35207,-0.53881,7.9,23.8,7.4,-76.890144,120.919426,157.761108,0.6052594161398893,-0.72772199,-0.169387,0.27457201
13.2573,21786.1507,-3.84281,-11.85645,-1.925,-0.48245,-3.43453,-0.14602,8.2,24.1,8.1,-76.891472,122.436096,163.061386,0.5945561506542166,-0.72304398,-0.195007,0.292716
13.2749,21786.1708,-3.16763,-11.61702,-1.13967,-0.54476,-2.83039,0.18751,8.4,23.1,6.7,-76.325851,122.828445,167.26886,0.5809488954064721,-0.718934,-0.217279,0.313723
13.2934,21786.1908,-2.35118,-10.55875,-0.59139,-0.7946,-1.80413,0.09649,8.9,24.2,7.7,-75.581841,122.919441,170.225983,0.5685296329051627,-0.71663803,-0.232567,0.33032799
13.3107,21786.2108,-1.11813,-9.79737,-0.64406,-0.85935,-1.48832,-0.26758,9.1,24.2,7.8,-74.970917,124.363747,173.47229,0.5584445208106529,-0.71683401,-0.243577,0.33905599
13.3373,21786.2308,-2.47329,-9.64653,-0.98884,-0.78849,-1.88171,-0.68175,8.8,23.3,8.7,-74.775963,126.552238,177.559601,0.549838196025267,-0.715325,-0.257882,0.34566599
13.3575,21786.2508,-3.06707,-10.29778,-1.99683,-0.74695,-2.33131,-0.7636,12.1,23.1,9.5,-74.900604,128.646164,-178.17691,0.5424897631879696,-0.71120298,-0.27482399,0.35265699
13.3729,21786.2707,-3.01918,-10.57791,-1.75979,-0.92349,-2.30138,-0.59867,11.8,23.2,9.8,-74.956192,130.522263,-173.458603,0.5327707465413238,-0.70505202,-0.29533601,0.363089
13.3944,21786.2907,-1.75021,-10.56115,0.17718,-1.0866,-2.11629,-0.47344,9.0,23.4,7.6,-74.672272,132.465393,-168.852203,0.5213128943810805,-0.70047498,-0.31394899,0.372832
13.4154,21786.3107,0.01915,-10.01525,0.84997,-0.90089,-2.35819,-0.52537,9.6,24.0,8.0,-74.276848,134.296875,-164.559814,0.5097329102833359,-0.69645602,-0.33101699,0.38150901
13.4329,21786.3307,1.3791,-9.26345,0.23224,-0.41159,-3.28915,-0.94747,10.7,23.4,8.1,-74.350189,134.929703,-160.956787,0.49991687241512434,-0.68750501,-0.35012901,0.393484
13.4541,21786.3507,0.09577,-10.15172,-1.11813,0.06305,-4.48278,-1.52596,10.1,23.7,7.8,-75.423363,134.640823,-157.092911,0.49258752854228766,-0.66855597,-0.37609801,0.411024
13.4768,21786.3707,-2.24583,-12.14855,-2.83003,0.29396,-4.1975,-1.39951,10.7,23.7,7.4,-77.140564,134.001358,-152.572693,0.48513878871759875,-0.64142603,-0.40727499,0.43282801
13.5003,21786.3907,-1.25939,-10.8293,-3.08861,-0.23994,-2.03137,-0.59195,11.0,23.7,6.9,-78.357117,133.579971,-149.00267,0.477872562956966,-0.62000602,-0.430289,0.44953501
13.515,21786.4107,1.03193,-10.5396,-2.49483,-0.66449,-0.66059,-0.28041,11.3,23.7,6.6,-78.451134,135.249817,-145.682709,0.47174547572664627,-0.613437,-0.441342,0.45427799
13.5367,21786.4307,1.42459,-9.27303,-2.05189,-0.53254,-1.44556,-0.70374,11.6,23.7,6.4,-78.223206,138.979523,-141.238678,0.467156012349107,-0.61220503,-0.44966099,0.452521
13.5516,21786.4507,0.06704,-9.50288,-2.89947,-0.43236,-2.95684,-1.17166,11.7,23.8,6.2,-78.50174,143.399628,-134.739777,0.4609166191498846,-0.60216701,-0.46626699,0.45557201
13.5775,21786.4707,-1.90105,-10.42467,-3.71352,-0.62661,-3.1236,-0.9322,11.8,23.9,6.0,-78.836395,147.895233,-126.666161,0.44944232172375564,-0.58463901,-0.490098,0.46476099
13.5973,21786.4907,-0.65603,-10.51326,-6.28497,-1.34866,-1.28856,-0.56141,11.8,24.0,5.7,-78.482193,151.784103,-119.706429,0.4357181005137833,-0.57209599,-0.51056498,0.47135901
13.6199,21786.5107,0.64406,-11.05676,-6.00005,-2.45738,-0.22871,-0.48871,11.3,24.3,4.9,-76.784927,157.824631,-112.511536,0.4230525818395154,-0.57322001,-0.526559,0.46387601
13.6382,21786.5307,-1.20193,-11.01366,-5.54035,-3.07985,0.09138,-0.68725,10.6,24.7,5.0,-73.880508,164.429153,-105.399506,0.40804945093625533,-0.58059502,-0.54464,0.44695899
13.6517,21786.5507,-2.73187,-10.47495,-2.54751,-3.56976,-0.69114,-0.81064,9.8,24.9,5.1,-70.346725,169.737991,-99.484039,0.39061123414953014,-0.58801001,-0.56543303,0.426559
13.6719,21786.5707,-1.15643,-11.78701,-1.24263,-3.44331,-2.11812,-0.62311,9.8,25.0,5.5,-66.45858,172.232376,-94.900497,0.36446354508795487,-0.589715,-0.59169799,0.41145599
13.6942,21786.5907,-0.77814,-11.4183,-5.42064,-2.85994,-1.77237,-0.06844,9.5,25.0,5.7,-63.122353,171.651947,-92.057449,0.33263755424497554,-0.58515602,-0.61744398,0.40707201
13.7118,21786.6107,-1.60416,-11.36323,-9.09346,-3.27899,-0.82858,0.04213,9.2,24.9,6.7,-60.21846,170.792389,-90.415443,0.3059395484255336,-0.58356202,-0.63608199,0.40156701
13.7366,21786.6307,-3.012,-11.24112,-7.64013,-4.45185,-0.54147,0.28281,8.7,24.0,10.2,-56.351158,170.763885,-88.706886,0.27827465759235004,-0.58706099,-0.65483999,0.38614401
13.754,21786.6507,-2.58821,-10.4127,-8.13575,-5.06333,-0.12242,0.53387,8.4,22.7,12.7,-51.343967,170.625992,-87.431999,0.2451618828205939,-0.59519798,-0.67371303,0.362968
13.7721,21786.6707,-1.04869,-11.06873,-7.21874,-5.58195,0.08222,0.38604,8.4,20.7,16.3,-45.840504,170.812988,-86.47493,0.2121959715495069,-0.60619098,-0.69020998,0.33333999
13.8101,21786.6906,-0.67519,-10.67607,-5.68401,-5.76277,-0.5036,0.28708,8.9,18.2,19.2,-40.021595,171.163971,-85.220856,0.17771540018428195,-0.614847,-0.70733202,0.30010301
13.8183,21786.7106,-1.05588,-9.52682,-6.50285,-5.4891,-0.65754,0.43675,9.0,15.5,21.2,-34.435059,170.896927,-84.16964,0.14151061435079654,-0.62074399,-0.72240299,0.269788
13.8411,21786.7306,-1.73824,-8.5715,-8.03758,-5.34921,-1.04422,0.5748,9.4,13.2,23.8,-29.297028,170.324799,-83.526756,0.10698965401383495,-0.626203,-0.733289,0.242302
13.857,21786.7506,-2.6768,-7.96815,-8.92825,-5.45673,-1.24886,0.75623,10.8,10.3,26.6,-24.307489,169.162781,-83.116409,0.069976857056307,-0.63073701,-0.74142897,0.21807601
13.8819,21786.7706,-1.91781,-6.86678,-8.24828,-5.82447,-0.79071,1.04639,11.4,6.1,27.6,-19.101219,167.90065,-83.104126,0.03167536280831755,-0.63737798,-0.74546897,0.19241101
13.8939,21786.7906,-0.40942,-5.6457,-7.70956,-5.97963,-0.39242,1.00485,11.1,2.0,24.0,-13.548818,167.238754,-83.482841,0.004560661090206505,0.64724499,0.74508399,-0.160944
13.9144,21786.8106,0.04549,-3.88591,-6.74946,-5.6467,-1.26291,0.7886,12.1,-1.0,27.5,-8.119453,166.729187,-83.718773,0.03894541728393736,0.65507901,0.743397,-0.129289
13.9346,21786.8306,-0.79011,-1.83401,-7.13733,-5.18611,-1.70578,0.76539,13.3,-4.4,27.4,-3.236592,165.342834,-83.900085,0.07611947140423339,0.66007799,0.73976499,-0.106069
13.9535,21786.8506,-1.10855,-0.79011,-8.02082,-4.90573,-0.86035,0.76112,13.1,-8.4,25.7,1.198737,163.906647,-84.119743,0.11086852655411068,0.66436201,0.73411298,-0.086078
13.9714,21786.8706,-1.11094,0.14126,-7.93702,-4.83242,-0.54453,0.51127,17.6,-11.8,27.7,5.518277,163.396896,-84.435829,0.13882109101299822,0.66928798,0.72731298,-0.061629
14.0011,21786.8906,-3.11974,0.78053,-8.58108,-4.59113,-0.78154,0.22966,18.3,-15.2,27.8,9.753675,162.903503,-84.23999,0.1662440596578375,0.67020702,0.72237003,-0.036973
14.0329,21786.9106,-3.67282,0.86912,-9.42626,-4.71269,-0.67037,0.36833,13.7,-17.4,21.4,13.837359,161.992035,-83.963066,0.1950758668757843,0.66985202,0.71624303,-0.015479
14.0457,21786.9306,-3.01679,0.65364,-9.33288,-5.07005,-0.95625,0.52471,19.9,-17.0,22.2,18.262398,160.953156,-83.776825,0.22611173071090002,0.66968203,0.70735002,0.007444
14.0543,21786.9506,-3.01918,0.48604,-8.80375,-5.39992,-0.64043,0.70553,15.4,-18.3,16.9,23.024952,159.539703,-83.070801,0.2605063915375582,0.66594601,0.69832098,0.031625
14.0772,21786.9706,-3.28016,0.82842,-8.45418,-5.74689,0.33695,0.71164,19.7,-20.7,17.7,28.079556,158.48877,-82.449699,0.2932369717549611,0.66214901,0.687006,0.059946
14.0923,21786.9906,-4.36476,2.08302,-5.91865,-6.04865,1.62893,0.59068,19.3,-23.2,15.5,33.314392,158.418457,-81.229042,0.31945925792307106,0.65336102,0.67945498,0.096985
14.1184,21787.0106,-5.36796,2.43498,-5.84442,-6.03155,2.1054,0.67254,17.8,-25.0,12.8,38.718952,159.024048,-79.550339,0.3405326966921672,0.63989401,0.67438298,0.140644
14.1421,21787.0306,-4.54194,2.4685,-5.9402,-6.02055,1.58373,0.83808,17.7,-26.6,9.4,44.081314,159.457855,-77.828278,0.3605471907614033,0.62498099,0.66763401,0.183492
14.1538,21787.0506,-3.70873,2.86595,-3.48128,-6.04682,1.57762,1.22537,16.0,-27.0,3.9,49.496513,158.829681,-75.939018,0.3846934780970418,0.60985202,0.65643698,0.22177
14.1727,21787.0706,-3.7231,1.94415,-5.7295,-6.31988,1.9814,1.51431,14.4,-28.9,0.5,55.02652,158.161087,-74.234467,0.40768917756960255,0.59528899,0.64160597,0.26031199
14.191,21787.0906,-3.91943,0.27055,-3.82605,-7.14455,3.51895,1.53936,13.0,-29.9,0.0,60.897011,157.967682,-72.20002,0.4261864974660961,0.57682002,0.62666303,0.304856
14.2112,21787.1105,-4.80292,-0.70871,-0.05507,-7.97288,4.4438,1.598,13.0,-29.9,-4.0,67.405144,157.301468,-68.128632,0.44034970750847535,0.54732901,0.614537,0.35898101
14.2348,21787.1305,-4.48208,-0.04549,3.41663,-8.02053,4.52626,1.59983,9.1,-29.2,-9.1,74.968887,153.700378,-60.340977,0.4538918738473732,0.50803399,0.598454,0.421588
14.2509,21787.1505,-4.31927,0.01437,4.88432,-7.58987,4.19701,1.51859,9.4,-28.0,-13.0,83.684784,140.725647,-43.346146,0.4646967499136828,0.467462,0.56924999,0.49141699
14.2729,21787.1705,-2.94496,0.0431,6.09582,-7.13111,3.927,1.55952,9.1,-27.6,-16.5,85.93013,32.961685,68.034927,0.4734319334032927,0.42556399,0.537709,0.55283499
14.2942,21787.1905,-1.20193,-0.40703,7.46056,-7.114,5.20738,1.63526,10.4,-24.9,-19.4,78.597664,5.109264,99.637756,0.4772268684444324,0.381892,0.505674,0.60885698
14.3141,21787.2105,-2.17161,-0.95771,14.39199,-7.26977,5.1298,1.18567,10.8,-22.6,-22.3,70.08696,3.574006,106.311226,0.4763692782386366,0.323715,0.474599,0.66561002
14.3375,21787.2305,-0.09098,2.52357,22.36013,-5.65953,2.53118,0.642,11.7,-20.7,-23.6,59.860638,6.420676,108.08709,0.48544431407505323,0.25322101,0.431743,0.71681303
14.3617,21787.2506,-0.80208,4.29772,22.8318,-2.47754,-1.22687,-0.11364,12.1,-18.6,-23.7,52.311779,6.751013,108.737289,0.5009085662373923,0.213403,0.388455,0.743406
