AppTimestamp(s),SensorTimestamp(s),acc_x,acc_y,acc_z,gyro_x,gyro_y,gyro_z,mag_x,mag_y,mag_z,PitchX,RollY,YawZ,Quat_w,Quat_x,Quat_y,Quat_z
0.0659,88700.7844,-0.71587,4.69742,8.01339,-0.31215,-2.14597,-2.18384,8.34,-29.94,-11.46,40.798904,8.864115,151.662613,0.2026240989168646,0.01483819,0.35467827,0.91264814
0.0697,88700.8043,-1.14443,4.50589,8.3414,-0.23152,-2.23638,-2.21866,9.06,-29.58,-11.94,39.818913,8.457955,148.566742,0.22982297356399717,0.0252499,0.34569219,0.90941781
0.0753,88700.8243,-1.26893,4.04859,8.01339,-0.15027,-2.43124,-2.13375,10.08,-28.56,-12.66,38.942539,7.86178,145.439392,0.25757945765995754,0.03706761,0.3367385,0.9049232
0.0778,88700.8444,-0.99359,4.44364,7.97269,-0.26817,-2.23088,-2.069,10.62,-27.96,-13.44,38.158916,7.050138,142.423386,0.28477629212521893,0.0500682,0.32759064,0.89948875
0.0859,88700.8643,-0.73502,4.24731,7.28556,-0.55528,-2.18445,-2.03479,11.34,-27.36,-14.46,37.290028,6.345104,139.545685,0.31049320672461134,0.06116128,0.31765798,0.89383817
0.1044,88700.8843,-1.22583,5.26964,7.82186,-0.77274,-2.16979,-2.06656,12.0,-26.7,-15.18,36.213345,5.599709,136.741745,0.33581370809266525,0.0712593,0.30567279,0.88809651
0.1272,88700.9044,-0.77572,5.08768,8.31027,-0.75442,-2.67987,-2.12764,12.36,-26.16,-15.72,35.04073,4.695351,133.920776,0.3615503863496908,0.08177318,0.29208717,0.88163459
0.1611,88700.9243,-0.8667,4.77883,10.89362,-0.70738,-2.65299,-2.20889,13.02,-25.38,-16.62,33.885586,3.285531,131.019562,0.38877985752872624,0.09579744,0.27645764,0.87363851
0.1639,88700.9443,-0.90501,3.31358,11.70286,-0.45754,-2.04029,-2.03052,13.08,-24.78,-17.58,32.706684,2.136606,128.034317,0.41558577711650946,0.10724881,0.26089522,0.86470795
0.187,88700.9644,-0.98162,4.7908,10.10353,-0.07391,-1.85459,-1.87291,13.2,-24.12,-18.66,31.973717,1.495584,125.343773,0.43809935923556176,0.1152831,0.25041711,0.85561091
0.2037,88700.9843,-1.21625,6.1531,8.83221,0.21502,-2.29074,-1.97432,13.08,-23.34,-19.32,31.813963,0.795579,122.766953,0.4589237591051927,0.12540315,0.24378861,0.84512138
0.2239,88701.0043,-0.77333,5.5737,8.03734,0.0788,-2.36466,-2.04212,12.6,-22.38,-20.28,31.993876,-0.312904,120.047882,0.48094034533952523,0.1399665,0.23740959,0.83231151
0.2462,88701.0244,-0.47645,1.24977,6.61997,-0.69639,-1.93583,-1.934,12.54,-21.54,-20.64,31.746832,-1.26892,117.188393,0.503780053408874,0.15160835,0.2278783,0.81932414
0.2659,88701.0443,-1.98479,4.02226,6.13394,-2.01402,-1.40927,-1.73852,12.36,-20.7,-21.48,30.533392,-1.501521,114.473259,0.5249295861945916,0.15311423,0.21456306,0.80930072
0.2898,88701.0643,-2.46603,4.707,11.21923,-2.40742,-0.91447,-1.27793,12.54,-19.8,-22.62,27.993896,-1.40212,112.112068,0.5442172456982419,0.14489485,0.19400738,0.80323982
0.3086,88701.0853,0.19632,4.01508,14.08748,-1.61757,-1.15087,-1.40438,12.54,-19.14,-23.7,25.310131,-1.410203,110.405006,0.5589857410132003,0.13487512,0.17303789,0.79962587
0.3259,88701.1053,0.59616,4.67109,15.6102,-0.20281,-0.64263,-1.54732,12.84,-17.94,-25.14,23.687956,-1.803126,108.56813,0.5738900557696965,0.13230507,0.15763424,0.79265189
0.3466,88701.1254,0.50996,4.4987,11.87764,0.80756,-0.45693,-1.68904,12.84,-16.8,-25.56,23.745993,-1.577333,106.724869,0.5862013930949945,0.13357435,0.15703975,0.78349495
0.3672,88701.1453,-1.49398,4.48195,8.4635,0.92424,-0.87354,-1.80816,12.9,-15.84,-26.28,24.759054,-1.194633,104.589676,0.599113807406348,0.13916731,0.16337882,0.77136403
0.3878,88701.1653,-2.70784,4.3766,9.34936,0.60659,-1.13132,-1.55221,12.84,-15.18,-26.28,25.687382,-1.122363,102.244431,0.6136228462663732,0.14695138,0.16704936,0.75760597
0.4081,88701.1854,-2.3535,3.90255,10.18015,0.56139,-0.76847,-1.16675,12.9,-14.64,-26.58,26.231964,-1.116514,100.196869,0.6264028835174332,0.15283705,0.1679882,0.74568105
0.4287,88701.2053,-2.11169,4.80277,7.6399,0.38729,-0.70005,-0.95539,12.9,-14.28,-26.7,26.834013,-0.831868,98.53701,0.6359657112393036,0.15675423,0.17121953,0.73597527
0.451,88701.2253,-3.12443,5.31513,7.87932,0.32681,-0.98716,-0.62125,13.08,-14.4,-26.64,27.25577,-0.53478,97.05114,0.6444568876814168,0.15944104,0.1735293,0.7274211
0.4662,88701.2454,-1.76453,6.16746,10.25197,0.86682,-2.08794,-0.56688,13.26,-14.22,-26.7,27.761856,-1.061903,95.984573,0.6513106862395149,0.16722941,0.17223436,0.71983612
0.486,88701.2653,-0.68714,5.70299,11.61906,1.5406,-2.03418,-0.7813,13.14,-14.52,-26.76,28.93903,-2.671773,94.900108,0.6588964682435399,0.18555087,0.16875713,0.70918781
0.5085,88701.2853,-0.90501,5.15711,10.68053,1.96149,-1.19241,-0.76358,12.72,-14.82,-27.12,30.75185,-3.826808,93.632996,0.6659300866449931,0.20482618,0.17119974,0.69661611
0.5349,88701.3063,-1.95127,5.00628,7.52019,1.83565,-0.0507,-0.63835,12.36,-15.24,-27.3,33.023548,-3.854745,92.398689,0.6701316659678105,0.2198801,0.182696,0.68498063
0.5513,88701.3264,-4.10127,5.9879,5.37738,1.27793,-0.26817,-0.56566,11.94,-16.02,-27.48,34.956413,-2.705651,91.052467,0.6731111238450431,0.22642539,0.19847995,0.67546922
0.5674,88701.3463,-3.83791,5.81791,7.4747,0.77702,-0.49786,-0.36591,11.58,-16.68,-27.12,36.219204,-1.885442,89.705299,0.6773212026371871,0.23135787,0.20811236,0.66663241
0.5867,88701.3663,-3.84269,4.78362,9.81862,0.88575,-0.32681,-0.15882,11.46,-17.46,-26.46,36.900486,-1.211874,88.549538,0.6814954819180948,0.23359102,0.21374027,0.65978348
0.6064,88701.3863,-4.28323,5.03501,10.64223,1.64567,-0.14233,0.15577,10.98,-18.06,-25.92,37.759789,-0.500863,87.731041,0.6831529746188528,0.23615849,0.22125052,0.65465975
0.628,88701.4063,-1.53947,4.87938,10.36689,2.62367,0.281,0.21625,11.16,-18.42,-25.74,39.479145,0.004199,87.436371,0.6802688290817496,0.24408095,0.23344477,0.6505093
0.6516,88701.4263,-1.44131,2.83713,7.56568,2.93093,0.90958,0.15149,11.1,-19.08,-25.14,42.009106,1.103627,87.032883,0.6745818406675191,0.25373107,0.2533184,0.64528263
0.6686,88701.4463,-3.31118,6.86418,6.65588,2.0183,1.04519,-0.18692,11.22,-20.22,-24.54,44.525684,2.928728,86.285187,0.6684214875657994,0.2601712,0.27623978,0.63969934
0.6879,88701.4673,-5.70299,8.10916,6.27281,1.37567,2.58029,-0.01283,11.58,-21.3,-23.46,46.326294,5.910248,84.847214,0.6640892704817247,0.25800148,0.29999211,0.63437009
0.7084,88701.4874,-3.15795,4.8315,2.91853,0.90591,2.28525,0.14783,11.7,-22.32,-21.84,47.443832,9.986117,83.798843,0.6554608047392977,0.24508825,0.32695344,0.63514119
0.7284,88701.5073,-4.24492,4.83868,0.95768,0.1967,0.96517,0.22602,12.24,-23.04,-20.58,48.185635,13.355166,82.786163,0.6488054346436128,0.23397233,0.34772456,0.6351347
0.7497,88701.5283,-6.65109,2.99036,6.86418,-1.37139,2.50577,0.81673,13.14,-23.22,-19.44,47.77293,15.064914,82.243568,0.6479388867674288,0.22357628,0.35429829,0.63613015
0.7701,88701.5483,-4.98952,3.26569,5.22654,-1.92361,2.61634,1.56931,13.74,-23.52,-19.14,45.885479,17.69343,83.83873,0.6370214868641582,0.19198421,0.36271006,0.65252364
0.7928,88701.5683,-4.81474,2.67911,7.15627,-2.06167,2.18568,1.86558,14.34,-23.82,-18.9,43.697937,19.107405,86.85984,0.6222378856668757,0.16061665,0.36417344,0.67409199
0.8133,88701.5894,-4.04141,4.98233,9.8282,-1.29748,2.24004,2.17285,14.76,-23.94,-18.54,41.718311,19.670504,90.516548,0.6049078347109753,0.13358347,0.3615548,0.69679272
0.8303,88701.6093,-0.97444,4.69982,8.85136,-0.27917,2.10504,2.10077,14.82,-24.06,-18.72,40.860138,20.054558,94.515259,0.581660609038742,0.11346146,0.36318165,0.71895516
0.8561,88701.6293,0.03591,4.73573,6.20338,0.03543,1.65178,1.99264,14.76,-23.52,-18.24,41.054817,20.346527,97.847893,0.5589768796740545,0.1020866,0.36886624,0.7355684
0.8704,88701.6493,0.89064,4.97036,5.7389,-0.38179,1.23273,1.93156,14.34,-23.76,-17.88,41.48708,19.889643,101.12664,0.5378793783680172,0.09687278,0.37202862,0.75026405
0.8897,88701.6693,1.88424,5.40371,7.51061,-0.8882,1.13621,1.68293,13.92,-24.0,-18.06,41.416595,18.649551,104.733734,0.5182319323818281,0.09303477,0.36888087,0.76596808
0.9124,88701.6893,1.74537,4.22337,10.11311,-0.9951,1.48501,1.41843,13.56,-24.96,-17.52,40.613129,17.354618,108.209236,0.5011589290951337,0.08652318,0.36087596,0.78174293
0.932,88701.7093,1.05345,2.97599,9.60793,-0.80146,2.19056,1.68477,13.14,-25.86,-17.16,39.610722,16.747921,111.567314,0.48261321496959725,0.07519321,0.35424337,0.79745978
0.9516,88701.7303,3.03345,2.84671,7.74285,-0.61758,2.03479,2.20461,13.02,-25.92,-17.28,38.916317,16.273947,115.68631,0.45687103190820805,0.06253047,0.35020739,0.81529969
0.9711,88701.7504,4.76925,3.14359,6.26802,-0.51313,1.17225,2.35183,12.66,-26.4,-16.8,38.596405,14.823479,120.289635,0.4289383388420287,0.05755135,0.34483868,0.83293819
0.991,88701.7703,5.56891,5.13077,7.12275,-0.6072,0.41172,2.35794,12.0,-26.1,-16.8,38.417171,12.104721,125.075539,0.40228126856231,0.0625334,0.33622345,0.84924269
1.0099,88701.7903,7.71412,6.36618,8.37971,-0.66401,0.20831,1.92423,11.46,-26.28,-16.86,38.076458,8.612093,129.772736,0.37789029210417324,0.07378551,0.32465255,0.8639186
1.0309,88701.8104,7.8051,6.4404,8.90882,-0.57849,0.00916,1.26571,10.68,-26.76,-16.8,37.511719,5.41067,133.628403,0.3584405589016547,0.08536899,0.31283358,0.87542427
1.05,88701.8303,6.6056,6.06691,8.82024,-0.38668,0.01283,0.8827,10.14,-26.58,-17.28,36.920887,2.724176,136.44101,0.34485384677403125,0.09651712,0.30232981,0.88337815
1.0862,88701.8503,5.67665,5.7389,7.93438,-0.1405,-0.13439,0.78496,9.72,-27.12,-17.52,36.508217,0.414801,138.633621,0.3343632842285428,0.10741683,0.29425567,0.88886243
1.0984,88701.8704,6.14592,6.6463,7.44836,-0.07514,-0.3598,0.71227,9.12,-27.66,-17.82,36.357941,-1.95034,140.642899,0.32488812043318094,0.12026916,0.28827763,0.89268082
1.114,88701.8903,7.08923,7.32147,7.25683,-0.22419,-0.53084,0.46181,8.64,-27.78,-18.12,36.266239,-4.412943,142.440018,0.3170641407399979,0.1347609,0.28265905,0.89521712
1.133,88701.9103,7.29034,8.08043,7.85777,-0.43127,-0.9444,0.13806,7.92,-28.32,-18.3,36.00676,-6.780183,143.7164,0.31297452162512956,0.14951038,0.27568379,0.89648873
1.1541,88701.9304,8.41562,9.27035,10.73321,-0.37446,-1.32375,-0.24557,7.68,-28.32,-18.78,35.585201,-9.237184,144.430267,0.3133191589316979,0.16603889,0.26660562,0.89620513
1.1732,88701.9503,8.28873,10.12268,12.88799,0.18815,-1.31275,-0.98533,7.26,-27.9,-19.14,35.36599,-10.43294,143.738464,0.32150112584407375,0.17645375,0.26051715,0.89310241
1.1978,88701.9713,6.48589,9.85214,11.20008,0.73731,-1.48196,-1.6921,6.9,-27.54,-19.14,36.04303,-11.063412,142.053238,0.33594061325923225,0.1868051,0.26139951,0.88539147
1.2144,88701.9913,5.05895,9.00459,10.12029,0.89675,-2.01708,-1.99142,7.08,-27.54,-19.2,37.339653,-11.537124,139.710144,0.35482760100942917,0.19908391,0.26621518,0.87383777
1.2349,88702.0123,5.64792,8.97107,10.87446,0.89125,-2.30968,-2.19423,6.96,-27.72,-19.14,38.821365,-12.340977,137.0401,0.3766024396003405,0.21532533,0.27034095,0.85948902
1.2563,88702.0333,5.39414,8.72686,11.30542,0.96028,-2.13864,-2.65787,7.26,-27.9,-18.78,40.485451,-13.0747,133.833099,0.4017016480748974,0.23304027,0.27434528,0.8420586
1.2778,88702.0541,4.27126,7.9272,10.65899,1.0849,-1.96149,-3.09953,7.8,-28.26,-18.84,42.48048,-12.948502,129.661636,0.43084520224217404,0.2482108,0.28109494,0.82082242
1.2986,88702.0743,3.52905,6.57927,9.31344,1.26266,-2.02807,-3.56684,8.1,-28.26,-18.78,44.272305,-12.564139,125.440262,0.4586502199853905,0.26175308,0.28643242,0.7994259
1.319,88702.0953,2.91614,5.07331,7.64947,1.39644,-2.2266,-3.99445,8.88,-27.54,-18.9,46.136196,-11.73227,120.515366,0.4888124505123294,0.27501142,0.29177696,0.77478856
1.3395,88702.1163,-0.39744,1.61609,6.69658,1.36345,-2.45629,-4.21986,9.78,-27.6,-18.9,48.126366,-9.984698,113.893219,0.5258724565237878,0.28814855,0.29711989,0.74306685
1.3606,88702.1373,-2.29604,1.25217,7.33344,1.29198,-2.28525,-3.66092,10.92,-26.82,-18.48,49.433479,-7.891474,107.326233,0.5601493865873902,0.29752234,0.29898918,0.71296465
1.3813,88702.1581,-2.04944,0.61292,5.30555,1.53572,-2.38787,-3.3958,11.88,-25.86,-18.3,50.536007,-5.470769,100.559288,0.5929086024396778,0.30566111,0.30037019,0.6817686
1.4043,88702.1793,-1.96325,0.75178,3.41174,1.59253,-3.19605,-3.25836,13.02,-25.38,-17.94,51.414635,-3.412367,94.414276,0.6213149777406175,0.31423992,0.2999436,0.65211564
1.4226,88702.1993,-2.30801,1.01993,3.17711,1.45325,-4.01033,-3.22964,14.04,-24.78,-17.52,52.246864,-1.874396,87.734322,0.6522059829019896,0.3275727,0.29449901,0.61692286
1.443,88702.2194,-3.03824,1.13006,3.00712,0.82589,-4.3683,-3.21804,14.94,-24.3,-17.88,53.352612,-1.213925,81.401855,0.680490283689814,0.34651288,0.28557211,0.5790599
1.465,88702.2404,-5.11162,0.80924,3.92649,-0.23335,-4.43427,-3.11053,15.54,-23.94,-18.0,53.495461,-0.277483,74.549683,0.7112507826075755,0.35944152,0.27085423,0.53996491
1.4842,88702.2603,-9.15782,-0.41899,10.12508,-0.86132,-3.64809,-2.68048,15.84,-23.28,-18.3,51.519657,1.805458,66.591446,0.7489326247922083,0.35542503,0.2504085,0.50006855
1.5052,88702.2813,-9.15543,-0.30406,10.02452,-0.70677,-2.53326,-1.5797,15.84,-21.78,-19.86,48.892635,3.799359,60.467411,0.7791825491006849,0.34215754,0.23433876,0.46998736
1.5255,88702.3013,-9.19373,0.62249,8.68856,-0.82528,-1.6811,-0.59682,15.42,-20.76,-20.76,46.540005,5.153528,56.735241,0.7990827912125159,0.32764953,0.22385716,0.45166409
1.5498,88702.3223,-8.01579,2.23379,7.45076,-1.54671,-0.89614,0.26878,14.88,-19.92,-22.38,44.058861,6.034861,54.945084,0.8122076270289165,0.30981305,0.21608846,0.44456768
1.5628,88702.3423,-6.92164,4.48913,9.50259,-2.1924,-0.36224,0.47159,14.34,-18.78,-23.94,41.127144,6.558148,54.726501,0.8209268591447927,0.28681946,0.20874171,0.4474825
1.5835,88702.3624,-8.02536,4.60884,11.03009,-2.55953,0.26939,0.2645,13.26,-18.24,-25.02,37.744953,7.372274,54.924866,0.8282849388091577,0.25836423,0.20284113,0.45392451
1.6058,88702.3823,-9.21289,3.1795,11.44668,-2.89245,0.92729,0.49358,12.96,-17.52,-26.34,34.069817,8.86102,55.256069,0.8340799611224174,0.22452371,0.20088449,0.46210945
1.6246,88702.4023,-8.83939,2.75094,12.10987,-3.24308,1.42209,1.11422,12.9,-16.26,-27.18,30.172983,10.620535,56.403152,0.8358803565458679,0.18616614,0.20122384,0.47555774
1.6444,88702.4224,-7.70215,4.02705,14.76025,-3.29012,1.62307,1.73119,12.36,-15.36,-27.48,26.591278,11.48702,59.077385,0.8311060118448511,0.15106383,0.19754553,0.49741158
1.6629,88702.4423,-6.05494,5.34865,17.36754,-2.73668,1.92178,2.16857,13.08,-13.92,-28.08,23.437202,12.089889,62.651577,0.8206493337371378,0.11892366,0.19309019,0.5245074
1.687,88702.4623,-4.41251,6.18183,17.41063,-1.91995,2.26448,2.45995,13.14,-12.66,-28.08,21.148306,13.120052,66.503563,0.8051901273519734,0.09087878,0.1938785,0.55301088
1.7031,88702.4824,-2.76051,7.04135,16.69238,-1.29687,2.46606,2.74034,13.86,-11.88,-28.08,19.871405,14.550224,70.457504,0.7855230066588794,0.06785582,0.20061883,0.58146477
1.7227,88702.5023,-0.98641,7.57286,16.09382,-0.80329,2.59129,2.85518,15.18,-11.16,-28.5,19.415766,16.182343,74.460312,0.7626382172923274,0.04898852,0.21146657,0.60931516
1.7446,88702.5223,-0.22984,7.25683,15.19121,-0.33842,2.30113,2.75195,15.9,-11.28,-28.02,19.599302,17.939774,78.229965,0.7384684458898739,0.0335143,0.22527127,0.63466054
1.7652,88702.5424,-0.66559,6.25605,15.69639,0.34819,1.89979,2.67192,16.38,-11.64,-27.78,20.38826,19.339489,81.619041,0.7149256888006562,0.024011,0.23915023,0.65659112
1.788,88702.5634,-1.44849,5.21218,15.54555,1.10322,1.89796,2.77822,16.86,-12.3,-27.0,22.007498,20.457766,84.627174,0.6915211810111812,0.0215546,0.25535297,0.67537302
1.8093,88702.5853,-0.65122,4.84347,13.93904,1.70492,2.09771,3.08853,17.1,-13.02,-26.1,24.794706,21.711494,87.696373,0.6637459605676677,0.02463092,0.27872241,0.69364864
1.8263,88702.6053,0.39265,4.93445,11.74117,1.9957,2.21927,3.2272,17.52,-14.34,-25.02,28.212591,22.971344,90.545921,0.6343623377860919,0.03087525,0.30559191,0.70939744
1.8463,88702.6254,1.31442,5.14275,9.41161,2.0861,2.05862,3.23148,17.94,-15.66,-23.58,31.585619,23.262098,93.651192,0.6048590548351319,0.0409155,0.32714128,0.72487932
1.8658,88702.6453,1.12288,5.0781,7.96072,2.07816,1.74341,3.09037,18.06,-17.22,-22.32,34.903561,22.89793,96.919243,0.5754778535864399,0.05319026,0.34557986,0.73930413
1.886,88702.6653,0.38547,4.38139,7.24485,2.11726,1.52289,2.99263,17.4,-19.26,-20.76,38.07505,22.029821,100.223801,0.5472267870990782,0.06674217,0.36149827,0.75193572
1.9052,88702.6853,-0.08619,3.09331,6.57927,2.11543,1.61024,2.97797,16.74,-21.06,-19.62,41.069729,20.821617,103.687431,0.5191848516430586,0.08008104,0.3758325,0.76340294
1.9247,88702.7053,-0.17957,1.57778,5.01346,1.83565,1.94255,3.1313,15.66,-23.1,-18.06,43.748348,19.509459,107.447647,0.490251614912338,0.09049726,0.38904449,0.77466637
1.945,88702.7253,0.45969,0.73741,2.86347,1.22478,2.14414,3.3848,14.88,-24.84,-16.5,45.990131,17.899498,112.061615,0.45768476261472524,0.09685154,0.40005422,0.78809965
1.9646,88702.7454,1.39343,0.45969,1.69988,0.55222,1.98226,3.52958,14.46,-26.4,-14.88,47.530598,15.626565,117.728226,0.42193809165233404,0.09994546,0.40606782,0.80441785
1.9868,88702.7653,2.45406,0.52672,1.96085,0.00489,1.71592,3.48254,13.26,-27.6,-13.02,49.017769,13.573855,123.363129,0.38544739694409336,0.10074592,0.41363865,0.81864744
2.0055,88702.7852,3.25611,0.65841,3.06697,-0.34331,1.62612,3.20399,12.12,-28.98,-12.18,49.753239,10.97192,129.288544,0.3503817530976269,0.10094313,0.41554192,0.83328748
2.0257,88702.8054,3.56975,0.2897,4.11324,-0.54367,1.75685,2.82647,10.08,-29.94,-11.28,49.904713,8.605968,134.859314,0.31778211423798275,0.09864559,0.41456541,0.84700596
2.0471,88702.8253,4.09648,0.50039,4.38618,-0.75503,1.91934,2.55953,8.46,-30.54,-11.16,49.5117,6.532451,140.165833,0.28641923873244085,0.09377573,0.41069144,0.86052465
2.0994,88702.8463,4.84826,1.14682,3.57454,-1.06168,1.89674,2.25348,6.84,-31.62,-11.04,48.484558,4.352468,145.511322,0.25521985494155164,0.08856393,0.40212089,0.87482458
2.1048,88702.8673,4.76925,1.17795,2.71263,-1.48196,1.38361,1.97065,5.28,-31.8,-10.98,46.942394,2.430296,150.541962,0.22499018004798746,0.08242821,0.3900589,0.8890664
2.108,88702.8873,5.78439,1.28329,4.76207,-1.83565,0.77091,1.90285,4.08,-31.98,-11.34,44.259697,-1.267199,156.089188,0.19595330702126215,0.08805159,0.36639127,0.9053213
2.1405,88702.9073,7.8434,2.38941,6.61278,-1.96149,0.88759,1.79411,2.82,-32.04,-11.52,41.235561,-4.761748,160.71431,0.17106336165279534,0.09726533,0.34034431,0.91947949
2.151,88702.9283,8.83221,3.5099,7.04374,-1.99692,0.9053,1.43126,1.74,-31.44,-12.0,38.046352,-7.374092,164.58873,0.14726951349293696,0.10385992,0.31418708,0.93210047
2.1697,88702.9484,9.32302,4.20422,8.13789,-1.89735,0.34453,1.19485,0.54,-30.9,-12.84,35.084469,-9.362305,167.370071,0.1289771719909504,0.11038575,0.2900213,0.94184262
2.1925,88702.9683,11.04445,5.9472,10.05565,-1.58397,-0.04826,1.01098,-0.18,-30.06,-14.1,32.439583,-11.490775,169.544662,0.11489302457843918,0.12104583,0.26800546,0.94885224
2.2077,88702.9883,12.29901,7.23288,9.98382,-1.20829,-0.03848,0.30177,-1.2,-29.34,-15.36,30.369888,-13.547415,171.146713,0.1047703279346889,0.13356636,0.25054559,0.95310551
2.2277,88703.0084,11.2743,7.55849,8.60237,-1.22112,-0.45448,-0.58643,-1.62,-28.98,-16.8,28.986412,-14.82579,171.532089,0.10308217062270807,0.1428946,0.23827398,0.95508152
2.2581,88703.0283,9.9934,6.96952,9.69891,-1.34451,-1.01526,-1.0965,-1.5,-28.68,-17.88,27.813671,-15.417379,170.452744,0.11217620756517954,0.14957346,0.22651015,0.95589614
2.272,88703.0483,10.12747,7.20415,11.71722,-1.25472,-1.41782,-1.43004,-1.5,-28.2,-18.48,26.695837,-15.833563,168.513733,0.12807608160435582,0.15622328,0.21410486,0.95569342
2.2884,88703.0684,10.16339,7.48667,13.11783,-0.99266,-1.67316,-1.89674,-1.26,-27.84,-19.08,25.857969,-16.510004,166.21344,0.1476579232633766,0.16550298,0.20302883,0.95372176
2.3089,88703.0883,8.70053,7.02698,13.60146,-0.64446,-1.93828,-2.35183,-0.84,-27.36,-20.34,25.532068,-17.28141,163.411652,0.17194305193071951,0.17650577,0.19504043,0.94933689
2.3297,88703.1093,7.24725,6.3997,14.47056,-0.26023,-2.25776,-2.58946,-0.24,-27.06,-21.06,25.779608,-18.283104,160.080826,0.2013603738015647,0.19062856,0.19013882,0.94178659
2.3506,88703.1293,6.08845,5.63356,14.59266,0.27184,-2.31701,-2.75317,-0.06,-27.06,-21.9,26.600941,-19.48386,156.818436,0.23084547263972183,0.2068706,0.18903053,0.93176305
2.3707,88703.1503,4.77404,4.78122,12.88081,0.70127,-2.25593,-2.89245,0.78,-26.94,-22.68,28.102301,-20.653704,153.565674,0.26057823135506897,0.22390553,0.19276708,0.91913337
2.3916,88703.1703,3.58891,4.15633,10.73321,0.83017,-2.24982,-3.01279,1.02,-26.4,-22.86,30.210312,-21.722107,150.087158,0.2921429881123814,0.24180445,0.20030329,0.90336132
2.4156,88703.1913,2.14042,3.45244,9.47386,0.73059,-2.32007,-3.17528,1.5,-25.98,-22.86,31.941051,-22.61138,146.607742,0.3225131934498101,0.25804454,0.20428067,0.88750643
2.4311,88703.2114,0.31125,2.62165,9.38527,0.63713,-2.23577,-3.24797,2.04,-25.98,-22.86,33.665104,-23.124708,142.484283,0.3565038795954136,0.27288595,0.20693891,0.86926091
2.4517,88703.2313,-0.96965,2.62405,9.47146,0.52718,-1.81488,-3.20949,2.34,-25.92,-22.44,35.131954,-22.938534,138.235535,0.3891106034744314,0.28254762,0.20877713,0.85157025
2.4712,88703.2513,-1.74537,2.81798,9.51216,0.32315,-1.12277,-3.20949,3.0,-26.1,-21.96,36.379265,-21.801615,133.747833,0.4206856013920257,0.28561386,0.2113362,0.8347367
2.4934,88703.2723,-3.24893,2.86825,8.74841,0.02932,-0.30971,-3.0696,3.54,-26.4,-21.66,37.325058,-19.307344,128.798523,0.4519729689100894,0.27958813,0.21584272,0.81912321
2.5166,88703.2924,-4.4173,2.84431,8.15226,-0.17287,0.18876,-2.77394,4.62,-26.4,-21.3,37.694992,-15.758373,123.907036,0.4798608103536772,0.2649596,0.22142209,0.80653721
2.5323,88703.3123,-5.01346,2.70545,7.48427,-0.20831,0.45448,-2.33167,6.0,-26.34,-21.6,37.598995,-11.760862,119.386635,0.5036977464552624,0.24549706,0.22781008,0.79631799
2.553,88703.3323,-5.06374,3.055,6.83305,-0.20097,0.42944,-1.79106,7.14,-25.92,-21.6,37.231613,-7.876945,115.491539,0.5231031452222361,0.22500569,0.23458584,0.78784835
2.5722,88703.3524,-4.68306,3.84988,6.7708,-0.20159,0.32315,-1.36467,8.46,-24.96,-21.6,36.731613,-4.538021,112.388878,0.5379882904969319,0.20638908,0.24070089,0.78104752
2.5936,88703.3723,-3.56257,4.83629,7.52498,-0.19792,0.08796,-1.10872,9.54,-24.12,-21.72,36.19622,-1.867255,109.985001,0.5493746944617655,0.1908742,0.24552324,0.77554679
2.6158,88703.3923,-2.46603,5.1595,8.81545,-0.12156,0.09957,-1.01831,9.96,-23.52,-21.48,35.667946,0.130919,108.042549,0.5589714733227956,0.17904276,0.24847499,0.77055484
2.6399,88703.4133,-1.652,5.18345,9.27993,-0.04704,0.35919,-0.95723,11.04,-23.52,-21.6,35.212799,1.938962,106.351425,0.5671084147177414,0.16835767,0.25175694,0.76593876
2.6568,88703.4333,-1.83156,4.93445,8.99741,0.01588,0.66157,-0.83078,11.4,-23.7,-21.36,34.824406,3.770972,104.950027,0.5730728185595512,0.1572746,0.25632074,0.76233321
2.674,88703.4534,-1.66158,5.00628,8.15226,0.15882,0.81978,-0.55222,11.82,-23.76,-21.06,34.550259,5.632498,103.940674,0.5760749546115503,0.14577141,0.26253468,0.76023936
2.6947,88703.4744,-0.92656,5.13796,7.05332,0.3091,0.84483,-0.27061,12.6,-23.52,-21.12,34.590485,7.245355,103.460182,0.5754327979342363,0.13640299,0.27030641,0.75974059
2.716,88703.4941,-0.31843,5.55694,6.15789,0.37813,0.74709,-0.05742,13.02,-23.1,-20.58,34.907383,8.432663,103.423035,0.5721853123500855,0.1302921,0.27824068,0.76040125
2.7375,88703.5143,0.42856,6.02381,5.48512,0.36774,0.70738,-0.00305,13.74,-23.04,-20.4,35.348541,9.335923,103.624451,0.5676845578323428,0.12613307,0.28577706,0.76167983
2.7609,88703.5344,0.34716,6.43083,4.58968,0.24068,0.59437,-0.06109,14.46,-22.8,-20.04,35.906746,10.062733,103.886154,0.5628823960540819,0.12358911,0.29320526,0.76283669
2.7747,88703.5543,-0.14605,6.82108,4.53701,0.1014,0.17226,-0.06292,14.34,-22.62,-19.56,36.502037,10.509177,104.104118,0.5589379317683382,0.1231944,0.29941133,0.76339006
2.7955,88703.5743,-0.12689,7.03656,5.47315,0.06536,-0.24251,-0.05437,14.64,-22.56,-19.38,37.024811,10.412341,104.36042,0.5562932979226892,0.12591733,0.30254093,0.76364362
2.8146,88703.5944,-0.05986,7.2688,6.12676,0.15821,-0.49419,-0.0672,14.52,-22.44,-19.14,37.564568,9.867223,104.594948,0.5549420588478435,0.13175628,0.3035945,0.76322341
2.8348,88703.6143,-0.10774,7.31907,6.09324,0.20464,-0.66829,-0.08369,14.4,-22.26,-19.44,38.196243,9.10045,104.771744,0.5543680548403463,0.13968217,0.30411577,0.76202267
2.8545,88703.6343,-0.23703,7.28556,5.6982,0.14355,-0.60598,-0.05803,14.52,-22.26,-18.96,38.867306,8.234159,104.854958,0.5546087149442631,0.14869319,0.30430731,0.76006353
2.874,88703.6544,-0.11013,7.53695,5.14993,-0.06903,-0.49052,-0.01955,14.4,-22.56,-19.26,39.476994,7.44465,104.982101,0.554507810466042,0.15673034,0.3045471,0.75842452
2.8967,88703.6743,-0.08619,8.08522,5.61201,-0.32742,-0.39218,-0.06109,14.52,-22.56,-19.8,39.848343,6.741654,105.160713,0.5543751439094012,0.16281107,0.30376837,0.75755233
2.9165,88703.6943,-0.25379,8.09719,6.12916,-0.4215,-0.30177,-0.12401,14.46,-22.56,-19.8,39.965862,6.207341,105.227974,0.5550875454734726,0.16676426,0.30203104,0.75686508
2.9365,88703.7144,-0.47166,8.04691,6.00705,-0.41417,-0.24984,-0.13439,14.46,-22.32,-20.22,40.00396,5.860617,105.194824,0.55613606902825,0.16933464,0.30054554,0.75611562
2.9552,88703.7343,-0.62728,8.26718,5.88495,-0.4496,-0.36346,-0.16188,14.7,-22.08,-20.04,40.06295,5.583879,105.081383,0.557482369656534,0.17175689,0.29941025,0.75502747
2.9811,88703.7543,-0.80206,8.29351,6.3159,-0.45326,-0.52901,-0.26206,14.94,-21.6,-20.16,40.06974,5.237391,104.863197,0.5598063476191784,0.1746403,0.29743484,0.7534256
2.9948,88703.7744,-1.07021,7.94636,7.34302,-0.3769,-0.50824,-0.38729,14.88,-21.3,-20.28,40.009544,4.889428,104.409195,0.5638121134916624,0.17778927,0.29464534,0.75079358
3.0167,88703.7942,-1.82199,7.30471,7.45076,-0.30238,-0.35675,-0.43738,14.88,-21.24,-20.46,39.948677,4.8255,103.704063,0.5687136202622812,0.17970179,0.29284117,0.74733937
3.0347,88703.8143,-2.33435,6.65349,7.14669,-0.34331,-0.18631,-0.40745,14.4,-20.82,-21.06,39.841934,5.05208,102.908836,0.5735366160202715,0.17970341,0.29204574,0.7439568
3.0553,88703.8353,-2.42772,6.29436,6.82108,-0.51374,-0.14722,-0.39279,14.34,-21.12,-21.6,39.576176,5.486165,102.066872,0.5784577440340295,0.17764141,0.29123831,0.74095237
3.0768,88703.8553,-2.81079,5.69341,6.87615,-0.62736,-0.09468,-0.40317,14.4,-20.94,-21.96,39.092632,6.009815,101.256729,0.5834112027663512,0.17375223,0.28961912,0.73862189
3.0953,88703.8754,-3.44765,4.81474,6.50026,-0.63897,-0.13195,-0.33598,14.22,-20.64,-22.56,38.461311,6.705884,100.388046,0.5886339072892277,0.1680764,0.28794903,0.73644131
3.1151,88703.8953,-4.2521,4.06057,6.01184,-0.61575,-0.1686,-0.11118,14.46,-20.34,-22.44,37.770187,7.409673,99.572403,0.5936386137048619,0.16185129,0.28612536,0.73452681
3.1351,88703.9153,-6.0717,4.01508,5.58328,-0.62369,-0.2645,0.22969,14.22,-19.56,-22.2,37.085407,8.13063,98.98568,0.5971322839916337,0.1549384,0.28484145,0.73368418
3.1549,88703.9354,-7.77158,4.34308,5.60004,-0.60109,-0.48075,0.75136,13.92,-19.26,-22.2,36.439785,8.706711,98.779205,0.5984763879780848,0.14819393,0.28360742,0.73445994
3.1748,88703.9553,-8.22648,4.75967,7.52976,-0.54306,-0.96639,1.21257,14.1,-18.96,-22.62,35.840092,8.711415,99.206367,0.59705947183866,0.14379653,0.28048414,0.7376796
3.1948,88703.9753,-7.49385,5.87298,11.1474,-0.39462,-1.04824,1.653,13.44,-18.54,-23.16,35.30822,7.781381,100.279327,0.5935308768111615,0.14429155,0.27369645,0.74296117
3.2153,88703.9954,-6.32069,6.70855,14.88715,-0.10629,-0.60476,2.02685,12.84,-18.54,-23.64,34.892372,6.410056,101.961815,0.5866554797237334,0.14701925,0.26614884,0.75059009
3.2356,88704.0153,-3.98395,7.00783,17.22868,0.35125,0.06231,2.37077,12.06,-19.08,-24.3,34.977962,4.532234,104.569374,0.5736043004882876,0.15386401,0.26061586,0.76117235
3.2548,88704.0353,0.02873,7.70215,17.91342,0.78069,1.28954,2.51676,11.22,-19.44,-24.36,35.691517,2.963555,107.781372,0.554382247842531,0.1606562,0.262007,0.77343535
3.2825,88704.0554,2.30083,7.93917,14.92066,0.85582,2.35672,2.39459,10.14,-20.16,-24.6,36.758766,2.737811,111.090759,0.530529582411875,0.15964144,0.27274656,0.78655088
3.2991,88704.0753,3.38301,7.93199,12.60308,0.88148,2.72324,2.21255,9.12,-20.52,-24.66,37.882355,3.549159,114.182304,0.5052000577593431,0.15168002,0.28829405,0.79915744
3.3179,88704.0953,5.55934,8.6694,10.29507,0.96761,2.55342,1.78067,8.4,-20.82,-24.66,39.083981,4.778047,116.906845,0.48074263780016324,0.14137655,0.30536869,0.80972165
3.3399,88704.1163,6.1124,8.47069,9.26795,1.04458,2.08916,1.1301,7.5,-22.08,-24.54,40.350403,5.858426,119.078362,0.4600300295318687,0.1332681,0.32121676,0.81696498
3.3662,88704.1364,5.46836,7.3502,8.93995,1.05985,1.77212,0.75747,8.4,-23.16,-23.94,41.481937,6.256257,120.770958,0.44464669437769705,0.13037762,0.3326413,0.82136518
3.3797,88704.1573,4.8315,6.63433,8.91361,1.11605,1.48685,0.60109,9.48,-25.14,-23.04,42.564526,6.408861,122.168518,0.4320841348427478,0.12963332,0.34240121,0.82417226
3.3985,88704.1774,5.06613,6.34703,8.70292,1.31825,1.16859,0.6634,10.74,-26.4,-21.66,43.771191,6.233496,123.67131,0.41946992356661716,0.13120221,0.3519468,0.82641661
3.418,88704.1973,7.03177,7.16824,8.23605,1.50456,1.16675,0.68722,11.76,-26.82,-19.98,45.17276,5.377782,125.468323,0.40650072309536706,0.13725704,0.36086875,0.82806486
3.4386,88704.2183,8.67898,7.74285,7.16345,1.48013,1.23517,0.34697,12.12,-27.12,-18.48,46.856312,4.333831,127.452591,0.3923957331596281,0.14476573,0.37162527,0.82883239
3.4642,88704.2383,8.61434,7.70933,5.99269,1.40743,1.05619,-0.0788,12.06,-27.18,-16.98,48.415829,3.477597,129.012848,0.38114960609298537,0.15142764,0.38186514,0.82823527
3.4845,88704.2584,8.01339,7.35259,5.72214,1.43553,0.62308,-0.4496,11.88,-27.18,-15.9,49.900948,2.626513,130.076385,0.3737634012656389,0.15913478,0.39109966,0.82584387
3.5053,88704.2783,7.72369,6.6056,5.26006,1.44836,0.51985,-0.83811,12.12,-27.72,-15.0,51.401829,1.691987,130.633835,0.3704265546694972,0.16899323,0.39956215,0.82132548
3.5215,88704.2993,6.65349,5.58328,3.91691,1.27793,0.40073,-1.16614,12.18,-28.38,-13.68,52.950615,1.194059,130.540756,0.370224650013834,0.17801765,0.40880746,0.81493551
3.5463,88704.3193,5.31034,4.51786,3.06697,1.01587,0.02566,-1.24433,12.78,-28.32,-12.72,54.175098,0.702512,130.192001,0.3723704583152314,0.18679394,0.41530097,0.8086862
3.5622,88704.3394,4.62081,3.49793,3.39977,0.84849,-0.37568,-1.20707,13.44,-28.74,-11.82,55.065022,-0.219924,129.819763,0.37682249859771416,0.19755566,0.41791224,0.80269915
3.5815,88704.3603,4.33111,2.56658,3.77566,0.84971,-0.50152,-1.27304,13.8,-28.32,-10.86,55.685749,-1.623453,129.579407,0.3825797711885796,0.21024914,0.41718411,0.79711068
3.6016,88704.3813,3.53624,1.66397,3.27527,0.88637,-0.37507,-1.4563,14.4,-28.56,-10.44,56.304737,-2.796297,128.943893,0.3902447151875245,0.22268386,0.41635835,0.79042184
3.6224,88704.4014,2.3535,0.85234,1.58736,0.74464,-0.27306,-1.58581,15.06,-28.62,-9.78,56.783684,-3.742427,128.308731,0.397279353178771,0.23303434,0.41518456,0.78452909
3.6418,88704.4213,0.71826,0.55306,-0.21787,0.28344,-0.46365,-1.67621,15.48,-28.5,-9.42,57.617767,-1.268308,124.7967,0.4106787481634275,0.23185046,0.42252621,0.77398962
3.6623,88704.4413,-1.38385,0.96486,-1.43892,-0.48136,-1.14232,-1.53816,16.32,-28.14,-9.36,57.753696,1.063396,121.045044,0.42697586412163513,0.23055591,0.4243935,0.76447743
3.6834,88704.4614,-1.98719,1.59214,0.15562,-1.19241,-2.27059,-1.0061,17.4,-27.3,-9.54,56.956535,2.012822,117.847824,0.4464744379180221,0.23286462,0.41629887,0.75705343
3.7029,88704.4813,-0.17957,3.304,3.89776,-1.52411,-3.02439,-0.36163,17.82,-26.1,-9.96,55.446724,0.558406,116.042305,0.46688101309307845,0.2427125,0.39688525,0.75206041
3.7224,88704.5013,1.07021,5.79157,6.42604,-1.52044,-3.29623,0.02871,18.24,-24.84,-10.56,53.693817,-2.53074,115.357124,0.4853513521512505,0.25805193,0.37100926,0.74846202
3.7443,88704.5214,1.95127,9.18176,10.06283,-1.43553,-3.92481,0.14478,18.24,-24.54,-11.94,51.65601,-6.664265,115.399643,0.5015674037032329,0.2766315,0.33967659,0.74600601
3.7621,88704.5413,0.71587,11.90158,15.13854,-1.13071,-4.25162,-0.02932,17.4,-24.18,-13.56,49.704708,-10.931944,114.992607,0.5191374415431201,0.29770723,0.30639008,0.74026471
3.7852,88704.5613,-1.13725,12.89517,17.38669,-0.77091,-3.75988,-0.17471,16.98,-23.94,-15.24,48.20837,-14.710492,113.950302,0.5372234787834416,0.31872389,0.27590859,0.73053437
3.8027,88704.5813,-4.92487,13.16332,17.15446,-0.63102,-3.04516,-0.07453,15.72,-24.24,-17.58,47.46719,-18.366085,113.288277,0.5505362630477029,0.34049138,0.25154835,0.71951294
3.8308,88704.6013,-8.48026,11.62624,16.64449,-0.39951,-2.63161,0.54245,14.58,-24.06,-18.84,46.803871,-21.507616,112.955917,0.5597117147029705,0.35825181,0.23073338,0.7107324
3.8461,88704.6223,-10.63026,9.39964,15.44739,0.20647,-2.63161,1.79289,13.32,-23.58,-19.92,46.152576,-25.203165,113.943283,0.5610558755649004,0.37676907,0.21130109,0.7061255
3.8628,88704.6423,-9.18416,7.8051,12.9263,1.04091,-2.9065,3.30722,11.58,-23.88,-21.12,45.345608,-31.022139,117.465706,0.5495877410072679,0.40370065,0.18940656,0.70647311
3.8853,88704.6624,-4.85065,8.20014,9.26556,1.64628,-3.36953,4.38662,9.66,-23.88,-21.42,44.111732,-38.652206,123.27594,0.5248230653127661,0.43823814,0.1661085,0.71057445
3.9033,88704.6822,-0.35913,9.99579,8.33661,1.8668,-3.31089,4.6664,7.56,-24.42,-21.84,42.022377,-47.408436,130.152359,0.49092235901566095,0.4786846,0.13957533,0.71440536
3.9243,88704.7023,3.14359,11.82017,7.4747,1.49357,-2.34878,3.81058,4.5,-25.68,-22.02,39.4324,-54.74165,136.179993,0.4558468643478775,0.51332802,0.11645705,0.71772957
3.965,88704.7223,2.88741,11.06121,7.7644,0.95906,-1.20829,2.55769,0.96,-26.64,-21.36,37.502396,-58.700069,139.774109,0.43177677841622253,0.53217643,0.10350908,0.72086263
3.9667,88704.7423,0.27533,8.01339,8.40365,0.75381,-0.22419,1.69943,-2.34,-27.6,-20.28,36.745636,-59.435993,141.195679,0.4211787776626003,0.53468078,0.10191086,0.7254923
3.9832,88704.7634,-1.92973,4.35745,8.53294,1.13743,0.54062,1.65178,-5.7,-28.02,-19.14,36.512096,-58.586739,141.88385,0.41531136496667276,0.52839434,0.1065089,0.73278356
4.0029,88704.7833,-2.66953,2.02071,5.99269,1.75868,0.89736,2.16246,-8.22,-27.96,-18.24,36.347576,-57.174202,143.351273,0.40397121170686484,0.51767707,0.1170568,0.74506068
4.0228,88704.8033,-1.56581,0.61052,2.75573,1.99631,1.1301,2.64321,-9.54,-28.02,-18.0,36.070805,-55.920635,145.762451,0.38594974518082004,0.5065667,0.13012026,0.75993532
4.046,88704.8234,-0.83079,1.00078,-1.16837,1.44286,0.95173,2.97797,-10.5,-27.6,-17.88,35.658798,-54.739811,148.687134,0.3636882716011875,0.49479488,0.14371119,0.77605152
4.0648,88704.8433,0.2059,1.78368,-1.28808,0.57666,0.32926,3.1429,-11.34,-27.78,-17.28,33.625492,-55.989983,152.422958,0.33331206644340255,0.49725315,0.14094684,0.78852797
4.0841,88704.8633,1.68791,2.48039,1.62806,0.00611,-0.07636,2.99813,-12.36,-27.48,-16.8,30.882383,-57.243557,155.139862,0.3066753266444308,0.50121784,0.12884794,0.79882985
4.1057,88704.8834,2.68629,3.17711,5.55215,0.08002,0.01283,2.60717,-13.5,-27.24,-15.78,28.048809,-58.343548,157.112717,0.2838479072856187,0.5054813,0.11356607,0.8068592
4.1273,88704.9033,4.11324,3.68468,8.0948,0.45937,0.77946,1.9676,-15.12,-27.3,-15.42,26.251921,-57.5284,158.289398,0.26810035684204364,0.49773884,0.10725132,0.81784803
4.1458,88704.9243,5.41568,4.19225,8.69574,0.67989,2.04823,1.16859,-16.68,-26.34,-15.84,25.094772,-55.826122,159.722626,0.251948583813355,0.48360837,0.10853682,0.83118266
4.1646,88704.9443,5.42287,4.77404,8.20014,0.56505,3.10014,0.55772,-17.16,-25.86,-15.66,24.793055,-52.773083,160.822845,0.23981360977177363,0.46003255,0.11732077,0.84681481
4.1883,88704.9644,6.03578,5.71496,7.88171,0.37507,3.58883,0.06414,-17.88,-25.62,-16.02,24.974213,-48.685028,161.525635,0.23075938268842847,0.42884368,0.12984249,0.86370373
4.2048,88704.9843,7.26401,6.86896,9.73961,0.2474,3.86739,-0.61087,-17.28,-25.62,-16.38,25.469368,-44.144581,161.820267,0.22459824096613204,0.39420256,0.14380953,0.87947643
4.2244,88705.0043,8.74123,7.5968,14.4538,0.45082,4.52224,-1.42026,-16.38,-26.22,-16.98,26.330017,-39.183941,161.519165,0.2226847882541047,0.35672489,0.15935609,0.89317662
4.2469,88705.0244,9.35175,5.9855,13.8744,1.0061,5.51672,-2.07939,-15.24,-26.82,-17.7,27.900557,-33.138145,160.687454,0.22380491175481107,0.31159768,0.18137255,0.90549558
4.267,88705.0443,7.61356,5.25048,9.87848,1.03786,5.20702,-2.27486,-13.68,-27.06,-18.78,29.981285,-26.233639,159.481537,0.2253135277363262,0.2605755,0.20884256,0.91526991
4.2875,88705.0643,6.24647,5.79397,10.47463,0.66035,4.08852,-1.88391,-11.82,-27.48,-19.38,31.721632,-19.977072,158.040222,0.226972788658161,0.21505846,0.23245315,0.92097706
4.3074,88705.0843,7.89847,7.29513,12.3469,0.45571,3.75804,-1.59863,-9.36,-27.72,-19.26,32.932274,-14.481531,156.581299,0.22805344018929416,0.17542088,0.25080636,0.92429179
4.3272,88705.1042,9.19613,8.36055,12.68448,0.3543,3.41779,-1.75685,-6.66,-27.96,-19.86,33.792397,-9.0988,155.048813,0.2285559050163533,0.13668966,0.266487,0.9263168
4.346,88705.1243,8.81306,8.61913,13.40035,0.41783,2.63283,-1.9792,-3.6,-27.96,-19.68,34.426086,-4.035824,153.08902,0.23226386926054549,0.10152777,0.27979764,0.92599076
4.3646,88705.1443,8.54251,7.12514,14.92785,0.76175,2.41475,-2.07022,-1.5,-27.96,-19.02,35.057964,0.441303,150.738647,0.23973411102085404,0.0725226,0.29234725,0.92293072
4.3845,88705.1644,8.18578,6.30393,13.52245,1.1637,2.86496,-2.10077,1.2,-28.02,-18.6,35.942184,5.067025,148.169571,0.24746516765444185,0.04408725,0.30795029,0.91759682
4.4116,88705.1843,7.49625,6.70855,10.96305,1.27121,2.61634,-2.09344,3.3,-27.9,-17.64,36.986397,10.218132,145.364105,0.25421459220513265,0.01341982,0.32674944,0.91018111
4.4301,88705.2053,7.48427,7.39329,10.13466,1.38727,1.8326,-2.12398,5.34,-27.96,-16.74,37.903259,15.072858,142.38974,0.26192102961198016,-0.01364,0.34476459,0.90130389
4.4481,88705.2263,7.73088,6.51702,8.45153,1.42393,1.39338,-2.27425,7.68,-27.84,-15.66,38.785095,19.672791,138.800613,0.27389957910375873,-0.03573405,0.36293542,0.88993257
4.4672,88705.2463,6.42843,5.58567,7.07008,1.2877,1.2932,-2.3616,9.48,-27.72,-14.64,39.453869,21.738836,136.492081,0.28349462053074015,-0.04200875,0.37366229,0.88218057
4.4983,88705.2664,5.31513,5.89452,7.12036,1.33108,0.96333,-2.36527,11.34,-27.84,-13.68,39.975361,23.11459,134.503494,0.29286825410369755,-0.04413886,0.38164231,0.87557358
4.5087,88705.2863,4.56095,4.39575,6.95037,1.67621,0.81123,-2.38604,13.2,-27.66,-12.12,40.542202,24.156956,132.320663,0.304439597275011,-0.04261073,0.3892234,0.86833519
4.528,88705.3063,3.65834,4.16352,4.89135,1.79778,0.9951,-2.50943,15.12,-27.6,-11.04,41.408714,25.370729,129.863892,0.3163324440684727,-0.03992673,0.39945996,0.85951811
4.5491,88705.3264,2.16196,3.63919,3.27766,1.62734,0.66768,-2.64199,16.5,-26.82,-9.3,42.251637,26.897415,127.093796,0.3290840407514503,-0.0380788,0.41047364,0.84956759
4.5684,88705.3463,-0.86191,3.16992,1.97043,1.40988,-0.16432,-2.70125,18.3,-26.1,-7.2,42.764145,28.340067,123.949142,0.34542547108741833,-0.0351279,0.41914725,0.83890575
4.5887,88705.3663,-2.0231,2.29365,2.03268,1.15576,-1.35734,-2.32495,19.86,-25.32,-6.48,42.994873,28.864992,120.848907,0.36530675209529706,-0.02651953,0.42311341,0.82874769
4.6091,88705.3863,-2.87065,1.5682,3.28724,1.11116,-2.37993,-2.32129,20.82,-24.42,-5.82,42.817844,29.370249,117.026375,0.39146783457017115,-0.01684004,0.42437875,0.81631613
4.6301,88705.4073,-3.51469,1.86987,4.59926,1.34085,-2.72751,-1.73913,22.08,-23.46,-5.7,42.673225,28.986464,113.051414,0.421454159034263,-0.00014874,0.42241439,0.80246025
4.6492,88705.4283,-4.06057,2.78924,2.20745,1.21257,-3.75193,-0.95173,22.8,-21.9,-6.06,43.261375,27.672619,109.764671,0.4471217213954701,0.02405813,0.4206579,0.78901857
4.6715,88705.4484,-3.33033,4.43167,4.20422,0.63652,-4.11968,-0.416,23.22,-21.12,-6.48,43.813587,24.536989,107.781815,0.47023317108605334,0.05557806,0.41072553,0.7791639
4.6923,88705.4683,-3.24654,4.0893,8.43477,0.15944,-2.81303,-0.01588,24.0,-20.22,-7.56,43.710495,20.736717,106.752617,0.4908686428811396,0.08438784,0.39353797,0.77269304
4.7089,88705.4883,-1.13725,4.86023,6.3183,-0.33048,-1.55832,0.01955,23.82,-20.1,-8.64,43.383965,18.168219,106.555397,0.5018500234724712,0.10064646,0.38026726,0.77033347
4.73,88705.5084,-0.09577,5.56173,5.2026,-1.30298,-2.41109,-0.82039,23.52,-20.52,-10.2,42.634811,15.875394,106.420731,0.5123542366251644,0.11260072,0.36538765,0.76896429
4.7559,88705.5283,-2.38462,6.73728,5.30795,-2.61756,-3.03967,-0.6744,23.04,-19.92,-11.94,40.591599,13.594194,105.664177,0.529947225386113,0.11963092,0.34152883,0.76694357
4.77,88705.5483,-0.91937,4.77404,6.91445,-3.3958,-4.57599,-0.27122,22.02,-19.98,-13.62,37.360798,9.690763,105.581078,0.5492795685123631,0.12926814,0.3025651,0.76813805
4.7899,88705.5684,-1.49638,2.80361,11.48499,-3.85822,-4.29438,-0.58215,21.42,-19.32,-16.08,33.186382,4.541625,105.570999,0.570148313392187,0.14233939,0.25021225,0.7694571
4.8116,88705.5883,-2.99754,3.83072,15.7754,-2.98774,-2.39704,-0.21319,20.46,-18.3,-18.6,28.64558,0.761384,104.881973,0.589314958255797,0.14569347,0.20002803,0.76907092
4.8291,88705.6083,-2.57137,3.47159,14.2886,-1.74219,-1.05435,0.011,19.2,-17.22,-20.7,25.30545,-1.005772,104.512543,0.598762645048892,0.14084853,0.1679595,0.77034706
4.8492,88705.6283,-2.71263,2.60489,12.25352,-0.52534,-0.62797,0.24374,18.24,-15.12,-22.62,23.421749,-1.430809,104.41227,0.6020219737398247,0.134038,0.15288873,0.77215827
4.8694,88705.6483,-1.81002,3.87142,14.47774,0.36652,-1.36467,0.03482,17.04,-13.74,-24.12,22.842537,-1.964845,104.497986,0.6027039281669964,0.1345052,0.14625889,0.772829
4.8884,88705.6683,0.29449,4.11803,9.14585,0.72815,0.2138,-0.79718,15.78,-12.72,-25.38,23.247404,-2.239067,104.23497,0.6044438079614437,0.13880074,0.14724317,0.77052027
4.9086,88705.6884,-4.96318,5.41329,8.2983,-0.15333,-1.53694,-1.53999,15.54,-12.6,-26.1,23.764978,-1.414326,102.48748,0.6145295792401237,0.13830683,0.15299526,0.7614572
4.9297,88705.7083,-5.1619,4.43885,11.50893,-0.10568,-2.33289,-1.05435,15.12,-12.6,-26.28,23.554245,-1.825118,100.215858,0.6302569165137343,0.14284734,0.14658131,0.74892241
4.9511,88705.7283,-5.30076,3.87142,14.06833,0.29749,-2.65116,-0.83444,15.0,-12.84,-26.76,23.457735,-3.273528,98.496986,0.6432877300170821,0.1538294,0.13567589,0.73763776
4.9731,88705.7493,-6.10282,2.98078,12.94784,0.56688,-2.25165,-0.17165,14.34,-12.72,-27.24,23.747988,-4.788853,97.13224,0.6534747958971961,0.16669583,0.12707217,0.72734851
4.9943,88705.7703,-1.46525,5.06134,15.66766,0.83627,-1.91873,0.43738,13.02,-12.72,-27.78,24.352436,-7.034205,97.011581,0.6561113353316816,0.18439624,0.11795522,0.72222054
5.0132,88705.7903,-0.86191,5.1595,15.13854,1.38117,-1.04275,0.26878,11.76,-13.02,-28.56,25.367796,-9.208953,97.587219,0.6538838447127736,0.20310307,0.11306633,0.72000074
5.0355,88705.8113,-6.14113,3.11964,9.94551,1.58214,-0.85582,1.08734,10.44,-13.56,-28.74,26.783638,-9.617482,97.843765,0.6516064134138413,0.21312559,0.12038989,0.7179783
5.0551,88705.8314,-5.42287,3.52905,9.4978,1.22906,-1.28098,1.94744,10.08,-13.98,-28.62,27.915405,-10.268262,99.041496,0.6438959211250321,0.222014,0.12635708,0.72120851
5.0744,88705.8513,-3.53863,3.58412,10.54646,1.35979,-1.23212,2.43796,9.24,-15.12,-28.74,28.493139,-11.760547,101.180855,0.6315769910212258,0.23213521,0.12609836,0.72891903
5.0959,88705.8713,-3.65834,3.15795,9.46907,1.79961,-1.37384,2.56686,8.7,-16.32,-28.92,29.171934,-13.420926,103.894829,0.6156046388472117,0.24321122,0.12724116,0.7387076
5.1119,88705.8914,-3.35428,2.03747,8.41323,2.27364,-1.9621,2.92055,7.74,-17.04,-28.98,30.115356,-15.481268,106.919182,0.5978209013547029,0.25776616,0.12938505,0.74794805
5.1319,88705.9113,-1.73101,2.57377,5.92565,2.65726,-2.32251,3.11847,6.0,-18.3,-28.62,31.347609,-18.554193,110.626556,0.5765729253025842,0.27936369,0.13090962,0.75655949
5.1517,88705.9313,-1.25456,2.20745,3.45962,2.48256,-2.33351,3.25102,4.14,-19.38,-27.78,32.625019,-22.120325,114.677879,0.5536862323738534,0.30376852,0.13270938,0.76390082
5.1706,88705.9514,-0.09098,2.37026,3.41413,2.14475,-2.40314,3.34571,1.32,-20.7,-27.36,33.387318,-25.860588,118.909035,0.5298164983245703,0.32687789,0.13218828,0.77134401
5.1953,88705.9713,1.72622,2.18112,4.87938,2.20889,-2.01341,3.26141,-1.38,-22.32,-26.4,33.526695,-29.852356,123.2117,0.5053148983458537,0.34948391,0.12788033,0.77856565
5.2151,88705.9913,2.8491,3.55539,3.55778,2.25531,-1.44164,3.00546,-3.9,-23.76,-25.26,33.655327,-33.530933,127.632988,0.47933757725061027,0.37007967,0.1269152,0.78560108
5.236,88706.0123,2.94008,3.53145,2.24816,2.05006,-0.89614,2.59557,-6.48,-24.66,-24.06,33.838432,-37.310394,132.309128,0.4515952946212445,0.39137498,0.12847847,0.7914421
5.2555,88706.0323,2.22421,2.58334,1.60651,1.5009,-0.1405,2.49111,-8.28,-25.32,-22.56,33.727127,-40.780396,136.898712,0.4235080671378572,0.41000184,0.13043152,0.79719949
5.2746,88706.0524,2.25773,2.34871,1.85072,0.88148,0.66401,2.52898,-10.38,-25.74,-21.0,32.960567,-42.822407,140.681824,0.39786242238519703,0.41850805,0.13094349,0.80585998
5.2958,88706.0734,3.72298,2.44687,2.04225,0.2865,1.1863,2.36344,-12.12,-25.92,-19.98,31.604816,-43.560745,143.899979,0.37292533090868657,0.4178102,0.12981179,0.81823605
5.318,88706.0933,5.48751,2.94487,4.7884,-0.06536,0.77458,1.99875,-13.32,-26.04,-19.68,29.863066,-43.507336,146.577179,0.34951727997874255,0.41179383,0.12623487,0.83206266
5.3402,88706.1133,7.91044,2.84431,7.24725,0.14294,0.64019,1.61391,-14.34,-26.16,-19.14,28.223236,-43.57053,148.560226,0.3310936439285285,0.40780646,0.12041377,0.84236062
5.3622,88706.1334,10.26634,3.28963,8.67419,0.57055,0.07453,1.11727,-15.18,-25.8,-19.02,26.961975,-43.798618,150.45018,0.31417487242441666,0.40586898,0.11665216,0.85026866
5.3755,88706.1533,13.98693,5.13796,11.21684,1.2877,-0.73854,0.58338,-16.32,-25.44,-19.32,26.417503,-44.871311,152.364868,0.29959538143397524,0.41123873,0.11635466,0.85298705
5.3969,88706.1743,16.10819,6.04775,11.25754,2.14719,-0.09163,-0.49175,-16.98,-25.56,-19.26,27.136116,-46.683418,154.497055,0.2876617974375454,0.42320079,0.12507494,0.85000473
5.4286,88706.1943,15.70596,5.56891,7.19936,2.04884,0.99266,-1.13132,-17.58,-25.2,-18.9,29.39959,-47.208515,156.166107,0.28244141727155153,0.42697823,0.147535,0.84625638
5.4439,88706.2144,16.03636,6.83545,4.81953,1.3213,1.59925,-1.34329,-17.88,-25.44,-18.18,31.845545,-46.192268,157.076355,0.2812454333013188,0.4198477,0.17235975,0.84553003
5.4568,88706.2353,16.02439,8.44196,5.11401,0.83933,1.94499,-1.64567,-17.34,-26.04,-17.34,34.059921,-44.053719,157.117905,0.28347432964260666,0.40532425,0.19496869,0.84696031
5.4821,88706.2552,15.46175,8.51618,4.0869,0.4948,2.35794,-2.00119,-16.5,-26.28,-16.5,36.048973,-41.068527,156.457367,0.28792117820224106,0.38565204,0.21562269,0.84963566
5.4979,88706.2753,13.23994,8.28633,4.33829,0.20708,2.23638,-2.26387,-15.3,-26.76,-15.96,37.904472,-37.205673,155.082596,0.2945469146701199,0.3610138,0.23547223,0.85291499
5.5177,88706.2953,12.90714,7.79313,5.33428,0.32437,1.7709,-2.44957,-13.08,-27.42,-15.9,39.624069,-33.085957,153.13324,0.3033828691854654,0.33603221,0.25378391,0.85477185
5.5373,88706.3154,14.09227,8.25042,5.72693,0.73243,0.80207,-2.77088,-11.16,-27.96,-16.32,41.519215,-29.40564,150.86499,0.3145580211516383,0.31592947,0.27212709,0.85275358
5.5624,88706.3353,12.85447,7.0198,5.93523,1.02198,0.29505,-3.182,-9.06,-28.86,-16.5,43.871239,-26.426123,148.142151,0.3299445231049446,0.30369261,0.29152188,0.84493929
5.5786,88706.3553,9.10515,4.90333,5.94241,0.85094,1.1582,-3.06654,-6.9,-29.76,-16.68,46.473694,-23.077662,144.630676,0.34868411572545,0.29254782,0.31245527,0.83379066
5.6042,88706.3754,7.1036,4.29759,4.53222,0.55344,2.25959,-2.48195,-5.16,-30.66,-16.8,48.071087,-20.709486,142.659821,0.35695737092796165,0.28378069,0.32703573,0.82770622
5.6175,88706.3953,8.02536,4.88417,3.51948,0.28344,2.34022,-2.13192,-2.82,-31.38,-16.26,49.028622,-17.826677,141.368881,0.35798894721990915,0.2686246,0.34020644,0.82700926
5.6378,88706.4163,6.94558,4.32632,4.73334,0.54734,1.6304,-2.23943,-0.78,-31.44,-15.78,49.603485,-15.23115,140.164352,0.3587889223618661,0.25475058,0.34992507,0.82699764
5.6579,88706.4363,5.48512,2.81558,4.93924,1.1692,0.88209,-2.34939,1.32,-31.56,-15.6,50.519176,-13.156878,138.591827,0.3633614496448436,0.24678802,0.35990378,0.82312417
5.6776,88706.4564,2.98796,1.73101,2.90896,1.55832,0.58093,-2.17102,3.3,-31.38,-15.3,51.913174,-12.024234,137.159637,0.369235508864397,0.24663578,0.3708238,0.81567496
5.6968,88706.4763,0.84515,1.63285,-0.12929,1.32313,0.07636,-1.70492,5.28,-30.84,-14.82,53.607658,-11.640194,136.177216,0.37378426485338184,0.25138143,0.38243002,0.80674654
5.7193,88706.4963,0.29688,1.84593,-0.24421,0.90652,-0.60537,-1.23089,7.02,-30.78,-13.74,55.213264,-10.4595,134.21936,0.3821618741128885,0.25390866,0.39371142,0.79653877
5.7374,88706.5173,0.88825,2.75094,1.3623,0.73915,-1.62429,-0.73059,8.04,-30.54,-12.6,56.386253,-9.796809,132.189056,0.3927290977995454,0.2595517,0.39984199,0.78646243
5.7584,88706.5374,-0.40941,1.76453,2.78446,1.02564,-2.71713,-0.27917,9.06,-30.36,-11.4,57.453075,-11.07508,130.973618,0.4043393903579308,0.27547795,0.40015796,0.77491623
5.7775,88706.5573,-1.06063,2.13323,1.31442,1.19424,-3.29256,0.39889,9.42,-30.36,-10.98,58.693729,-14.562943,131.138519,0.4141634052501721,0.30165201,0.39692146,0.7615301
5.8004,88706.5773,-0.00718,3.34949,0.92416,0.99693,-3.13618,1.05496,9.42,-30.36,-11.16,59.737671,-20.157593,133.071518,0.4199046454262842,0.3344458,0.38935879,0.74848235
5.8212,88706.5983,0.58419,4.76686,0.27054,0.73731,-1.88269,1.64445,8.88,-30.66,-10.86,60.208645,-26.578388,136.459641,0.41933768832132534,0.36572284,0.37957558,0.73913807
5.8436,88706.6204,1.00317,5.02064,-1.86029,-0.24435,-2.04334,2.43491,7.86,-30.54,-10.8,59.715656,-32.604408,140.798508,0.4108885911697634,0.38963297,0.36847764,0.73727942
5.8644,88706.6414,1.45328,3.81636,1.10852,-1.07696,-2.67803,3.42573,6.0,-30.96,-10.44,57.390888,-38.971008,144.902267,0.40204953953807454,0.41546693,0.34336218,0.74016607
5.8845,88706.6613,3.64398,4.35745,3.68707,-1.15515,-2.34206,4.43183,4.26,-31.44,-10.26,53.412991,-45.535553,148.930099,0.38818242998707125,0.44407022,0.3066718,0.74703979
5.905,88706.6822,5.52103,6.67743,3.89776,-0.89858,-1.92728,4.88448,2.34,-31.92,-10.92,48.481293,-51.546024,153.145325,0.36431374653904197,0.47148752,0.26755658,0.7572242
5.9263,88706.7032,7.34062,5.16669,3.74214,-0.88881,-2.38848,4.69878,-0.6,-32.16,-11.76,43.180008,-56.573818,156.7771,0.3356078843637668,0.49683893,0.2287021,0.76695096
5.949,88706.7244,8.45393,4.40773,1.58975,-0.74281,-2.99629,5.08057,-3.36,-32.1,-12.36,38.077839,-61.384548,159.511017,0.30842180281802295,0.52470231,0.19023006,0.77030903
5.9684,88706.7443,11.71004,4.86981,1.5275,-1.01587,-2.97186,5.28887,-7.26,-31.5,-13.08,32.111946,-66.512489,161.83316,0.2766353542402851,0.55689704,0.14518239,0.76958472
5.9949,88706.7643,12.49534,4.09408,2.73178,-1.48318,-2.60839,5.02498,-11.16,-30.06,-12.9,26.110329,-70.545219,162.93576,0.2469951440643516,0.58367699,0.09891706,0.76715708
6.0074,88706.7853,14.13058,3.86424,4.31914,-1.92667,-1.76357,4.67006,-14.34,-28.74,-12.48,19.852337,-73.417145,162.881027,0.21942473338067217,0.6028074,0.04902031,0.76555407
6.0294,88706.8054,13.88398,4.20182,7.42442,-1.79472,-1.7092,3.99445,-18.36,-26.76,-12.12,14.438705,-74.98571,162.001495,0.1986731975598471,0.61200082,0.00402836,0.76548529
6.0514,88706.8264,13.32373,4.80516,9.26317,-0.74159,-1.85459,3.24736,-21.48,-24.36,-11.58,9.941758,-76.480751,161.208008,0.18065646854082365,0.61947167,-0.03352667,0.76321298
6.0674,88706.8463,12.8018,5.39174,8.51618,0.64813,-1.9395,2.49416,-24.72,-22.68,-11.58,6.559153,-78.500069,161.507904,0.1599471948756036,0.63058072,-0.05776724,0.75726336
6.0866,88706.8663,11.79384,6.14113,5.31034,1.35734,-1.53694,1.71348,-26.94,-20.82,-11.58,4.367857,-80.5429,162.967545,0.13727018632337573,0.64312381,-0.06690187,0.75038177
6.1071,88706.8864,9.75158,5.51145,2.54743,1.21929,-1.00854,1.09467,-28.44,-18.84,-11.04,3.658454,-81.654518,164.698868,0.12137003126603452,0.65084642,-0.06305538,0.74678797
6.1355,88706.9063,7.90087,5.22175,1.26174,0.65546,-0.57299,0.75747,-29.64,-17.34,-9.84,3.61123,-82.240074,165.96965,0.11252686353992192,0.65529042,-0.05672007,0.74479192
6.1464,88706.9263,7.90805,4.86023,1.73101,0.08735,-0.19242,0.37874,-30.18,-15.9,-8.34,3.875033,-82.397171,166.548737,0.1101864378155087,0.65674347,-0.05183191,0.74421799
6.1657,88706.9463,7.24007,4.19704,4.86981,-0.21991,0.30238,-0.00367,-30.84,-15.18,-7.44,4.502808,-81.920929,166.458817,0.11453268468229105,0.65396142,-0.04776535,0.74628091
6.1857,88706.9663,7.26401,3.95043,7.54892,0.12828,0.78252,-0.31643,-31.26,-14.94,-6.72,5.412697,-80.651497,166.178619,0.12196229927676532,0.64604568,-0.04204168,0.7523182
6.2062,88706.9863,6.78996,3.48835,8.49942,0.87598,1.31397,-0.53329,-31.32,-15.24,-6.54,6.656543,-78.667564,166.447632,0.12764992232388025,0.63364619,-0.03006994,0.76242626
6.2303,88707.0063,6.69179,3.16992,7.24964,1.44775,1.85031,-0.51252,-31.32,-15.48,-7.14,8.140911,-76.141586,167.549316,0.12866489489933391,0.61751187,-0.01114668,0.77588671
6.2563,88707.0264,8.5904,4.17788,5.3678,1.49479,2.31212,-0.57727,-30.96,-15.48,-7.68,9.699653,-73.303146,169.192154,0.1255292662709047,0.59855425,0.01150977,0.79110223
6.2779,88707.0474,10.52252,5.24809,6.05972,1.36162,2.82831,-0.92485,-30.42,-15.78,-7.98,11.401931,-70.177597,170.775543,0.12239044524471747,0.57668591,0.03502446,0.80698651
6.3006,88707.0673,12.54322,5.79397,6.41167,1.4337,3.3005,-1.47768,-29.82,-16.2,-9.42,13.553435,-66.504387,172.227875,0.12083416925947776,0.54993033,0.06155102,0.82412815
6.3094,88707.0873,13.44105,4.82432,5.84425,1.518,3.23759,-1.99448,-28.56,-17.04,-10.56,16.068415,-62.848213,173.43486,0.121131707070905,0.52223349,0.08950894,0.83939707
6.3286,88707.1083,15.83764,4.41251,6.36139,1.63223,2.91322,-2.34939,-27.96,-18.18,-11.64,19.140514,-59.199326,174.364456,0.12417035093035647,0.49357998,0.12044141,0.85232294
6.3486,88707.1284,16.64688,3.62722,6.53617,1.89002,3.00546,-2.68659,-26.28,-19.8,-13.14,22.555967,-55.933655,175.080872,0.1288007153794366,0.46689358,0.15283492,0.86143035
6.3691,88707.1483,17.24065,3.17471,4.99191,1.7483,3.04089,-2.80265,-24.54,-21.6,-14.04,26.356451,-52.3671,175.502228,0.13480451816760552,0.43732539,0.18757024,0.8691327
6.3899,88707.1683,19.81202,4.88178,6.87854,1.788,2.38543,-2.97125,-22.92,-22.8,-14.88,30.085165,-48.791901,175.3591,0.1427210627345497,0.40812939,0.22001946,0.87444413
6.4094,88707.1893,21.53345,5.59525,5.10923,2.22844,1.95049,-3.62487,-20.7,-24.12,-15.24,34.157394,-45.660767,174.895859,0.15306645393459462,0.38257885,0.25389355,0.87506694
6.4398,88707.2093,18.002,5.09007,0.97683,1.91567,1.58275,-4.02988,-18.42,-25.56,-15.24,39.200199,-42.366634,173.622131,0.16989375086600303,0.35728794,0.29336512,0.87029785
6.4503,88707.2292,15.08587,4.20661,0.72544,0.94623,1.22906,-4.03599,-15.96,-26.52,-14.88,43.70047,-38.656872,171.094437,0.19081232062977868,0.33354431,0.32629368,0.8636384
6.4732,88707.2493,12.61984,4.29041,2.45885,0.20036,1.46058,-3.78064,-13.26,-28.14,-14.34,47.092178,-33.939018,167.083099,0.2144823760004393,0.30884275,0.34957206,0.858145
6.4904,88707.2693,12.10269,4.16831,4.37181,-0.10873,1.08062,-3.41046,-10.98,-29.52,-13.86,49.386234,-28.344187,162.237289,0.23705759241063337,0.28231409,0.36584362,0.85455304
6.5149,88707.2903,11.72201,4.20422,6.88812,0.12034,0.85888,-3.26385,-8.58,-30.24,-13.56,51.034218,-22.744486,156.982849,0.25975260786291704,0.25863048,0.37832874,0.85000366
6.5311,88707.3104,10.51773,3.84509,6.59842,0.5339,1.01159,-3.17772,-5.88,-31.14,-13.32,52.414608,-17.921572,152.382935,0.2783267236466557,0.23982655,0.39026821,0.84422046
6.5552,88707.3303,9.15303,3.53384,5.40132,0.9218,0.9108,-3.10747,-3.54,-31.32,-12.96,53.286476,-15.758315,150.060532,0.2880879922528729,0.23311062,0.39747509,0.83945119
6.5747,88707.3513,6.936,3.01909,3.68707,1.12216,0.72265,-3.08059,-1.08,-31.56,-12.72,54.436325,-13.822503,147.794098,0.2977373911772951,0.22874808,0.40656126,0.83290738
6.5959,88707.3713,5.01346,2.73657,3.19147,1.11177,0.3934,-2.88023,1.2,-31.86,-12.54,55.723972,-11.889235,145.214401,0.3090359169181103,0.22632226,0.41620764,0.82464916
6.6124,88707.3914,3.99113,2.65756,2.99754,1.07696,0.22663,-2.62,3.3,-31.62,-12.24,56.802238,-10.588931,143.038742,0.31926812887511724,0.22710994,0.42345926,0.81680548
6.6321,88707.4113,1.76453,2.42533,2.58574,1.05863,-0.01527,-2.41964,5.34,-32.04,-11.64,57.723984,-9.574631,140.92038,0.3298595714229829,0.22976322,0.42886943,0.80899477
6.6611,88707.4313,-0.65362,1.92973,1.12527,0.98349,-0.32865,-1.95721,7.38,-31.92,-11.04,58.693398,-8.438793,138.553909,0.3413313326331139,0.23293445,0.4344486,0.80030549
6.6734,88707.4514,-0.91698,2.30562,0.65841,0.68539,-0.83444,-1.42576,8.76,-31.68,-10.32,59.99358,-5.690809,134.64241,0.3564070856190788,0.23219384,0.44415069,0.78853673
6.693,88707.4713,-0.77333,2.83473,1.22823,0.36408,-0.92424,-1.13315,10.2,-31.86,-9.24,60.82954,-4.096284,131.54007,0.37019518322718825,0.23574051,0.4487139,0.77848428
6.7133,88707.4913,-1.20428,2.97599,1.93451,0.07086,-1.01281,-0.8772,11.4,-31.2,-8.88,61.224888,-2.945856,128.930023,0.3826739503017543,0.23939791,0.44980004,0.77066803
6.7337,88707.5113,-1.89381,3.45723,1.5682,-0.05192,-1.24922,-0.45021,12.18,-30.54,-8.58,61.310169,-2.558696,126.99791,0.393948585390908,0.24464259,0.44761059,0.76459092
6.7635,88707.5313,-1.1971,4.43406,0.73981,-0.33964,-1.67011,-0.19303,12.72,-29.88,-8.52,61.213158,-3.301371,125.999321,0.4036522781359559,0.25314209,0.44220185,0.75989568
6.7788,88707.5513,-0.97923,4.78601,1.58736,-0.64935,-2.10321,-0.05986,12.9,-29.22,-8.88,60.7402,-4.957656,125.433815,0.4145502039120931,0.26470038,0.43181324,0.756055
6.792,88707.5713,-1.76692,4.84826,1.86508,-0.91691,-2.24554,0.19426,12.3,-29.16,-9.18,59.932716,-7.252158,125.114861,0.4264872231128821,0.2783592,0.41714725,0.75273699
6.812,88707.5914,-2.68151,4.63996,1.37427,-1.39827,-2.13192,0.58399,12.24,-28.98,-9.66,58.735329,-10.036148,125.311722,0.43687419825922136,0.29211122,0.3989307,0.75144279
6.8335,88707.6113,-3.07655,4.46519,0.42617,-2.09405,-1.80816,0.90897,12.54,-28.98,-10.38,56.864887,-13.043701,126.009987,0.4447651647585212,0.30371872,0.37616366,0.75394946
6.8527,88707.6313,-5.81791,2.72939,-0.83797,-3.17283,-1.41599,1.02625,11.88,-28.62,-11.76,54.018547,-15.53666,126.631195,0.45127121191803227,0.30966872,0.34796244,0.76117128
6.8729,88707.6514,-9.90002,2.3966,2.07338,-4.15144,-1.59314,1.35612,11.16,-28.44,-13.44,51.03059,-13.695374,123.962334,0.4662610411858776,0.29589757,0.32700509,0.76688522
6.8945,88707.6713,-12.13621,0.60094,7.53695,-4.34692,-1.42393,2.39276,9.96,-28.26,-15.3,46.238323,-12.198309,121.888359,0.48059772481025864,0.27503163,0.29382926,0.77913272
6.9123,88707.6913,-10.20888,-0.46208,8.63589,-4.17771,-0.93829,3.59677,8.34,-27.36,-17.7,40.670612,-11.814345,122.105217,0.48272744607437723,0.25175172,0.25577402,0.79885852
6.9339,88707.7114,-4.19704,-0.08619,8.47547,-4.59432,-0.52351,4.565,6.72,-26.46,-20.28,34.552113,-12.243651,124.608406,0.4693196083557675,0.22740504,0.21412207,0.82594055
6.9526,88707.7313,0.89304,0.07901,8.71729,-5.08179,-0.6689,4.78552,5.46,-24.66,-22.68,27.555798,-12.951569,128.255066,0.44527732138161064,0.20182097,0.16512127,0.85658121
6.9742,88707.7513,5.81552,-0.08619,12.64617,-5.39638,-1.71409,4.4245,3.48,-22.92,-25.14,19.908752,-14.428939,132.150864,0.4161097968920985,0.1826126,0.10659878,0.88438791
6.9932,88707.7723,10.30943,-0.02394,22.85744,-4.54056,-2.29746,4.0201,1.08,-21.06,-27.24,11.983088,-17.301844,135.552216,0.3864153666202664,0.1775104,0.03894829,0.90424347
7.0153,88707.7924,16.64688,2.5618,32.66409,-2.08977,-0.51557,3.40435,-0.78,-17.64,-27.6,6.121503,-20.133633,138.484894,0.35718746887917424,0.18184955,-0.01270183,0.91607124
7.0352,88707.8134,15.39472,3.48835,30.85168,0.51252,2.97186,3.0079,-3.66,-15.06,-28.98,3.068891,-20.074654,141.686935,0.32742025319152723,0.17323215,-0.03226473,0.92830253
7.0543,88707.8333,15.0308,3.33273,20.95405,1.8271,4.47703,2.48683,-5.34,-12.9,-30.24,2.976759,-16.311954,145.306,0.29855989232974034,0.14303613,-0.01774291,0.94344467
7.0841,88707.8533,14.34845,2.75333,14.15931,1.99753,3.97734,1.49234,-6.06,-11.22,-31.14,4.467117,-11.390699,148.535339,0.2733228429907285,0.10596396,0.01044036,0.95601112
7.1136,88707.8734,12.62702,1.92015,14.62378,2.46973,2.4233,0.44715,-5.46,-10.8,-31.38,6.562452,-7.400043,150.597366,0.2564084396488699,0.076813,0.03889741,0.96272606
7.1285,88707.8933,10.41957,1.02232,13.08671,3.29867,0.91691,-0.23091,-3.78,-11.52,-31.26,9.563629,-5.139152,151.635178,0.24753455476733874,0.06371862,0.0697933,0.96425903
7.1378,88707.9133,10.01734,1.51314,11.19529,3.8961,-0.92363,-0.78802,-2.22,-12.54,-30.72,13.562698,-4.559218,151.927094,0.2452083186538707,0.06693511,0.10488459,0.96145296
7.1556,88707.9333,12.79222,2.21703,10.89841,4.28217,-1.50212,-1.72936,-0.84,-14.46,-29.16,18.238401,-5.702823,151.440002,0.25088211790882164,0.0866442,0.14128651,0.95372379
7.1738,88707.9533,12.53125,2.40617,8.73644,4.1606,-1.10994,-2.82953,-0.3,-16.26,-27.54,23.372885,-6.698851,149.669769,0.2671633392941801,0.10812,0.18020052,0.94045818
7.1934,88707.9733,9.13627,1.43413,6.84263,3.54058,-0.71777,-3.32738,-0.24,-18.66,-26.7,28.351631,-6.408156,146.369736,0.29313962845912644,0.12260807,0.2183841,0.92268348
7.2136,88707.9933,9.1267,1.22583,7.53695,3.17283,-0.33964,-3.30234,0.36,-20.4,-25.26,32.596252,-5.328891,142.478134,0.3207144769155464,0.13240825,0.25108737,0.90364009
7.2341,88708.0143,7.77397,1.57299,7.20176,3.0305,0.29138,-3.29562,1.02,-21.78,-24.06,35.784969,-5.186127,139.31015,0.34354946366223377,0.14707425,0.27280203,0.88652241
7.2574,88708.0344,5.63356,1.49159,6.29436,2.93582,0.39218,-3.27546,2.76,-23.04,-21.54,38.547016,-4.201578,136.188202,0.3631627610141517,0.15516834,0.29313001,0.87069535
7.2747,88708.0543,2.45406,1.23301,7.02219,3.00668,0.19548,-2.64077,4.26,-24.0,-19.44,41.018688,-2.9962,133.05629,0.3813266590656992,0.16196074,0.31150702,0.85517371
7.2946,88708.0743,0.94571,1.68312,6.98628,3.24369,0.32437,-1.67988,5.46,-24.9,-17.76,43.435131,-2.217152,130.800247,0.3931678812161622,0.17034999,0.32890129,0.84156036
7.3191,88708.0944,1.02232,2.15478,5.13556,3.3903,0.34453,-0.832,6.96,-25.74,-15.54,46.036259,-1.951927,129.880585,0.3958157231658653,0.1797995,0.34752271,0.83080083
7.3405,88708.1154,1.44849,2.72939,5.78679,3.61693,-0.19303,-0.48686,7.8,-26.28,-13.68,48.919033,-2.427115,129.954391,0.3928780067931791,0.19256404,0.36694869,0.82092303
7.3556,88708.1353,-0.4956,2.38941,4.30956,3.97368,-0.42455,0.11301,8.52,-26.64,-11.64,51.875507,-3.604448,130.511398,0.3887134993276807,0.20867433,0.38520059,0.81054139
7.3765,88708.1553,-2.05422,2.85389,1.83875,3.94741,-0.7758,1.03297,9.0,-27.9,-9.42,55.631775,-5.460634,131.974319,0.3798155710434439,0.22816083,0.40861827,0.79794353
7.3961,88708.1754,-3.67271,3.70144,-0.59616,3.6041,-0.46426,2.12276,8.88,-28.74,-7.26,59.876705,-9.527196,135.734634,0.3637430996806212,0.25403646,0.43358415,0.78432214
7.4174,88708.1953,-3.68707,4.19225,-4.39097,2.47889,0.55589,3.39641,9.0,-29.88,-4.56,63.030449,-16.425961,143.250717,0.3368425896510288,0.27866161,0.45259699,0.77720058
7.4371,88708.2153,-2.02549,4.57053,-5.79876,0.69272,0.9615,4.7,8.22,-31.32,-2.34,63.740421,-25.176289,153.913483,0.2991593694352097,0.296608,0.46023834,0.78147811
7.456,88708.2353,-0.70868,4.24013,-3.86185,-0.31154,0.34636,5.74641,6.6,-31.92,-0.24,61.358307,-34.14106,165.067017,0.25534219523425006,0.31370386,0.45080903,0.79571444
7.4766,88708.2553,1.09415,3.93367,-2.49236,-0.69394,-0.36774,6.53381,4.74,-32.76,0.9,56.740517,-42.385284,174.883575,0.20822091470190657,0.33754382,0.4283928,0.81190383
7.4966,88708.2753,2.82995,2.14999,-2.34153,-0.83444,-1.06474,7.07626,1.56,-33.0,1.44,50.682743,-49.41457,-177.207352,0.15884004166960036,0.36817446,0.39791816,0.82515365
7.5155,88708.2953,5.37259,1.68073,-2.21703,-0.99143,-1.60658,7.40308,-1.74,-32.88,1.32,43.567543,-55.373638,-171.013428,0.10748021996431022,0.40438852,0.36140501,0.83324927
7.5378,88708.3154,9.48104,3.1364,-1.3216,-1.11544,-2.25409,7.38231,-5.52,-32.7,1.2,35.853951,-60.888309,-166.131393,0.055791462927475687,0.44653356,0.32162869,0.83309668
7.5567,88708.3353,12.15776,6.25126,0.71826,-0.29199,-3.61144,6.77388,-9.84,-31.62,1.68,28.25206,-66.812546,-162.365891,0.008690441410136066,0.49638563,0.2831668,0.8205744
7.5785,88708.3574,12.60308,5.08528,0.64404,1.13071,-4.24002,5.85637,-13.98,-29.58,1.8,21.248409,-73.66806,-159.021408,0.034530525890184856,-0.55251163,-0.2523655,-0.79363102
7.6001,88708.3784,11.30063,3.38301,-0.67995,1.39216,-2.58396,5.61446,-18.42,-27.48,2.58,14.927916,-80.324883,-155.595901,0.07826633930175785,-0.60406226,-0.23219408,-0.75833309
7.6193,88708.3983,12.4283,4.56095,-2.00634,0.81856,-0.84605,5.26627,-22.14,-24.54,4.32,9.389613,-83.768898,-153.231842,0.1185949380190855,-0.63321346,-0.21330336,-0.73449141
7.6396,88708.4183,14.00129,5.25048,-1.78847,0.35552,0.34208,4.21558,-25.14,-21.6,5.34,4.446264,-84.950417,-152.003128,0.15286340026026826,-0.64780307,-0.19098358,-0.72146326
7.6611,88708.4384,13.3788,5.11162,-1.0343,0.35125,0.65485,3.2046,-27.78,-18.66,6.48,0.805641,-84.913544,-151.320114,0.17812858880417584,-0.65270108,-0.1722099,-0.71595758
7.6783,88708.4583,12.11227,5.01346,-1.11091,0.51007,0.70372,2.34084,-29.46,-15.96,6.9,-1.602709,-84.560989,-150.598389,0.1968381143220863,-0.65329957,-0.16070201,-0.71318251
7.6984,88708.4783,9.30626,4.23295,-1.84832,0.47342,0.62369,1.73791,-30.72,-13.74,7.02,-2.958885,-84.224571,-149.770706,0.2100833788737372,-0.65216583,-0.15630755,-0.71141595
7.7185,88708.4983,7.37175,3.39019,-1.4437,0.35919,0.38301,1.45142,-31.86,-11.52,6.6,-3.701349,-84.073364,-149.055634,0.21887247889660277,-0.65140188,-0.15542144,-0.70965809
7.739,88708.5183,8.04691,3.70622,-0.07901,0.24435,0.36224,0.87598,-32.16,-9.9,6.9,-4.049584,-84.091042,-148.475113,0.22437726835268523,-0.65126187,-0.1565645,-0.7078138
7.7592,88708.5383,8.32703,3.48356,1.38864,0.30116,0.32193,0.41722,-32.52,-8.64,7.02,-3.753963,-83.967567,-147.964233,0.22606230152808637,-0.64932305,-0.16107944,-0.70804578
7.7787,88708.5583,9.63187,4.08211,2.91374,0.50335,0.26695,-0.03115,-33.0,-7.56,6.6,-3.005557,-83.72068,-147.399139,0.22576374277097314,-0.64575499,-0.16848724,-0.70967829
7.7987,88708.5784,10.36929,3.7996,4.25689,0.64568,0.66096,-0.56383,-33.06,-7.26,6.42,-1.760049,-83.200722,-146.591141,0.22468318014475838,-0.63913947,-0.17981371,-0.71322173
7.8208,88708.5983,10.76433,3.39737,4.9153,0.7984,1.31092,-0.99205,-33.3,-7.14,6.12,-0.060126,-82.013588,-145.655396,0.2231310328244695,-0.62701505,-0.19334702,-0.72088945
7.8404,88708.6183,12.34211,3.28245,4.24971,1.06352,1.38727,-1.4056,-33.12,-7.38,5.34,2.010898,-80.188416,-144.541153,0.2221548859591404,-0.60927522,-0.20888223,-0.73198301
7.862,88708.6393,15.88313,3.51469,3.07176,1.34818,0.6463,-2.0238,-32.94,-8.1,4.92,4.559233,-78.655479,-143.132813,0.22048678339304587,-0.59103304,-0.22942787,-0.74123436
7.8859,88708.6603,20.37705,2.08056,3.90494,1.39949,-0.11179,-2.92788,-32.88,-8.4,4.14,7.543695,-78.259438,-141.596664,0.2153717096646017,-0.5778951,-0.255299,-0.74463058
7.9047,88708.6803,23.47515,0.2059,5.28161,1.52167,-0.14416,-4.00911,-32.64,-9.42,3.96,11.436769,-78.596481,-140.227631,0.20257659105124742,-0.56639826,-0.28687486,-0.74555922
7.9209,88708.7003,22.69224,-2.77727,3.70862,1.64873,0.62553,-4.62914,-32.4,-10.14,3.78,16.494513,-78.781609,-138.825424,0.1837268365283021,-0.54895318,-0.32462126,-0.74800795
7.9475,88708.7213,22.83111,-1.79086,-1.01035,1.27854,1.34451,-5.105,-31.5,-11.22,4.08,22.169191,-78.069107,-137.349594,0.16441817998606112,-0.5214144,-0.36387163,-0.75411612
7.9774,88708.7413,22.63239,-2.41814,-3.01191,0.37141,1.02931,-5.69998,-30.24,-13.32,4.44,28.605194,-76.394096,-136.707138,0.1389209251103478,-0.48532727,-0.40148869,-0.76417619
7.982,88708.7614,20.67393,-3.39019,0.17238,-0.20831,-0.02566,-6.07994,-28.8,-15.9,4.32,35.132786,-74.567421,-137.659332,0.10345397342233216,-0.45181572,-0.43249252,-0.77337575
8.0001,88708.7813,19.39543,-1.52032,3.18908,-0.1967,-0.34453,-5.73664,-27.06,-18.96,4.56,41.633183,-73.071297,-139.686035,0.06019539432118571,-0.42398408,-0.4598054,-0.77794152
8.0203,88708.8013,20.66196,-0.08859,1.72383,-0.02382,0.60964,-5.79528,-24.78,-22.2,3.96,47.796528,-71.10952,-141.986969,0.019516101127120208,-0.39530694,-0.4847545,-0.77997732
8.043,88708.8213,18.22227,0.89543,-0.32082,-0.23152,1.00243,-6.16913,-21.54,-25.38,3.48,54.086552,-67.200081,-145.249695,0.018583945117994334,0.35730603,0.50860757,0.78313816
8.0654,88708.8413,14.8632,0.59376,-1.98479,-0.59071,0.54367,-6.39759,-18.36,-27.72,3.06,60.35511,-60.753155,-151.036774,0.05961783643940109,0.3148095,0.52921182,0.78566885
8.0855,88708.8613,13.53682,-0.4142,-2.4756,-1.03664,-0.52718,-6.50633,-14.22,-29.82,2.7,65.999336,-50.866947,-161.105942,0.10641226603596707,0.274564,0.54429841,0.78551275
8.1021,88708.8813,10.67814,-1.45807,-1.69509,-1.58886,-1.72203,-6.3927,-10.14,-31.32,2.88,70.20369,-35.947529,-177.659149,0.16151101001619078,0.24123485,0.55201155,0.78166693
8.1224,88708.9014,5.76524,-2.5187,-0.77812,-2.23332,-2.47584,-5.32308,-6.54,-32.22,2.22,70.564217,-26.608635,169.614944,0.20427032445317156,0.23795429,0.5427928,0.77911961
8.1432,88708.9224,7.16106,-1.20907,-1.10373,-2.97736,-3.74583,-4.35547,-2.04,-32.46,1.08,69.015572,-20.693909,159.121429,0.24695111076893822,0.24653648,0.52126282,0.77879393
8.1631,88708.9423,6.43561,0.83079,0.93853,-3.38847,-4.75436,-4.51429,1.74,-32.34,-0.42,66.174164,-19.141809,151.434204,0.29178859139244934,0.26780766,0.48730645,0.77824861
8.1828,88708.9623,4.69742,1.77889,6.28478,-2.94254,-3.65664,-5.04391,4.92,-32.04,-2.88,62.747181,-17.406713,142.635254,0.344966409341409,0.28723142,0.44612142,0.77425575
8.2029,88708.9824,2.43251,2.28167,8.36773,-1.59069,-2.4062,-5.15448,7.74,-30.78,-5.22,59.750862,-13.658576,133.069351,0.39716177407736697,0.29152191,0.41262296,0.76617217
8.2242,88709.0023,0.75178,1.95606,7.35738,-0.35858,-2.29502,-4.62914,9.84,-29.7,-7.44,57.766304,-9.625552,124.392296,0.44283035118673003,0.28949276,0.39148626,0.75288361
8.2449,88709.0223,0.93374,3.05979,5.34625,0.5339,-2.6933,-4.42022,12.18,-28.62,-9.9,56.842381,-6.674959,116.948067,0.482701674903564,0.29208803,0.37824097,0.73390561
8.267,88709.0443,-0.51715,3.51708,4.18267,1.02259,-3.85884,-4.50391,14.58,-26.88,-11.76,57.009312,-3.629179,108.708031,0.5241537160103066,0.30059147,0.37140194,0.70495975
8.2862,88709.0643,-2.68151,3.93128,5.6168,1.37628,-4.34753,-4.14778,16.32,-25.44,-12.72,57.597912,-0.814808,99.386986,0.5694656556202075,0.31636864,0.36333069,0.66604096
8.3082,88709.0853,-4.75249,7.1012,6.29196,1.60474,-3.6322,-3.29379,18.0,-24.0,-13.74,58.268822,2.0017,90.457939,0.6090392842686422,0.33199966,0.35632762,0.6260016
8.3298,88709.1053,-6.22492,8.46829,6.85699,2.06289,-2.43918,-1.7654,18.48,-22.5,-14.16,59.359268,5.088912,82.435745,0.6383965431284738,0.34667432,0.3549574,0.58844882
8.3455,88709.1254,-6.62476,8.19775,4.59447,2.29685,-1.73791,-0.0672,18.9,-21.54,-14.52,61.043716,7.279706,77.413414,0.6507095695132582,0.36132002,0.35962197,0.56275833
8.3655,88709.1453,-4.458,7.42921,4.04859,2.12887,-1.70676,1.25411,18.96,-21.06,-14.88,63.143257,7.096662,75.881828,0.6507036314306176,0.3796939,0.36288047,0.54839319
8.3874,88709.1663,0.26097,9.55287,3.85706,2.01036,-2.28586,1.26632,18.78,-20.94,-14.94,65.279594,3.695471,77.538383,0.6453158009163581,0.4033016,0.35873008,0.54058123
8.4122,88709.1873,-0.11492,12.00692,4.57771,2.05312,-2.07572,0.79474,18.36,-21.54,-14.58,67.494072,-0.876761,79.643723,0.6413267186556643,0.43072832,0.35086444,0.52921385
8.4274,88709.2073,-3.38061,12.56238,5.96396,2.15086,-1.38178,1.02014,17.52,-22.62,-14.58,69.673271,-4.359533,81.012665,0.6377312194520144,0.45429519,0.34703255,0.51622009
8.4475,88709.2274,-7.56089,11.48259,6.10761,2.23027,-0.44227,2.22172,17.22,-23.7,-14.16,71.711136,-7.813518,83.489738,0.629891433143883,0.47278532,0.34788898,0.50860995
8.4676,88709.2473,-6.85221,9.97903,5.96874,2.32556,0.34514,3.56012,16.26,-24.9,-13.74,73.361214,-14.925057,90.931305,0.6129960479925942,0.4896453,0.34915444,0.51242024
8.4906,88709.2673,-4.71897,9.165,6.41167,2.99141,1.02198,4.5369,15.18,-26.1,-13.14,74.195496,-26.751312,104.247284,0.5865559893486954,0.50592464,0.34991097,0.52683455
8.5113,88709.2874,-3.02148,10.10593,3.19147,3.54729,-0.69272,5.10683,13.44,-27.48,-11.76,74.233757,-43.676197,123.052933,0.5502035142089334,0.52779078,0.35096729,0.54363126
8.5305,88709.3083,-1.08697,7.39569,-0.55785,3.57601,-3.06166,4.96572,10.74,-28.98,-9.72,72.579811,-64.586296,143.41655,0.5140785496904745,0.56589413,0.33988938,0.54768813
8.5497,88709.3293,-1.93212,5.23851,0.11492,3.69696,-3.62304,4.52162,8.04,-30.48,-7.44,69.589752,-82.402031,158.199341,0.48594081853666843,0.61235815,0.31931505,0.53564626
8.5696,88709.3494,-5.14993,1.84593,0.25379,4.06775,-2.78982,4.85638,4.86,-31.68,-5.16,66.570953,-95.352997,168.116989,0.46184911110778043,0.65299153,0.30356061,0.51783049
8.592,88709.3693,-4.91051,0.35913,0.1652,4.69328,-2.1423,6.08177,1.68,-32.1,-2.82,62.672989,-105.287331,175.860458,0.43183405141061776,0.68988067,0.29083264,0.50299144
8.6128,88709.3893,-0.49081,-0.91937,-1.22344,5.1331,-1.06535,7.01457,-1.26,-32.4,-0.48,53.972633,-112.204468,-178.644135,0.3707441116749788,0.73660952,0.26181149,0.50140798
8.6332,88709.4094,2.92811,-2.16675,-3.40695,4.70855,-0.41356,7.31817,-5.34,-32.22,2.64,44.160519,-115.556824,-175.645935,0.29901361179923336,0.77576613,0.23006602,0.5058136
8.6593,88709.4304,7.66145,-0.10295,-2.81558,4.21925,0.10568,6.84413,-9.36,-30.78,5.94,34.390488,-116.75251,-174.390656,0.22691954385604823,0.80489051,0.19462702,0.51261985
8.6713,88709.4514,8.55927,0.25379,-1.41018,3.96818,1.4728,5.63584,-13.92,-28.62,9.0,24.594635,-116.841103,-173.355774,0.15148875884528548,0.82450587,0.15958366,0.52131975
8.7002,88709.4713,8.52575,-0.49321,-0.77812,3.43184,3.29317,4.52468,-18.54,-24.96,12.18,17.147949,-115.063698,-172.010574,0.0884966218377707,0.82665873,0.13795796,0.53830409
8.7106,88709.4913,6.82826,-0.53391,0.05267,2.98224,4.24368,4.21436,-22.32,-21.12,13.92,10.870795,-111.162445,-170.495361,0.03125205459866938,0.81396008,0.12139395,0.56723523
8.7313,88709.5113,7.64947,-1.23541,1.32399,3.11236,4.61264,4.15083,-25.5,-18.18,14.04,4.920718,-105.691528,-168.724487,0.025225083565894812,-0.78987914,-0.10402694,-0.60384852
8.7503,88709.5313,11.18332,-0.48123,0.26097,3.20643,3.2834,3.59067,-27.6,-14.52,13.92,-0.50695,-100.335075,-166.180298,0.08043392408326952,-0.7626766,-0.08957252,-0.63547742
8.7796,88709.5513,17.49204,1.63285,2.33914,3.34754,2.56563,1.90346,-29.34,-11.7,12.12,-4.481864,-96.356094,-162.856216,0.1281271294191297,-0.74021894,-0.08520792,-0.65452194
8.7966,88709.5723,18.91419,0.79727,1.9393,3.00912,3.54241,-0.00611,-30.9,-9.24,10.44,-6.156151,-92.606796,-158.994507,0.1639190529144195,-0.71663123,-0.09512735,-0.67120862
8.8151,88709.5923,15.73469,-0.08619,1.86508,2.4288,4.60898,-0.75747,-32.22,-7.38,9.12,-5.690653,-87.594261,-155.371475,0.18731532735989959,-0.68299133,-0.11242068,-0.69699168
8.8367,88709.6133,14.27423,-0.35674,2.94966,2.26875,5.06346,-1.14171,-33.18,-6.12,7.56,-4.378865,-81.914543,-152.530014,0.20350293946331735,-0.64313698,-0.12749563,-0.72712189
8.8566,88709.6334,15.65808,0.34237,4.60644,2.23393,4.73543,-1.39949,-34.08,-5.82,5.34,-2.429929,-75.787292,-149.87439,0.21761242610911707,-0.59730995,-0.1434225,-0.75848246
8.8764,88709.6533,15.98608,1.37906,3.73256,2.16307,4.32737,-1.90773,-34.02,-6.48,2.46,-0.051163,-70.411949,-147.611771,0.22812569417939554,-0.55374432,-0.16043608,-0.78459299
8.897,88709.6743,17.54471,1.10133,2.22661,1.57237,2.67926,-2.86618,-33.96,-7.02,-0.36,3.031129,-65.780106,-145.996933,0.2317094800372594,-0.51262105,-0.17996319,-0.80693471
8.9188,88709.6953,21.11925,-1.29047,2.63362,0.69639,-0.63774,-4.33898,-33.48,-8.28,-3.24,7.423833,-63.396545,-145.834869,0.21688870756149123,-0.48503053,-0.20667799,-0.82157707
8.938,88709.7153,24.22453,-2.34392,4.72855,0.08308,-1.67621,-5.98404,-32.52,-9.9,-5.04,12.519965,-64.289543,-147.36998,0.18075729200077628,-0.48165473,-0.23718137,-0.82406342
8.9611,88709.7374,21.13362,-1.30723,3.64158,0.05131,-0.97738,-6.9376,-32.1,-12.12,-5.88,19.411469,-65.215775,-150.274918,0.12516718582766734,-0.47697556,-0.27351019,-0.82584482
8.9853,88709.7584,19.75216,0.88346,-0.11732,-0.00183,-0.70433,-6.86429,-30.36,-15.78,-7.02,27.004774,-64.766617,-153.499359,0.06648839098235707,-0.46171963,-0.3112911,-0.82794452
9.0027,88709.7783,18.68435,1.00317,-2.69348,-0.61453,-0.92241,-6.95714,-27.9,-19.2,-6.9,34.403534,-63.526253,-157.213394,0.007825779317421967,-0.44328153,-0.34582725,-0.82694846
9.0213,88709.7983,12.38281,0.0407,-0.27054,-0.97494,0.4667,-5.85453,-25.2,-22.62,-6.24,40.941471,-60.926563,-162.134705,0.049769569912177965,0.42240253,0.37154442,0.82525986
9.0391,88709.8184,8.44914,0.77572,-0.00479,-0.65668,1.98837,-3.51553,-21.24,-26.28,-6.42,45.626823,-56.090729,-167.063583,0.08949226096647799,0.39208165,0.38884622,0.82889187
9.0595,88709.8394,11.46344,3.30879,-1.08936,-0.62247,2.00852,-2.00303,-18.18,-28.62,-6.24,47.110825,-52.321075,-169.354736,0.09911044192267769,0.36913344,0.39464191,0.8355689
9.0808,88709.8593,16.40028,5.72214,-1.35033,-0.67195,1.23517,-2.31823,-15.78,-30.6,-6.66,48.367554,-48.038822,-171.970551,0.10800454656236949,0.3442128,0.39926997,0.84287369
9.1012,88709.8793,17.80328,6.05494,-1.64003,-0.98288,1.12521,-3.82218,-13.38,-31.86,-7.74,49.946548,-43.582771,-175.802338,0.12579797698680073,0.32193705,0.40408757,0.84690297
9.1225,88709.9003,15.63653,3.11007,-2.83473,-1.74707,0.5455,-5.0091,-11.64,-32.28,-8.28,52.039028,-36.806076,177.258896,0.15884551850846373,0.2935763,0.40933815,0.84913093
9.1433,88709.9203,13.51048,2.36068,-0.68953,-2.1142,-0.71288,-5.12027,-9.48,-33.0,-9.48,53.406483,-28.079481,167.080475,0.20582608363716343,0.26439145,0.40879565,0.84889275
9.1655,88709.9423,16.70674,3.71101,3.16513,-1.86314,-1.06291,-6.02252,-6.78,-33.12,-10.86,53.675705,-20.012732,156.004547,0.2593932230862786,0.24407525,0.4026587,0.84321314
9.1869,88709.9633,13.81215,2.34632,2.59053,-1.01159,-0.86865,-7.31206,-3.42,-33.54,-12.06,53.772163,-9.849141,142.336945,0.32357515110127427,0.21789777,0.40171739,0.82851845
9.2059,88709.9833,5.83706,0.40701,3.04303,-0.65424,-1.26632,-7.24059,0.48,-33.06,-13.38,53.364319,-4.371763,132.460983,0.3755493015222708,0.21204703,0.39691529,0.81022036
9.2282,88710.0043,0.38547,1.99676,5.44441,0.12645,-1.69271,-6.05978,4.32,-31.44,-14.22,52.618374,0.183248,123.090729,0.4264849245749845,0.20991483,0.39035472,0.78846025
9.2471,88710.0243,3.21062,3.68707,5.75327,0.85949,-1.81916,-5.54727,7.98,-30.3,-14.94,52.269421,3.256624,114.995682,0.4716441035732658,0.21507508,0.38504821,0.7635656
9.2685,88710.0463,5.07571,3.1795,6.10761,1.70981,-2.00608,-6.00603,11.34,-28.56,-15.54,52.507256,5.896803,106.98587,0.5145580262964319,0.22573361,0.38252342,0.73345089
9.2898,88710.0671,-0.75657,2.727,5.31513,2.15147,-1.3213,-5.65783,14.04,-26.58,-15.6,53.074772,10.538078,96.858429,0.5604318940469561,0.23374207,0.3873564,0.69371158
9.3113,88710.0883,-3.99113,3.24414,4.35266,2.54975,-1.18997,-4.18259,16.44,-24.96,-15.36,53.580158,15.763088,87.645065,0.5951665972806269,0.23736146,0.39745966,0.65685773
9.332,88710.1093,-4.01029,3.60088,3.03585,2.95048,-1.81244,-2.80693,18.72,-23.46,-14.88,55.084667,21.571541,78.274216,0.6209669039821448,0.24759099,0.41540396,0.61687791
9.3532,88710.1303,-2.30801,5.18345,3.03345,3.36342,-1.99264,-2.34572,20.28,-22.08,-13.98,56.879494,25.122849,71.109016,0.6380308184187253,0.2669709,0.4258762,0.58332896
9.3745,88710.1514,-4.22098,4.94881,3.73495,4.04393,-1.85947,-2.08122,21.78,-21.72,-13.98,59.001499,29.690407,62.602249,0.6532984341145315,0.29086429,0.43783239,0.54488707
9.3962,88710.1724,-8.12592,3.53624,3.7589,4.87654,-1.70492,-0.80512,23.28,-20.94,-13.02,61.13612,36.064835,52.683411,0.6638648303331605,0.31510055,0.45343539,0.50437236
9.4222,88710.1923,-11.25514,1.97761,1.42934,4.78552,-0.98227,1.43248,23.64,-20.52,-12.3,63.776245,43.651962,42.322056,0.6641678273046849,0.34337047,0.47142038,0.46769717
9.4364,88710.2133,-8.82982,3.00472,1.2402,4.29866,-0.03299,3.8625,23.88,-21.12,-11.52,67.469795,49.911747,34.60191,0.6501751801205766,0.37637204,0.4847365,0.44793621
9.457,88710.2333,-2.18112,7.57525,-0.97444,4.42877,0.6744,4.71771,23.76,-22.2,-9.78,73.210648,55.231792,29.31814,0.6182033243691262,0.41699743,0.49371302,0.44742066
9.4766,88710.2534,3.39498,11.2312,-3.09331,4.45443,-0.36957,3.83807,23.04,-23.4,-7.92,79.896332,64.938965,19.870127,0.5776126819011821,0.46258914,0.49885529,0.45113
9.4966,88710.2744,1.59214,12.43788,-2.78924,4.33165,-0.49786,2.72446,21.66,-25.92,-5.94,84.843903,101.966377,-18.133307,0.5415182058582665,0.50975984,0.49946144,0.44434357
9.5182,88710.2943,-3.73495,10.46506,-2.81798,3.75865,0.35858,2.77027,19.74,-27.78,-3.24,83.50116,156.696365,-73.623604,0.5114024632714893,0.54548335,0.50440407,0.43184716
9.5396,88710.3143,-6.56251,8.32943,-1.76932,3.14351,1.47707,4.24674,17.58,-29.4,-0.66,79.9244,-179.88446,-96.876701,0.48006976322324435,0.57307416,0.5089789,0.42668432
9.5637,88710.3343,-3.70383,6.94318,-0.47645,2.97491,3.23942,5.9315,15.6,-30.96,1.92,75.940117,-160.934219,-114.393585,0.4392675923508328,0.59827012,0.50683081,0.43845111
9.5752,88710.3542,1.20668,6.98867,-0.97923,3.18688,3.66947,6.96081,13.26,-31.68,4.44,70.395737,-144.186172,-128.073959,0.3831277048851751,0.62151623,0.49975863,0.46601722
9.6029,88710.3743,4.80516,7.80031,-1.95606,3.37137,2.27547,7.19844,10.26,-32.1,7.02,63.129272,-132.997147,-136.411041,0.31957580878008435,0.64802051,0.48392752,0.49371538
9.6145,88710.3943,6.34703,5.77003,-0.97205,3.76415,2.03662,6.75983,6.3,-32.1,9.9,55.130135,-126.970848,-140.802673,0.257347262759305,0.67799461,0.46069551,0.51171803
9.6345,88710.4144,5.55455,4.4987,-2.17872,3.59739,3.69879,6.14408,1.38,-31.5,12.06,47.195789,-123.113579,-142.265854,0.1919412181184816,0.70081258,0.44098303,0.52683419
9.6545,88710.4343,7.2688,4.1276,-3.43568,2.90222,4.51735,5.94738,-3.42,-29.76,14.52,39.743942,-118.285736,-142.662064,0.12204683304751913,0.70904577,0.42359802,0.55038476
9.6741,88710.4543,6.76362,2.25294,-4.20901,2.4905,3.89854,5.80872,-8.76,-27.3,16.08,32.643085,-113.35202,-142.666916,0.05372259482277349,0.71030748,0.40292463,0.57465547
9.6937,88710.4744,9.05008,2.98557,-3.12683,2.52776,3.36648,5.17892,-13.86,-25.08,16.8,25.810658,-109.452538,-142.269302,0.009466708751148127,-0.71132839,-0.37935892,-0.59161568
9.714,88710.4943,11.24796,3.89058,-3.55539,2.37871,3.55401,4.16121,-17.76,-22.2,16.86,19.859083,-106.231133,-141.096466,0.06682952154222481,-0.70843083,-0.35995978,-0.60339749
9.7342,88710.5143,10.81461,2.4373,-3.3878,1.79839,3.9187,3.26691,-21.66,-19.26,16.44,15.176004,-102.769951,-139.561203,0.11698569842429232,-0.698304,-0.34501582,-0.61615741
9.7555,88710.5353,10.35732,1.62087,-1.22583,1.64323,3.92725,2.52898,-24.72,-16.8,15.24,11.448852,-98.616791,-138.105728,0.16129652343071732,-0.68133837,-0.33045417,-0.63289928
9.7755,88710.5554,11.3557,2.16196,0.40701,2.07389,3.69757,1.69576,-27.0,-13.8,13.98,8.852267,-94.695503,-136.346085,0.1984730019926556,-0.66127628,-0.32117957,-0.648202
9.7946,88710.5753,11.46104,1.62087,-0.58419,2.28891,3.57112,0.89858,-28.86,-12.06,12.66,7.286423,-91.107445,-133.769318,0.23262497627864281,-0.63779718,-0.32062498,-0.66053009
9.8147,88710.5953,10.98699,1.17555,-1.26174,2.12948,3.44406,0.24251,-29.76,-9.78,10.98,6.684864,-87.805336,-130.928925,0.2619129530128716,-0.61230332,-0.32567993,-0.6711325
9.8436,88710.6154,11.29584,2.49476,-0.08619,2.02441,3.60472,-0.67501,-30.84,-8.22,9.3,7.015128,-84.55365,-128.32637,0.28481007947211806,-0.58460593,-0.33336818,-0.68263078
9.8555,88710.6353,9.60793,2.33195,0.577,1.85642,4.01277,-1.23273,-31.38,-7.56,7.5,8.433107,-81.116722,-125.911911,0.30192087766651904,-0.55215895,-0.34459299,-0.69657731
9.8795,88710.6563,7.54892,1.17076,0.35913,1.54488,4.23696,-1.14598,-31.68,-7.08,5.34,10.302545,-77.306534,-123.838547,0.3166365768646916,-0.51584959,-0.3546873,-0.71262711
9.8982,88710.6773,8.23127,1.01993,0.20351,1.15698,3.33166,-0.58215,-32.16,-7.38,2.76,11.962004,-73.153671,-121.952873,0.33320378575679754,-0.477633,-0.36070809,-0.7285133
9.9273,88710.6973,11.8489,1.74537,1.06063,0.62675,1.07512,-0.60415,-31.5,-7.92,0.6,12.830378,-70.806068,-120.524315,0.3455780200716016,-0.45470485,-0.36464298,-0.73542833
9.9468,88710.7183,18.28452,1.94888,4.33829,-0.05253,-1.04336,-1.64811,-31.2,-8.28,-1.92,13.608575,-70.89209,-119.924126,0.3454439956088947,-0.45019591,-0.37181243,-0.73467517
9.9648,88710.7383,22.27805,0.9912,6.80193,-0.17226,-0.23702,-3.71895,-31.2,-8.64,-3.06,15.895481,-71.853302,-120.552124,0.32718905537914267,-0.44913736,-0.38536292,-0.73669422
9.9789,88710.7584,19.23981,-0.13408,5.24809,-0.48625,1.0006,-4.8912,-30.84,-9.78,-3.48,20.211164,-71.143753,-121.969299,0.29914760367978854,-0.43159446,-0.40259042,-0.74977189
10.0064,88710.7783,16.50802,-2.25773,5.27203,-0.74953,0.20403,-4.95961,-30.24,-11.7,-4.56,25.359325,-68.987816,-124.196739,0.26641957310453396,-0.40362257,-0.41842723,-0.76878351
10.0228,88710.7983,14.98052,-3.90015,5.22894,-0.97066,-0.75747,-4.15877,-29.04,-13.8,-4.86,30.155333,-67.510178,-126.817764,0.2300986908105945,-0.38295537,-0.43355429,-0.78257936
10.0395,88710.8184,15.04995,-2.70784,7.6375,-1.03847,-0.24618,-3.52408,-27.24,-16.56,-5.16,33.864799,-66.645782,-129.507248,0.19622407308228154,-0.37154737,-0.4442637,-0.79125118
10.0584,88710.8383,14.11142,-0.92656,7.28795,-0.23091,1.4899,-3.45444,-25.44,-19.38,-5.28,37.107227,-64.566666,-132.017654,0.17061127281051144,-0.35322636,-0.45164371,-0.80133694
10.0866,88710.8583,16.30451,0.82121,4.17549,0.17287,1.38178,-3.79103,-23.94,-21.48,-5.46,40.59655,-61.297756,-133.939011,0.15291928370089888,-0.32325184,-0.46170968,-0.81175619
10.0978,88710.8784,19.29727,1.24259,2.16196,-0.08002,1.02564,-5.54849,-22.08,-23.88,-5.34,44.7509,-57.621796,-136.565613,0.1293773624683677,-0.29058272,-0.47477415,-0.82061726
10.1174,88710.8983,16.17283,0.05507,-0.3735,-0.90225,-0.50885,-6.98952,-20.4,-25.5,-6.0,50.191654,-52.277557,-142.314529,0.08573282178163616,-0.25460449,-0.48920435,-0.82976234
10.1391,88710.9183,12.49773,0.13647,-0.14844,-1.85275,-1.33169,-7.30534,-17.94,-27.18,-7.26,55.445141,-44.75761,-152.279404,0.02412909940859622,-0.22416529,-0.49836692,-0.83713686
10.1582,88710.9384,10.96544,1.71425,0.60813,-2.40131,-1.41537,-7.35665,-14.7,-28.98,-7.86,58.315125,-35.704304,-164.840103,0.03840758011881512,0.20420235,0.4950158,0.84367388
10.1777,88710.9583,12.11945,1.38864,0.84276,-2.45934,-2.33045,-7.78914,-10.62,-30.12,-8.58,58.77557,-27.577925,-177.287979,0.09690185557539704,0.1963394,0.48135668,0.84873825
10.1977,88710.9783,7.762,2.02071,1.51553,-2.63344,-2.76661,-8.10129,-5.94,-31.38,-9.78,58.513725,-19.70108,169.045975,0.16527192512579422,0.19453333,0.46507645,0.84767085
10.2234,88710.9991,3.45004,1.84832,4.36702,-2.33656,-1.76968,-6.87284,-1.38,-31.08,-11.1,56.911259,-12.203651,155.362457,0.2359933663109303,0.19238293,0.44293174,0.84327185
10.2436,88711.0193,-0.16041,5.39414,6.0286,-1.08734,-0.45326,-4.25529,2.88,-30.12,-12.84,54.795452,-6.067202,144.600098,0.2927515281329399,0.18447013,0.4234817,0.83721596
10.2652,88711.0394,3.49075,6.59124,2.91374,-0.58277,-0.44043,-2.88878,6.54,-29.04,-14.64,53.746387,-3.584039,139.658585,0.3206989634847856,0.18197139,0.41446882,0.83201814
10.2819,88711.0604,9.69891,6.41167,3.94086,-0.3598,-1.20768,-3.42879,9.78,-27.48,-15.72,53.121212,-3.070868,136.402283,0.34316303194379294,0.18824053,0.40612105,0.8257544
10.3011,88711.0803,8.84418,5.37019,7.07726,0.49602,-1.58397,-4.77819,12.24,-26.4,-16.5,52.738304,-2.052765,131.613098,0.3743758489462768,0.19663233,0.39849934,0.8138653
10.3231,88711.1003,2.41096,3.51708,6.88572,1.50884,-2.31701,-5.05369,14.04,-25.32,-17.4,53.152267,0.525158,124.260109,0.4162572515088318,0.20551273,0.39740649,0.79155701
10.349,88711.1204,-1.1564,3.62243,7.04135,2.0238,-2.4007,-4.42205,15.54,-24.6,-17.52,54.132469,3.298511,116.141594,0.4596400398296866,0.218796,0.399571,0.76236629
10.362,88711.1403,-1.51553,4.37899,6.45956,2.21439,-2.32434,-3.63343,16.74,-23.46,-17.82,55.347408,5.954408,108.609825,0.4964386202751799,0.23326339,0.40351266,0.73233491
10.3827,88711.1603,-0.26576,4.84826,6.13155,2.25287,-2.36405,-3.317,17.76,-22.38,-17.82,56.579811,8.266995,101.762962,0.527620275941262,0.24899544,0.40678677,0.7029528
10.4028,88711.1804,-0.06704,5.08528,6.78517,2.74217,-2.18262,-3.2779,18.66,-21.0,-17.52,57.761341,10.722337,94.899147,0.5562986182133474,0.26491559,0.40957671,0.67275441
10.4236,88711.2003,-2.6839,5.29597,7.97987,3.76415,-2.31029,-3.01951,19.68,-20.28,-17.7,59.310555,14.412532,87.044739,0.5824112967052932,0.28086501,0.41707772,0.63871598
10.4431,88711.2203,-4.99909,4.68066,6.95276,4.6554,-2.61267,-2.3445,20.04,-20.16,-17.34,61.603077,19.124399,78.077805,0.6043127377874967,0.30233404,0.42886972,0.59955901
10.462,88711.2404,-7.19936,4.68785,5.86101,5.26749,-2.76355,-1.42881,20.4,-20.46,-16.74,64.529472,24.801779,68.051468,0.6203142317005979,0.33049825,0.44224462,0.5571363
10.481,88711.2603,-7.60638,4.23295,4.50589,5.78795,-2.24126,-0.40867,20.58,-21.48,-16.14,67.901611,31.635269,56.99612,0.6287704105211502,0.3643443,0.45508754,0.51458365
10.5018,88711.2803,-6.87615,6.76123,3.07416,5.8472,-0.82222,0.29383,20.76,-22.26,-15.06,71.675179,41.571865,43.913685,0.6252508057088169,0.40010753,0.47149488,0.4760966
10.5214,88711.3004,-5.60243,5.46117,-0.08619,5.89241,-0.83078,1.27915,20.82,-23.34,-13.44,75.062088,56.88504,26.864769,0.6108272051200639,0.43326735,0.491799,0.44418833
10.5432,88711.3203,-4.35745,6.608,-0.26336,6.12759,-1.45264,1.98043,21.06,-24.36,-11.76,77.939598,78.454941,3.170661,0.5910325068083929,0.47339109,0.50496745,0.41423342
10.563,88711.3414,-3.24654,7.98706,-1.84354,6.54848,-1.92972,2.16918,20.88,-25.98,-9.54,78.819344,109.345772,-30.521469,0.567345925828023,0.52007747,0.51150399,0.38210168
10.5816,88711.3613,-3.7972,7.40766,-3.01191,6.68164,-1.76479,2.36466,19.74,-26.94,-6.0,75.838333,139.000748,-63.756428,0.5385981247263868,0.57299179,0.51381385,0.34291077
10.6044,88711.3813,-3.16992,6.43083,-4.72855,6.5271,-0.07147,2.62977,18.66,-27.96,-2.88,70.56852,155.585403,-83.287918,0.5041440896034931,0.62143779,0.51505393,0.30720231
10.6228,88711.4023,-2.34871,5.26485,-6.72052,6.01886,1.44164,3.10686,16.86,-28.74,0.9,64.080719,167.179886,-95.873505,0.4547986576154724,0.66506445,0.52037793,0.28293863
10.6489,88711.4224,-1.4437,4.74531,-7.52019,5.47824,1.55465,3.84112,14.7,-28.98,5.04,57.723427,175.662079,-104.256454,0.401109551783574,0.70205438,0.52283669,0.2699492
10.6617,88711.4423,1.58736,5.09247,-6.15549,5.08912,1.76601,4.26934,12.72,-28.98,8.64,51.574245,-177.112488,-111.633392,0.34701456401723146,0.73846978,0.51479882,0.2631073
10.6825,88711.4623,4.52265,4.41251,-5.48751,4.78246,2.5583,3.75682,10.38,-28.38,12.78,45.387295,-170.47905,-117.876045,0.28983750932817054,0.77104533,0.50180453,0.26396123
10.7037,88711.4824,5.17387,2.35829,-6.49547,4.26262,2.82892,3.15084,7.68,-27.72,16.38,39.263634,-164.805786,-121.955727,0.23079669423084934,0.79482383,0.49177602,0.27045205
10.7211,88711.5023,4.44603,1.94888,-5.85382,3.86556,2.7715,2.78188,4.92,-26.22,19.56,33.668613,-160.152084,-124.522469,0.1757108628155145,0.81124389,0.48300427,0.27877575
10.7425,88711.5223,2.92811,1.01275,-6.77799,3.49354,3.36037,2.34756,2.04,-24.42,22.26,28.459219,-156.112488,-126.066032,0.12336982061294258,0.82215112,0.47538674,0.28784522
10.7611,88711.5424,3.25133,1.31921,-6.85221,3.20093,3.35121,2.33289,-0.78,-22.56,24.36,23.709583,-151.992569,-126.914986,0.07249101120587934,0.82728779,0.46880525,0.30093455
10.7816,88711.5623,3.60088,2.71742,-6.21295,3.1032,3.2217,2.31884,-3.78,-20.34,25.56,19.269779,-148.160599,-127.513916,0.024784425805362567,0.83006066,0.46039873,0.3137165
10.8011,88711.5823,5.58088,3.42131,-6.31351,3.04333,3.41901,1.80877,-6.18,-18.06,26.64,15.121405,-144.570053,-127.746742,0.02029761680273289,-0.83018422,-0.45177433,-0.32600939
10.8212,88711.6024,7.75003,3.04782,-7.11317,2.68353,3.52958,0.91752,-9.0,-15.84,27.24,11.58847,-140.832626,-127.272583,0.06285947800427116,-0.82482296,-0.44656157,-0.34102571
10.841,88711.6223,8.28633,1.98,-8.10437,1.9902,3.43001,0.34636,-11.46,-13.8,26.94,9.083875,-137.117981,-126.127747,0.09935807495048903,-0.81409568,-0.44612941,-0.35825235
10.8616,88711.6423,9.67976,2.81558,-7.67821,1.46852,3.43856,-0.41356,-13.56,-11.94,27.36,7.681103,-133.515182,-124.871063,0.12764129786580147,-0.80048579,-0.44766831,-0.37752256
10.8811,88711.6624,10.21606,2.79403,-7.62314,1.02686,3.99995,-1.12338,-15.9,-10.62,26.94,7.377984,-129.769562,-123.246849,0.15004543767885678,-0.78202963,-0.45346695,-0.40035453
10.9012,88711.6822,10.47942,2.6839,-7.5968,0.54428,4.66335,-1.44164,-17.82,-9.72,26.04,8.045196,-125.382431,-121.527367,0.1691334303931459,-0.75772816,-0.46099263,-0.42979962
10.9211,88711.7023,10.45069,2.42772,-7.92002,0.1069,4.65785,-1.49967,-19.62,-8.76,25.38,9.313735,-120.565094,-120.066101,0.18571232572158047,-0.72978956,-0.4672406,-0.46325409
10.942,88711.7223,13.65413,3.21062,-6.44759,-0.01222,4.50574,-2.1704,-21.18,-8.58,23.58,10.96993,-115.822632,-118.937462,0.19888042832349043,-0.70062381,-0.47216517,-0.49662149
10.9611,88711.7423,11.91834,1.41976,-7.01262,-0.13989,4.74459,-2.8222,-22.74,-9.0,21.3,13.364825,-111.345688,-117.578979,0.20803772610061802,-0.66750592,-0.48114863,-0.52882147
10.9812,88711.7623,8.43956,-0.43814,-7.04614,-0.6127,4.68411,-2.46912,-24.18,-9.84,19.14,16.149023,-106.904144,-116.371086,0.21492760927935473,-0.63179988,-0.49038553,-0.56049716
11.0031,88711.7823,9.97903,0.84276,-4.83389,-0.95661,4.56561,-1.78495,-25.2,-11.22,16.92,18.469345,-102.395866,-116.020477,0.22159514650156253,-0.59913015,-0.49279529,-0.59083962
11.0229,88711.8024,13.81694,3.54102,-2.99275,-0.86499,3.94314,-1.60474,-26.46,-12.84,14.7,20.169249,-97.797401,-116.332191,0.2292893878856418,-0.56959301,-0.48912099,-0.61947626
11.0453,88711.8223,14.84645,4.36463,-3.69904,-0.96944,2.25531,-2.03235,-27.12,-14.22,12.18,21.758345,-94.17131,-116.740074,0.23297595236004642,-0.54497707,-0.48659873,-0.64182854
11.0693,88711.8433,14.92785,3.27287,-3.0981,-1.40499,1.53449,-2.86801,-27.3,-15.72,9.9,23.959221,-92.007927,-117.542999,0.2245952622065644,-0.52700794,-0.48813111,-0.65844333
11.0894,88711.8643,15.31331,2.94008,-1.68073,-1.99997,1.22723,-3.53263,-27.3,-17.22,7.26,27.379753,-89.61631,-119.259613,0.204607125688419,-0.50586385,-0.49104837,-0.67905021
11.1065,88711.8843,13.6685,1.14203,1.31681,-2.23943,1.46485,-3.53141,-26.58,-19.08,4.92,30.965111,-87.142838,-121.923721,0.1780467688337661,-0.4868708,-0.49151373,-0.69976455
11.1244,88711.9044,11.82496,1.5706,4.18028,-1.66583,2.74706,-3.40435,-25.68,-21.0,3.12,33.791897,-83.747139,-124.861252,0.15778261229437493,-0.46599501,-0.48743248,-0.72136182
11.1494,88711.9254,13.89116,3.59609,3.68707,-0.94928,2.29441,-3.14107,-24.3,-22.98,1.2,36.253712,-79.347542,-127.275177,0.14684820553587352,-0.43729776,-0.48398149,-0.74361831
11.1675,88711.9453,15.50246,4.52025,2.54982,-0.95112,0.63102,-3.71101,-22.8,-24.6,-0.66,39.340233,-75.706306,-129.607956,0.1296233994863382,-0.40970868,-0.48648342,-0.76070392
11.1918,88711.9663,14.93264,5.19063,1.47004,-1.24067,-0.90164,-4.65663,-20.82,-25.98,-1.62,43.381271,-73.36216,-132.78006,0.0961537022776171,-0.3898876,-0.49390143,-0.77123505
11.208,88711.9863,12.31817,4.27126,1.41737,-1.74341,-1.97371,-4.94129,-18.42,-27.3,-2.88,47.787399,-71.780426,-137.310257,0.048442550609367564,-0.37979028,-0.50072342,-0.77633029
11.2286,88712.0063,10.93192,2.69587,2.75333,-2.03357,-0.76847,-4.99138,-15.72,-28.2,-4.26,51.009624,-70.092888,-142.793503,0.0013884213482303685,-0.3787429,-0.49943513,-0.77917677
11.2486,88712.0264,9.52653,3.5913,3.21781,-1.79717,0.3262,-4.51857,-13.02,-29.7,-4.68,53.867035,-65.943756,-149.338623,0.039990297999325485,0.36746255,0.49476108,0.78650081
11.2699,88712.0474,10.56801,6.00466,2.07577,-1.56076,0.12095,-3.80203,-10.38,-30.54,-5.94,56.11665,-60.80899,-155.82196,0.07337657098182304,0.35175198,0.49022129,0.79408407
11.2916,88712.0673,12.17452,6.09324,0.83558,-1.72386,-0.55467,-3.85517,-7.5,-31.14,-6.78,57.499851,-56.770798,-161.57428,0.10222158701499046,0.34367087,0.48442999,0.79797786
11.3119,88712.0883,11.22402,4.81235,1.901,-1.8888,-1.0458,-4.35608,-4.62,-31.56,-7.74,58.80603,-52.369202,-168.754456,0.13899776327463226,0.33940881,0.47611237,0.79924858
11.3299,88712.1083,9.82341,4.12042,3.8403,-1.59191,-0.56139,-4.99077,-1.68,-31.44,-8.94,59.979755,-47.351063,-176.857513,0.17889108772466156,0.33511069,0.46714136,0.79842204
11.3552,88712.1284,6.96713,4.51786,4.32872,-0.86132,-0.71288,-5.33957,1.26,-30.96,-10.32,61.528282,-40.829243,173.966644,0.22055235441783444,0.3245393,0.46294126,0.79480582
11.3701,88712.1481,5.04698,5.73172,4.72615,-0.17715,-1.67744,-5.11844,4.02,-30.36,-11.64,63.34314,-34.205414,164.349213,0.26372408954801263,0.31628361,0.46308011,0.78483826
11.3885,88712.1683,5.0781,5.76045,5.37259,0.50274,-2.85518,-4.93274,6.9,-29.22,-12.24,65.143127,-28.864744,154.94249,0.30802392402700324,0.31813458,0.46338513,0.76758444
11.4099,88712.1884,2.40138,4.85544,7.12993,1.29015,-2.9572,-4.70672,9.72,-28.5,-13.2,67.039215,-23.840714,144.938019,0.35447689583752495,0.32695785,0.4633477,0.74347401
11.4284,88712.2083,0.73741,4.55138,7.434,2.16857,-2.62061,-3.93458,12.0,-27.48,-13.56,69.112465,-18.27939,134.760757,0.3959000910035215,0.33614251,0.46662253,0.71591532
11.4509,88712.2283,1.19471,5.26006,6.90727,2.97858,-2.73607,-3.20521,14.16,-26.58,-13.86,71.459648,-13.576643,125.959152,0.427703620294349,0.34891948,0.47298163,0.68674099
11.4719,88712.2483,-0.07661,5.92565,6.29914,3.76232,-2.67498,-2.7996,15.42,-26.16,-13.62,74.277977,-9.120543,117.482918,0.453378755483978,0.36647543,0.48158416,0.65438533
11.4908,88712.2683,-2.70305,5.78439,4.19704,4.10868,-2.56502,-2.39215,16.32,-25.08,-13.14,77.627617,-2.324579,106.939018,0.4739324049527551,0.38572145,0.49414024,0.61841124
11.513,88712.2883,-4.50828,6.37815,3.79481,4.31576,-2.94071,-1.83809,17.52,-24.6,-12.48,80.826332,10.017004,90.986137,0.49132887640599454,0.40531105,0.50717258,0.58059871
11.5335,88712.3083,-5.73651,5.11401,4.07014,4.97916,-3.17894,-1.35979,18.42,-24.54,-10.98,83.401924,33.729019,63.140701,0.507727372808898,0.42900851,0.51785135,0.53851146
11.5582,88712.3284,-4.70461,5.42047,2.44209,5.52589,-2.56014,-0.9841,19.08,-24.54,-9.84,84.217102,77.268562,15.4415,0.518016615276435,0.45681307,0.52935737,0.49270821
11.5702,88712.3483,-4.56095,5.9041,0.29209,5.80627,-2.19362,-0.832,19.86,-24.6,-7.62,81.526131,115.034843,-25.880278,0.5197739910660647,0.48482364,0.5441736,0.44570857
11.5899,88712.3693,-5.88016,4.31675,-0.87867,5.9987,-2.03296,-0.3091,20.1,-25.08,-5.88,76.42485,132.401367,-46.761402,0.515633233591283,0.51441205,0.56081957,0.3936801
11.6103,88712.3903,-5.6982,4.26168,-2.73897,5.96266,-1.4056,0.4496,20.16,-25.08,-4.26,70.719185,141.47319,-59.316875,0.5041334826658663,0.5468657,0.57454145,0.34159839
11.6318,88712.4113,-5.08768,4.28562,-4.95121,5.22595,-0.4105,1.64201,20.4,-25.14,-1.68,65.298302,147.961655,-68.525887,0.4839686572518748,0.57866842,0.58503491,0.29774377
11.6627,88712.4313,-3.32555,5.10683,-4.89854,4.89181,-0.05986,2.72996,19.86,-25.56,0.54,60.621796,154.949341,-77.626518,0.45468841719249575,0.61350948,0.5880639,0.26654345
11.6705,88712.4514,-1.27611,5.47075,-5.86579,4.56255,0.54672,3.2498,19.08,-25.92,3.96,56.471581,161.835327,-86.391251,0.42115869945902734,0.64992571,0.58310258,0.24538399
11.6918,88712.4713,0.30167,6.16028,-6.71574,3.91015,1.52105,3.17344,17.7,-25.86,7.32,52.371738,168.74028,-94.373055,0.3819803087564764,0.6845274,0.57516462,0.23387805
11.7104,88712.4913,0.50039,6.5242,-6.80193,3.09342,2.16979,2.99996,15.78,-26.16,10.14,48.652435,175.164627,-100.657082,0.34132724222083993,0.71184701,0.56781232,0.23314956
11.7312,88712.5113,0.68953,6.22014,-6.9767,2.16491,2.60229,2.9065,13.86,-25.92,13.26,45.502289,-178.871429,-105.728256,0.3028051642562225,0.7328431,0.559744,0.24070039
11.7509,88712.5313,0.32561,6.43322,-7.32626,1.18874,3.21437,2.91199,11.88,-25.74,15.24,43.131554,-173.151657,-109.96106,0.2686102855305673,0.74766886,0.55070943,0.25604475
11.7714,88712.5513,0.46926,6.59124,-7.38611,0.1405,3.54974,3.05799,9.9,-25.86,17.04,41.628677,-167.154907,-113.918503,0.23899726185798428,0.75698394,0.5397734,0.28017905
11.7928,88712.5713,1.52989,6.5673,-5.79157,-0.7251,3.92542,3.21254,7.62,-25.5,18.48,40.936489,-160.67926,-118.16526,0.21497054428715337,0.76219869,0.52487957,0.31199721
11.8114,88712.5914,5.4085,7.62553,-3.23696,-1.1246,5.06102,2.51921,5.04,-25.86,19.08,40.805275,-153.166962,-122.938667,0.19405027605258324,0.76233846,0.50651383,0.35302734
11.8311,88712.6113,7.07965,8.02776,-3.10528,-1.22662,6.19845,1.18019,2.22,-25.8,19.56,41.053062,-144.610291,-126.725075,0.17097474605202892,0.74972236,0.49527797,0.40420756
11.854,88712.6313,6.65109,7.74045,-4.03184,-1.30664,6.05917,0.42944,-0.72,-26.1,19.2,41.737556,-135.994659,-129.028427,0.14751205629116218,0.72461438,0.49325073,0.45812434
11.8751,88712.6523,5.0374,7.3095,-4.58968,-1.61818,6.08116,0.19242,-3.9,-26.28,17.94,42.725433,-128.105301,-130.746567,0.12795774090888223,0.69482929,0.49384254,0.50691086
11.8959,88712.6733,3.9624,7.99185,-4.43885,-2.27425,6.99257,0.50335,-6.78,-26.58,16.56,44.008522,-118.930679,-133.071518,0.1084683896533585,0.65674835,0.49259248,0.56059688
11.9227,88712.6934,5.76045,10.53449,-3.31358,-2.70247,6.87468,0.58154,-9.0,-27.12,14.46,44.925793,-108.931923,-136.310928,0.08875721027833737,0.61540222,0.48593935,0.61421919
11.937,88712.7144,8.63349,9.06924,-1.37906,-2.86923,5.14532,-0.40073,-11.22,-27.3,11.94,45.563095,-99.069084,-140.234421,0.07353389648869355,0.57416636,0.47488061,0.66288322
11.965,88712.7343,6.58166,7.68778,0.51236,-2.60839,4.00056,-0.89675,-12.48,-27.6,9.24,46.776512,-90.509544,-144.406219,0.07096374334292804,0.53528231,0.46531498,0.70136935
11.9749,88712.7543,6.28957,6.30393,3.57933,-2.09466,3.8173,-0.86132,-13.56,-27.96,5.82,47.848602,-83.392258,-148.224396,0.07260014117214886,0.50190866,0.45768541,0.73030198
11.9932,88712.7744,8.12353,7.34062,6.44759,-1.16248,3.90709,-0.77885,-14.1,-28.32,2.58,48.419987,-76.38385,-151.579193,0.0698261553544507,0.46754229,0.45087186,0.75712818
12.0134,88712.7943,8.28394,9.41879,5.42526,-0.38668,3.80447,-0.49908,-13.74,-28.68,-0.36,48.936581,-70.596313,-153.402634,0.06203537967014573,0.43407401,0.44995832,0.77799028
12.0335,88712.8143,8.9208,9.39485,3.37104,-0.53206,4.39701,0.24496,-13.02,-29.58,-2.4,49.064728,-65.54924,-154.160828,0.04805482811736779,0.40194598,0.45037863,0.79579473
12.0543,88712.8343,12.19367,9.37091,5.47315,-0.42333,4.06225,0.58093,-12.18,-29.46,-4.38,48.194485,-60.444725,-154.613998,0.027171947376640283,0.37074432,0.44513255,0.81465781
12.0741,88712.8543,15.44021,10.18254,7.21134,0.28955,3.44528,0.11301,-11.88,-29.52,-5.64,47.55648,-55.993851,-154.657379,0.007412056270988408,0.34101945,0.44157264,0.82985806
12.0951,88712.8743,15.91426,9.44513,4.92487,0.49602,2.44529,-0.70921,-11.64,-29.28,-6.78,47.887386,-52.709133,-154.323746,0.00630880197510713,-0.31477657,-0.44471714,-0.83851212
12.1145,88712.8943,14.46098,8.84658,3.99353,0.2364,2.65421,-1.55221,-11.22,-28.8,-7.98,49.021759,-49.61512,-154.903046,0.009526069608579544,-0.29082325,-0.45053092,-0.84401006
12.1355,88712.9144,11.94467,8.01818,3.04542,-0.0843,2.94254,-2.06839,-10.26,-29.1,-8.94,50.58242,-45.070282,-156.889206,0.006875571869706851,-0.26044732,-0.45601296,-0.85098302
12.1552,88712.9354,9.72046,7.75243,3.49553,-0.34514,2.10565,-2.29319,-9.24,-29.04,-9.78,52.146523,-39.149883,-160.382233,0.0007960729364985589,0.22599407,0.45933315,0.85903382
12.1784,88712.9553,9.98861,7.29274,3.83312,-0.40928,0.5003,-2.58335,-7.86,-29.58,-9.72,53.288921,-34.502617,-164.059174,0.013345510813826584,0.20312381,0.46089616,0.86379242
12.2014,88712.9753,10.01734,6.6463,4.10845,-0.61758,-0.88942,-3.09892,-6.12,-29.88,-9.9,54.135918,-32.030544,-167.75444,0.03353538932423909,0.19762146,0.4610942,0.86441499
12.2202,88712.9954,7.62793,5.6575,4.54898,-0.94745,-1.35856,-3.37137,-4.32,-30.12,-10.08,54.73901,-30.425175,-172.267349,0.06257584048444342,0.20258503,0.45832101,0.86312538
12.2356,88713.0153,4.73334,5.71017,5.29358,-0.97983,-1.3097,-3.20949,-2.4,-30.66,-10.2,55.038849,-28.386108,-177.656296,0.09568249511627587,0.20824115,0.45229867,0.86192018
12.2559,88713.0353,5.05895,5.08289,5.88255,-0.83811,-0.84299,-3.02073,-0.36,-30.42,-11.1,55.0555,-26.308817,177.096085,0.12702639676050687,0.21315041,0.44479254,0.86057585
12.278,88713.0563,5.3678,4.27365,6.45477,-0.32803,-0.3598,-3.35548,1.38,-30.24,-11.76,55.091805,-23.497665,171.669418,0.156968608334841,0.21294902,0.4384611,0.85893273
12.2996,88713.0764,4.06296,4.88896,5.49469,0.05559,-1.05558,-3.54729,2.4,-29.76,-12.36,55.565674,-20.275532,166.157928,0.18639204337723325,0.2098812,0.43673566,0.85467529
12.3219,88713.0973,4.28802,5.01825,5.84664,0.39095,-2.98163,-3.76049,4.44,-28.86,-12.72,56.317837,-17.789701,160.000183,0.22311359594245583,0.2152115,0.43548858,0.84513551
12.3373,88713.1173,4.84586,4.39575,7.56568,0.99021,-4.0702,-4.19848,6.18,-28.14,-13.2,57.2258,-16.901722,153.537613,0.2672568237007689,0.23400736,0.43158668,0.82918471
12.3651,88713.1373,2.93769,3.89537,8.51857,1.86375,-4.48803,-4.30538,8.1,-27.9,-13.8,58.771828,-16.052011,146.059586,0.31735707999909674,0.2581774,0.42921728,0.80523378
12.3792,88713.1583,-0.22745,3.84748,8.18099,2.84785,-4.62058,-3.63892,9.9,-27.12,-14.04,61.252598,-14.867544,137.826202,0.3684916866612658,0.28562364,0.43127173,0.77242327
12.3984,88713.1783,-2.47321,4.02944,5.88495,3.44223,-4.64746,-2.41475,11.34,-26.82,-14.4,64.255859,-14.50477,131.067841,0.4090336555662401,0.31579849,0.43590912,0.73684871
12.4185,88713.1984,-1.56581,5.60243,3.67031,3.5589,-5.08057,-1.3494,12.18,-26.28,-14.34,67.549911,-16.122475,126.728729,0.4386554525496579,0.35096407,0.4397665,0.7007218
12.4384,88713.2183,0.59616,6.44998,3.25133,3.74094,-5.7067,-1.05985,12.6,-25.8,-14.1,70.838188,-21.034597,125.288445,0.4621401263254428,0.39395589,0.43774006,0.66303009
12.4585,88713.2383,0.90501,7.46273,3.12922,3.95413,-4.94495,-1.45203,13.14,-26.34,-13.5,74.418877,-27.826921,125.492554,0.4832786651794751,0.43904707,0.4341276,0.620655
12.4833,88713.2583,-2.56419,7.01262,1.54665,4.17526,-4.21253,-1.26327,12.84,-26.94,-12.42,78.620163,-33.816402,125.94175,0.5005429881370124,0.47590411,0.43766335,0.57569331
12.503,88713.2794,-5.56652,6.28239,0.13647,4.35242,-3.8961,-0.04032,12.6,-27.6,-11.16,83.214676,-46.342529,133.480896,0.5114956489125096,0.51136667,0.44465983,0.52835023
12.5236,88713.2993,-5.95438,5.21218,-1.41497,4.50574,-3.69818,1.18752,12.24,-28.74,-9.06,85.876549,-91.659309,174.335068,0.5132223767701497,0.54792005,0.44813469,0.485347
12.5445,88713.3203,-4.24253,5.14993,-2.1452,4.71954,-3.53813,2.10382,11.64,-29.16,-7.14,83.3312,-141.668472,-139.951416,0.5059946476421061,0.58824164,0.44667703,0.44544452
12.5629,88713.3414,-1.21147,4.6256,-3.07416,4.97244,-3.72139,2.51249,11.4,-30.0,-4.86,77.845192,-156.1875,-130.025085,0.4894101117872537,0.63525093,0.4390575,0.40516973
12.5829,88713.3611,0.0838,4.36463,-3.76129,5.15509,-3.96329,2.33412,10.02,-30.78,-2.16,71.468529,-161.23317,-129.883194,0.46592326386769806,0.68516237,0.42546064,0.36393857
12.606,88713.3823,-1.30005,4.19704,-4.53462,5.42754,-4.3347,2.21194,8.64,-31.26,0.54,65.135696,-165.835251,-130.447586,0.44147390131394115,0.73152792,0.41074345,0.31820986
12.6229,88713.4023,-1.4461,3.92649,-5.37738,5.58575,-4.52285,2.51432,7.62,-31.56,3.48,58.147308,-170.415558,-131.864838,0.4123610216974884,0.7786696,0.3922486,0.26414594
12.6465,88713.4224,0.6177,3.25372,-6.24647,5.49962,-4.41595,2.3952,6.42,-31.08,6.42,51.237843,-173.809357,-134.695114,0.37969412895413485,0.8219257,0.36831695,0.21121822
12.6634,88713.4423,0.1245,1.92015,-5.54018,5.31697,-3.88083,1.87475,5.64,-30.66,9.72,44.642513,-176.955643,-137.623184,0.3451171627560394,0.85858053,0.34364197,0.16013686
12.6839,88713.4623,-0.74939,-0.22505,-6.43322,5.55887,-3.32983,2.20583,5.16,-29.22,12.6,38.109428,-179.748749,-140.332794,0.3064012181441138,0.88889444,0.32137164,0.11271751
12.7015,88713.4824,0.02873,-0.62728,-6.32069,5.96449,-2.60778,2.2205,4.14,-27.96,15.84,31.245464,178.250763,-143.705673,0.26045522545165795,0.91632688,0.29601094,0.06989741
12.7221,88713.5023,2.20506,-1.05584,-8.56167,6.00908,-1.59925,1.72264,3.36,-26.04,18.72,23.828903,177.282242,-147.082886,0.2045097180207976,0.93948787,0.27244493,0.03622261
12.7426,88713.5233,1.61609,-1.81959,-8.8346,5.81666,-0.9499,1.60535,3.18,-23.76,21.36,16.141722,176.722092,-149.981033,0.1428852061581081,0.95696491,0.25243038,0.00899345
12.7642,88713.5433,2.35589,-2.07338,-10.38605,5.41471,0.4948,2.02013,2.64,-21.18,24.06,9.173099,177.004654,-152.685242,0.08382832014707534,0.96877587,0.23324801,-0.00644145
12.7826,88713.5634,6.88812,0.81882,-13.28543,4.65174,1.83687,1.76235,2.46,-17.76,26.52,3.094631,178.944885,-155.565186,0.0283344283786374,0.97700655,0.21129267,-0.00328162
12.8035,88713.5833,9.78031,3.90734,-16.46732,3.26324,2.60595,0.48747,1.8,-14.16,29.1,-1.668303,-177.897186,-157.441635,0.017858882585291915,-0.98046905,-0.1952744,-0.01514632
12.8244,88713.6033,10.01016,4.45082,-16.76899,1.70798,3.89549,-0.50946,0.78,-10.92,30.84,-4.887721,-174.386368,-157.594879,0.05128195613371415,-0.97928423,-0.19182038,-0.03971775
12.8473,88713.6233,10.30704,4.75488,-15.97172,-0.10629,5.59247,-1.39461,-0.6,-8.16,31.8,-6.204516,-169.310959,-156.69838,0.07155362582393994,-0.97472781,-0.19583696,-0.0802101
12.8659,88713.6433,11.24557,3.14838,-14.62378,-1.18447,6.0946,-2.52776,-2.58,-6.18,32.52,-5.258275,-162.50621,-154.963257,0.07718698689421945,-0.96536911,-0.20719637,-0.13847135
12.8852,88713.6633,9.71088,1.88903,-14.97094,-1.55954,6.05123,-3.08487,-5.4,-5.88,32.4,-2.784295,-155.408875,-152.478577,0.07369499277864326,-0.9499687,-0.22731756,-0.20113489
12.9049,88713.6833,9.97424,1.32878,-15.12178,-1.99997,7.21187,-3.4184,-8.28,-6.54,31.62,0.583842,-148.172684,-149.958664,0.06632692034605682,-0.92844373,-0.25058118,-0.26608655
12.9252,88713.7033,10.27831,2.31519,-14.72913,-2.65971,8.16727,-3.38786,-11.46,-8.22,30.9,4.875089,-139.658554,-147.947098,0.05674106363160758,-0.89732224,-0.27300969,-0.3421388
12.9452,88713.7233,10.30225,2.88501,-12.70842,-2.9517,8.46659,-3.35548,-14.88,-11.22,28.2,9.821604,-130.299759,-147.126068,0.04397141138805295,-0.85695148,-0.29032341,-0.42357171
12.9655,88713.7433,10.88165,3.34949,-12.05241,-3.0079,8.22286,-3.4294,-17.22,-13.8,25.2,14.92295,-120.452118,-147.375366,0.030115903447102257,-0.80788416,-0.30362073,-0.50421292
12.9856,88713.7634,10.41717,2.68629,-10.26394,-3.00851,7.14468,-3.4294,-19.5,-15.78,21.48,19.970709,-110.836578,-148.541733,0.014116628613182176,-0.75380337,-0.31454343,-0.57675266
13.0059,88713.7833,11.37006,2.42054,-6.26084,-2.57968,6.45196,-3.51492,-21.3,-18.3,16.5,24.694757,-101.969925,-150.507813,0.0041416551167577685,0.69974452,0.32337752,0.63699877
13.0237,88713.8033,10.72363,3.15795,-5.68384,-2.14963,6.02435,-3.5082,-21.9,-20.58,11.88,28.917892,-94.068932,-152.476822,0.020470760588423603,0.64776403,0.33385092,0.68448979
13.0443,88713.8234,10.2807,4.40533,-5.32231,-2.06595,5.64989,-3.45078,-22.02,-22.74,7.14,32.433746,-87.675529,-153.996567,0.03264948772391175,0.60269022,0.34590244,0.71836621
13.0642,88713.8433,9.65582,4.82192,-4.01029,-2.07572,4.73909,-3.49232,-21.12,-24.3,2.76,35.661137,-81.596802,-155.941971,0.04548965100617857,0.56004733,0.35634226,0.74652386
13.083,88713.8633,9.54329,4.37181,-2.82516,-2.21988,4.05126,-3.52103,-19.32,-26.46,-0.54,38.609348,-76.148972,-158.455246,0.061414519255069924,0.52311331,0.3644411,0.76796055
13.1068,88713.8834,11.1881,4.43406,-0.21308,-2.22599,3.84356,-4.04637,-17.34,-27.66,-3.66,41.253414,-70.605042,-161.827927,0.08040651752240953,0.48866048,0.36930016,0.78636068
13.1266,88713.9044,8.94234,4.72615,1.73101,-1.78067,3.61082,-4.65235,-15.06,-28.32,-6.48,44.366947,-64.107712,-166.388794,0.10597146666450524,0.45004788,0.37599283,0.80302948
13.1465,88713.9243,6.60081,4.04141,3.46202,-1.19913,3.33899,-4.57049,-12.12,-28.5,-9.0,47.449615,-57.659523,-171.216248,0.13202751406886756,0.41316858,0.38524681,0.81452155
13.169,88713.9463,6.71095,3.42131,5.4109,-0.65363,2.74889,-4.51246,-8.88,-28.62,-11.4,50.307713,-50.908352,-176.360321,0.1566348047399776,0.37664783,0.39595139,0.82269341
13.1894,88713.9673,3.85945,2.29125,6.27041,-0.22846,2.33351,-4.2675,-5.34,-28.8,-13.14,52.833923,-44.135727,177.995331,0.18164369052170598,0.34363452,0.40635762,0.8269186
13.2105,88713.9883,0.99599,2.37744,5.70778,-0.11301,1.86619,-3.32372,-1.26,-28.8,-13.5,54.915722,-37.140793,171.876831,0.20605324223674815,0.31284264,0.41597468,0.82863539
13.2322,88714.0093,-1.98,3.20105,5.35822,-0.26634,1.66949,-1.87169,2.34,-28.86,-14.16,55.758938,-31.399818,166.795151,0.22353858539487165,0.2893649,0.41967991,0.83076304
13.2519,88714.0294,-1.45328,4.46758,6.10043,-0.35308,1.84542,-0.6298,5.28,-28.2,-14.04,55.550213,-26.498735,163.016708,0.23280611497170742,0.26754087,0.41868147,0.83601975
13.2771,88714.0504,1.4461,6.47153,7.39329,-0.14722,1.89796,0.05131,7.92,-27.3,-13.68,54.692883,-23.173323,161.413345,0.23157161558443537,0.24873364,0.41529179,0.84382397
13.2925,88714.0703,2.31759,6.80911,6.06451,-0.02321,1.1918,-0.15394,9.48,-27.06,-14.22,54.025429,-21.076353,160.972107,0.22669584429477266,0.23450263,0.41345397,0.85010195
13.313,88714.0903,-0.84036,6.7708,6.49547,-0.16738,0.54917,-0.2364,10.68,-26.64,-13.74,53.60173,-19.199329,159.733994,0.2288546171609383,0.22474356,0.41145498,0.85312408
13.3335,88714.1103,-2.46363,6.50265,6.63194,-0.07575,0.5736,0.34697,11.1,-26.46,-13.56,53.149475,-17.510155,158.276291,0.23344341241297878,0.21701117,0.40857807,0.8552627
13.3541,88714.1313,-2.61447,6.70616,5.57131,-0.24679,0.64813,1.06291,11.52,-26.7,-13.56,52.653885,-16.528725,157.892441,0.23262405543431044,0.21058945,0.4060438,0.85829282
13.3776,88714.1533,0.9481,7.01501,7.91284,-0.54184,0.54734,1.50151,11.58,-26.7,-13.26,51.570625,-16.508181,158.723969,0.22587729985981372,0.20651773,0.39923182,0.86425912
13.3962,88714.1733,2.86586,7.71891,9.92636,-0.08125,0.40989,1.47096,11.28,-26.7,-13.44,50.166924,-17.23946,160.18898,0.21663116638625798,0.20582137,0.38955045,0.8711825
13.4167,88714.1934,2.24337,8.22648,8.69574,0.55161,0.24435,1.2425,11.16,-27.06,-13.44,49.466587,-18.1903,161.674393,0.20810763603807914,0.20752922,0.38500014,0.87487012
13.4355,88714.2133,0.51475,7.84819,6.01184,0.71899,0.22785,1.22601,10.38,-27.3,-13.32,49.524567,-19.213894,163.057083,0.201034214153483,0.21072896,0.3861495,0.8752526
13.4554,88714.2333,-0.95529,7.11557,3.62243,0.45326,0.06658,1.59925,9.54,-27.78,-13.2,49.775238,-20.242535,164.455231,0.19404520229224206,0.21397606,0.38892597,0.87481272
13.4791,88714.2553,0.11253,7.06768,3.32076,0.05315,-0.22174,1.91079,8.76,-28.02,-12.6,49.627438,-21.912628,166.449188,0.18433931235229617,0.21991792,0.38878959,0.87549859
13.4983,88714.2753,3.02867,7.26401,5.45399,0.02749,-0.73854,1.86497,7.56,-28.32,-12.18,48.904736,-24.289089,168.743927,0.1739391035069195,0.23027194,0.38394076,0.87710291
13.5178,88714.2953,3.28006,7.57525,6.59842,0.43982,-1.0061,1.69026,6.48,-28.56,-12.18,48.200459,-27.121315,170.863968,0.16611361049695184,0.24497034,0.37864345,0.87694067
13.5375,88714.3163,1.53468,7.36217,4.86023,0.57849,-1.01831,1.68904,5.46,-28.5,-11.94,47.969872,-30.090839,172.993317,0.15923949125241973,0.26071507,0.37733564,0.87423581
13.558,88714.3364,-0.22266,6.73489,2.77488,0.22663,-0.65729,2.13803,4.14,-29.4,-12.0,47.825722,-32.744091,174.977585,0.15257637790138454,0.27447081,0.37724701,0.87124676
13.5776,88714.3563,-1.43652,4.86741,1.4461,-0.62736,-0.23579,3.03295,2.94,-29.52,-11.76,47.022972,-34.887688,177.082703,0.14181762282130575,0.2844829,0.37346572,0.87148184
13.5989,88714.3763,0.36152,3.36146,1.59933,-1.39461,0.16616,4.03538,1.26,-29.52,-11.52,44.835625,-36.706799,179.535278,0.12363759816596961,0.29254657,0.36077562,0.87691003
13.6183,88714.3964,4.31196,4.03184,2.23858,-1.97248,-0.19609,4.36891,-0.36,-29.58,-11.52,41.22131,-38.636703,-177.523773,0.09733968918067677,0.30239224,0.33880854,0.88560301
13.6393,88714.4163,6.25844,3.89537,4.55856,-2.06534,-0.86499,4.28827,-2.64,-28.92,-11.88,36.736988,-40.922218,-174.933121,0.07074778609984224,0.31838578,0.30962184,0.89317387
13.6567,88714.4363,5.68384,1.01993,5.84664,-2.1814,-0.79046,4.63097,-4.86,-28.5,-12.48,31.683977,-43.303497,-172.775436,0.04418732026123572,0.33825925,0.27558383,0.89871114
13.6776,88714.4564,5.34625,-1.17795,6.83545,-2.18262,-0.9951,5.22778,-7.5,-27.78,-13.26,25.918755,-45.236008,-170.751312,0.013439218168295256,0.35687992,0.2365547,0.90360278
13.6984,88714.4763,6.68701,-2.08774,6.90248,-1.56626,-2.11359,5.77879,-10.68,-26.4,-14.58,19.370016,-47.401604,-168.382797,0.02407309849901248,-0.37860724,-0.19335228,-0.90481597
13.7186,88714.4963,8.91122,-2.15718,7.32147,-0.69883,-3.58334,5.88446,-13.56,-24.84,-15.6,12.828386,-50.880108,-165.440735,0.0661072436760874,-0.41065368,-0.15416004,-0.89622992
13.7367,88714.5173,13.20642,-0.07183,7.33105,0.35491,-4.56072,5.46908,-16.98,-22.62,-15.84,6.943896,-55.830368,-162.084335,0.10933057948284917,-0.4532727,-0.12562336,-0.87567657
13.7568,88714.5374,14.8632,0.9912,7.23288,0.63286,-4.00544,4.54117,-20.46,-19.92,-15.84,1.830379,-61.424015,-158.624008,0.15141258999881319,-0.49925208,-0.10820092,-0.84623528
13.7781,88714.5573,14.1617,0.96965,7.12275,0.47464,-2.30296,3.55768,-24.0,-17.82,-13.92,-2.120195,-65.384727,-156.1194,0.18386359555018195,-0.5315727,-0.09649596,-0.82116574
13.7999,88714.5773,13.63498,1.07021,6.07409,0.23457,-0.8039,2.87718,-27.0,-15.06,-12.12,-5.147798,-67.18618,-154.419373,0.2084541861685792,-0.54729927,-0.08588649,-0.80599868
13.8196,88714.5973,15.58386,2.73178,4.84347,-0.04704,-0.1179,1.89307,-29.04,-12.72,-10.92,-7.657365,-67.626572,-153.338684,0.22730016879625578,-0.55307734,-0.07403925,-0.79809666
13.8494,88714.6193,17.29811,3.62243,5.45399,0.07391,-0.26206,0.42455,-30.54,-10.74,-9.12,-9.386889,-67.67115,-152.92131,0.2381058985749753,-0.55543399,-0.06384192,-0.79418063
13.863,88714.6393,17.18079,3.12922,6.69658,0.57849,-0.78252,-1.08612,-31.32,-9.36,-8.82,-9.398735,-68.076149,-152.851517,0.23841553934888182,-0.55821323,-0.06493892,-0.79204732
13.883,88714.6603,16.00763,1.98958,7.14909,1.2535,-1.06046,-2.36038,-31.68,-8.82,-7.98,-7.477239,-69.108467,-152.788788,0.22927170526243604,-0.56272924,-0.08094425,-0.79007488
13.9049,88714.6813,14.64054,0.19632,4.78122,1.6756,-0.78069,-3.32555,-31.98,-8.94,-7.44,-3.917158,-70.265167,-152.428101,0.2138707983031197,-0.56522673,-0.10990622,-0.78911257
13.9237,88714.7014,14.80574,-0.34477,3.70622,1.70737,-0.57116,-4.09463,-31.92,-9.9,-7.08,0.498154,-71.062157,-152.090271,0.19380037344332693,-0.56313407,-0.14357939,-0.7903837
13.944,88714.7213,14.68603,-0.63925,3.81875,1.89429,-0.9218,-4.9529,-31.38,-11.82,-6.0,5.789996,-71.789238,-151.909836,0.16762091581986152,-0.55811375,-0.18179527,-0.79206234
13.9693,88714.7413,12.89756,-0.13886,2.17154,2.18751,-1.29198,-5.52589,-30.42,-14.1,-5.58,11.979589,-73.013283,-151.564529,0.1361600620850498,-0.55294424,-0.22662517,-0.79016083
13.9913,88714.7614,13.36922,-0.18196,-0.33998,1.87597,-1.63101,-6.0549,-28.98,-17.16,-4.2,18.668789,-74.777336,-150.962692,0.1012044528412416,-0.54773688,-0.2749663,-0.78366798
14.0044,88714.7823,11.14261,-1.10373,0.3304,1.17653,-1.96088,-6.45746,-26.88,-19.8,-2.76,25.310213,-77.133469,-150.719238,0.06067365243461014,-0.5452351,-0.31947818,-0.77263904
14.0226,88714.8024,8.86573,-0.63686,1.29287,0.43982,-1.25227,-6.0439,-24.36,-22.62,-1.74,31.363119,-79.108398,-151.148621,0.018232031355834812,-0.5418573,-0.35456893,-0.76179993
14.0452,88714.8223,9.75637,1.35991,2.53307,-0.00428,-0.52046,-5.68532,-21.0,-25.62,0.12,36.633343,-79.712799,-152.327484,0.021275813181156285,0.53304762,0.3797456,0.75577831
14.0649,88714.8433,7.88889,2.15957,2.8084,0.07819,0.08674,-5.30414,-17.4,-28.08,0.96,41.410244,-79.096588,-153.972626,0.05691618821559469,0.51891565,0.39974302,0.75345379
14.0844,88714.8633,8.94234,3.83551,2.82995,0.24557,0.51191,-5.07629,-13.74,-30.0,1.5,46.043716,-77.663864,-155.64238,0.08845392256964706,0.49984014,0.41953874,0.75254434
14.104,88714.8834,8.99023,4.65433,3.20344,0.38912,0.49847,-5.55154,-9.78,-31.14,1.68,50.34874,-75.783508,-157.332321,0.11579706553217588,0.47902426,0.43838322,0.75162953
14.1247,88714.9033,6.38055,3.83791,3.20823,0.58093,0.44899,-5.61324,-6.36,-31.56,1.56,55.080009,-73.483368,-159.544479,0.1460327347328433,0.45620662,0.45880949,0.74836075
14.1466,88714.9233,6.00705,4.30956,3.10049,0.87354,-0.13806,-5.35851,-2.94,-32.34,1.92,59.748634,-70.979782,-162.069901,0.17562216425934574,0.43406531,0.47905487,0.74246252
14.1663,88714.9434,6.78517,4.77164,3.68468,1.37994,-1.49723,-5.50878,0.84,-32.46,2.1,64.244415,-69.347481,-164.560226,0.20619708941359852,0.418704,0.49805334,0.73083007
