AppTimestamp(s),SensorTimestamp(s),acc_x,acc_y,acc_z,gyro_x,gyro_y,gyro_z,mag_x,mag_y,mag_z,PitchX,RollY,YawZ,Quat_w,Quat_x,Quat_y,Quat_z
0.0421,6013.5905,-1.4629,7.43662,7.17564,-0.1868,0.02279,-0.12641,-16.3,-15.2,-25.7,41.724213,8.626509,-79.579865,0.7331270971635813,0.31784299,-0.173261,-0.57574397
0.0441,6013.6105,-1.89387,8.04476,7.43183,-0.55027,0.28118,-0.09037,-16.4,-15.2,-25.7,41.424145,8.843133,-79.699623,0.7334422076382974,0.31692299,-0.170589,-0.57664698
0.0459,6013.6306,-2.0902,8.71756,8.42545,-0.50873,-0.14092,-0.07265,-16.4,-15.2,-25.8,40.842434,9.106318,-79.715477,0.7348751911780937,0.314677,-0.165803,-0.57744801
0.0576,6013.6506,-1.99204,8.96895,9.50288,-0.11045,-0.51355,-0.25225,-16.5,-15.2,-25.8,40.451649,8.901258,-79.834503,0.7347230453347159,0.31108299,-0.165327,-0.57972097
0.1189,6013.6706,-2.3847,9.27063,10.01765,0.37214,-0.42925,-0.33899,-16.5,-15.2,-25.9,40.498833,8.686096,-80.329025,0.7318106237225447,0.30955899,-0.168299,-0.583354
0.1234,6013.6906,-3.09819,9.76625,9.98891,0.62931,-0.3419,-0.22903,-16.6,-15.2,-25.8,41.01289,8.654524,-80.932098,0.7277043504487106,0.31162101,-0.172938,-0.58603001
0.1244,6013.7107,-3.48128,9.97215,9.97455,0.80097,-0.35839,-0.11908,-16.6,-15.3,-25.7,41.773808,8.701457,-81.414886,0.7238335661561018,0.31571001,-0.17812701,-0.58708
0.1457,6013.7307,-3.50282,9.60583,9.81653,1.06608,-0.66688,-0.06349,-16.7,-15.3,-25.6,42.760704,8.59598,-81.811195,0.7196877365821923,0.32045099,-0.185303,-0.58738703
0.1578,6013.7507,-3.60817,9.11022,9.45739,1.41244,-0.8929,0.0312,-16.7,-15.5,-25.7,44.038673,8.247834,-82.217125,0.7144238145792872,0.325591,-0.19563501,-0.58763599
0.1746,6013.7708,-3.74704,8.42306,8.95938,1.62014,-0.71636,0.11061,-16.8,-15.7,-25.5,45.646229,7.743661,-82.544609,0.7084351246930233,0.33191901,-0.208505,-0.58692002
0.1999,6013.7908,-3.5986,7.63055,8.47094,1.88647,-0.48423,0.04708,-16.9,-15.9,-25.2,47.423363,7.665131,-82.926392,0.702381956214907,0.34119999,-0.219813,-0.58474302
0.232,6013.8108,-3.36635,6.91945,7.73351,2.0227,-0.27531,-0.02561,-17.0,-16.2,-24.9,49.361729,8.045683,-83.53537,0.6955593067789686,0.35313499,-0.22991499,-0.58192098
0.2344,6013.8308,-2.98805,6.21793,6.5675,1.87609,-0.18063,-0.20582,-17.1,-16.6,-24.7,51.26194,8.866963,-84.392372,0.6884095130856919,0.36632499,-0.23804501,-0.57899302
0.2536,6013.8509,-2.63131,5.49965,5.02079,1.37029,0.04783,-0.46422,-17.2,-17.2,-24.4,52.791737,10.122935,-85.667831,0.6809777212741392,0.37847301,-0.24312299,-0.57785702
0.2715,6013.8709,-2.58103,4.72869,3.79493,0.6513,0.44978,-0.31272,-17.6,-18.9,-22.4,53.583092,11.92791,-87.236176,0.6750493299554337,0.38853601,-0.242118,-0.578556
0.2926,6013.8909,-2.42301,4.29772,3.04552,-0.01698,1.39846,-0.11419,-17.0,-20.0,-21.9,53.630093,13.915002,-88.331741,0.673548253779846,0.396534,-0.23444501,-0.57803899
0.3137,6013.911,-2.03992,3.74704,2.77736,-0.52461,1.52063,0.29509,-16.2,-20.1,-21.6,53.098484,16.171824,-88.740189,0.6770649110729485,0.40432101,-0.21950801,-0.57438999
0.3376,6013.931,-1.74782,3.47649,2.98805,-0.82638,1.43939,0.62496,-16.4,-20.1,-22.3,52.260944,17.627869,-88.161095,0.6842710011013908,0.40834299,-0.203945,-0.56871402
0.3518,6013.951,-1.4629,3.56747,3.3041,-0.93084,1.44488,0.76179,-16.5,-19.8,-21.9,51.31044,18.483913,-86.937973,0.6935438866058296,0.40973401,-0.188924,-0.561625
0.3736,6013.971,-1.4222,3.52916,4.2235,-1.19107,1.54323,0.68299,-16.5,-20.1,-23.1,50.307732,19.103584,-85.428398,0.703694486965643,0.40986401,-0.173972,-0.55367798
0.393,6013.9911,-1.53952,3.55071,5.10699,-0.94428,1.81568,0.92,-16.5,-20.0,-22.9,49.12064,19.67972,-83.894707,0.7139969861071961,0.40849599,-0.15815,-0.54619402
0.4118,6014.0111,-1.46051,3.67761,5.74865,-0.58448,1.78269,1.40381,-16.3,-20.2,-22.7,48.311241,20.184933,-81.974594,0.7251339629663058,0.40899199,-0.143553,-0.53506899
0.4379,6014.0311,-0.85954,3.9745,5.99766,-0.23812,1.55667,1.7685,-16.1,-20.2,-22.9,47.954388,20.113035,-79.509338,0.7370354628487965,0.40964901,-0.133223,-0.52078599
0.4514,6014.0511,0.1652,4.3911,5.99048,-0.03164,1.40334,1.90533,-15.7,-20.0,-23.3,48.009098,19.389141,-76.654953,0.7488814490064762,0.40997601,-0.128005,-0.50468898
0.4715,6014.0711,1.27136,4.95375,5.91386,-0.0463,1.30866,1.75017,-15.3,-19.8,-23.4,48.231918,18.252602,-73.60714,0.7603817599079689,0.40973699,-0.12576,-0.487975
0.497,6014.0911,1.88908,5.45176,5.88752,-0.11839,1.22864,1.43619,-14.7,-19.2,-23.7,48.365341,16.965063,-70.65979,0.7710432625147307,0.40836501,-0.12452,-0.47246701
0.5129,6014.1111,2.10696,5.77739,5.88992,-0.09823,1.10646,1.20161,-14.2,-19.1,-24.4,48.394875,15.691656,-67.999802,0.7804066038071947,0.40625501,-0.123831,-0.45889899
0.5393,6014.1311,2.25541,6.00484,5.66485,-0.14771,0.92748,1.04768,-14.0,-18.6,-25.2,48.44553,14.370129,-65.558632,0.788500740213121,0.40399799,-0.124487,-0.44671601
0.5544,6014.1511,2.44455,6.20835,5.49965,-0.378,0.83952,0.97926,-13.5,-18.1,-24.9,48.382214,12.893679,-63.205841,0.7961049779454213,0.40047601,-0.126148,-0.435801
0.5723,6014.1711,2.77018,6.42384,5.61697,-0.53072,0.97391,0.96399,-13.4,-17.7,-25.4,48.095699,11.331058,-60.81942,0.8040892896633681,0.395356,-0.12751099,-0.42529401
0.5972,6014.1911,3.07904,6.62017,5.69119,-0.54172,1.17671,0.8858,-13.3,-17.7,-26.1,47.720409,9.966641,-58.433014,0.8123230062524389,0.390488,-0.127363,-0.41404
0.6159,6014.2111,3.07185,6.90509,5.82048,-0.60586,1.25613,0.8858,-12.9,-17.2,-26.4,47.332294,8.844335,-56.181625,0.8201769384992118,0.38632101,-0.126147,-0.40268201
0.6427,6014.231,3.02397,7.1948,6.00245,-0.6816,1.32332,0.93711,-12.9,-17.2,-26.4,46.902779,7.806502,-53.887329,0.8281946797036792,0.38224599,-0.124238,-0.39057201
0.6613,6014.251,3.012,7.54915,6.11019,-0.87586,1.32027,0.79172,-12.6,-16.8,-26.8,46.373436,6.853887,-51.638309,0.8362337499258327,0.377722,-0.121713,-0.37845099
0.6738,6014.271,2.99284,7.91308,6.35919,-1.01208,1.06065,0.57975,-12.1,-16.1,-27.4,45.633308,6.090962,-49.700336,0.8438819678555526,0.37196201,-0.118298,-0.368121
0.6967,6014.291,2.842,8.34165,6.89072,-0.97604,0.53469,0.36717,-11.6,-15.5,-27.8,44.784821,5.290419,-48.175575,0.8503594310811163,0.36482099,-0.116358,-0.36090899
0.7182,6014.311,2.72229,8.6984,7.47732,-0.67366,-0.09083,0.25477,-11.3,-14.7,-28.1,44.053402,4.177729,-47.03091,0.8549126047655748,0.35714599,-0.118557,-0.35709301
0.739,6014.331,2.8875,8.92825,7.62577,-0.40794,-0.59724,0.08312,-11.0,-13.9,-29.1,43.665047,2.657995,-46.140892,0.8571849098410562,0.35049701,-0.12588499,-0.35572299
0.7551,6014.351,2.93059,9.03599,7.60182,-0.41588,-0.95276,-0.1765,-10.8,-13.6,-29.0,43.466667,0.941299,-45.586487,0.8575261683860614,0.34431601,-0.13641299,-0.35705301
0.7723,6014.371,2.73187,9.13895,7.8604,-0.34563,-1.12869,-0.27729,-10.8,-12.9,-29.0,43.24905,-0.765861,-45.387005,0.8566796057586872,0.33758801,-0.14790601,-0.36091301
0.795,6014.391,2.59061,9.20359,8.13575,-0.15626,-1.31562,-0.42207,-10.8,-12.8,-29.4,43.166233,-2.485277,-45.331009,0.8547939644085935,0.33159101,-0.160327,-0.36560899
0.8124,6014.411,2.54511,9.14852,8.33447,-0.08235,-1.3541,-0.62915,-10.9,-12.6,-29.3,43.267345,-4.121908,-45.526691,0.8514726460740121,0.326801,-0.173382,-0.37166399
0.8324,6014.431,2.37991,8.97135,8.5715,-0.06707,-1.16168,-0.82402,-10.7,-12.3,-29.6,43.426846,-5.409925,-46.026939,0.8473269680587417,0.32300001,-0.18483099,-0.378874
0.8543,6014.451,1.94176,8.77502,8.89952,0.09297,-1.12442,-0.88755,-10.8,-12.0,-29.7,43.613319,-6.200043,-46.783043,0.8429140890065724,0.32051301,-0.19334801,-0.386502
0.8767,6014.471,1.52276,8.5715,9.04078,0.38802,-1.37059,-0.87533,-11.0,-11.7,-29.9,43.990196,-6.882916,-47.604263,0.837747426595176,0.31959099,-0.201805,-0.39410099
0.8942,6014.491,1.31925,8.35602,8.97374,0.57372,-1.38709,-0.86128,-11.1,-11.4,-29.8,44.638672,-7.726585,-48.374859,0.831467310120007,0.320104,-0.21210299,-0.40150699
0.9185,6014.511,1.28333,8.18842,8.86839,0.67391,-1.20139,-0.95902,-11.4,-11.3,-29.7,45.444492,-8.450623,-49.124863,0.8248093737241957,0.322106,-0.221939,-0.40826499
0.9439,6014.531,1.19714,8.00646,8.78938,0.79791,-1.16901,-1.09585,-11.7,-11.2,-29.5,46.379196,-8.798867,-50.048134,0.8176892036104181,0.32593399,-0.22996899,-0.41504899
0.9555,6014.551,1.09658,7.76463,8.66967,0.96712,-1.18978,-1.18992,-12.2,-11.3,-29.2,47.451801,-8.981861,-51.158405,0.8096153006691881,0.33086199,-0.237848,-0.42247099
0.9758,6014.571,0.94095,7.46056,8.27701,1.05936,-1.1629,-1.31576,-13.4,-12.1,-28.0,48.674007,-9.006086,-52.445827,0.8005447061196893,0.33693999,-0.24570499,-0.43038201
0.9927,6014.591,0.72786,7.17085,7.82928,1.0276,-1.09509,-1.38296,-13.8,-12.6,-27.9,49.891239,-8.764207,-54.062824,0.7906496686658256,0.34310001,-0.252832,-0.43958101
1.0129,6014.611,0.59857,6.941,7.42704,0.98239,-1.06455,-1.4526,-14.8,-13.7,-26.7,50.994919,-8.255629,-55.881168,0.7808034572412059,0.34886399,-0.25857499,-0.44919801
1.0495,6014.6309,0.44294,6.83565,7.11339,1.00194,-1.202,-1.59737,-15.1,-14.4,-25.6,52.001541,-7.536366,-58.014336,0.7703727989003766,0.35392001,-0.26378,-0.460094
1.0543,6014.6509,0.07662,6.66087,6.80453,1.06242,-1.32356,-1.69022,-15.8,-16.3,-25.2,52.994957,-6.666353,-60.537052,0.7585634181814199,0.358455,-0.269449,-0.47274601
1.0724,6014.6709,-0.44534,6.38793,6.40229,1.07036,-1.40969,-1.6328,-15.7,-17.0,-24.3,54.003063,-5.716564,-63.340748,0.7454792054651019,0.36259601,-0.27588999,-0.486487
1.0958,6014.6909,-0.69913,6.21793,6.25385,1.0111,-1.33333,-1.49352,-16.4,-18.0,-24.3,54.930225,-4.775234,-66.121078,0.7325064615417806,0.366036,-0.282363,-0.49972299
1.112,6014.7109,-0.82124,6.1485,6.12456,1.08991,-1.09571,-1.52957,-16.2,-18.5,-22.5,55.766384,-3.684951,-68.89962,0.7200023432003537,0.369376,-0.287853,-0.512151
1.1326,6014.7309,-1.15404,6.0216,5.58584,1.12411,-1.01996,-1.47886,-16.9,-20.8,-22.0,56.639931,-2.114002,-72.027168,0.7067977005836109,0.37411401,-0.29202199,-0.52459401
1.1539,6014.7509,-1.27136,5.88752,4.78137,1.04837,-1.18245,-1.25651,-16.5,-21.7,-20.8,57.466763,-0.534434,-75.075363,0.6939392420707733,0.37870401,-0.29614401,-0.53603202
1.1744,6014.7709,-1.05348,5.84442,4.27139,0.85778,-1.35471,-1.19909,-16.8,-22.3,-19.9,58.153103,0.625625,-77.859901,0.681531769842683,0.381042,-0.301658,-0.54710501
1.2006,6014.7909,-0.84518,5.79415,3.94816,0.74721,-1.20872,-1.43671,-16.7,-22.8,-19.0,58.667412,1.813395,-80.887825,0.6684068904072574,0.381733,-0.30725899,-0.55955702
1.2221,6014.8109,-0.98405,5.66007,3.4286,0.45888,-0.8086,-1.75681,-17.0,-24.3,-19.4,59.027206,3.800499,-84.51799,0.6547051618693864,0.383807,-0.30974701,-0.57280898
1.2407,6014.8309,-1.65684,5.52359,2.82046,0.02944,-0.46774,-2.02314,-16.0,-24.9,-18.2,59.024792,6.736298,-88.796501,0.6409617761617142,0.38713199,-0.30752701,-0.58713198
1.2517,6014.8509,-2.60018,5.38472,2.45174,-0.39022,-0.42803,-2.1221,-15.0,-25.0,-18.1,58.473701,10.242771,-93.389839,0.6278448245679812,0.390347,-0.30058599,-0.60256797
1.2745,6014.8709,-3.36396,5.25064,2.32005,-0.63273,-0.68032,-2.15815,-14.2,-25.5,-18.7,57.409035,13.653587,-97.936974,0.614783116235994,0.39171299,-0.29129601,-0.61947501
1.2923,6014.8909,-4.13731,5.19558,2.28893,-0.80683,-1.10914,-2.29498,-14.1,-25.6,-18.2,56.03558,16.825308,-102.494858,0.6002464950191541,0.39160001,-0.28154701,-0.63803202
1.3156,6014.9109,-5.34642,5.21234,2.72468,-0.85937,-1.66809,-2.42082,-13.4,-26.2,-17.5,54.344921,19.591551,-107.185959,0.5828480760005638,0.388908,-0.27234599,-0.65944397
1.3418,6014.9309,-6.36638,4.98488,3.41424,-0.67183,-1.85073,-2.32125,-13.3,-26.2,-17.5,52.538799,21.822298,-111.924072,0.5622827636571828,0.38391501,-0.26512301,-0.68275702
1.352,6014.9509,-6.87157,4.87235,4.17322,-0.67061,-1.70168,-2.16853,-13.9,-26.4,-17.4,50.779846,23.869959,-116.422951,0.5409872136594164,0.37979299,-0.25816399,-0.70458603
1.3719,6014.9709,-7.22832,5.22431,5.80851,-0.46108,-2.16777,-2.09706,-13.4,-26.5,-17.2,48.944916,25.614399,-120.468994,0.5203226557125682,0.37567899,-0.25049299,-0.72483301
1.4009,6014.9909,-7.85322,5.1429,5.99287,-0.72681,-2.19038,-2.15692,-13.2,-26.9,-16.6,47.064354,26.458282,-124.279114,0.49786529792083284,0.367127,-0.24556801,-0.74635398
1.4139,6015.0109,-8.87318,5.32487,5.32966,-1.37677,-1.13114,-1.44954,-13.5,-26.7,-17.0,44.811535,27.323158,-127.536278,0.47783044336523695,0.35957801,-0.23572101,-0.76604003
1.434,6015.0309,-8.8229,5.69119,5.80372,-2.21365,-1.01507,-0.28279,-13.5,-26.9,-16.8,42.253574,27.702391,-128.769882,0.46934618312075344,0.35265499,-0.219017,-0.77934599
1.4536,6015.0508,-8.62897,5.96653,7.55394,-2.0475,-0.78477,0.11122,-13.2,-27.1,-16.7,39.658825,26.984255,-128.264008,0.4703174225742862,0.34140399,-0.20105,-0.78855801
1.472,6015.0708,-8.28419,5.92583,8.70079,-1.59912,-0.31807,0.526,-12.8,-27.2,-16.7,37.561306,26.532803,-127.512939,0.4737378141899584,0.333428,-0.184985,-0.79383802
1.4917,6015.0908,-8.35841,6.00963,8.70319,-1.82209,-0.3309,1.09105,-12.5,-27.2,-17.0,36.031902,26.131121,-126.373451,0.48026419504535106,0.327768,-0.17190801,-0.79521197
1.5212,6015.1108,-6.87875,6.41187,9.55316,-1.82087,0.01118,1.75689,-12.2,-27.1,-17.3,34.57795,25.179993,-124.267815,0.49282592935818526,0.31955999,-0.159134,-0.79352403
1.5341,6015.1308,-5.61936,6.24187,10.5372,-1.89967,1.96045,1.25415,-12.0,-26.8,-17.7,33.225208,24.850798,-121.806221,0.5088289413065846,0.31593901,-0.143701,-0.78779799
1.5732,6015.1508,-5.79654,5.92583,10.94184,-1.72985,2.7106,1.46123,-11.8,-25.4,-19.2,31.834852,26.47965,-119.716965,0.5243682719104957,0.324518,-0.120272,-0.77798498
1.5804,6015.1708,-5.96174,5.66485,11.03761,-1.65044,2.79184,1.87234,-11.5,-23.8,-21.3,30.798874,28.419422,-117.128265,0.543052148704818,0.33618,-0.096211,-0.76342702
1.5917,6015.1908,-5.7702,5.57148,10.75987,-1.52948,2.31964,2.16006,-11.3,-21.6,-23.7,30.194263,29.934984,-114.006683,0.5643735489095844,0.34616601,-0.075237,-0.74564803
1.6118,6015.2108,-4.65208,6.04315,11.78941,-1.30346,1.51269,2.18083,-11.1,-20.2,-26.9,29.875572,30.606594,-110.568253,0.5866727834353147,0.35121101,-0.059141,-0.72730201
1.6366,6015.2308,-3.82126,6.20117,12.03363,0.24264,1.4626,1.73551,-10.8,-18.8,-25.7,30.073544,30.738073,-107.589973,0.6055349655246838,0.35430101,-0.050668,-0.710796
1.6611,6015.2508,-3.72789,6.45257,10.69283,0.98972,1.55117,1.61456,-10.4,-19.1,-28.0,31.436064,31.479359,-105.98716,0.6163568740085893,0.36546901,-0.051052,-0.69565099
1.6902,6015.2708,-3.64887,6.76383,9.17007,0.36359,1.35509,1.65976,-9.9,-18.8,-27.0,33.109108,32.220737,-104.590294,0.6257739989383383,0.37785801,-0.053899,-0.68023902
1.7086,6015.2908,-3.85718,6.66566,8.50925,0.09786,1.31477,1.81187,-9.5,-18.6,-27.1,34.220425,32.417221,-102.631271,0.6377287129192941,0.38483101,-0.053787,-0.66506702
1.7198,6015.3108,-3.82126,6.25863,8.25307,0.2854,1.21642,2.19671,-9.3,-18.4,-27.0,35.37595,32.342579,-100.326889,0.6511454452804684,0.39068499,-0.054096,-0.64841998
1.7335,6015.3308,-3.02636,6.04554,8.29856,0.61526,0.79614,2.27918,-10.1,-17.7,-26.0,36.936668,31.889894,-97.756279,0.665348946993771,0.39660701,-0.05809,-0.62979299
1.7717,6015.3508,-2.81327,5.53796,7.33606,0.73255,0.70696,2.35615,-10.3,-18.4,-27.4,38.771709,30.993279,-95.281647,0.678003118604922,0.401752,-0.066543,-0.611947
1.7777,6015.3709,-2.70314,5.07586,6.16047,0.15223,0.79737,2.66952,-10.0,-17.7,-27.1,40.54084,29.814302,-92.44146,0.6915381408319428,0.405873,-0.074758,-0.59283501
1.7965,6015.3909,-2.1764,4.84841,4.92263,-0.65473,0.83585,2.74344,-10.2,-17.7,-26.9,41.740177,28.105045,-88.687744,0.7087000386985737,0.40573201,-0.079299,-0.571697
1.8154,6015.4109,-1.2977,4.49884,4.31927,-1.40426,0.58234,2.66402,-10.3,-17.9,-27.2,42.118092,25.994684,-84.33744,0.7282011521208539,0.400401,-0.079484,-0.55053103
1.8376,6015.431,-0.5866,4.03675,4.43899,-1.85508,-0.17757,2.23581,-10.2,-17.4,-27.6,41.664059,23.338165,-79.853645,0.7480837341146641,0.38840899,-0.078564,-0.53229398
1.8525,6015.451,-0.65364,3.42621,5.46134,-1.89539,-0.55265,2.21565,-10.2,-16.8,-28.1,40.530098,20.163397,-75.850014,0.7658282655290936,0.36993101,-0.080062,-0.51985401
1.8808,6015.471,-0.47885,2.73905,6.37117,-1.21794,-0.72124,2.53147,-10.2,-16.2,-28.4,39.423428,16.836929,-71.942886,0.7826808972013816,0.35098401,-0.084441,-0.50704098
1.8935,6015.491,0.28971,2.36315,7.15649,-0.38961,-0.61373,2.77398,-10.3,-15.6,-28.6,38.940128,13.347905,-67.96389,0.7981495011346307,0.33576,-0.094178,-0.49127701
1.914,6015.5111,0.97926,2.31048,7.66407,0.23103,-0.32663,2.49054,-11.0,-13.7,-28.9,38.933064,10.022031,-64.03727,0.8117856709235509,0.32514399,-0.10619,-0.47329599
1.9423,6015.5311,1.2977,2.01598,7.49887,0.48759,0.15535,2.58095,-12.4,-12.4,-29.7,39.172253,7.306802,-60.388855,0.8234007977044228,0.31934601,-0.116365,-0.45440999
1.9591,6015.5511,1.42699,1.69754,6.79735,0.36664,0.03134,2.9157,-12.2,-11.8,-29.7,39.354877,4.702633,-56.371483,0.8357749409038416,0.31479299,-0.124862,-0.43219799
1.9794,6015.5712,2.14048,1.49403,6.41666,0.00806,0.00691,3.51252,-13.5,-10.3,-29.2,39.058891,1.442063,-51.691708,0.849961156001308,0.30599901,-0.13505,-0.40705299
1.9991,6015.5912,3.261,1.60895,6.6896,-0.13732,0.39664,3.60903,-13.8,-9.1,-29.1,38.177475,-2.095393,-46.253094,0.8665773477509552,0.293915,-0.144316,-0.37660399
2.0132,6015.6112,4.06787,1.90105,7.38634,-0.16848,0.22315,3.1857,-13.7,-8.1,-30.2,36.912689,-5.22822,-40.932545,0.8827163989218167,0.28116301,-0.15111201,-0.344854
2.0381,6015.6312,4.63532,2.25301,8.26264,0.09969,-0.3028,2.70312,-14.3,-7.6,-30.3,35.549225,-8.268077,-36.299416,0.895675805480733,0.267946,-0.160079,-0.31677201
2.0604,6015.6513,4.8077,2.87792,8.7822,0.66841,-0.41398,2.27246,-14.0,-6.4,-30.1,34.534077,-11.32564,-32.351795,0.9044914878868345,0.257433,-0.172785,-0.29286301
2.0875,6015.6713,4.767,3.44297,8.62897,1.09785,-0.61679,1.95603,-14.0,-6.0,-29.4,34.126701,-14.22789,-28.821978,0.9097294083769524,0.25254399,-0.187132,-0.271285
2.0956,6015.6913,4.83404,3.82126,7.99209,1.16687,-0.60701,1.5834,-15.1,-6.4,-29.3,34.112244,-17.053476,-25.57716,0.9123708425657079,0.25149399,-0.20244101,-0.25169
2.1193,6015.7114,4.79094,4.11815,7.09902,0.89443,-0.54776,1.28591,-14.7,-6.3,-29.2,34.170574,-19.514248,-22.845982,0.913520610834512,0.25172701,-0.216129,-0.235376
2.1408,6015.7314,5.14051,4.53476,6.21793,0.18705,-0.36572,1.27247,-15.0,-6.4,-29.9,33.91497,-21.637512,-20.492367,0.9147988817252347,0.249973,-0.22763699,-0.220993
2.1533,6015.7514,5.88752,5.07586,5.82288,-0.7036,-0.08228,1.08066,-15.1,-6.0,-29.4,32.937,-23.255823,-18.519068,0.9178614115660271,0.24295101,-0.235447,-0.207533
2.2142,6015.7714,6.42144,5.63612,6.33046,-1.22894,0.17428,0.7288,-15.3,-5.8,-29.5,31.345085,-24.18882,-17.310177,0.9222114841585958,0.230777,-0.239186,-0.197631
2.2174,6015.7915,6.67284,6.11498,7.02241,-1.24543,0.20727,0.35251,-15.6,-5.2,-29.4,29.671179,-24.615351,-16.76701,0.9263979690877998,0.217446,-0.240327,-0.191695
2.2191,6015.8115,6.74228,6.5244,7.25465,-1.04385,0.73261,-0.11236,-15.8,-4.7,-29.3,28.372206,-24.737249,-16.688072,0.929359916984803,0.206714,-0.240209,-0.189365
2.2359,6015.8315,6.5675,6.59383,7.39113,-0.97726,1.65869,-0.70612,-15.9,-4.1,-29.2,27.592806,-23.8873,-17.126066,0.9321856033004156,0.200784,-0.23347799,-0.190273
2.2529,6015.8516,5.96653,6.46215,7.2331,-1.15869,1.54323,-1.22291,-16.0,-3.6,-29.2,27.127758,-21.975389,-18.288488,0.9350567991561259,0.197859,-0.21951599,-0.19578899
2.272,6015.8716,5.34163,6.43342,7.13494,-1.3786,0.889,-1.73298,-16.0,-3.0,-29.3,26.660736,-20.160349,-20.146925,0.9362090393319324,0.193718,-0.20739099,-0.207304
2.2954,6015.8916,5.16206,6.53158,7.82449,-1.44396,0.02279,-2.22901,-16.0,-2.6,-29.4,26.192438,-18.901337,-22.703745,0.9346521519289407,0.18765999,-0.200794,-0.22559001
2.3127,6015.9116,5.62894,6.45018,8.74868,-1.25276,-0.64244,-2.58209,-16.0,-2.1,-29.4,25.874023,-18.33876,-25.774887,0.9299687366610773,0.180812,-0.200692,-0.249375
2.3342,6015.9316,6.45497,5.9785,9.34964,-1.07622,-0.90328,-2.8417,-16.0,-1.8,-29.2,25.858564,-18.281116,-29.11471,0.9224441432994086,0.174899,-0.205384,-0.27626899
2.3547,6015.9516,6.84523,5.51162,9.60344,-1.13242,-0.3816,-2.99931,-16.1,-1.5,-29.3,25.988932,-18.100891,-32.634247,0.9135645971637693,0.17005,-0.20949,-0.304297
2.3733,6015.9716,6.941,5.22431,9.89554,-1.33034,-0.11893,-3.14958,-16.1,-1.2,-29.3,25.931017,-17.35218,-36.273819,0.9049543078178476,0.16501699,-0.20874199,-0.33204499
2.3929,6015.9916,6.85241,4.86756,10.70959,-1.19229,0.06738,-3.60956,-16.2,-0.9,-29.3,25.662714,-16.24169,-40.182217,0.8957360539564542,0.159163,-0.20487601,-0.36104
2.415,6016.0116,6.06709,4.35758,12.05996,-0.4397,-0.04013,-4.05305,-16.3,-0.7,-29.3,25.674225,-14.823687,-44.534679,0.8838954391624045,0.156233,-0.199884,-0.39289501
2.4375,6016.0316,4.81249,3.81647,13.12781,0.89565,-0.00959,-4.21249,-16.2,-0.5,-29.3,26.591045,-13.338351,-49.014492,0.868449220861761,0.160956,-0.19759101,-0.42526099
2.4581,6016.0516,3.56986,3.10059,13.28104,2.24139,-0.32907,-4.28823,-16.1,-0.5,-29.3,28.768244,-11.817149,-53.29805,0.8496833612371375,0.176128,-0.199953,-0.45501199
2.4755,6016.0716,2.49483,2.60737,12.31615,2.99031,-0.62167,-4.49043,-16.1,-0.8,-29.3,32.000206,-10.3142,-57.550312,0.827222526491149,0.199031,-0.207884,-0.48256999
2.4929,6016.0916,1.78373,2.35357,10.64734,3.29207,-0.86602,-4.93025,-16.1,-4.4,-29.4,35.642017,-8.569932,-62.236835,0.8009265785913213,0.224511,-0.218621,-0.510212
2.5138,6016.1116,0.668,2.33921,8.78699,2.95121,-1.07433,-5.57288,-15.5,-9.3,-26.0,39.166183,-6.044773,-68.095009,0.7696652927325746,0.24951699,-0.22855701,-0.54140401
2.5395,6016.1316,-0.86194,1.7143,7.72872,2.59691,-1.09571,-6.18925,-15.5,-14.0,-26.8,41.848663,-2.485011,-75.619812,0.7330262378628608,0.26967099,-0.23489,-0.57859898
2.5547,6016.1516,-2.59539,0.78532,6.68003,2.38677,-1.09693,-6.68405,-14.2,-18.5,-25.7,43.666256,2.523453,-84.849236,0.6905757038102478,0.28825,-0.235746,-0.62003303
2.574,6016.1716,-4.41504,0.22027,5.50444,1.72276,-1.66686,-6.62846,-12.1,-20.8,-22.1,44.23914,8.232808,-95.235245,0.6428176868214035,0.30228299,-0.232594,-0.66431201
2.5947,6016.1916,-6.11977,-0.46928,4.66644,1.04165,-1.87395,-6.13243,-10.2,-22.6,-20.3,43.262295,13.417167,-105.686043,0.5919413538747226,0.307675,-0.226191,-0.70977402
2.6129,6016.2116,-8.17166,-1.23545,4.27618,0.45094,-1.85623,-5.2424,-8.9,-24.6,-20.1,41.038918,17.696337,-115.008408,0.5426391629089435,0.30757701,-0.214733,-0.75155097
2.6354,6016.2316,-9.72076,-1.39826,4.43899,0.09786,-1.93687,-3.98097,-6.6,-24.8,-21.2,38.126072,20.923,-122.659882,0.4979504810598335,0.304667,-0.199466,-0.78704298
2.6579,6016.2516,-9.79258,-0.62491,5.43022,0.03433,-2.21909,-2.47824,-6.6,-26.3,-20.2,35.284176,22.796255,-128.209396,0.4618616910205904,0.29916999,-0.18501399,-0.81421798
2.6739,6016.2715,-9.08388,-0.03352,6.33525,0.63542,-2.37425,-1.57599,-6.0,-25.8,-19.6,33.173119,23.207977,-131.897995,0.4350444753853323,0.290003,-0.176787,-0.83389503
2.6916,6016.2915,-8.55714,-0.48843,5.29853,0.8761,-2.86172,-1.78185,-6.8,-27.1,-18.4,32.083118,23.229088,-135.100479,0.41090812111195824,0.282188,-0.176276,-0.84879398
2.7182,6016.3115,-9.64174,0.38548,3.64169,-1.4012,-3.65767,-0.81607,-7.0,-25.5,-19.3,30.734262,22.428993,-138.440247,0.38375054392800484,0.267553,-0.176503,-0.86602402
2.7402,6016.3315,-9.1174,0.84039,5.74865,-2.69624,-0.30402,0.38855,-8.3,-25.8,-19.6,27.500166,20.862667,-138.87764,0.37579922451271736,0.24676301,-0.157102,-0.87931901
2.7598,6016.3515,-7.59703,0.77814,8.35841,-2.16967,1.06309,0.52477,-7.7,-24.2,-20.5,24.133621,21.842945,-137.889023,0.3819340444462363,0.24665301,-0.124996,-0.88185298
2.7776,6016.3715,-6.96016,1.02954,8.83966,-1.91616,2.26039,0.73186,-7.5,-23.9,-23.8,21.496895,24.142197,-136.74118,0.3903839963442915,0.25821301,-0.093801,-0.878708
2.7937,6016.3915,-6.82608,1.1301,9.28979,-1.87218,1.96168,0.78806,-6.6,-22.7,-22.2,19.230015,27.059971,-135.199524,0.40142348608141937,0.27514601,-0.062237,-0.87136698
2.8124,6016.4115,-7.71675,1.15643,10.25947,-1.09516,0.97024,1.10998,-7.3,-22.8,-22.2,17.394407,29.163473,-133.568207,0.4121007018335433,0.28640199,-0.03639,-0.86418903
2.8399,6016.4315,-8.04716,1.35995,10.81973,-0.33891,0.79126,1.92121,-7.2,-23.4,-22.6,16.770409,30.048447,-131.864761,0.4241804242090856,0.29159901,-0.024012,-0.85700899
2.8578,6016.4515,-7.72154,1.45093,11.02564,-0.16054,1.4516,2.48077,-6.9,-23.7,-22.1,17.211845,30.888512,-129.791122,0.4404293594765679,0.299624,-0.018898,-0.84610301
2.8723,6016.4715,-6.66087,1.76458,10.7886,-0.31508,1.74787,2.97434,-6.7,-23.6,-21.9,18.100355,32.20649,-127.188568,0.4610346140457996,0.31254801,-0.013543,-0.83040798
2.8948,6016.4915,-6.00484,2.35836,10.39355,-0.33708,0.60983,2.94991,-6.6,-23.2,-22.7,19.086777,32.979851,-124.187141,0.4841568314770942,0.32177299,-0.009479,-0.81361198
2.9132,6016.5115,-5.32008,2.97848,10.19961,0.08625,-0.21239,2.98351,-7.3,-22.5,-23.7,20.205235,32.453049,-121.208672,0.5066841225723773,0.32235301,-0.011709,-0.799514
2.9393,6016.5315,-5.20037,3.21791,10.05595,0.40329,-0.51355,2.90043,-8.0,-21.5,-24.4,21.683828,31.047029,-118.465889,0.5273470112586587,0.318573,-0.021266,-0.78737801
2.9567,6016.5515,-5.26501,3.17241,9.81413,0.12596,-0.46529,3.26389,-9.0,-21.2,-24.6,23.295372,29.426413,-115.693443,0.5475487125387657,0.31452101,-0.032942,-0.77471399
2.975,6016.5715,-4.94897,3.11735,9.7854,-0.32791,-0.82021,3.92241,-11.1,-20.4,-25.5,24.669823,27.366121,-112.101906,0.5719995081163094,0.307612,-0.043127,-0.75916499
2.9956,6016.5915,-4.19238,2.92102,9.76385,-0.2937,-1.30096,4.50151,-11.6,-18.3,-23.7,25.852989,24.373148,-107.459419,0.6016818106417374,0.29523799,-0.054573,-0.74015898
3.0241,6016.6115,-2.842,2.74863,9.89554,0.23408,-1.51537,4.71409,-14.0,-17.2,-25.2,27.154402,20.571337,-102.20578,0.6331903703142361,0.28012201,-0.070782,-0.71804702
3.0429,6016.6315,-0.66321,3.12932,9.69442,0.70567,-1.58256,4.45386,-16.8,-16.1,-24.6,28.698175,16.514286,-96.840515,0.6629170040763169,0.266848,-0.091124,-0.69356298
3.0632,6016.6515,1.27854,3.64169,9.35204,0.89382,-1.2301,3.89186,-17.9,-15.0,-25.2,30.201414,12.358706,-91.807236,0.6880743210509747,0.25486699,-0.113691,-0.66982901
3.0786,6016.6714,2.49962,3.75901,9.4095,1.08319,-0.17635,3.67989,-18.9,-14.6,-23.3,31.494152,8.886967,-87.160934,0.7096184574870069,0.247412,-0.13251001,-0.64627397
3.1034,6016.6914,3.23227,3.85718,9.33288,1.41611,1.01544,3.551,-20.0,-13.3,-24.3,32.811226,6.358699,-82.550232,0.7301758871665236,0.247035,-0.146044,-0.62007099
3.1149,6016.7114,3.38311,3.69676,8.89952,1.86509,2.93967,3.8491,-20.3,-12.9,-25.5,34.441532,5.144952,-77.676964,0.7515821598357557,0.25725499,-0.15208399,-0.58806002
3.146,6016.7314,2.97608,3.72549,8.12138,1.86326,3.69898,3.98105,-19.3,-11.8,-27.1,36.418713,5.197369,-72.238182,0.7749023525290138,0.277556,-0.149222,-0.547925
3.1619,6016.7514,2.95214,3.55789,7.12776,1.36052,2.31414,3.48381,-19.2,-11.4,-26.6,38.228783,5.105542,-66.482468,0.7974686243437792,0.296671,-0.144124,-0.50523102
3.1755,6016.7714,2.89468,3.44536,6.23948,0.86694,0.42779,3.01833,-18.8,-10.7,-27.3,39.323204,3.260591,-61.304295,0.8146727649347435,0.302995,-0.148421,-0.47167099
3.2029,6016.7914,2.72229,3.88112,5.66485,0.51203,0.40886,3.07147,-19.0,-10.4,-26.1,39.720867,-0.065246,-56.484974,0.8284643040628725,0.29903299,-0.16123401,-0.44523001
3.2146,6016.8114,2.43737,3.91943,5.67922,0.28723,0.5127,3.27184,-19.7,-9.9,-28.3,39.622749,-3.281089,-51.472885,0.8429245327105266,0.29348299,-0.17137501,-0.41710499
3.2347,6016.8314,1.6736,3.59381,5.57627,0.25485,0.11992,3.65179,-20.1,-8.7,-26.9,39.160461,-6.684898,-46.223587,0.8574109973141935,0.286143,-0.18184599,-0.38716999
3.2539,6016.8514,1.68078,2.91383,5.36078,0.31655,0.13641,4.33657,-18.8,-7.3,-26.3,38.434422,-10.492622,-40.584118,0.8715247044226915,0.27748501,-0.194657,-0.35433799
3.2768,6016.8714,2.74623,2.64567,5.15727,0.15406,-0.04257,4.71042,-19.9,-6.5,-27.4,37.271641,-14.565914,-34.211197,0.886430485361723,0.26762,-0.208042,-0.31518099
3.2943,6016.8914,4.03914,2.62173,5.00403,-0.05913,-0.38955,4.75746,-20.7,-5.4,-26.2,35.48859,-18.76379,-27.797947,0.9002386963438417,0.254594,-0.22294299,-0.27395001
3.3171,6016.9114,4.74066,2.19316,4.70954,-0.37128,-0.5221,4.68599,-19.7,-3.0,-26.5,33.144367,-22.910162,-21.827784,0.9116537620736285,0.238446,-0.239834,-0.233475
3.344,6016.9314,4.79094,1.43656,4.69757,-0.67305,-0.67543,5.05862,-20.6,-0.8,-26.4,30.132761,-26.690626,-16.277298,0.9215932223602559,0.21881799,-0.256446,-0.192406
3.3614,6016.9514,5.33923,0.6273,4.63053,-0.87158,-0.85686,5.57113,-20.1,1.7,-26.2,26.300896,-30.427328,-10.738782,0.929939011061478,0.19465999,-0.27496001,-0.14737
3.3822,6016.9714,6.72791,-0.10774,4.94657,-1.10493,-1.49827,5.6255,-20.1,5.4,-26.8,21.686466,-34.022964,-5.294562,0.9356285183784214,0.166428,-0.295342,-0.098357
3.3943,6016.9914,8.52601,-0.39266,5.84203,-0.96993,-2.77803,4.97065,-20.6,8.1,-26.9,16.667677,-37.963276,-0.586582,0.9353837632902338,0.13541,-0.322528,-0.051933
3.4167,6017.0114,9.61062,-0.36632,6.5244,-0.19902,-3.57765,4.18813,-20.2,11.0,-22.6,12.146007,-42.690796,3.24465,0.9268948603675392,0.108746,-0.35901201,-0.012272
3.4447,6017.0314,9.42147,-0.52674,6.22033,0.60182,-3.28382,4.04886,-20.9,12.0,-22.2,8.613861,-47.558315,6.759743,0.9127200717325876,0.092309,-0.39732301,0.02357
3.4581,6017.0514,9.46936,-0.97686,5.2674,0.53768,-2.93685,4.3775,-19.7,14.6,-20.7,5.343235,-51.700932,10.523442,0.8970326165801552,0.081713,-0.42986801,0.062201
3.4727,6017.0714,10.12539,-1.47727,4.30012,0.1449,-2.53429,3.91386,-20.4,16.1,-20.0,1.578105,-55.242714,13.911246,0.8801995750089863,0.068252,-0.458693,0.100951
3.4971,6017.0914,9.67287,-1.95373,3.42621,0.14795,-1.84768,3.15394,-19.8,17.4,-19.6,-1.794827,-57.807011,16.41803,0.865277660976325,0.055434,-0.48028299,0.132476
3.5134,6017.1113,9.50767,-2.18837,2.91862,-0.12327,-2.76887,3.49663,-19.3,18.4,-18.7,-4.938134,-60.052246,18.468187,0.850324750811712,0.043408,-0.499437,0.160082
3.5375,6017.1313,10.14694,-2.7199,2.77975,-0.26683,-3.51717,3.31337,-19.6,20.3,-18.1,-8.549084,-63.377544,20.259308,0.828433837559162,0.029697,-0.526833,0.187783
3.5665,6017.1513,10.38636,-2.97369,2.5092,-0.15931,-3.05903,3.03787,-18.5,21.7,-16.3,-12.016214,-67.140457,21.682644,0.8029560260889502,0.01778,-0.55650997,0.21270201
3.5745,6017.1713,10.55157,-3.21791,2.13809,-0.22712,-2.03583,2.90593,-17.9,23.2,-14.8,-15.232203,-70.118462,22.878853,0.7801209313656183,0.006589,-0.57956201,0.235533
3.6001,6017.1913,10.86761,-3.70155,1.71909,-0.50262,-1.202,2.6457,-17.0,24.6,-13.5,-18.348473,-71.991035,23.681211,0.7624911788588764,-0.007198,-0.59432697,0.25559899
3.6175,6017.2113,11.1645,-4.08224,1.4222,-0.79278,-0.94604,2.00368,-15.6,24.9,-13.7,-21.122847,-73.244171,23.991627,0.7490365375695495,-0.02201,-0.60419703,0.270935
3.6358,6017.2313,11.07352,-4.22589,1.56586,-0.95527,-1.20505,1.37266,-14.6,25.2,-12.8,-23.227337,-74.607918,23.609945,0.7377079121533127,-0.035296,-0.61383998,0.278822
3.6596,6017.2513,9.6202,-4.92742,1.34798,-1.07256,-1.63143,1.27125,-16.3,26.2,-10.9,-24.729992,-76.54261,22.910316,0.7252577636964667,-0.044611,-0.62635499,0.28229499
3.6759,6017.2713,9.13416,-5.40627,2.06626,-1.0695,-2.06209,2.54063,-14.0,27.5,-11.4,-26.673937,-78.950478,21.937628,0.7094554315784325,-0.057103,-0.64117801,0.28688499
3.6998,6017.2913,9.74949,-4.59222,2.88031,-0.82027,-2.33943,1.55836,-13.9,28.0,-9.9,-29.381289,-81.834869,21.214018,0.6878867813757722,-0.071739,-0.65800798,0.29780999
3.717,6017.3113,10.15891,-4.88193,2.77975,0.05143,-1.22093,1.08494,-13.6,28.1,-9.3,-30.780716,-84.228371,20.949213,0.6709339024210954,-0.076046,-0.671579,0.305035
3.7415,6017.3314,10.46777,-4.96094,2.18597,0.01356,-0.30586,0.69826,-12.8,29.1,-7.9,-31.626331,-84.904449,21.386703,0.6634596792759299,-0.077067,-0.67546099,0.31246501
3.753,6017.3514,10.52763,-4.89869,1.43417,-0.0011,0.00996,0.11183,-12.8,29.2,-7.8,-31.982124,-84.675919,21.670477,0.663034338784078,-0.078296,-0.67417902,0.315813
3.7745,6017.3714,10.40312,-4.8915,0.89785,-0.1587,-0.60946,-0.15878,-12.7,28.9,-8.3,-31.783987,-84.536377,21.736343,0.6642291965829408,-0.077025,-0.67349797,0.31506699
3.7984,6017.3914,9.6609,-4.92023,0.47407,-0.06707,-1.33089,-0.51431,-13.2,29.3,-7.4,-31.249708,-85.517891,21.614899,0.6602548991189688,-0.071646,-0.67931002,0.312199
3.8125,6017.4115,9.02881,-5.16924,-0.08859,-0.14526,-1.44756,-0.68291,-13.2,29.5,-7.5,-30.476976,-87.015808,21.544218,0.6536268787963665,-0.063121,-0.688173,0.30855399
3.8355,6017.4315,8.42545,-5.83485,-0.22027,-0.25094,-2.35653,-0.81669,-13.5,29.2,-7.4,-29.565235,-88.844582,21.272896,0.6457317513137169,-0.054182,-0.69878101,0.30298501
3.855,6017.4515,8.25785,-5.92583,-0.30407,-0.31386,-2.96495,-0.93886,-13.8,29.0,-7.1,-28.599434,-91.910759,20.999704,0.6300443202939929,-0.041909,-0.71615702,0.297333
3.873,6017.4716,7.9059,-5.92822,-0.79969,-0.49285,-2.41823,-0.93825,-13.8,29.1,-6.3,-27.572454,-95.201767,20.753143,0.612459104748847,-0.028877,-0.73440403,0.291051
3.9046,6017.4916,7.14452,-5.66725,-1.21629,-0.46658,-2.13723,-0.22659,-13.9,29.1,-6.8,-26.777792,-97.82518,20.356377,0.5984449063859595,-0.02022,-0.74857599,0.28476101
3.9302,6017.5116,7.13015,-5.34402,-1.83641,-0.16054,-2.41579,0.71842,-13.5,29.4,-6.0,-27.045567,-100.326523,20.018847,0.5821545040146987,-0.017749,-0.76125699,0.28507701
3.9424,6017.5316,8.01843,-5.24586,-2.28893,-0.28149,-1.69802,1.02752,-13.7,29.7,-4.8,-28.289507,-102.866745,19.607031,0.5631617779968372,-0.021028,-0.77304697,0.29121301
3.9593,6017.5517,7.81252,-5.02798,-2.6361,0.29578,-0.51294,0.63962,-13.7,29.9,-4.3,-29.379433,-104.571686,19.257681,0.5498371790028568,-0.024944,-0.78038102,0.29675299
3.9804,6017.5717,7.07508,-5.04474,-2.6744,0.70078,0.17001,1.03546,-13.8,29.9,-3.6,-30.351686,-104.664536,19.621298,0.5458379907866977,-0.027457,-0.78004903,0.304681
3.9929,6017.5917,7.07508,-5.70795,-2.61934,0.6397,-0.40298,1.1784,-13.7,30.1,-3.5,-31.82678,-104.251625,20.172726,0.5433735796875656,-0.032783,-0.77685797,0.316484
4.0128,6017.6118,6.62017,-5.94498,-2.48047,0.45461,-2.07798,1.12037,-13.7,30.0,-3.6,-33.275406,-104.946503,20.540766,0.5337935518114842,-0.036132,-0.77878702,0.32749
4.0459,6017.6318,6.18441,-6.06709,-2.82524,0.73621,-3.19769,1.12037,-13.8,30.1,-3.1,-34.705589,-107.644005,20.77865,0.5107766968658612,-0.034232,-0.78956699,0.33840701
4.0658,6017.6518,5.48289,-6.41666,-3.02397,0.99033,-3.94722,1.3751,-13.8,30.1,-2.6,-36.274384,-111.128815,21.387951,0.4804080596967954,-0.027531,-0.80283499,0.35200301
4.0779,6017.6718,4.87714,-6.54595,-2.9713,1.10579,-5.07366,1.93465,-13.7,30.2,-2.2,-38.375408,-115.664589,21.930012,0.44072504509796107,-0.019719,-0.81815499,0.36877501
4.0989,6017.6919,4.29772,-6.74707,-3.02876,1.54256,-6.08098,1.77399,-13.5,30.4,-1.7,-41.051277,-121.555786,22.299417,0.3894014377720759,-0.009894,-0.83500201,0.388639
4.1167,6017.7119,2.57385,-7.24508,-3.39029,2.16136,-6.83234,1.42641,-13.5,30.5,-1.4,-43.813808,-128.027145,23.322763,0.33034034590836736,0.00847,-0.84981799,0.41062501
4.1392,6017.7319,0.72068,-7.97772,-3.75662,2.54926,-6.90809,1.74162,-13.2,30.7,-0.9,-46.943062,-134.741104,24.950331,0.26518877320316486,0.033256,-0.85975498,0.43518999
4.2089,6017.752,-0.33041,-8.55474,-3.65366,2.8608,-6.8751,2.03728,-12.6,31.0,-0.8,-50.798954,-141.942719,25.918665,0.1960914348907664,0.055227,-0.86358702,0.461211
4.2179,6017.772,-0.82124,-9.11261,-3.60338,3.53337,-6.70284,1.69397,-11.7,31.4,-0.9,-55.208813,-149.645218,26.397482,0.12377261971631524,0.077173,-0.86036402,0.488363
4.2193,6017.792,-1.8412,-9.44302,-3.02876,3.95059,-6.89465,1.19917,-10.4,31.9,-0.9,-59.896816,-156.921463,27.15074,0.05369750225699446,0.102199,-0.84868199,0.51615
4.2207,6017.812,-3.69676,-10.35524,-2.79412,4.57795,-5.11153,2.03544,-9.7,32.1,-2.5,-64.95166,-164.540253,27.485083,0.016241797809342515,-0.128436,0.82917601,-0.54378998
4.2398,6017.8321,-3.49085,-10.84367,-3.39029,4.58589,-1.82874,3.10629,-6.3,31.6,-4.0,-70.780045,-174.251984,22.444458,0.07248947208056525,-0.12997399,0.80428398,-0.57530802
4.253,6017.8521,-1.90345,-11.07113,-3.67042,3.78932,-1.64182,2.44167,-4.3,31.4,-5.3,-75.613327,171.083206,9.303653,0.11078646516853703,-0.111377,0.78123099,-0.60415202
4.2759,6017.8721,-0.62969,-10.90353,-2.79891,3.38432,-2.85683,1.54431,-2.4,30.2,-6.9,-78.517685,152.396408,-7.318813,0.1451206390828615,-0.102668,0.76003897,-0.62509203
4.2947,6017.8922,0.21788,-10.92029,-1.925,3.58101,-2.1916,0.98476,-1.6,28.8,-11.2,-80.332527,130.579193,-26.171345,0.17849062774173746,-0.105458,0.737221,-0.64305902
4.3129,6017.9121,1.07264,-10.84367,-1.07264,3.36293,-0.65222,0.50339,-1.5,27.7,-13.1,-81.293198,106.287033,-48.7686,0.199320651030193,-0.105214,0.714252,-0.66260499
4.3382,6017.9321,1.44614,-10.79339,0.43336,3.09354,-0.29608,-0.15329,-1.0,26.3,-14.0,-81.484604,84.260513,-70.614822,0.20549470496642955,-0.101245,0.694511,-0.68203801
4.356,6017.9521,1.11573,-10.94184,0.96968,3.51565,0.22254,-0.77209,-0.3,24.3,-18.3,-81.251358,62.409588,-92.528366,0.20504426743198448,-0.100888,0.67424202,-0.70226502
4.3758,6017.9721,0.6273,-10.89874,0.88588,3.34278,1.43389,-0.97307,0.4,23.2,-19.9,-80.039345,40.699516,-115.489624,0.19408735540863978,-0.09655,0.652008,-0.72656298
4.4008,6017.9921,0.16281,-10.98733,1.53234,2.75635,2.11745,-0.85395,-1.5,22.1,-21.3,-78.16922,27.066059,-131.470139,0.17563441692606557,-0.086307,0.63345897,-0.74862099
4.4223,6018.0121,0.13647,-11.14056,3.55071,2.68793,2.54566,-0.63892,-0.7,20.4,-24.2,-76.233818,20.241859,-141.304504,0.15425237042003376,-0.070873,0.61914998,-0.76670498
4.4383,6018.0321,0.35675,-11.02803,4.49884,3.6195,2.09118,-1.0537,-0.3,18.3,-22.9,-73.762093,15.907401,-148.769272,0.13326375165872748,-0.053397,0.60223901,-0.78530103
4.4582,6018.0521,1.20193,-10.72635,3.48128,4.11247,1.45099,-1.52834,1.4,15.7,-26.3,-70.118187,10.588246,-156.92659,0.11108381589331492,-0.04039,0.57552099,-0.80919999
4.4826,6018.0721,2.08302,-10.41749,1.53712,3.61644,1.18527,-2.13493,-1.5,14.4,-28.6,-66.240326,5.269234,-164.30513,0.08935756963099874,-0.036386,0.54596502,-0.83223403
4.4998,6018.0921,2.61455,-10.05595,-0.25619,2.59141,1.3954,-2.83498,-0.8,12.0,-30.8,-63.082966,0.256849,-171.433258,0.06249889605904895,-0.037166,0.521797,-0.84996498
4.5196,6018.1121,2.98327,-10.04638,-0.86912,1.35807,1.66602,-3.49472,-1.1,10.8,-31.9,-61.134743,-4.94605,-179.186874,0.028076634271213523,-0.040757,0.50780201,-0.86005098
4.5397,6018.1321,2.93778,-10.27144,-0.27295,0.3532,1.89448,-4.23753,-0.4,10.5,-29.6,-60.261616,-10.854671,171.93132,0.013265553915272467,0.046443,-0.50424302,0.86220998
4.5534,6018.1521,2.97608,-10.60185,0.77096,-0.01576,2.28055,-4.76654,0.3,9.8,-30.8,-59.705906,-17.626593,161.527664,0.06229180466064593,0.05221,-0.50685,0.85819399
4.5755,6018.1721,3.24664,-11.26746,1.925,-0.32852,2.26283,-5.20087,0.6,10.4,-30.8,-58.736057,-24.710297,150.453201,0.11561651877322555,0.05815,-0.510773,0.84991902
4.5975,6018.1921,3.28255,-11.98095,3.07425,-0.20207,3.31657,-5.45315,2.1,10.4,-31.7,-57.062515,-31.348259,139.42572,0.17225740181182095,0.063182,-0.51364702,0.83815402
4.6193,6018.2121,2.90426,-12.32094,3.70873,-0.06219,4.02029,-5.69383,2.1,10.6,-31.7,-54.529831,-35.573296,129.429138,0.23499436994162223,0.059203,-0.510396,0.82508701
4.6629,6018.2321,2.5523,-12.2108,4.07745,-0.06707,2.73747,-5.7873,2.1,11.0,-29.9,-51.482342,-38.510902,120.401382,0.2983182367979863,0.054016,-0.50342101,0.80910802
4.669,6018.2521,2.63131,-12.03363,3.71831,0.00928,1.26712,-5.86915,2.7,11.7,-31.1,-48.141617,-41.923584,112.426735,0.3528721904995335,0.059669,-0.49819201,0.78976297
4.6875,6018.2721,2.66483,-11.6697,2.61215,-0.32852,0.57257,-5.96384,1.8,12.2,-30.2,-44.509018,-45.781677,105.361748,0.39975260146235414,0.07478,-0.49572,0.76737702
4.7035,6018.2921,3.10537,-11.13577,1.95133,-1.19045,0.26408,-5.88442,0.8,12.1,-30.2,-41.060871,-49.696686,98.586365,0.44250605469091553,0.090766,-0.497897,0.74030298
4.7159,6018.3121,3.68,-10.78621,2.08302,-1.77139,0.13213,-5.90947,0.3,12.2,-30.4,-38.047428,-53.794907,91.672531,0.48162153337391245,0.104271,-0.50650603,0.70754498
4.7592,6018.332,4.34561,-10.49171,2.65525,-2.13852,0.27019,-5.98155,0.6,11.3,-30.9,-35.037189,-57.595184,84.845329,0.5190718035403956,0.115167,-0.51705498,0.67078698
4.7741,6018.352,5.01361,-10.45819,3.40945,-2.3401,0.61716,-6.02187,0.4,11.3,-31.0,-31.882889,-60.800018,78.259239,0.5556283248036754,0.123303,-0.52694303,0.63119298
4.7777,6018.372,5.66007,-10.1637,4.5156,-2.3456,0.72712,-6.10678,-0.5,12.1,-30.8,-28.527859,-63.087227,72.052116,0.5921896723633735,0.128382,-0.53355402,0.590042
4.7989,6018.392,6.51003,-9.48372,5.6026,-1.81415,0.43085,-6.35784,-3.1,13.4,-29.2,-24.794567,-64.75296,66.360313,0.6274497713962447,0.134469,-0.53695101,0.54763901
4.8153,6018.412,7.00565,-8.9091,5.74387,-1.17152,0.10709,-6.63884,-5.9,14.1,-28.5,-20.359421,-66.011612,61.575401,0.6598102315989792,0.14710701,-0.53645402,0.50520003
4.8366,6018.432,6.91467,-8.61221,5.17163,-1.10738,0.93298,-6.61135,-8.4,14.3,-26.7,-15.406322,-66.692101,57.506748,0.6903107965866241,0.163873,-0.53143102,0.46281499
4.8544,6018.452,6.66087,-8.19081,5.33444,-1.31507,2.20052,-6.51239,-6.1,13.1,-24.2,-10.636809,-65.733864,53.440044,0.7243930092509034,0.17342,-0.51765698,0.42096499
4.8767,6018.472,6.7758,-7.24747,6.3975,-0.64556,1.68618,-6.53622,-11.8,12.3,-26.3,-6.164181,-63.513542,49.185196,0.760264964395506,0.177146,-0.49690601,0.37907901
4.8929,6018.492,7.47493,-6.04315,6.28737,0.51936,0.28485,-6.80011,-9.9,9.7,-25.6,-1.38217,-61.857719,45.644192,0.7881893697636754,0.189805,-0.47771499,0.33840799
4.9145,6018.512,7.05353,-5.78457,4.46053,0.29334,0.30928,-6.73108,-11.5,7.4,-27.5,4.098651,-61.326691,42.847771,0.8068926670072047,0.214798,-0.46321499,0.29701501
4.9445,6018.532,6.36638,-5.12375,3.4717,-1.07683,1.59821,-6.34563,-12.2,5.2,-26.7,8.786577,-59.851181,39.359924,0.826521802332207,0.230022,-0.445997,0.25502601
4.9578,6018.552,5.83964,-3.81169,4.50842,-1.49955,2.11195,-6.26499,-12.7,4.6,-26.1,12.182417,-56.719898,34.67384,0.8502797411522869,0.229883,-0.423044,0.212631
4.9861,6018.572,5.42303,-2.17161,6.56989,-0.4116,1.46138,-6.37617,-12.0,3.5,-25.2,15.234337,-53.015373,29.544775,0.8727448984979745,0.227496,-0.39751199,0.168956
5.0042,6018.592,5.16445,-0.76856,6.72552,1.02271,0.4846,-6.43176,-12.6,1.1,-25.4,19.0448,-50.169678,25.162413,0.8870317016887614,0.237308,-0.375442,0.12610701
5.0262,6018.612,5.05192,0.26576,5.05431,1.31226,0.71184,-6.50873,-15.0,-1.6,-28.3,23.698292,-47.964485,21.502247,0.8940750749114976,0.258522,-0.355813,0.084813
5.0399,6018.632,4.99446,1.18995,3.79732,0.36786,0.53469,-6.48918,-14.8,-4.1,-28.0,28.236732,-45.051292,17.238337,0.8996939832772252,0.278451,-0.33356199,0.041859
5.0571,6018.652,4.63292,1.69994,3.929,-0.39144,1.05332,-6.40122,-12.5,-5.3,-27.2,31.724562,-41.409248,11.652913,0.9049576513301492,0.28887701,-0.31237599,-0.004792
5.0746,6018.672,3.64169,2.42779,4.52518,-0.64984,1.37036,-6.22773,-15.2,-7.3,-28.6,34.428341,-36.670692,5.18097,0.9099919487539765,0.29421401,-0.28748301,-0.052022
5.0934,6018.692,2.68398,3.18199,5.08544,-0.74758,1.48948,-5.67429,-13.6,-8.3,-30.3,36.379192,-31.232939,-1.808353,0.9135185707655535,0.29656601,-0.26045701,-0.098461
5.1188,6018.712,1.7574,3.58662,4.75264,-0.86609,1.61837,-5.20392,-12.4,-9.5,-30.0,37.586254,-25.634535,-8.599143,0.9151428307509488,0.29749599,-0.23297501,-0.14047199
5.1393,6018.732,0.98884,3.92661,4.79813,-1.24727,1.42228,-4.76898,-10.3,-9.5,-30.3,38.045757,-19.962095,-15.246815,0.9153560134412619,0.29643801,-0.20499501,-0.17951301
5.1535,6018.7519,0.86194,4.02717,6.04076,-1.52277,0.33677,-4.56373,-9.4,-9.2,-33.1,37.65979,-14.857137,-21.66659,0.9139673352539903,0.291347,-0.180344,-0.21738601
5.1779,6018.7719,-0.09098,4.20435,6.91467,-1.64494,-0.47507,-4.32427,-9.1,-8.3,-32.2,36.711288,-11.130547,-27.916183,0.9093861953862176,0.281973,-0.164931,-0.25749901
5.1972,6018.7919,-2.19316,4.30491,6.9003,-1.98824,0.0179,-3.22349,-9.6,-8.1,-30.1,35.365467,-8.15774,-33.685764,0.9033127434205055,0.27034399,-0.152649,-0.296038
5.2144,6018.8119,-4.04393,4.30491,7.09184,-2.69013,-0.19162,-1.33287,-8.7,-6.3,-32.1,33.242191,-5.694782,-37.692322,0.9011368309080481,0.254996,-0.137334,-0.322597
5.2435,6018.8319,-3.78535,4.12055,8.4494,-3.1776,-1.07982,-0.2101,-9.7,-5.0,-30.9,30.092291,-4.806651,-39.398087,0.904730411607513,0.23053899,-0.125554,-0.33548599
5.2555,6018.8519,-2.58821,4.29772,10.50129,-2.48121,-1.29729,-0.27179,-10.1,-3.5,-33.0,26.680305,-5.11032,-40.181934,0.9093656656711754,0.201575,-0.119919,-0.34357101
5.2761,6018.8719,-1.14207,4.82686,12.12461,-1.31507,-1.89411,-0.69329,-11.2,-3.5,-32.7,24.349346,-5.598799,-41.090321,0.9106285063104712,0.180489,-0.118628,-0.35228801
5.3047,6018.8919,-0.59617,4.96812,12.79979,-0.53194,-2.8666,-1.67862,-11.8,-3.7,-31.1,23.228626,-7.002918,-42.563042,0.9065628742364865,0.16553099,-0.12867799,-0.36631301
5.3231,6018.9119,-1.0894,4.63771,13.28104,0.06426,-2.68945,-1.77391,-13.5,-4.0,-30.9,23.137138,-8.680906,-44.981647,0.8967691251422519,0.15639301,-0.145,-0.38771299
5.3368,6018.932,-1.6736,4.04154,13.94426,0.35992,-3.82933,-1.37074,-15.0,-4.4,-30.0,23.598953,-10.470627,-47.172081,0.8858864645105375,0.150884,-0.16333599,-0.40713701
5.3608,6018.952,-1.86993,3.57705,14.08552,0.69345,-5.51226,-1.51552,-17.5,-4.7,-28.4,24.304125,-13.938382,-48.927719,0.8726745095008676,0.14107101,-0.194499,-0.425098
5.3766,6018.972,-2.08062,3.36396,14.28185,1.30371,-6.80913,-1.95473,-20.5,-5.4,-27.7,25.528828,-18.903824,-50.886539,0.8531501237727624,0.127997,-0.23826,-0.44607601
5.3949,6018.9921,-2.27696,3.27776,14.81338,2.32813,-7.92212,-2.27604,-25.6,-7.3,-23.6,27.776749,-25.027508,-52.961967,0.8250820321361992,0.115953,-0.292759,-0.469134
5.4196,6019.0121,-1.95133,3.14847,14.9283,4.20226,-8.50917,-2.10256,-28.6,-9.8,-19.9,31.561411,-33.04269,-54.119865,0.7864034474411719,0.107695,-0.36230901,-0.48857301
5.4394,6019.0321,0.8787,2.41103,12.74951,6.52783,-8.06812,-2.25711,-30.8,-12.5,-13.5,37.251141,-43.363068,-52.388069,0.7380660914979091,0.11177,-0.44514999,-0.494578
5.4599,6019.0521,4.06787,2.95454,9.17486,6.67077,-7.19458,-3.21494,-30.7,-19.2,-5.4,44.045921,-53.5914,-48.484463,0.685108910548432,0.13360199,-0.51849598,-0.49390101
5.476,6019.0722,4.58982,3.92182,6.82368,4.99089,-7.07608,-3.96386,-28.2,-21.7,2.0,50.584713,-62.885567,-45.178352,0.626590421626344,0.155371,-0.575472,-0.50207198
5.4941,6019.0922,3.4286,4.65447,5.14051,4.05199,-6.17933,-3.68714,-30.4,-21.8,5.1,56.239479,-71.430984,-43.024612,0.5653124413175601,0.167217,-0.61931801,-0.51856101
5.515,6019.1122,1.97767,5.19558,4.46772,4.04955,-4.7725,-3.07017,-24.0,-23.8,12.0,60.856342,-79.393433,-40.103367,0.5123272091555746,0.177231,-0.650976,-0.53135699
5.5481,6019.1323,1.18038,5.40627,3.73986,4.5474,-4.58558,-2.8863,-23.1,-23.6,13.5,64.538635,-88.38488,-35.286324,0.4649418723232386,0.186158,-0.67770702,-0.53841197
5.555,6019.1523,0.44534,4.66165,2.80848,5.05503,-5.02051,-3.45623,-19.4,-24.6,22.1,67.753166,-101.070435,-26.492168,0.41505995247163835,0.197997,-0.70508498,-0.53979403
5.5815,6019.1723,-0.419,3.46452,1.90584,5.47653,-5.77127,-4.07321,-16.9,-25.4,24.5,70.413773,-119.520096,-12.75061,0.35364529126897676,0.21017499,-0.73376602,-0.54069299
5.6025,6019.1923,-1.00081,2.34639,1.15643,5.41605,-7.05103,-4.63887,-9.7,-22.3,32.3,71.364052,-144.044174,6.053114,0.2796515139273854,0.22057299,-0.76202297,-0.54079902
5.6142,6019.2124,-1.66402,1.087,0.52195,5.68361,-7.1732,-5.36274,-4.0,-19.6,34.4,68.088371,-171.908203,26.577425,0.18526251436472269,0.228429,-0.79532897,-0.530047
5.6337,6019.2324,-2.7199,-0.46449,-0.00479,6.3464,-6.6448,-6.44764,-0.3,-15.4,34.2,61.080383,167.05722,40.549438,0.08391737151054393,0.242826,-0.82260603,-0.50726002
5.6636,6019.2524,-4.48208,-2.05189,-0.7925,6.97254,-6.22575,-7.43969,4.9,-11.0,34.1,51.404079,152.597778,48.722225,0.020651309589449638,-0.26752299,0.83984798,0.47186899
5.6791,6019.2725,-6.21793,-3.3879,-2.1333,7.37204,-5.29785,-8.06277,8.6,-3.5,36.1,39.871006,142.586639,52.87537,0.12619499706042195,-0.29851699,0.845981,0.42341301
5.6934,6019.2925,-7.47971,-4.34082,-3.68479,7.44107,-4.27465,-8.20266,8.5,2.6,34.8,27.375542,135.821289,54.604378,0.22410145178994215,-0.333873,0.84080601,0.36242601
5.7247,6019.3125,-8.48052,-5.10699,-4.66644,7.18329,-2.58377,-7.86912,9.9,9.7,31.7,14.524425,130.918228,54.962013,0.3124602185842853,-0.36982301,0.82477498,0.29214001
5.741,6019.3325,-9.62259,-5.62415,-7.111,6.63778,-1.52759,-7.23627,8.6,15.4,29.9,1.357162,127.632813,54.194496,0.3879470965967651,-0.40408,0.80120701,0.210437
5.7555,6019.3526,-10.64255,-5.83006,-8.31771,5.39712,-0.45674,-6.39083,6.6,19.7,27.0,-10.185284,125.949638,53.24342,0.44004027721591554,-0.433651,0.77515,0.13211299
5.7779,6019.3726,-11.01845,-5.34402,-9.39513,4.11369,-0.00714,-4.44584,4.6,23.2,25.4,-19.313286,125.197655,52.361298,0.4728571142511232,-0.45543101,0.75137401,0.066527
5.7991,6019.3927,-9.90751,-5.03037,-11.1238,2.58408,0.40214,-3.49961,3.0,25.4,24.1,-25.590082,124.956657,51.423103,0.4912031525160843,-0.46739501,0.73479098,0.018536
5.8172,6019.4127,-9.61541,-4.27857,-11.83729,0.8645,0.40214,-3.69875,0.8,26.3,22.2,-30.055769,125.856659,51.874405,0.49625173615107876,-0.482263,0.72174799,-0.015377
5.8377,6019.4328,-9.54597,-3.81408,-11.28661,-0.26805,-0.07984,-3.28764,-1.4,26.2,19.7,-33.246403,127.709717,54.331043,0.4929030818894519,-0.50487202,0.707726,-0.035703
5.861,6019.4529,-9.18444,-4.21632,-10.90353,-0.92228,-0.41459,-2.84476,-3.1,25.7,23.7,-35.333916,129.540466,57.573975,0.48815615467040846,-0.52844501,0.69312501,-0.045024
5.8741,6019.4729,-9.8285,-4.70236,-10.85085,-1.70419,-0.72063,-1.95534,-4.2,25.4,24.3,-36.562386,131.227036,61.205704,0.4828883646682944,-0.55173898,0.67842299,-0.046316
5.9002,6019.493,-10.30975,-4.74306,-10.51326,-2.6828,-0.96009,-0.49781,-4.0,24.3,25.9,-36.414455,132.579208,64.773544,0.47579879544000436,-0.57196403,0.667162,-0.03698
5.915,6019.513,-10.45101,-5.03755,-10.58748,-3.35475,-2.17327,0.30059,-3.4,23.2,28.1,-34.436218,133.039078,67.91481,0.46732748505177824,-0.58719099,0.660797,-0.012613
5.9427,6019.5331,-10.42707,-5.76541,-10.60185,-3.48242,-1.40419,0.53272,-1.5,21.1,29.3,-31.422201,132.336731,70.948364,0.4605052421588479,-0.600124,0.65361297,0.024004
5.9573,6019.5531,-10.39115,-5.76781,-9.69681,-3.27961,-1.76827,0.99881,-0.5,19.5,30.8,-28.291821,132.080338,73.691193,0.449050773699634,-0.61079401,0.64960599,0.057412
5.9767,6019.5731,-9.38556,-6.08625,-9.22514,-3.36697,-2.11646,1.74651,0.9,17.9,31.2,-24.735655,130.936234,75.711823,0.43979419383861706,-0.61554098,0.64703798,0.095038
5.9948,6019.5931,-7.92266,-6.34004,-8.85882,-3.44943,-2.77436,1.85035,2.0,16.0,31.5,-20.663046,129.049271,77.387512,0.43148564667172856,-0.61543101,0.644961,0.13816699
6.0235,6019.6132,-6.83326,-5.92344,-8.30095,-3.55817,-3.40417,1.77399,3.4,14.1,30.6,-16.618368,126.376541,79.17437,0.4261562490004571,-0.61300802,0.639045,0.18502299
6.05,6019.6332,-6.273,-5.53317,-7.47732,-3.61254,-4.27587,1.69947,5.1,14.2,30.0,-12.998515,123.230232,81.360657,0.42311291672129286,-0.61059201,0.62782001,0.23236801
6.0641,6019.6532,-6.25863,-6.58665,-8.05195,-3.82145,-3.40172,0.76179,8.6,12.4,30.5,-9.9768,119.456024,83.88662,0.4237326810311893,-0.60767198,0.61065,0.279807
6.0792,6019.6733,-6.64651,-7.54197,-6.76622,-3.82634,-1.71512,-0.30173,14.4,8.3,32.8,-8.270783,117.59053,87.396942,0.41621616435717507,-0.61638403,0.59096199,0.312408
6.099,6019.6933,-6.76861,-6.46933,-5.82527,-3.65652,-1.43412,-0.18383,11.4,5.7,29.5,-7.604894,117.036781,91.356026,0.40453223469814986,-0.63297403,0.56975901,0.33327499
6.1158,6019.7133,-5.98569,-5.05192,-5.47331,-3.61315,-2.00467,0.17536,17.6,2.4,30.6,-6.853969,116.453575,95.010353,0.3925378401420172,-0.64698201,0.550053,0.353228
6.1408,6019.7333,-5.79654,-4.10618,-5.23388,-3.58627,-2.99183,0.35557,19.4,0.3,30.7,-5.921522,114.97879,98.682648,0.3827577791176555,-0.656959,0.52765399,0.378791
6.1561,6019.7534,-6.99128,-3.01679,-4.93699,-3.51113,-3.48969,1.19428,17.0,-0.8,26.4,-4.839196,112.432396,102.216019,0.37612597630852335,-0.661066,0.50309801,0.410382
6.2163,6019.7734,-8.11899,-2.93778,-5.21234,-3.39385,-3.32475,2.40868,22.6,-5.5,27.8,-2.799116,109.33857,105.316452,0.36651473286818836,-0.65698302,0.483477,0.44753799
6.2179,6019.7934,-7.76942,-2.87792,-4.75503,-3.28572,-2.72977,2.23031,23.1,-8.5,24.5,0.051831,106.747635,108.138985,0.3497896814390606,-0.64968598,0.471154,0.48328999
6.2203,6019.8135,-7.20677,-2.08541,-4.21392,-3.18493,-3.13722,1.40748,25.1,-10.3,24.8,2.263252,104.225487,111.131668,0.334332778047322,-0.64394599,0.45618701,0.51521701
6.2354,6019.8335,-6.98889,-1.20671,-3.65606,-3.15805,-2.83973,0.98048,25.3,-12.2,23.3,3.482433,101.317711,114.340088,0.3237851445329439,-0.63911998,0.43528,0.54517901
6.2579,6019.8535,-7.91068,-0.2107,-3.18678,-3.33093,-2.42861,1.22483,24.2,-13.3,19.6,4.373486,98.855339,117.831711,0.31073849188515285,-0.63722998,0.41313899,0.57157302
6.2766,6019.8735,-9.16768,0.47646,-3.2203,-3.57772,-2.00162,2.30361,24.1,-15.7,18.0,5.735709,96.812195,121.407753,0.291798064752491,-0.635149,0.39445701,0.59652603
6.2965,6019.8936,-10.11821,0.67279,-3.86675,-4.15254,-2.06698,3.0281,24.6,-16.9,15.3,8.389904,94.855537,125.398041,0.2615973042568662,-0.62994301,0.380842,0.62425798
6.3239,6019.9136,-10.2475,0.74462,-4.43899,-5.00653,-2.02972,3.27306,20.6,-19.4,10.6,11.66736,92.497833,130.242737,0.22281158882625135,-0.62235397,0.36608201,0.65499198
6.3409,6019.9336,-10.18285,1.21629,-4.48687,-5.78111,-1.74811,3.28344,20.2,-22.6,5.4,14.892144,89.851715,136.332397,0.1761544187231158,-0.61588103,0.34560099,0.68572599
6.3572,6019.9537,-10.94423,1.5467,-4.24265,-6.45856,-1.35166,4.13193,18.3,-24.9,2.2,17.987856,87.000916,143.557953,0.12181224570665891,-0.61034799,0.32030299,0.71417302
6.3768,6019.9736,-11.38238,0.51477,-3.83802,-7.22092,-0.88618,5.86374,14.5,-27.4,-2.9,21.891197,83.935089,152.193909,0.05216658211479583,-0.60338801,0.29479599,0.73911899
6.3972,6019.9936,-10.71438,-1.04151,-3.30649,-7.80674,-0.82876,6.80813,11.5,-28.9,-7.8,26.860481,80.033455,162.448151,0.03396923034629768,0.59096599,-0.271218,-0.758977
6.4139,6020.0136,-10.77424,-2.39667,-1.99683,-7.90875,-0.3309,7.33837,6.5,-29.9,-12.1,31.532854,74.869034,174.269928,0.12677053965515708,0.57347,-0.244726,-0.77147299
6.4412,6020.0336,-9.85962,-3.76141,-0.03831,-7.41456,0.12541,7.84111,2.2,-29.5,-17.4,35.561756,68.981613,-172.766342,0.22209757816383102,0.55402797,-0.21718,-0.77237201
6.4547,6020.0536,-8.29377,-4.518,1.87711,-6.57584,1.28667,7.10685,-0.9,-27.9,-21.7,38.580627,62.82626,-159.434616,0.3132083563984187,0.53436899,-0.189593,-0.76184303
6.4771,6020.0736,-7.7383,-4.42941,4.36476,-5.46468,2.56704,6.25836,-2.8,-25.2,-24.3,39.908703,58.372505,-147.049866,0.3923179521045901,0.52405101,-0.155717,-0.73973602
6.4998,6020.0936,-7.55154,-3.32565,6.78298,-4.257,2.21457,6.0415,-4.3,-21.9,-27.3,40.448425,55.480778,-136.061798,0.4599217178983391,0.51951599,-0.120348,-0.70999402
6.5147,6020.1136,-8.14293,-1.60895,7.6952,-2.98151,1.56034,5.73851,-6.3,-20.7,-29.3,41.037689,52.341724,-126.279167,0.5176892500123206,0.51063597,-0.09401,-0.68000799
6.5415,6020.1336,-9.12698,-0.07662,7.47253,-2.11103,1.59027,6.14901,-7.3,-18.0,-29.7,41.97448,49.06773,-117.622948,0.5670740393664304,0.50038201,-0.077968,-0.649589
6.5644,6020.1536,-8.7822,0.28971,7.07029,-1.96748,1.44488,6.89854,-8.0,-15.1,-29.2,43.655407,45.487419,-108.740616,0.6155686776301569,0.491465,-0.069643,-0.61211699
6.5904,6020.1736,-7.94181,-0.04549,6.34962,-2.18861,1.71244,6.92542,-9.6,-13.4,-30.2,45.382256,40.737396,-98.732773,0.6651414332057958,0.47920299,-0.065328,-0.568932
6.6009,6020.1936,-7.49169,-0.32323,6.2299,-2.43051,2.30437,6.75621,-10.4,-11.1,-33.1,46.267525,35.922359,-88.108162,0.7129284206051965,0.46577701,-0.056069,-0.52119201
6.621,6020.2136,-6.45975,-0.11971,6.87636,-2.60766,2.05758,6.55951,-11.1,-8.9,-33.1,46.23877,31.457573,-77.317375,0.7577673334942593,0.450872,-0.041412,-0.469881
6.6408,6020.2336,-3.59141,-0.39266,7.85801,-2.54535,0.71856,5.50027,-8.4,-3.8,-34.5,45.335918,26.749954,-66.851181,0.7983517510998017,0.43050599,-0.028387,-0.420111
6.659,6020.2536,-0.76377,-0.38069,8.46616,-1.79827,0.11442,2.14357,-9.0,-3.2,-37.7,43.329247,22.362761,-58.718651,0.8297188929552105,0.404008,-0.020494,-0.38460901
6.6815,6020.2736,-0.73025,0.50759,8.23631,-1.42808,-0.78294,0.15215,-4.8,-4.0,-33.9,40.477642,20.85408,-55.969593,0.8442456939603422,0.38012099,-0.009691,-0.37770799
6.6992,6020.2936,-2.5092,1.62571,7.53957,-2.053,-1.00224,0.31769,-6.7,-2.4,-33.1,37.2253,19.597351,-54.930634,0.8536681545487332,0.35345101,-0.00195,-0.38251701
6.7231,6020.3136,-3.48128,1.8412,7.3193,-2.1434,-0.91733,1.22483,-10.7,0.3,-35.0,33.87299,17.779852,-53.356831,0.864729913402202,0.32354701,0.002873,-0.38412401
6.7585,6020.3336,-2.54272,1.39586,8.01843,-2.04567,-0.6174,1.86257,-6.5,1.4,-34.4,30.929029,15.750962,-50.834568,0.8779766998608333,0.29524201,0.005912,-0.37676799
6.7599,6020.3537,-1.17798,1.04151,9.10782,-1.69992,-0.76767,1.94381,-7.1,1.8,-31.8,28.407066,13.85887,-47.820503,0.8917595383241717,0.27007601,0.008199,-0.36298299
6.7819,6020.3737,0.34478,0.98644,10.07271,-1.55025,-1.78049,1.4203,-11.7,4.8,-34.0,26.23406,11.68816,-45.082371,0.9036890539638068,0.246529,0.005044,-0.350063
6.8008,6020.3937,0.89306,1.30488,9.94103,-1.51238,-2.83789,0.56692,-9.1,4.1,-32.8,23.996704,8.589133,-43.256462,0.9124713714555651,0.219703,-0.008316,-0.345047
6.8172,6020.4137,1.02714,1.62092,9.28739,-1.50261,-3.15249,0.32563,-10.9,4.9,-31.2,21.724686,4.9166,-42.38345,0.917749609256795,0.190772,-0.028785,-0.34715
6.8417,6020.4338,2.174,1.26418,8.83966,-1.56247,-2.67662,0.2676,-11.0,7.0,-28.5,19.49828,1.183108,-41.813244,0.9212472540604939,0.161809,-0.050918,-0.350041
6.858,6020.4538,3.29452,0.85954,9.55795,-1.41892,-1.87456,0.0874,-12.2,7.2,-28.9,17.319136,-1.747279,-41.442627,0.9237304608601581,0.135474,-0.067365,-0.35189599
6.8756,6020.4738,2.84679,0.58899,10.49889,-1.09821,-2.12807,0.50767,-15.8,9.5,-27.9,15.41651,-4.081444,-41.230431,0.9252385635953572,0.113036,-0.080224,-0.353158
6.8981,6020.4938,2.00401,0.59617,11.2483,-0.64556,-3.51534,1.45696,-16.2,10.5,-26.5,13.858933,-7.173,-40.39027,0.9272366700358543,0.091571,-0.099849,-0.34910899
6.9179,6020.5139,2.06865,0.39266,10.3313,-0.07929,-5.27341,1.82592,-17.8,11.3,-25.6,12.709953,-12.101886,-38.562786,0.9290285933259965,0.069303,-0.135235,-0.33736399
6.9406,6020.5339,2.9689,-0.05507,8.43503,0.14795,-6.14878,1.48322,-22.9,12.7,-24.8,11.864584,-18.659468,-36.526608,0.9267953599268178,0.046316,-0.185086,-0.32349399
6.9551,6020.5539,5.34881,-0.69434,6.79016,0.28112,-5.69735,0.80883,-25.3,13.0,-21.8,11.119884,-25.616354,-34.998272,0.9191568981916526,0.023758,-0.238842,-0.31231499
6.981,6020.574,8.90431,-0.58181,6.91706,0.26707,-5.15674,0.10572,-26.0,12.8,-19.0,10.6489,-31.641205,-34.241447,0.9080702656211577,0.005413,-0.28570399,-0.30619001
6.9994,6020.594,10.19003,-0.17239,7.76224,0.71667,-5.59839,0.07212,-27.8,12.5,-13.8,10.529469,-37.408436,-34.003101,0.8933665130670165,-0.010258,-0.330787,-0.30392599
7.019,6020.614,9.34485,0.09817,7.89871,1.72093,-6.161,1.13869,-28.6,13.6,-10.3,10.639996,-44.044449,-33.056347,0.875014170646693,-0.023812,-0.382377,-0.29592401
7.0463,6020.634,8.56911,0.22506,6.04794,2.04286,-5.1152,1.9823,-29.8,14.0,-9.5,10.477325,-51.102287,-30.404158,0.8566663694057798,-0.033137,-0.436086,-0.27359399
7.0634,6020.6541,8.17645,-0.44055,4.30969,1.94451,-3.96433,2.50886,-29.6,15.3,-6.9,9.466362,-56.751835,-27.22333,0.8429907493361597,-0.040903,-0.47741699,-0.244472
7.0839,6020.6741,8.6577,-0.98165,2.97608,1.94573,-3.7322,2.74832,-29.1,16.6,-6.7,7.688639,-61.239872,-23.780455,0.8331697607204669,-0.048248,-0.509179,-0.210326
7.1143,6020.6941,10.48692,-0.68476,2.15006,1.98299,-3.9625,2.15517,-28.7,18.1,-3.3,5.628544,-65.644897,-20.406809,0.8213521673714991,-0.055295,-0.54013097,-0.174876
7.1206,6020.7142,11.5404,-0.30168,2.02077,1.75636,-4.70103,1.24132,-27.4,19.2,-1.7,4.163482,-70.292404,-17.531502,0.8044147325321432,-0.058315,-0.57309198,-0.14519601
7.1409,6020.7342,10.99212,-0.62012,2.12133,2.19924,-6.15428,0.4869,-27.4,19.5,1.2,3.391249,-76.079102,-15.227699,0.7778840627970981,-0.05851,-0.61359298,-0.122379
7.165,6020.7542,9.20599,-0.95771,0.25858,2.77589,-6.09625,-0.00118,-26.0,20.7,3.4,3.282416,-83.01432,-12.489695,0.7420591191706757,-0.050738,-0.66084403,-0.100295
7.1791,6020.7742,8.26504,-0.53153,-1.75261,1.52545,-5.82014,0.37572,-26.3,20.3,4.5,3.142872,-89.503227,-9.730374,0.7057032357497873,-0.040283,-0.70288599,-0.079445
7.2002,6020.7943,8.24109,-0.56505,-2.26738,0.8144,-6.5489,0.77889,-25.5,20.5,7.3,2.254584,-95.996506,-8.400887,0.666155972715129,-0.041291,-0.74194902,-0.063584
7.2212,6020.8143,8.66488,-0.78053,-3.06467,1.46864,-6.4029,0.55776,-23.0,21.8,10.4,0.996214,-103.028984,-7.494586,0.6205180850378174,-0.045758,-0.781416,-0.047461
7.2447,6020.8343,8.96177,-0.96968,-4.0152,1.85227,-6.69978,-0.01156,-21.9,22.3,12.7,-0.170265,-109.857941,-5.891704,0.5738940893093072,-0.042914,-0.81731403,-0.028315
7.2678,6020.8544,8.07589,-1.16362,-4.86996,1.80095,-7.33936,-0.46422,-20.5,22.7,14.0,-1.025971,-117.121132,-3.93966,0.5215306429308444,-0.033993,-0.85249299,-0.010294
7.2861,6020.8744,6.74228,-1.27615,-6.24187,2.06851,-7.61242,-0.77087,-17.1,23.8,16.0,-1.755131,-124.95681,-1.815058,0.4621866193530487,-0.021121,-0.886509,0.006263
7.2958,6020.8944,5.435,-1.18995,-8.37278,2.04835,-7.18909,-1.00728,-11.4,22.5,19.3,-2.710843,-132.843475,0.685684,0.39975334463751405,-0.003979,-0.91629797,0.024072
7.3156,6020.9144,4.60658,-1.02714,-10.00567,1.42405,-7.09868,-0.96513,-9.3,22.5,21.1,-3.633636,-140.372177,2.736657,0.33798721929723885,0.011711,-0.94031399,0.037909
7.3448,6020.9344,3.31128,-1.15643,-10.80536,1.19742,-6.60938,-1.11295,-10.9,24.6,20.7,-4.2912,-147.905411,4.241557,0.27471722531923437,0.025197,-0.96008497,0.046178
7.3765,6020.9544,1.82683,-1.06785,-10.84367,1.52973,-6.25568,-1.127,-5.0,24.1,24.2,-5.020605,-154.813828,6.02532,0.2152725984155893,0.041707,-0.97416002,0.054134
7.3825,6020.9745,0.68237,-1.03672,-11.05437,1.83638,-6.29234,-0.92359,-6.2,26.3,20.4,-6.294453,-161.633179,7.525477,0.15545936580109804,0.055943,-0.98414302,0.064539
7.401,6020.9945,0.2107,-1.23066,-11.67927,1.71482,-5.84824,-0.99933,0.0,26.3,23.1,-8.023509,-168.335648,8.986158,0.09560528047278306,0.070655,-0.98989302,0.077326
7.4159,6021.0145,-0.52913,-1.14686,-12.11024,1.18398,-5.88672,-1.12151,0.6,26.6,22.3,-9.551092,-174.534943,10.14295,0.03998233227339204,0.084038,-0.99184901,0.087032
7.4435,6021.0346,-1.47727,-1.38389,-12.9626,0.34404,-6.69856,-0.81363,3.3,27.2,21.2,-10.491584,178.9608,11.163059,0.017930115737493688,-0.097676,0.99096799,-0.090113
7.4603,6021.0546,-2.08302,-2.14288,-13.95623,-0.53744,-4.95149,-0.76598,5.3,26.7,20.7,-10.505351,172.115814,11.843841,0.07752595333641271,-0.108757,0.98749298,-0.083781
7.4787,6021.0746,-1.68796,-2.11893,-12.80458,-0.98154,-3.61369,-0.93703,4.0,27.2,21.0,-9.792241,167.655975,12.717204,0.11586605433171314,-0.118827,0.98346502,-0.072469
7.5007,6021.0946,-1.79092,-1.93697,-11.57153,-0.92778,-3.03887,-1.45443,4.2,27.0,20.8,-8.936321,164.361328,14.058496,0.14406403689547198,-0.13138901,0.97896999,-0.060002
7.5269,6021.1147,-2.69116,-1.74782,-10.75987,-0.89174,-2.90142,-1.83255,4.6,27.6,20.9,-8.466327,161.880371,16.004202,0.16566025332323883,-0.148608,0.97362202,-0.050324
7.5389,6021.1347,-3.5555,-1.63768,-10.12778,-1.04629,-3.89164,-1.54911,2.7,27.8,19.2,-8.190792,159.162933,18.18,0.18920843517517835,-0.16773701,0.96664101,-0.040861
7.5687,6021.1547,-4.08224,-1.56107,-10.08469,-1.58935,-5.33389,-0.74949,4.0,27.2,21.2,-7.615799,155.102509,20.093418,0.22310711024640098,-0.18407001,0.95689499,-0.026333
7.5808,6021.1748,-4.26181,-2.68638,-10.91311,-1.97847,-3.7096,-0.45078,5.3,26.9,19.8,-6.241006,149.828613,21.584902,0.26512581722638767,-0.19444799,0.944399,-0.002968
7.5991,6021.1948,-4.60898,-2.74863,-9.34007,-1.98458,-1.52087,-0.95657,5.8,25.9,20.6,-4.885152,147.376389,23.26149,0.2830964994855995,-0.205037,0.936773,0.016509
7.6161,6021.2148,-4.72151,-2.30329,-7.83407,-1.73779,-2.02972,-1.15999,6.2,26.6,21.5,-3.935966,146.236557,25.304604,0.29037858768394054,-0.219202,0.93093401,0.031506
7.6442,6021.2348,-4.42223,-2.25541,-7.12057,-1.29308,-2.39379,-2.07568,5.7,26.1,20.8,-3.615817,144.547943,27.427565,0.30276598364314294,-0.235036,0.92263001,0.04295
7.6609,6021.2549,-5.13093,-2.40625,-7.00804,-1.52154,-3.16226,-1.75559,5.8,26.1,21.5,-4.224912,142.205383,30.050732,0.3216299918835616,-0.25663701,0.91003799,0.050224
7.679,6021.275,-6.36638,-2.39188,-6.91227,-2.23992,-4.24349,-0.18261,5.4,26.4,21.2,-4.147897,138.986374,32.347775,0.34567644677012577,-0.27290699,0.89543802,0.064964
7.7006,6021.295,-6.5651,-3.14368,-7.35282,-2.56551,-3.11523,0.74163,6.1,26.4,21.0,-2.486366,134.81514,33.897072,0.37324094906730015,-0.27705199,0.88052303,0.092804
7.7288,6021.3151,-5.8133,-3.12453,-6.09343,-2.26191,-1.18367,0.05319,7.5,25.3,20.7,-0.584923,132.505051,35.268089,0.38519506092560424,-0.27924201,0.87168401,0.11754
7.7438,6021.3352,-5.80372,-2.53075,-4.62574,-1.78666,-1.2417,-0.68046,9.0,24.2,22.1,0.262926,131.561691,36.925907,0.38845080139798904,-0.28792399,0.86533701,0.1319
7.763,6021.3552,-6.80692,-2.0495,-4.03196,-1.36822,-1.07005,-1.20764,9.7,23.0,21.3,0.075421,130.528854,38.700878,0.39459616245640294,-0.30068401,0.857032,0.139209
7.7795,6021.3753,-7.8221,-1.61614,-4.08942,-1.25765,-1.49582,-1.12273,9.9,21.9,21.5,-0.683527,129.415314,40.449188,0.40275392989926223,-0.31494799,0.847498,0.14263301
7.7985,6021.3954,-8.41827,-1.40065,-4.87235,-1.87585,-3.31925,-0.4465,11.4,21.4,21.6,-1.183227,127.321655,42.01984,0.4174835020720698,-0.32556799,0.834916,0.150427
7.8248,6021.4155,-8.7391,-1.86275,-6.67284,-3.29305,-4.70225,0.26577,12.9,20.4,21.7,-0.414994,123.018959,43.998989,0.44347100995756084,-0.33083299,0.81424803,0.175736
7.846,6021.4356,-8.11659,-2.11654,-6.64651,-3.60582,-1.29912,-0.09403,13.8,18.5,21.8,1.303985,118.797935,46.928761,0.4630322007368385,-0.33739001,0.791812,0.211667
7.8583,6021.4557,-7.68083,-1.94894,-4.88671,-3.52152,-1.0731,-0.77209,15.0,16.2,22.0,2.446661,117.836525,50.392033,0.4592518382263265,-0.354541,0.77946299,0.236275
7.8908,6021.4758,-7.93942,-2.1333,-3.59381,-3.08169,-1.12564,-1.05431,16.0,14.9,21.3,2.770238,116.77916,53.979301,0.4575772522224194,-0.37509301,0.76440698,0.256145
7.9026,6021.4959,-8.7415,-1.77655,-3.12692,-2.68891,-1.24109,-0.74155,19.0,12.3,23.5,2.612785,115.484688,57.180313,0.45930024312436296,-0.39389199,0.74817097,0.272273
7.9201,6021.516,-9.01923,-1.03193,-3.31368,-2.79459,-0.93383,-0.13862,21.0,10.9,23.7,2.693856,114.184204,59.944172,0.4606472424413283,-0.40823999,0.73345,0.288436
7.9418,6021.5361,-8.99529,-0.70871,-3.96492,-3.45188,-0.95948,0.26943,21.4,8.6,24.6,3.471566,113.120049,62.727047,0.4571720362756009,-0.41985801,0.72089398,0.30826101
7.9598,6021.5562,-10.10384,-1.20193,-4.32406,-3.86421,-1.19833,1.02263,19.0,8.5,22.5,4.951357,111.780792,66.06498,0.45020080269788393,-0.430608,0.70669103,0.33538601
7.9835,6021.5762,-10.40312,-1.09658,-4.00323,-3.96928,-0.37366,1.7911,24.2,4.2,25.0,7.306211,110.355888,69.443443,0.4385995398034058,-0.43674001,0.69409698,0.36758399
8.003,6021.5963,-10.08947,-0.47646,-4.02717,-4.13849,0.08204,2.14357,20.9,2.5,22.6,10.236206,109.723396,72.801865,0.4181140278941138,-0.442027,0.68605101,0.39890701
8.0184,6021.6163,-9.95539,-0.32802,-4.56828,-4.42804,0.03684,2.33294,24.2,-2.3,24.7,13.481986,109.17186,76.305382,0.3934384394859244,-0.44649601,0.67846698,0.43073201
8.0407,6021.6364,-10.3313,-0.53153,-3.92422,-4.51234,0.12847,2.30239,25.0,-5.6,24.5,16.819853,108.358719,80.198441,0.36647642238075745,-0.45119101,0.66870898,0.46362701
8.0744,6021.6565,-11.31055,-0.42379,-3.04552,-4.06885,0.57318,2.59927,24.5,-8.2,24.8,19.994341,107.463829,84.18792,0.3384775871892844,-0.456063,0.65803802,0.494394
8.0817,6021.6765,-12.05996,0.15802,-3.85957,-3.7848,0.45711,3.45998,23.3,-11.5,22.2,23.345821,106.873222,87.650192,0.3083641516731465,-0.45772499,0.65094799,0.52121598
8.1061,6021.6966,-11.74631,0.54589,-4.96333,-4.10734,0.8389,3.88881,20.1,-14.9,22.1,27.433077,106.216286,90.868576,0.2741307323822696,-0.453657,0.646626,0.54856402
8.1291,6021.7167,-11.10225,0.74701,-4.64968,-4.68888,1.19443,3.75014,18.8,-18.7,21.2,31.768137,105.414368,94.802048,0.23417065518364996,-0.45100999,0.639983,0.57634699
8.152,6021.7367,-10.12539,1.24981,-4.24744,-4.527,1.54812,3.64263,16.6,-22.6,19.4,35.884346,104.489578,99.715973,0.1893487413855699,-0.45340601,0.62911099,0.60232002
8.1607,6021.7568,-9.83329,1.67599,-4.14688,-4.23134,1.9574,3.81856,11.4,-25.4,15.3,39.749531,103.675255,104.69796,0.1433278473141192,-0.45712599,0.61799699,0.62335598
8.212,6021.7768,-9.70878,1.81486,-3.87154,-4.20569,2.52062,4.06718,8.0,-27.9,11.5,43.660221,103.338989,109.727875,0.09279667352195049,-0.46278,0.60769099,0.63869798
8.213,6021.7969,-9.12219,2.4254,-3.76619,-4.35596,2.66539,4.0458,5.3,-29.3,12.3,47.704277,103.009781,115.102203,0.0383863695949338,-0.46900499,0.59647399,0.65021503
8.218,6021.817,-8.2387,3.58902,-3.83563,-4.5661,2.26466,3.74281,1.9,-32.1,8.5,51.575687,101.927597,121.21347,0.016111132834768695,0.47488499,-0.581985,-0.65993798
8.2416,6021.837,-7.71675,3.94816,-3.67042,-4.96743,1.98428,3.15516,0.1,-32.1,8.1,54.979649,99.262741,128.578812,0.06762551653051448,0.47925499,-0.56258303,-0.67025501
8.2615,6021.8571,-7.87238,3.80211,-3.16044,-5.24782,2.12172,3.28222,-2.3,-33.8,1.8,57.634712,94.80571,137.679672,0.11684807960235856,0.48371401,-0.53706998,-0.68111902
8.2787,6021.8772,-8.2794,3.52437,-0.45731,-5.43108,2.7729,4.25594,-4.7,-33.6,-1.7,60.263702,89.098831,148.411697,0.17111442144956568,0.48645201,-0.50937599,-0.68892699
8.3009,6021.8972,-6.91467,4.6401,2.48286,-3.85505,4.21027,5.04518,-8.8,-34.0,-7.1,63.449337,83.901482,160.273178,0.237962214397496,0.493213,-0.48269799,-0.68346
8.3191,6021.9173,-4.86756,5.37515,3.73267,-2.25703,3.23166,4.16736,-10.7,-32.3,-5.7,66.870216,79.824799,170.747818,0.30075219907368844,0.499605,-0.46443301,-0.66651702
8.3405,6021.9373,-4.07984,6.07428,3.36156,-1.42075,2.45953,2.80819,-11.9,-31.5,-8.2,69.144768,76.513206,178.714432,0.34408179472180694,0.504812,-0.45127699,-0.65047801
8.3607,6021.9574,-4.10379,6.14131,2.09978,-1.15625,3.16874,2.01712,-13.7,-31.3,-9.5,70.265808,73.82724,-174.722855,0.37537720742237274,0.51185203,-0.43701699,-0.637272
8.3856,6021.9774,-4.73109,6.01202,1.59938,-1.19656,5.00623,1.77094,-14.4,-29.8,-12.7,70.795189,72.827156,-168.700806,0.4067615854593442,0.52742201,-0.41625199,-0.61895502
8.406,6021.9974,-5.55711,6.41187,2.0902,-1.24971,5.95918,2.46183,-15.1,-29.5,-16.4,71.364037,73.243706,-162.157883,0.44483877143333567,0.55127698,-0.38733801,-0.590069
8.4225,6022.0174,-5.33684,7.27141,2.78694,-1.16297,5.81135,3.43005,-14.5,-29.3,-18.9,72.850525,72.976395,-154.149017,0.48885141431539236,0.57313901,-0.35825899,-0.55153102
8.4454,6022.0375,-3.93619,7.93702,3.02397,-0.87708,4.81197,3.24801,-14.4,-26.9,-19.8,75.139282,70.564522,-144.530411,0.5325374989638002,0.58767402,-0.33462101,-0.508991
8.4616,6022.0575,-2.45174,8.42785,2.61215,-0.78973,4.0319,2.46183,-14.1,-25.7,-19.9,77.005753,66.653305,-134.673187,0.567581563389333,0.59719002,-0.31434301,-0.47159699
8.4807,6022.0775,-1.59938,8.24828,2.11654,-1.0072,3.40271,1.83569,-14.2,-26.0,-24.2,78.076958,61.606441,-124.606857,0.5956667132360846,0.60362601,-0.294137,-0.440795
8.5008,6022.0976,-1.80528,8.01603,1.53234,-1.32301,3.54015,1.41419,-14.1,-25.4,-24.1,78.406334,55.136734,-113.739578,0.6204063684420873,0.60656297,-0.27321401,-0.415369
8.5188,6022.1176,-2.53554,7.64731,1.71191,-1.46657,4.62016,0.99025,-7.6,-25.1,-20.1,78.055984,49.527233,-103.190086,0.6449044562198029,0.61020398,-0.245942,-0.388924
8.5425,6022.1376,-3.23467,7.57549,2.66243,-1.46168,4.70996,1.03668,-6.6,-24.6,-23.9,77.247391,46.327206,-94.029716,0.6693461538364883,0.61609,-0.21028499,-0.358035
8.5605,6022.1576,-2.73187,7.51323,3.83323,-1.26254,3.97753,0.98353,-9.0,-23.0,-27.5,76.447418,43.519184,-85.494667,0.6914919837758636,0.61967498,-0.17618801,-0.32680199
8.5804,6022.1777,-1.77895,7.62816,5.04234,-0.80561,2.96533,0.47163,-7.7,-22.6,-27.0,75.606743,41.560699,-78.835548,0.7087723185006451,0.62072301,-0.147331,-0.30106199
8.6042,6022.1977,-1.17319,8.04476,5.435,-0.38839,2.23473,-0.12213,-2.1,-22.9,-28.7,74.699623,41.35918,-75.201202,0.719964438315643,0.62098098,-0.123902,-0.28404599
8.6225,6022.2177,-1.00799,8.1118,5.12614,-0.33219,1.98183,-0.6151,-5.8,-21.4,-30.3,73.652863,42.646061,-73.812584,0.7271262874495459,0.62126499,-0.102561,-0.27349299
8.6405,6022.2378,-1.6736,8.10223,4.42941,-0.61197,1.98061,-0.42756,-0.8,-22.7,-28.4,72.368988,44.090641,-72.960266,0.7332749819399268,0.620116,-0.081763,-0.266606
8.6635,6022.2578,-2.01359,7.92984,3.82126,-0.86792,2.85415,-0.07815,0.0,-21.8,-27.9,71.15065,44.213699,-70.443939,0.741871271551015,0.61686301,-0.060815,-0.25575101
8.6938,6022.2778,-2.10936,7.67126,3.5531,-1.07439,3.84986,-0.21315,2.0,-20.7,-30.5,69.976257,44.756413,-67.110504,0.7519918114495262,0.61427099,-0.033145,-0.23681401
8.7031,6022.2978,-2.63131,7.58985,3.52916,-1.38227,4.08688,-0.16734,2.5,-19.5,-30.9,68.592606,46.138126,-63.697414,0.7621444106904934,0.61118102,0.001419,-0.213522
8.7267,6022.3179,-2.87313,7.38873,3.9745,-1.40792,4.1895,-0.06593,5.4,-18.4,-28.5,67.135292,47.230404,-59.819092,0.7722182093072009,0.60558099,0.036714,-0.188687
8.7418,6022.3379,-2.81806,6.82847,4.77897,-1.02308,4.25059,-0.24553,7.7,-17.8,-30.0,65.793221,48.724648,-56.257118,0.7801707910985257,0.59961998,0.072196,-0.16302501
8.7623,6022.3579,-3.52198,6.64651,5.43261,-0.52767,4.33489,0.05991,9.5,-17.8,-30.3,64.676277,51.275764,-53.787674,0.7840316334882662,0.59545797,0.107896,-0.13813999
8.7831,6022.378,-3.99844,6.76861,5.83724,-0.07196,3.28664,0.59502,10.5,-16.8,-30.3,64.230278,53.682323,-51.467422,0.7849985941471354,0.59334803,0.13854299,-0.111898
8.799,6022.398,-3.68,7.42225,5.88992,0.41612,2.5139,0.68788,10.8,-16.6,-29.3,64.427689,55.175213,-49.442528,0.7843891707625876,0.59303099,0.158317,-0.089351
8.8189,6022.418,-3.19396,8.22673,5.76541,0.44727,1.13456,0.40688,11.3,-17.3,-29.0,64.798553,56.229683,-48.167469,0.782917583946254,0.59381902,0.170397,-0.073375
8.8462,6022.438,-2.91144,8.78699,5.39191,0.50042,0.04906,0.1155,11.1,-18.1,-29.3,64.929077,56.180698,-47.342472,0.7831883850035437,0.59320903,0.173729,-0.067359
8.8649,6022.458,-3.27537,9.42626,4.50124,0.41246,-0.65588,-0.07448,11.0,-17.6,-28.3,64.8825,55.40424,-47.033997,0.7846500450038982,0.59204602,0.17022701,-0.069488
8.8869,6022.478,-3.94816,9.90751,3.6393,0.19071,-1.19955,-0.01218,11.2,-17.8,-28.9,64.718529,54.130661,-46.842869,0.787027474866259,0.59011799,0.16323,-0.075528
8.9022,6022.498,-3.65845,9.92906,4.03435,-0.02187,-2.32538,-0.05127,10.4,-17.4,-29.2,64.51944,51.873264,-46.296906,0.7910116198185964,0.58675098,0.15139,-0.084291
8.9197,6022.518,-3.20115,10.12539,4.79334,0.48026,-4.11766,-0.55585,8.4,-17.7,-29.4,64.222641,48.52557,-46.145348,0.7960337265781765,0.58225203,0.13029701,-0.101664
8.947,6022.538,-3.53634,10.65931,4.30969,0.7692,-4.24533,-0.49048,8.0,-17.9,-30.0,64.04554,45.299408,-47.95594,0.7979086816941766,0.57981497,0.099453,-0.13139801
8.9664,6022.558,-3.84521,11.0831,3.33762,0.41184,-3.79145,-0.05799,8.1,-17.8,-29.8,64.253746,42.300003,-49.68795,0.7973492212705666,0.57845497,0.0689,-0.15772399
8.9813,6022.578,-3.95055,11.18845,3.69437,-0.11655,-4.56237,-0.01767,7.8,-17.5,-30.4,64.396133,38.243343,-49.896492,0.7985414378764949,0.57339299,0.038978,-0.178977
8.9985,6022.598,-4.0128,11.20281,4.75982,0.3135,-5.32534,0.03364,6.0,-17.7,-31.3,64.307175,32.886856,-49.605968,0.8002908090467111,0.56387502,0.003423,-0.20388199
9.0211,6022.618,-4.08942,10.70959,4.92502,0.69284,-5.17873,0.34518,1.6,-18.0,-31.0,64.748863,27.455648,-49.908192,0.7974579128962982,0.55615401,-0.037736,-0.230932
9.043,6022.638,-4.51081,10.372,4.49166,0.65925,-4.67904,0.92795,-2.2,-18.5,-31.5,65.592148,22.077982,-49.891338,0.7918214678263525,0.54991698,-0.078279,-0.253934
9.0656,6022.658,-5.27938,10.07511,3.67761,0.15284,-3.47686,1.83814,-5.8,-18.6,-29.9,66.460709,15.947917,-48.157955,0.7873185494003553,0.54282802,-0.115483,-0.268572
9.0831,6022.678,-5.58584,9.25387,3.07664,-0.34074,-2.36264,2.92425,-8.2,-19.1,-32.1,66.887306,8.587313,-43.5369,0.7880517502975422,0.53354901,-0.145795,-0.270266
9.0991,6022.698,-5.1453,8.19081,3.08622,-0.5521,-2.43533,3.54673,-10.8,-18.4,-30.2,66.688942,-0.064971,-36.347301,0.7936106129071356,0.52210402,-0.171892,-0.26085001
9.1188,6022.718,-4.41025,6.96016,2.8875,-0.53927,-2.10913,4.05191,-13.3,-17.0,-29.7,65.915642,-9.491233,-28.375811,0.7996564473577262,0.508605,-0.200185,-0.24858899
9.1411,6022.738,-3.62493,5.64809,3.14608,-0.73841,-1.39014,4.53327,-11.5,-17.4,-27.6,64.505013,-18.248835,-20.355688,0.806909471150178,0.49491,-0.225106,-0.23084299
9.1582,6022.758,-3.14847,4.29772,3.73986,-0.45375,-1.64793,5.50088,-13.9,-15.5,-28.0,62.281761,-26.154095,-12.305591,0.81635740173609,0.48007599,-0.24653199,-0.20569301
9.1792,6022.778,-2.81327,3.15326,3.7638,0.0551,-1.95397,6.85089,-20.4,-9.9,-27.2,59.301159,-34.931385,-3.393592,0.8242313608059328,0.463972,-0.274694,-0.172962
9.2017,6022.798,-1.80049,1.73824,2.61934,0.37092,-1.13236,7.58821,-18.6,-8.6,-26.6,55.234741,-43.752876,5.852063,0.8300019773044036,0.44647601,-0.30776301,-0.130529
9.2188,6022.8179,-0.87152,-0.2945,1.44854,-0.243,0.26714,8.10317,-23.2,-4.4,-29.6,50.17886,-49.698265,13.858535,0.8372947848570537,0.42787901,-0.33138001,-0.077745
9.2401,6022.8379,0.96968,-2.32245,1.2139,-1.59729,0.76988,8.72381,-18.1,-0.7,-26.8,42.521816,-54.286743,21.268145,0.8455876567536094,0.39559701,-0.35832,-0.009555
9.2609,6022.8579,3.79493,-3.39748,2.29132,-2.61744,0.81325,8.41471,-17.5,2.7,-28.6,33.05378,-56.422634,26.35693,0.8532137684729895,0.34739399,-0.38411,0.06167
9.2789,6022.8779,5.6457,-4.53476,3.5986,-2.83368,0.93176,7.73604,-15.6,7.5,-25.9,23.49251,-56.853329,29.4844,0.8573274893693541,0.291738,-0.405164,0.12538201
9.299,6022.8979,7.29296,-5.74147,5.15966,-2.60644,1.12846,7.49963,-12.4,12.1,-26.9,14.361643,-56.441292,31.94717,0.8567335508445318,0.235,-0.42073399,0.183754
9.3244,6022.9179,10.08947,-5.88752,7.36479,-1.90578,0.86517,6.66275,-11.7,15.2,-27.5,5.147569,-55.451862,34.547222,0.8506101048274349,0.175965,-0.432008,0.24262699
9.342,6022.9379,11.84927,-5.60979,8.77981,-0.87769,0.5237,5.59373,-9.8,18.5,-26.2,-2.969719,-54.394669,37.318954,0.8386134554882123,0.124347,-0.44026101,0.29569501
9.36,6022.9579,12.3377,-5.36557,8.49728,-0.0347,0.22865,4.50823,-8.3,19.2,-25.3,-8.997703,-53.500927,40.425442,0.8232020865857179,0.089305,-0.44528601,0.34071001
9.3809,6022.9779,11.30816,-5.51401,7.35761,0.29028,0.18894,3.4215,-5.4,20.2,-24.9,-13.229188,-52.673191,43.49976,0.8079250435903568,0.067416,-0.44757199,0.37734801
9.3991,6022.9979,8.72953,-5.6026,5.83006,0.33915,0.46811,3.20586,-5.6,22.4,-27.6,-16.196796,-51.786999,46.203209,0.7950782086405086,0.053068,-0.4474,0.406039
9.4188,6023.0179,6.69439,-5.72232,4.17083,-0.31997,0.84013,3.4832,-3.0,23.0,-26.7,-19.132801,-50.45084,48.895374,0.7827626677169905,0.037065,-0.44479501,0.43366599
9.4503,6023.0379,6.17005,-6.33765,3.50761,-1.46779,1.4064,3.62919,-3.3,22.4,-26.0,-22.835115,-48.718197,51.056034,0.7705890356007926,0.011501,-0.44253901,0.45849699
9.4618,6023.0579,6.96973,-6.96495,3.93619,-2.01757,1.429,3.54306,1.5,24.7,-25.0,-27.384617,-46.739536,52.475773,0.7584726242884445,-0.02452,-0.441746,0.478517
9.4792,6023.0779,9.39035,-7.17085,5.18121,-1.91738,0.59212,2.6512,2.7,25.3,-22.9,-31.922371,-45.183853,53.456451,0.745309880052398,-0.060636,-0.44407699,0.49359101
9.5046,6023.0979,11.5021,-7.33366,6.28976,-1.36272,-0.33335,1.32012,3.9,26.2,-22.6,-35.231491,-45.112846,53.670292,0.7330026950530264,-0.08434,-0.452398,0.500929
9.5209,6023.1179,12.85726,-7.48929,6.93382,-0.90274,-0.22095,0.25111,3.8,26.0,-23.5,-36.920506,-46.239544,53.143551,0.7246022744810009,-0.093852,-0.46337599,0.50142401
9.5427,6023.1379,13.53484,-7.4438,7.38873,-0.58875,0.1358,-0.83684,3.0,26.6,-23.5,-37.327297,-47.431545,52.020439,0.7231083129628367,-0.09621,-0.47093999,0.49605799
9.5618,6023.1579,13.65694,-7.42943,7.56351,-0.19902,-0.32724,-1.98894,2.6,26.4,-21.0,-36.709541,-48.405441,50.452831,0.7281145200624279,-0.093991,-0.47441301,0.485744
9.5823,6023.1779,13.384,-7.33606,7.2762,0.14184,-1.29118,-3.20883,0.8,26.3,-23.4,-34.79493,-50.349609,48.260887,0.7361510102503832,-0.081005,-0.481076,0.46913299
9.6022,6023.1979,12.84289,-7.37916,6.57228,0.29578,-2.27956,-4.36215,-1.2,25.9,-23.7,-31.486004,-53.606483,45.563641,0.7446826063116821,-0.055219,-0.493929,0.44545799
9.6244,6023.2179,12.23953,-7.47253,5.63852,0.24325,-3.09201,-5.06281,-3.7,26.6,-23.0,-26.969242,-57.977303,42.644863,0.7512847555665293,-0.018644,-0.51318401,0.41456699
9.6458,6023.2378,11.98095,-7.46056,4.69996,-0.04325,-3.10423,-5.62969,-6.0,25.8,-21.6,-21.676855,-62.853584,39.679405,0.75506550003897,0.022872,-0.53616899,0.37666401
9.66,6023.2578,11.9187,-7.41507,3.99604,-0.39328,-2.31682,-6.03592,-8.7,25.1,-21.2,-15.771172,-67.189957,36.695709,0.7592513370116248,0.06406,-0.55619699,0.331781
9.7033,6023.2778,12.18686,-7.40789,4.01041,-0.92656,-1.95825,-6.64006,-13.3,23.7,-20.9,-9.397691,-70.353622,33.587376,0.7662525151485893,0.101789,-0.56902403,0.28054899
9.7123,6023.2978,12.16052,-7.26902,4.099,-1.11226,-2.19282,-7.77566,-17.2,21.7,-19.9,-2.164349,-73.026375,30.040812,0.7732087990272742,0.139516,-0.57850999,0.219111
9.7218,6023.3178,11.41351,-7.30733,3.47649,-1.36577,-1.92709,-8.3792,-23.6,16.1,-18.9,6.25413,-75.39241,26.343676,0.7769004446478327,0.181159,-0.584665,0.14756
9.7479,6023.3378,10.18285,-7.13973,3.14129,-1.90883,-1.70291,-7.94121,-26.7,11.7,-15.8,14.992551,-76.71254,22.419111,0.7783713504110613,0.219955,-0.58362103,0.071724
9.7648,6023.3578,9.60822,-6.27779,3.33522,-2.30651,-1.91121,-7.04385,-26.0,7.2,-12.9,21.833693,-77.119476,18.021843,0.7768207871237482,0.24212401,-0.58130199,0.003664
9.7824,6023.3778,9.58428,-4.97051,3.21072,-2.25092,-1.28141,-7.06462,-27.1,2.8,-11.2,26.831919,-76.92202,13.193034,0.773199169486892,0.24997699,-0.58013302,-0.055859
9.8072,6023.3978,9.51724,-3.7638,2.71032,-2.04322,-0.36633,-7.73901,-32.1,-0.3,-12.4,31.918217,-75.322838,8.062622,0.7710509507072795,0.258421,-0.57068998,-0.11407
9.8231,6023.4178,8.94022,-2.96172,2.29611,-2.30651,-0.51355,-8.41585,-27.6,-6.9,-10.7,37.519089,-72.203224,2.204599,0.7685544366226891,0.27052701,-0.55281597,-0.174739
9.8392,6023.4378,7.49408,-2.56666,1.94894,-2.86911,-1.75544,-8.41585,-31.1,-10.2,-11.3,43.139896,-68.12487,-5.479095,0.7596896238604941,0.27931699,-0.53483403,-0.24250001
9.8642,6023.4578,5.36796,-1.2546,1.68557,-3.49342,-2.88493,-7.36699,-26.3,-14.5,-8.4,47.627766,-63.761944,-15.192085,0.7418452146979311,0.27597699,-0.52427202,-0.31407201
9.8793,6023.4778,4.52518,0.72786,1.51797,-4.12933,-2.90448,-6.31875,-25.4,-18.1,-8.3,50.054108,-59.229908,-26.16004,0.7199887103456413,0.25690401,-0.51938701,-0.381908
9.9047,6023.4978,4.83883,2.18118,1.68078,-4.77318,-2.18488,-5.98644,-24.0,-21.0,-7.6,50.735516,-53.735779,-38.081512,0.6987674364501251,0.228045,-0.51069802,-0.44599
9.9347,6023.5178,4.83404,3.39269,2.36315,-5.21606,-1.80187,-6.25705,-22.2,-23.2,-10.7,50.288624,-46.989731,-51.009869,0.6763485386915533,0.19630399,-0.49351001,-0.51035798
9.9467,6023.5378,2.91862,3.62972,4.70236,-4.96866,-1.71573,-6.3383,-22.3,-24.7,-11.0,49.212486,-39.661964,-64.491577,0.6479938096048136,0.16670699,-0.46985501,-0.57580298
9.9692,6023.5579,1.64247,3.91225,7.22592,-3.31077,-2.65586,-5.68223,-19.3,-26.6,-10.9,47.852127,-33.271538,-76.990807,0.6131892401427633,0.14124,-0.44668499,-0.63602102
9.9891,6023.5779,1.10137,3.74465,8.77262,-0.86059,-3.76763,-5.77264,-17.2,-28.5,-10.8,47.350708,-29.54438,-87.643715,0.5680364076651948,0.118452,-0.43733501,-0.68705302
10.0027,6023.5979,0.81405,4.03435,8.9905,0.50592,-3.18914,-5.99071,-17.3,-29.7,-12.3,48.998993,-26.911922,-97.248146,0.5125621227301329,0.107688,-0.44259799,-0.72786701
10.0201,6023.618,-0.41421,4.98727,8.87318,1.02332,-3.02848,-5.11901,-14.3,-31.0,-10.1,51.443024,-23.336916,-106.619347,0.45677772847167125,0.107841,-0.449689,-0.75993699
10.0463,6023.638,-2.03034,5.57627,8.73192,1.27439,-3.21846,-3.85024,-11.9,-31.5,-9.4,53.564018,-20.214022,-115.032364,0.4053069146874499,0.106091,-0.45833799,-0.78383499
10.0641,6023.658,-3.35917,5.61457,8.87797,1.74292,-3.69127,-2.95288,-12.0,-33.2,-7.9,55.401901,-18.32925,-121.854713,0.3600235953272501,0.099749,-0.46962401,-0.79992902
10.0796,6023.678,-3.81169,5.13093,9.31373,2.56637,-4.05596,-2.68166,-10.1,-32.9,-5.5,57.528336,-17.5762,-127.672562,0.31600671735274843,0.089484,-0.48588499,-0.80996799
10.1017,6023.6981,-3.11256,4.79573,9.69921,3.97136,-3.49335,-3.16913,-9.6,-33.6,-3.4,60.591286,-16.807062,-133.466995,0.2696736694962983,0.081203,-0.50830698,-0.81382197
10.1208,6023.7181,-2.40864,4.3504,9.56273,5.64207,-3.11767,-4.38108,-6.9,-34.6,1.2,65.293518,-13.427339,-141.045013,0.21937583982138853,0.085837,-0.53792202,-0.80941099
10.1444,6023.7381,-2.94975,3.54113,8.15011,6.45636,-3.74014,-5.45315,-3.7,-33.6,4.6,71.292969,-4.076481,-154.810196,0.15686069229006813,0.098792,-0.57470202,-0.79708999
10.1639,6023.7582,-4.05351,2.85637,6.57947,6.48201,-4.38888,-6.14221,1.4,-32.2,6.9,76.066536,18.048664,177.641312,0.08062478373415954,0.110997,-0.61090899,-0.779724
10.1825,6023.7782,-5.04234,2.22907,5.41824,6.66955,-4.73402,-6.49895,5.6,-29.2,13.2,76.061157,51.924015,137.394913,0.0060917755375234596,-0.120037,0.64133799,0.75778598
10.2557,6023.7982,-6.04794,1.34558,4.21392,7.19123,-3.76274,-6.77934,10.4,-25.8,13.3,70.922356,76.401077,106.008316,0.0986319139670253,-0.12795199,0.66723597,0.72711498
10.2627,6023.8182,-7.0679,0.68955,2.68877,7.5663,-2.3944,-6.74819,14.4,-21.2,18.0,62.973572,89.592072,86.727119,0.18725856329337603,-0.143098,0.69130701,0.68304598
10.2658,6023.8383,-7.89871,0.39027,0.36393,7.37388,-1.99918,-6.40855,19.3,-12.2,19.8,53.824863,96.767052,74.072289,0.26892118365833445,-0.161568,0.71321201,0.62682199
10.2667,6023.8583,-8.5715,0.08619,-1.69275,6.82532,-1.79209,-6.17947,21.4,-5.9,18.4,44.397259,100.221825,64.93071,0.3453606691762382,-0.176915,0.729451,0.56331903
10.2819,6023.8783,-8.81333,-0.40463,-2.6337,6.28776,-0.67971,-6.01576,22.4,-0.5,17.6,35.012524,102.035568,57.740391,0.4124791706413058,-0.192224,0.74056798,0.49443901
10.3003,6023.8984,-8.5739,-1.08221,-2.36794,5.80456,0.60433,-5.28822,22.7,6.1,20.4,25.995573,103.880501,51.817822,0.46293495682693914,-0.210501,0.75066799,0.421756
10.3207,6023.9184,-7.85801,-2.24822,-2.65286,5.41727,1.44916,-4.45011,20.5,10.3,19.2,17.96019,106.125282,46.729004,0.4954246619020695,-0.226988,0.76195699,0.34993199
10.3443,6023.9384,-6.62017,-3.75662,-3.69197,4.73433,1.51208,-4.22654,18.8,14.5,20.1,10.752788,108.567322,42.328838,0.5145351492561803,-0.240841,0.77356899,0.28078499
10.3599,6023.9584,-5.47331,-5.605,-4.17562,4.15217,0.50659,-5.67062,17.4,17.8,17.9,3.446753,110.071884,39.09507,0.531543611391784,-0.257835,0.777695,0.21487901
10.3805,6023.9785,-5.32966,-6.99128,-4.05351,4.27923,0.47666,-6.95344,16.0,22.9,18.2,-5.426426,110.470909,36.919708,0.5525730804143465,-0.28543201,0.76981199,0.143461
10.4198,6023.9985,-6.65608,-7.52281,-4.07266,4.6262,1.66479,-6.45986,11.7,26.6,14.4,-15.319098,111.083107,34.978748,0.5678661459443937,-0.31751499,0.75673902,0.063705
10.4221,6024.0185,-7.4031,-7.50845,-5.26501,4.62254,2.65501,-4.70118,9.6,30.0,15.2,-24.213818,112.633064,32.296383,0.5694136269821429,-0.33801401,0.74915397,-0.016822
10.4462,6024.0386,-6.65608,-7.35521,-6.91467,3.80703,2.93295,-4.22043,5.4,31.7,11.7,-31.194151,114.601509,29.353855,0.5606845202897078,-0.34587499,0.74728,-0.08704
10.4615,6024.0586,-5.9785,-7.3169,-8.00406,2.69282,2.68189,-4.55213,1.7,32.4,11.3,-37.431026,117.101814,27.59935,0.5451833649481612,-0.355308,0.74474001,-0.147965
10.4823,6024.0786,-5.78696,-7.22353,-8.17645,1.70627,3.41615,-4.6462,-2.1,33.1,7.2,-43.245605,120.969627,27.952709,0.521877729034569,-0.37155399,0.74119103,-0.20056701
10.4991,6024.0986,-6.00963,-7.10621,-7.87477,0.82662,4.06733,-3.54786,-6.7,33.2,6.2,-48.036991,126.995659,30.109558,0.4882196562238144,-0.38771799,0.74219602,-0.24588899
10.5309,6024.1186,-4.78855,-7.35521,-7.9466,-0.05058,5.16444,-2.09156,-7.5,33.3,6.5,-50.68182,134.414658,32.887962,0.44749823583339404,-0.394887,0.752186,-0.279331
10.5444,6024.1386,-2.0926,-7.76463,-8.50925,-0.73475,4.44973,-2.22473,-10.2,32.7,5.8,-51.398129,142.612015,35.771927,0.4010096343366576,-0.394416,0.76960599,-0.30221501
10.5639,6024.1586,-0.74701,-8.42306,-9.8716,-0.80805,4.5322,-3.55519,-12.8,31.2,5.4,-51.736095,151.256088,40.33437,0.35536585250741215,-0.402165,0.780864,-0.31973401
10.585,6024.1786,-1.20671,-8.54756,-11.56435,-1.27109,5.83762,-3.77877,-15.8,30.4,5.7,-52.010883,162.163467,47.062088,0.3006813839432032,-0.416805,0.786915,-0.34151
10.6068,6024.1986,-1.6736,-8.56432,-13.09429,-2.63943,6.89319,-2.93639,-18.4,29.4,5.0,-50.619408,174.284592,53.612396,0.2327891778760334,-0.426202,0.79624498,-0.36076999
10.6267,6024.2186,-1.17559,-9.05275,-13.58751,-3.98577,6.83882,-2.28398,-20.2,28.2,3.7,-46.804012,-174.899139,57.635956,0.15548362510579478,-0.42645401,0.81180602,-0.36733201
10.6522,6024.2386,-0.03831,-9.48372,-13.58272,-4.37612,6.28721,-2.78856,-22.3,26.4,2.8,-41.544724,-166.065231,59.692692,0.07683079753822415,-0.42457399,0.82640302,-0.36179
10.6683,6024.2586,0.30168,-9.17007,-13.64258,-3.97356,6.05936,-3.49533,-23.0,25.6,3.0,-35.801201,-157.461746,61.833141,0.004876205522713204,0.42796099,-0.831505,0.35415399
10.6975,6024.2786,0.65364,-8.9905,-14.07115,-4.06274,5.86694,-3.23205,-25.5,23.0,-0.3,-29.993654,-149.640778,63.451576,0.0838182808683099,0.43259001,-0.82856703,0.34542301
10.7118,6024.2986,1.76937,-9.21078,-13.71201,-4.72248,5.51386,-2.92967,-26.7,21.5,2.0,-23.99007,-142.734497,63.66922,0.16164256999528126,0.43249699,-0.82248998,0.33215699
10.7207,6024.3186,2.99045,-8.41827,-12.59628,-4.88558,3.92988,-3.60956,-28.4,18.5,-1.2,-17.512917,-137.235382,62.535423,0.23442678783799384,0.430237,-0.81544799,0.30819601
10.7419,6024.3386,3.54592,-6.87875,-12.39037,-4.20935,2.50351,-4.03778,-30.6,15.8,1.9,-10.647955,-133.433502,61.776344,0.2939996150328084,0.43804801,-0.80370998,0.275188
10.7729,6024.3586,4.43659,-6.37835,-12.36643,-4.48546,2.03009,-3.60101,-31.5,12.5,-0.2,-4.042084,-130.837326,61.173901,0.3415634984178775,0.44981301,-0.78981698,0.23914801
10.7838,6024.3787,6.13413,-6.29455,-11.06394,-4.94117,1.92441,-3.26442,-31.8,10.9,0.3,2.419629,-128.503693,59.636272,0.3862756866215886,0.45573601,-0.77673,0.19946501
10.8014,6024.3987,7.89632,-5.45655,-9.23711,-4.62474,1.26407,-3.53015,-32.1,8.1,1.2,8.68066,-126.391647,57.434204,0.4268009629294421,0.45755899,-0.76412803,0.156809
10.8247,6024.4187,8.42785,-3.92422,-9.0312,-3.93813,0.64343,-4.00235,-33.6,4.6,0.5,13.942265,-125.574631,55.89006,0.45156896774913563,0.462704,-0.75380099,0.117365
10.8455,6024.4388,7.84604,-2.90665,-9.94821,-4.08596,0.93115,-4.455,-33.8,2.1,2.6,18.692865,-125.632126,55.316826,0.4663341596836324,0.47316,-0.74299598,0.081296
10.8625,6024.4588,7.65689,-2.27696,-9.41668,-5.1006,1.07409,-4.16362,-34.8,-1.8,-1.2,23.937328,-125.003937,54.515522,0.4857720347838883,0.482539,-0.72753203,0.043345
10.8842,6024.4788,8.72713,-1.88908,-6.98889,-5.38405,0.33005,-4.05183,-34.7,-3.4,-0.9,29.378466,-123.868736,52.507458,0.507138001451991,0.48457,-0.71274298,0.000638
10.9018,6024.4988,9.31852,-0.73983,-4.74545,-4.59236,0.1303,-4.2412,-33.5,-5.6,0.8,34.671848,-122.914543,50.270733,0.5241036026354708,0.48507801,-0.69867402,-0.043236
10.9239,6024.5189,8.91867,0.17239,-4.62095,-3.65041,0.38442,-4.24975,-32.5,-10.2,-1.8,39.404324,-122.32486,48.845058,0.5355661235062388,0.48904401,-0.68368101,-0.081149
10.9523,6024.5389,7.58027,1.35995,-4.9753,-3.28633,1.28361,-4.56068,-33.2,-12.0,-3.0,43.702599,-121.361053,48.44759,0.5476307992859604,0.49825099,-0.66322201,-0.109467
10.9627,6024.5589,6.5244,2.51638,-5.02798,-3.81107,1.22558,-4.26197,-32.1,-14.5,-4.8,48.079758,-119.662689,48.052097,0.5625902283753417,0.50845802,-0.63779902,-0.13481501
10.985,6024.579,6.10301,3.0958,-4.80052,-4.31564,1.62142,-4.45194,-31.2,-17.8,-8.4,52.543419,-116.932167,46.256664,0.5794737820532341,0.51309699,-0.61193103,-0.162733
11.0058,6024.599,5.43261,3.41663,-3.69676,-4.63879,2.39417,-4.84717,-29.1,-18.7,-10.8,57.485428,-112.440063,43.329227,0.6006189341046942,0.51752502,-0.57858098,-0.19149099
11.023,6024.619,4.68081,3.98407,-1.63529,-4.51173,2.02765,-4.69018,-26.3,-21.7,-13.8,62.600853,-105.745384,38.697163,0.6238457479452906,0.52157801,-0.53888297,-0.21995001
11.0573,6024.639,4.11097,4.46053,0.3783,-3.70294,0.46383,-4.3145,-24.1,-22.5,-17.1,66.969963,-98.235687,32.331703,0.6404298626476125,0.52238899,-0.50510299,-0.248657
11.0676,6024.6591,3.02397,5.34642,1.15883,-2.85445,0.03073,-3.91255,-23.8,-23.5,-19.3,70.53019,-91.045959,25.122023,0.6479519001457591,0.521532,-0.48067299,-0.27769801
11.0826,6024.6791,2.25062,6.15329,0.7542,-2.53375,0.28607,-3.56802,-21.3,-23.1,-17.9,73.395119,-83.110977,17.16177,0.6524263559033149,0.52153897,-0.459194,-0.30245301
11.1014,6024.6991,1.12291,6.4813,0.09577,-2.64737,0.88961,-3.25587,-17.6,-23.6,-17.7,75.704948,-71.96566,6.431821,0.6581498061916747,0.52179003,-0.435334,-0.32412699
11.1318,6024.7192,-0.838,6.28018,-0.63927,-3.21303,1.67335,-2.47274,-15.9,-23.9,-21.6,77.001717,-56.083427,-8.271373,0.6678190456949845,0.52148199,-0.40657899,-0.34171301
11.1482,6024.7392,-2.79412,5.99048,-0.56265,-3.96745,2.50535,-1.05065,-14.1,-22.7,-22.3,76.201843,-37.856293,-24.363148,0.6853721014301498,0.51667798,-0.37268299,-0.352727
11.1712,6024.7592,-3.23945,5.5188,0.85954,-4.51173,2.34835,-0.03417,-13.6,-19.8,-27.5,73.11705,-24.454763,-34.708157,0.7116620959081489,0.50489002,-0.33601499,-0.35456601
11.1847,6024.7792,-2.66722,4.52757,3.10777,-4.57892,1.50841,-0.13496,-12.0,-18.3,-28.8,68.807404,-16.353624,-40.074707,0.7397182557651932,0.48521599,-0.30187401,-0.35532299
11.2009,6024.7993,-2.94496,4.13012,5.48768,-3.81901,0.8609,-0.40802,-11.0,-16.0,-30.3,64.330475,-10.747996,-43.825302,0.7632984206018899,0.46214399,-0.27135599,-0.36078301
11.2283,6024.8193,-3.97928,4.14688,7.02241,-2.84956,0.45528,0.09289,-10.8,-14.4,-32.2,60.56279,-6.604918,-46.666481,0.7801118730131981,0.442536,-0.245069,-0.36814201
11.2576,6024.8393,-4.12773,3.94816,8.87318,-2.20266,0.01851,0.97071,-10.8,-11.9,-30.8,57.336418,-4.322583,-47.651627,0.7947572201814338,0.425174,-0.22392599,-0.370736
11.2688,6024.8594,-3.19396,3.43339,10.82452,-1.6089,-1.36326,1.19062,-10.1,-10.3,-31.5,54.402859,-4.388992,-46.817844,0.8086471525306818,0.40565801,-0.212731,-0.36915699
11.2813,6024.8794,-2.50202,3.35677,12.26108,-0.74697,-2.3773,0.92978,-12.7,-9.3,-31.6,51.928818,-6.095869,-45.797062,0.8179857205799255,0.38414001,-0.21415,-0.37077701
11.3119,6024.8994,-1.95612,3.76141,13.10147,0.31044,-2.39624,0.72819,-14.7,-9.0,-30.5,50.338364,-8.459796,-45.080719,0.821616150340145,0.36614501,-0.224242,-0.37496701
11.3243,6024.9194,-1.91542,4.3073,13.12302,1.01721,-2.23191,0.74408,-15.6,-10.1,-30.3,49.785698,-10.724883,-44.466118,0.8210963082314521,0.355847,-0.237041,-0.37813401
11.3438,6024.9394,-2.17879,4.75742,12.63938,1.10823,-2.18427,1.1222,-16.2,-10.0,-28.9,49.728168,-13.12797,-43.434265,0.8195978773748378,0.34968501,-0.25091901,-0.37817901
11.3657,6024.9594,-1.55149,4.83883,12.37122,1.35258,-2.36264,1.53209,-17.6,-9.5,-27.9,49.596786,-16.098837,-41.678886,0.8191498212902814,0.34290501,-0.266541,-0.374654
11.383,6024.9794,0.06704,4.72151,12.16531,2.11738,-2.32599,1.35311,-18.6,-10.5,-27.7,49.728363,-19.695679,-39.236355,0.8179003135030575,0.33812401,-0.28526399,-0.36787999
11.402,6024.9994,1.26897,4.73827,11.52364,2.70259,-2.15739,0.83815,-19.5,-11.6,-25.8,50.669514,-23.261097,-36.719879,0.8130297179126971,0.34039199,-0.30495301,-0.36072099
11.4281,6025.0194,1.40544,4.92263,10.96338,3.01413,-2.844,0.90412,-19.8,-11.8,-25.2,52.128956,-26.865986,-34.29678,0.804785890521361,0.346834,-0.32541299,-0.355151
11.4426,6025.0394,1.37431,4.95615,10.31214,3.75511,-3.87392,0.99575,-20.6,-11.9,-22.5,53.721184,-32.075157,-30.995815,0.7928595347428192,0.352593,-0.35352999,-0.349383
11.4633,6025.0594,1.81007,4.95854,8.26264,4.54801,-4.62895,0.7734,-23.4,-13.7,-20.6,55.800079,-39.600224,-26.329134,0.7735642881899989,0.36051601,-0.39177001,-0.34371901
11.4924,6025.0794,3.20354,5.12375,5.31529,4.2884,-3.98571,-0.01828,-24.0,-15.3,-15.5,58.159954,-48.355633,-20.799913,0.7482447950594777,0.37149599,-0.43210199,-0.33971801
11.5062,6025.0994,3.74943,5.72711,3.44536,3.77649,-3.05292,-0.61082,-24.7,-15.8,-11.8,60.47776,-55.75156,-16.093758,0.7232040178303768,0.384242,-0.462277,-0.34005001
11.5233,6025.1194,3.3041,6.37835,2.99045,3.71052,-3.13905,-0.46238,-26.6,-16.8,-10.5,62.607342,-62.262905,-11.714284,0.7001423049283194,0.39734599,-0.48482099,-0.341856
11.546,6025.1394,2.82764,6.6082,2.60976,4.11796,-4.14698,-0.18077,-27.1,-17.3,-5.7,64.230247,-70.793365,-5.793084,0.6739825109119522,0.40801299,-0.51187301,-0.34243101
11.5626,6025.1594,1.91303,6.40229,1.43417,4.53335,-4.68515,-0.01523,-27.1,-18.2,0.3,65.279648,-82.557755,2.334868,0.6399442337118757,0.416565,-0.54716599,-0.34286201
11.5904,6025.1794,1.13489,6.19638,-0.2083,4.63659,-5.03945,0.03792,-27.7,-17.8,5.8,65.40226,-96.328323,11.871629,0.5998961558757645,0.42325601,-0.58634001,-0.34232199
11.6033,6025.1994,0.5435,5.64809,-1.95852,4.26701,-4.93194,-0.62793,-26.0,-17.4,8.2,64.786598,-110.461693,21.345831,0.5547046813707092,0.42868701,-0.625049,-0.34328401
11.6255,6025.2194,0.27774,5.32726,-2.43737,3.93715,-5.75172,-1.20092,-24.5,-15.6,12.5,64.143097,-124.113754,30.279724,0.5058096944813728,0.43569201,-0.65762299,-0.34908599
11.6439,6025.2394,0.05267,5.13093,-2.95932,4.43806,-6.64847,-1.69267,-21.7,-15.3,17.7,62.968628,-139.075409,39.09866,0.44467406868703163,0.43940601,-0.69182003,-0.361348
11.6614,6025.2594,-0.97686,5.09981,-3.91225,4.95057,-6.54768,-1.79407,-18.8,-14.2,21.7,60.251919,-154.744293,47.990646,0.3719159091686179,0.44346601,-0.72644001,-0.37054199
11.6934,6025.2793,-2.28653,4.80292,-4.92981,5.2108,-6.56784,-1.58638,-15.8,-13.0,25.4,55.933716,-168.266159,54.708862,0.2945437033973054,0.446284,-0.758322,-0.372857
11.7133,6025.2993,-3.08383,3.65606,-6.20596,5.27616,-6.62343,-1.72871,-11.0,-9.4,27.5,50.626862,-179.490234,58.766174,0.21329021867647616,0.445189,-0.78675097,-0.37059
11.7263,6025.3193,-3.44297,2.33681,-6.68003,5.31465,-6.1439,-2.62362,-6.6,-5.8,32.7,44.618084,170.810257,61.285641,0.12909843173919416,0.443856,-0.80890298,-0.36331999
11.7457,6025.3393,-4.24744,1.27854,-6.63932,5.59565,-6.52569,-3.16852,-3.5,-2.7,36.1,37.919743,162.040543,63.21759,0.04250436174981279,0.446417,-0.82214803,-0.35068199
11.7755,6025.3593,-5.48528,0.25858,-6.87636,6.00615,-6.40779,-3.68286,0.2,1.4,34.1,30.380932,153.833344,64.170517,0.049542559359805755,-0.44905999,0.82793599,0.332284
11.7871,6025.3793,-6.80213,-0.71349,-7.44619,6.02631,-6.44933,-4.03472,3.7,5.8,33.9,22.145796,146.334351,64.20472,0.14304874208583473,-0.45208201,0.825266,0.30674899
11.8034,6025.3993,-7.87716,-1.57304,-7.83167,5.683,-6.22148,-4.46722,6.9,10.7,32.8,13.705568,139.2491,63.603104,0.2348485321371182,-0.45517099,0.81290197,0.27722901
11.8283,6025.4193,-8.43503,-2.68638,-8.47334,5.15827,-5.59045,-4.96079,10.2,16.1,28.9,5.383086,132.525513,62.533749,0.3213893467042739,-0.458435,0.791394,0.245442
11.8479,6025.4394,-8.66967,-3.51001,-8.39193,4.39713,-4.85925,-5.53012,12.6,21.4,27.1,-2.844576,126.873962,61.482426,0.3955771034509188,-0.46660399,0.76284897,0.20942999
11.8632,6025.4594,-9.31852,-4.06308,-7.44141,3.92249,-4.79572,-5.61992,11.7,24.3,22.7,-10.790472,121.828217,60.748852,0.45908643921268194,-0.479359,0.72748798,0.17382701
11.885,6025.4794,-10.5827,-4.58743,-6.56271,3.64149,-3.90019,-4.87894,11.4,27.0,21.4,-18.275812,117.035439,59.655483,0.5146664099194344,-0.49074501,0.68918502,0.13896701
11.907,6025.4995,-10.92508,-5.25783,-6.28497,2.72886,-2.99244,-3.74029,10.4,29.7,17.4,-24.374874,113.017624,58.036678,0.5570675722118458,-0.497302,0.656331,0.107685
11.9295,6025.5195,-10.06553,-5.97611,-6.02878,1.399,-2.72305,-3.33589,9.7,30.5,18.3,-28.78224,109.868591,56.711338,0.5863357216797209,-0.50219798,0.62986898,0.08528
11.944,6025.5395,-9.32091,-6.59623,-5.42543,0.31044,-2.48298,-3.49777,9.5,31.6,18.0,-32.443996,107.562416,56.734356,0.6063014270706931,-0.51329499,0.60320097,0.071242
11.9679,6025.5595,-8.77741,-6.78059,-4.19716,-0.23017,-2.40296,-3.30535,8.4,32.3,16.7,-35.885002,106.26091,57.975876,0.618740972501288,-0.530527,0.57617098,0.061055
11.9859,6025.5796,-8.28658,-6.68003,-2.96651,-0.1752,-2.16961,-3.04451,6.4,32.0,15.2,-38.975227,105.276215,59.644711,0.6281876252468843,-0.54826599,0.54938,0.054464
12.0064,6025.5996,-7.46295,-6.71115,-1.72627,0.17422,-1.75849,-2.7684,6.2,32.4,13.3,-41.813866,104.389908,60.880463,0.6365344017642872,-0.56253099,0.52552003,0.047027
12.0261,6025.6196,-6.30413,-6.91706,-1.64966,0.52363,-1.21543,-2.49046,5.1,32.9,14.9,-44.476681,103.416481,61.352806,0.6448563078208804,-0.57234597,0.50517303,0.037157
12.0465,6025.6397,-5.35599,-6.49327,-1.87472,0.52119,-0.30952,-2.32369,3.6,33.3,16.4,-46.980267,102.820107,61.279381,0.6509655457185881,-0.57924497,0.490069,0.023484
12.0679,6025.6597,-4.63532,-6.03118,-2.08062,0.01906,0.09426,-2.10561,3.4,33.5,15.8,-49.257595,103.121643,61.408638,0.6525756297762422,-0.58631903,0.479909,0.007899
12.0927,6025.6797,-3.87394,-6.09822,-2.36075,-0.49468,1.3111,-1.90403,2.5,33.3,16.1,-51.176441,104.7061,62.444534,0.648364945081595,-0.59577101,0.47395399,-0.006886
12.1069,6025.6997,-2.77018,-6.51243,-2.3847,-0.77323,2.40516,-1.83561,0.5,33.3,14.7,-52.739731,108.53952,64.277184,0.6348388437241215,-0.60653698,0.47787499,-0.026982
12.1238,6025.7198,-2.53554,-6.55552,-1.75021,-0.5466,2.99892,-2.13921,-0.1,33.2,16.0,-54.404198,113.820839,66.63327,0.6161281688496799,-0.61784101,0.48560601,-0.053342
12.1465,6025.7398,-3.13411,-6.64172,-2.69835,-0.72436,3.14126,-1.58271,-2.0,33.3,15.9,-56.187588,119.548225,69.01284,0.5964701630628301,-0.62716597,0.49383801,-0.083727
12.1621,6025.7598,-3.00242,-8.09983,-3.28734,-1.72679,3.47784,-0.79592,-3.2,32.6,16.7,-56.885311,125.937332,71.765526,0.5724447192048677,-0.63445699,0.50771999,-0.109507
12.232,6025.7799,-2.13569,-8.73192,-3.0934,-2.15318,3.51449,-0.98956,-5.7,32.2,15.8,-56.201141,133.323303,75.378166,0.5409539204682781,-0.642847,0.52686,-0.128589
12.2374,6025.7999,-2.09499,-7.97054,-4.12534,-1.96503,3.43142,-1.14961,-6.2,32.1,18.3,-55.431053,140.832062,79.288086,0.5080550706070747,-0.65218002,0.542781,-0.14808799
12.2381,6025.8199,-3.25621,-7.46535,-6.74946,-2.73106,4.61283,0.03242,-9.4,30.6,17.3,-54.304844,147.956772,82.555077,0.47393242573063044,-0.65886199,0.55963302,-0.16763
12.2482,6025.8399,-4.1828,-8.9091,-8.35841,-4.50134,5.93535,1.45696,-10.0,29.2,18.4,-51.004158,155.183853,83.967499,0.42543394132739276,-0.65841198,0.59335601,-0.182834
12.2627,6025.86,-3.58423,-10.54439,-8.60023,-5.99124,5.76553,1.21811,-11.9,28.3,19.0,-45.314125,162.130478,83.851852,0.36090248029468863,-0.65363503,0.63828403,-0.187361
12.2809,6025.88,-3.52198,-10.32411,-8.17884,-5.9381,5.75637,0.83876,-13.7,26.6,21.2,-38.706619,168.559753,83.688583,0.29002982295205193,-0.65088397,0.67733002,-0.18291201
12.3019,6025.9,-3.54353,-9.39992,-8.64573,-5.33395,6.50346,1.06173,-15.8,24.3,19.4,-32.749668,174.748489,82.812668,0.21923530784843914,-0.64358801,0.710316,-0.18215799
12.3286,6025.9201,-2.68398,-8.92586,-10.00567,-5.68031,6.64335,1.40442,-17.9,23.5,21.1,-27.451393,-179.026932,80.609406,0.1471878929161619,-0.62682098,0.74211299,-0.186278
12.3478,6025.9401,-2.22907,-8.45418,-11.6242,-6.24903,5.56578,0.61457,-20.1,20.4,20.1,-21.891178,-173.428802,77.68428,0.07506996883321236,-0.60627902,0.770275,-0.18293899
12.3628,6025.9601,-2.65525,-7.67126,-12.95782,-6.51048,5.06731,-0.37136,-22.4,17.7,20.1,-15.911595,-168.636734,75.373962,0.006661999333514611,-0.591645,0.78827202,-0.168935
12.3859,6025.9801,-2.93059,-6.41426,-14.0951,-6.75116,4.65803,-0.62793,-23.9,15.2,19.8,-9.613444,-164.184799,73.549675,0.06013589684105592,0.58165997,-0.79748797,0.148554
12.4039,6026.0002,-2.35597,-5.63612,-14.86845,-7.12196,4.96408,-0.25774,-25.1,12.5,20.2,-2.649115,-159.557449,71.258362,0.1309501810099502,0.56980503,-0.80207902,0.121834
12.4225,6026.0202,-1.16601,-5.34163,-14.65536,-7.68273,5.36481,-0.06715,-27.8,8.9,17.5,4.955462,-153.754929,67.793793,0.21175511862885305,0.550776,-0.80213702,0.091552
12.4451,6026.0402,-0.11732,-4.8532,-13.30738,-7.70655,5.22003,-0.28096,-29.2,6.9,14.5,12.727417,-146.959564,63.105961,0.29642839066108273,0.52545202,-0.795452,0.057328
12.4656,6026.0602,1.24023,-3.99604,-11.76068,-7.09386,4.32267,-0.77026,-30.7,4.4,12.1,19.710901,-140.026321,57.851402,0.3725515978616103,0.499042,-0.78209603,0.022095
12.4842,6026.0802,2.65046,-2.90426,-10.61382,-6.045,3.6556,-1.94251,-33.4,0.6,8.4,24.880919,-135.253174,53.572254,0.4215952554843328,0.48015299,-0.76915801,-0.01032
12.5077,6026.1002,3.11256,-1.85077,-9.5364,-5.31746,3.66049,-2.81299,-34.0,-1.5,5.6,29.548887,-131.581497,50.946236,0.4580003310415396,0.47370201,-0.75119001,-0.039442
12.5219,6026.1202,3.15565,-1.07503,-8.06871,-4.6223,4.19194,-2.77756,-34.0,-3.8,5.8,34.0746,-127.994537,49.264301,0.4907867303745483,0.47492501,-0.72759402,-0.064665
12.5457,6026.1402,3.74465,-0.20351,-6.32089,-3.82206,5.12168,-2.08728,-33.7,-5.2,2.1,37.686623,-123.641808,47.738697,0.5239008373588266,0.47705099,-0.70116299,-0.079503
12.57,6026.1603,5.15487,1.14686,-4.2235,-2.94181,5.90114,-1.86004,-32.8,-7.2,-5.2,40.05151,-118.075508,46.296623,0.5598883474846031,0.47870901,-0.67153901,-0.079988
12.5827,6026.1803,7.11578,2.62891,-2.47807,-2.16112,4.87367,-2.48496,-31.3,-9.1,-8.4,41.817902,-112.350761,45.68536,0.5943097761320604,0.484341,-0.63805699,-0.071365
12.6016,6026.2003,8.60263,3.67761,-1.47248,-1.74146,2.88042,-3.75617,-30.7,-11.6,-9.4,44.145466,-108.417816,45.919605,0.6179377986667264,0.495588,-0.60642302,-0.069257
12.6229,6026.2204,8.17166,4.1804,-1.76697,-1.61562,1.68984,-4.55152,-28.6,-13.3,-11.9,47.680611,-106.597847,46.563759,0.6302224906175277,0.51175201,-0.57815999,-0.081612
12.6458,6026.2404,7.12297,4.28815,-2.47568,-1.67609,2.47663,-4.74516,-26.2,-15.6,-11.6,51.907524,-105.177284,47.183201,0.6397289527325452,0.52949101,-0.54808497,-0.099945
12.6642,6026.2604,5.46134,4.19716,-2.54033,-1.86302,3.44486,-4.35298,-24.1,-17.2,-14.1,56.201904,-102.192482,47.296734,0.6544952172118448,0.54632801,-0.51016301,-0.113558
12.6819,6026.2804,4.04154,4.69757,-1.85077,-2.17761,3.78328,-3.85391,-24.0,-19.7,-19.4,60.00983,-97.266129,46.185452,0.6736521952523721,0.55891699,-0.468211,-0.12076
12.7038,6026.3005,3.08861,5.62894,-0.82124,-2.36576,3.76251,-3.6059,-20.6,-18.4,-22.5,63.330681,-90.519463,43.405979,0.6945247620522251,0.56688499,-0.42506,-0.124903
12.7284,6026.3205,2.46131,6.23469,0.13887,-2.49282,3.11926,-3.48556,-18.0,-17.9,-24.1,66.323418,-82.221207,38.753204,0.7143301991412795,0.57141,-0.38251099,-0.130032
12.7447,6026.3406,1.68318,6.66327,1.43417,-2.44578,2.78879,-3.47822,-15.4,-18.2,-24.1,68.987747,-72.248001,31.675037,0.7315739508492081,0.57267898,-0.34260201,-0.139507
12.7634,6026.3606,0.90743,6.95297,2.87792,-2.16723,2.51817,-3.12759,-12.6,-17.5,-27.2,71.119331,-60.140663,22.211718,0.7469642626789578,0.57237297,-0.30304301,-0.150328
12.784,6026.3807,0.48125,7.1086,4.01759,-1.82392,2.57926,-2.54177,-10.8,-17.0,-28.2,72.283829,-46.968208,11.541486,0.7605454202618407,0.570553,-0.26578701,-0.159365
12.8066,6026.4007,0.22027,7.16128,5.26501,-1.35294,3.42286,-2.14593,-9.0,-16.4,-29.4,72.462639,-33.779125,1.346384,0.7738076476618722,0.568268,-0.22769,-0.162636
12.824,6026.4208,-0.38308,6.87157,6.30891,-0.7262,4.0936,-1.86982,-4.5,-15.8,-30.9,72.126175,-21.24984,-7.095774,0.7862702678445115,0.56825101,-0.18456499,-0.157498
12.8476,6026.4409,-1.36474,6.4382,6.59623,-0.45803,4.27258,-1.67739,-2.2,-15.0,-31.2,71.520699,-9.865215,-13.690717,0.796709305284192,0.569767,-0.13867299,-0.14625201
12.8707,6026.4609,-2.93059,6.28018,6.11258,-0.64251,4.33428,-1.46665,0.9,-14.7,-30.0,70.498138,0.543696,-19.159109,0.8057093588500384,0.56972301,-0.092223,-0.133203
12.8885,6026.481,-4.55391,6.26342,5.78696,-0.93206,4.22249,-0.99384,3.9,-13.3,-30.1,68.84005,9.605834,-23.164186,0.8147823692137673,0.56567001,-0.045427,-0.118674
12.9042,6026.5011,-5.80133,6.3137,5.67922,-0.82821,3.55787,-0.63159,5.7,-13.0,-30.1,66.837471,16.405416,-25.142584,0.8234256632374292,0.557971,-0.002416,-0.103115
12.9294,6026.5211,-6.73031,6.39511,5.49007,-0.64007,2.69105,-0.31455,7.7,-12.8,-30.4,65.030029,21.659943,-26.272478,0.8295113202921585,0.55014199,0.034311,-0.089875
12.9435,6026.5412,-6.84284,6.4813,5.42543,-0.51423,1.77658,0.19857,8.7,-12.0,-29.0,63.518383,25.144941,-26.589794,0.8339851832496543,0.54252398,0.061982,-0.079339
12.9675,6026.5612,-6.24666,6.61299,5.39191,-0.389,1.16083,0.29509,9.8,-12.1,-30.5,62.338333,27.01096,-26.17981,0.8377386374076342,0.53543502,0.080656,-0.070696
12.9857,6026.5813,-5.59303,6.75904,5.61936,-0.2485,1.16389,0.16192,8.7,-12.2,-28.8,61.331921,28.553974,-25.930548,0.8405575819333141,0.52927101,0.095818,-0.064452
13.0034,6026.6014,-5.22431,6.8572,5.76063,0.00195,0.82119,4e-05,10.7,-11.2,-28.2,60.440514,30.318943,-26.145489,0.8421839490049902,0.52433199,0.110226,-0.060435
13.0263,6026.6214,-5.05192,7.06551,5.67443,0.20904,0.38503,-0.07326,11.3,-11.0,-29.7,59.749588,32.014294,-26.716715,0.8426790175633896,0.52108502,0.122023,-0.058931
13.0499,6026.6415,-4.8077,7.28338,5.4781,0.23714,-0.42803,-0.10442,10.9,-12.1,-30.6,59.213596,33.248253,-27.521847,0.8428043239780866,0.51897502,0.12899201,-0.060884
13.0695,6026.6616,-4.348,7.57788,5.37754,0.21454,-2.24352,-0.22231,9.2,-11.9,-30.1,58.710403,33.20742,-28.37451,0.8441122134983712,0.51649702,0.126323,-0.068905
13.0856,6026.6817,-4.099,7.89871,5.64091,0.35259,-4.58802,-0.48499,7.4,-12.5,-31.9,58.202801,31.23563,-29.53631,0.8470778601820493,0.51288998,0.108063,-0.087894
13.1094,6026.7017,-4.36237,7.91787,6.33765,0.78692,-6.83723,-0.59555,5.8,-12.4,-31.5,57.861446,27.17515,-31.408789,0.8497150539010705,0.50831503,0.070663,-0.120859
13.1244,6026.7218,-4.25702,7.86759,6.89072,1.42527,-7.74436,-0.56806,4.0,-13.0,-31.8,58.119457,21.464874,-33.860847,0.8479416161890038,0.50394499,0.016752,-0.16356599
13.1521,6026.7419,-4.12055,7.89632,6.3975,1.68733,-6.75476,-0.51553,2.1,-13.1,-31.0,59.105419,15.749709,-36.632618,0.8392780814848553,0.50127602,-0.040394,-0.20664699
13.1695,6026.7619,-4.15167,7.80294,5.2291,1.21697,-4.63445,-0.20032,-1.1,-14.1,-30.7,60.306061,11.49341,-39.141079,0.8274862277989888,0.499917,-0.085833,-0.240795
13.1888,6026.782,-4.16364,7.63055,4.67362,0.36908,-2.92464,0.13626,-4.3,-14.5,-29.2,60.991245,8.81777,-40.714626,0.8190294954468978,0.497412,-0.113912,-0.26229
13.2076,6026.802,-4.28575,7.56351,5.15487,-0.03775,-2.18793,0.61335,-7.4,-14.9,-29.4,60.91938,6.992602,-41.401623,0.8157619982026129,0.49190399,-0.12968799,-0.27521601
13.2299,6026.8221,-4.42941,7.53718,5.47092,0.09114,-1.85929,1.29019,-8.9,-15.1,-28.8,60.677578,4.748026,-40.906395,0.8152615045552684,0.485356,-0.14286099,-0.28172499
13.2522,6026.8422,-4.27139,7.36718,5.12854,0.17666,-1.65587,1.96397,-10.9,-15.2,-28.8,60.646484,1.658811,-39.018539,0.8159877506335127,0.48001501,-0.15681399,-0.28135201
13.2644,6026.8622,-3.34241,6.99128,4.78855,-0.08357,-2.06637,2.32438,-12.5,-14.3,-26.7,60.55648,-2.434832,-35.897961,0.8180700722749977,0.47389901,-0.1728,-0.276263
13.2931,6026.8823,-3.0934,6.79256,4.63053,-0.29248,-2.58011,2.55773,-14.6,-13.9,-27.6,60.030293,-7.455368,-32.382183,0.8207209163423823,0.46367499,-0.193253,-0.27216899
13.3081,6026.9024,-3.93619,6.50046,3.95534,-0.35052,-2.23253,3.35614,-16.9,-12.5,-30.0,59.143417,-13.151293,-28.449249,0.8236388095197189,0.45076099,-0.217015,-0.26709199
13.3288,6026.9224,-5.01361,5.61936,3.15805,-0.84226,-1.11647,4.72936,-19.7,-10.4,-28.5,57.67997,-19.174171,-23.153316,0.8300428826550348,0.436676,-0.238371,-0.25203601
13.3514,6026.9424,-5.07826,4.04393,3.45494,-1.56919,-0.61923,6.41596,-20.1,-6.9,-25.9,54.823997,-24.928316,-16.456263,0.8436524738239318,0.41748801,-0.253959,-0.222394
13.3713,6026.9625,-3.67761,1.61374,4.33603,-1.69625,-1.18672,7.73421,-21.0,-3.1,-26.5,50.252274,-30.581709,-9.019287,0.8618158816648716,0.38953999,-0.27023,-0.180299
13.3932,6026.9825,-1.0032,-1.11813,5.20755,-1.22955,-2.23986,8.78306,-22.0,0.4,-26.5,44.422325,-36.541538,-1.392625,0.8776179544948929,0.35541001,-0.294586,-0.129188
13.4092,6027.0025,3.08383,-2.81806,5.80851,-0.80256,-2.56911,8.82582,-22.5,3.9,-24.5,37.535904,-42.295052,5.837772,0.8878296392180203,0.317074,-0.325865,-0.070955
13.424,6027.0226,7.32169,-3.10298,6.36877,-0.69688,-1.73223,7.8069,-22.2,8.3,-23.5,29.874804,-48.366817,12.823496,0.8876912875933614,0.27787301,-0.36708099,-0.006505
13.4495,6027.0426,10.11102,-2.54272,6.98649,-0.54049,-0.5838,6.40557,-21.7,11.1,-24.0,22.334295,-51.493408,17.768471,0.8860600760162937,0.238169,-0.394115,0.053352
13.4793,6027.0626,11.18366,-1.85556,7.07029,-0.23812,-0.05296,5.44591,-20.2,14.4,-22.4,15.553165,-52.469311,21.501104,0.8843002136004943,0.200941,-0.40765601,0.107016
13.487,6027.0826,11.85405,-1.31206,6.72312,-0.21429,0.00446,4.73425,-18.1,17.0,-22.7,9.841712,-52.911385,24.821808,0.8793481080042874,0.170398,-0.41698599,0.154383
13.5044,6027.1027,12.0432,-1.07264,6.1485,-0.26377,-0.02425,3.87232,-16.6,19.4,-22.0,5.027537,-53.211929,27.546284,0.8722390909958689,0.144609,-0.42522001,0.19358499
13.5261,6027.1227,12.03841,-0.85476,5.51162,-0.44153,0.09915,3.18998,-15.5,20.5,-21.9,1.159143,-53.381207,29.672962,0.8647772848524525,0.123746,-0.43186101,0.224373
13.5493,6027.1427,12.39516,-0.5866,5.59063,-0.67366,-0.26065,2.2578,-15.1,21.7,-21.6,-2.054829,-53.457455,31.013483,0.8583399670230555,0.104795,-0.43760699,0.246517
13.5664,6027.1628,12.69923,-0.41421,6.09822,-0.40977,-0.35411,1.01102,-14.2,22.7,-20.1,-4.294423,-54.005157,31.626608,0.8520288424572962,0.091519,-0.445638,0.25899401
13.5901,6027.1828,12.61304,-0.50519,6.76861,-0.12938,-0.34862,-0.10503,-13.7,22.9,-19.7,-5.134643,-54.611683,31.621674,0.8484958017835327,0.086568,-0.45178601,0.26163
13.611,6027.2028,12.0001,-0.7542,7.03917,0.24813,-0.3981,-0.66825,-14.3,22.6,-19.8,-4.833167,-55.265636,31.191967,0.8473022614998498,0.088604,-0.45637301,0.25681099
13.6257,6027.2228,12.27784,-0.57702,6.80453,0.65314,-0.56547,-1.05065,-15.8,21.3,-20.4,-3.879528,-55.878941,30.894924,0.8468163633868797,0.095903,-0.459319,0.25046101
13.6614,6027.2429,13.45343,-0.3783,6.42863,0.9659,-1.21421,-2.13127,-16.9,20.6,-20.7,-2.195948,-56.794098,30.650316,0.8458287276783876,0.109414,-0.46303901,0.24124099
13.6755,6027.2629,13.80778,-0.45491,6.08146,1.2078,-1.80981,-3.59307,-18.5,19.6,-20.2,0.821148,-58.476067,29.919815,0.8439046096460546,0.13212501,-0.470258,0.22186799
13.6897,6027.2829,13.28344,-0.85236,5.45416,1.32875,-1.99123,-4.56373,-20.3,17.8,-21.3,5.290228,-60.585472,28.770365,0.841279927246098,0.163783,-0.478183,0.19174001
13.708,6027.3029,12.88838,-1.01757,5.02558,1.13205,-2.31011,-5.31449,-22.0,16.2,-17.9,10.590492,-62.808117,27.40074,0.8370798923773285,0.199414,-0.48542801,0.154567
13.7255,6027.3229,12.03602,-0.96489,4.90108,0.92803,-2.56056,-5.85877,-23.3,14.0,-19.1,16.376663,-65.201317,25.568426,0.8301669161793066,0.235019,-0.49351701,0.109681
13.753,6027.3429,10.84606,-0.77335,4.57546,0.56456,-1.82141,-5.47026,-25.5,10.2,-18.9,21.959764,-67.283035,23.579657,0.8215975281006874,0.26634201,-0.499982,0.063698
13.7735,6027.3629,10.12778,0.30886,4.36237,0.22309,-1.17817,-5.06831,-27.6,6.3,-17.7,26.663998,-68.237518,21.523909,0.8155486435799889,0.28946099,-0.50054699,0.023355
13.7864,6027.3829,9.94103,0.98884,4.41983,0.01539,-1.48605,-5.33159,-27.3,3.4,-15.0,30.865967,-68.440681,19.165453,0.8108566996629676,0.30721599,-0.497904,-0.014878
13.8062,6027.403,9.30894,1.2139,4.099,-0.14954,-1.24781,-5.96994,-28.9,0.0,-14.2,35.338284,-68.504753,16.220516,0.8037969122380353,0.324029,-0.49553001,-0.058015
13.8288,6027.423,8.07828,1.5491,3.18199,-0.52522,-0.3755,-5.82639,-29.6,-3.7,-15.5,40.130089,-67.389778,12.578274,0.7976507626282819,0.34081599,-0.48669201,-0.103579
13.8476,6027.443,7.55394,1.97767,2.54511,-2.02795,-1.21238,-5.50691,-28.7,-7.9,-14.5,44.144688,-64.737389,7.54205,0.7942548288689719,0.349332,-0.47418001,-0.14926399
13.8679,6027.4631,7.59943,1.98964,2.83003,-3.16844,-2.90203,-5.60587,-29.2,-10.3,-12.7,46.922882,-61.521454,0.188158,0.7886028685872503,0.34288901,-0.46860901,-0.202332
13.8865,6027.4831,6.92903,1.88429,2.89468,-3.65469,-3.35163,-6.28698,-28.3,-13.3,-12.6,49.102329,-58.247452,-9.484742,0.7751519234042575,0.325131,-0.47118899,-0.26722699
13.9115,6027.5031,5.13811,2.4661,2.8444,-3.23624,-1.7872,-6.88319,-27.5,-16.3,-11.3,51.305775,-53.414032,-20.732098,0.7571118655881571,0.30752301,-0.46810499,-0.33628699
13.9284,6027.5231,3.14847,3.18439,3.50761,-2.31689,-0.3028,-6.85997,-26.0,-19.0,-10.3,53.593445,-45.941109,-32.728432,0.7389700629356643,0.30011901,-0.45118299,-0.40035701
13.9475,6027.5432,1.63529,4.04393,4.25463,-1.33951,0.15474,-6.03836,-23.4,-21.4,-13.0,55.511837,-37.248497,-44.333229,0.7205023614495234,0.30206999,-0.42823699,-0.45414001
13.9676,6027.5632,1.12291,4.69996,4.50363,-0.90579,-0.67054,-5.26623,-22.5,-24.0,-15.9,56.841591,-29.182383,-54.622307,0.7012221304267,0.307594,-0.40819201,-0.497044
13.9887,6027.5832,1.15643,5.05192,4.32645,-1.1031,-1.41274,-5.21247,-19.2,-24.9,-13.4,57.498459,-22.392284,-64.403442,0.6779838776302278,0.30852801,-0.395484,-0.53734601
14.0096,6027.6033,0.82363,5.47571,4.32885,-1.38349,-1.38526,-5.40917,-16.6,-26.3,-11.9,57.433647,-15.531795,-74.99585,0.6498894756334032,0.305567,-0.38382301,-0.58047599
14.0282,6027.6233,-0.39506,6.17483,4.59461,-1.70053,-0.85197,-5.47698,-15.3,-27.7,-16.3,56.540932,-8.071404,-86.27581,0.6182849268849755,0.30237699,-0.36827901,-0.62502998
14.0559,6027.6433,-2.25062,6.47412,4.7694,-1.85874,0.33005,-5.03532,-12.5,-28.4,-15.0,54.698635,-0.273767,-96.921989,0.5881828144040251,0.30306199,-0.345281,-0.665564
14.0719,6027.6633,-3.11495,6.21793,5.3129,-1.72191,0.89633,-3.7861,-11.4,-28.4,-17.8,52.211456,7.057583,-105.484673,0.5641654691491138,0.30987999,-0.31610399,-0.69697201
14.0843,6027.6834,-2.84679,5.54993,6.15329,-1.36516,0.58356,-3.52893,-8.3,-28.4,-18.9,49.628757,12.607965,-111.494934,0.5458765669589223,0.31716499,-0.28870001,-0.71977597
14.1067,6027.7034,-3.07425,5.45895,7.26662,-0.31325,0.98185,-4.00051,-5.7,-27.9,-18.0,47.221161,17.532431,-117.161797,0.5241669536784053,0.325519,-0.26500499,-0.74098498
14.1305,6027.7234,-4.45814,5.97372,7.50126,1.06486,0.88777,-3.89361,-2.7,-28.9,-19.1,45.596954,23.111996,-123.468361,0.49608454081065645,0.34243599,-0.246914,-0.75872999
14.1485,6027.7435,-5.86118,5.99287,6.95537,1.90297,0.66359,-3.45501,-0.4,-28.7,-18.2,44.957016,28.489046,-129.867493,0.4646591936002123,0.362955,-0.239353,-0.77140498
14.166,6027.7635,-6.90988,5.58584,6.36877,1.99948,0.56402,-3.13064,0.5,-28.2,-15.2,44.665291,33.562931,-136.091995,0.43284698687566203,0.38371101,-0.237574,-0.78036398
14.1937,6027.7836,-7.60422,4.88193,5.94977,2.0227,0.22437,-2.7629,2.1,-29.4,-14.6,44.179276,38.149208,-141.929688,0.40179155721281523,0.40216899,-0.237214,-0.78775197
14.2266,6027.8036,-8.1142,4.37913,5.65528,1.86693,0.05822,-2.07568,3.5,-29.8,-14.6,43.578983,41.977516,-147.175903,0.37249072902892344,0.41696301,-0.23847599,-0.79405397
14.2281,6027.8237,-8.54756,4.02238,5.27698,1.62136,-0.02913,-1.24735,4.2,-29.2,-13.5,43.094067,44.909203,-151.307419,0.3488977452165027,0.42828301,-0.24080899,-0.79803199
14.2478,6027.8438,-9.16768,3.77817,4.66884,1.24079,0.19505,-0.46788,5.3,-29.9,-9.7,42.860641,47.035984,-154.315216,0.33186737144787143,0.43662199,-0.244078,-0.79978198
14.2649,6027.8638,-9.98652,3.74943,4.36476,0.78814,0.29768,0.46858,5.3,-30.2,-11.5,42.812962,48.674931,-156.221771,0.3219492453265885,0.44396099,-0.246369,-0.79909301
14.2867,6027.8839,-10.63058,3.93379,4.28336,0.53585,0.1132,1.76727,4.4,-29.9,-11.2,43.260406,49.458267,-156.650665,0.32186848897051074,0.44857699,-0.24919499,-0.79566401
14.3098,6027.9039,-11.26506,4.08942,4.33364,0.48515,-0.21117,3.19365,3.2,-30.0,-12.2,44.596664,49.028915,-155.547791,0.33213612612529736,0.44829699,-0.25609899,-0.78938502
14.3273,6027.924,-12.02405,4.06787,4.13252,0.91459,-0.02669,5.16613,1.2,-31.7,-12.3,47.205498,47.280445,-152.8909,0.35282611003750786,0.443178,-0.27045801,-0.77843398
14.3493,6027.944,-11.78701,3.62014,3.34241,0.9433,0.52126,6.857,-1.6,-32.3,-9.6,51.478912,44.337933,-148.176453,0.386291836637405,0.43713501,-0.29358101,-0.75729901
14.3779,6027.9641,-10.85325,2.94256,2.60737,0.04594,0.72284,7.98527,-4.6,-31.9,-9.2,56.308571,39.054569,-140.093857,0.4318194164781846,0.42877299,-0.31744501,-0.727265
14.3919,6027.9841,-9.80455,2.35118,1.98725,-0.62846,1.04904,8.58148,-10.0,-30.4,-11.5,60.199619,30.165138,-127.838097,0.48446444717945986,0.41508701,-0.335953,-0.69291598
