AppTimestamp(s),SensorTimestamp(s),acc_x,acc_y,acc_z,gyro_x,gyro_y,gyro_z,mag_x,mag_y,mag_z
40.0108,67877.4124,0.16345139564991082,-0.15306385048150445,0.08302752047418191,0.03869224022467031,-0.014382673220424962,0.03510505423994287,0.38378672089495763,0.37411330519804237,0.022775860181562607
40.0226,67877.4325,0.16096098284796223,-0.16149197982809596,0.08817046918470112,-0.008856151774901878,0.0006941107787194233,0.022154185446762894,0.6275056242759852,0.3666754984359876,-0.2553352240371723
40.0427,67877.4525,0.15767917416276034,-0.15998401100723475,0.08918577553117532,-0.049187947433784095,0.0031677020964838423,-0.008251000047209201,0.5423537133600531,0.47697932026784945,-0.5529628755694982
40.0641,67877.4724,0.15420132461667932,-0.15189240334247317,0.08303311662952012,-0.021812023483891465,-0.004554145803301405,0.007780233620299915,0.31826535435421116,0.6251560382795363,-0.49441317362871456
40.0818,67877.4925,0.1467305309221265,-0.14330144325412367,0.06849853836347061,0.033513418554302316,0.011854970120311021,0.025248103492837577,-0.11596803445755409,0.6536228159030599,-0.3838192921850076
40.1101,67877.5125,0.13005227374334832,-0.14501665155894966,0.0468542774422711,0.07278275286911641,0.024946301490682856,0.020967469728722328,-0.6790274226019232,0.3997415921918027,0.0097648153058338
40.1261,67877.5324,0.10398814727843712,-0.14502914623126656,0.020839468543389007,0.050247110351906446,0.011987586525102779,-0.045615197105652594,-0.574939063596082,0.1915648741801203,-0.04878488663495191
40.1417,67877.5525,0.07206625216494303,-0.14708957852059906,-0.006118100609244791,0.03421625487128329,0.009829297486349094,-0.08148420825712666,-1.1095419080326585,0.3007705630532725,-0.15775238746919248
40.1606,67877.5725,0.04194098780688772,-0.14620666121785067,-0.03173231875046639,-0.07842844070005606,0.003608688629027788,-0.021754025057302975,-0.9553879152338666,0.2924625774556893,-0.5919960101966899
40.1836,67877.5924,0.02123087403200552,-0.14059834888535136,-0.05485733217435079,-0.07110793037725786,-0.009192332016568616,0.08186485207927297,-0.6626496394456703,0.5469860258792966,-0.4846548899719169
40.2034,67877.6134,0.005302193940330727,-0.14266756698304536,-0.0742942448904852,0.0006584164208200777,0.015864974387275518,0.08280923708650306,-0.5172076689178949,0.4961020848237479,-0.29111559744542764
40.2235,67877.6334,-0.006970567279158776,-0.15167803975273497,-0.08788766216215689,0.04797015950613508,0.011661488216645498,-0.02599969163831471,0.025527078566014917,0.37063258985592895,-0.6017542938534877
40.2445,67877.6544,-0.011650344162042872,-0.15841340432995107,-0.0922578044485153,0.07553888989025478,0.00967402744840611,-0.11011067549121246,0.3310484451067589,0.2395898567744343,-0.08456526004321196
40.2636,67877.6745,0.0008648196673954195,-0.14885797840554066,-0.08435651669080568,0.05784837851446519,0.010225050199985286,-0.03587778533334307,0.11579631934925858,-0.22990589171056003,-0.027641938711891228
40.286,67877.6945,0.031676351710403325,-0.12284592592444996,-0.0636973389683341,-0.08610444387396367,-0.047009305023156985,0.07448054198542622,-0.4918796754517098,0.20544609789137908,-0.4423689941257933
40.3052,67877.7144,0.07052660634124612,-0.10367398786012857,-0.03315995593156499,-0.10917514925715607,-0.06500789425677217,0.11246357686577153,-0.35398948874758096,0.22966572448311864,-0.03740022236868755
40.3236,67877.7345,0.10451401262474783,-0.10619564335166487,0.0015695289280581101,0.011265667479785925,-0.027329527730656174,0.047382601460803815,-0.4136994291357387,0.22908560525943308,-0.14148858137453027
40.3518,67877.7545,0.12285605983184132,-0.13191035186573147,0.03372863856971931,0.09309713438470815,-0.013852461540500646,-0.050337935332107765,-0.3211199453734869,0.7039266377349261,-0.6814469437173356
40.3668,67877.7744,0.14297197827428754,-0.15253960398516755,0.0567438702829963,0.04917528045030567,-0.021898753671695675,-0.09481131309796317,0.09476734848778695,-0.007847949987620636,-0.36267634426194534
40.3846,67877.7945,0.16196512431564314,-0.15691337321074406,0.06636469706084952,-0.07101532346772163,-0.03321754583564107,0.01222025268414286,-0.09516701771926143,0.07202078242648256,-0.7383702650486547
40.4052,67877.8145,0.18118940946796952,-0.14146650071135317,0.06065350047294111,-0.11332206350189503,-0.017624065767294285,0.12443536453205281,-0.10027411367084066,-0.27776502567035843,-0.7334911232202561
40.4231,67877.8344,0.19121576457693062,-0.12625811295307765,0.04103556017793821,-0.057232546078922156,-0.03022310061324,0.09867078504375784,0.17271964068057846,-0.3437525343731998,-0.7513813099243872
40.4465,67877.8554,0.18958815217142982,-0.11715878388696996,0.012337501603755907,0.06835377115639894,-0.002845735083882228,-0.015776534190644596,0.26030600555284256,-0.03892526411773113,-0.9416678412319385
40.466,67877.8754,0.1815450388522054,-0.10720382821296587,-0.017478846170452093,0.08136858904273205,0.044434629143451594,-0.0981540673772862,0.18479840123211666,-0.12791005547628126,-0.7595132129717176
40.4891,67877.8955,0.17551222103542222,-0.08988329183777427,-0.03895877171299699,-0.02719450456279674,0.05020081635450915,-0.016195327197582148,-0.09959025130129948,0.8008672495905538,-0.8782389974627551
40.5178,67877.9154,0.1760679837154494,-0.06578598532524038,-0.044217581131356494,-0.10978180056639306,-0.0008845916382982211,0.09625642302900517,0.12960520365612108,1.002476339675713,-0.9416678412319408
40.5299,67877.9354,0.16486416938871742,-0.07789846495917177,-0.028776994245812093,-0.08738143843237496,-0.027355315906334398,0.06242201401997341,0.18931514404427877,1.0030564588993984,-0.8375794822260981
40.5476,67877.9555,0.14450089274933992,-0.12313028910564797,0.004286866660757407,0.027980809840447398,0.00947018754802086,0.021391141877488293,0.47311344343827927,0.8554598601113991,-0.7920408251610436
40.564,67877.9754,0.11080985220883482,-0.19942394300333185,0.0462712184870599,0.016450894101087174,0.024600019026741315,0.004690652589183807,0.5828992515351168,0.21588824391771888,-0.7822825415042457
40.5842,67877.9954,0.06858442581462153,-0.28060982427517744,0.08440190828398242,-0.04469296055250937,0.01006772833393441,-0.0573400459827299,0.2547327674391678,-0.26777878789038007,-0.38381929218500427
40.6156,67878.0155,0.027209431300112122,-0.327602621156409,0.10516938831729972,-0.0820905822187575,0.009102971666430646,-0.030255658629853036,0.2737831925906703,-0.18587963819338046,-0.39520395645126954
40.6434,67878.0365,-0.004759954916265477,-0.33134316088294696,0.09717425226435553,-0.08579114206748184,-0.04214590863612066,0.0777899554622552,0.05666649818478733,-0.17164624938161624,-0.3399070157294179
40.6463,67878.0575,-0.024934399482250083,-0.3042571611660966,0.054710062896281504,-0.05068787418938739,-0.027432444392309543,0.0427913290002805,0.20338268422152359,0.07492137854491036,-0.21792847001944712
40.675,67878.0775,-0.03156527585653107,-0.23094392135154818,-0.01755350131504629,0.05685372473444804,0.015874357760019605,-0.06773424445782891,0.3481203245482909,0.6254460978913791,-0.4423689941257917
40.6893,67878.0985,-0.01211543929199467,-0.11170724957502617,-0.1034447818340056,0.1516995622500521,0.0179926827288115,-0.04187994297257839,0.5087798397849463,0.6041270674180655,-0.3268959708536852
40.7062,67878.1184,0.029313209012280822,0.023951289244862617,-0.1794549452856473,0.013920185977583733,-0.013098564726251802,-0.02604306178790048,0.8096500186204745,0.842386709747009,-0.639161047871212
40.7269,67878.1384,0.08785818593048092,0.14545790418429183,-0.2223768647202786,-0.061943997965634955,-0.031800196839814415,0.04081066848138549,0.29793047977801423,1.0858257874319246,-0.6928316079835993
40.7688,67878.1594,0.15297678178684232,0.2352178709569922,-0.21755689724455107,-0.07205021403178917,-0.017687764707505976,0.05780444840626373,-0.13385822116168367,0.689403189311319,-0.7887880639421101
40.7823,67878.1795,0.198758547298989,0.21435166685327167,-0.15853518002943578,-0.06241201147665709,-0.036964169817770134,0.03829492874197606,-0.3440032509676033,0.5696932489231626,-0.7367438844391887
40.8099,67878.1994,0.21376205639335394,0.12255473081709561,-0.05872162265847299,-0.08278537769760841,-0.03226743737586751,-0.029626520397424506,-0.7084162506339072,0.27851924825577096,-0.5952487714156209
40.8211,67878.2194,0.19979696232922983,-0.028746764419309456,0.059485099390222305,-0.10018216497272601,0.014756137174367715,-0.06497454762699953,-0.1561511736163803,-0.22601090577928143,-0.7708978772379829
40.8304,67878.2395,0.1541530615029607,-0.19367706977476987,0.16869345066601182,-0.10797022701168185,0.01627226125227938,0.01342946666728104,0.24648688733024768,-0.43128702767253596,-0.3090057841495579
40.8539,67878.2605,0.09305312466684432,-0.3161671141944772,0.24575338894941143,-0.1089746096422651,-0.012258973486554138,0.09304377919843944,0.2662314087670222,-0.11077607054608915,-0.18377447722065224
40.8681,67878.2805,0.01420685077163493,-0.40658276950211497,0.277031122647585,-0.12279419349969124,-0.0072398057717018415,0.11572311467057687,0.014846744500760952,-0.20800674201356095,-0.039026602978154926
40.8875,67878.3004,-0.05905053601801187,-0.44443467403566245,0.2599085487276791,-0.06069132858694584,0.004784464402807377,0.08073424649225898,-0.002111157879180179,-0.41409093725368423,0.6635698203112766
40.9073,67878.3204,-0.11441073821679128,-0.43887114179542996,0.2034737921066774,0.06735558465413473,0.024200637920646216,0.006469099785635181,0.17178735635638892,-0.10188796572481873,0.3545575045126833
40.9273,67878.3404,-0.1349228457485524,-0.38996063663175234,0.1256041791812428,0.08867315896243959,0.03531548930403649,-0.0677881860813762,-0.015588344917005243,-0.26713656317803314,0.1171059355306061
40.9472,67878.3603,-0.11146530280806068,-0.3029970502334858,0.04659523088040051,0.04448042322963029,-0.004579039230344936,-0.007006276754097681,0.4486139911504279,-0.11554123531289745,0.4033489227966713
40.9724,67878.3804,-0.05071657787384139,-0.19626613279333927,-0.01732191299602669,-0.011474882639684825,-0.04598842749171468,0.04575188383637896,0.3247708767920746,0.6121449934038058,0.055303472370889256
40.9927,67878.4004,0.03149168659809382,-0.09770691753146266,-0.056935828439314995,0.0170893162540773,-0.06646682527923894,0.02665573591033063,0.10765418238619495,0.626378382215567,0.11060041309274314
41.0112,67878.4204,0.11267765803581653,-0.022057885556454937,-0.07048440837327019,0.1037268305628763,-0.008231853896836906,-0.056466950658881444,0.24995736875662503,0.7617720094747016,0.3740740718262787
41.0347,67878.4404,0.17050887852027424,0.026806473868941638,-0.06239542259822209,0.12118736556547154,0.010617076097972621,-0.06235715909949849,0.11218115911408777,0.9173244287597786,0.3138979892760286
41.0505,67878.4614,0.19884524576172863,0.059875789556693926,-0.04168983024143319,0.032045566513617056,-0.03407932579831845,-0.0018183936733351617,-0.1666137874741886,0.394914321936333,0.2000513466133866
41.0931,67878.4824,0.1854930861704192,0.07574116240965145,-0.018551471171619992,-0.05237543908276983,-0.03506731460554466,0.02688939259122396,-0.3875633623226863,0.3568134716333316,0.18866668234712444
41.0956,67878.5024,0.13873826576998752,0.054375223001729256,-0.0018911900902413917,-0.0013820213595757,-0.0032541500519329375,0.031976711137634485,-0.3590965846991602,-0.12012008361372233,-0.032521080540289043
41.1136,67878.5224,0.07354607744791852,0.008985645065570758,0.0007724369744717061,0.048954041179509536,0.03839372486989658,0.013429737730715954,-0.7501117933406123,-0.41808966633082356,0.3317881759801559
41.1296,67878.5423,0.005279517421325319,-0.05429185121813207,-0.013579371538098593,0.04821654145192388,0.0282687243250679,0.09066709500113937,-0.09295028397037858,-0.7124126850712879,0.5789980286190295
41.1541,67878.5624,-0.04087261443353658,-0.11938341564212196,-0.043697746692906894,-0.0279990987253052,0.00417000467952607,0.06340190833717685,-0.0738998588188787,-0.6305135353742901,0.5676133643527658
41.1729,67878.5824,-0.05871834494941229,-0.17248021139489247,-0.084614467043361,-0.01423874763152907,0.026729302491973802,0.042701064876455135,-0.7285027032554542,-0.5813078465011337,0.45864586351852604
41.19,67878.6024,-0.03920575885951218,-0.19821949705063308,-0.1287668141078808,0.014053740116321689,0.028174326996272283,0.01026534319156439,-0.5375220756626236,-0.7232691016867964,0.07319365907501968
41.2099,67878.6224,0.014304221191443728,-0.18242392486860187,-0.16729598320229788,0.05376887208240126,-0.01643593693588687,-0.0059277153465866275,-0.962349345918095,-0.4136145611758563,-0.30737940354009213
41.23,67878.6424,0.08897397558080412,-0.11803939973567826,-0.19150743715503749,0.03929441776507484,-0.05773702830123402,-0.014998582132449893,-0.7114308238139251,-0.19545160538419373,0.10084212943594391
41.2584,67878.6634,0.16082988242661472,-0.012335346762970156,-0.1944892141330201,0.029715723753655374,-0.08072964027839509,0.009635120705396193,-0.04033621915950399,0.08235918530696511,0.06018261419928777
41.279,67878.6834,0.21603557526005912,0.10943136483630583,-0.1722782878776745,0.049714342014365205,-0.05107687679981475,0.0374372840339175,0.14448081718023303,0.49272511262749213,0.15939183137673046
41.2942,67878.7034,0.23530269215192162,0.2126192848363604,-0.12422490519350088,0.030333750121905242,-0.04714569301489482,0.03655470148984715,0.2981686678169283,0.6053494113540963,0.2781176158677694
41.3153,67878.7234,0.21295140175689442,0.2711998831669098,-0.05370509282544799,-0.051788169932619345,-0.05456185290584564,0.0421556852454141,-0.04986654869312275,0.4614198443741985,-0.07480697638641338
41.336,67878.7444,0.15981951357864443,0.2605862173986604,0.03277589097379651,-0.09505039212165614,-0.019337408527772028,0.06537009993806596,-0.6173389365037966,0.09636461999554626,0.4602722441279919
41.3562,67878.7644,0.09223685450626873,0.17578412732909154,0.1254377789672989,-0.11157271086189822,0.006987228952712092,0.09513015445694976,-0.7595281458126374,0.14074303861323303,0.5415912746013051
41.3746,67878.7844,0.02506723694955102,0.03145705210653593,0.2116585583644652,-0.09120635958119067,-0.009915473608703006,0.0687499899079718,-0.8420074147333216,0.18570157645460056,0.7269986640804615
41.3968,67878.8044,-0.02979561159957128,-0.13255481114803705,0.277003382176257,-0.10958888691004887,-0.005540418950986579,-0.004531196529924899,-0.5124425041510866,0.30657175529012815,0.8831312025892257
41.4141,67878.8244,-0.06786646202838599,-0.28168650647568927,0.3087363835427381,-0.08761852051473218,0.007948848258380022,-0.05102318369556287,-0.0814618765582574,0.28461050010446937,0.4976789981457171
41.4331,67878.8444,-0.09126201930271467,-0.37683233503834185,0.2986880295214624,-0.0634916793113919,-0.032984834148300564,-0.03786576456498068,-0.11387551168599251,0.5294377703599393,0.30739246683816274
41.4527,67878.8644,-0.10702850844313287,-0.40265777383339835,0.2467829816435603,-0.01469008807849328,-0.03589801661409777,-0.015844571112807262,-0.32402054149191206,0.40972782997178286,0.3594366463410841
41.4765,67878.8844,-0.12697239358908768,-0.3641242613482313,0.16254005732467422,0.04213678505858475,0.014768237111746149,0.025219370768737,-0.24281548808019168,0.0673177231483352,0.2455900036784436
41.4971,67878.9043,-0.16049715043859425,-0.28179242200491394,0.06414223227259222,0.01937219553937208,0.035247416150171504,-0.01042926581015437,-0.8148250865344915,0.2513369200569377,0.296007802571899
41.5183,67878.9244,-0.20647135332265254,-0.18586852760508976,-0.025949136754807693,-0.011568139803200293,0.017108086835316248,-0.051029689218000746,-0.8763893616552967,-0.10553452970145252,0.4716569083942587
41.5323,67878.9444,-0.24874638750650696,-0.10416565699176125,-0.0874196392231785,0.00311101309644056,-0.0061402189639654615,-0.06495828382090488,-0.9207677802729819,0.10322230753391543,0.634294969340884
41.5559,67878.9644,-0.2761126923486695,-0.06179867987281018,-0.1084204100577523,0.05165522509976149,-0.009758642970607315,-0.02588448967847752,-0.5912028696907442,0.22409248636944473,0.7904275078496467
41.5781,67878.9844,-0.27204439623258214,-0.06053927884868998,-0.0887664137805192,0.0364848543571472,-0.02584790148537873,0.006852654546034303,0.17526807169850128,0.2511506035909525,1.3190012059261875
41.604,67879.0044,-0.23659118140977609,-0.08877814462240616,-0.04006493332645039,0.02276911722838269,-0.055236427227849716,0.0043241748251840635,0.26483298228073693,0.25202078242648085,1.4751337444349502
41.6222,67879.0244,-0.17386527216843567,-0.12957535826554387,0.018578899015471106,-0.009150537398127241,-0.03597711797482986,-0.0007143523029424665,0.7447190052191458,0.31224873654966273,1.1303410552281008
41.6396,67879.0444,-0.09903730901822798,-0.16300185608327805,0.0660584493920271,-0.00508124060767084,-0.03740571155574265,0.044146104047965914,0.21766794460621586,0.3463508577755266,0.8099440751632437
41.6546,67879.0654,-0.02728428932496607,-0.17710994845702627,0.08615144354195922,0.016041008367145785,-0.042990209505375916,0.04896154596916066,0.0722259740784405,0.39723479883107526,0.6164047826367545
41.6765,67879.0854,0.027591249460137426,-0.16918254409388125,0.07258151616952221,0.0841659634936819,-0.008820119758448168,0.016032217769296902,0.16992278770800803,0.38184117157193986,0.35293112390321735
41.6946,67879.1054,0.058406119620898124,-0.13649473998847997,0.030692346187648913,0.12456788444753288,0.03010603833384988,-0.012998676109676192,-0.24664836852280816,0.014983484033569517,0.1789083986903267
41.7141,67879.1254,0.06729343804949572,-0.08607396601372935,-0.024989200962358092,0.11044993680430179,0.019861933620312088,-0.026678163415897075,-0.2630261516790602,-0.13226094965392263,0.6733281039680727
41.7344,67879.1454,0.06661454892542983,-0.026565219678733487,-0.07639528195070999,0.029009694570629387,-0.03593758191234311,0.03443878031693152,-0.11711803898918931,-0.3040771750336634,0.3138979892760263
41.7556,67879.1654,0.07148020955530912,0.027246601480062527,-0.10742057237112099,-0.01103593853165814,-0.06398631570776805,0.10052296149450503,0.05248145264166331,0.07672384170462669,0.4911734757078503
41.7757,67879.1854,0.08990356115052413,0.05917386844544864,-0.1077307656156265,0.02022239458339968,0.004237018062116311,0.09629952211515602,0.3789075790665591,0.38387158885483935,0.7172403804236653
41.8115,67879.2054,0.12231418985456202,0.06728817876935383,-0.07497736036180709,0.01851398897527246,-0.002736170721629256,0.030417554260026146,0.8697121241091342,0.5422624987696828,0.7806692241928489
41.8247,67879.2254,0.16976943341905662,0.04673564621365833,-0.01426467205439199,0.008571658769124113,-0.05005151030933256,-0.059395520009660384,0.6831444961826099,0.7953977546227375,1.0246263156127904
41.8441,67879.2454,0.21949772852815114,0.008108648769976246,0.06233268629084201,0.027371279750577765,-0.06993075227223987,-0.11302487847994112,0.2271880402240996,0.8073106665397596,0.6635698203112773
41.8568,67879.2654,0.2796931725871068,-0.032582495941656964,0.13821122335737843,0.07508264658865753,-0.0382834859483994,-0.08563662901652898,0.3198917349636762,0.6219032770606028,0.7497679926129921
41.8846,67879.2854,0.3275546606972126,-0.06801020517376816,0.1969281962512972,-0.006980045590842728,0.009761898410601114,-0.031796925320757265,-0.12909305639487426,0.4998728597777041,0.38545873609254244
41.8935,67879.3054,0.3592237129191229,-0.10587571368231785,0.22523110545951533,-0.1399689830975899,0.01735977342409553,0.01276861401296791,-0.06751854735833682,0.016723841704626197,0.49117347570785186
41.9128,67879.3254,0.36687434540599034,-0.13656209599127775,0.21532367594411952,-0.10782623407055679,0.04775427537002925,0.024434913188104444,0.0918667523693618,-0.3020467577507639,0.6782072457964744
41.9389,67879.3454,0.3410747412269348,-0.17509048235858046,0.16677459914675863,0.006524534858778754,0.07439273751135815,-0.027222458793198425,0.03157669275751762,-0.36146663852707883,0.7822956048023155
41.959,67879.3654,0.2840386416773391,-0.20672033484763808,0.0843186957212878,0.07810771564992339,0.09065637592906887,-0.11556338754788305,0.192236207994173,-0.38278566900039235,0.897768628074422
41.9764,67879.3864,0.21014629752829195,-0.21395053725273916,-0.02319940446433449,0.021627050513066723,0.10588770620278218,-0.1424019203652956,0.23602427347243937,0.18963820004307846,0.6619434397018115
41.9967,67879.4064,0.13053811659644973,-0.19137155245382217,-0.14437504755773428,-0.09254353092981238,0.08619886908854042,-0.050040578744010314,0.38449105109596565,-0.22729535520397498,0.4407556768143964
42.0161,67879.4263,0.04948953613160892,-0.14157190222706056,-0.2667163066097253,-0.09554271272121584,0.060447232671347356,0.06873562354592153,0.1642355725327424,-0.026784398077530483,0.5659869837432997
42.0353,67879.4464,-0.03281529786888597,-0.07907135621653605,-0.37664199087421624,-0.05461883990876865,0.08244948704645295,0.07330168710699811,0.22196696721092785,0.27775281256610024,0.32365627293282495
42.0589,67879.4664,-0.10969026185062399,-0.014278520680673368,-0.4593394868060873,-0.027821900097573352,0.06733560742406236,-0.03564494184275448,0.07409054272682024,-0.08649433846568819,0.6180311632462211
42.0793,67879.4874,-0.16957100856737756,0.052619049431550935,-0.5001717551147462,-0.018105565756392987,0.04729293874170163,-0.10238184377159376,0.06711887812686128,0.04744899073423428,0.6212839244651529
42.1002,67879.5074,-0.19442532647701677,0.12006754325006885,-0.4876200947443902,-0.03247320472583249,-0.0003317833194193529,-0.05373164953719406,0.2174399904830351,-0.013193233978111406,0.12035869674953949
42.1219,67879.5274,-0.17662621305958326,0.17704281721799003,-0.4175028834652505,-0.08474416568625416,-0.056449861398575975,0.037829512824233795,0.10185299014933952,0.03798076668928008,-0.021136416274026883
42.1389,67879.5474,-0.12285138446774359,0.19433047366793288,-0.2953139868711543,-0.11862760957923286,-0.0815329736126186,0.07431898817821925,0.01425639136133946,0.573173964265276,-0.11221373040413854
42.161,67879.5674,-0.052792957546708666,0.16772492405484812,-0.1382748538334053,-0.13528688414687215,-0.07630442447734005,-0.01897779335694405,-0.07322623036506813,1.2881392077180904,0.1415016446726007
42.1802,67879.5874,0.016956171017290023,0.09047573958977861,0.029429356106401204,-0.09681938490561565,-0.027409422959853068,-0.07935012583407199,0.09835180697575956,1.3649831330364401,0.6651962009207447
42.1963,67879.6074,0.07322442177240132,-0.012534316432128656,0.1800849826909068,-0.08740693628910912,-0.008354320192866109,-0.055273187291533174,-0.06730082715088843,1.2162884012897324,0.899395008683887
42.2176,67879.6274,0.10343083526053402,-0.10540775578605346,0.2900184206182419,-0.12600498506484115,-0.06067822264140203,-0.00044437312177105875,0.0774470470916122,0.9267926528047347,0.9563183300152069
42.237,67879.6474,0.10798291148299442,-0.17546141449863345,0.3456068401648546,-0.1431400340206045,-0.03860812472987539,0.02335011732159044,0.10335515978148116,0.6949764274249933,0.5968882153231588
42.2593,67879.6684,0.08931638960659492,-0.21261580609897607,0.3454968238457012,-0.12071249000104957,0.047856787231014816,0.0036619668536963966,-0.1855502355640986,0.4927872181161518,0.5562287000865028
42.2815,67879.6884,0.05197836181079682,-0.22207064900265686,0.3011369167656066,-0.05154251563517194,0.07262683849925954,0.033558637343775365,0.16295112310804644,0.5157845007718606,0.3561838851221507
42.3014,67879.7084,0.001750286554325825,-0.20720382339509696,0.23290092678603672,-0.02955393156784764,0.05919967036461094,0.025250814127186695,0.500647936737616,0.6203908735127261,0.09271022638861355
42.3193,67879.7284,-0.05154244104006599,-0.17544833013911157,0.1631798834592337,-0.026729203324110325,0.04438021387713631,0.010328229908463759,0.5470049010652701,0.10767694485741618,0.27649123525830355
42.3393,67879.7483,-0.09823451545437807,-0.13931756474768967,0.1088923256828482,-0.06310957471938584,0.02489095666768736,-0.02009999597747577,0.8433481031729055,0.054990540642148075,-0.2390714179425085
42.3603,67879.7684,-0.13359083212320355,-0.11087818866010585,0.0766915036189828,-0.05224406398709099,0.016609935203097663,-0.0164297970687802,0.6630580435610612,-0.06442934013416736,-0.13498305893666582
42.3783,67879.7884,-0.15782846903948367,-0.09618751726189276,0.06274867544026061,-0.05848366419904909,0.03152913562701385,-0.012933620885297521,0.5042630969727842,-0.5268394469576142,-0.2488297015993047
42.3999,67879.8084,-0.17398662448674745,-0.08907487044534146,0.0567014169146929,-0.006679747273631814,0.05376130177617929,0.005115408991689422,0.2726229541432974,-0.30355916129863925,0.021149479572098305
42.4212,67879.8284,-0.1867662055564674,-0.07827462363380727,0.047874675429406315,0.006118545613423233,0.039774716002069194,-3.859115970921817e-05,0.16028871502853453,-0.2588906830691097,0.15451268954833125
42.4409,67879.8484,-0.19643168890588025,-0.05379543779825474,0.030699303425421508,0.006445637209368933,0.02201053281017779,-0.01139072781378385,0.2269703200166512,-0.3922538930453466,0.2553482873352422
42.4665,67879.8694,-0.19900636528615617,-0.016935207800441554,0.006993056020895505,0.010808772582221033,0.024284262064473594,-0.016719292817265204,0.20420099148412135,-0.3467152359802904,0.5448440358202392
42.482,67879.8914,-0.19356968907375538,0.023038218037918556,-0.01576752007484439,0.042982151580066984,0.00695750406878168,0.04449198099091241,0.12927350638708365,-0.3768602657862112,0.5188219460687793
42.5,67879.9114,-0.17935106263633538,0.05005001410093535,-0.02824857659627659,0.029926887280743046,-0.0005219673325704281,0.020330470656681365,-0.2091174035277606,-0.7200784459565258,0.645679633607147
42.5207,67879.9324,-0.15849118229007536,0.05463328695819636,-0.02429390307463609,0.0495084371409826,0.01713493294695047,-0.022681604131568587,-0.3069281942189173,-0.8844568645742118,0.5643606031338355
42.5409,67879.9524,-0.1319654233540027,0.040567092386490256,-0.0043520763691095934,0.03863249332658669,0.015666820575742254,-0.04179753968836541,0.13752962041174124,-1.053372493835523,0.725372283470995
42.5627,67879.9724,-0.10133157945847639,0.018125835064462137,0.02410558502732261,0.003014290974452658,-0.011436774719989651,0.028797137046127904,0.3037623737620713,-0.8458380005361875,0.2829967576961672
42.5817,67879.9924,-0.07018961847544507,-0.0032292916404868532,0.0490734618856918,0.012176549481190761,-0.02855129173346586,0.06588918641592062,0.28981904456215074,-0.5779513421363444,0.28950228013403245
42.6029,67880.0124,-0.042522522058031684,-0.015711020289679745,0.058571813030221014,0.03888990516656224,-0.019678003104208825,0.0392406690663807,0.2384689613445056,-0.23525117570105564,0.4553931022995942
42.6257,67880.0324,-0.020293103083489278,-0.015105781456551559,0.04597893885200711,0.06831596976229723,0.01372986770432119,-0.02218799761659557,-0.13362003312276705,0.20892681323349246,0.18216115990925702
42.6429,67880.0524,-0.0012411250970354726,0.008203919680368155,0.013231429523988605,0.11844255668806479,0.028916693852786078,-0.02215980701936483,-0.3710613681891119,-0.1561905166338212,0.32040351171389153
42.6626,67880.0724,0.015767064969562927,0.04635348275333345,-0.02896134151227379,0.10466880298797004,-0.0027957987470244206,0.0260610227341358,-0.08924161450508024,0.00016997599812144845,0.01952309896263078
42.6813,67880.0924,0.031227741728022923,0.08870756935811902,-0.06573427279768079,0.032685483404634744,-0.02375915958035382,0.025218286514997357,-0.14511867445062143,0.051924095889201556,-0.017883655055095052
42.7015,67880.1124,0.044093675674862824,0.11667021961165602,-0.08355021296526069,0.029880137418649987,-0.02973846760838431,0.006443619822753535,-0.20738727977243449,0.2964613065328287,-0.26021436586556923
42.7289,67880.1323,0.05273608445873203,0.11783002634658096,-0.075393747088571,0.03531087126227478,-0.014949935295633893,-0.016479672740803846,0.239038846652457,0.6636090536830401,-0.03414746114975728
42.7432,67880.1524,0.06315182783358662,0.08896194334180202,-0.04303522293045289,0.0017453922353854884,-0.025388977241855314,-0.01899053333838487,0.06757478637322197,0.7665371742415117,-0.21304932819104638
42.7725,67880.1724,0.06608496902597383,0.039416773044415154,0.0036452333649292096,0.02607202691942647,-0.027022246609937278,0.010019488656100065,0.13414241429974885,0.4534019183884582,-0.4570064196109879
42.7884,67880.1924,0.06528709419625782,-0.014735655575260354,0.05033784175780331,0.0414363210590714,-0.017420834889227143,0.008196315992888366,-0.10643770492393688,0.27456215683582963,-0.24882970159930554
42.8088,67880.2124,0.05384429437008252,-0.05884264079268897,0.08303693743234092,0.012911031624621316,-0.004350256020326978,-0.03889770306168704,-0.4663237278623465,0.27433420271264647,0.09596298760754694
42.8233,67880.2324,0.03748898303110612,-0.08062155831625925,0.09230133074788813,-0.013301377663208819,-0.011195437444666693,-0.038614170708770074,-0.3901117933406102,-0.23808966633082207,0.33178817598015437
42.8404,67880.2524,0.018857640548157924,-0.07593343482254636,0.0761424787889377,4.586058219643577e-05,0.011600086064522792,-0.013299014395557621,-0.12780860697017832,-0.04269603907168697,0.5952618347136914
42.8613,67880.2724,0.002911858446339427,-0.04965618071468586,0.04033048215221011,0.08480580597031247,0.023500195288290716,0.0725288852540667,-0.4497077566671796,-0.058897739677688,0.572492506181165
42.8794,67880.2924,-0.011648002047547373,-0.009486729962718765,-0.004469360797733794,0.08446159711329865,0.014408613002318368,0.029106420425361414,-0.4745696079712667,0.11082596293049056,0.17077649564299333
42.9012,67880.3124,-0.02322350471550698,0.031886328244326634,-0.047300721920051095,0.05893050708993991,0.009270793049035846,-0.00551569892552183,-0.3424908474197266,0.38666844182740956,0.16264459259566452
42.9242,67880.3324,-0.027333494339005282,0.07026911892267657,-0.08176042805731709,0.014863832406228333,0.010674142416458978,-0.056299433456106406,-0.6262891468137272,0.534265040615409,0.11710593553060988
42.9452,67880.3524,-0.015533043996297083,0.10484378206209244,-0.10751122465877969,0.005383379675289134,0.0033650478783373854,-0.034622490566270016,-0.03894802658895211,0.5595828001658618,0.3334145565896211
42.9619,67880.3724,0.012992954893202527,0.13338747118773264,-0.1282360431301747,-0.012750201655224705,-0.02083778946063493,0.021695003988023577,0.5107583854949167,0.30016997599812034,0.019523098962629225
42.9812,67880.3924,0.050114054883127826,0.15499444086151004,-0.1475294434135254,0.008023004400712198,0.0005257984274912643,0.04275825926122136,0.7056858705919563,0.3903150058040416,0.045545188714090676
43.0045,67880.4134,0.08282309652518492,0.16498671993224323,-0.1647943908310485,0.017198230707682276,0.00600534581355111,-0.005502958944081013,0.7462314087670218,0.12922392945391104,-0.18377447722065382
43.0232,67880.4344,0.10323651002827262,0.16142594905074653,-0.1745196015243615,0.014611396197286351,-0.0016409851656570423,-0.06805274399384938,0.5659413491551801,0.009804048677597396,-0.0796861182148126
43.0442,67880.4544,0.10689476148059412,0.1418447352204094,-0.1683928530694385,0.004238799189001701,-0.008995791149087742,-0.057842055464185166,0.028904050762268037,-0.2961213545365845,0.2992605637908301
43.0623,67880.4744,0.09595453707867763,0.10519741591082132,-0.13936995017118148,-0.03869972847478702,-0.00987873582151031,-0.0008100376954660591,-0.31599238159043946,-0.6263284898311656,-0.12359839467040208
43.0888,67880.4944,0.07066489787088992,0.05686896181393314,-0.0855563666063425,-0.07593046911002224,-0.005047254551039865,0.058553396676922956,-0.21492882968034935,-0.4684555936513463,0.23257895880271257
43.1114,67880.5154,0.028503049602490525,-0.010666999381353182,-0.01156674351952219,-0.10272526586319555,-0.010097661044693205,0.028875203315382295,0.058645043894758,-0.47560334080155825,0.006512054086900569
43.1246,67880.5354,-0.024734938318073482,-0.09065752890936346,0.070631639997353,-0.05324588919039704,-0.008886414390290242,-0.00515274498617594,-0.21004968785194905,-0.4782138773081433,-0.46188556143938714
43.1523,67880.5554,-0.07760972771079118,-0.15594532319235876,0.145212249614969,-0.003852699051995985,0.001077205332907636,-0.027904996522304455,-0.18263940552993574,-0.053034441952169525,-0.2032910445342509
43.171,67880.5764,-0.11037826125518187,-0.19282468200265895,0.1982518873584538,-0.02753808952028094,0.010557986269477548,-0.04112882619443985,-0.22143435211821544,-0.4554445487756177,-0.31713768719688984
43.1873,67880.5964,-0.11693674697334729,-0.19023961083487076,0.22070371207166553,-0.00812450240181502,0.0047308120325457,0.026646248690108756,-0.40497717294898866,-0.5683589071140646,-0.48790765119084856
43.209,67880.6164,-0.09908245426476699,-0.15017611996128946,0.2101401496665462,0.0025787993553337794,0.0028742085182480934,0.04727471821370922,0.1011588938640606,-0.20063104074016763,-0.15775238746919387
43.2318,67880.6364,-0.06890327253240187,-0.08648743294704836,0.17046406239079512,0.04741332387508176,0.00909515947875214,0.022224119812969935,0.56769194074197,-0.6536971344959827,-0.42285242681219837
43.2457,67880.6564,-0.03624964474557138,-0.00994255939436317,0.11042409436733672,0.05546087876854655,0.022320049691822566,-0.04303765490308346,0.4344427078273256,-0.207198668666694,-0.27973093317916314
43.2666,67880.6774,-0.009387274596448475,0.05890109883962974,0.04181381471740891,0.05029736440814817,0.025327078412619337,-0.04290537594684687,0.191998019955259,0.09769070707743603,-0.0731805957769467
43.2864,67880.6974,0.009685381475558821,0.11333965675430135,-0.02325757049304089,0.06011294241222258,0.027685922404470504,-0.006296632681500555,0.23824100722132488,-0.5947952674546937,-0.23419227611411003
43.3092,67880.7174,0.018849653509348925,0.14295591415728953,-0.073721166282262,0.03975249636856184,0.03663681449179198,0.04336625454572684,-0.402190553892151,-0.4539321452277424,0.3399200790274862
43.3289,67880.7374,0.014795524639616628,0.14502558033768004,-0.1016917086497284,0.02332292139039595,0.04200596444812376,0.03515682735601088,-0.19913116574778109,-0.3800509215164818,-0.05366402846335113
43.3531,67880.7584,0.0018886936591062248,0.12074333490702727,-0.1040266866933561,-0.04102725922411695,0.01432632567714957,-0.01087326771653866,-0.038585627572714026,-0.5811419978666149,-0.282983694398098
43.3713,67880.7784,-0.016247010326284783,0.07703292089192876,-0.0835716654347362,-0.006419337381340296,0.012300481991596255,0.00026283137991186265,-0.5089515548932401,-0.18041014322556562,-0.08456526004321041
43.3877,67880.7984,-0.03150243827663768,0.02884555139525191,-0.04868618337750019,0.03135384717210672,0.01373411288470221,-0.022820117546808127,0.10626598981564137,0.14915476735667027,-0.16263152929759325
43.4089,67880.8184,-0.04185556405944307,-0.010214088232484764,-0.010605164147671892,0.04568746880395525,0.016836869621005158,-0.04091685458833943,0.004850272805048208,0.2919862013778614,0.37895321365467877
43.4298,67880.8384,-0.04456333399344338,-0.024085165613426163,0.019711364621869107,0.03805123663560014,0.01681933395771538,-0.03442651170282932,0.016348914132902598,0.44898891872215235,0.5789980286190308
43.4481,67880.8584,-0.04175156179928037,-0.007509019436690467,0.03475543010429711,0.005952425433145966,0.030326956362623725,-0.016791666754386456,-0.12653439146121714,0.2547555299103914,0.523701087897177
43.4686,67880.8784,-0.038382198341165574,0.03075766285679754,0.03217537286401171,-0.01042507265645308,0.02337195254182182,0.05391685662276951,-0.80076778027298,0.16322230753391592,0.6342949693408856
43.4872,67880.8984,-0.04335024861541978,0.07384107530950251,0.014842396452965811,0.025053299392616853,0.018995208443681955,0.06245698120307694,-0.5213824805452857,-0.0955482919214755,0.8213287394295049
43.5087,67880.9184,-0.05964614333422598,0.10547778371559124,-0.01058703834822209,0.05253822201308708,0.011675363202741481,0.017160112721961766,-0.7104985394897363,-0.43731617403257306,1.2084073244824822
43.5268,67880.9384,-0.08388739470807728,0.12127646471740733,-0.03647972435563189,0.03310330703422064,0.027955193160474373,-0.0527707296604344,-0.4400634500719727,-0.25818635286810165,1.0522747859737196
43.5476,67880.9584,-0.10603592960413978,0.12224494377700273,-0.05625243539771179,0.006321038995561071,0.041809729237793525,-0.04946267150077997,-0.27824369638794283,-0.16182586023615955,0.7513943732224572
43.5689,67880.9784,-0.11553497584728868,0.11624986010053084,-0.06600664283969448,-0.03779219000352019,0.017016187235956045,-0.002183787183595241,-0.6746041890198837,-0.3291048749722717,0.14963354771993345
43.5926,67880.9994,-0.10973922311682897,0.10748439951221345,-0.06485341080157919,-0.0018231815980230689,-0.0035918295750382,0.06744021139048162,-0.20168983068143825,-0.1349335916491691,-0.19190638026798568
43.6227,67881.0204,-0.09598168147754098,0.09639023606991365,-0.05480421928818699,0.03606868857391233,-0.0054555699189089936,0.03374729749447344,0.02692550505229914,0.007835736883357558,-0.04715850602548526
43.6301,67881.0404,-0.07160932479080508,0.09272303581695251,-0.04014828622014689,0.043214480837555906,-0.014867154446196146,-0.0477720488572398,-0.011175345250698961,-0.1559625625106411,-0.024389177492958717
43.6535,67881.0604,-0.05298328269267648,0.09454821155185844,-0.025863222915380193,0.02648295754743106,-0.01500410786594647,-0.11211817129016366,-0.12292946514177804,-0.05245432272848395,-0.09920268552840816
43.6694,67881.0804,-0.02258588946851338,0.11597717185827194,-0.016619892052265793,0.009895640004678906,-0.015429472780442148,-0.06245772363385047,0.09418722926410318,-0.06668771154024823,-0.1544996262502629
43.6906,67881.1004,0.01053038483860752,0.15103981358865515,-0.01479385262064399,0.017532752419453214,-0.028863697609990753,0.056477592892374154,0.3894841699859539,-0.057281592983955416,0.0910838457791462
43.7127,67881.1204,0.038138856585598825,0.18582935044404603,-0.01950554071287639,0.0043699462685572645,-0.027598085308198846,0.08866962854927989,0.3563764385729443,-0.05106613015793144,-0.23581865672357363
43.733,67881.1404,0.04745547518290302,0.20316548191749062,-0.027121088555646093,0.006036584394903531,-0.005881361560891399,0.009416643576857902,0.49484674450075783,0.03199325798643749,-0.03902660297815494
43.7516,67881.1604,0.037763477586299526,0.19892606528250523,-0.03381437762459649,0.017252343530820047,0.007737120167275574,-0.09920254074352212,0.025651289543336443,-0.2896158320987177,0.024402240791030146
43.7696,67881.1804,0.018052675253717322,0.18009997212106876,-0.037508064121740195,0.027331273057633405,-0.010600738886351133,-0.1112228487646525,-0.39359250868272516,-0.5911282356465951,-0.6326555254333484
43.7902,67881.2004,-0.00270796671982107,0.15671085284544134,-0.03821945568758919,0.0022902968943372118,-0.016098786559758757,-0.028508654791851357,0.028676096639089103,-0.6556654462902225,-0.39032481462287105
43.8257,67881.2204,-0.01705580367276778,0.14242809447271315,-0.03756617471956189,-0.038743509717654785,-0.011011173335774763,0.06823198768385678,-0.19668647787571492,-0.8049402972606159,-0.2602143658655684
43.8302,67881.2404,-0.04033569190132688,0.10844052801206755,-0.03575060952922239,-0.05778073293218351,-0.005306726906717301,0.07419809388624891,0.024149119911196337,-0.9466114928344341,-0.5936223908061565
43.8478,67881.2604,-0.06341985566704568,0.08027865875963985,-0.034563396441610994,-0.02812027889592186,-0.0023176349792406177,-0.018887800296553577,-0.03672105892433425,-1.0648711351633784,-0.2813573137886314
43.8683,67881.2804,-0.08458636726195738,0.05787898764138416,-0.03325949480100519,0.01886823781362388,0.019765331601667897,-0.06146021019337782,-0.41891026823317706,-1.1404927165456926,-0.20003828331531825
43.8899,67881.3004,-0.09381624025795778,0.05128802594570625,-0.03023955027832459,-0.01794788308698062,0.010327573402876902,-0.010717135178029902,-0.20504633504622755,-1.1482205829195902,-0.530193547036973
43.9139,67881.3204,-0.08646075407093488,0.06336780033965322,-0.023684614008630492,-0.02717364350988661,-0.010930905751311108,0.05596853576161122,-0.5077810825301354,-0.9027510879517702,-0.21955485062891295
43.9317,67881.3404,-0.06850917070831038,0.08169913667799522,-0.012928755554668693,-0.01750763028106242,-0.030862932208959498,0.04138098594843833,-0.719210561760752,-0.47989212949054033,-0.37731376974714
43.9508,67881.3604,-0.04830372691474456,0.09858644399722055,-2.9520124181989238e-05,0.02649573023793581,-0.027249653246955958,-0.013464092027418455,-0.6398700769974098,-0.33857309901722765,-0.492786793019248
43.972,67881.3804,-0.03268291725014287,0.11126219783630281,0.010514563096057007,0.02283244804362617,0.005126911141663312,-0.047454904638393865,-0.250015106803328,-0.15828303940538338,-0.4407426135163266
43.9907,67881.4004,-0.021266116931580883,0.12553176113581022,0.01331327876377441,-0.01172284414946792,0.0082574955278515,-0.02483682950254632,-0.19228371212514367,0.14625417123824244,-0.6830733243268008
44.0094,67881.4204,-0.013914725792315077,0.14633005043521602,0.004942430308723107,-0.06474401609348555,-0.015820160584113226,-0.0034409793947126816,0.26669755092911773,-0.2317083548702812,-0.736743884439188
44.0315,67881.4404,-0.009226818105946083,0.17466521602051704,-0.01363826169642349,-0.041813632241312466,0.011019071711540596,0.021991818449251178,0.28202907269958866,-0.022371398411224604,-0.470017464486719
44.0518,67881.4604,-0.009522620476313082,0.20405190869842005,-0.03627376563086899,0.015969485440685154,0.025562836347545352,0.020455973027045188,0.14367274383336764,0.07434125932122483,-0.3220168290252868
44.0705,67881.4804,-0.01582981396922388,0.22839439414778573,-0.05364086442828549,0.031408718204335155,0.005674370820245354,-0.006608897758518082,0.4878750799007988,0.16593658718635995,-0.0357738417592231
44.0939,67881.5004,-0.029362402636228677,0.2383368961224639,-0.05671459810940899,0.005973794265875378,-0.0295757813028351,-0.051678615081177805,0.7013868479872427,0.45891305101347113,0.5318329909445104
44.1145,67881.5214,-0.042591005910425375,0.2269471620026985,-0.04080048363885459,-0.025236475177905896,-0.011145242415272542,-0.055009713632799634,0.9482445355256154,0.26519767593672994,0.18378754051872526
44.1329,67881.5414,-0.050796117027136864,0.19002810846371354,-0.007792408301880091,-0.051084216356836624,0.0026802399425889024,-0.03743477370347211,0.903172020622653,0.23534270574265018,0.20980963027018668
44.1502,67881.5614,-0.052919438127496984,0.13257936654852032,0.03371108497015161,-0.05611968727412594,0.014581181777167539,0.01398080969389011,0.44908013331252183,-0.2364735196370864,-0.14962048442186354
44.1728,67881.5814,-0.04794301444669767,0.07250454559849034,0.07063238040787162,-0.08809454643445201,0.0168309000978197,0.04427729875046287,0.06491237829370898,-0.008138009599463416,-0.4147205237648651
44.19,67881.6014,-0.043693648912268374,0.018114725924606945,0.08999191174568771,-0.07965464235132902,0.014621091931573722,0.029591081846982375,-0.3070524051962404,-0.224208442619562,-0.06179593151068146
44.2122,67881.6214,-0.039649046260540874,-0.01125927414988287,0.08290715276800631,-0.0275839098750268,-0.0027803730210307206,-0.06637974047357839,-0.44226994990512225,-0.31377335320179767,0.016270337743699823
44.2332,67881.6414,-0.02954331358669017,-0.004201769482475859,0.049860426247988206,0.035287759633227375,0.005246287962460933,-0.11587538156146568,-0.23584382348023003,-0.06662560605158552,0.24233724245951024
44.2488,67881.6614,-0.0075261464885556795,0.04720832284520016,0.0022081136365162055,0.06310144059358758,0.03087892604174054,-0.07492962333754263,-0.33806761383769035,-0.3421780253366617,0.3025133250097619
44.269,67881.6814,0.015580684874643425,0.12337780835121154,-0.04015378046881539,0.010567074865865535,0.020487657497184595,0.02639632820312077,-0.11653791976550552,-0.24523741348103578,0.10572127126434394
44.2889,67881.7014,0.02420522854536202,0.19254709971574946,-0.05604127800653419,-0.039315456742624245,-0.008017279285835831,0.0791151845955353,-0.22910011300345004,-0.560113027005146,-0.45050089717312275
44.3187,67881.7214,0.0026326923084333265,0.21947726622291308,-0.03184168745084869,-0.044073984437413026,-0.02477022389625828,0.015037414963173363,-0.25070920308860695,-0.3968948468348311,-0.5773585847114936
44.3351,67881.7414,-0.04851957452034357,0.17864224934877454,0.03134274778959551,-0.011826155303206175,-0.00129588216467199,-0.09373492019793139,-0.17589569505315725,-0.5465218629057269,-0.896129184166883
44.3557,67881.7614,-0.11970287929205096,0.08599854405140983,0.11511597496522222,-0.028141139948831988,0.05881408712657963,-0.09105166325574693,-0.04892403045319821,-0.6204651921056489,-0.8993819453858164
44.3745,67881.7814,-0.19135287083200536,-0.02400488665579764,0.1916403037481315,-0.07726409937446585,0.056270005977847364,0.02094361614645017,-0.06019471765787099,-0.41792381769630005,-0.40984138193646885
44.3933,67881.8014,-0.25073111678371407,-0.11589925601011167,0.23411043104113774,-0.07802924439510527,0.04435029601912623,0.08200905782664564,-0.3573459931123718,-0.7836212667872993,-0.37568738913767397
44.4105,67881.8214,-0.29440479195286207,-0.16544743864834796,0.2261568658403603,-0.029853538534750212,0.0665188842984161,0.08383223048985734,-0.5033680828638336,-0.7915770872843799,-0.3610499636524793
44.4299,67881.8424,-0.31712204228768454,-0.16080254113277936,0.16818019989802083,0.0936965698080243,0.11383866761286705,0.045089946928326186,-0.14394820208751616,-0.6704168488370078,-0.15287324564079383
44.4501,67881.8624,-0.3194909418484125,-0.10162869255264406,0.07692955303682991,0.15914222161049058,0.08312736400793454,0.007718431157140185,0.024263096972784556,-0.7668394469576144,-0.24882970159930318
44.4775,67881.8824,-0.298222812201161,-0.007130367546440086,-0.02122903163889099,0.11726943103179921,0.012342945165317221,-0.017866704337243678,0.4605787746403763,-0.0794708022927955,0.050424330542488516
44.4943,67881.9034,-0.25302058078890194,0.11704279414958213,-0.1022074758526483,0.07997179006771007,0.020958227093495523,0.02038197270931447,0.7018529901493382,0.33798076668927896,-0.02113641627402536
44.5117,67881.9234,-0.19066849725787466,0.23012676705051227,-0.15077228276442728,0.04265824568922577,0.03816531585046413,0.04309735961829508,0.36078943823924886,0.060107870509460516,-0.37731376974714154
44.5323,67881.9434,-0.12378218766558947,0.31396543178974434,-0.1646421120611969,0.08797187595366937,-0.0011619446784230966,0.08070714014876788,0.3930788623896598,0.4755290222086355,-0.8131837730841035
44.5542,67881.9644,-0.06744104068375949,0.36485345094000343,-0.1525589162094971,0.09726272665566471,-0.05760364608241378,0.024988966849062603,0.10394551292089925,-0.08620427885384403,-1.5434286667344639
44.5738,67881.9844,-0.02691025925025138,0.39121050658691603,-0.1294182197751845,0.08443881367721486,-0.06861582012551407,-0.03379086794796293,0.3496429620118975,-0.3975991770358408,-1.4751206811368802
44.5999,67882.0044,-0.007977904262744376,0.40082836361417684,-0.1096125543079744,0.09420183828131258,-0.030711869333709504,-0.04102067188391036,0.5109965735338318,-0.18030640007970655,-1.223031686669607
44.6209,67882.0244,0.000990520821668922,0.4101249293272202,-0.10195467366537378,0.08768885873884438,-0.007915910248773111,-0.013466531598332656,0.4177229934863011,-0.8937592399846473,-0.8196892955219686
44.647,67882.0444,-0.002133859275810876,0.4188366543448665,-0.10522807781472068,0.05445386573695345,-0.023915924244991223,0.021885561582766038,0.5327298745963129,-1.0037730022046665,-0.4700174644867197
44.6527,67882.0644,-0.017170757512622176,0.4182661075088129,-0.1098009326610935,0.028479216070235795,-0.02632662491155592,0.05441507121613601,0.3321049404082744,-0.6625231338285916,-0.5643475398357632
44.6751,67882.0844,-0.03684536585010578,0.4042083295489156,-0.10313581850220149,-0.0022812223811541792,-0.02955574800877597,0.053759639830521094,0.3726504785833413,-0.9236142101787252,-0.7936672057705086
44.6983,67882.1044,-0.05950101901996878,0.36216801068114646,-0.0745274210478297,0.00014780976814762317,-0.046633812307379584,0.018659364580454762,0.5136692155290754,-0.24565168407019966,-0.739996645658122
44.7142,67882.1244,-0.07456259720137577,0.29116464394166064,-0.021245936790583793,0.016053082546401642,-0.05034435786388762,-0.042553535608332325,0.6077611028392098,0.04616454130953904,-0.38056653096607335
44.7331,67882.1454,-0.08207048936354537,0.20486268576215472,0.04968319936256501,0.028341004789508455,-0.04926020235010125,-0.04960850362876214,0.7411243128154424,-0.22056187864292992,-0.1788953353922553
44.7553,67882.1654,-0.08012366884621037,0.12136444137807495,0.12409608930778182,-0.011689908917301942,-0.060228374936480464,-0.044188048120845945,0.3044462361316137,0.23279427472472963,0.1382488834536675
44.7765,67882.1854,-0.06770927755407229,0.055012809761348924,0.18498541927772602,-0.03599452612728673,-0.05254914051651088,-0.0070583209336005995,0.3374399904830325,0.04680676602188732,0.12035869674953949
44.8005,67882.2054,-0.052877711855491685,0.015491107902152135,0.21731322429150482,-0.0082948138469177,-0.023028565077248934,-0.002683899221006129,0.24404219945818037,-0.006397651928406709,-0.10245544674733999
44.8231,67882.2254,-0.04068879501339277,0.005612889343598659,0.2128508279564101,0.03587496908553608,-0.009348130942156495,-0.020350729654768498,0.13983986339074936,0.02200702020645911,-0.38869843401340676
44.8329,67882.2454,-0.026377448391176783,0.032400354068866766,0.1723465910373956,0.06065615915740431,-0.016770511085892965,-0.045085268090401504,-0.010015106803330492,-0.03828303940538418,-0.44074261351632815
44.8536,67882.2654,-0.017380934132494377,0.08169319111945567,0.10547840120612542,0.04674261461258794,-0.0005634219962602133,-0.054809939881270205,0.05352771402744551,0.014631318933067097,-0.26997264952236544
44.879,67882.2854,-0.006522832069188272,0.14346646397685525,0.02708987729625311,0.03235016167978388,0.006851483869347902,-0.019122270167751632,0.03889028854224753,0.04390616990345949,-0.40008309827966804
44.8937,67882.3054,0.004542511632938118,0.2057128722492182,-0.047380456253876393,0.04012298928383668,0.019405828661242294,0.010150954422031929,-0.3623493459180936,-0.11361456117585558,-0.30737940354009213
44.9124,67882.3254,0.006928878984562917,0.24806960870150474,-0.1055714110464003,0.060703038513764636,0.024065730201386384,-0.02492248554797821,-0.17636183721525306,-0.42558957858153795,-0.34315977694835126
44.9368,67882.3454,-0.007072892574365983,0.2630541408766185,-0.14188046077709018,0.058856050697630745,-0.0040002941663458405,-0.05610209927549116,-0.2620938673548689,-0.3741255183023037,-0.43261071046899474
44.9571,67882.3654,-0.03257028526534138,0.2595295246959396,-0.1581122028413024,0.027566787016568436,-0.014131766804221223,-0.05570092539182282,-0.23653791976550292,-0.3052374134810345,0.10572127126434394
44.9797,67882.3854,-0.06661247666978969,0.24482874773991936,-0.16021794857208999,0.012945443503630222,-0.000159079778344777,-0.031193538114645272,0.20478111070780783,-0.28787547442766104,0.3366673178085553
44.999,67882.4054,-0.10290997426274177,0.22930362853399433,-0.15474198777002038,-0.04044481831688024,0.03516144386267614,-0.011323504081925907,0.2879544759137698,-0.09422220483958571,0.2878758995245664
45.0269,67882.4254,-0.13606592414738689,0.2206625849932201,-0.14522092622296548,-0.031094778366542685,0.018281363962001033,0.02776926450094522,0.3030580435610618,-0.24442934013416706,-0.1349830589366658
45.0348,67882.4474,-0.16205786227150148,0.21519467947201465,-0.13030193723937028,0.014304847165206597,-0.015687887101497534,0.013893527267848746,0.3544081267787069,-0.5871295065694557,-0.3008738811022276
45.0776,67882.4674,-0.17599412700273798,0.2101243960359258,-0.10518615895568789,0.03368622425553508,-0.022090641282154495,-0.019024145204313843,0.2186104628461386,-0.7355341787043208,-0.014630893836162404
45.0793,67882.4874,-0.14743535566501625,0.2176783445914794,-0.0643167281449579,0.030333628281908838,0.004174550665097987,-0.04823638052124241,0.2250020082224138,-0.9283172694568709,0.19029306295658818
45.0969,67882.5074,-0.09190633550740927,0.22202686158766616,-0.004472752732987292,-0.0027790045140808233,0.023349816257077306,-0.03005154786336503,-0.1082818057408495,-0.9217496415303446,0.3122716086665605
45.1155,67882.5274,-0.013662355900601678,0.22248414266925987,0.07130266322492632,-0.018865842368115972,-0.0018965080348523889,0.028613898164128043,-0.5234647694011137,-0.8113837142098181,0.41148082584400325
45.1363,67882.5473,0.06779988617526522,0.21234735409276229,0.15312394794595852,-0.025029704577317322,-0.028048783616449687,0.010460237801265428,-0.4682818057408489,-1.1017496415303443,0.3122716086665605
45.1576,67882.5674,0.1291514465747287,0.18701194600378312,0.2256423876163924,0.024869096656219253,0.004713613916477151,-0.01481886707510386,-0.8587168951586127,-1.3408794626948162,0.4684041471753245
45.1776,67882.5874,0.15244924738229962,0.15381555172944805,0.2715117553394104,0.035409339555219965,0.07586312811847573,-0.048734595114608904,-0.6687825289515631,-1.4207481951089143,0.8440980679620332
45.1957,67882.6074,0.13009094707313773,0.12871184090105076,0.2767960441302555,-0.020773575892775824,0.08683895901446732,-0.05741269098328605,-0.0886410274499315,-1.6210311981121808,0.3740740718262782
45.2236,67882.6274,0.07428853386389613,0.11953829948753741,0.23643997791218,-0.022033073463912492,0.08628795415674065,0.007400744811424461,-0.4625843566498526,-1.533144539712342,0.38057959426414406
45.2375,67882.6474,-0.024438747093399077,0.13526375634838422,0.15621662601401412,-0.009518551086813251,0.10830890940254218,0.09658251234120317,-0.2818281548759143,-1.5346569432602155,-0.27647817196023355
45.2581,67882.6674,-0.1259761284270013,0.16271602914552297,0.05283091607529531,0.01772543222372426,0.13506094278146713,0.13503584228111915,-0.5020836334391375,-1.334145986133771,-0.15124686503133025
45.2775,67882.6874,-0.22585211448366715,0.19286009206597654,-0.05186223570401649,0.03912244129568288,0.1417569246375499,0.074130870154391,-1.0105504110626633,-1.0972124308867173,0.06994089785608477
45.2973,67882.7082,-0.3022967579967549,0.21829250968724134,-0.136619047516103,0.04814154058709813,0.0803487260547194,-0.014502536046562665,-0.8322388971607922,-0.6738354586904616,-0.3805665309660749
45.3222,67882.7284,-0.3368555370649208,0.2334046376999266,-0.18651287695228588,0.06644097482075557,0.011979857587404505,-0.04434445172278961,-1.079790680984438,-0.7187318910431695,-0.16913705173545607
45.3384,67882.7484,-0.31815852375853526,0.2457798850701467,-0.19696254837456129,0.06794757810105509,-0.003253348973194535,-4.6723062756558684e-05,-0.9122734782094108,-1.0537662965932204,-0.40170947888913544
45.3597,67882.7694,-0.25666173645308255,0.24895379400084416,-0.17290946507849048,0.03931623888608144,-0.0022006705432472146,0.030448184428171095,-0.7333716111681229,-1.4115700306758032,-0.7790297802853131
45.3791,67882.7894,-0.17462900218175675,0.24528916850261828,-0.126885883014776,0.05498456787517267,-0.004207328521429687,0.022889309482241642,-0.8959994381990137,-1.926314376614014,-0.9595580279360704
45.4006,67882.8094,-0.09783955741454388,0.23632722428695752,-0.07408938887749489,0.06891499440532727,-0.031458181581738874,-0.0307302907043823,-0.7862238640179081,-1.725865524976231,-1.2311635897169377
45.427,67882.8294,-0.043604569086972175,0.22488028172979835,-0.02866409928215189,0.0722949588882863,-0.03638811054765693,-0.07982855279668999,-0.9385235220840542,-1.3612662088439402,-1.0766574318176418
45.4439,67882.8504,-0.007804034394821482,0.22549467942853618,-0.0017003604920646925,0.06286752010886594,-0.0010332329888162245,-0.03447476099424349,-1.0990690602591184,-1.1601751324938052,-0.8473377658828966
45.4647,67882.8704,0.0014168193956075187,0.234365534584413,0.0016150883392778079,0.05784208017665494,0.02183764687560577,0.0380059751203609,-0.9345766645798452,-1.1291599238523562,-0.6651831376226741
45.4812,67882.8904,-0.016228271530637772,0.2503227051797534,-0.018464441795704292,0.0002684200167903699,0.005044967195334928,0.042950443236573294,-0.7847216943857651,-1.0688698642405128,-0.6131389581197527
45.5013,67882.9104,-0.05541973056055248,0.26773361076319413,-0.05661935631740749,-0.007534643115323404,-0.023948906540437534,0.03702797824720184,-0.40763958102850173,-1.3430340909550396,-0.6895788467646674
45.5294,67882.9304,-0.10527397241035406,0.2812314489276555,-0.10382522515329248,0.005063772172724383,0.018664262883466898,0.0105526704325701,0.050057232601063775,-1.1784277182141722,-0.9530525054982036
45.538,67882.9504,-0.15673866200700248,0.290496575113091,-0.14900657278322568,0.02013946890148814,0.044102869425939384,0.009498504734201043,0.22593429254660508,-1.170181838105252,-0.9156457514804793
45.5583,67882.9704,-0.19355572177756164,0.29509878014436286,-0.18031021175561648,-0.0015977280572570516,0.016107263343429767,0.0003002381339295862,0.1237105021891421,-1.4457342573903298,-0.8554696689302261
45.5781,67882.9904,-0.21046241775733676,0.2974226034791032,-0.1883170982929773,0.029697296452707328,-0.02389278567649899,0.03538370745103143,0.024615262073290362,-1.0675437771586231,-1.1465917980246914
45.6068,67883.0104,-0.20697421645148995,0.29774367598669516,-0.16849331433138068,0.016638039076926295,-0.040524270924936934,0.01620976431916363,-0.5436754329999839,-1.0109623870120763,-1.374285083349971
45.6202,67883.0304,-0.18105324468633655,0.282095585319561,-0.12200620567514739,-0.0028574468219065103,-0.055283299127271306,0.01902502915414976,-0.5049944634732967,-0.7883243260654466,-1.605231129894183
45.6475,67883.0504,-0.14829722747422247,0.2601888151025018,-0.058490355411676395,-0.035773036131221035,-0.05237212050864227,-0.002252095169192833,-0.7278086069701786,-0.3426960390716863,-1.6182421747699134
45.6712,67883.0704,-0.11190998602758957,0.2259236096088615,0.009495559436236707,0.001999944513571598,-0.040558081798227535,-0.002150988507971015,-1.0090482414305204,-0.44021677015100263,-1.5255384800303342
45.6823,67883.0904,-0.07526367082360828,0.18863055766237458,0.0676013047129298,0.03756826945702933,-0.04817473168514301,-0.00701766141836395,-0.9834922938411547,-0.37132866532973346,-0.9872064982969956
45.7019,67883.1104,-0.05153144552422097,0.16353237840849322,0.10393495243015272,0.027113418190638117,-0.05170502915236057,0.014493932776176706,-0.984072413064841,-0.43016842688236284,-0.7790297802853117
45.723,67883.1314,-0.03907841779569497,0.15712306239629265,0.11285413245892911,-0.008014215667509426,-0.029079761436065475,0.04437569477733558,-0.6552015987678822,-0.5479100554762811,-0.759513212971716
45.7424,67883.1514,-0.03850788530463317,0.16675114022334403,0.0954993792838254,-0.012091091599897437,-0.014206009571289464,0.05437874871585792,-0.33713532951349906,-0.5840425939850428,-0.8034254894273055
45.7611,67883.1714,-0.047206881019715666,0.18669589984246993,0.05878039987630811,0.001199835684467929,-0.006597864140020193,0.0058659836429581025,-0.2508231801501968,-0.5766668927116476,-0.9221512739183461
45.7836,67883.1912,-0.059181628314875265,0.21036552335918524,0.01320242527782111,0.03542262237119077,-0.0005034375134658821,-0.04760182102011565,-0.2590690602591178,-0.7401751324938053,-0.847337765882895
45.8043,67883.2114,-0.06510020756307387,0.23718989000927793,-0.030204218255440292,0.08683905851586629,-0.00010630980281692503,-0.010198048700175256,-0.14662084408276574,-0.6050715648465135,-0.6359082866522793
45.8309,67883.2314,-0.061843057389270276,0.26471860988096696,-0.0623691920433295,0.03804749499207278,-0.008203182755229906,0.026989957125575954,0.034363311814354765,-0.2470398766407521,-0.6033806744629535
45.8439,67883.2514,-0.05224642942534398,0.284954148155697,-0.07814488848772108,-0.04062636867611602,-0.010895455418852297,0.03692741371284984,0.3594012456686952,-0.4171157443494362,-0.6505457121374779
45.8642,67883.2724,-0.04213454156773738,0.2956909676133155,-0.0779813411207226,-0.06109365551712098,-0.01578088173684237,0.025453840639935058,0.3003854015658122,-0.17908405614367273,-0.6180180999481513
45.8828,67883.2924,-0.03810946204594748,0.287821392041126,-0.0665478101278193,-0.03806475951836485,-0.020918673734354628,0.0045247617670182445,0.045633999019028454,-0.4495812510500992,-1.0929212379123057
45.9012,67883.3124,-0.043533227545248576,0.2656726967242756,-0.051728647789861894,0.011467964410208102,0.0003658784084994574,0.011903650592166753,0.3510413884981844,-0.7603960300084104,-0.9205248933088793
45.9199,67883.3324,-0.05967902792536507,0.23906095392264992,-0.04092947258955559,0.01963509272418526,0.03595162178054513,0.017580532109508808,0.3294322984130248,-0.5971778498380973,-1.0473825808472488
45.9404,67883.3524,-0.08405421138469789,0.21876758834888732,-0.03804029183799109,-0.012025536858964469,0.0241228809468446,-0.014191355223284786,0.51286114218221,-0.6640355373764669,-1.2214053060601393
45.9595,67883.3724,-0.10969839192967447,0.21132544245048024,-0.04210451504683419,-0.030050865554424915,0.010703538337765493,-0.018567674379923634,0.7402022624069847,-0.8187177778260156,-1.0050966850011234
45.9904,67883.3934,-0.12330538916296908,0.22019865406978667,-0.048131817564634694,-0.04604944967108224,0.015210706571080146,0.032145583657584076,0.0710759695468019,-0.5604651921056484,-0.899381945385818
46.0018,67883.4134,-0.1341866819406915,0.2252001601705672,-0.04857927074792239,-0.031713585018701224,0.020138977266318123,0.08515773068657236,0.08130039536569691,-0.7009140437434358,-0.6277763836049483
46.0219,67883.4334,-0.1316639487107666,0.23208352506897578,-0.037864004968146195,-0.006981515587073132,0.004874838403061925,0.023165252058981095,-0.2741726279064097,-0.589967997199224,-0.42447880742166283
46.0441,67883.4534,-0.12096761323679868,0.23763415600090565,-0.013962912452616393,0.004250128872053894,-0.018808450515192122,-0.047936855425665705,-0.44866149528139765,-0.1209902624492507,-0.1886536190490547
46.0644,67883.4744,-0.09899062434005827,0.24638251169486225,0.01922699087115331,-0.019295661384272966,-0.027296870002538397,-0.0646568612812838,-0.5769073753903194,-0.344498502231404,-0.11384011101360593
46.0844,67883.4944,-0.06804984854874839,0.26157964809293777,0.05211519078406781,-0.055424050908532266,-0.013070090954019814,-0.006692927423340506,-0.621285794008003,-0.135741664996036,0.048797949933022514
46.1039,67883.5144,-0.03960195615593137,0.2822053158602439,0.07201408064364001,-0.033079360724814814,-0.0070594713214547035,0.08679603808717472,-0.18263940552993574,-0.053034441952169525,-0.2032910445342509
46.1234,67883.5344,-0.02995093969648588,0.30778051088297576,0.06704070940672352,-0.005978007581289058,0.0034878223914937834,0.05992714616505214,-0.45958001738556564,-0.21915321824091225,-0.5968751520250907
46.1621,67883.5544,-0.04740486675974907,0.3413715282016683,0.030083112234574404,0.017549578180255,0.03463265086840566,-0.0340285905803799,0.13519890960126413,-0.44871107221457085,-0.9367886994035431
46.1652,67883.5744,-0.08466794061874837,0.39074006546928275,-0.03839799166820369,-0.03285278848459256,0.03523738419810079,-0.0656904261585996,0.3928611421822125,-0.7240355373764658,-1.2214053060601393
46.1837,67883.5944,-0.12611184797617225,0.45240211273222,-0.12800553490466668,-0.08845272109581395,0.019387249420543567,0.017007232944671945,0.16563399901902767,-0.3895812510501005,-1.0929212379123026
46.2037,67883.6154,-0.15908705742956136,0.5115734298130705,-0.219165676320046,-0.0664297054203095,0.04985121806953468,0.08307162649149695,0.629836335086459,-0.23798592318496486,-0.8066782506462404
46.2247,67883.6354,-0.18235602953034774,0.5471498251377572,-0.2872569117828143,-0.001749756823886263,0.08482132087668819,0.11126764499094402,0.6824606338130669,-0.28323452063817817,-1.0441298196283177
46.2446,67883.6554,-0.19895233991368505,0.5431877894607618,-0.3098410097943849,-0.05214734330575758,0.058576493840430816,0.002303125854487324,0.5136692155290754,-0.24565168407019966,-0.739996645658122
46.2643,67883.6754,-0.20424113774376246,0.49535735233607814,-0.2741814523360717,-0.16063219401815365,-0.025003804734777056,-0.10120786803499406,0.7637796642863799,-0.4458725815848045,-0.8131837730841033
46.2863,67883.6954,-0.19392185542738544,0.41095277808609887,-0.18256123942042318,-0.15043062740305196,-0.0038769379649804237,-0.07055113567342451,0.6201920284912522,-0.03869730999454795,-1.286460530438791
46.3127,67883.7164,-0.17065464708067185,0.30636469869777294,-0.053114288007693494,-0.09720633081909416,-0.016865531132895985,0.17293349217946746,0.5676817068262369,0.18632333333548373,-0.7042162722498628
46.3298,67883.7364,-0.1530011517749928,0.17750102526738565,0.08542486194346521,-0.14736265295004214,-0.06254288687100004,0.09844417601217222,0.3854131015044219,0.37086054397911034,-0.9465469830603386
46.3493,67883.7564,-0.14821599452574197,0.06551932170726815,0.1980643746382493,-0.14120588909173099,-0.02903641458762237,-0.03979085707971892,0.19048561640738226,0.2807155141731891,-0.9725690728118
46.3646,67883.7764,-0.15576264844584747,-0.011323708835649537,0.25769232040395756,-0.10842112917925407,0.009844065587423791,-0.07219920135768365,-0.36932101051805516,0.020328768024065122,-0.30412664232115877
46.3852,67883.7964,-0.16644598129743765,-0.027692761906323637,0.25198920919815526,-0.09092178304187065,0.010285373312656993,0.060023644747880474,-1.0792207956764865,0.18012833834092623,-0.6586776151848075
46.4086,67883.8164,-0.17286126952354924,0.012752885859936558,0.1883382308728936,-0.0843824129266845,0.027116633082284645,0.011804712438424222,-0.7998354959487906,-0.07864226111446514,-0.471643845096185
46.4309,67883.8384,-0.17409235718167276,0.09190607936019474,0.09062332812102761,-0.019817069379346682,0.024445945987609023,-0.021690325150098888,-0.7351324366706433,0.09195162032924484,-0.7172273171255933
46.4467,67883.8584,-0.16832240966870365,0.1870779264028688,-0.00920009981782369,-0.012654918261057774,0.004021643751031202,-0.08906964741967738,-0.3314481143382351,-0.17541702433557244,-1.0164813492673912
46.4674,67883.8784,-0.1584958073262442,0.2737851008380563,-0.0824563035442715,0.0129036563913441,-0.0012855055537725414,-0.007218248360198114,0.16830664101427392,-0.4549265350405917,-0.6098861969008194
46.488,67883.8984,-0.1483893358309128,0.33344289158653617,-0.11329998674702188,-0.033728049970273545,-0.028362092830537235,0.016155009505311606,-0.04939017261529218,-0.4995329077814599,-0.34641253816728157
46.51,67883.9194,-0.14497749997177628,0.35827763320300776,-0.10306464259718989,-0.0647655881272092,-0.021877016516665942,-0.0019883504470243826,0.1525089770817075,-0.5433312071754562,-0.3236432096347526
46.5317,67883.9404,-0.15014318365041396,0.35437800876806924,-0.06790681873868329,-0.08950794733511802,0.006837701899151705,-0.04288911214075219,0.2123328945314559,-0.3629790420749524,0.12523783857793797
46.5506,67883.9604,-0.15960660874452826,0.3398894642611656,-0.031174788780655494,-0.05258802713146116,0.011187861491837973,0.03732533483529926,0.06375213984633875,-0.12581753270472038,0.0016329122585011931
46.5751,67883.9804,-0.15987770773330856,0.3417471651348386,-0.013547832484418692,-0.033935262735221426,0.010532332699358538,0.11536503987305939,0.015426863724444736,-0.14916698046093335,-0.24720332098983733
46.6018,67884.0014,-0.14479057685855407,0.3673349933776362,-0.024049416681629892,-0.061985367432692624,0.012252542094300904,0.09692947353788928,0.112657535191915,-0.04362832339587672,0.042292427495158186
46.6122,67884.0214,-0.12412634838214089,0.40544814454880085,-0.05772526863632559,-0.059304706347135375,0.0356112199231864,0.03118520590769424,-0.09516701771926143,0.07202078242648256,-0.7383702650486547
46.6409,67884.0414,-0.08000549357322238,0.45399977398292557,-0.09976205185280518,0.011866168966991004,0.04781946929493365,-0.0033805322487275146,0.20198425773523665,0.43771823151748,-0.772524257847448
46.6598,67884.0614,-0.022869562671269675,0.4980293272819257,-0.13249724859108308,-0.0063681333809199655,0.004878073990755596,-0.020845691486916066,0.37204989152818924,0.6975869639315797,-1.148218178634158
46.6731,67884.0814,0.04100673804837302,0.5232823435569122,-0.1432989798365906,-0.06684016762817126,-0.01650785751474183,-0.04731178314476083,0.2602957716371101,0.801095203713737,-1.2230316866696076
46.6943,67884.1014,0.09683095964231012,0.5259885433649062,-0.12988937607507758,-0.10019708091858485,-0.0004940309339146019,0.04427241960863447,0.7562176465470011,0.46925145389395195,-0.8831181392911559
46.7111,67884.1214,0.12650526903593232,0.4933446752084957,-0.09780345965497829,-0.11535767528635774,0.012107157801631133,0.04515174939148591,0.11927703469137016,0.12313267760521256,-1.276702246781995
46.7311,67884.1414,0.12136430467427622,0.43685534280371896,-0.05897219658500709,-0.12976014856999418,0.02198210436890408,0.04702940580511473,-0.010947391127519,0.2035815292429983,-1.548307808562862
46.753,67884.1614,0.08062591744988293,0.3682005689380444,-0.02418004594614809,-0.14589788645461874,0.039597580138153135,0.008298506907849851,-0.18031892863519525,0.1823246042583444,-1.0359979165809834
46.7708,67884.1814,0.012077085756118017,0.3027434679204666,0.0007569307560344116,-0.11541052918286003,0.08185286559463573,0.012397799234009611,-0.20634101838665517,0.23436878376126422,-1.0213604910957872
46.7917,67884.2014,-0.06308398605999797,0.26126967208933405,0.016255569661296508,-0.14473189185830726,0.0757455909455302,0.03207646248168177,0.2521741025055107,-0.022661458023067384,-0.5220616439896388
46.8149,67884.2214,-0.13360231142508988,0.24841132324790238,0.027941272865415305,-0.1350300491924789,0.0374119056138735,0.11052655755989721,0.2738971696522583,-0.006107592316563943,-0.05041126724442017
46.8304,67884.2414,-0.20736089433365057,0.24526351215425968,0.042044515886146404,-0.16774478785479705,0.04847138293850972,0.08063829003630049,0.31630727647570617,-0.7509278059634562,-0.2781045525696995
46.8496,67884.2613,-0.2723938732016308,0.2524470292939277,0.060185442539304905,-0.14335909231435667,0.09375999185762905,0.0030124988636495466,-0.032774201420125326,-0.8327648501717944,0.13011698040633649
46.869,67884.2813,-0.33070439572322186,0.25780941636969146,0.0794248018522743,-0.14742648430249602,0.08663477583390773,-0.03897685358468103,-0.09179004552300829,-0.5947331619660309,0.16264459259566313
46.8885,67884.3014,-0.37905939905075914,0.2582681071476005,0.09313244439834592,-0.12374847652442703,0.06493876027776974,0.015165356904451399,0.09745022439876827,-0.9132137018095782,0.40172254218720543
46.9081,67884.3213,-0.4167703010344709,0.2528733007669266,0.0945398211793029,-0.06718146255117567,0.064184732331267,0.06581870992284375,-0.021275560092270905,-0.6757621328275034,0.33016179537068857
46.9289,67884.3413,-0.44551724493276157,0.240388441358104,0.08020128737217072,-0.07243642197567635,0.06736465118026837,0.09276051790895741,0.2230234625124449,-0.6243601780369288,-0.15612600685972722
46.9527,67884.3614,-0.4648105982142402,0.21995997968352643,0.0519426196304446,-0.14002502279786277,0.04983185282464121,0.027399533975726573,0.017871551596510295,-0.5740563562050626,-0.4537536583920584
46.9737,67884.3814,-0.46855311789470555,0.1914698498742723,0.016752020907984506,-0.10502987661989997,0.028711560468715633,-0.05311769085712052,-0.2336373236470778,-0.011038605717891259,-0.9351623187940757
46.9936,67884.4014,-0.4399720400340298,0.16883074636576634,-0.01551630445398059,-0.028235197421425565,0.0461622020717668,-0.06627890487579148,-0.053347264035233544,0.10838127505842418,-1.0392506777999184
47.0121,67884.4214,-0.37196602507015586,0.16709930322842154,-0.035650935734134595,-0.004960555845974909,0.016102918920865482,0.00433908331410418,-0.03487695810742169,0.13144066320279568,-0.8424586240544975
47.0309,67884.4424,-0.27491203374606404,0.19308362506082932,-0.038703443168231294,-0.021852997603204985,-0.05334219756467438,0.010900173756126055,0.9416250360261568,0.09843667493564028,-0.7107217946877281
47.0517,67884.4623,-0.17394957982647274,0.24085220247744676,-0.02622910626616149,-0.01115627761819992,-0.0918356375346845,-0.07108757021111346,1.2241491199111947,-0.3466114928344345,-0.5936223908061581
47.0716,67884.4824,-0.09021624259933637,0.29671540973622923,-0.00607522158608249,0.012288939206181711,-0.06175607118344778,-0.14385807313763777,1.4019944916509703,0.19769776368601327,-0.491160412409782
47.101,67884.5024,-0.051373056444220286,0.3490255780769873,0.009773951458798405,0.006836623624913834,-0.008701440020912006,-0.1544108437221597,1.656517940074579,0.10865086683880047,-0.705842652859331
47.1177,67884.5224,-0.044972828926589076,0.3991844659656554,0.010617892533408411,-0.011929363317126764,0.009290533863169187,-0.03387787931056936,1.3085967006261163,0.1444933457357223,-0.7139745559066606
47.1375,67884.5424,-0.08972410004956617,0.43722610848087695,-0.006895850015494993,-0.0331563336454042,0.019364474519724065,0.10289070059845304,1.199401245668696,0.0028842556505637093,-0.6505457121374764
47.1523,67884.5634,-0.18969153627048385,0.4468437980545198,-0.03668033031801209,-0.07803754913572969,0.03153690550037505,0.12505257597334526,1.1155337841774593,-0.42938082136696065,-0.7383702650486569
47.1719,67884.5834,-0.31769559539822645,0.4263255799261758,-0.06737226309156559,-0.09361279022691114,0.05108738768273794,0.030350872655038046,0.8565973360875472,-0.45150792518714283,-0.38219291157554075
47.1927,67884.6034,-0.4433107229815334,0.3782971176097537,-0.086600338576098,-0.04815454446380126,0.07319089615651819,-0.07260715182722477,0.44582737209358914,-0.22996799719922453,-0.42447880742166283
47.2116,67884.6234,-0.5259708905108429,0.32224983680741337,-0.0853169291341608,-0.008145492948992413,0.05424279312690049,-0.05179354597758006,0.3976160730332858,-0.07354539907861918,-0.32852235146315356
47.2421,67884.6434,-0.5371337919538647,0.27968549740525583,-0.05976748609751719,-0.0021181044341584175,-0.0072919839027675015,0.05002574101462143,0.42805116245105196,-0.014415577914147017,-0.4846548899719146
47.2568,67884.6644,-0.4796303321365045,0.2472502889938223,-0.012361930766930991,-0.022384918206058813,-0.06997835635896668,0.08664939276888783,0.30293383258374024,0.4158190818204796,-0.7611395935811837
47.2793,67884.6844,-0.37369594808709106,0.2291669770111988,0.04795585526272241,0.001966752638517859,-0.06066169804812006,0.014177872811070425,0.758890288542249,0.4039061699034607,-0.40008309827966965
47.298,67884.7044,-0.24428313394465506,0.2172089615649948,0.10999202019908821,0.05539840712856259,-0.030695007028209483,-0.10256318520954928,0.6351713851612215,0.471343976665516,-0.12197201406093622
47.3145,67884.7244,-0.11480581596435228,0.2175276548574595,0.16120124404578773,0.057396414167971366,-0.021851021107027052,-0.11291238715445304,0.5114524817801915,0.5387817834275694,0.15613907015779865
47.3328,67884.7444,-0.008913797882509983,0.2340902647959101,0.1905396589970123,0.04503187756065593,-0.0466019478923962,0.0006588550583168888,0.7571499308711896,0.22738688524557257,0.2244470557553822
47.3578,67884.7644,0.058020637006652324,0.2662424375460156,0.19069881936373492,0.0015222028849776843,-0.040232598541039694,0.05093407458500835,0.5538625886036392,-0.2060384302193229,-0.07155421516748073
47.3735,67884.7844,0.07217681328573503,0.3004533499291582,0.1602269555936693,0.01090969005133381,0.01736242712624804,0.043118231502783225,0.8045531565846258,-0.3474195661813001,-0.35291806060514747
47.3937,67884.8044,0.035663648734391325,0.3293691459612106,0.10333254850134521,0.03371734032601342,0.05238712657688882,-0.020863581673620193,0.6368079996864205,-0.37192925238488556,-0.8099310118651738
47.4125,67884.8244,-0.03594942248472088,0.3539630095108923,0.02914401324674771,0.049292615862911456,0.05543657550309275,-0.07911186107478518,0.5364385440616052,-0.2911903411352558,-1.029492394143119
47.4354,67884.8444,-0.11611503627031929,0.3745776247592555,-0.049220051338851795,0.0592281602895956,0.05266548664972444,-0.03409283261445382,0.8005960651646863,0.260494616658584,-1.0457562002377814
47.4585,67884.8654,-0.17902407406382775,0.3960024484780107,-0.1176361041664972,0.009450919248880385,0.05081996873115489,-0.008340993107599663,0.6958136098735688,0.23005952724082046,-1.1238224694921641
47.4789,67884.8854,-0.21498722665930808,0.4129132975274089,-0.16381030010970438,-0.0010215109747773949,0.05038482917847045,0.009635662832266034,0.49206012544392175,-0.08243350389988786,-0.8668543331964906
47.4932,67884.9054,-0.22788277375344407,0.4169400337247551,-0.18113986484173458,0.002929385977170881,0.035153035274573904,0.0032231151525754036,0.3740386711538932,-0.4463905953198286,-0.5204352633801752
47.5134,67884.9254,-0.22666474036237877,0.40385390456091197,-0.1708918174263538,0.019323411380694697,0.0029649844675262655,-0.03346315225515547,0.255903239802274,-0.9901197326165877,-0.5188088827707077
47.5334,67884.9454,-0.22128862991396075,0.3776866252828972,-0.1419284061719179,-0.022651565100332213,-0.01081506257041991,-0.09663719639552397,-0.013951730391805984,-1.1104097922284315,-0.5708530622736275
47.5546,67884.9654,-0.21730546305484666,0.3465440111376632,-0.1070313782753502,-0.025359275811513825,0.01049035885194331,-0.08956515137869477,0.5815212928802982,-1.101355838772644,-0.7741506384569146
47.5778,67884.9864,-0.21667023275073705,0.3197609222311846,-0.0777576790077838,-0.04684882463822814,0.038199456505371945,-0.04851286522485167,0.6469184484437216,-0.6921501498994882,-0.8831181392911542
47.5983,67885.0064,-0.22465172436532904,0.3023318616094478,-0.05997986433359909,-0.011224751494763867,0.0347513102184434,0.05712516343837666,0.36764712577761804,-0.25360750456727854,-0.7253592201729258
47.6308,67885.0264,-0.24138670744962315,0.2966940523451651,-0.05258226776144819,-0.01048405890113319,0.002109925031182033,0.06181645830638214,0.25275422172919715,0.036178303529561966,-0.7302383620013227
47.6365,67885.0464,-0.26922623345749386,0.294219227637163,-0.04951829556319469,-0.004098755956794152,-0.0008906808574960307,-0.026346381771565938,0.018089271803959278,0.6255082033800387,-0.045532125416019434
47.6585,67885.0664,-0.2966210906352624,0.296720163088955,-0.04458466716245049,-0.0149954184486063,-0.005357355873871741,-0.07992749095043251,-0.22574360863865806,0.45317396426527684,-0.11221373040413699
47.6745,67885.0864,-0.30492753576650394,0.3033258671627622,-0.03383220606324899,0.0054256147708867,-0.013209422312857743,-0.050752120260651845,-0.18903095090621094,0.13974864880038054,-0.4082150013270015
47.6977,67885.1064,-0.29638275792322855,0.3135187925059797,-0.01794280723216389,0.019647077476510448,-0.003792347724105237,0.008641402153012305,-0.003043442203370393,-0.1722263686053018,-0.44399537473526063
47.718,67885.1264,-0.27570904627902526,0.32568327264447017,-0.0006177586993474926,0.016367142660640207,-0.03144247809236475,0.0360285673626848,0.09012639469830172,-0.4785660424086506,-0.9107666096520817
47.7347,67885.1464,-0.25423022359139846,0.3376823200778426,0.013185751724197108,0.006297238460518167,-0.030832669692120673,0.0009556695195444907,0.06677694694208985,-0.491867146896222,-0.4130941431553991
47.7595,67885.1664,-0.23922732334269964,0.350706827830494,0.01938429644154511,0.012671924143273013,0.0064979589423696344,-0.03530475723194111,0.11126934262136581,-0.5208519382547716,-0.23093951489517667
47.7786,67885.1874,-0.22669680757930244,0.3658148053576642,0.016474528552227807,-0.007426365030812692,0.006994537290541047,-0.020250436183851406,0.11323765441560146,0.015211438156752657,-0.16588429051652576
47.7964,67885.2074,-0.21549232923008688,0.3835572028179396,0.0052835712115526096,-0.005486633551268695,-0.009724925668546946,0.007597807928604779,-0.010481248965426015,0.08264924491880787,0.1122267937022076
47.815,67885.2274,-0.20680678697154348,0.40091836681712134,-0.01158541661297769,0.0523940785065351,-0.010626349784154533,0.033564871802778305,0.004622318681867496,-0.06755789037577659,-0.3106321647590255
47.8373,67885.2474,-0.20496807561174474,0.4127661957191323,-0.03111200567394029,0.07235364126180151,-0.026735475294687366,-0.003861398782259727,0.020419982614435703,0.02084678175908799,-0.5968751520250892
47.8563,67885.2674,-0.20890268660970956,0.4191153728443079,-0.051102059920691195,0.05598926153786136,-0.020276715846807083,-0.045916348581838774,-0.10085423289452711,-0.3366047872229878,-0.5253144052085722
47.8759,67885.2873,-0.21835832234105856,0.4195125735447427,-0.07008373585959979,0.02543715464954159,-0.015972502070167517,-0.017853964355802852,-0.5650565689619601,-0.4882001150881235,-0.8115573924746374
47.8962,67885.3073,-0.23082368526717778,0.415033545780234,-0.08669164221246499,-0.030020202677216043,-0.0015777874166522528,0.025153773417488534,-0.35549165837972446,-0.42732993625259463,-0.6554248539658764
47.9156,67885.3274,-0.24551016274550064,0.4050663606217064,-0.09871684191195348,-0.014546732312788703,0.0065652718544930684,0.0612976428919624,-0.2239930170518681,-0.21032721890830322,-0.4553800390015228
47.9348,67885.3473,-0.26074850112207476,0.390235193579877,-0.10301732966526558,0.031117239864506693,-0.009002672500097725,0.04505796144300668,-0.07041914347676267,-0.2774749660585157,-0.6814469437173363
47.9565,67885.3674,-0.27169514424297375,0.3733710229640518,-0.09618531896093999,0.0393731114071642,-0.01880441558541274,0.026991854569620326,0.43432873076573475,-0.38697071454351545,-0.6245236223860149
47.98,67885.3874,-0.27193139461664007,0.3590548709061211,-0.0759620788998191,0.033767237875522944,-0.021022668522130236,0.004868470202485445,0.20315473009834198,-0.2846227132087294,-0.9075138484331468
48.0028,67885.4084,-0.25362787430816025,0.35185441393305505,-0.04272528784112099,0.026417687780152126,-0.017923568331388588,-0.014174549290320304,0.07165608877048837,-0.501625430553019,-1.1075586633975019
48.0195,67885.4283,-0.21461916229566635,0.3495844828968443,-0.0003246140678698911,0.008432546706480129,-0.04672328618404459,0.006160087469836582,-0.06983902425307892,-0.21863520450588808,-0.8896236617290187
48.0399,67885.4493,-0.16414942509408187,0.35046677436603635,0.04363556916563691,0.00547029097671902,-0.042628774724522374,0.05642988572782981,-0.10793987455607697,-0.3824335038998868,-0.8668543331964922
48.0591,67885.4694,-0.11465814928867447,0.34990053169365987,0.0802396197503667,0.02518431798156349,-0.01607682873421132,0.04216002226037268,0.41271964068057776,-0.22375253437320053,-0.7513813099243857
48.0808,67885.4892,-0.07789265726164789,0.34975412086172375,0.10123156145629111,0.055524000465177616,-0.011396193701439574,-0.018226134451935723,0.2565871021718152,0.0885125426443246,-0.6635567570132067
48.1053,67885.5093,-0.05834079424627657,0.35551411403107724,0.1013422481958765,0.03660785163980291,-0.025483896050690145,-0.04181326136759026,0.5766319171361691,-0.25157708728437905,-0.36104996365247777
48.1293,67885.5294,-0.05254473722025017,0.3712127236698325,0.0797495944548649,-0.00942259993947884,-0.020172992892126655,-0.009800127577725835,0.2788902885422495,0.1639061699034605,-0.4000830982796681
48.1399,67885.5494,-0.06021329439844918,0.39117068554222456,0.0408568482704452,-0.00958588153046027,-0.005166429710163787,0.0366934859685216,-0.017566890626974134,0.03682052824190895,-0.22931313428570926
48.1585,67885.5694,-0.08210691019604567,0.4122803708893188,-0.007069555007842392,0.032880125042085505,0.0045615571447446416,0.0425530642409937,-0.03347853162113481,-0.23135618976977396,-0.28786283622649655
48.1778,67885.5894,-0.11593296210088179,0.42958125585510787,-0.05324179801381709,0.018969473870446906,0.007352859488021852,-0.03469106961530251,-0.37199365251329886,0.08567405201455816,-0.7871616833326436
48.2015,67885.6094,-0.15444962212619007,0.4422027326061724,-0.087283036115965,-0.007715293301636622,0.0039023938321889116,-0.062320023408915654,-0.3357471369429472,-0.10681897912614605,-0.5301935470369723
48.2206,67885.6294,-0.18560013508379147,0.45005910209098576,-0.10151152019160248,-0.025236671728287616,-0.009314849314509108,-0.006426472066822946,-0.23932453882234234,-0.41966417536735673,-0.722106458953994
48.2416,67885.6494,-0.20587260889792797,0.4500735132232281,-0.09277401134422408,-0.0014589198657779605,0.0011696469604715837,0.01861138635247551,-0.2094695686282626,-0.419374115755514,-0.6700622794510711
48.2611,67885.6694,-0.21623531702230575,0.43844359446775827,-0.06319493466421058,0.020498675279688478,-0.009765543330461299,0.00888942519595591,-0.39033974746379335,-0.5976337580844587,-0.3577972024335444
48.2813,67885.6894,-0.21997263754632035,0.4152601520400011,-0.019807032335130693,0.020762378197867654,-0.024342949166819648,-0.04399342457457981,-0.4678258974944881,-0.38266145802306684,-0.5220616439896388
48.2977,67885.7093,-0.21626539999109906,0.3856621364924746,0.027364147131970502,0.013742392175752783,-0.0035729771225899067,-0.05768646505254624,-0.6240724130648416,-0.2501684268823631,-0.7790297802853117
48.3177,67885.7294,-0.20827951038220938,0.35517560397492054,0.06787390712759442,0.005890834236913319,0.011520138755089025,-0.02016776183620354,-0.28312283821634204,-0.1520675765793612,-0.767645116019048
48.341,67885.7494,-0.19599817220169746,0.33122741918548115,0.09338096395154721,-0.00020394522573569763,0.016989697680387057,-0.010361228887991698,-0.0013030845323137126,0.004292916052584519,-1.068525528770311
48.3598,67885.7693,-0.18284970781048498,0.3178814647366627,0.09951600178700692,-0.006874274330692795,0.006500355890301253,0.012534415205204761,0.23161127380613578,0.07846419937568481,-1.4100654567582294
48.3821,67885.7894,-0.17205450953406898,0.31628878313657083,0.0865723672410694,-0.0004356447647428608,0.012553096758401387,0.02500495959172237,0.14158022106180604,0.19852630486434544,-1.013228588048457
48.4014,67885.8094,-0.16863611091646408,0.32508213283629916,0.0589084910705639,0.02313958100656503,0.0332226452157856,0.03601420100063452,0.027971766438079557,-0.05425678588820205,-0.8083046312557041
48.4242,67885.8293,-0.17167394421313004,0.34188591744238717,0.02348404585729951,0.026951662408761536,0.041478482411392584,-0.014108680875636914,-0.047535837882646335,-0.14324157724675218,-0.6261500029954831
48.4414,67885.8494,-0.17762489837067774,0.3695662643899046,-0.012792063633267292,-0.009894282827955856,0.040650372884827375,-0.05916511608998598,-0.18333350181521466,-0.29164624938161726,-0.3399070157294179
48.468,67885.8694,-0.18166976456962747,0.40141827522618534,-0.043967826583756794,0.030023789697246776,0.0328842278344221,-0.02568010784855458,0.05271964068057833,-0.40375253437320024,-0.7513813099243857
48.4796,67885.8904,-0.18189360357252554,0.4426886148744025,-0.06758793259084189,0.05670613201496146,0.019239543198992744,0.03022157539658546,-0.37652062924119756,-0.20527199452965217,-0.9904592595159296
48.5028,67885.9114,-0.17933260677868706,0.4804534746362752,-0.08231449952786149,0.03757186953138906,-0.011531931833862441,0.0505231424176832,-0.3104191434767647,-0.3974749660585167,-0.6814469437173363
48.5284,67885.9313,-0.18200010329370048,0.5056971188961102,-0.08872681999606019,-0.021085927952411182,0.013553663133738032,-0.015264224298662702,-0.11618575466500133,-0.5459417436820414,-0.7920408251610433
48.5422,67885.9513,-0.19207729476204177,0.5135935972729094,-0.08816320553333629,0.00037130218339409814,0.03232920286212746,-0.043875511980393495,-0.03998405405900093,-0.2183451448940453,-0.8375794822260989
48.5653,67885.9714,-0.21199266647051646,0.500013555437144,-0.08210782503209518,0.04025892309831493,0.017913961032285805,-0.051896821146281184,0.5434102086615669,-0.4251336703351765,-1.0327451553620526
48.5822,67885.9914,-0.23397329907951508,0.4784564582194384,-0.07334440504047669,0.036163424022257314,0.015114959184401033,-0.024180313863191763,0.408658806114779,-0.6356308652416012,-1.507648293326206
48.6007,67886.0124,-0.25649768991578864,0.45464316381800995,-0.0645245377797611,-0.01208994754964995,0.004721702328215566,0.007085769100057815,0.3522016269455546,-0.6427165069031534,-1.3368783293322457
48.6208,67886.0323,-0.2778554132018173,0.4331467208435996,-0.05858875979790709,-0.03269181288795861,0.0013254330048328709,0.012582122369749106,0.12637291026865666,-0.6710590735493579,-0.6537984733564082
48.6422,67886.0524,-0.2969773354866472,0.41367286460868313,-0.057735307846839196,0.0017433982034698965,-0.00156498917802413,-0.008561909807052173,-0.40114429250637057,-0.516024667999302,-0.4212260462027325
48.675,67886.0724,-0.31393659160746096,0.39320894543948204,-0.06236547962612919,0.051257756874583345,0.006306293479748957,-0.04616328737104273,-0.11607177760340887,-0.366169697805223,-0.44724813595419244
48.6805,67886.0923,-0.30850579288333535,0.39499469236680596,-0.0716488356834443,0.06001130670268967,-0.00020080617646368184,-0.052554963166245215,-0.044397053725302754,-0.3295191455614355,-0.6960843692025325
48.7013,67886.1124,-0.29588322236369435,0.4052036472088605,-0.08196568779907348,0.019989896669299182,0.006532013890317297,-0.03245886222881004,0.6176435974733301,-0.6336004479587016,-1.1433390368057579
48.725,67886.1324,-0.2753266446828166,0.43100122462732426,-0.09101474909011958,0.0007286364683413128,-0.025205465707766963,0.01609700193024064,0.9769495011880548,-0.692212255388151,-1.2799550080009274
48.7412,67886.1523,-0.2511259926098299,0.46154618688319793,-0.09710138353805539,-0.028138705587875817,-0.04565078159533271,-0.015119476424420217,1.0106373518247511,-0.6395879566615426,-1.1612292235098876
48.7709,67886.1724,-0.23568756663527257,0.492096066792336,-0.1006482000362525,0.013994217366391759,-0.03645662750386785,-0.032999362718022666,0.8277886272792496,-0.5138905075705452,-1.1953832163086793
48.7857,67886.1924,-0.21931535663363555,0.5181977881190764,-0.10115678234446299,0.052078269069366245,0.0028152690901831648,-0.024790748718611443,0.45767817852194925,-0.37366961005594224,-1.122196088882699
48.8023,67886.2123,-0.20813449303281434,0.5395691727047922,-0.09751481454873319,0.04932054837659997,0.003460710475715719,0.010601190787419171,0.5015904549775387,-0.4614941629671212,-0.7318647426107926
48.8261,67886.2324,-0.20230236878879254,0.5557988479692887,-0.08733826381677409,-0.004562015639289637,-0.024384161492505062,0.0163143948050393,0.02530935835856657,-0.8289319697291772,-1.009975826829523
48.8412,67886.2524,-0.1996154784926535,0.5593229717923223,-0.0684153513342278,-0.008676396748885325,-0.04426539927331368,0.014554379922161876,-0.05019824596215938,-0.9179167610877272,-0.8278211985693018
48.8632,67886.2723,-0.1998849505550538,0.5500173755331268,-0.04200758048704889,-0.0036674794139713923,-0.04268323394314156,0.005331446549313513,-0.31296757449468676,-0.9923781040226703,-0.5383254500843033
48.8808,67886.2923,-0.19458415832572185,0.5240440422502791,-0.011785237990788192,-0.0067821341299809,-0.04437392451112254,-0.02174020082212253,-0.3961409397006473,-1.1860313736107488,-0.4895340318003153
48.9011,67886.3123,-0.18370136952095584,0.4915839035097487,0.015801831219789106,-0.013927133640151159,0.0016760745092179834,-0.01789814769569335,-0.17588546113742398,-1.3865423307371934,-0.6147653387292186
48.9208,67886.3324,-0.1713500146371157,0.4626572882453711,0.03529536232622151,0.019692087282596558,0.015687632663722556,0.029639060074961626,-0.22734952141666007,-1.223614210178726,-0.7936672057705086
48.9412,67886.3523,-0.1667704240215005,0.4429493677940888,0.0439424364512102,-0.004556856437767044,-0.021954479895550254,0.04023140592098058,-0.39068167864856496,-1.1369498957149182,-1.3921752700541006
48.9618,67886.3723,-0.17579874972002196,0.43036862779037954,0.042161174008910014,-0.012203608473508895,-0.05797097582406654,0.01946713361648968,-0.4943038954923096,-1.0497054620274229,-1.8865949753318512
48.9873,67886.3924,-0.19635551941450824,0.42130227215151284,0.03262176278593241,-0.0009045239043049031,-0.02008914496247453,-0.017499955509809026,-0.522076576830561,-0.33416009935092006,-1.5287912412492684
49.0016,67886.4123,-0.22086807257513608,0.41307733255891166,0.01964924218674241,0.008551603646912114,0.043458599935091435,-0.011311848354224734,-0.7359405100175105,-0.3264322329770225,-1.1986359775276136
49.0247,67886.4323,-0.24130523621618627,0.40920543543686005,0.007986175333628706,-0.011685708360219038,0.03201322394935373,0.05599835273945143,-0.47874441959865793,-0.4808244138147284,-0.9302831769656779
49.0429,67886.4524,-0.25869973595265966,0.4077850160585983,0.0016397045057732068,-0.011012726742768103,-0.014532739285548138,0.0699597460179798,-0.7922837121251424,-0.1537458287617565,-0.6830733243268023
49.0717,67886.4723,-0.2682835691203538,0.4074049743639363,0.0019847959006624102,0.03457101383510078,-0.031790220441285905,-0.0004668713868686861,-0.7712547412636734,-0.3758037704846976,-0.3480389187767467
49.0805,67886.4923,-0.2587360398496831,0.4087587860241044,0.0070869496644010085,0.041015526563279496,-0.008039245897643345,-0.04091116225620629,-0.5249771729489888,-0.6283589071140651,-0.487907651190847
49.0995,67886.5124,-0.23409250399109888,0.4114737294926405,0.012378596415824707,0.022607468668623232,0.0275568698916692,-0.02492384086515276,-0.6112893223122927,-0.6357346083874602,-0.3691818666998096
49.1205,67886.5323,-0.19596219916134416,0.4196045400557491,0.013080672751667709,0.032657369057109864,0.012947069114695937,0.03488684817483948,-0.1668315076816369,-0.8046502376487731,-0.20817018636264858
49.1407,67886.5523,-0.156548459124158,0.4307224335652944,0.00643450730366401,0.011768444265257184,-0.011855081301598715,0.05334870766319595,0.0013797913786664773,-0.9010728357693779,-0.30412664232115943
49.162,67886.5724,-0.12811286707578606,0.4376531892450455,-0.007362002070362691,0.0389191039651589,-0.008726400701402133,0.027899374949702526,-0.04171417781432258,-1.234884897383398,0.06831451724661891
49.1815,67886.5923,-0.11777169137501627,0.435320883583344,-0.026005199572850794,0.025049610187324663,0.02145258685426634,-0.0164222072926027,0.1526331880590306,-1.203579629130106,0.3025133250097643
49.2024,67886.6123,-0.1258108967794831,0.4236732106609633,-0.04638325861291859,0.0024451356488319385,0.037341535931251786,0.0020822091550348086,-0.21317823809355765,-1.1319567768249263,-0.11058734979467018
49.2247,67886.6333,-0.14859066315332337,0.40704264870232665,-0.0657434134422491,-0.002533258838720224,0.02225832490635611,0.026857407105904462,-0.8760269626390578,-1.2462593277339276,-0.14474134259346505
49.243,67886.6534,-0.18058307214090885,0.39101190293906973,-0.0823176429164544,-0.0016024671692383514,0.017336741567392365,0.005922093773984692,-1.042383926966712,-0.7935453990786181,-0.3285223514631535
49.261,67886.6733,-0.21247701943689024,0.38120230888431716,-0.0953556453852439,-0.006686844183867515,0.02444549559665069,-0.015849179191200744,-0.9751222027549103,-0.8680688475022225,-0.43586347168792566
49.2809,67886.6933,-0.23597186484755744,0.3833725456133962,-0.10479175440766969,0.016835189176724455,0.03299142887546675,-0.0019173318270776835,-0.6968971414745846,-1.2445189700628707,0.16752373442406318
49.3057,67886.7134,-0.24723773900600937,0.4012975266257611,-0.1106880560560132,0.02058391133424514,0.010233984560425378,0.00802581709232932,-0.14022929870649053,-0.7978546555990635,-0.4309843298595287
49.3215,67886.7333,-0.24351724111167888,0.43735215551656825,-0.1130819300039296,0.018223263124248587,-0.007664719019581513,-0.015168538906139112,0.2668217619064419,-0.8919567768249261,-0.11058734979467172
49.3448,67886.7533,-0.2301244315096317,0.4840685906469677,-0.1117721107642641,-0.00792642954394824,0.0025046663168121416,-0.050224359752880025,-0.1478950595917269,-0.9025231338285918,-0.5643475398357647
49.3625,67886.7733,-0.21112369892622118,0.5304815368647088,-0.1064387014812759,-0.0265536706339965,0.0043191484969086575,-0.007153464199254372,-0.4551567838035302,-0.9479996854049852,-0.45700641961098865
49.3845,67886.7943,-0.19750796235292184,0.5655667516243279,-0.09692864020659579,-0.008759586037293031,0.010880979303501721,0.03119577738165576,-0.5312445073479409,-1.0958242383161647,-0.06667507333908068
49.4084,67886.8144,-0.20020058210317188,0.5807223964085898,-0.08318553386595298,0.008687577528726955,0.021196652171461747,0.015492259406954098,-0.5834026639124504,-1.1715079251871416,-0.38219291157554075
49.4249,67886.8343,-0.22351953297453037,0.5733725939195329,-0.06579847283001639,-0.003078203663674608,0.009908214556264878,-0.017838242676578006,-0.4848977769360175,-0.7685176991400098,-0.1642579099070606
49.4452,67886.8543,-0.26178360608108714,0.5479238008475633,-0.046402953870359594,-0.06889313492940699,-0.0020219229122703315,-0.03987407355423662,-0.5630780232519895,-0.7921572065080655,-0.46513832265831895
49.4627,67886.8744,-0.30505028345060914,0.5107234003602684,-0.02728838556436889,-0.04095518905949453,0.026402185347904724,0.021413640142585916,-1.057715448737186,-1.0028823555376716,-0.5952487714156247
49.4861,67886.8943,-0.34237184169889734,0.474319528479606,-0.011401544170598191,-0.018745035667757575,0.024121878564430814,0.03895984734781287,-1.647501256834026,-0.6033107393439934,-0.6050070550724195
49.5082,67886.9143,-0.37001432664026435,0.44747534315606974,-0.0013157191143115948,-0.013501125965280948,0.009364059159477562,0.015616677523578272,-1.7928190163844768,-1.2126752202430897,-0.17238981295439249
49.5252,67886.9344,-0.3807014405017822,0.4390902295443888,0.0013795431663008104,-0.0033826915090582606,-0.01758280975296782,-0.03581788031422773,-1.7806262787713478,-0.8170606954693497,0.16427097320512898
49.5469,67886.9543,-0.37051414024580154,0.45268540320305395,-0.003242967475936491,-0.0012231348434080154,-0.00236192308426831,-0.038548031230651786,-0.9005468827583741,-0.5372194874952945,0.48792071448892005
49.5627,67886.9743,-0.33795061574748786,0.4837312222062179,-0.012910263951868593,-0.0038700872778329514,-0.0019480182154184317,-0.004636369142670397,-0.3729157029217577,-0.512481847168529,0.6001409765420931
49.5832,67886.9944,-0.29449218347396644,0.5223788129641405,-0.024014098406775892,0.02216798387438121,0.008885839480153243,0.03317941959833479,-0.35201094303761205,-0.07429136693682338,0.30901884744762786
49.6034,67887.0143,-0.25503677863838525,0.5567872704314126,-0.03232830047897879,0.020747118412173384,-0.0066024295954311045,0.02563030293606215,0.1335725289917957,-0.44545831099563754,0.03253414383836046
49.6253,67887.0343,-0.23054951804858104,0.5788079681817405,-0.03474867095002889,0.00016475746761187966,-0.010627707706308097,-0.021693848974752735,-0.02464229837279344,-0.8490286562664582,-0.28948921683596324
49.6471,67887.0544,-0.22211992558347837,0.5871429191870319,-0.03068313067514389,-0.01553652658148265,-0.003665139608119036,-0.026813695133352584,0.08130039536569691,-0.7009140437434358,-0.6277763836049483
49.6674,67887.0753,-0.22598057011183237,0.5852564504095122,-0.02211581741453239,0.0002625221380162301,0.0044467629528832,0.045066906536358746,0.0710759695468019,-0.5604651921056484,-0.899381945385818
49.6926,67887.0963,-0.23726826766024928,0.5795531531600862,-0.012567791006059991,-0.017399745297315136,0.003741297823545951,0.08126905464933848,-0.07761876219990504,-0.5030757286122329,-1.3677795609121073
49.7049,67887.1164,-0.2628616674257366,0.5624130539257818,-0.004767648664455289,-0.03858688575385869,-0.003984421263366949,0.06107049173350694,-0.15057793550270712,0.002842617993370591,-1.3287464262849162
49.7238,67887.1363,-0.2912568288830126,0.5424913389180439,-0.0014553770514873915,-0.016448580526905128,-1.1031717274080629e-05,0.0011619487935118015,-0.24199718081758861,-0.3543188913768655,-1.2051414999654773
49.745,67887.1563,-0.31786532557198277,0.5199686291788936,-0.003167945674805994,0.04000732706845553,0.012917153092004597,-0.027076355601781385,-0.011517276435472153,-0.6952787001410975,-1.058767245113514
49.7791,67887.1764,-0.33534179199431347,0.49910713090751624,-0.00887426283811139,0.05326240528531158,0.0230569966582925,0.0004834770159294526,-0.1460407248590793,-0.5462318032938841,-0.8440850046639632
49.7895,67887.1983,-0.34074482009520574,0.48976964290560987,-0.017013504286508493,0.0137202083173999,-0.0023186094058841407,0.0479564427525105,0.07096199248521096,-0.7402372379824699,-1.2441746345926699
49.812,67887.2184,-0.33405952132091066,0.4873451736539671,-0.02500937696169329,-0.015683624797040795,-0.01864094317700273,0.0487170467508709,0.20107244124251206,-1.000458135497072,-1.3173617620186517
49.8324,67887.2383,-0.32262892410294597,0.4842839355634695,-0.03134703866234869,0.005594494747775029,0.0017328177333656057,0.021606095181372756,0.11917329154551429,-0.8966598361030752,-1.3401310905511792
49.8476,67887.2583,-0.30839543748273035,0.48035988877388336,-0.035997042837877795,0.04786271434110035,0.020416378546714953,0.007815200803403437,0.21698408223667276,-0.7322814174853891,-1.2588120600778645
49.8653,67887.2784,-0.29022343429755104,0.47957312108956296,-0.039924907147480294,0.039593040638080404,0.004595725952754856,-0.0007260080306436414,-0.4761857546650008,-0.725941743682041,-0.7920408251610433
49.8852,67887.2982,-0.26631707617209455,0.48727104128475174,-0.04448925484141459,0.023826643107419925,-0.020081478985924193,0.023938867102217213,-0.2666208440827659,-0.665071564846514,-0.6359082866522777
49.9052,67887.3183,-0.23592006170956104,0.5039721904814827,-0.05035831994032809,0.00843363105888584,-0.022895454888856012,0.039125467106543514,-0.21958001738556626,-0.09915321824091301,-0.5968751520250892
49.932,67887.3383,-0.20058419760743718,0.5256547333590625,-0.056683194157577096,-0.007779052906682492,0.008929913042280647,0.034875192447138305,-0.1142174428707624,-0.00987836727052011,-0.7269856007823903
49.9512,67887.3584,-0.17032267167913956,0.5443366281645379,-0.060778039514687895,0.02738517471251017,0.03389145780389532,0.02864073344418424,0.220340586601462,0.2810055737850319,-0.9205248933088771
49.9711,67887.3794,-0.14771950820060958,0.5578922708859384,-0.05933065037872469,0.034135303590782165,0.01000120004735133,-0.009603606587415325,0.11103115458244917,-0.04037556217694506,-1.201888738746544
49.9887,67887.3993,-0.13299231465064998,0.5658858669660239,-0.05031614167605489,0.024045717245376057,-0.03455962726183646,-0.021874919349273318,0.06154564001318494,-0.181404533038415,-1.034371535971516
50.0096,67887.4193,-0.1266288771858617,0.5667565976707942,-0.03459170481411939,0.02712448282653965,-0.009567158424163637,-0.0075825576167185636,-0.09644123322822258,-0.22543078655559584,-0.6668095182321401
50.0284,67887.4394,-0.12999153897289006,0.5591762970440719,-0.016147657240687393,-0.007284078802302413,0.03235996483352049,0.04008665804673809,0.10046479757878767,-0.4392428481696166,-0.2943683586643602
50.0477,67887.4593,-0.14671349810509715,0.5416717876076681,-0.00048362804848389035,-0.08462048431289675,0.027612775854709153,0.024620049514148694,0.04900073729955098,-0.27631472761114456,-0.4732702257056539
50.0775,67887.4793,-0.17381617169160435,0.5164350877585381,0.007611194317394411,-0.07871796016134569,0.018847727551607053,-0.018859880762757738,-0.07122721682362984,-0.695858819364783,-1.1628556041193567
50.0895,67887.4993,-0.21137520916530528,0.48850854355942475,0.005943330105553306,0.001540334899358151,0.04159113743019936,-0.017136459443593304,0.3115421117088968,-0.5613974764298413,-1.452351352604352
50.1122,67887.5193,-0.24339193006884807,0.4685977192793861,-0.0039375324056618935,0.05120459164997742,0.04916262392896083,0.014188444285031968,0.005440625944466287,-0.48919450490097593,-1.761363668402944
50.1301,67887.5393,-0.26860865729001454,0.4649988129661037,-0.01789930872048949,-0.04456655984454173,0.02507492691799912,0.034756195599212364,-0.36455584575124583,-0.1692015615095533,-1.34338385177011
50.1495,67887.5594,-0.2863297519393336,0.47412853859885784,-0.030566013305044992,-0.10107611264922352,0.008584032527362733,-0.004570500727987008,-0.2787098385500375,-0.04089357591196923,-0.9091402290426158
50.1749,67887.5804,-0.3001623969398299,0.48642061915239565,-0.03807957383193139,-0.04419926735091672,0.011500341930749104,-0.03651071845386036,-0.3327223298471946,-0.4728685933176508,-0.9449206024508734
50.1928,67887.6014,-0.31132964396580065,0.4960041062563789,-0.039300764975163494,0.03911653238799858,0.03240874245291851,-0.04287176408091789,-0.05147246147112026,-1.2153683300698026,-0.7562604517527834
50.2137,67887.6213,-0.32226648476648967,0.5055983961380243,-0.03571485658614869,0.060141789815379,0.03251822759815766,-0.013384128314119689,0.15601016025528736,-1.8703335735226163,-1.0099758268295242
50.2397,67887.6424,-0.33401217407342365,0.5203907008824906,-0.029826626763278092,-0.022412010441998684,0.013145828112913033,-0.0011279951046167175,0.029618614879011865,-1.7375504827700698,-1.2148997836222772
50.2508,67887.6623,-0.34735515981687926,0.5361339029867557,-0.023461652345960093,-0.049140018368066786,-0.002428156034950776,-0.003313037453434664,-0.5392521994179459,-1.7398088541761476,-1.2344163509358703
50.2711,67887.6823,-0.35857688738999666,0.5472223083759105,-0.01780560930373599,-0.014255620719274076,0.016383048667463814,-0.01568193305186063,-0.36721825383075773,-0.9438767453505236,-1.5450550473439297
50.2909,67887.7024,-0.36380652487563786,0.5458396097671825,-0.01334713583477809,0.03207372623710262,0.036734354754710416,-0.010679728424012176,-0.5233507923395203,-0.6316116683329984,-1.4572304944327508
50.3139,67887.7223,-0.35977839622004426,0.531602601374461,-0.011136510150223492,0.045155078044305866,0.01972165114030392,-0.014572741476204628,-0.161372246629552,-0.7555687597529408,-1.1108114246164353
50.3341,67887.7423,-0.3443494001973247,0.5131486684573262,-0.013759996406621993,0.05610937226994979,-0.007056937310983924,-0.015069871815831496,0.5172741418485145,-0.552861536709075,-1.3629004190837073
50.3523,67887.7624,-0.31889403003914435,0.4954584328220355,-0.02488550552315029,0.025110923768175957,-0.003700040307436253,-0.01702044429345138,0.10464984312190724,-0.6876129392558613,-1.12544885010163
50.3722,67887.7823,-0.28849939958963156,0.4830055962782063,-0.04884261052879639,-0.008170968928240662,-6.625491460301181e-05,-0.024014965167896023,0.1376333635575955,-0.033579980127235565,-1.424702882243424
50.3936,67887.8023,-0.25911662307209804,0.48176710776913256,-0.0882353193150309,-0.012824986437829622,0.021451780104574904,0.0038864073778027346,-0.10306073272768113,-0.39219178755668554,-1.5613188534385936
50.4121,67887.8224,-0.23750312552937264,0.49962309567869556,-0.1407002824026819,0.03789824799820659,0.016525311232502483,0.03398176736567149,-0.39812971932635116,-0.04205381435934035,-1.117316947054298
50.4323,67887.8423,-0.22460162796709826,0.5425054317954038,-0.196370391591945,0.08260831105802058,0.021785185112874507,0.037172455058009424,-0.21086799511454954,-0.05657726278294432,-1.2246580672790721
50.4542,67887.8633,-0.21402203232927314,0.6109231775165213,-0.23886544499273688,0.0432479903953276,0.028425826438260464,0.028725305235876488,-0.07436600098097168,-0.5095812510500997,-1.092921237912304
50.4771,67887.8833,-0.19485640038909036,0.6960307039300614,-0.2499640040158799,0.00928293433362267,0.029155938561670324,0.06088671072463725,0.0996464903161872,-0.017606233644417626,-1.057140864504045
50.5046,67887.9034,-0.15711210910136048,0.7797561133385452,-0.21643053149663277,0.003266334181297283,0.028369138866321104,0.10307881862228128,0.17074109497060688,-0.0397954429532595,-1.0978003797407012
50.5169,67887.9233,-0.11940175423798217,0.8361981726730735,-0.1362122954982827,0.025670411068730938,0.04343098509145379,0.11690088529526538,0.20558918405467586,0.13050837887860464,-1.395428031273033
50.532,67887.9433,-0.07635937405512506,0.8528887547484038,-0.021684572164768094,-0.017293132220096017,0.0187880716691077,-0.019590396719843008,0.3528854893150985,0.43591576835776047,-1.481626203574746
50.5515,67887.9634,-0.04502891623088398,0.8225359686254051,0.10237911150887191,0.017995042527264894,-0.0004782778256141354,-0.06367100356851231,0.05201531047957036,0.19765612602881708,-1.1693611265572195
50.5745,67887.9843,-0.03917516707500447,0.7508870228361141,0.20521292455465762,0.023781673763334676,0.03498845970224631,-0.04675935586441212,-0.1956504504056695,-0.02701235220070914,-1.3027243365334549
50.5945,67888.0044,-0.06643939057361957,0.656565114518959,0.2595299358262166,-0.011956408127457345,0.06309462348383035,-0.007404197876547083,-0.4056815031499966,0.03304975328795276,-0.9058874678236825
50.6142,67888.0243,-0.1343028588751526,0.5582709989361225,0.2514887558707008,-0.05105528351038291,0.09426237424968148,0.04513684090256581,-0.8736027425984598,0.008892232184871052,-0.9140193708710144
50.6344,67888.0443,-0.24069875781140948,0.4748466845591016,0.18472514497934742,-0.04299221084634766,0.11783622892161098,0.08333591334053522,-1.2800736839877058,0.161834114963363,-1.4425930689475552
50.6566,67888.0644,-0.3702216600986474,0.42096679801455894,0.078788744555458,-0.025102652222713746,0.11930711167434314,0.07236218124159642,-0.9594589837154005,0.7206047144187551,-1.6296268390361777
50.6866,67888.0843,-0.4948683504802208,0.40249404346739615,-0.037078036972716145,-0.004694987896817085,0.08523178302254983,0.03197752432793923,-0.6357054992857541,1.0930977455594622,-1.886594975331848
50.6957,67888.1043,-0.5970512545646174,0.4288055511467549,-0.13463544546961478,0.02875576394499219,0.03786027933893129,-0.008079416892910507,-0.15000805019475397,0.9017028473774662,-1.8182869897342646
50.7125,67888.1244,-0.6427611709682547,0.4784474631806567,-0.19030004380298887,0.05077762901830269,0.005436549192310266,-0.01137771676890813,0.47160103989040264,1.0384846672071522,-1.6914293021958968
50.739,67888.1443,-0.6320514368714656,0.5352170368674148,-0.19621256586441269,0.058849948811536164,-0.018048090394156658,0.003836531705779088,0.5700021837209782,0.42168237954599935,-1.5369231442966003
50.7695,67888.1643,-0.5793220953566638,0.5847521690714687,-0.16006377855263698,-0.008711127116938408,-0.019135938537207523,0.005280486623550243,0.212446871593045,-0.1832069961981344,-1.7434734816988176
50.7886,67888.1842,-0.4984456206046556,0.6168347105527479,-0.1006185265776928,0.044963474526507674,-0.03548514182409969,-0.028946422239232703,0.2639109318722799,-0.3461351167566066,-1.5645716146575268
50.7934,67888.2042,-0.40635933715630285,0.6291536513031082,-0.04156726949535319,0.03677172870088161,-0.04169165017284757,-0.06153095774988961,-0.1870421712805086,-1.0042289104510282,-1.9939360955566219
50.8162,67888.2243,-0.32992362478471576,0.6286228348829779,-0.0038987459257264906,0.002759713246809238,-0.016427619264702813,0.008542192935834863,-0.14324387188650736,-1.271825509239027,-1.9483974384915688
50.8324,67888.2443,-0.27301905862505915,0.6216748404958846,0.002787788866599708,0.04106539487703046,0.00041101747485473167,0.08436432801258771,0.08153858340461013,-1.1813904198212628,-1.8703311692371873
50.851,67888.2642,-0.24136106861517004,0.6140856993470748,-0.01920869236437329,0.10732570135884027,0.016330404511235106,0.05541936124248143,-0.19076107466153597,-0.8767911036889725,-1.7158250113378901
50.871,67888.2843,-0.23202311662401204,0.6121012019431993,-0.05824996422359379,0.08474437115845888,-0.0001969350880020872,-0.033644222629676056,0.3819426200780402,-0.8221984931681291,-1.6296268390361768
50.8983,67888.3043,-0.23338694096579105,0.6187534168380624,-0.09894863067697948,0.009049962253759102,-0.010678117278602541,-0.023262764136017876,0.16610014118112165,-0.5105135353742895,-1.6458906451308375
50.9149,67888.3243,-0.22544272961755485,0.6339280106298828,-0.1278533459098469,-0.02879832322569024,-0.005851546319703859,-0.010028634053355844,-0.1266381346070738,-0.765036983797895,-1.753231765355615
50.9335,67888.3443,-0.20482530015351236,0.6492502548144158,-0.1369305349072349,0.02369361811565912,-0.009435429002402579,0.013395583737917154,-0.3026291716142042,-0.9530549097836367,-2.135431208580188
50.954,67888.3643,-0.17645418250646966,0.6566341168337935,-0.1244974956152344,0.07423771968855572,-0.03477363214819579,0.03806994609099989,-0.9818659132316877,-0.3745814265486637,-1.9565293415388985
50.9732,67888.3843,-0.14953372213527416,0.6512623747753312,-0.0940938663058479,0.06227869979881934,-0.056045592368723016,-0.012698337823794752,-0.950736727528647,-0.07683979795474565,-1.9760459088524938
50.9948,67888.4043,-0.13322993741611416,0.632389730699921,-0.05266217186412489,0.03691303789776936,-0.02671426856662307,-0.06944275728807324,-0.51580924243161,0.13330523185117485,-1.950023819101034
51.0233,67888.4243,-0.13085774035500036,0.6050975807444544,-0.00883248723835139,-0.03579957316173232,0.002660953552380323,-0.08282922502115525,-0.11898260763757063,0.1796519622630997,-1.9012324008170436
51.0405,67888.4443,-0.1370403721088317,0.5749791888549424,0.029184840011402903,-0.04324756680825119,0.011446940845418047,-0.009583547893231903,0.48218786472553415,-0.24268898246310902,-2.0362219914027455
51.0622,67888.4642,-0.15800737053170577,0.5496808503329083,0.054067762605929805,0.016216471655498395,-0.004251136082081118,0.07680951901818193,0.8446325525976,-0.4875783582072434,-2.242772328804963
51.0774,67888.4843,-0.19663639276844536,0.5308135199073131,0.060934718082374904,0.0198747019690686,-0.025617596709221542,0.05159980638114988,1.0205096125431379,-0.47933247809831997,-2.2053655747872405
51.0962,67888.5053,-0.2460994258493014,0.5244564566129682,0.047046967972217406,0.010958941626495687,0.00015392397592428988,-0.025836240387063347,0.8306892233976793,-0.2196916998074002,-2.2362668063670976
51.1197,67888.5253,-0.29652398009852726,0.5333428944476843,0.013003702867143009,0.00048219993600270036,0.04371740735691025,-0.039079857689947255,0.5730269908167309,0.055632765354494566,-1.9516501997105014
51.139,67888.5463,-0.33755664108892147,0.5619258406949105,-0.03742575486421669,0.01432124701751497,0.03985931319388572,-0.008260758330865994,0.13182193740500833,0.21804287217794086,-1.8378035570478592
51.1547,67888.5673,-0.36681995675598794,0.6043533946132332,-0.0968775600570759,0.009534734173470394,-5.7661118025121776e-05,0.047520301685738627,-0.3342449673108045,0.5501766816095686,-2.125672924923391
51.1747,67888.5873,-0.38326676645032726,0.6500388597760767,-0.1551714237028627,0.0162863879305208,-0.03310096863212594,0.05932592746641943,-0.4554052057581775,0.3724971585043094,-1.7093194889000218
51.1957,67888.6073,-0.3851617388039609,0.6865280817018099,-0.2000305751647446,0.04365071277191293,-0.02001961831491021,-0.0036312659260202404,-0.47073672752865015,0.1631602020452528,-1.9760459088524938
51.2161,67888.6273,-0.36297054098057197,0.7063124246691658,-0.2184625114886942,0.03042711563519639,0.01435757595852289,-0.061731544691723775,-0.1532505774979534,0.06818790198386185,-1.8117814672963994
51.235,67888.6473,-0.30882342513733707,0.7063031196124833,-0.19955078497522688,-0.023897856516865903,0.023447520262647473,-0.04539861742115866,-0.030691912564296146,-0.11692942788345036,-1.6735391154917665
51.257,67888.6673,-0.22656714512435316,0.6846999251375364,-0.1384142271781354,-0.02288150876446264,-0.0036351752421590554,0.03515818267318544,0.2910932600711127,-0.28049977315426766,-1.9955624761660908
51.2752,67888.6873,-0.13328866395786237,0.6417450683868748,-0.04039824611768279,0.025301546781046267,-0.02852128633317687,0.036524613448572024,0.5724468715930444,-0.0032069961981346998,-1.7434734816988176
51.2984,67888.7083,-0.053397011023377974,0.5848824310052022,0.07636511617196312,0.05665466983233281,-0.049087532435749974,-0.05247825221416539,0.4683585125872017,0.20496972181355078,-1.684923779758031
51.3183,67888.7283,0.0075065758921672165,0.525323902681328,0.1834356395772381,-0.04228073463217025,-0.07846672350674383,-0.13640626824849816,0.3775193864960066,-0.0933520260040559,-1.7694955714502758
51.3352,67888.7483,0.04510465438908262,0.4781825500640763,0.24894899625320613,-0.06612547321415527,-0.016097246342773815,-0.06250380441778534,0.3139765656652308,-0.1462663843425041,-1.9402655354442346
51.3558,67888.7683,0.05505521579235212,0.4569175515842415,0.2495409266309099,0.004330901989356133,0.0830500032502034,0.07328406798372888,-0.09051583001404634,-0.2972815929839543,-2.12242016370446
51.3766,67888.7883,0.030432296912536426,0.46802902510254274,0.1802392088640316,0.053568628568740555,0.09880455009143456,0.12734658582299746,-0.5159129855774675,-0.8864872818571099,-2.0134526628702174
51.3999,67888.8083,-0.03161848427121247,0.5115618452940913,0.05653378970356251,0.0715776468388233,0.08906651355126906,0.07130123895735457,-0.4263480749952317,-0.8856171030215815,-1.8573201243614548
51.4229,67888.8281,-0.12467991277997188,0.5855402419737222,-0.09211387122359088,0.05814784166521942,0.10370612389847683,-0.019669547242837024,-0.07773273926149421,-0.6828477744890544,-1.712572250118956
51.4408,67888.8493,-0.22746331590375457,0.6815501498717643,-0.2320888917992989,0.02184940594034022,0.08588299534823524,-0.028330295051679884,0.09698408223667088,-0.7922814174853896,-1.258812060077866
51.4664,67888.8703,-0.3145996773193754,0.7730322986050658,-0.3335102303263544,0.0033149889443734484,0.07286182934016876,0.08519866126524393,0.2492735063870863,-0.3168602657862123,-1.6946820634148279
51.482,67888.8903,-0.40417959903516776,0.8450235955091318,-0.3810420576566415,0.028566490627676442,0.10604882597356277,0.16982466564447266,0.062011782175280444,-0.30233681736260704,-1.5873409431900518
51.5001,67888.9113,-0.49142229466496823,0.8803899562212286,-0.3720763401583782,0.014941991477052686,0.08871782427481027,0.16717664694882664,-0.1735752181584159,-0.31116281669521123,-1.7288360562136205
51.5302,67888.9313,-0.5723753017841327,0.8796863872357835,-0.3177325575335818,-0.07510180836166185,0.05682542395223937,0.07040320579749428,-0.19077130857726926,-0.03677063585750617,-1.9971888567755545
51.5451,67888.9513,-0.6741007371071391,0.833663469914475,-0.2374069813673114,-0.10764287897018052,0.039437565169276705,0.07437591149955058,0.04726037962849263,-0.45283401226903125,-2.0622440811542067
51.563,67888.9713,-0.7620700017886975,0.7612537691457911,-0.1509718298918465,-0.057980947210085655,0.028073701649087002,0.10792895666314464,0.33418722926410177,0.053312288459752326,-2.3680036357338694
51.586,67888.9913,-0.8185456494121734,0.6776935276195002,-0.07363713923222939,-0.016192170872011233,0.005586148972938127,0.17703793471089052,0.19966378084049463,0.20235918530696573,-2.1533213952843187
51.604,67889.0113,-0.8476465167852066,0.58903780875236,-0.013455704825825292,-0.01923333896772751,-0.025601514835629335,0.19234109199222854,0.33488132554937655,0.29192409588920143,-2.2313876645387
51.6204,67889.0313,-0.8413996791613066,0.5120737750663384,0.029399128010536506,0.022428800044660975,-0.040495792860406284,0.1290851866945169,0.6948813255493758,0.47192409588920115,-2.2313876645387
51.6452,67889.0523,-0.7970093401593414,0.4626517783754074,0.0593254988148603,0.009089026360797541,-0.05779624549267942,0.024152736152362027,0.8060553262167711,0.3095760945544163,-1.948397438491568
51.6679,67889.0723,-0.7142273062147695,0.44137129608019376,0.08216717909609941,0.034365404248285755,-0.10223900126765585,-0.018263812269388363,0.446749422502048,0.36818790198386253,-1.8117814672963994
51.6807,67889.0923,-0.5857839305078197,0.44900851699689537,0.10126720738230291,0.06987159014835496,-0.10912137306779426,-0.008307652305105629,0.5114524817801924,0.5387817834275708,-2.057364939325806
51.7006,67889.1123,-0.44229935871428716,0.48291184979403656,0.11383411585976821,0.13305282717783629,-0.1298038471267569,0.032321774890276225,-0.08274632598295074,0.8271793989538588,-1.9256281099590375
51.7221,67889.1323,-0.300306591179082,0.5331674648923639,0.11708892449166391,0.16299631896442043,-0.13287083069992517,0.008821117210358309,-0.12340584121960867,0.9084984294271711,-2.041101133231144
51.7439,67889.1523,-0.17876040859149045,0.5891716588180058,0.1086805357176277,0.13698751286059113,-0.09369321849226661,-0.00393865186120938,0.4962349370713108,0.5092168728453356,-1.9792986700714266
51.7676,67889.1733,-0.08985074501555328,0.6401722721071691,0.08905997238904592,0.09913376276913376,-0.09006571830935184,-0.03154077037476634,0.128103034023981,0.3454806789399965,-1.5596924728291275
51.8017,67889.1933,-0.03909757644827448,0.6758954856936931,0.06219414149911231,0.09137899992601484,-0.05500619262311402,-0.0047491315315934075,0.048648572199046336,0.0243896025898655,-1.7890121387638707
51.8103,67889.2143,-0.004164991511121471,0.7028414720897577,0.033276176335003814,0.09572402648696306,-0.025216245745010486,0.017240618562130345,-0.13803303278906903,0.09775281256609883,-1.8898477365507806
51.8282,67889.2343,0.0030879245118828197,0.7104322036871794,0.00926854794239191,0.10039373296671296,-0.034545658704510235,0.006163340231055511,-0.4490136603819023,0.17971406775175935,-1.5043955321072713
51.8445,67889.2543,-0.005695369467509273,0.7077526690961743,-0.006839451720983991,0.10674293531194688,-0.04297406339497807,-0.027717691688780934,-0.0033956073038734925,0.12847796159570515,-1.759737287793478
51.8653,67889.2743,-0.02764447948253368,0.6988502722424969,-0.015566278606414592,0.10428375696284871,-0.03377570669678173,-0.01720449636575599,0.28376943037064795,0.15414788624666353,-1.0945476185217708
