AppTimestamp(s),SensorTimestamp(s),acc_x,acc_y,acc_z,gyro_x,gyro_y,gyro_z,mag_x,mag_y,mag_z,yaw_deg_ori,yaw_deg_ori_cal,yaw_deg,yaw_error,Quat_w,Quat_x,Quat_y,Quat_z,q_w,q_x,q_y,q_z,quat_angle_error_deg
0.0567,67837.4199,0.980670896483157,0.839990388420589,-0.524460885262128,-0.7344774151456941,0.6720514557031255,-0.4234032708605191,-0.13517401615387925,19.24095627042045,-29.030416964382336,-80.225815,-56.64031469738442,0.0,80.225815,0.7108428027428629,0.42458308,-0.20798437,-0.52074391,1.0,0.0,0.0,0.0,89.39294097996898
0.06,67837.4399,-0.05427250208902468,0.17556543296195315,0.07885241461303494,-0.5757172204412138,0.5469225623226154,-0.39625681757167924,-0.13711322711395013,19.24806103989481,-29.169505637339274,-79.848419,-57.84493847761085,0.0,79.848419,0.7125506237580367,0.41574448,-0.20905536,-0.52509427,1.0,0.0,0.0,0.0,89.11435631109241
0.0623,67837.4598,-0.8061968177981909,-0.22731881828579115,0.5945052153957029,-0.4181394473180695,0.38401028505204793,-0.3769284972207491,-0.22332888849480348,19.20711509987364,-29.345614971685308,-79.459503,-59.24962263858917,0.0,79.459503,0.7147981231758758,0.40510255,-0.20930602,-0.53023255,1.0,0.0,0.0,0.0,88.74668586552536
0.076,67837.4799,-1.1448804630113125,-0.33913918661884,0.88433791446041,-0.2780542701302542,0.18036590892200965,-0.3745565341536695,-0.29928126214489126,19.331852475400467,-29.395768389837947,-79.312576,-60.284359673605195,0.0,79.312576,0.7164260920267552,0.39744085,-0.20820908,-0.53425032,1.0,0.0,0.0,0.0,88.47961038144517
0.0966,67837.4999,-1.0656946361174073,-0.20047773902255472,0.8725924486329646,-0.18209424852859102,-0.025464371224386058,-0.39484025056217187,-0.22191935946392682,19.613959096402986,-29.292318959686646,-79.509979,-60.982390291937726,0.0,79.509979,0.7161385448440845,0.39391968,-0.20792295,-0.53734618,1.0,0.0,0.0,0.0,88.5268301867834
0.1103,67837.5198,-0.7087429340905143,0.06178888857230902,0.6186646561243396,-0.14868492388855892,-0.1759016458368417,-0.4302244872769026,0.036555352983327793,19.969466650630455,-29.074065700301404,-79.901573,-61.303072455092355,0.0,79.901573,0.7139056654269437,0.39451295,-0.21004502,-0.5390541,1.0,0.0,0.0,0.0,88.89282776718116
0.1364,67837.5397,-0.26126240825813607,0.3297998515762358,0.27237649008112896,-0.17362172431312203,-0.228356901367909,-0.459660084797809,0.3668013339880183,20.227369205991724,-28.874136043225143,-80.240891,-61.53171326637489,0.0,80.240891,0.7107371883032325,0.39603913,-0.2150263,-0.54015678,1.0,0.0,0.0,0.0,89.41014662353594
0.1486,67837.5599,0.10057370479992755,0.513807364585798,-0.040556317432210776,-0.2348716892764961,-0.17766478859542506,-0.4597919542638782,0.6123398389438819,20.327295550139404,-28.776630060883384,-80.403664,-61.910747139199515,0.0,80.403664,0.7078081765687531,0.39596891,-0.22133972,-0.54150248,1.0,0.0,0.0,0.0,89.88627756418323
0.1671,67837.5799,0.28756926201113053,0.6156640051954466,-0.2611309862225699,-0.31282616912446054,-0.05551128691874536,-0.4238050860170452,0.8013259646612507,20.29640279522902,-28.79766056449227,-80.570679,-62.75615625590904,0.0,80.570679,0.7047582240898713,0.39328671,-0.22833064,-0.54452413,1.0,0.0,0.0,0.0,90.37997069941495
0.1877,67837.5999,0.40453383260418274,0.7521335216007885,-0.37214185330088867,-0.4125812842424055,0.08645303008854882,-0.37902367930048547,0.8479464896098712,20.12039960385225,-28.96180815528364,-80.610153,-64.11224203240607,0.0,80.610153,0.7027628895252201,0.38660854,-0.23445114,-0.54926389,1.0,0.0,0.0,0.0,90.70181305302415
0.2087,67837.6198,0.6089920994885816,0.9249429647928136,-0.37028494851742266,-0.5688200458543556,0.20435641501897456,-0.3740781987879086,0.321922747169177,20.15571842346604,-29.01294053107933,-80.295532,-64.45483760835592,0.0,80.295532,0.7053678245474093,0.3817549,-0.23178354,-0.55045056,1.0,0.0,0.0,0.0,90.28146459696885
0.2337,67837.6399,0.8471134174451924,1.1480835440246628,-0.2502859876234478,-0.8036356352236317,0.2961041945520086,-0.43319832266596425,-0.26430171876990194,20.266055519977446,-28.989968483493328,-79.766884,-64.17826539985354,0.0,79.766884,0.7093631931776074,0.37900805,-0.22712797,-0.54915357,1.0,0.0,0.0,0.0,89.63374685913823
0.2479,67837.6599,0.9050847961967987,1.2716359188903783,0.07737182964493527,-1.0747012350397522,0.4077887808227781,-0.520038530002467,-0.20639329859726274,20.331406960392137,-28.94953232668687,-79.792618,-64.61431530013074,0.0,79.792618,0.7086014515858643,0.37688494,-0.2293148,-0.55068725,1.0,0.0,0.0,0.0,89.75752156751183
0.2726,67837.6799,0.5605090985793844,1.167291587108095,0.7749779868125142,-1.2782019772537878,0.5573074777159875,-0.5595148234760698,0.46190122408950174,20.222921562442178,-28.952420201012778,-80.001854,-65.89652489130332,0.0,80.001854,0.7041148549338533,0.37289128,-0.2394779,-0.55481952,1.0,0.0,0.0,0.0,90.48384237417224
0.2999,67837.6999,-0.18116851628358077,1.0218618135897222,1.93355750190063,-1.3080157649982143,0.6719072021554197,-0.4937327393579193,1.0958622619340996,19.68066593717624,-29.1633047992378,-79.427834,-68.08902352185717,0.0,79.427834,0.7017808346786024,0.35943636,-0.25292659,-0.56065792,1.0,0.0,0.0,0.0,90.85988838607264
0.3088,67837.7199,-1.1642849253356937,1.0507012422595217,3.4730733797572846,-1.1312482564341315,0.5987585456559816,-0.3280129444041345,0.9377226333695337,19.118248076111634,-29.361775087380664,-77.600098,-69.12977793493515,0.0,77.600098,0.707881791166032,0.34169987,-0.25858483,-0.56149662,1.0,0.0,0.0,0.0,89.8743353275742
0.3308,67837.7399,-2.0608334076099446,1.2811048999362469,5.055844171087376,-0.7741626925972341,0.2506052987638144,-0.1060439572315266,0.039275341394304775,19.087549870539544,-29.237824666226107,-76.085564,-69.07980582610871,0.0,76.085564,0.7184069113308147,0.32624355,-0.25161546,-0.56048757,1.0,0.0,0.0,0.0,88.15378351987411
0.3484,67837.7599,-2.8875285403591304,1.8469081238718188,6.120132881967599,-0.3159891110852245,-0.3487025031241106,0.1191239996079142,-0.30594662637801484,19.35147605937324,-28.967122804428286,-75.732422,-69.70336246239982,0.0,75.732422,0.7225418892168248,0.31537482,-0.24797657,-0.56300938,1.0,0.0,0.0,0.0,87.47051148754495
0.3679,67837.7799,-3.6664854608342328,2.435153366125938,6.226995887095008,0.1071564716616017,-1.0936273795566527,0.3617113214371591,-0.04520410971689337,19.90465038148071,-28.581164812825115,-75.670403,-69.64232701103398,0.0,75.670403,0.7218462935965229,0.3165766,-0.24986589,-0.56239152,1.0,0.0,0.0,0.0,87.58575003047507
0.388,67837.7999,-4.306219569509257,2.7133756008789947,5.304824114438869,0.38983843672306256,-1.8026686299695331,0.6246631837252041,0.7809394414266286,20.678625054831414,-28.094150517885296,-75.777145,-68.61159917971216,0.0,75.777145,0.716038836430332,0.33169127,-0.25828925,-0.55727547,1.0,0.0,0.0,0.0,88.54319922738276
0.4113,67837.8199,-4.5829562169457425,2.5543273177170436,3.6740624872135257,0.5165649275794246,-2.318416917843515,0.879892785019109,1.5859669923657513,21.436865330578453,-27.640159980436394,-75.280853,-65.87230502510525,0.0,75.280853,0.7098161633920459,0.35567963,-0.2694658,-0.54501486,1.0,0.0,0.0,0.0,89.56008030827974
0.4339,67837.8399,-4.278406835328829,2.0093360841441443,1.8501960982849575,0.547559605894028,-2.574234084763344,1.0901801304695184,1.7621234847591616,22.009953519570683,-27.372720315077277,-74.39978,-62.23314695355419,0.0,74.39978,0.7063870629400667,0.37843814,-0.27645338,-0.53044832,1.0,0.0,0.0,0.0,90.11657605711355
0.4518,67837.8599,-3.6520082243878855,1.2560979367025897,0.1005886155645328,0.5519945100553024,-2.581571929732318,1.265987269428557,1.4959586510632903,22.240297662020602,-27.388839112191537,-72.993057,-58.404173046238284,0.0,72.993057,0.7056969934547471,0.3964161,-0.28132334,-0.51546407,1.0,0.0,0.0,0.0,90.22823873424738
0.4699,67837.8799,-2.981885192666071,0.45856584023425995,-1.5057366041189777,0.5797839944138218,-2.3892332521217217,1.4312161272587853,1.0742294962352386,22.1937107625967,-27.566718134443327,-71.008354,-54.39588550316119,0.0,71.008354,0.7066136648442807,0.41144764,-0.28588647,-0.49967679,1.0,0.0,0.0,0.0,90.07988508533877
0.4912,67837.9009,-2.530707235019452,-0.2810942064530839,-3.0160317221292665,0.6291836959176397,-2.056276946061924,1.6043876228731775,0.9051642631116845,22.220409371481335,-27.582329879379262,-67.786163,-47.860015976820875,0.0,67.786163,0.7067671036039394,0.4349094,-0.29262531,-0.47508368,1.0,0.0,0.0,0.0,90.05503389536366
0.5177,67837.9219,-1.8985525276107735,-0.6317839670144765,-4.237537383473579,0.6897403798758692,-1.6448770840931388,1.7807593766107375,0.037536029622476264,22.01906279448904,-27.730889231246778,-67.324615,-46.241907696952296,0.0,67.324615,0.7087120003425263,0.44067612,-0.28887793,-0.46912834,1.0,0.0,0.0,0.0,89.73956693238378
0.5335,67837.9419,-1.5160647912879592,-0.7896294976486923,-5.251847618980879,0.7177281994228816,-1.2081422977198413,1.959386543268762,-0.929323514003066,22.0293051551643,-27.685652744918315,-66.27597,-42.62025465712078,0.0,66.27597,0.7119578619320668,0.45428741,-0.28170681,-0.45539019,1.0,0.0,0.0,0.0,89.21112710815925
0.5521,67837.9619,-1.2860865304557934,-0.7608027648388174,-5.942487617366874,0.6829031037759894,-0.7875943426920022,2.1262207928986028,-2.1009276596050324,21.86417094477596,-27.784570463811473,-64.89122,-39.496575119394926,0.0,64.89122,0.7183438488107641,0.46450141,-0.2711235,-0.44126251,1.0,0.0,0.0,0.0,88.16417146436308
0.5738,67837.9819,-1.203780174390093,-0.7032911978129166,-6.300773552968941,0.569412709369234,-0.4261978220898609,2.262557009528048,-3.238789840093725,21.502338539015387,-28.04219123944821,-63.074257,-36.86285290124666,0.0,63.074257,0.7268667181588243,0.4715848,-0.25912839,-0.42676109,1.0,0.0,0.0,0.0,86.7512817980392
0.5959,67838.0019,-1.2073349136376705,-0.8171585339306828,-6.35214709555137,0.37027133813781277,-0.17843260858705762,2.3648017656928917,-4.046199870023864,21.270545468338096,-28.20725164965659,-61.726925,-34.29624961242602,0.0,61.726924999999994,0.7336569136012945,0.48096189,-0.24624841,-0.41204965,1.0,0.0,0.0,0.0,85.61230286255454
0.6118,67838.0219,-1.123992932845688,-1.2257890165036651,-6.0975147930014995,0.12061098733245945,-0.04086849199147369,2.444138861607194,-4.561994140825487,21.0444512619437,-28.339838220685692,-60.376785,-31.958879617079017,0.0,60.376785,0.7402460445048256,0.49006355,-0.23290916,-0.39702246,1.0,0.0,0.0,0.0,84.49524199038478
0.635,67838.0419,-0.745942408787607,-1.9248099678008719,-5.562237539607821,-0.1272974851850156,0.03165930387243743,2.5101953814156746,-4.799165232831326,20.5959646753263,-28.58058727732975,-58.170635,-29.990286726489277,0.0,58.170635000000004,0.748651664231641,0.49490085,-0.22120114,-0.38165939,1.0,0.0,0.0,0.0,83.05256901796115
0.6498,67838.0619,0.060181144437876144,-2.7540821075523483,-4.836719737394027,-0.33258115933338084,0.09413294343091211,2.5595704834413864,-4.811055084834259,19.89474668030539,-28.930804753296446,-54.701462,-28.071560874296694,0.0,54.70146199999999,0.7595602872399487,0.49544221,-0.21165988,-0.36442459,1.0,0.0,0.0,0.0,81.14910179188324
0.673,67838.0819,1.275212656726312,-3.4240024879964768,-4.037989140459973,-0.47909531120055393,0.2070572270319891,2.57057537934404,-4.7806780034649945,18.852680335707607,-29.418903124767652,-49.678055,-26.066561868269773,0.0,49.678055,0.7745589741290161,0.49038312,-0.20344371,-0.34379274,1.0,0.0,0.0,0.0,78.46987051305038
0.7018,67838.1019,2.639346526784931,-3.788140344619716,-3.2974578504340633,-0.6077511475543296,0.3641899677968776,2.509084489658853,-4.489596917244057,17.865200073233474,-29.844719827606106,-44.067513,-23.671879919608234,0.0,44.06751299999999,0.7892158221842548,0.48488063,-0.19814163,-0.32057613,1.0,0.0,0.0,0.0,75.77542172872467
0.7161,67838.1218,3.9286969967530423,-3.8431361049095454,-2.6695847560966772,-0.7340590592635657,0.5335719688108995,2.352106196630746,-4.112997360430218,17.110368654601935,-30.132501099089694,-38.897511,-21.40389945003274,0.0,38.89751100000001,0.8025374455963757,0.47917193,-0.19357648,-0.29808733,1.0,0.0,0.0,0.0,73.25380333833336
0.7383,67838.1419,5.042787965990954,-3.6413661246863085,-2.125127322522925,-0.8614588583865943,0.6682273995334025,2.0899193345258795,-3.8699865638544706,16.519283234365254,-30.346614910992443,-34.433739,-19.537048733508914,0.0,34.433739,0.8158258136733216,0.47155589,-0.18766715,-0.27720809,1.0,0.0,0.0,0.0,70.66180301658308
0.7591,67838.1619,5.93220120386431,-3.267635683632575,-1.5703783568617329,-0.9920142169338952,0.7243137527435966,1.7293517686867779,-3.671933410549218,16.061366667225048,-30.54535554921828,-30.479404,-17.907952742671622,0.0,30.479403999999988,0.828813663245603,0.46227369,-0.18174151,-0.25756741,1.0,0.0,0.0,0.0,68.04587058607451
0.775,67838.1819,6.551302032540754,-2.8383670894059208,-0.8892677153584003,-1.1119586996376314,0.7025275275081742,1.2968768343170414,-3.1879896369405447,15.762146152075811,-30.75146851540857,-27.108042,-16.54870164062197,0.0,27.10804200000001,0.8396318585832032,0.45177972,-0.18021122,-0.24173817,1.0,0.0,0.0,0.0,65.79746961550353
0.7943,67838.2018,6.885957210314972,-2.381268606548347,0.0037105912351300674,-1.204592473021249,0.6344693972081357,0.8221307751550917,-2.266191404920372,15.543071246000094,-30.97554743535195,-24.082249,-15.344798662877015,0.0,24.08224899999999,0.8480877622770481,0.44011319,-0.18515867,-0.22970371,1.0,0.0,0.0,0.0,63.99142194822247
0.8089,67838.2219,6.931990409940831,-1.902091829548488,1.0994572073544528,-1.254932920022767,0.5336552064387274,0.3280249241090474,-1.0977918944139513,15.438458365673112,-31.120660490088564,-21.266373,-14.099863146696698,0.0,21.266372999999987,0.8544826938292686,0.42946824,-0.19343245,-0.21908958,1.0,0.0,0.0,0.0,62.59473612919241
0.8321,67838.2418,6.67533410757415,-1.4231975616054449,2.3303271622658457,-1.2458533031953882,0.39555446720200266,-0.16879230997506628,0.035705101342116574,15.362904278124615,-31.18496481946351,-18.954762,-13.053322253925211,0.0,18.954761999999988,0.8600258025289582,0.4189899,-0.20159847,-0.21014552,1.0,0.0,0.0,0.0,61.36103975863514
0.8491,67838.2617,6.102549050714754,-1.0073817091984063,3.6326349172012513,-1.164953597801395,0.20379375226738733,-0.6453087434007057,1.1416066790270798,15.21542600653367,-31.225245082629364,-17.624708,-12.654384434338114,0.0,17.624708,0.8646259072673899,0.40680635,-0.21059546,-0.20634967,1.0,0.0,0.0,0.0,60.31996766044466
0.869,67838.2818,5.288440228033379,-0.6940804387388457,4.936474345716896,-1.0125787647662354,-0.05708943636103958,-1.0702578243407328,2.2975782504855244,15.063208082699902,-31.227325697321273,-17.232861,-12.916946851948211,0.0,17.232861000000014,0.8670589231824876,0.39420971,-0.22199053,-0.20863301,1.0,0.0,0.0,0.0,59.76270909254233
0.8888,67838.3018,4.526568108485753,-0.488095698446779,6.1052374981480355,-0.809021234692553,-0.37654454755888733,-1.4164247314951164,3.1725907524834276,15.066285803676994,-31.171938070708585,-17.647827,-13.706388965873646,0.0,17.647827000000007,0.8677916130182026,0.38350642,-0.23172,-0.21486364,1.0,0.0,0.0,0.0,59.59396786752921
0.9195,67838.3217,3.9581231913545274,-0.3808477048562118,7.0375580787153815,-0.5674026375446095,-0.702645243745942,-1.6899683892147597,3.8049442703479417,15.191053539614185,-31.114549983042245,-18.498655,-14.82553817960653,0.0,18.498654999999985,0.866996306882621,0.37421754,-0.24128941,-0.22373658,1.0,0.0,0.0,0.0,59.777109803436375
0.9369,67838.3418,3.392410642547315,-0.3907914097911629,7.651786167047927,-0.2702239290747973,-0.9625758459088875,-1.9137033326097004,4.547974025135379,15.452296563306367,-31.017436901306375,-18.821198,-15.552011031307822,0.0,18.82119800000001,0.8632723387529566,0.36799338,-0.25607631,-0.2318764,1.0,0.0,0.0,0.0,60.6279788237874
0.9526,67838.3618,2.7829234329212698,-0.5295547947534391,7.804451570638875,0.07843323238192335,-1.0949411421217412,-2.0968713199286864,5.28168461063001,15.840247833851222,-30.883235495268682,-18.913303,-16.108644863052962,0.0,18.913302999999985,0.8567442606222242,0.36457944,-0.27434257,-0.2404314,1.0,0.0,0.0,0.0,62.09405855876212
0.9717,67838.3828,2.088940647343838,-0.7697829399686587,7.394026325984861,0.462522432498421,-1.0842971445503886,-2.2464809918152753,5.862016923494416,16.31552305077791,-30.726083546772962,-19.231152,-16.87284627457492,0.0,19.23115200000001,0.8476678416660166,0.36335632,-0.29370409,-0.25133508,1.0,0.0,0.0,0.0,64.08218038312623
0.9952,67838.4028,1.308589919999441,-1.0776278685105618,6.400629372032807,0.854983776652687,-0.9632756761506382,-2.374556766568162,6.132607891661664,16.909734364320933,-30.526968935285037,-20.201385,-18.15099373808269,0.0,20.201384999999988,0.8361948837331159,0.36483642,-0.3112399,-0.26608688,1.0,0.0,0.0,0.0,66.51907316368168
1.0155,67838.4238,0.4821203323109766,-1.352460385094914,4.920528417419089,1.222725279795027,-0.7941686879597349,-2.49555929113865,5.844262447257702,17.628376503849566,-30.310231096579876,-21.809685,-19.774863771807436,0.0,21.809685,0.8241124026546635,0.36947763,-0.32319337,-0.28261471,1.0,0.0,0.0,0.0,69.00278903623762
1.0341,67838.4438,-0.4621947619378153,-1.5181142005880668,3.1433017609120597,1.533665900717163,-0.657181241103353,-2.61362009477664,5.32551210530906,18.38148972735791,-30.05239360248075,-24.427008,-22.146974514017725,0.0,24.427008,0.8098926599155634,0.37597606,-0.33238518,-0.30370376,1.0,0.0,0.0,0.0,71.82910934709135
1.089,67838.4638,-1.4621485481290026,-1.412408002170796,1.2755087552568725,1.763254461376118,-0.621640443675941,-2.7240557515599013,4.679102151278029,18.903536297446635,-29.89677974945596,-27.663383,-25.107616756731918,0.0,27.66338300000001,0.7954909446741701,0.38085523,-0.33996925,-0.32644197,1.0,0.0,0.0,0.0,74.59669755373068
1.0936,67838.4848,-2.3831238750896855,-1.0539655459081962,-0.534416524041891,1.8885617796351895,-0.697404178478364,-2.8255039840130807,4.097756641823928,19.197689581412572,-29.799866274079456,-31.598976,-28.815636779984686,0.0,31.598975999999993,0.7802883592664109,0.38394046,-0.34684998,-0.35133302,1.0,0.0,0.0,0.0,77.42603021831022
1.0952,67838.5048,-3.0872381122126757,-0.5335536606221076,-2.1917426324495253,1.9052309305342197,-0.8290174439248967,-2.9126179999146156,3.767941116947906,19.43208173736634,-29.5995384785016,-36.282589,-33.15330923031075,0.0,36.282589,0.7622752998819473,0.38805339,-0.35364017,-0.37853608,1.0,0.0,0.0,0.0,80.66960805399592
1.1186,67838.5248,-3.459394052448978,0.10915787772003283,-3.596545891166505,1.823110598859195,-0.9524421088402453,-2.976320121689699,3.5425932407636305,19.423422452301836,-29.42571136022219,-41.117065,-37.74072193014804,0.0,41.117065,0.7438326456408081,0.39144576,-0.36033472,-0.40452701,1.0,0.0,0.0,0.0,83.88214043671161
1.1322,67838.5448,-3.528187510554048,0.7582549401998133,-4.676079085804181,1.6777357421880787,-0.9883110125523522,-3.0064584357419832,3.393113510199755,19.263890709841252,-29.26425549926688,-46.295864,-42.776501625391084,0.0,46.295863999999995,0.7241185444719304,0.39459679,-0.36725599,-0.43019617,1.0,0.0,0.0,0.0,87.20885912568934
1.1523,67838.5648,-3.4302121775219385,1.3712300675785873,-5.402904752738196,1.5234072415091902,-0.8942117885543893,-2.9848174206653884,3.211889181163377,18.960909315202038,-29.207010017102764,-51.625427,-48.39790724844914,0.0,51.625427,0.703913020072158,0.39622959,-0.3748385,-0.45497766,1.0,0.0,0.0,0.0,90.51640928861848
1.1726,67838.5858,-3.338126642243995,1.9878481208287504,-5.8130225579435875,1.401260372477195,-0.668835736393616,-2.901677275260705,2.8453535408049735,18.628062002036053,-29.27226211497052,-57.28595,-54.91808378731411,0.0,57.28595,0.684137018784113,0.39539853,-0.38172397,-0.47948238,1.0,0.0,0.0,0.0,93.66444738491684
1.193,67838.6057,-3.3726760564188503,2.701143321177828,-5.968841726854276,1.3203981584540385,-0.33893528810952606,-2.7591108190127294,2.15082448879442,18.54440533811163,-29.32074797484735,-64.076172,-62.31921694100007,0.0,64.076172,0.6650878885911982,0.39332443,-0.38416466,-0.50534296,1.0,0.0,0.0,0.0,96.62186336207195
1.2157,67838.6258,-3.54682236630304,3.5928311384807055,-5.910328866637607,1.2574462155297916,0.03496018576732873,-2.554615368116682,1.028427649796905,18.766083464145293,-29.282035880776846,-71.806702,-69.63793619747199,0.0,71.806702,0.6487268826142583,0.39023638,-0.37935764,-0.53193682,1.0,0.0,0.0,0.0,99.10863417388329
1.2369,67838.6458,-3.7445624195283074,4.636016559156844,-5.606624716103939,1.1918068722347381,0.4001566944120234,-2.2722962225916246,-0.18869382752365205,19.3769180318194,-29.000191118890008,-80.698906,-76.85320684571164,0.0,80.698906,0.6320245117761973,0.3874571,-0.36784318,-0.56134963,1.0,0.0,0.0,0.0,101.60070843011842
1.2548,67838.6668,-3.8025597423414563,5.696064085192757,-5.035018869292522,1.1212479235637878,0.7145908874460867,-1.8958672349185015,-1.2417152579726984,20.212114386936175,-28.511833559069924,-89.697594,-83.6485821023587,0.0,89.697594,0.6143550211754135,0.3847132,-0.35181534,-0.59227496,1.0,0.0,0.0,0.0,104.18986016604475
1.275,67838.6868,-3.655727998484531,6.644372959300892,-4.3197648849855,1.0497991657858587,0.9589650448608837,-1.4351394757227256,-2.1542508396781805,20.841775895468444,-28.092894438477124,-96.474289,-88.82589145691203,0.0,96.474289,0.6002094303429082,0.38046134,-0.3347407,-0.61882669,1.0,0.0,0.0,0.0,106.23020307552898
1.3006,67838.7068,-3.2864946238465964,7.389608540300987,-3.532553677680488,0.9791517505464723,1.1604642936463736,-0.9089482750465923,-2.928919666770229,21.407835218001594,-27.643383562032046,-101.718262,-92.59319345886452,0.0,101.718262,0.5887368033079626,0.37636751,-0.31565517,-0.64194882,1.0,0.0,0.0,0.0,107.86516183233451
1.316,67838.7268,-2.837338193097784,7.851390519521763,-2.6518714466853233,0.9016928149235743,1.342987282117804,-0.33465209651106453,-3.553609924343821,22.10267714740878,-27.009855769150214,-106.101738,-94.88222389654487,0.0,106.101738,0.5790549194500938,0.37604013,-0.29324019,-0.66128618,1.0,0.0,0.0,0.0,109.23180374361087
1.3346,67838.7468,-2.5209769487670535,7.9887814512984825,-1.600963898547846,0.7984165654447298,1.5013799531548668,0.257588973735036,-4.166732404356237,22.81076171279104,-26.259962571277764,-109.213173,-95.58068848956067,0.0,109.213173,0.5732776433957866,0.37873012,-0.2679303,-0.67537367,1.0,0.0,0.0,0.0,110.04179294945982
1.3613,67838.7677,-2.389362419274189,7.806307048752231,-0.3193931111417818,0.6746027314009346,1.6085277031250085,0.8372447325242369,-4.915417419008076,23.32784591038802,-25.563978331083625,-110.688614,-95.32329986607957,0.0,110.688614,0.5728150234357066,0.37922499,-0.2410637,-0.68553603,1.0,0.0,0.0,0.0,110.10647978080418
1.3851,67838.7878,-2.3598113090200563,7.2459431493078155,1.2019098155381016,0.5507434859951629,1.630004502909452,1.4021335413566618,-5.784046952012311,23.648446179596867,-24.966207093082478,-110.825211,-94.50072824400279,0.0,110.825211,0.5771251538152602,0.37653047,-0.21304685,-0.69264883,1.0,0.0,0.0,0.0,109.50281146849966
1.406,67838.8078,-2.240538309497519,6.161983709723052,2.8845666684279223,0.4429078223060061,1.5281374360885067,1.9562135749073661,-6.429781145015699,23.910679514693438,-24.450940035988957,-110.50087,-93.58239749026932,0.0,110.50087,0.5826111970605615,0.37345919,-0.18599553,-0.69749415,1.0,0.0,0.0,0.0,108.7311786208852
1.4228,67838.8288,-1.810315919945321,4.355496933475715,4.578948114738857,0.34662085778363494,1.2897505131812088,2.4639265338008274,-7.03594994491716,24.10569769046208,-24.012351479303533,-109.310738,-91.81891571963413,0.0,109.310738,0.5923134998211405,0.37136817,-0.15819973,-0.6972971,1.0,0.0,0.0,0.0,107.35729276775272
1.4366,67838.8488,-0.876546264627982,1.7947363514929529,6.08342865753735,0.2674649934870126,0.9216790192796829,2.854661157333158,-7.485884922599601,24.230784305960512,-23.713393844129044,-107.281693,-89.10522352244793,0.0,107.281693,0.6063106941740728,0.37170067,-0.13178495,-0.69054955,1.0,0.0,0.0,0.0,105.35356493381272
1.4597,67838.8688,0.696717652614848,-1.0728527446713079,7.230204349376848,0.23710848904466952,0.48719610117418694,3.0463785221423905,-7.750568441316355,24.07450280511252,-23.816763878940296,-104.072227,-85.61467003704787,0.0,104.072227,0.6258833851798972,0.37093082,-0.11150809,-0.67693889,1.0,0.0,0.0,0.0,102.50589002301835
1.4793,67838.8888,2.795785278529232,-3.811714918977958,7.950782466350137,0.29491219325635165,0.015126837925441838,3.0123735700162326,-7.775315061921047,23.9179664481899,-24.072774184333053,-100.435829,-81.71479829428571,0.0,100.435829,0.6472079029259,0.37153035,-0.09559539,-0.65874779,1.0,0.0,0.0,0.0,99.33716199011748
1.5004,67838.9088,4.886053581327094,-5.801209115128699,8.229660650956824,0.4439457838808778,-0.43628386509295636,2.771927452560677,-7.410271667798089,23.839671198420127,-24.430449456819282,-96.907921,-77.69983375438726,0.0,96.907921,0.667032494216315,0.37520304,-0.0862718,-0.63784599,1.0,0.0,0.0,0.0,96.32311526871446
1.5166,67838.9288,6.370886584069368,-6.836782163372914,8.038178625750199,0.6645776614745421,-0.8500795871505492,2.3844781697691633,-6.726686619584411,24.08714091695047,-24.56725259548516,-94.348412,-74.00900808668439,0.0,94.348412,0.6811402495380001,0.38452622,-0.079872,-0.61790615,1.0,0.0,0.0,0.0,94.13437890508183
1.5474,67838.9488,6.911436125962868,-6.895083918597519,7.385628584276905,0.9147447890665873,-1.2061619738452334,1.9267232378800854,-6.0502467377465035,24.57967445983139,-24.40993882801868,-92.828217,-70.78268168302971,0.0,92.828217,0.6896808411757068,0.3981894,-0.07293013,-0.60038882,1.0,0.0,0.0,0.0,92.7903000203138
1.5671,67838.9688,6.372389873945204,-6.088380847358192,6.421338129992375,1.1262401282986905,-1.4932027176887794,1.493464697864734,-5.399238136742483,25.01505195047519,-24.238031007967592,-92.114769,-68.05980757938215,0.0,92.114769,0.6938275815745595,0.4134585,-0.06810016,-0.58567715,1.0,0.0,0.0,0.0,92.13227181976363
1.5821,67838.9888,4.881078146824319,-4.806296486235896,5.248545384876309,1.241125353440532,-1.7324368933152006,1.1601182903769538,-4.6318440129732625,25.375753512485254,-24.12979032874835,-92.34021,-65.58992796747012,0.0,92.34021,0.693153678991421,0.43205118,-0.06699307,-0.57304597,1.0,0.0,0.0,0.0,92.23945744173379
1.5986,67839.0088,2.8809556595825665,-3.3591314133637074,3.921120304519171,1.2405986925327759,-1.9344992867058208,0.9622806058978106,-3.8738586595727753,25.6037765403139,-24.150532730966006,-93.177223,-63.146509169617765,0.0,93.177223,0.6895696141291748,0.45243558,-0.06882434,-0.56130117,1.0,0.0,0.0,0.0,92.80790050530993
1.621,67839.0288,0.8049121408774162,-2.038579868968661,2.4869953105165834,1.1278383481678813,-2.1106164147973394,0.8925739187143491,-3.2693122439811813,25.66968598602575,-24.315485634326148,-94.178947,-60.48440675753296,0.0,94.178947,0.6853861506133061,0.47303361,-0.07259772,-0.54883021,1.0,0.0,0.0,0.0,93.4680334468165
1.6423,67839.0488,-1.0400176945602793,-1.036715679015755,0.9890025425489313,0.9277776608800663,-2.268144630668242,0.9276055938455919,-2.864016772519438,25.420226985323353,-24.76069333664021,-94.545311,-57.307920219610004,0.0,94.545311,0.6839084092911053,0.49117842,-0.07989106,-0.5335077,1.0,0.0,0.0,0.0,93.70035983127804
1.6574,67839.0688,-2.35426780284843,-0.5803105391853289,-0.5480020239036456,0.6935942059842762,-2.4200463938345216,0.9999336710462091,-2.842259647430007,25.04891242707835,-25.23349768493545,-94.423088,-54.01874858919646,0.0,94.423088,0.6845461241974817,0.50667763,-0.08597007,-0.51699471,1.0,0.0,0.0,0.0,93.60015432493826
1.6808,67839.0888,-3.0686110176897428,-0.5293464061612745,-2.0842628321598884,0.47171052388094326,-2.5493128560426284,1.1020195015254135,-3.0629195033051246,24.46434745529345,-25.81605566213198,-93.382736,-50.5884404905982,0.0,93.382736,0.688362037756931,0.5182417,-0.0933842,-0.49886134,1.0,0.0,0.0,0.0,92.99882116923207
1.698,67839.1088,-3.224990747296723,-0.6518991914790379,-3.6049832307020946,0.2772187872062535,-2.6258667124118715,1.2389899627224068,-3.3265208064325584,23.776088618134963,-26.40396897653069,-91.645973,-47.043093043453034,0.0,91.645973,0.6937968260747774,0.52715224,-0.10317607,-0.47969905,1.0,0.0,0.0,0.0,92.13716564943458
1.7207,67839.1288,-2.957621308593807,-0.8105868059521353,-5.075726106940181,0.09133785079052215,-2.627240045132167,1.4098847288189726,-3.5312883722663617,23.30061233129554,-26.728578361728513,-90.102783,-43.40013144074152,0.0,90.102783,0.6976057975044885,0.53713167,-0.11348733,-0.46038717,1.0,0.0,0.0,0.0,91.52953794706596
1.7433,67839.1498,-2.419691938259043,-0.9941074624730035,-6.404263840474707,-0.1051545551480908,-2.5397405258766517,1.638618527181709,-3.7678535731449774,22.992750321044443,-26.84330461256961,-88.392242,-39.58735825676835,0.0,88.392242,0.7011273602856343,0.54751796,-0.12321787,-0.439843,1.0,0.0,0.0,0.0,90.96495520549206
1.7694,67839.1698,-1.681552004614975,-1.2984663529924816,-7.4524387806584675,-0.3040680434960398,-2.364397930377276,1.94679288951213,-4.354316073876974,22.594884275951344,-26.9421298384979,-85.524216,-36.40843065608796,0.0,85.524216,0.707787539788036,0.55277532,-0.12935163,-0.4204098,1.0,0.0,0.0,0.0,89.88962517257467
1.7787,67839.1898,-0.7888214144080441,-1.8327473038481683,-8.191355171459497,-0.5295907008450327,-2.143666895875144,2.279062883107443,-4.763989425642668,22.30788198935545,-26.95952833146132,-81.959335,-32.30660384072634,0.0,81.959335,0.7146207822748286,0.56128466,-0.13569413,-0.39479586,1.0,0.0,0.0,0.0,88.77574097937692
1.7996,67839.2098,0.37023441212468755,-2.506368916700106,-8.526444607409235,-0.7551389285702867,-1.8647358492571007,2.6173432795614313,-5.211480727532871,21.877266652419575,-27.098127970556767,-76.7967,-28.464973375131887,0.0,76.7967,0.7240794982197382,0.56636912,-0.13999987,-0.36787897,1.0,0.0,0.0,0.0,87.21534657922163
1.8201,67839.2298,1.8293991411105661,-3.164743793928327,-8.436025352676907,-0.9832104354943307,-1.5180464374853382,2.8975061628641017,-5.53723313237961,21.372142625909643,-27.334279881727966,-70.108551,-24.71051970123024,0.0,70.108551,0.7350828257690274,0.56955016,-0.14276618,-0.33894494,1.0,0.0,0.0,0.0,85.37156952574078
1.8408,67839.2498,3.5008091101328502,-3.647002535021182,-7.915013923619151,-1.21650415410265,-1.1005028092444886,3.0472871474448002,-5.744207453170097,20.831699052143335,-27.63117778927735,-61.790276,-20.990353319266095,0.0,61.790276000000006,0.7475411835701572,0.57133609,-0.14306502,-0.3070662,1.0,0.0,0.0,0.0,83.24433166379762
1.8578,67839.2698,5.174367810354488,-3.905600839048959,-7.023243595110786,-1.4333364558644752,-0.6466615817635633,3.0109872523973467,-6.032587996902144,20.361771520922595,-27.866227761442907,-52.933792,-17.776843627230665,0.0,52.933792,0.7611689031343172,0.5714044,-0.13755107,-0.27422366,1.0,0.0,0.0,0.0,80.86529110367745
1.8878,67839.2898,6.623960176582129,-4.0153024650547735,-5.829699200028652,-1.6073556679013286,-0.17978902292152987,2.7796135168331886,-6.355402484493741,19.84997161153402,-28.140694985215042,-44.185696,-15.412708394685351,0.0,44.18569600000001,0.7771197712077651,0.56592858,-0.12806153,-0.24374156,1.0,0.0,0.0,0.0,78.00476880205437
1.904,67839.3098,7.569120877192003,-3.959597114532105,-4.15605841606471,-1.7752343081922943,0.3168949896279639,2.3275715499902034,-5.642783726475902,18.794447244383633,-29.025059285310732,-31.892561,-12.358833540860724,0.0,31.892561,0.7979337523769239,0.54881459,-0.13226107,-0.21121383,1.0,0.0,0.0,0.0,74.13351843700838
1.9171,67839.3298,8.093616135855306,-3.784673932597008,-2.4575982003478103,-1.8271830156470772,0.7243526316602601,1.757699128886192,-4.6308085822079095,18.07046277826245,-29.7266430335447,-23.422689,-10.203865267121678,0.0,23.42268899999999,0.8163790283701793,0.52875543,-0.13733809,-0.18729983,1.0,0.0,0.0,0.0,70.55210765135065
1.9372,67839.3497,8.321515476873952,-3.518226936502973,-0.9379328237772118,-1.7826775602017442,1.0131836725497614,1.1648446125010516,-3.569158637520621,17.97636357559078,-30.044365789065452,-18.503986,-8.796144039142458,0.0,18.503985999999998,0.8299940601238719,0.51211381,-0.14037088,-0.17072001,1.0,0.0,0.0,0.0,67.80374432171405
1.9608,67839.3698,8.314888714588703,-3.1854360379958413,0.44774903699843804,-1.6794865092928315,1.217624277332656,0.5849185831004687,-2.4695857699038166,18.139233682879027,-30.19526042608375,-15.431629,-7.904597002290557,0.0,15.431628999999987,0.8411982277263355,0.49621049,-0.14373159,-0.15969321,1.0,0.0,0.0,0.0,65.46626671880801
1.982,67839.3897,8.094346140498352,-2.8386636120218487,1.7546732528592806,-1.529981038235522,1.344739913543783,0.02347399157316804,-1.424474737493309,18.292060983796457,-30.292553869586804,-13.591551,-7.468593772850042,0.0,13.59155100000001,0.8513316757326703,0.47954452,-0.14765656,-0.15319586,1.0,0.0,0.0,0.0,63.286386956470984
2.0022,67839.4098,7.633337367134134,-2.568246315984765,2.9737958850139776,-1.3280321625410147,1.381342112465208,-0.5188713305311493,-0.5373016443743799,18.408241008873148,-30.31934888360069,-12.91619,-7.5521241883839165,0.0,12.91619,0.8601033249167251,0.46311349,-0.15110388,-0.1513796,1.0,0.0,0.0,0.0,61.34362762825632
2.0422,67839.4298,7.058491814550672,-2.3754361863432942,4.0191777371652755,-1.0657807435680842,1.307927895179256,-1.0384916632111167,-0.07023212709739868,18.202876746134145,-30.448131549139838,-14.739674,-9.238419148718226,0.0,14.739674000000008,0.8696918870071259,0.44161722,-0.15069321,-0.16094039,1.0,0.0,0.0,0.0,59.154290988571105
2.0534,67839.4508,5.967154313015608,-2.5556272191972864,5.063852747676194,-0.7378487101865021,1.1200943036663267,-1.520302639970712,0.6355681675460909,18.677083832585982,-30.103464509441032,-15.316242,-9.835430882039564,0.0,15.316241999999988,0.8719815755007908,0.43405977,-0.15401627,-0.16588923,1.0,0.0,0.0,0.0,58.620531435263125
2.0709,67839.4718,4.984206837494726,-2.7957044557190196,5.887379468789785,-0.36978900334489817,0.8268282725259073,-1.9495256638587386,0.8926149358002888,18.892617753303327,-29.90944015709305,-18.584572,-12.348056218307923,0.0,18.58457200000001,0.8747081386165843,0.42157906,-0.15233995,-0.18425338,1.0,0.0,0.0,0.0,57.9790945387267
2.0815,67839.4918,3.863453912154114,-3.08026741291304,6.530757426566993,0.037648578923597964,0.4756228224363046,-2.3224230280214506,1.4138407504086694,19.198701203815954,-29.690306989082472,-22.095079,-15.07280195742884,0.0,22.095079,0.8735934422550121,0.41221043,-0.15537277,-0.20682447,1.0,0.0,0.0,0.0,58.24211087399261
2.1241,67839.5118,2.577955674096684,-3.354012026019838,6.838773318787307,0.4681325341551569,0.13590661775468837,-2.631684450467479,2.2295898740496747,19.69561469159172,-29.38297733179343,-25.004274,-17.255478587735688,0.0,25.00427400000001,0.868029547669105,0.40935829,-0.16412251,-0.22806643,1.0,0.0,0.0,0.0,59.53907722594762
2.126,67839.5318,1.2721217281093402,-3.6107111130292395,6.648055979370991,0.8771405984986304,-0.14432464655963895,-2.8860170009987316,3.0790641723205265,20.33692603026682,-28.986259558694506,-28.188013,-19.417298160045984,0.0,28.188013000000012,0.8583858970799678,0.4119457,-0.17480877,-0.25083119,1.0,0.0,0.0,0.0,61.72833656469475
2.1482,67839.5518,-0.0009295110948657204,-3.7290071809098686,5.944714411611816,1.2395255292586644,-0.3721448242988735,-3.0982557507741895,3.7846822129459268,20.878880222835093,-28.621627190722727,-31.693224,-21.68237550883569,0.0,31.693223999999987,0.8464731308105715,0.41646913,-0.18598659,-0.27467379,1.0,0.0,0.0,0.0,64.33977028747472
2.1711,67839.5718,-1.2245689745267079,-3.6999292976822646,4.7729490001718435,1.549399998806787,-0.5606571769747771,-3.272573108632256,4.324923130319059,21.2950389626093,-28.25528027619,-35.714031,-24.139042771606555,0.0,35.714031000000006,0.8320139647631702,0.42273557,-0.19743033,-0.30011442,1.0,0.0,0.0,0.0,67.38763975118275
2.1829,67839.5918,-2.3267129452320687,-3.5185511258705096,3.223827561359819,1.8056078901013835,-0.71892665773301,-3.4060581149653792,4.722410244872489,21.614437063247756,-27.83536945297957,-40.475101,-26.825154981063893,0.0,40.475100999999995,0.8142475387595328,0.4312107,-0.20925023,-0.32752499,1.0,0.0,0.0,0.0,70.9739439320959
2.2034,67839.6118,-3.1472121125298393,-3.059438408345066,1.4615299027106694,2.0033651132974324,-0.8771957801697536,-3.4868344690092252,4.9677997894794315,21.590575232330828,-27.591321690657686,-45.537529,-29.790635820282084,0.0,45.537529000000006,0.7950800956598922,0.43765271,-0.22296394,-0.35580167,1.0,0.0,0.0,0.0,74.67435692737878
2.2213,67839.6318,-3.5236575903033436,-2.4173848116270626,-0.38262992276981933,2.1389467043524437,-1.0032631344193548,-3.518591754673607,4.945610585772097,21.33007029681772,-27.543795443102134,-50.749859,-32.95563768723338,0.0,50.749859000000015,0.7752119169528185,0.44245985,-0.23710543,-0.38347983,1.0,0.0,0.0,0.0,78.35150070695437
2.2399,67839.6518,-3.461932561250766,-1.728620000278342,-2.2112423009123985,2.221123720002711,-1.0412897883949745,-3.515477417901296,4.674109659650016,21.070391645766925,-27.57382428236269,-56.384743,-36.189414764113884,0.0,56.384743,0.7538316849208087,0.44823739,-0.25031048,-0.41008011,1.0,0.0,0.0,0.0,82.1532211386867
2.2621,67839.6718,-3.0730659282554496,-0.9958329804124249,-3.909210776800098,2.2414240142464337,-0.9729496700523493,-3.494724636175241,4.126117821265632,20.81221933990546,-27.71082227477914,-62.728104,-39.84700669904349,0.0,62.728104,0.7317801315234136,0.4533847,-0.26116866,-0.4367277,1.0,0.0,0.0,0.0,85.92832583326636
2.2818,67839.6918,-2.5641841530269334,-0.18422921733212694,-5.3905863305148,2.208621616430534,-0.7868055365733958,-3.4513165707754236,3.431825537643105,20.568323395915137,-27.907799988697676,-69.814606,-44.07217668145693,0.0,69.814606,0.7089154095642426,0.45764056,-0.26998657,-0.46380094,1.0,0.0,0.0,0.0,89.70652309717192
2.3062,67839.7118,-2.1088345638974597,0.7645925905495592,-6.559056454772031,2.1376113886021915,-0.4895955961574139,-3.3647861774414194,2.7863252432989025,20.327657396804966,-28.119223576233917,-77.515205,-48.99210598575377,0.0,77.515205,0.6847517661376022,0.46080858,-0.27796254,-0.49143392,1.0,0.0,0.0,0.0,93.56782382095317
2.323,67839.7318,-1.7694655828462476,1.862204613706663,-7.287770753171157,2.0170509479499468,-0.08981144456834278,-3.2384114792303893,2.065557757155778,20.203719842072747,-28.250242800043054,-86.083794,-55.147242616513516,0.0,86.083794,0.6597774754091921,0.46214539,-0.28165513,-0.52133071,1.0,0.0,0.0,0.0,97.4341919792413
2.3403,67839.7518,-1.6130645242078139,3.062788165614824,-7.5122195025229495,1.893593178215101,0.39292363080260995,-3.042163606592033,1.4855207797756833,20.23359902667859,-28.237839770785275,-94.509361,-60.998217399981755,0.0,94.509361,0.6348379328903941,0.46564874,-0.28271949,-0.54792494,1.0,0.0,0.0,0.0,101.18406942204146
2.3631,67839.7718,-1.6373735673767906,4.29249501875344,-7.212598417070076,1.7405803648875406,0.9021933175302259,-2.784134011643947,0.813114475368705,20.23186264896928,-28.2252746140254,-101.668823,-66.809797082331,0.0,101.668823,0.6133632750385263,0.46705049,-0.27982283,-0.57214379,1.0,0.0,0.0,0.0,104.33382205501395
2.3822,67839.7928,-1.7825869671720742,5.4404624499561285,-6.405081192461298,1.6016895553569102,1.3822681162125,-2.4269351570343867,0.4667334716419749,20.28329712445744,-28.164853102229856,-108.677971,-73.9333795620571,0.0,108.677971,0.5895375932767337,0.46582711,-0.27690917,-0.59897566,1.0,0.0,0.0,0.0,107.7515974377687
2.4048,67839.8128,-1.9757490240373268,6.2291301086494215,-4.953254521960524,1.4670030771533453,1.8439366975923457,-1.926965998756082,-0.3337949467589212,21.098768003512497,-27.584638971642775,-116.099655,-82.02092167436486,0.0,116.099655,0.5634803739473976,0.46440622,-0.25790435,-0.6326943,1.0,0.0,0.0,0.0,111.40633564997151
2.4229,67839.8338,-2.1945499027756457,6.655738530795964,-3.187883534256751,1.3964318025856568,2.1421318442309483,-1.3221970604685391,-1.432361086248541,21.794020623597927,-27.113388002177416,-120.488106,-88.62722220568473,0.0,120.488106,0.5441454525700308,0.45823896,-0.23365925,-0.66281682,1.0,0.0,0.0,0.0,114.06742764426065
2.4427,67839.8538,-2.2268363235800335,6.90969973412978,-1.4349720563267763,1.4045749809180088,2.2307666155047734,-0.714230274620357,-2.6979140890972193,22.09680738820155,-26.944637668576753,-122.217728,-93.84954717462413,0.0,122.217728,0.5325925387207627,0.44487876,-0.20919824,-0.68895876,1.0,0.0,0.0,0.0,115.63841968378514
2.4669,67839.8748,-2.05686619478726,6.905515750883129,0.1811338680461425,1.437063046432694,2.1774357748265794,-0.11162631724816047,-3.8397933896734155,22.630728021531546,-26.521647787776306,-123.463249,-96.77288806667345,0.0,123.463249,0.523674422204319,0.43698946,-0.17905141,-0.70904577,1.0,0.0,0.0,0.0,116.84190239306763
2.4864,67839.8948,-1.6865552848332896,6.582159727669158,1.5172343940042836,1.4349446387098024,2.0167985574991687,0.44676092371097786,-4.26905132861766,23.474819827091302,-25.782617233029892,-125.351433,-98.74327547252786,0.0,125.351433,0.5111578519808563,0.43783531,-0.1477986,-0.72468853,1.0,0.0,0.0,0.0,118.51803100425755
2.5039,67839.9148,-1.0781338844454211,6.136628818426696,2.424923219946674,1.3211351916122964,1.8335055110464509,0.8323163251163171,-4.6122376449058695,23.89194265608843,-25.27933303725232,-125.886169,-99.99259243477826,0.0,125.886169,0.504539205226968,0.43490401,-0.11940908,-0.73623377,1.0,0.0,0.0,0.0,119.3984628861576
2.527,67839.9348,-0.4885685765740404,5.3576093299331085,3.0512348885882563,1.0335214653780915,1.6916607824104377,1.0452143981936497,-5.191124688907369,24.248674649825727,-24.67257990534916,-125.087875,-99.27523513663665,0.0,125.087875,0.5058395108222333,0.43483958,-0.08582192,-0.74005103,1.0,0.0,0.0,0.0,119.22580633664776
2.5444,67839.9548,0.10172796614611324,4.424797163291128,3.4011972836099815,0.6065921574356918,1.596108673575469,1.0687945672884152,-5.5288087320276755,24.465406582218378,-24.22121259826608,-123.930992,-98.41721838426457,0.0,123.930992,0.5091852730588462,0.43411866,-0.05550902,-0.74107361,1.0,0.0,0.0,0.0,118.78084716722572
2.5658,67839.9748,0.5456257406715386,3.461921444648971,3.5628704194818415,0.09454589810015829,1.5518326853631277,0.9539862496317256,-5.371961373548656,24.474665794839645,-24.148897734042652,-122.848259,-97.90384334647725,0.0,122.848259,0.5128149727043073,0.43163806,-0.03448477,-0.74129629,1.0,0.0,0.0,0.0,118.29696751814265
2.5844,67839.9948,0.7234173441705876,2.4330344998847293,3.69229773812312,-0.40899239102189006,1.524586829248281,0.8021334723514686,-4.8250480955925,24.38403282578858,-24.35377522578273,-121.967651,-97.84255679435384,0.0,121.967651,0.5159782115256424,0.42693648,-0.02151131,-0.74231327,1.0,0.0,0.0,0.0,117.87427511040566
2.6038,67840.0148,0.853059003092516,1.4791408071088457,3.8039955132329464,-0.800026759400867,1.4665946340207154,0.7271252789427871,-4.59945784174713,24.063203851325685,-24.79619967106857,-120.570892,-98.63714487524895,0.0,120.570892,0.5218810125090682,0.41126537,-0.01176279,-0.74723667,1.0,0.0,0.0,0.0,117.08297823840974
2.6233,67840.0348,0.7919062830161216,0.7444417358258928,3.8438172804614616,-1.030891779659625,1.3600024021282318,0.8265492709713822,-4.402191601639911,23.581348491110433,-25.41722449739043,-118.900383,-99.25804351521785,0.0,118.900383,0.5306216177211104,0.3923749,-0.00779184,-0.75128019,1.0,0.0,0.0,0.0,115.90507068244874
2.6423,67840.0548,0.46512636236278304,0.2706062891836196,3.754978810230913,-1.0955918539235994,1.2623937674109262,1.1547662355694475,-3.6914473515545048,23.154578110186637,-26.048176674725237,-117.826126,-99.76234985973663,0.0,117.826126,0.5370939069322557,0.37765849,-0.01210942,-0.75416017,1.0,0.0,0.0,0.0,115.02794647152511
2.6644,67840.0748,0.0323547711579657,-0.11829435432214508,3.5770752185217827,-1.0693945176020183,1.2153478844829166,1.7217868997785564,-2.946716833875481,22.949441166366217,-26.41937470130849,-116.835556,-99.98776800326331,0.0,116.835556,0.543223927847522,0.36561361,-0.01634859,-0.7556237,1.0,0.0,0.0,0.0,114.19324711377388
2.6996,67840.0948,-0.5103569544695645,-0.8382364758763767,3.444890589450864,-1.0778284923061558,1.1558851847110527,2.437264517507418,-2.6632219679081928,23.191832302636676,-26.27287106226545,-114.858246,-98.57259509659892,0.0,114.858246,0.555650206818913,0.35925603,-0.01125109,-0.74970752,1.0,0.0,0.0,0.0,112.48897780901734
2.7065,67840.1148,-0.9543179492845946,-2.11206018257721,3.441973857759592,-1.1347081116409066,0.9663310628271841,3.144899631133564,-3.12084045438508,23.74172821972326,-25.695994985351632,-111.458916,-95.69441427442004,0.0,111.458916,0.5764788295668527,0.35375875,0.00532209,-0.73654503,1.0,0.0,0.0,0.0,109.59347710581832
2.7276,67840.1348,-1.004998002749761,-3.4814638248274563,3.606163744403357,-1.1058902931290802,0.6535672526379327,3.673767127635012,-4.117973189021152,23.690566771895767,-25.539003893629026,-106.515968,-92.44151211244294,0.0,106.515968,0.6066613426409321,0.33622214,0.02026854,-0.72007352,1.0,0.0,0.0,0.0,105.30302833344352
2.7457,67840.1558,-0.7025195609401687,-4.477970792743654,3.8553550454535426,-0.9161600599931528,0.2655411388611497,3.9357223736095155,-4.840385936441505,22.909286585361528,-26.09612236081426,-100.856758,-89.02466629728734,0.0,100.856758,0.6416638731986408,0.30992347,0.02377626,-0.7011773,1.0,0.0,0.0,0.0,100.16799496233794
2.7665,67840.1758,-0.09341672943615276,-5.155055719291151,3.8177131250418324,-0.6036652575438614,-0.2569361465317217,3.9271805948989473,-5.140275641398899,22.372073519319773,-26.602558063429413,-95.107689,-84.82120079146317,0.0,95.107689,0.6765747344255959,0.29050812,0.02607951,-0.6761446,1.0,0.0,0.0,0.0,94.84688583454589
2.7861,67840.1958,0.6494323175163101,-5.640939639697269,3.1522017797787356,-0.30339372363363926,-0.8835383363701037,3.6333539739875893,-4.807613064201613,22.911001979744906,-26.463680797427344,-90.446243,-80.28794711270507,0.0,90.446243,0.7037638700781755,0.29043332,0.03305127,-0.64751256,1.0,0.0,0.0,0.0,90.54046938285046
2.8028,67840.2158,1.2854522154646384,-5.5367131464569175,2.121090404038082,-0.17631273453639895,-1.3839790341961546,3.0910468297936955,-3.919200607208639,23.67417080722745,-26.309279568676214,-86.211449,-75.30068413775355,0.0,86.211449,0.7274907486459311,0.30133671,0.03255732,-0.61554319,1.0,0.0,0.0,0.0,86.64710985861902
2.8234,67840.2357,1.6701062979547174,-5.030493896534904,1.097556077427992,-0.25075956196728866,-1.7222215478409717,2.3895498010212597,-2.8109317017633053,24.39225265451648,-26.17846396045818,-82.634666,-70.59248053261308,0.0,82.634666,0.7462167331206508,0.31612197,0.02610295,-0.5852744,1.0,0.0,0.0,0.0,83.47257239778025
2.8438,67840.2558,1.70809410676984,-4.37282490014481,0.4013892948408646,-0.45452105099304285,-1.9522415370997954,1.673111570729034,-1.7970965355258706,24.625896981472792,-26.33912827626945,-79.685028,-66.93215785739875,0.0,79.685028,0.7605478786381089,0.3249611,0.0146632,-0.56191832,1.0,0.0,0.0,0.0,80.97495701577155
2.8634,67840.2758,1.3768030008743652,-3.738284003410362,0.05039768176503756,-0.6761818307861346,-2.178415949423876,1.1189310469519211,-0.8957309910999722,24.134402532743408,-26.963033711612276,-77.156319,-64.48539688464301,0.0,77.156319,0.7720214363140088,0.32404265,-0.00294711,-0.54678202,1.0,0.0,0.0,0.0,78.92847857462664
2.8831,67840.2958,0.7778654766632185,-3.1628395384464163,-0.20810916525607936,-0.816445999594061,-2.4615890715305118,0.8767837593975292,-0.04483279164770071,23.066107616055305,-27.858880153304458,-74.804161,-62.80543874372298,0.0,74.804161,0.7816224318549464,0.31665432,-0.02674237,-0.53673202,1.0,0.0,0.0,0.0,77.18127060564119
2.9045,67840.3158,0.03182841978660411,-2.8219918988427404,-0.7063739237473854,-0.8129431826036274,-2.7974447267765585,0.9725679345347578,0.6527030142960637,22.38720087150433,-28.232957706898283,-72.323135,-60.383848629019795,0.0,72.323135,0.7898125704715319,0.31850857,-0.04980725,-0.52179271,1.0,0.0,0.0,0.0,75.66400127251252
2.9241,67840.3358,-0.7840566562887572,-2.469518344918291,-1.4882436887520534,-0.7866367944569091,-3.0620639634464215,1.4786627088932836,1.7440981296058773,21.696291056109757,-28.48895957210989,-70.0644,-58.169341414959064,0.0,70.0644,0.7940691430996809,0.32259122,-0.0808152,-0.5087809,1.0,0.0,0.0,0.0,74.86515584278942
2.9437,67840.3558,-1.2688441547819385,-2.1288126667339258,-2.515509384975342,-0.7688005194084407,-3.199165401265158,2.299699588676048,2.2151539743340676,21.204374408946858,-28.60942751097837,-67.46936,-55.91566540542454,0.0,67.46936,0.7990231000512702,0.325086,-0.10595208,-0.49462646,1.0,0.0,0.0,0.0,73.92616744320493
2.9643,67840.3758,-1.434608957097844,-1.8631347506064813,-3.6957286381291556,-0.7629399843903473,-3.2184357571642264,3.18763872083077,1.8307374654554627,20.90494388040833,-28.73459016479515,-61.606815,-50.49623580561357,0.0,61.606815,0.8143503443265881,0.33197838,-0.12677212,-0.45886022,1.0,0.0,0.0,0.0,70.95364806306463
2.984,67840.3958,-1.3972178859410773,-1.7717664277843441,-4.922470420754191,-0.8783195637213844,-3.2226977140873387,3.8424436341587267,0.9226965764957331,20.931023482873393,-28.76043709952487,-53.759392,-43.01318294059401,0.0,53.75939199999999,0.8328838803110712,0.34490836,-0.14180456,-0.4089427,1.0,0.0,0.0,0.0,67.20773587686519
3.0039,67840.4158,-1.2672703073672043,-1.8554867592355424,-6.050211485463309,-1.0431245189064362,-3.303440310085759,4.173936974277457,-0.5907217568973744,20.786337902697134,-28.967828084431574,-45.520935,-35.81300845248512,0.0,45.52093500000001,0.8521594769061075,0.35209537,-0.14807418,-0.357669,1.0,0.0,0.0,0.0,63.10534277126815
3.0239,67840.4358,-1.2119469825973437,-2.1740861650224708,-7.108929871744679,-1.2189192380075684,-3.5283226075660656,4.23569870473778,-1.8987502283428386,20.180361959401544,-29.46030535751094,-36.192089,-28.388249898671894,0.0,36.19208900000001,0.871163109398414,0.35369605,-0.15724173,-0.30207446,1.0,0.0,0.0,0.0,58.8118342076886
3.05,67840.4558,-1.174130615057825,-2.7178397047293674,-8.230981708257026,-1.3952668214135733,-3.8666000219264514,4.227399766019069,-2.4933675305817085,19.185977695993703,-30.17238550533988,-27.346426,-21.909321724361863,0.0,27.346426000000008,0.8864426155267049,0.34705442,-0.17358685,-0.25227034,1.0,0.0,0.0,0.0,55.14084759886552
3.0656,67840.4758,-0.9216992045393675,-3.5469194642096005,-9.624996893000839,-1.6553173374875707,-4.363484723384821,4.205880446844664,-2.122871466852836,18.891346381678396,-30.444165717147108,-18.868813,-15.359284714538566,0.0,18.86881299999999,0.892371981078943,0.34866431,-0.19883852,-0.20632181,1.0,0.0,0.0,0.0,53.65432177068098
3.0839,67840.4958,0.00943904433536702,-4.674062004045641,-11.068549543652182,-2.0434035661399195,-4.885446774888809,4.282210910056552,-1.3278941044639727,18.95679826991768,-30.473509707998264,-9.163511,-7.622857785449046,0.0,9.163511,0.8928049097243179,0.35414025,-0.23118608,-0.15503894,1.0,0.0,0.0,0.0,53.54429064143725
3.1048,67840.5158,1.9394671713471596,-6.028540994171312,-11.938185418293946,-2.5785347555745863,-5.367780992064795,4.42551059000828,-0.716936161068698,19.240754140479712,-30.31545696575161,1.346604,1.1543773210125663,0.0,1.3466040000000135,0.8891709601031258,0.36048123,-0.26437274,-0.09764907,1.0,0.0,0.0,0.0,54.461491434142694
3.1244,67840.5358,4.71822377798033,-7.309729937713788,-11.364743645342479,-3.2388931911644794,-5.679725242399535,4.626022135189183,-0.43626344592962385,19.108721008441186,-30.380281255580726,11.380247,10.305554054832124,0.0,11.380246999999997,0.8849178768165835,0.35731828,-0.29663533,-0.03537625,1.0,0.0,0.0,0.0,55.51716622445645
3.1432,67840.5558,7.7308436661693385,-7.766615931889531,-8.109561010599675,-4.068054143352516,-5.446728225435149,5.00337045854321,0.6885028627626446,16.366242939832794,-31.892564776781683,21.000544,21.900354786209746,0.0,21.00054399999999,0.8845615308228849,0.31372774,-0.34119362,0.05208375,1.0,0.0,0.0,0.0,55.60477731336017
3.1677,67840.5758,9.744242334125147,-6.360482881384778,-3.3903680232682056,-4.840208049333183,-5.067174369404979,4.968387108861599,2.1266839579371295,13.696886038602232,-33.005983790907194,29.549086,34.86949357636811,0.0,29.54908599999999,0.8720382522928268,0.26625261,-0.38317358,0.14777294,1.0,0.0,0.0,0.0,58.60726312392522
3.1888,67840.5958,9.932155582996705,-3.6080822726847774,1.1027833820741098,-5.474305088247758,-4.61728266201987,4.444150509219714,3.5471650826614285,11.904931293974666,-33.50341036413329,36.351421,47.22549500079522,0.0,36.351421000000016,0.8489256746047968,0.22146827,-0.41887429,0.23413956,1.0,0.0,0.0,0.0,63.80997720095004
3.2032,67840.6158,8.590248582469286,-0.5585417178079313,4.279054437537834,-5.9083739744729025,-4.115881951053771,3.5426743775828897,4.634862400421618,10.9736437575548,-33.60849164353355,41.375259,57.92586647723623,0.0,41.375259,0.8217135129059533,0.17847593,-0.44710827,0.305004,1.0,0.0,0.0,0.0,69.48661471127448
3.2232,67840.6358,6.534552636045142,2.3256642287686766,5.857891345635238,-6.012797948689428,-3.6520617725014684,2.4868107855312687,5.084218978519678,10.315410935974212,-33.6658991116447,45.466076,66.95555569656331,0.0,45.46607599999999,0.7953339723660118,0.13347919,-0.46393174,0.36659858,1.0,0.0,0.0,0.0,74.626376875407
3.247,67840.6558,4.678624936551146,4.860181673492447,5.965582965075445,-5.68811930109336,-3.281317813780352,1.6238649992883658,4.398058879254647,9.169899510123408,-34.01188146486611,49.250858,73.17509792914645,0.0,49.250857999999994,0.7770270408789788,0.08279283,-0.45982957,0.42181879,1.0,0.0,0.0,0.0,78.02165145938953
3.2718,67840.6758,3.0070041035371324,6.509402336784397,5.425937019508698,-5.0193811154644,-3.0100510658568265,0.930591095264834,3.7339473224287048,7.980821469040389,-34.34298140568869,52.249294,77.45551537698545,0.0,52.24929399999999,0.7620621399587985,0.02624751,-0.45013162,0.46470839,1.0,0.0,0.0,0.0,80.7073391970795
3.2838,67840.6958,1.5081969911366853,7.040131083635403,5.102956837573018,-4.090982187069219,-2.7820316347724265,0.42519182668832034,3.531795542569542,7.8884129424339875,-34.40429646788698,53.60939,80.15980694798444,0.0,53.60938999999999,0.7488984579292033,-0.02486993,-0.44758242,0.48806,1.0,0.0,0.0,0.0,83.00990238668396
3.3087,67840.7158,0.034596685831888685,7.212079101310366,5.203037541028637,-2.992539481581996,-2.5496877920608547,0.1785290886821474,3.5680503036113453,8.764928219689352,-34.28197889939726,54.320065,82.71701332213676,0.0,54.320065,0.7342333398838096,-0.06522091,-0.45218766,0.50216925,1.0,0.0,0.0,0.0,85.51505206370372
3.3331,67840.7358,-1.4112705361625415,7.680998942491187,5.487101410406629,-1.8504017469944625,-2.222545928832455,0.13319622915664403,3.5802079882914555,10.141834078178588,-34.05211983641939,54.951878,85.82660934124753,0.0,54.951877999999994,0.7174789910969405,-0.09440542,-0.4614605,0.5131917,1.0,0.0,0.0,0.0,88.30653680537408
3.3463,67840.7558,-2.617884615803075,8.61674431166884,5.687292636837043,-0.7446523794033166,-1.7598594702730106,0.15544301196925375,3.3671174880722443,11.658581366828658,-33.76853542324873,55.438332,89.13616705102646,0.0,55.438332,0.7013392515771429,-0.11327761,-0.47248772,0.52158105,1.0,0.0,0.0,0.0,90.93089731746224
3.368,67840.7758,-3.316511290700354,9.754330624407634,5.755087600279756,0.32686749758850486,-1.2064661628740518,0.12277412035324897,2.791256239529993,13.172726305808938,-33.44556750334177,55.622028,91.98291586607321,0.0,55.622028,0.6890230832628259,-0.12131109,-0.48305318,0.52648878,1.0,0.0,0.0,0.0,92.89434578041119
3.384,67840.7958,-3.3783159884663307,10.738348735597825,5.759958389271569,1.4041242527922264,-0.6427726913494829,-0.019066630118585892,1.9832639506643233,14.463398693356968,-33.12552554531844,55.405716,93.8688314822735,0.0,55.405715999999984,0.6819008162078314,-0.12132071,-0.49190426,0.52756304,1.0,0.0,0.0,0.0,94.01528262914213
3.4042,67840.8158,-2.8258145854078536,11.125038881179398,5.886959268390921,2.5113005536601065,-0.14561508805614087,-0.26623876881899045,1.1393733842970448,15.633483081882815,-32.731524207876035,54.360783,94.5118330365517,0.0,54.360783,0.6808077134033349,-0.11370505,-0.50067389,0.52239609,1.0,0.0,0.0,0.0,94.18641419015648
3.4241,67840.8358,-1.7883783436985823,10.564064770024638,6.310898293353951,3.6253361520162484,0.2289971030286294,-0.576810443762934,0.45574910467770735,16.987184555841164,-32.07961409883085,51.835728,93.61545303222674,0.0,51.83572800000002,0.6868173110890108,-0.09724188,-0.51229244,0.50634223,1.0,0.0,0.0,0.0,93.24260699715713
3.4559,67840.8558,-0.594847749177613,9.062626853590025,6.948989634077606,4.68617570686513,0.4781601717102275,-0.9043032666589896,0.04877220830440265,18.507416198059865,-31.137937878716855,48.159134,91.67130848341792,0.0,48.159133999999995,0.6972195368669591,-0.07245598,-0.52807975,0.47933999,1.0,0.0,0.0,0.0,91.59129890311634
3.4815,67840.8758,0.4650668502346198,6.837025957773852,7.620547485533123,5.630726122800942,0.6553899843059214,-1.2391553902933756,-0.1180905079621617,20.107033934277446,-29.941121658312547,44.004765,89.24717768405166,0.0,44.00476499999999,0.7087387966641377,-0.03910866,-0.54797208,0.44259059,1.0,0.0,0.0,0.0,89.73521441650713
3.4908,67840.8958,1.2778351033101116,4.297546170059962,8.114978305824188,6.431141541972362,0.8335295406114198,-1.60530223128241,-0.14762541738984858,21.440605007670037,-28.761642423351585,40.148041,86.6708454203548,0.0,40.148041000000006,0.7188170581479771,-0.00033837,-0.56886905,0.39961222,1.0,0.0,0.0,0.0,88.08619852517361
3.5045,67840.9156,1.8895657900588725,1.6177263896942176,8.33363835567096,7.102597091355512,1.065576295545714,-2.0104939811839646,-0.07522673915537226,22.413724032348195,-27.799467549655553,36.703522,83.91575385297695,0.0,36.70352199999999,0.7267008687477071,0.04122056,-0.58893925,0.35122254,1.0,0.0,0.0,0.0,86.77895085490553
3.5279,67840.9358,2.3914907929572795,-1.3163074782441706,8.121624147544342,7.678345631133497,1.355871444243521,-2.4245923568877474,0.11432388873465094,23.225536815167008,-27.017467324675778,33.393322,80.62943188308695,0.0,33.39332200000001,0.7327528477263145,0.08503836,-0.60745358,0.29468948,1.0,0.0,0.0,0.0,85.76465163397621
3.545,67840.9558,2.8587075120588894,-4.483336410767074,7.171539590437373,8.169165807233693,1.6220375212585973,-2.852376976972562,0.35246390289640317,23.983769664166832,-26.35213945165245,29.911308,75.751795205896,0.0,29.91130799999999,0.739113665100596,0.12947358,-0.62074506,0.22720729,1.0,0.0,0.0,0.0,84.68806385164206
3.5644,67840.9758,3.167353091100345,-7.51084406337975,5.238927271781286,8.542554774051249,1.8064507114976953,-3.3107686643858574,0.5068726792905753,24.6425722077509,-25.777431010359134,26.28727,68.8507307433193,0.0,26.287270000000007,0.745303589082407,0.17315224,-0.62589419,0.15098783,1.0,0.0,0.0,0.0,83.62963687976635
3.5853,67840.9958,3.0730337866732693,-9.874663061419337,2.3290377014497388,8.742740185489348,1.9259027159071889,-3.7654053248211907,0.6583339307908913,25.229719891228566,-25.136725517968923,22.568197,60.42940311407935,0.0,22.568196999999998,0.7475543143311999,0.21657428,-0.62415528,0.06847127,1.0,0.0,0.0,0.0,83.24206629780403
3.606,67841.0158,2.428784904719986,-11.063963135196728,-1.2385688602612852,8.733563465141039,2.0518480581533964,-4.109062602753378,1.124419277183458,25.818254789064532,-24.213875719121518,18.73826,51.5348442541287,0.0,18.738259999999997,0.7404547135381937,0.26082423,-0.61909831,-0.02036715,1.0,0.0,0.0,0.0,84.45967079600298
3.6258,67841.0368,1.4152719101010844,-10.714401636096387,-4.790752709645195,8.485488442450423,2.2240504343768275,-4.299866795445599,1.9534075065227021,26.257419123379456,-23.108253721343306,14.321692,41.23334212452701,0.0,14.321692000000013,0.7233556271920193,0.30291486,-0.60955888,-0.11591892,1.0,0.0,0.0,0.0,87.33554650951501
3.6471,67841.0568,0.435773370664911,-8.800051484792185,-7.097981523462859,8.039320606147623,2.3032886557339562,-4.335058171539851,2.9128482136385654,25.299332958473805,-23.366571439990313,8.938446,28.950446497338984,0.0,8.938445999999999,0.7040479368191674,0.32471144,-0.59997308,-0.19725944,1.0,0.0,0.0,0.0,90.49464091372097
3.6685,67841.0768,-0.22210933964566903,-6.168741860358422,-8.172826011618099,7.480942379832884,2.236849743091539,-4.215297991851394,3.8584591037500293,23.369379749022706,-24.60753762467869,1.553936,6.5098919038696605,0.0,1.553935999999993,0.683569729511511,0.32900158,-0.59190732,-0.27227947,1.0,0.0,0.0,0.0,93.75354392263405
3.7041,67841.0968,-0.2907306048986865,-3.638263478842557,-8.299245738963332,6.833616990702716,2.1298497106126866,-4.10011805553377,3.939031144968926,21.1443015501769,-26.266370519041107,-8.248199,-39.23882753559857,0.0,8.248199,0.665584887691884,0.32567629,-0.5774489,-0.34276009,1.0,0.0,0.0,0.0,96.5455759248923
3.7074,67841.1168,0.11055823439480969,-1.9055305250845636,-7.778861646802543,6.10489639365855,2.093825446949718,-4.230037252715856,2.433401436137246,19.0240279685028,-28.062270829457944,-19.855038,-66.14134352425344,0.0,19.855038000000008,0.6580262465508222,0.32346541,-0.55009753,-0.39970526,1.0,0.0,0.0,0.0,97.7009674132167
3.7279,67841.1368,0.4343774441519169,-1.379798977925478,-7.014720902671884,5.552430778200038,2.113576559965966,-4.532328363782414,1.1285700968655323,18.26515647731974,-28.90063702970171,-34.231606,-79.31649358278797,0.0,34.231606,0.6406351600685404,0.33518222,-0.51662648,-0.45862463,1.0,0.0,0.0,0.0,100.32160378812695
3.7469,67841.1568,0.28502414052506697,-1.7236290697298036,-6.273558901199771,5.241816594220564,1.9669679595545106,-5.2478167620717455,0.5036453748016356,17.275909091691222,-29.830073194198057,-50.228802,-90.76651081992911,0.0,50.228802,0.619368817340289,0.33819231,-0.49123961,-0.51057994,1.0,0.0,0.0,0.0,103.45988638189212
3.7778,67841.1768,-0.71723700727454,-2.202046451325117,-5.8895658230252215,5.2008776577717555,1.6703603422044884,-6.243995492237264,0.8731909801620859,16.211663810252915,-30.666852161912026,-67.932182,-105.01879547291703,0.0,67.932182,0.5863895400124125,0.33077782,-0.47619495,-0.56566042,1.0,0.0,0.0,0.0,108.19756916993218
3.7862,67841.1968,-2.642678079266898,-1.8015159843394108,-5.883476984547846,5.23809453157639,1.1413305744363451,-7.33478433461178,1.6774069932609024,14.833094713191644,-31.491235399002548,-86.310188,-120.07039173207217,0.0,86.310188,0.5409144908189232,0.3077592,-0.46900287,-0.62668341,1.0,0.0,0.0,0.0,114.50817216191942
3.8064,67841.2168,-5.046945013838427,-0.047921947004927856,-5.946259889523079,5.1969467334050865,0.7834315475102667,-8.157166681673472,2.570289083146765,14.55434113286222,-31.672899606357618,-108.223068,-132.74082643468077,0.0,108.223068,0.4791528787042649,0.29088899,-0.45190534,-0.69395798,1.0,0.0,0.0,0.0,122.73982041074545
3.8249,67841.2368,-7.052890825992167,3.1230497873008725,-5.330049390784679,4.95492501079708,0.3267904551717813,-8.584432041038074,3.7429533842211544,14.721180541590726,-31.578816702790533,-129.881073,-145.08847059925668,0.0,129.881073,0.3982385293903894,0.27207857,-0.43067807,-0.7628209,1.0,0.0,0.0,0.0,133.06378692820655
3.8462,67841.2568,-7.4548508299965786,6.668157970617851,-3.1941187817228602,3.8671802941721594,-0.20020709087445,-8.901464915190477,3.1172070857044663,15.32306312162941,-31.47445812233676,-144.789749,-153.43404958774337,0.0,144.789749,0.3171053494638442,0.23099084,-0.39271146,-0.83178431,1.0,0.0,0.0,0.0,143.02408259057273
3.8661,67841.2768,-6.436683291149831,9.430668920276233,-0.7542799373250553,2.482216107643156,-0.8977659448588908,-8.893680498873065,2.3305457009510953,15.515791841931398,-31.569940806293573,-155.552765,-160.77008130238227,0.0,155.552765,0.2404773973024379,0.19365527,-0.3628659,-0.87920225,1.0,0.0,0.0,0.0,152.17056311774414
3.886,67841.2968,-4.5155909949197435,11.220864256335366,0.8383140659514758,1.0667512271782518,-1.7105221474848462,-8.665285161325748,2.1359183720424024,15.087549021601095,-31.88341866615511,-165.668549,-168.57768566394373,0.0,165.668549,0.1638001034219538,0.1686265,-0.34851316,-0.90734404,1.0,0.0,0.0,0.0,161.14492573089652
3.9048,67841.3168,-2.0163464684041053,12.24170610727273,1.242920544315755,-0.2295309873251075,-2.4532833521605717,-8.320503191386662,2.83602672878344,13.968332684204395,-32.35938732644177,-177.079407,-177.69138596578676,0.0,177.079407,0.0805640002440768,0.15730509,-0.35084069,-0.91960609,1.0,0.0,0.0,0.0,170.7580295725145
3.925,67841.3368,0.9732133212575244,12.338489973681888,0.9583624442239351,-1.4508866654881927,-2.8464751666470867,-7.901622366347294,3.615622196502834,12.658293713248222,-32.75437554076584,170.727341,172.79603324466797,0.0,170.72734100000002,0.0062007670440027,-0.15110664,0.36135858,0.9200806,1.0,0.0,0.0,0.0,179.2894398837718
3.9455,67841.3568,3.8834327130969415,11.45955026017065,0.4000873748721929,-2.460422904501957,-2.8773385578492254,-7.377380552742437,4.3028686759397345,11.267127696627105,-33.040311098206836,157.980774,163.3241303025535,0.0,157.980774,0.0912642374168491,-0.15142646,0.38008878,0.90789503,1.0,0.0,0.0,0.0,169.52731618283838
3.9701,67841.3768,6.091161331148777,9.744453453506773,-0.03291570198657112,-3.2436253755727904,-2.601288565164535,-6.782216465552333,4.728864748875333,9.978532464642585,-33.22074936261351,145.09938,154.41935124453474,0.0,145.09938,0.1698244898970927,-0.15675408,0.40584999,0.88423616,1.0,0.0,0.0,0.0,160.44477062232335
3.989,67841.3968,7.0635453125914465,7.607352101453644,-0.06531787279335255,-3.8383340665420107,-2.062377610405429,-6.251466376973129,4.721504242387045,9.400327456166417,-33.21210779294446,133.484573,146.8435511240209,0.0,133.484573,0.2360234162405184,-0.16419765,0.43093511,0.85535198,1.0,0.0,0.0,0.0,152.69608534359585
4.0141,67841.4168,6.777009672742891,5.629849016030755,0.19847531835888255,-4.2918071301837095,-1.3767570271705594,-5.930427574650499,4.556337269191854,9.733925052664507,-32.96102590287684,123.424698,140.371281501551,0.0,123.42469800000003,0.2927317236330756,-0.17109717,0.45151514,0.82532901,1.0,0.0,0.0,0.0,145.9568573685343
4.0272,67841.4368,5.7973864761076594,4.438262956210304,0.23252357787653288,-4.725142150454079,-0.8251788122403189,-5.81208139153502,4.047142257206142,10.217659853129703,-32.67819077510792,114.233742,135.35136876101805,0.0,114.233742,0.3383432809775112,-0.17380492,0.47700801,0.79232508,1.0,0.0,0.0,0.0,140.44806019833092
4.0468,67841.4568,4.890530495526229,3.8359509088181705,-0.24188070361482517,-5.199892933454787,-0.3965143943691226,-5.861803993660083,3.3287616104894404,10.959242937022712,-32.26449902157587,104.973953,131.49168600734512,0.0,104.973953,0.3801107477655907,-0.16519992,0.50622213,0.75628299,1.0,0.0,0.0,0.0,135.3189144068951
4.0699,67841.4768,4.348059777450505,3.503895324008414,-1.3484262774558733,-5.578372793812588,-0.21571704680287834,-6.071838878649876,3.0217955845913878,11.456674342174011,-31.815688200070404,94.607178,127.93053389523841,0.0,94.60717799999998,0.4206598073947247,-0.15549387,0.54050171,0.71184611,1.0,0.0,0.0,0.0,130.24749821011807
4.0862,67841.4968,4.149936848312379,2.9789695585523224,-2.9887861570358103,-5.73122187574246,-0.44544455178626974,-6.385596579409177,3.3192541252547016,11.154231391103423,-31.5651863406615,83.050392,124.1790567346426,0.0,83.05039199999999,0.4586864904751997,-0.15595028,0.58071119,0.6542635,1.0,0.0,0.0,0.0,125.39523687136804
4.1089,67841.5168,4.133420634592504,1.6620222319529787,-4.702683299098221,-5.6648822652328885,-0.8432798820008103,-6.656775225833348,4.225211256533598,10.734600167557675,-31.293295209682892,71.307663,119.86883788087857,0.0,71.30766299999999,0.5009691208084063,-0.15727365,0.6173867,0.5857718,1.0,0.0,0.0,0.0,119.87172548881983
4.1276,67841.5368,3.944213927112319,-0.3920033657801917,-6.052065635744192,-5.480058515608273,-1.1620313838727359,-6.8149899809422525,5.713312508244258,10.925625993488268,-30.732780512881316,60.562584,114.71145777784557,0.0,60.562584000000015,0.5500308969143395,-0.1514547,0.64147401,0.51287287,1.0,0.0,0.0,0.0,113.26173469544797
4.1458,67841.5568,3.4624108039268484,-2.5324454021426352,-6.864452834287231,-5.351542733346348,-1.5977129493096744,-6.795922911455171,7.085226335494999,11.217999184520838,-30.14712895439725,51.543747,109.32694279501597,0.0,51.543746999999996,0.5930368124509827,-0.14982843,0.65826029,0.43880767,1.0,0.0,0.0,0.0,107.25438582828694
4.1647,67841.5768,2.904475371473587,-4.449767098208905,-7.097120753179375,-5.530883525094604,-2.0486931558573356,-6.5010203981238455,7.270012833243379,11.699145022734157,-29.776681712142928,44.031898,105.8794931260222,0.0,44.03189800000001,0.6196285244513671,-0.14910696,0.67618901,0.369589,1.0,0.0,0.0,0.0,103.42197513329775
4.1888,67841.5968,2.0559814388623843,-6.0347151863691675,-6.5694709397142645,-5.676015176041079,-2.3063619555245762,-6.249275366526918,8.145195389775605,11.787043016248765,-29.397834243148882,36.859318,99.67830389928805,0.0,36.859318,0.6526069114203946,-0.15464847,0.68310529,0.28905922,1.0,0.0,0.0,0.0,98.52311718692387
4.2046,67841.6168,0.925129587501472,-6.978091814548851,-5.445725578878085,-5.842528309493418,-2.4530359164934534,-5.882885311610967,8.947766190118339,10.732599819169952,-29.486470385058055,29.753428,91.99674240437409,0.0,29.753427999999985,0.6795779286946267,-0.17183314,0.68707544,0.19124474,1.0,0.0,0.0,0.0,94.37866059753142
4.2256,67841.6368,-0.34850734935637995,-7.351726793408942,-4.409158120296262,-6.004111037084261,-2.1952228512889027,-5.498980195353305,9.287868202069195,10.044008265701688,-29.629181222676213,22.94166,83.87447925790063,0.0,22.941660000000013,0.6977029540482553,-0.18428673,0.68558276,0.09604826,1.0,0.0,0.0,0.0,91.51399804763547
4.2452,67841.6568,-1.583495837800855,-7.28152269185388,-3.5794375526388267,-6.0588274216282025,-1.7594944481871495,-5.152454761964319,9.142561226979753,9.810316242846216,-29.91049987555885,17.00095,75.19194492708414,0.0,17.00094999999999,0.7057393185419585,-0.197923,0.680206,0.00884861,1.0,0.0,0.0,0.0,90.2213930774933
4.2676,67841.6768,-2.6900217308541206,-6.696019865219367,-2.6243238997448266,-6.143821095395281,-1.4555349558495503,-4.616704851408616,7.724975959215777,9.229632577290069,-30.81937463605218,12.747129,74.25946998500656,0.0,12.747129000000001,0.6918360699485292,-0.22297643,0.68269843,-0.07461379,1.0,0.0,0.0,0.0,92.44874796387784
4.2875,67841.6968,-4.047188047464571,-5.665733647633861,-1.7190909098234197,-6.188852649410324,-1.0948772280902668,-4.012115270005967,6.0166022690597725,8.880341699664775,-31.75860894660302,8.964911,86.20998694162482,0.0,8.964911,0.6667425361026388,-0.24455795,0.68709642,-0.15344155,1.0,0.0,0.0,0.0,96.36770545649313
4.3062,67841.7168,-5.760369079814447,-4.364678666118856,-1.144083946672545,-6.062756942364702,-0.5971431424269731,-3.52626179279147,5.1970736970949165,9.161022934935849,-32.34577025726238,4.745389,116.55908731854915,0.0,4.745388999999989,0.6457733111244838,-0.25904679,0.68225086,-0.22451137,1.0,0.0,0.0,0.0,99.55263906275772
4.3273,67841.7368,-7.327124278861141,-2.934601983466612,-0.752117832274898,-5.8357502170428015,0.07940730998514067,-3.0737079929305935,4.525325369903429,9.262490344451175,-32.9468314746721,1.041283,171.0351007238459,0.0,1.0412829999999929,0.6198199640910437,-0.27723387,0.67380542,-0.29146329,1.0,0.0,0.0,0.0,103.39402302058345
4.347,67841.7568,-8.442390423693379,-1.958178818139845,-0.4262404123156234,-5.483925146351874,0.9572153487800472,-2.801064983142161,3.5939754254810508,9.4070033816726,-33.530784378343746,-0.927057,-175.59381822386547,0.0,0.9270569999999907,0.5902671582135954,-0.30160317,0.66351402,-0.34694287,1.0,0.0,0.0,0.0,107.64806230037776
4.3742,67841.7768,-9.035725593157164,-1.6515780426192368,0.1394018790580116,-5.065190303612069,1.9916771077572644,-2.787275406139337,2.086447488075544,9.851029618378387,-34.00245780075517,0.099428,179.71295143212575,0.0,0.09942799999998897,0.555432971339678,-0.32852262,0.65784335,-0.38834164,1.0,0.0,0.0,0.0,112.51891610028257
4.3883,67841.7967,-9.063911946568492,-1.4309794959634452,1.259194072650084,-4.653325624599699,3.1245883539173884,-2.9542281063921862,-0.14930801307753172,10.519259868087563,-34.258716009432135,6.132865,170.11556449892592,0.0,6.13286500000001,0.5041744787528725,-0.35103157,0.66678387,-0.42188174,1.0,0.0,0.0,0.0,119.44686451001522
4.4062,67841.8168,-8.570617782440875,-0.8849071649839306,2.7864107658900608,-4.282105129111251,4.186538039271413,-3.2094272020076247,-2.5969402188156763,11.734299607955645,-34.0268337654294,18.583925,162.00812185953083,0.0,18.583924999999994,0.4391040439780434,-0.36584458,0.6889292,-0.44578239,1.0,0.0,0.0,0.0,127.90654082731302
4.4255,67841.8368,-7.688829030628613,0.20067957936724,4.3152444221396244,-4.048379328901512,4.917773010034462,-3.5840717425780886,-4.700297320294039,12.757008476132981,-33.53700217961854,35.88372,155.1644039572929,0.0,35.88371999999998,0.3699830971931068,-0.38339922,0.70807624,-0.4634065,1.0,0.0,0.0,0.0,136.57085030513247
4.4508,67841.8578,-6.611160478288996,2.0896801565855423,5.453396241914934,-3.8613140761283224,5.305625660982362,-4.1309285497693224,-5.969496177120352,12.895707268233727,-33.26660667969782,54.517014,150.39361322070323,0.0,54.51701400000002,0.2939188441704741,-0.3998791,0.71859461,-0.48716548,1.0,0.0,0.0,0.0,145.81456427484108
4.47,67841.8788,-5.581247007209173,3.9684976399777216,6.024815095108702,-3.6238040152673054,5.5167714954837175,-4.642591449445893,-6.182680996592049,13.131300965868707,-33.08101425384706,67.384781,147.45692078147724,0.0,67.384781,0.2188069706466142,-0.40560839,0.7270326,-0.50894886,1.0,0.0,0.0,0.0,154.72205937997515
4.4968,67841.8988,-4.288085832991869,5.4689370596205595,6.273246273941172,-3.33397626748226,5.680366528375148,-4.916806894075666,-6.055933695207003,13.614835554495397,-32.904048570851245,73.916885,144.81007257715,0.0,73.91688499999998,0.1340097611666556,-0.40098944,0.73983377,-0.52334964,1.0,0.0,0.0,0.0,164.59727383258755
4.5095,67841.9198,-3.1704588475341655,6.308167756431905,6.343343231136753,-3.0872584187757495,5.7745524048906365,-4.8916140679338325,-5.873336667854751,14.230686314415925,-32.77031569700675,76.349312,141.70758426663383,0.0,76.349312,0.0516765164775874,-0.39531001,0.75015146,-0.5275721,1.0,0.0,0.0,0.0,174.0756686299924
4.5309,67841.9398,-2.0960268545519716,7.0400891793423614,6.337215455159676,-2.7793298877758215,5.829560163689563,-4.612946610357569,-5.980740066540463,14.482474064742977,-32.81820322110109,76.939644,138.0439926290249,0.0,76.93964399999999,0.039195632548602,0.38725337,-0.7557407,0.52664459,1.0,0.0,0.0,0.0,175.50736051956883
4.5486,67841.9608,-1.2433333692593633,7.782754744352381,6.359763609828512,-2.2477986217048103,5.926288703831458,-4.181024174476055,-5.914556577861719,14.570977377687678,-32.982439399244114,75.68119,134.5822487403089,0.0,75.68119000000002,0.1280257657928387,0.3733623,-0.75680804,0.52101016,1.0,0.0,0.0,0.0,165.2889525432834
4.5694,67841.9806,-0.5612216410889284,8.37378304340808,6.404235491055918,-1.581257916344447,6.049563858055334,-3.7844583932335665,-5.709760817726835,14.410774070411541,-33.206265191829786,74.336571,131.12142192809506,0.0,74.33657099999999,0.2031041896561913,0.36144713,-0.75108641,0.51378387,1.0,0.0,0.0,0.0,156.5629148453281
4.5953,67842.0008,0.2787668595287478,7.874771320967497,6.585573336197651,-1.1373991888397623,6.272399164452963,-3.3870761918119743,-6.376959282450381,14.700748532946559,-32.934186139336575,74.072609,126.06525277900039,0.0,74.072609,0.2608299597152916,0.37102255,-0.73979163,0.4970094,1.0,0.0,0.0,0.0,149.76137058526314
4.6246,67842.0208,1.6344407428527123,6.089885385905322,6.621143006926506,-0.7621636774518854,6.5940137310799125,-3.0326895807432224,-7.294058849642571,15.379819678693895,-32.24017976723522,72.913666,120.16663532666747,0.0,72.913666,0.3194800638345508,0.38476977,-0.72806668,0.46883219,1.0,0.0,0.0,0.0,142.73703145746356
4.6378,67842.0407,2.9758932823898854,3.430930738110992,6.241964769697301,-0.13160232190164267,6.908720241419765,-2.6541485858774223,-7.167202903224544,16.32082905711617,-31.46443692946652,68.880264,114.99514317488354,0.0,68.88026400000001,0.3851253369241181,0.3821331,-0.72254252,0.42846829,1.0,0.0,0.0,0.0,134.69695689699907
4.6574,67842.0608,4.023640421049015,1.2698195265457781,5.250239498779916,0.5513271890354043,7.007768453304925,-2.374127356958089,-7.149135545897863,16.329364064668425,-31.03295524372489,64.64991,108.43347846304499,0.0,64.64991,0.4603092315986263,0.37493798,-0.70556933,0.38692227,1.0,0.0,0.0,0.0,125.18587309691561
4.6713,67842.0818,4.742304256362056,-0.06289537044917637,3.7940224384913925,0.9543037672821293,6.982780411206132,-2.0569511595853305,-7.9575406381470675,16.251182157725342,-30.41770991242004,62.320313,99.5164404896793,0.0,62.320313,0.5255459765763173,0.38691035,-0.67503744,0.34413117,1.0,0.0,0.0,0.0,116.58998919375054
4.6928,67842.1018,4.958447782964449,-0.792582718680763,2.184795957621146,1.1128571606146969,6.943601062235392,-1.6262496827383468,-8.470426211284103,16.979538806239265,-29.447274696223815,61.200447,90.49783007454603,0.0,61.200447,0.5694573523722771,0.41464013,-0.64469177,0.29692492,1.0,0.0,0.0,0.0,110.57521210272311
4.7109,67842.1218,4.563466903942035,-1.003496022921018,0.9375718243160414,1.2278910565450536,6.896270532649693,-1.243316668032162,-7.2793334345958804,17.956828360986172,-28.837524866237555,59.419872,83.95529143239557,0.0,59.419872,0.5970329906397742,0.43379286,-0.62655926,0.250597,1.0,0.0,0.0,0.0,106.68460902639357
4.7364,67842.1418,4.152228452313142,-0.8256727265695024,0.099423252910249,1.2369679324199812,6.919191953049687,-1.0137837995535068,-5.371468609875824,18.398382372312714,-28.741135444146327,57.163357,78.2022168327448,0.0,57.16335699999999,0.6216958328917827,0.44417134,-0.61024427,0.20930371,1.0,0.0,0.0,0.0,103.11984158803182
4.7537,67842.1618,4.014325523305174,-0.5117680014130678,-0.6193219427734729,1.1765176383868787,7.031541324262014,-0.955454607419919,-3.720626631950072,18.10422637963676,-29.06126569072735,54.877365,71.67553100071149,0.0,54.877365,0.6494673300155226,0.45103875,-0.58667791,0.17482924,1.0,0.0,0.0,0.0,98.99709425963219
4.7779,67842.1818,4.119482060947288,-0.23668078224178235,-1.5870200320829593,1.059981929027717,7.146979865930724,-1.1046853823375165,-3.2572112093201353,17.219329751300453,-29.61095918911695,52.724461,62.86477619362507,0.0,52.72446099999999,0.684688983160744,0.45960298,-0.54641658,0.14627036,1.0,0.0,0.0,0.0,93.57769530994472
4.7974,67842.2018,3.983603638836216,-0.2449966378369265,-2.791461958001765,1.1326831840820892,7.139071958263379,-1.3483666397881306,-2.833801453769808,16.39574948400084,-30.123834405960082,48.946468,53.49645573277486,0.0,48.94646800000001,0.7202195946465475,0.46238548,-0.50489461,0.11209298,1.0,0.0,0.0,0.0,87.85477289131877
4.8119,67842.2218,3.3422124060787244,-0.5247023548688612,-4.001407451892838,1.4725202466561624,6.979559854739106,-1.4436774786502873,-1.3516620144515459,16.37852221092421,-30.239750164723503,43.331093,44.91843351195198,0.0,43.33109300000001,0.7448757016436087,0.4615095,-0.4777649,0.06252896,1.0,0.0,0.0,0.0,83.70315249420692
4.8287,67842.2418,2.3594392342498605,-0.5933954704559525,-5.0621346017069415,1.5618055140830158,6.7586699126178456,-1.3755710485550854,0.0067394966340614815,16.81314399363195,-30.00025972716473,38.706692,36.76625072469303,0.0,38.706692000000004,0.7603230131834344,0.47001842,-0.44800255,0.01689129,1.0,0.0,0.0,0.0,81.01463540635119
4.8506,67842.2618,1.0486690146911095,-0.46461741554028335,-5.737603227109193,1.4328857926199927,6.468280431375014,-1.210573402755508,1.4161885424063527,17.20799551371369,-29.67664013593892,34.133297,29.32412518100494,0.0,34.133297,0.7715038528167755,0.47958234,-0.4174529,-0.02270816,1.0,0.0,0.0,0.0,79.02174750152632
4.8708,67842.2818,-0.46017323902082086,-0.23068321927555324,-5.853624660982248,1.1751522095848081,6.068756347893884,-1.0632468295703195,1.9803778598252544,17.132951578957186,-29.624560910845375,25.937399,19.89240486700459,0.0,25.937399,0.7895135858389367,0.48124409,-0.37512419,-0.06598686,1.0,0.0,0.0,0.0,75.71984290734012
4.8904,67842.3017,-2.1828285703486117,0.08945661053814957,-5.299122517795447,0.8696507697675415,5.561638317331365,-0.8441080728473143,2.404263547648317,16.801132711318594,-29.78477224427046,15.709805,10.920924604759968,0.0,15.709804999999989,0.8069318193054978,0.47803697,-0.33060709,-0.10507448,1.0,0.0,0.0,0.0,72.4055281067218
4.9107,67842.3218,-4.035488914844642,0.4578975631354312,-4.2134759249791225,0.5807344442099297,4.938722492343411,-0.506251766143953,3.1143130503380467,16.60313225003824,-29.958559328349878,5.585851,3.5924537309162847,0.0,5.585850999999991,0.8189265662862525,0.47560939,-0.29001486,-0.13800858,1.0,0.0,0.0,0.0,70.045034325046
4.9328,67842.3418,-5.874764455333554,0.8020123771233907,-2.7715492902054137,0.33327493383079443,4.166308189134626,-0.1285485932913666,4.043420403678396,16.507184627026085,-30.18196546208915,-4.046694,-2.4642609560802837,0.0,4.046694000000002,0.8268817594954947,0.47344398,-0.25375044,-0.16651747,1.0,0.0,0.0,0.0,68.4405216933169
4.9537,67842.3618,-7.43444423050473,1.035437266103997,-1.0758716376486817,0.10698415368351855,3.203412657213252,0.1589348846177372,4.641273714989396,16.20824532933997,-30.658445038022762,-13.286917,-7.919232876499792,0.0,13.286916999999988,0.8356623763310046,0.46718732,-0.21694306,-0.19063082,1.0,0.0,0.0,0.0,66.63025506927293
4.9711,67842.3818,-8.507847250029966,0.8106086428222969,0.6929010071509563,-0.11584813282746917,2.0101455241487454,0.30552580765415904,4.628503832345597,16.102397727779014,-31.14886233708708,-20.544262,-12.079693423033788,0.0,20.544262000000003,0.8439985099272789,0.46290392,-0.17687628,-0.20518591,1.0,0.0,0.0,0.0,64.87041450821543
4.9902,67842.4018,-9.001590167929528,0.09697174362823535,2.2110888540294997,-0.2632161486262933,0.5915514814904083,0.23277397127559613,4.320021067863105,16.005160494027855,-31.597282988937486,-24.846943,-14.628588177350457,0.0,24.84694300000001,0.8522148808737803,0.45846066,-0.14052673,-0.2092746,1.0,0.0,0.0,0.0,63.09320902225443
5.0184,67842.4218,-9.098808826846543,-0.6964295492607189,3.0635136715641185,-0.28363051919115906,-0.9512052888037134,-0.01560796831149025,4.685301591540305,15.544860268535487,-31.951822489118808,-26.081696,-15.688457854226607,0.0,26.081695999999994,0.858798156433966,0.45085111,-0.12406984,-0.20929806,1.0,0.0,0.0,0.0,61.636186791015795
5.0307,67842.4418,-8.952351329673736,-1.4998401892803588,3.0599422328779724,-0.2143132694383097,-2.468637541632063,-0.31193967542433365,5.835644440699152,15.15660816294524,-31.893193435093718,-25.430105,-15.498988651799776,0.0,25.430104999999998,0.8600119178618321,0.44715753,-0.1293937,-0.20901415,1.0,0.0,0.0,0.0,61.36415789183862
5.071,67842.4618,-8.57146666874084,-2.254444268843759,2.2281476065048764,-0.08999420891989196,-3.8218999855235127,-0.5727958410964813,7.359606446868443,14.960877841607822,-31.37893474801983,-23.192589,-14.15018365382928,0.0,23.192588999999998,0.8555396319040856,0.44908434,-0.15235648,-0.20775634,1.0,0.0,0.0,0.0,62.36119557193328
5.0721,67842.4818,-7.75976578485744,-2.9507369551691487,0.8526676991642397,0.16049746519386976,-4.938069550504381,-0.7562967411099932,8.350429265895077,14.924771592284127,-30.67204602878113,-18.877773,-11.478093301004304,0.0,18.87777299999999,0.8488153593048292,0.45449764,-0.18195726,-0.19958942,1.0,0.0,0.0,0.0,63.83389165872322
5.0906,67842.5018,-6.451615943367085,-3.3601514643586774,-0.7355161058217679,0.6227074520716394,-5.796944905279695,-0.8208979771169203,8.373857191847748,14.816901602273527,-30.153226750369114,-12.474785,-7.635596180341755,0.0,12.474784999999997,0.8427099822219677,0.45956603,-0.21253866,-0.18293788,1.0,0.0,0.0,0.0,65.14519351316005
5.1108,67842.5218,-4.937190982026383,-3.138451935082291,-2.416937856321697,1.2189028521872842,-6.403934731180128,-0.7312205894120822,8.079348440841034,14.457101406400138,-29.875273265179416,-4.288016,-2.702155353938697,0.0,4.288015999999999,0.8337746498910176,0.4638451,-0.25120786,-0.16297904,1.0,0.0,0.0,0.0,67.02307773460453
5.1338,67842.5418,-3.359504177578264,-2.217235555216373,-4.140685796450899,1.8450490380172089,-6.776450594319293,-0.5040304054005902,7.74590374009746,14.192087927509991,-29.70308714501547,5.574342,3.6615818819077193,0.0,5.5743420000000015,0.8175947107926266,0.47248834,-0.29727739,-0.14113756,1.0,0.0,0.0,0.0,70.31053024691911
5.15,67842.5628,-1.6419652149071797,-0.6731162743909074,-5.776853251813221,2.3731910433555137,-6.952585538777648,-0.22592914469597591,6.975496249657982,14.407859413613888,-29.612621963243583,16.22801,10.94410579094101,0.0,16.228010000000012,0.7936890741986077,0.48980805,-0.34025839,-0.11987475,1.0,0.0,0.0,0.0,74.93677965196973
5.1701,67842.5828,0.22110827684525547,1.2553699735555586,-7.060358522760858,2.5783789437837066,-7.043043852820415,-0.08294429052132424,6.141079439976398,15.488359553124447,-29.279030235420038,28.353153,18.981719318468723,0.0,28.353152999999992,0.7569054325610167,0.51970029,-0.38173375,-0.10623144,1.0,0.0,0.0,0.0,81.61571611582166
5.1915,67842.6028,2.1563034548715803,3.247838099614645,-7.543762356347936,2.4903456457850144,-7.1024128274141916,0.05184489613431431,5.897846992687016,16.536697273626025,-28.92607947233238,42.95295,29.70002468508007,0.0,42.95294999999999,0.7107407630952105,0.55102539,-0.42898807,-0.08478103,1.0,0.0,0.0,0.0,89.40956429701738
5.2123,67842.6228,3.891938065155572,4.955121246080071,-7.198498239011471,2.3271472735638388,-7.105595987695866,0.16254241935634584,5.398562162535587,16.78797039995867,-29.099760611103157,54.842968,40.48180205123881,0.0,54.842967999999985,0.6680716694988169,0.57521313,-0.46937275,-0.04999321,1.0,0.0,0.0,0.0,96.1631815467464
5.2313,67842.6428,5.142220028313276,5.949367707287196,-6.215390978293352,2.101275919926765,-7.103978569002043,0.10889097765352229,5.52661357181077,16.636920682135013,-29.339028531397194,63.639091,51.63396128243549,0.0,63.63909100000001,0.6198598070171568,0.59330755,-0.51347744,-0.01004437,1.0,0.0,0.0,0.0,103.38820487565556
5.2646,67842.6628,5.8231470051169625,5.8642868038514395,-4.8430991476717375,1.9596256911813115,-7.103573174065706,-0.33216330061691424,5.971875708729168,17.346726565434885,-28.922179391499526,71.160652,62.11153477273403,0.0,71.160652,0.5562021504641792,0.61520356,-0.55833727,0.02057281,1.0,0.0,0.0,0.0,112.41288820842527
5.2767,67842.6828,6.1372395004793034,4.930243184729117,-3.791006585336321,1.923067264318548,-7.153957139076727,-0.7178033319506711,6.396054394389509,17.743254839696785,-28.58204039474733,75.144653,71.4268605313216,0.0,75.144653,0.4931449398763189,0.62564391,-0.60255843,0.04796983,1.0,0.0,0.0,0.0,120.90500041115138
5.2938,67842.7038,6.30238815412817,3.538508060836808,-3.0687529158700713,1.9657571293669411,-7.3117978902370675,-0.9962580153659837,6.682182451376724,18.245720428844255,-28.136772910180678,77.195244,79.76994906113427,0.0,77.195244,0.4276965526617052,0.62913156,-0.64515764,0.0709983,1.0,0.0,0.0,0.0,129.35706767053279
5.3173,67842.7238,6.371570684454624,2.1394982856548252,-2.3253820773862586,2.0353284332036785,-7.5834946639681,-1.1427508382494411,7.190252607184622,19.056119178443502,-27.402686881165174,78.094139,87.80234662263612,0.0,78.09413899999998,0.3529586541869015,0.62709492,-0.68801868,0.09382135,1.0,0.0,0.0,0.0,138.66322645248556
5.3373,67842.7438,6.370194910835683,1.292406698588525,-1.3297771554648765,2.133828446022762,-7.930985178388088,-0.9883082342617757,7.612168639398533,19.469866729829555,-26.970543277976528,78.012054,94.81833449142589,0.0,78.01205400000003,0.2785477864991951,0.61784166,-0.72449327,0.12566748,1.0,0.0,0.0,0.0,147.65289764321145
5.3519,67842.7638,6.13185013256168,1.0248382721022464,0.11856993280924222,2.2580907006128754,-8.2483655964727,-0.6126861944562133,8.059024496514436,19.731134201722977,-26.69103224852564,77.590004,100.96832219872903,0.0,77.59000400000002,0.1997159056762671,0.60454643,-0.75336856,0.1645387,1.0,0.0,0.0,0.0,156.95930706694648
5.372,67842.7838,5.5820889452463724,1.1047893085876397,1.847135946914122,2.3163133387056245,-8.468878330073927,-0.12849501931890717,8.38357466209621,19.99263987600513,-26.517954739827275,76.560341,106.41440911535454,0.0,76.560341,0.11898636403892,0.58715254,-0.77478719,0.2019875,1.0,0.0,0.0,0.0,166.33278721953843
5.3951,67842.8038,4.581944775017095,1.2986034281912922,3.631624045868337,2.3253174301794846,-8.540799275797173,0.3558489020631075,8.374981243107054,20.460566593534452,-26.363771490159266,75.189407,110.87437619727152,0.0,75.18940700000002,0.0363268186876159,0.56962156,-0.78706425,0.23396903,1.0,0.0,0.0,0.0,175.836337115037
5.4182,67842.8238,2.9838626571487277,1.545837393562263,5.208020843887052,2.299800773710735,-8.423860286703283,0.8337557041719725,7.941620596414639,20.925318341025807,-26.384403917273858,73.778465,114.140734148043,0.0,73.77846499999998,0.0451106513410164,-0.5544008,0.78847754,-0.26250324,1.0,0.0,0.0,0.0,174.82894529760048
5.4319,67842.8438,0.6084839639358757,1.635977907232471,6.278941966055044,2.239207136201493,-8.073215205298018,1.2355178490592902,7.3314323321058605,21.427897212049285,-26.405180182191557,72.128311,116.31661313621579,0.0,72.128311,0.1291453156677124,-0.54134148,0.7793377,-0.28792992,1.0,0.0,0.0,0.0,165.15958763760625
5.4524,67842.8638,-2.212374214539323,1.5420751533961368,6.481686755689342,2.0366442112615273,-7.472976326243845,1.586742556218305,6.757170190365029,21.638919419104816,-26.580379594110042,69.480873,118.1145866827547,0.0,69.480873,0.2089219275296178,-0.5260638,0.76299977,-0.31215358,1.0,0.0,0.0,0.0,155.88163613551245
5.472,67842.8838,-4.885597107748079,1.2592183420220349,5.735552705654662,1.685443979115952,-6.632543037403376,1.8529265432460726,6.216326932539253,21.651694603142015,-26.83949184762021,65.25811,119.77944943433172,0.0,65.25810999999999,0.2822911727616908,-0.50826919,0.74212849,-0.33349577,1.0,0.0,0.0,0.0,147.20600646604458
5.4932,67842.9038,-6.80937960283384,0.8454541179124284,4.381747122096726,1.2986587917758867,-5.61020746386505,1.9959304376484224,5.318941149068657,21.720774329394086,-27.105973131579837,59.606018,120.06726938254066,0.0,59.606018000000006,0.349425513082066,-0.49324688,0.71713823,-0.34687474,1.0,0.0,0.0,0.0,139.09563807716282
5.5128,67842.9238,-7.69056479682615,0.6455954603016876,3.0609023862695697,0.9677555862034888,-4.522048778060209,2.0726633598529722,3.7924360482426316,21.68818093983413,-27.55360173521492,53.846619,117.41806918047205,0.0,53.846619000000004,0.4053027440472653,-0.48551172,0.69035292,-0.35131311,1.0,0.0,0.0,0.0,132.17979994088898
5.5444,67842.9448,-7.767535981453155,1.1468041587903985,2.297912410382736,0.7670625093775967,-3.479089259278349,2.213899374094611,1.853226029012193,21.063674672086876,-28.424042069243246,50.284016,112.03435710423902,0.0,50.28401600000001,0.4427636370738991,-0.48618174,0.665344,-0.35341907,1.0,0.0,0.0,0.0,127.43930910266731
5.558,67842.9648,-7.464670661268783,2.209116549669181,2.220526400176018,0.8392465569614421,-2.5583549553095892,2.4885589635272725,-0.430148826717085,19.992478759572485,-29.420459695264004,50.114243,104.4261521088426,0.0,50.11424299999999,0.4631001026135294,-0.49524224,0.64527118,-0.35199222,1.0,0.0,0.0,0.0,124.82533381117413
5.573,67842.9848,-7.2420262605902455,3.1765157365301935,2.5045759231449907,1.2001957660810412,-1.7971353748782746,2.96311932409195,-2.3678011452841776,19.048302215048004,-30.067244958098286,50.551846,96.15418867164925,0.0,50.55184600000001,0.4783742793379598,-0.50479251,0.62918043,-0.34709445,1.0,0.0,0.0,0.0,122.84144526857906
5.5924,67843.0048,-7.112410378399328,3.324638174494223,2.8343997866431963,1.7488107084260194,-1.1999831195242228,3.6803053163815393,-3.5514853725437012,18.62726214772662,-30.25588723243985,49.28109,88.0845408346792,0.0,49.281090000000006,0.4954947818632473,-0.50928599,0.61665672,-0.33889112,1.0,0.0,0.0,0.0,120.59523578946532
5.6138,67843.0248,-6.810515876781714,2.0713180242882445,2.9811302752181383,2.3298780401365997,-0.7515912893377993,4.5595215198019226,-4.459961552631859,18.89715501279336,-29.93797160362718,46.66069,76.17977253753655,0.0,46.66068999999999,0.521456341125988,-0.51319563,0.6028617,-0.31823152,1.0,0.0,0.0,0.0,117.14001845594417
5.6331,67843.0448,-5.86240134479712,-0.38845933084218354,2.7408896634229087,2.7736926992099296,-0.42873521851656227,5.389252808040559,-5.7065489477951825,19.707096755901617,-29.104596727434377,44.522373,60.72813100611883,0.0,44.522373000000016,0.5587290349087805,-0.52120471,0.58300608,-0.27617282,1.0,0.0,0.0,0.0,112.06410493256335
5.6593,67843.0648,-3.8234808894446424,-2.614824438620394,2.146345497056217,3.0543117284417627,-0.09335484546481032,5.907173606355176,-7.508382928096637,19.96784412403137,-28.372395494618722,46.571583,50.58230434900177,0.0,46.571583000000004,0.5912738198381415,-0.53872997,0.55806762,-0.22073926,1.0,0.0,0.0,0.0,107.50509096309574
5.6776,67843.0858,-1.1878586650700012,-3.6951283320194226,1.3747614920876163,3.1310119567481207,0.28706739382829105,6.012982219251343,-9.442306597444398,19.47116304790071,-27.97409610844723,51.61454,44.79670346420974,0.0,51.614540000000005,0.618429048708727,-0.56382656,0.52453762,-0.15654203,1.0,0.0,0.0,0.0,103.59698835219922
5.6951,67843.1058,1.1420325857654063,-3.451479821949766,0.6342142964789463,3.13647233141085,0.5498301567214832,5.738504998254058,-10.651070828030456,18.774293957480616,-27.851482931410594,56.589127,43.25078344742963,0.0,56.58912699999999,0.6344695682276752,-0.58302879,0.49791247,-0.09802535,1.0,0.0,0.0,0.0,101.2386911440714
5.717,67843.1258,2.513464313014616,-2.4174299930298666,0.10316735408911804,3.1711153296677694,0.7230959527471605,5.2332916013655,-10.85446155379075,18.04246059417636,-28.093873227976097,60.408432,43.65890505562873,0.0,60.408432000000005,0.6406236134933689,-0.59484899,0.48248944,-0.05440593,1.0,0.0,0.0,0.0,100.32332696275657
5.7431,67843.1456,2.7707120296165115,-1.2581739056092331,-0.018462478303860053,3.132635097706962,0.9115679930991263,4.698973876626903,-10.176580243066155,17.504381431818345,-28.504965961128516,62.585617,42.81663154762974,0.0,62.58561700000001,0.65214375995261,-0.60145664,0.46114302,-0.01747975,1.0,0.0,0.0,0.0,98.59314427240139
5.7543,67843.1658,2.259478617936163,-0.36153500597265564,0.28009180167022585,3.020374435845379,1.2503725043283678,4.163740792569992,-9.243052710048735,17.123913582189267,-28.82617229352546,64.287125,41.232650071892834,0.0,64.287125,0.6687537387829349,-0.6057511,0.43053529,0.02175789,1.0,0.0,0.0,0.0,96.05809902488662
5.7732,67843.1857,1.6197621993719635,-0.04888358765764744,0.659762242110542,2.900561932072192,1.7245228265230865,3.562600954899985,-8.713004532031182,16.79328086119947,-28.908516702708937,66.19857,41.30777035794133,0.0,66.19857000000002,0.6805578978578112,-0.60627156,0.40624103,0.06514575,1.0,0.0,0.0,0.0,94.22549090672815
5.7946,67843.2058,1.2986255456413804,-0.4263638424711025,0.7595542413952128,2.757435028422623,2.1996418266359954,2.927765077232779,-8.655978261920001,16.478702823969293,-28.80819256957416,67.888718,43.56543344677918,0.0,67.88871799999998,0.6851101338548057,-0.60043532,0.39762846,0.10951319,1.0,0.0,0.0,0.0,93.51146166482015
5.8158,67843.2258,1.2611873199630725,-1.2767848447085373,0.4447235642598386,2.522222716072791,2.576884268905583,2.387132605655708,-8.769873651164971,16.206583647829948,-28.657158870374186,69.053131,46.95925890520722,0.0,69.05313100000001,0.6859971342747256,-0.58879721,0.39933008,0.15251644,1.0,0.0,0.0,0.0,93.37184669919748
5.8391,67843.2458,1.1845140921091648,-2.123174102909876,-0.09054549233071185,2.1669849168064013,2.851852580583129,2.05903414926824,-8.440882160894567,15.863592983127457,-28.749339958290264,69.839905,49.88213331529137,0.0,69.83990499999999,0.6865787646717059,-0.57644778,0.40115884,0.18812002,1.0,0.0,0.0,0.0,93.2802102406011
5.856,67843.2658,1.0591215769841078,-2.515223937702963,-0.5186147993721164,1.7730992297502546,3.074441599010646,1.9308619325874825,-7.658661271589834,15.205819441067673,-29.215487122529467,70.890251,52.2274695493379,0.0,70.890251,0.6842110260627593,-0.56866717,0.40274093,0.21511082,1.0,0.0,0.0,0.0,93.65281926084762
5.8746,67843.2858,1.1761403677510769,-2.3315997943543287,-0.719539687736706,1.4491461545950888,3.2778950481925992,1.9446082612934785,-7.085098171833131,14.307084359048458,-29.786719373926154,72.565155,55.22467083201934,0.0,72.565155,0.6752329271391506,-0.56371212,0.40969801,0.2417368,1.0,0.0,0.0,0.0,95.05551810753873
5.8965,67843.3058,1.5748451396542866,-1.618603756666702,-0.7864763859393591,1.2239427696655607,3.4839709030860107,2.0421000289011824,-6.743461895891144,13.186588019786637,-30.409835320239104,74.792747,58.82051202449239,0.0,74.79274700000002,0.6597391101588681,-0.5613842,0.42098629,0.26900303,1.0,0.0,0.0,0.0,97.44004222979528
5.9246,67843.3268,2.0675447308135335,-0.7346332245497658,-0.894553136511167,0.9999087778510364,3.6660681606297447,2.235572152939783,-6.430863436086796,12.490840013268258,-30.83444096454869,77.29174,62.33493078230888,0.0,77.29174,0.6450068057384961,-0.55752027,0.42609429,0.30262357,1.0,0.0,0.0,0.0,99.66762851579772
5.9452,67843.3468,2.423240841411236,0.1296746752492337,-1.065835040085446,0.7197324573522177,3.7997275172280607,2.4642757024713555,-5.897774729171362,12.197630701200808,-31.143584748391167,79.768234,65.5413267302524,0.0,79.768234,0.6319736484351792,-0.5520615,0.42617768,0.33794969,1.0,0.0,0.0,0.0,101.60822938711154
5.9664,67843.3667,2.650486499737435,0.9429647291001512,-1.2762456643551356,0.38591266922003953,3.87765016078444,2.6550337744945782,-5.512264436396572,11.870026174204959,-31.4438838737547,82.334244,69.24289322135996,0.0,82.33424400000001,0.6146143858553609,-0.5460394,0.4297905,0.37332326,1.0,0.0,0.0,0.0,104.15218755750011
5.9792,67843.3868,2.7366076084538724,1.7361966723916555,-1.409721801793106,-0.0034605524896361706,3.899255195548553,2.7983212136284856,-5.214934003963673,11.258011147127666,-31.843865676998636,84.826942,73.31711331363203,0.0,84.82694200000003,0.5919400317621696,-0.54098636,0.43911695,0.40511364,1.0,0.0,0.0,0.0,107.41040012344801
6.0001,67843.4068,2.635293811692022,2.4588402940812073,-1.2763410396270576,-0.5409200726347799,3.84440463759123,2.96697150398607,-4.928657556370473,10.756740885516052,-32.209067671809485,87.933418,77.23189227519227,0.0,87.93341800000002,0.5663247333743182,-0.53826517,0.44369408,0.43895611,1.0,0.0,0.0,0.0,111.01133236836607
6.0242,67843.4267,2.359362116191489,2.934218370994042,-0.7774294676576741,-1.2191640904321068,3.7076155788434297,3.226632909184535,-4.500412497284896,10.889039293075923,-32.38444892898352,91.705757,80.68296002774704,0.0,91.705757,0.5415755127314791,-0.53627485,0.43819201,0.47654277,1.0,0.0,0.0,0.0,114.41808928149179
6.0375,67843.4468,1.9228321275471558,3.3221262761133983,-0.13842639343862295,-1.906640490761499,3.6639140593871993,3.474079261285091,-3.478316194458567,10.722533421102938,-32.71205186207537,95.494019,83.18020775426851,0.0,95.49401899999998,0.5142635819736571,-0.54277915,0.43361324,0.50289494,1.0,0.0,0.0,0.0,118.10351104911791
6.0617,67843.4668,1.5839137932478353,3.741812424440953,0.3488233118415618,-2.363424954366323,3.7930552403875812,3.77160136709013,-2.546208824762573,10.205030139894346,-33.08493815441232,98.733589,86.0413817836801,0.0,98.733589,0.4805616950799899,-0.55061388,0.43968979,0.52207059,1.0,0.0,0.0,0.0,122.55581273878386
6.0772,67843.4878,1.5798654294938181,4.623516639986262,0.4890001060161939,-2.45913998643027,4.1424436636472155,4.078585768098298,-2.57010923716571,8.905317077681586,-33.55773481244916,101.998871,90.57341061212864,0.0,101.99887100000001,0.4289428254987656,-0.55777615,0.46052411,0.54112047,1.0,0.0,0.0,0.0,129.19902422608945
6.0989,67843.5078,1.4533320947320942,5.797663471119712,0.4273765549845212,-2.5558097952783645,4.469004019377874,4.324364251049338,-2.751256909604859,8.010880527833946,-33.8603524363371,107.074577,94.76709211817182,0.0,107.07457699999998,0.3676469173143346,-0.57028168,0.46789786,0.56629157,1.0,0.0,0.0,0.0,136.85886083373097
6.1169,67843.5278,1.1877626509950971,6.427666297485924,0.47399943420181323,-2.8400920706113313,4.465027049772892,4.716336226091779,-2.9212996110393057,9.452330785068659,-33.55338780560662,113.561935,98.66550556152993,0.0,113.561935,0.317867537098578,-0.57466632,0.44980621,0.60530424,1.0,0.0,0.0,0.0,142.9319770355702
6.1476,67843.5478,1.245539001793706,6.6891046410533805,0.27592154631865995,-3.1590022311785697,4.341417012140013,5.1803115997665525,-3.6489895322448156,11.161705988908327,-32.99005860201205,119.310524,104.38877231051198,0.0,119.31052399999999,0.2680478597514993,-0.56586105,0.43808055,0.64500934,1.0,0.0,0.0,0.0,148.9037278097177
6.1631,67843.5678,1.3275943312780853,6.860006333146778,-0.2744849594268466,-3.5923663251357496,4.178929635610334,5.667551278179176,-4.196812651068646,11.824197310970247,-32.64131343088874,124.442894,110.6787169214663,0.0,124.44289400000002,0.2101767297044217,-0.55709678,0.43761778,0.67376524,1.0,0.0,0.0,0.0,155.7345814908708
6.184,67843.5878,0.8363207959550332,7.154553532487954,-0.9476730127753648,-4.294476114347811,3.875344516234999,6.1663784217419515,-3.8985772767463747,11.507182240838933,-32.63149316710103,130.30719,115.34336550226027,0.0,130.30719,0.1414040398857448,-0.56369996,0.43521723,0.68762869,1.0,0.0,0.0,0.0,163.74179974267872
6.1997,67843.6078,-0.14033323639212777,7.355005919190173,-1.4632787237282514,-4.961526683609311,3.2540081234724783,6.891499381017933,-3.6153509641728014,11.578864540311805,-32.403290251754434,137.756165,120.27738218747989,0.0,137.756165,0.067463030914698,-0.57189018,0.4217183,0.70038849,1.0,0.0,0.0,0.0,172.263430001206
6.2196,67843.6278,-1.5451902564134383,7.259538007719561,-1.9001834585662447,-5.378363362176232,2.4652864835786064,7.7558969265707995,-3.376993937693017,11.991654191383759,-32.03048218017147,146.008057,126.38462311272538,0.0,146.008057,0.0078302154359843,0.57663524,-0.40369761,-0.71025258,1.0,0.0,0.0,0.0,179.10271423641547
6.2367,67843.6478,-3.499907434205353,6.5360796719022005,-2.4851671595100706,-5.649833468252021,1.6497938826505978,8.47060307867272,-2.7964709717007157,11.995679586451,-31.881246551938034,154.998367,132.09729564761676,0.0,154.99836700000003,0.0927687093414196,0.58857566,-0.38381359,-0.70545006,1.0,0.0,0.0,0.0,169.35418185767466
6.2704,67843.6678,-5.481166994378869,4.6997323565061615,-3.093612210226925,-5.645755664567886,0.7671139100879136,8.980713547596014,-2.3118978703629116,11.8263373829506,-31.852074274172903,165.82222,138.7019485211587,0.0,165.82222000000002,0.1905174258533618,0.60566586,-0.35615936,-0.68558186,1.0,0.0,0.0,0.0,158.03403577530588
6.2771,67843.6878,-6.460844051048921,1.9581387536935493,-3.34910890625523,-5.08173305286966,-0.06507196729126541,9.371159661499092,-2.3933164598782137,11.971080790897737,-31.739280249028926,178.870102,170.49589648117225,0.0,178.87010199999997,0.2903443347136225,0.61550701,-0.32076874,-0.65875542,1.0,0.0,0.0,0.0,146.24285607927283
6.2972,67843.7078,-6.083089100475767,-0.7009369250595339,-3.2075247798033395,-4.092546387652339,-0.5916225353624425,9.599597588128741,-2.5080548819890893,12.327200851201052,-31.623697624153092,-167.199997,-66.36550097817063,0.0,167.199997,0.3813558854093938,0.61782122,-0.2857188,-0.62548333,1.0,0.0,0.0,0.0,135.16461072792572
6.3201,67843.7288,-4.80650992642403,-2.4294603387646614,-2.807438511461612,-2.9976078005717177,-0.7939659509926491,9.646682968230847,-2.22237294187335,12.90258021869048,-31.536267308180857,-153.277405,-48.97987778102337,0.0,153.277405,0.4613765370675147,0.62074411,-0.25084269,-0.58213949,1.0,0.0,0.0,0.0,125.04806269960801
6.3404,67843.7488,-3.3995311591946527,-2.825593224688644,-2.229594485537967,-1.976831730692096,-0.7113412594649651,9.578890219006087,-2.016464589515028,13.527910263458864,-31.501931466953273,-137.655762,-39.63555029551848,0.0,137.655762,0.5388356807170552,0.62693864,-0.20728692,-0.52310246,1.0,0.0,0.0,0.0,114.79117257684403
6.36,67843.7688,-2.6850225924551077,-2.083547100608526,-1.6289435659237785,-1.0599414905056976,-0.4726825224270237,9.463408425688543,-2.19624883914949,14.588078553324195,-31.306594748667454,-121.972565,-35.18759223572557,0.0,121.972565,0.6015921114719558,0.62947637,-0.15641961,-0.46623957,1.0,0.0,0.0,0.0,106.03198093651571
6.3829,67843.7888,-2.85817502593703,-1.2457711464127592,-1.1730262502707767,-0.31401664339606894,-0.378697508112287,9.305930287470154,-2.7148782414388517,16.24421736939418,-30.779290645588492,-109.600395,-33.30272391905238,0.0,109.600395,0.6453353478885893,0.63194883,-0.09829698,-0.41775671,1.0,0.0,0.0,0.0,99.61835328194309
6.3966,67843.8088,-3.404653815273504,-1.1073753193278406,-0.8706951360206485,0.20189319880757495,-0.47760976090397067,9.054135477818551,-3.1142609765796276,17.96154987498425,-30.109532898986707,-100.731224,-32.18912237064387,0.0,100.731224,0.6749109301351528,0.63521194,-0.04084815,-0.37327263,1.0,0.0,0.0,0.0,95.10553239942166
6.4168,67843.8288,-3.583367070067174,-1.7447629437298198,-0.6916802870612582,0.5194521128793959,-0.5639722321426585,8.56774995524545,-3.7461909334037493,18.80793532272661,-29.792962307539945,-90.105087,-30.256015571580797,0.0,90.105087,0.7065366845809828,0.63400918,0.01940959,-0.31378582,1.0,0.0,0.0,0.0,90.09235090620876
6.44,67843.8488,-2.971059610489415,-2.580270671577008,-0.5456662863653072,0.7623310980814257,-0.5739702143038631,7.713369864390222,-4.844688898044518,18.773807390343123,-29.8397625032425,-76.739449,-27.52004899958937,0.0,76.739449,0.7391617948727403,0.62508416,0.08548253,-0.23580155,1.0,0.0,0.0,0.0,84.67987555041233
6.4594,67843.8688,-1.9902739413698636,-2.8275966277343407,-0.43733925833533505,0.9670360829337592,-0.5967164905005327,6.544224026170757,-5.295094179787549,18.632935492253687,-29.950181636782837,-65.655258,-24.94637862496673,0.0,65.655258,0.7589145046375624,0.61431384,0.13950403,-0.16494213,1.0,0.0,0.0,0.0,81.26280751366143
6.4792,67843.8888,-1.280820918322128,-2.47924963768875,-0.46419215174494965,1.1061990760912552,-0.6854089927993836,5.320910295876135,-4.4137326744760745,18.946157086477008,-29.95107757767191,-60.091881,-23.142058081817616,0.0,60.091881,0.7640000578450167,0.61090118,0.16920789,-0.12030108,1.0,0.0,0.0,0.0,80.36377082422388
6.4992,67843.9088,-0.8374367244263579,-1.9177609862431118,-0.623881165258716,1.207355346299677,-0.7598894988759235,4.306352955876681,-3.0711967569061684,19.3201856417367,-29.948839744321734,-58.19714,-22.27976457870037,0.0,58.19713999999999,0.76240553731163,0.61232424,0.18612503,-0.09567808,1.0,0.0,0.0,0.0,80.64654770457541
6.5194,67843.9288,-0.6465987395590198,-1.3323147135879854,-0.863865249365066,1.2438494601400525,-0.7307190820943122,3.6175815445748833,-2.0547768041962398,19.33803223958275,-30.15916820362203,-55.038376,-20.987983646795747,0.0,55.038376,0.7621168888139371,0.6113112,0.20272195,-0.06618365,1.0,0.0,0.0,0.0,80.69764957373204
6.5412,67843.9488,-0.8042895496679874,-0.6966945077831956,-1.1376245859467122,1.2190295356342595,-0.6213441897730313,3.1986188410355716,-1.3540581266663416,19.095780951098984,-30.572684736007446,-49.827202,-19.034062410488243,0.0,49.827202,0.7637577701510706,0.60641575,0.21920747,-0.02970003,1.0,0.0,0.0,0.0,80.40679199523602
6.562,67843.9698,-1.2747855147445564,-0.05471341226720572,-1.4217878642622885,1.150032296981637,-0.5525075196940161,2.918375994967667,-0.8440332169153901,18.995016282875177,-30.944529593590453,-45.957088,-17.46928054457151,0.0,45.957088,0.7623715937545766,0.60363662,0.2332634,0.00075515,1.0,0.0,0.0,0.0,80.65255841047212
6.591,67843.9908,-1.8739366893254792,0.470944436882627,-1.6471935726541407,1.041817088346674,-0.6151153033413321,2.660248975294728,-0.6472184598240291,19.204089386186915,-31.14644647192623,-44.756397,-16.68730196008959,0.0,44.75639699999999,0.7560795193590956,0.60568511,0.24681962,0.02386175,1.0,0.0,0.0,0.0,81.76042921405775
6.6049,67844.0108,-2.29901493583855,0.7950425551663887,-1.7414550341316541,0.9175449868473713,-0.8128389706804614,2.321378459308773,-1.1401330186275942,19.375718643387117,-31.34302897521405,-44.083267,-16.46553160133986,0.0,44.083267000000006,0.7478503366450746,0.60623294,0.26639575,0.04727368,1.0,0.0,0.0,0.0,83.19098208110383
6.6207,67844.0308,-2.3860314379698266,0.9369747704705252,-1.75620261833466,0.7793307975221727,-1.1402224902982372,1.859069983371291,-1.6846960279020253,19.260160734854416,-31.652569782618666,-41.246063,-15.634703885696814,0.0,41.24606299999999,0.7422491083552832,0.60203302,0.2846055,0.07498142,1.0,0.0,0.0,0.0,84.15328168486063
6.6411,67844.0508,-2.002979579476062,0.993304851197909,-1.764416755074702,0.6344849197042579,-1.6085572910265749,1.2972118364829643,-1.3910216697667215,19.16056659701521,-31.894915117576588,-37.815205,-13.936757557476295,0.0,37.81520499999999,0.7398191856304279,0.60021895,0.28808725,0.09700784,1.0,0.0,0.0,0.0,84.56796952229045
6.6621,67844.0708,-1.0218979591647652,0.9360685967540368,-1.7517628184037193,0.5221578451894828,-2.173085279572577,0.6996444412695383,-0.7891930583538338,19.300168783230045,-31.866985022439547,-35.697056,-12.243289311476966,0.0,35.697056,0.7373672564590824,0.60369563,0.2820656,0.11081567,1.0,0.0,0.0,0.0,84.98474699437742
6.6879,67844.0908,0.4990614160209945,0.8533423601760644,-1.6698485150172502,0.4910437065037573,-2.759938108624205,0.17856178552951535,-0.4298817705428073,19.21501017913073,-31.806857630280483,-32.060539,-10.37443841879487,0.0,32.060539000000006,0.737731011701655,0.60426044,0.27460933,0.1233369,1.0,0.0,0.0,0.0,84.92302082002821
6.709,67844.1108,2.1768508571939647,0.8075482875050162,-1.3744276525017476,0.5455023197020541,-3.317078358745754,-0.18074351723227267,0.40709888220717927,18.96405122372532,-31.6983293806,-22.310286,-6.678766410731117,0.0,22.31028599999999,0.7432121703321484,0.60134733,0.2564618,0.14228283,1.0,0.0,0.0,0.0,83.98846625279097
6.727,67844.1308,3.587431713594595,0.6509358966370467,-0.7791940450765455,0.6246609043585106,-3.797497574640485,-0.3588430530678679,1.8713132653546083,18.96267214048553,-31.29946462739396,-5.466179,-1.4429944178932448,0.0,5.466179000000011,0.7494637322765468,0.60124499,0.22294649,0.16463122,1.0,0.0,0.0,0.0,82.91210788277483
6.7436,67844.1508,4.395565522632152,0.3010522264789972,-0.13533549034811188,0.6760324842786235,-4.197818482806181,-0.3402173369522531,3.2974491186921693,19.124493791379685,-30.728962723775922,17.0497,4.121211428076805,0.0,17.0497,0.7539456553258167,0.6030069,0.18186443,0.1867457,1.0,0.0,0.0,0.0,82.13334289970634
6.7627,67844.1708,4.500548551271764,-0.09554222512233856,0.20114360078474647,0.6911339567533458,-4.563481059487658,-0.14726488053395503,4.313326355270265,19.178092409123252,-30.29194771326225,38.250637,9.634178008494821,0.0,38.25063699999998,0.7578948563200412,0.60188997,0.14007832,0.20905003,1.0,0.0,0.0,0.0,81.44207419779731
6.7807,67844.1908,4.0996654404909325,-0.2709199704107632,0.10349642461498298,0.7852062281586882,-4.925269120139732,0.10009372583731047,4.699631215958774,19.226038864810544,-30.040977724721927,54.188293,15.645750393682146,0.0,54.18829299999999,0.7592661998832857,0.5958339,0.1034972,0.24038538,1.0,0.0,0.0,0.0,81.20089934134737
6.7984,67844.2108,3.5952567848184787,-0.07393707121369508,-0.283651467153506,0.9805657820534597,-5.293966326423198,0.2942969503082461,4.722831063314816,19.1453616781205,-30.00750627959917,64.251266,21.917114087653122,0.0,64.25126599999999,0.7591703288254825,0.58521909,0.07025326,0.27612227,1.0,0.0,0.0,0.0,81.21777918875515
6.8193,67844.2308,3.1903045687823184,0.5537316043760276,-0.6113050929170836,1.3106209052131117,-5.62473161931795,0.40023769085903727,4.70494136896851,18.945452125557633,-30.053588962256654,71.271431,28.795230930193515,0.0,71.271431,0.7568578467003867,0.57037371,0.03692639,0.31698024,1.0,0.0,0.0,0.0,81.62405965723018
6.8405,67844.2508,2.869358489035152,1.3685931344419795,-0.5951729242403552,1.657469559482248,-5.870816504162915,0.41753905687247683,5.052865359278057,18.9449236387261,-29.834244676369636,77.21019,36.27221495734402,0.0,77.21019000000001,0.7494870006312506,0.55584371,-0.00456234,0.35956389,1.0,0.0,0.0,0.0,82.9080803491946
6.8596,67844.2708,2.6143223135899,1.8560060680024206,-0.1936852358050558,1.8134953803244644,-6.0270475607776826,0.31598380993929753,5.680869971487541,19.591370256064405,-29.02820172450398,82.670433,43.52545196207162,0.0,82.670433,0.7335534054412989,0.54914147,-0.05827398,0.39616561,1.0,0.0,0.0,0.0,85.62975663133743
6.8812,67844.2908,2.389744663680157,1.6884881079094285,0.3220811252498237,1.7098128474321168,-6.091952733716634,0.16096092397337292,6.0714964327588525,20.590655482469174,-27.902552501679512,87.18589,50.32542272541215,0.0,87.18588999999997,0.7102127975768774,0.54768819,-0.11676777,0.42661542,1.0,0.0,0.0,0.0,89.49553647666423
6.9002,67844.3108,2.1492641422639913,1.054367317913797,0.49216874957760837,1.4092061410721877,-6.0966521013602595,0.1476531998222862,6.05038601336785,20.955976284864473,-27.303327003236927,89.802246,57.09577398311386,0.0,89.80224599999997,0.6875977176289798,0.53807551,-0.1691408,0.45724776,1.0,0.0,0.0,0.0,93.11950610537136
6.9205,67844.3308,2.0402913189148975,0.12348410739871278,0.12306359989710813,0.9897545107588557,-6.12302502189099,0.2229682515666469,5.882191029048322,20.76192332200632,-27.264507215484,90.999809,63.73830151585414,0.0,90.99980900000003,0.667327954695445,0.52022511,-0.21687502,0.48683104,1.0,0.0,0.0,0.0,96.2776629337326
6.9389,67844.3508,2.303263239420878,-0.6184746580307443,-0.5973126588699529,0.6399765639119508,-6.212792537554275,0.3923669270678897,5.476057511927902,20.043901216594975,-27.81612699899855,91.391968,70.0270526304884,0.0,91.39196800000002,0.6505299630158704,0.49485686,-0.25607321,0.51609492,1.0,0.0,0.0,0.0,98.83685852192734
6.9586,67844.3708,2.8797371822485793,-0.6680694211006655,-1.2547351635283164,0.47869395682826876,-6.373682500510503,0.7285211119836489,5.268099663597493,18.768134360367526,-28.8128192751145,91.506447,76.78073258041094,0.0,91.50644699999998,0.6354259157703543,0.45771131,-0.28905576,0.55061877,1.0,0.0,0.0,0.0,101.09683798863975
6.9802,67844.3908,3.7196150629444733,-0.0505493371788516,-1.6610614235070642,0.46954232382560607,-6.626241141998004,1.0269157194419063,5.411660852045975,17.98865802863157,-29.43540417286708,92.029823,84.01746074281745,0.0,92.02982299999996,0.6131784947191472,0.41941932,-0.32628122,0.5844999,1.0,0.0,0.0,0.0,104.36062924310428
7.0001,67844.4118,4.824514407790756,1.1337077655171774,-1.7316654004956025,0.6845973193029626,-6.989746733642271,1.1088829605319737,5.247474832257918,18.38413235445709,-29.356582578212915,93.847862,91.7335450121558,0.0,93.84786200000002,0.5758475086007028,0.39153689,-0.36721385,0.61664617,1.0,0.0,0.0,0.0,109.68198926459051
7.0259,67844.4318,6.011467021890294,2.7926188498712867,-1.2728913379064437,1.098958973679681,-7.393250119367429,1.1633243502529085,4.825534373009694,18.787936605446845,-29.204400454526247,96.313858,99.90828516537478,0.0,96.31385799999998,0.5314154574329163,0.36282191,-0.40391725,0.65023744,1.0,0.0,0.0,0.0,115.79771688276325
7.0482,67844.4528,6.87274494802274,4.231584958552,0.050418913971707724,1.5231260515135663,-7.786034329471745,1.2359085607879765,5.272427878510268,19.097771675241983,-28.813742880899998,98.022331,109.20840489152303,0.0,98.02233100000001,0.4816474170480177,0.32173848,-0.44885495,0.6804626,1.0,0.0,0.0,0.0,122.41389440014385
7.0628,67844.4728,7.245751434252786,5.00897848907128,2.1167157803078904,1.9440359923351942,-8.108927269186918,1.322324123827237,5.851475168124019,19.60395135806599,-28.13660115929176,98.750038,118.56496774381263,0.0,98.75003800000002,0.4286464154375235,0.27813354,-0.4987196,0.70013052,1.0,0.0,0.0,0.0,129.2366222071512
7.0825,67844.4928,6.640326368395643,5.261391366390621,4.549792178232968,2.2809338352311315,-8.303653426362755,1.5550711034180196,6.6078102055860315,20.109593846662925,-27.367555481487763,98.878876,128.60572604198245,0.0,98.87887599999999,0.3694558085542186,0.22916536,-0.55014342,0.71297115,1.0,0.0,0.0,0.0,136.63588098391594
7.1081,67844.5128,5.053954614391813,5.189866549482094,6.692175895601732,2.57752215210981,-8.343147451195557,1.7836614074717103,6.798381028122041,20.938494333550675,-26.541981476448363,98.582558,138.71987940133153,0.0,98.582558,0.3017870914499193,0.18665837,-0.59946597,0.71744251,1.0,0.0,0.0,0.0,144.87005671753673
7.1226,67844.5328,2.759399219930475,5.270069667155541,7.97589312499996,2.8977781583548214,-8.167091796263632,2.0603302810721087,6.2099090818477904,21.598758384180496,-26.17020080134631,99.081665,148.51235619479772,0.0,99.08166499999999,0.2268043671224469,0.1524013,-0.63790041,0.72001159,1.0,0.0,0.0,0.0,153.7819916821622
7.1445,67844.5538,-0.11279408692726012,5.306016689345862,8.303110758108126,3.0976488826404553,-7.8179006857748305,2.3784934593025437,5.868600707426279,22.053280145068186,-26.048302785201194,99.396957,158.77037492265652,0.0,99.39695699999999,0.1445691995559413,0.11497978,-0.67018545,0.71883994,1.0,0.0,0.0,0.0,163.37533341709513
7.1616,67844.5738,-2.59155051234679,5.104156001646621,7.751132091419052,3.1016863892149265,-7.37826282335414,2.675844504505596,5.6408983779980355,22.286544671626963,-26.185565805241076,95.783386,167.92360573462904,0.0,95.78338600000001,0.0716113221165219,0.07721175,-0.69590038,0.71037513,1.0,0.0,0.0,0.0,171.78691703163003
7.1838,67844.5938,-4.575008976216354,4.383828923247261,6.683283142291067,2.9968462053577305,-6.886968441690215,2.894224021365419,5.320553587872415,22.755280474533542,-26.175480108731012,60.70438,176.1870273388387,0.0,60.704380000000015,0.00321284629598,0.0430114,-0.72015524,0.69247103,1.0,0.0,0.0,0.0,179.63183430063927
7.2113,67844.6148,-6.119835332098009,3.31075234406487,5.266265707281505,2.888188018688223,-6.311488063443643,3.0768648307920667,4.503363293107972,23.281679621032442,-26.181961837268297,-30.067173,-176.53104026858588,0.0,30.067172999999997,0.0655863598972528,-0.01873114,0.73997778,-0.669164,1.0,0.0,0.0,0.0,172.4789581334724
7.228,67844.6348,-7.391638537067938,2.1601995586118763,3.5244072076389266,2.744781761775593,-5.64549062333813,3.248243680460873,3.5864412685666074,23.565143725494117,-26.32486650814984,-45.881561,-169.5631137156058,0.0,45.881561000000005,0.1387936406366641,-0.00101838,0.75273079,-0.64353061,1.0,0.0,0.0,0.0,164.043909100663
7.2522,67844.6548,-8.086012983969203,1.2394933619924262,1.724554539731269,2.5668014909602297,-4.9208788592318164,3.338213199637608,2.6706143691880984,23.457074170449808,-26.674443098585503,-48.65205,-163.60250123691534,0.0,48.65205,0.204966731529482,0.01075875,0.75931442,-0.61750668,1.0,0.0,0.0,0.0,156.34489689696915
7.2686,67844.6748,-8.253940018443686,0.6081220702786179,0.07805185062574616,2.3981723191868802,-4.148081154993861,3.3609667164912223,1.858135259556402,23.116254115758554,-27.056964423691113,-48.249256,-158.48903457876168,0.0,48.249256,0.2642368789985255,0.01762956,0.76249605,-0.59031165,1.0,0.0,0.0,0.0,149.35677407314571
7.2847,67844.6948,-7.8050315738328,0.34083723735124316,-1.087512683555893,2.289442731645604,-3.3515869057762417,3.3638724187899283,0.6816615791097895,22.47932934840834,-27.56095208369884,-45.730297,-155.47535871308546,0.0,45.73029700000001,0.3069504368316268,0.01509671,0.76560813,-0.56515282,1.0,0.0,0.0,0.0,144.24890918186026
7.3065,67844.7148,-6.9593663756895925,0.2591978785399611,-1.7425045054587667,2.1945062962513893,-2.623017134066948,3.4031570388510346,-0.7713479022920069,21.86012784584633,-27.932001333906857,-41.665794,-154.37687799444,0.0,41.665794000000005,0.3349867164257076,0.00681516,0.77250087,-0.53942549,1.0,0.0,0.0,0.0,140.85653964116443
7.3282,67844.7348,-5.947175908089925,0.19082225313739087,-1.952345181984085,2.0720325258670873,-2.024636426882858,3.5415520088043824,-2.3492150477465596,21.364547471358012,-28.131784856943955,-36.656174,-154.5486831104533,0.0,36.65617399999999,0.3564304974841313,-0.0061026,0.78195411,-0.51133925,1.0,0.0,0.0,0.0,138.23771647650543
7.3473,67844.7548,-4.891319587267496,0.11164413413454266,-1.7505586426631101,1.9354832301542095,-1.5835391012505105,3.780300208206633,-3.990718043357294,20.82669429408524,-28.31842577430528,-31.206968,-155.84066216080168,0.0,31.20696799999999,0.3743445802319191,-0.02489445,0.79112327,-0.48308423,1.0,0.0,0.0,0.0,136.03238061758665
7.3649,67844.7758,-3.974914010364884,0.014115415509005302,-1.3154735057699654,1.8154393589517281,-1.258718322540732,4.09918367815,-5.543255216071282,19.970561337321968,-28.704456327597832,-25.687054,-157.78218289653302,0.0,25.68705399999999,0.3959649908372229,-0.05228291,0.79520136,-0.45621598,1.0,0.0,0.0,0.0,133.34765666604784
7.3866,67844.7958,-3.234904588797319,-0.09172014161881492,-0.8500094850228432,1.7582206924359571,-1.0591621917493508,4.4390640494171585,-6.777308274334826,18.990120846703974,-29.17500380445548,-20.524078,-160.32925788143854,0.0,20.524078000000003,0.415392252114063,-0.08160571,0.79609555,-0.43246001,1.0,0.0,0.0,0.0,130.91195821227728
