AppTimestamp(s),SensorTimestamp(s),acc_x,acc_y,acc_z,gyro_x,gyro_y,gyro_z,mag_x,mag_y,mag_z
40.0108,67877.4124,0.14660144176964857,0.14533175568128917,0.11965693994556936,0.00061,0.04154,0.02199,-18.54,-18.66,-23.7
40.0226,67877.4325,0.14417267603125478,0.1368831784452072,0.1247958193292451,-0.02199,0.00672,-0.00855,-18.24,-18.78,-23.52
40.0427,67877.4525,0.1408921526771319,0.13837740345922608,0.12583531118523794,-0.03787,-0.03971,-0.02077,-18.12,-19.08,-23.58
40.0641,67877.4724,0.13734759881236275,0.14647108978851117,0.11972358940421479,-0.0281,-0.01222,-0.00611,-18.24,-19.14,-23.82
40.0818,67877.4925,0.12975556398601698,0.15506963634791604,0.10525647762268164,0.01405,0.03054,-0.00061,-18.6,-19.26,-24.06
40.1101,67877.5125,0.11294702332197146,0.15334658702653647,0.0837138618424067,0.05192,0.04643,0.00611,-19.32,-19.2,-24.18
40.1261,67877.5324,0.08671938303155577,0.15330377255002609,0.057863945435222774,0.05742,-0.0226,0.02382,-19.32,-19.2,-23.94
40.1417,67877.5525,0.05463524873629674,0.15119489474618314,0.03110344722597702,0.05986,-0.0617,0.02749,-19.62,-19.56,-24.24
40.1606,67877.5725,0.02434601143868408,0.15203247028850117,0.00568180609618274,-0.05376,-0.06597,-0.03054,-19.32,-19.86,-24.06
40.1836,67877.5924,0.0034710713888458367,0.15762231175729843,-0.01729902887367274,-0.09957,0.02749,-0.04154,-19.02,-19.62,-24.18
40.2034,67877.6134,-0.012572753643279828,0.155542756602362,-0.036639897975897284,-0.0336,0.06414,-0.03238,-19.02,-19.38,-24.12
40.2235,67877.6334,-0.02489988575557407,0.14652119011204692,-0.05017664177020187,0.04704,-0.00672,0.01833,-18.54,-19.38,-23.7
40.2445,67877.6544,-0.029583862849981064,0.13977974526737807,-0.054532886856279106,0.10324,-0.06597,0.05253,-18.6,-18.78,-23.58
40.2636,67877.6745,-0.017052151454340685,0.14936025132333303,-0.04668840142299935,0.05803,-0.01038,0.02627,-19.02,-18.84,-23.28
40.286,67877.6945,0.013799145558760568,0.17543124007546362,-0.026163294276368987,-0.12645,0.01344,-0.01344,-19.08,-19.5,-23.82
40.3052,67877.7144,0.05277494751501296,0.1946672403259986,0.0041731592570659615,-0.16921,0.03482,-0.0171,-19.14,-19.08,-23.88
40.3236,67877.7345,0.08698943259150844,0.19218328070023652,0.038681688730813235,-0.03176,0.03848,0.01833,-19.14,-19.2,-23.88
40.3518,67877.7545,0.10562285753800013,0.16645813153472913,0.07066445655711284,0.0788,-0.0055,0.06597,-18.6,-19.62,-24.12
40.3668,67877.7744,0.1259548145794932,0.1458456730204964,0.09350422856710061,0.06109,-0.06597,0.06475,-18.78,-19.14,-23.4
40.3846,67877.7945,0.1450233144700111,0.14151560548464565,0.10299488653884303,-0.08125,-0.03299,-0.00367,-18.72,-19.56,-23.46
40.4052,67877.8145,0.16415768556939048,0.15704223009207663,0.09719863369520887,-0.15394,0.04337,-0.06292,-18.9,-19.56,-23.16
40.4231,67877.8344,0.1740073951542693,0.17233059096873546,0.07755338798043354,-0.1069,0.04887,-0.02138,-18.72,-19.44,-22.98
40.4465,67877.8554,0.1721672198715952,0.18149049409626125,0.04888746034593261,0.0507,0.01222,0.03726,-18.42,-19.56,-23.16
40.466,67877.8754,0.16390169425139922,0.1914863435557994,0.019145713780977403,0.11973,-0.05253,0.02199,-18.6,-19.44,-23.16
40.4891,67877.8955,0.15767359556915791,0.208835424588375,-0.0022552966292241905,0.0055,-0.03543,-0.05009,-18.3,-19.68,-24.06
40.5178,67877.9154,0.15811290051720536,0.23294659895117414,-0.007461294307233857,-0.13073,0.02077,-0.06903,-18.0,-19.62,-24.12
40.5299,67877.9354,0.14704869565938422,0.2207596852277959,0.00802133616963907,-0.1124,0.00244,-0.0281,-18.0,-19.5,-24.12
40.5476,67877.9555,0.12705093279076388,0.1753812250036647,0.04110735552972322,0.01038,0.02443,0.0,-17.88,-19.32,-23.88
40.564,67877.9754,0.0938893697447914,0.09887436024384427,0.08312525667919957,0.01649,0.00428,-0.01405,-18.12,-19.26,-23.28
40.5842,67877.9954,0.05218621385728228,0.017454606401758697,0.1213319829164039,-0.00977,-0.08002,-0.01283,-18.78,-19.08,-23.1
40.6156,67878.0155,0.01110573324793206,-0.029729296512729368,0.1422502709771294,-0.05009,-0.07514,-0.03482,-18.72,-19.08,-23.16
40.6434,67878.0365,-0.020900376832496313,-0.03356223977551533,0.1344481586691355,-0.12523,0.01649,-0.01833,-18.9,-19.14,-23.28
40.6463,67878.0575,-0.04143594495993634,-0.006448360932206681,0.09217529516725698,-0.07636,0.00367,-0.00733,-18.72,-18.96,-23.46
40.675,67878.0775,-0.048776111997890004,0.06700818505432199,0.020126144126418666,0.07391,-0.03848,0.02871,-18.24,-19.08,-23.82
40.6893,67878.0985,-0.030280916395130673,0.18650972549343775,-0.06560775628764937,0.135,0.03115,0.0617,-18.18,-18.9,-23.76
40.7062,67878.1184,0.010198171961567214,0.32248641043329435,-0.14156104167800976,0.00916,-0.02382,0.02505,-17.7,-19.02,-23.76
40.7269,67878.1384,0.06805092029176023,0.44429423166963505,-0.18456775232464473,-0.08613,-0.00367,-0.00794,-17.94,-19.32,-24.18
40.7688,67878.1594,0.13288818175068298,0.5342681899540227,-0.1799491372774984,-0.09407,0.00611,-0.02871,-18.42,-19.62,-24.0
40.7823,67878.1795,0.1791134493286892,0.5134246365151945,-0.12126606861614775,-0.08796,-0.00611,-0.00305,-18.66,-19.68,-24.0
40.8099,67878.1994,0.19506380794483483,0.42144995359123993,-0.021763441782102433,-0.07147,-0.07514,0.00061,-19.14,-19.74,-23.94
40.8211,67878.2194,0.18236798897531956,0.2698282390542678,0.09617581085268334,-0.04581,-0.11423,-0.0391,-18.9,-19.62,-23.22
40.8304,67878.2395,0.1379844575507796,0.10448872253603543,0.20528484673635106,-0.08491,-0.05009,-0.06292,-18.9,-19.02,-22.98
40.8539,67878.2605,0.07779572658057647,-0.018390250368411208,0.28244262038039736,-0.13439,0.01833,-0.05803,-18.78,-18.9,-23.28
40.8681,67878.2805,-0.0005387070092671047,-0.10915090945639656,0.3140059144612568,-0.15211,0.03115,-0.07391,-19.08,-18.9,-23.34
40.8875,67878.3004,-0.07377153213910255,-0.1472170690772868,0.2972573399270697,-0.0843,0.03176,-0.04887,-19.5,-18.3,-23.34
40.9073,67878.3204,-0.1295057936164421,-0.14171526017165129,0.24118587811545922,0.05376,0.03115,0.00794,-19.08,-18.48,-23.46
40.9273,67878.3404,-0.1506779239432536,-0.09269644166419543,0.163561416652108,0.10751,-0.0226,0.02566,-19.2,-18.78,-23.34
40.9472,67878.3603,-0.1280201897625859,-0.005469702792025509,0.08460916083136993,0.0281,0.00794,0.02627,-18.9,-18.3,-23.34
40.9724,67878.3804,-0.06804525086455837,0.10161869853914778,0.020559347368875436,-0.05742,0.02566,0.02505,-18.48,-18.66,-23.94
40.9927,67878.4004,0.013570327786961331,0.2005537687307068,-0.019342145896930063,-0.03787,0.02321,0.05986,-18.66,-18.72,-24.06
41.0112,67878.4204,0.09440733421491164,0.27651509083998277,-0.033225875599272925,0.09224,-0.0055,0.0672,-18.6,-18.42,-24.18
41.0347,67878.4404,0.15211932066477268,0.32556096373799237,-0.025387741425348054,0.11729,-0.00183,0.05986,-18.6,-18.54,-24.36
41.0505,67878.4614,0.18047143059656556,0.3586804604372804,-0.004784156685172292,0.00183,0.00611,0.0452,-19.02,-18.78,-24.0
41.0931,67878.4824,0.16721088248106866,0.3744459195004491,0.018474864062978824,-0.07453,-0.011,0.00244,-19.2,-18.9,-24.06
41.0956,67878.5024,0.12063625823684462,0.35287947664625435,0.03537972970267589,-0.0226,0.01894,-0.00428,-19.32,-19.08,-23.58
41.1136,67878.5224,0.05561937230211367,0.30725797755101775,0.03834847964772159,0.04398,0.0281,-0.01405,-19.92,-18.96,-23.58
41.1296,67878.5423,-0.01251743044346087,0.24377735983517757,0.02427984618864265,0.00489,0.09468,-0.02443,-19.68,-18.42,-23.1
41.1541,67878.5624,-0.05863364552059725,0.17859583273781293,-0.005698659245942039,-0.05253,0.03299,-0.02993,-19.62,-18.42,-23.16
41.1729,67878.5824,-0.07655379840735128,0.1255321162301878,-0.04662576434766841,-0.02199,0.02199,-0.03848,-20.04,-18.84,-23.46
41.19,67878.6024,-0.057231535417063086,0.09996274905899295,-0.09096016643778349,0.01405,0.00794,-0.01955,-19.8,-19.08,-23.16
41.2099,67878.6224,-0.004020742186200225,0.11603283025034321,-0.12978900766390744,0.02871,0.01344,0.04032,-19.8,-19.62,-23.52
41.23,67878.6424,0.07027181438902785,0.18073177144627656,-0.15432055562376945,0.00122,-0.00183,0.07208,-19.68,-19.14,-23.7
41.2584,67878.6634,0.14174188083362374,0.2866910741512314,-0.15750880437847847,-0.0281,0.01466,0.08186,-19.02,-18.84,-23.64
41.279,67878.6834,0.1966657177236709,0.4085969324803136,-0.13536248038627363,-0.01038,0.04887,0.05803,-18.72,-18.66,-23.94
41.2942,67878.7034,0.215879233736952,0.5117397817078219,-0.08719101922623373,-0.0226,0.03848,0.04643,-18.6,-18.48,-24.0
41.3153,67878.7234,0.19377134751871417,0.5700794130858382,-0.0163952608988307,-0.09041,0.00244,0.01588,-18.78,-18.96,-23.94
41.336,67878.7444,0.14122345598413097,0.5590817245285505,0.07039401230343856,-0.11545,0.00122,-0.0391,-19.62,-18.78,-24.0
41.3562,67878.7644,0.07452047257035341,0.4738318447212039,0.16328214809329644,-0.12767,0.01894,-0.07636,-19.74,-18.78,-24.12
41.3746,67878.7844,0.008395486832167051,0.3290738102472761,0.24958789924139424,-0.10934,0.00611,-0.04643,-19.86,-18.66,-24.24
41.3968,67878.8044,-0.045486837506574986,0.16472208137972974,0.31489466596781135,-0.08919,-0.06658,-0.04032,-19.62,-18.36,-24.24
41.4141,67878.8244,-0.08284119420039453,0.015386296763824027,0.34651919835235034,-0.04581,-0.09591,-0.03115,-19.14,-18.48,-23.94
41.4331,67878.8444,-0.10597089883531932,-0.07981665399766767,0.3363966916769705,-0.05376,-0.07269,0.01161,-18.96,-18.66,-24.12
41.4527,67878.8644,-0.12197544285620636,-0.10557665149517764,0.2845319969069138,-0.0281,-0.02932,0.02993,-19.2,-18.72,-24.12
41.4765,67878.8844,-0.14258375289802022,-0.06691804036934801,0.20050658539349442,0.02199,0.03482,0.00061,-19.26,-18.78,-23.76
41.4971,67878.9043,-0.1770132448609772,0.015524104314279885,0.10251436157145477,0.03054,-0.00733,-0.01833,-19.62,-19.02,-24.18
41.5183,67878.9244,-0.22388637559601368,0.11149580699017476,0.012938597430309784,0.01588,-0.05803,-0.00611,-19.92,-18.9,-23.94
41.5323,67878.9444,-0.2668306227621868,0.19319332118789134,-0.0480734346999423,0.02138,-0.06292,0.02382,-19.92,-18.78,-24.18
41.5559,67878.9644,-0.2944751543321908,0.23551350927392217,-0.0688023835685243,0.0391,-0.00489,0.03848,-19.68,-18.48,-24.18
41.5781,67878.9844,-0.2902872381866342,0.23674160736584499,-0.04917154488731512,0.0055,0.01588,0.03787,-19.32,-17.64,-24.0
41.604,67879.0044,-0.25442993672974396,0.20851346722921876,-0.0007605521632179091,-0.01833,0.00672,0.05803,-19.32,-17.46,-24.0
41.6222,67879.0244,-0.19119449789327772,0.16779873223848946,0.05739132684974635,-0.03054,-0.01344,0.02871,-18.78,-17.52,-23.76
41.6396,67879.0444,-0.11595326102360619,0.1345224251715214,0.10432006209622813,-0.04765,0.02749,0.02077,-19.02,-18.06,-23.94
41.6546,67879.0654,-0.04402651538031236,0.1206169579385072,0.12392729957715787,-0.03665,0.04215,0.0336,-19.02,-18.3,-24.0
41.6765,67879.0854,0.010734549978510227,0.1287660150327264,0.11003017703228402,0.04581,0.04765,0.04154,-18.84,-18.48,-23.88
41.6946,67879.1054,0.04117125486363823,0.16165721099459704,0.06802389719270074,0.10812,0.04276,0.03238,-19.26,-18.84,-23.7
41.7141,67879.1254,0.0495326455916781,0.21223701649070723,0.012405159422488765,0.09835,0.02382,0.03848,-19.56,-18.42,-23.7
41.7344,67879.1454,0.04832367306778255,0.27186165137970586,-0.038856700114374476,-0.0171,0.03604,0.03665,-19.38,-18.66,-23.4
41.7556,67879.1654,0.05280745106532061,0.32576156086377767,-0.06978647360109136,-0.0898,0.0733,0.02749,-19.14,-18.42,-23.7
41.7757,67879.1854,0.07111807427373967,0.3577531805836264,-0.07013836157879894,-0.03054,0.08552,-0.0171,-18.84,-18.06,-23.88
41.8115,67879.2054,0.10370660552480039,0.36590418952957854,-0.03757112152370112,-0.00672,0.02749,0.00428,-18.42,-17.76,-23.82
41.8247,67879.2254,0.15161489936730985,0.34537620391143403,0.022793060283829547,0.00122,-0.05559,0.06292,-18.54,-17.64,-24.18
41.8441,67879.2454,0.20195890449367307,0.3067450984952567,0.09898507045287985,0.02871,-0.09285,0.1014,-18.72,-18.18,-24.3
41.8568,67879.2654,0.2627723802189907,0.2660878365533228,0.17438746665052562,0.06842,-0.0452,0.08796,-18.78,-18.06,-24.12
41.8846,67879.2854,0.31112569555616587,0.23069082338333174,0.23271872658824044,0.00733,-0.0391,-0.00244,-19.02,-18.6,-24.12
41.8935,67879.3054,0.3431034112345879,0.1928701219769043,0.2607330179055225,-0.10812,-0.06658,-0.07758,-19.26,-18.48,-23.7
41.9128,67879.3254,0.3507973062796205,0.162233436030172,0.25070601189671926,-0.07391,-0.04032,-0.09285,-19.38,-18.24,-23.4
41.9389,67879.3454,0.3248249757818898,0.12372804175705551,0.20223084660428547,0.04765,-0.0281,-0.05376,-19.5,-18.18,-23.4
41.959,67879.3654,0.2673790733707176,0.09209109027192353,0.12006265429780427,0.14783,-0.06903,-0.01527,-19.44,-18.0,-23.34
41.9764,67879.3864,0.1928348559529334,0.08485299981849209,0.01299601189997901,0.12462,-0.12034,-0.04643,-19.02,-18.18,-23.76
41.9967,67879.4064,0.11238575333078074,0.10743556078578428,-0.10762230898194325,-0.011,-0.09713,-0.1014,-19.02,-18.3,-23.28
42.0161,67879.4263,0.03039489585206763,0.157236246626833,-0.2293336568676967,-0.07758,0.00428,-0.10934,-19.14,-18.3,-23.58
42.0353,67879.4464,-0.05281767828852378,0.2197046767751386,-0.33859217027595,-0.03787,0.02871,-0.11179,-18.84,-18.48,-23.76
42.0589,67879.4664,-0.13043654976779231,0.2844213098179135,-0.4206520000056315,0.02199,-0.05253,-0.06048,-19.26,-18.3,-23.58
42.0793,67879.4874,-0.19080461901889714,0.35120489580245173,-0.4609497878784907,0.04826,-0.10568,-0.0226,-19.2,-18.3,-23.7
42.1002,67879.5074,-0.21581205603284623,0.41853758286920356,-0.4480844094714289,-0.00733,-0.07086,0.00061,-18.9,-18.66,-23.46
42.1219,67879.5274,-0.1977675741202734,0.47541212190015825,-0.3779481343903175,-0.11423,-0.01772,0.00428,-18.9,-18.84,-23.52
42.1389,67879.5474,-0.1432824779414092,0.4926038951325385,-0.2560607317024193,-0.16799,-0.00305,0.00244,-18.66,-18.96,-24.0
42.161,67879.5674,-0.07214256545859649,0.46587882131270797,-0.099528910530573,-0.13744,-0.09224,0.01344,-18.48,-18.78,-24.72
42.1802,67879.5874,-0.0010696655656470362,0.38848484059838445,0.06755159137640732,-0.05803,-0.12523,0.00244,-18.54,-18.24,-24.84
42.1963,67879.6074,0.056504068816337065,0.28532283123929875,0.2176088152630129,-0.05192,-0.09957,-0.01588,-18.84,-18.12,-24.84
42.2176,67879.6274,0.08772454391611227,0.1923010161754949,0.3271327294760571,-0.13073,-0.07147,-0.00061,-18.9,-18.0,-24.54
42.237,67879.6474,0.09286943392314628,0.12213533496358489,0.3825278210594103,-0.14294,-0.05925,-0.03299,-18.84,-18.3,-24.24
42.2593,67879.6684,0.07433105109664502,0.08491676320407725,0.38244885204940715,-0.07453,-0.06475,-0.09346,-19.14,-18.48,-24.18
42.2815,67879.6884,0.036746607199471044,0.07543495327231386,0.33830331334473485,-0.02321,-0.00428,-0.09224,-18.78,-18.48,-24.0
42.3014,67879.7084,-0.013962299923523871,0.09028504261525347,0.2704202229539323,-0.00977,-0.00061,-0.06903,-18.36,-18.54,-23.88
42.3193,67879.7284,-0.06780349726951967,0.12201645199222778,0.20111082116557988,-0.00855,-0.01222,-0.05131,-18.66,-18.36,-23.46
42.3393,67879.7483,-0.11496189493918232,0.15811033905874497,0.14720314271560753,-0.03238,-0.05681,-0.04276,-18.24,-18.66,-23.16
42.3603,67879.7684,-0.15061882449925984,0.18650120336289988,0.11529229219988579,-0.02993,-0.04826,-0.03176,-18.48,-18.66,-23.16
42.3783,67879.7884,-0.17499460417070054,0.20113987438757777,0.10153685679864388,-0.02871,-0.04826,-0.04826,-18.78,-18.84,-22.8
42.3999,67879.8084,-0.19121508836517373,0.2082103749278684,0.09560819906888796,0.01344,-0.00672,-0.04948,-18.96,-18.72,-23.16
42.4212,67879.8284,-0.20408737143976197,0.21898658551530015,0.08688741913939069,0.01833,-0.00489,-0.03054,-19.08,-18.66,-23.28
42.4409,67879.8484,-0.2139455965035272,0.24347170697587353,0.06983046347087729,0.01466,-0.01466,-0.01222,-19.14,-18.54,-23.16
42.4665,67879.8694,-0.21679719817355403,0.28037745208216247,0.046226946232454935,0.02138,-0.0171,-0.011,-19.26,-18.3,-23.28
42.482,67879.8914,-0.21164243922805492,0.3204219738770322,0.023525827754784956,0.01038,0.05192,0.00305,-19.32,-18.36,-23.28
42.5,67879.9114,-0.19759628660629044,0.34751169622179395,0.011018398921569528,0.00733,0.02443,0.00977,-19.8,-18.42,-23.16
42.5207,67879.9324,-0.17672781345780433,0.35215815915737636,0.014852150536674102,0.04948,-0.00305,0.01344,-19.92,-18.54,-23.04
42.5409,67879.9524,-0.15002825650499899,0.33813803822945365,0.034593478681134826,0.04887,-0.02505,0.01466,-19.74,-18.18,-22.74
42.5627,67879.9724,-0.11913802862893953,0.3157375052185511,0.06280501633429125,-0.02199,0.01833,0.0055,-19.32,-18.48,-22.74
42.5817,67879.9924,-0.08776547993698369,0.29443291838361996,0.08752617758597125,-0.03971,0.05498,0.01527,-19.2,-18.48,-22.98
42.6029,67880.0124,-0.05999601843685709,0.28202533607617386,0.09682076514993909,-0.00367,0.0452,0.02566,-19.14,-18.36,-23.34
42.6257,67880.0324,-0.03784876489349382,0.2827367795680983,0.08408943094244137,0.0617,0.00672,0.02443,-19.08,-18.78,-23.82
42.6429,67880.0524,-0.01908453939000925,0.30618802725443933,0.051276899453911895,0.1069,0.03176,0.03299,-19.5,-18.78,-23.64
42.6626,67880.0724,-0.0024749414265266617,0.3444937386249143,0.009066813554788666,0.05986,0.06658,0.04276,-19.08,-18.9,-23.58
42.6813,67880.0924,0.01260687426446384,0.3869860472865329,-0.027703992709762204,-0.00428,0.02993,0.02993,-19.08,-18.96,-23.64
42.7015,67880.1124,0.025263405482306673,0.41503424774986125,-0.045535438469475054,-0.00122,0.01222,0.03848,-18.9,-19.2,-23.82
42.7289,67880.1323,0.033953075811062536,0.41620518283161007,-0.03743094234329014,0.02016,-0.00489,0.0336,-18.48,-18.78,-24.0
42.7432,67880.1524,0.044672554442644945,0.38729872829515355,-0.005206143257620255,-0.00916,-0.02382,0.02871,-18.48,-19.02,-24.12
42.7725,67880.1724,0.048071468443178604,0.3376563205973529,0.041339221265383586,-0.00428,0.01344,0.0336,-18.48,-19.2,-23.76
42.7884,67880.1924,0.047755455571243714,0.2833937230503923,0.08790951707188022,0.01283,0.01955,0.03238,-18.84,-19.14,-23.76
42.8088,67880.2124,0.03667174999049865,0.23917188119630078,0.12057715923344148,0.01833,-0.03543,0.02016,-19.26,-19.02,-24.0
42.8233,67880.2324,0.020450583916491478,0.21731501072599374,0.12989367282180808,-0.00489,-0.04826,0.01466,-19.56,-18.78,-23.58
42.8404,67880.2524,0.0017015176195160865,0.22197578939030782,0.11386358933873275,0.0055,-0.01955,-0.0055,-19.38,-18.42,-23.7
42.8613,67880.2724,-0.01456070832398626,0.24828023134072147,0.07821422055839378,0.03787,0.09713,0.0,-19.62,-18.6,-23.82
42.8794,67880.2924,-0.029541779699284332,0.2885023213665213,0.0336008681394091,0.05192,0.05925,0.01833,-19.38,-18.96,-23.88
42.9012,67880.3124,-0.04153030134385879,0.32993381391700666,-0.009060056332835131,0.0452,0.01649,0.02016,-19.14,-18.9,-24.06
42.9242,67880.3324,-0.045990322957649675,0.3683816233609147,-0.043403558457679736,0.03482,-0.04948,0.01222,-19.26,-19.08,-24.3
42.9452,67880.3524,-0.03447218189472871,0.4030564144099285,-0.06914754372155585,0.01466,-0.03543,0.00916,-18.9,-18.6,-24.12
42.9619,67880.3724,-0.006176362239139077,0.431746696107973,-0.08998518342288264,-0.03543,0.00428,0.00855,-18.48,-18.6,-23.58
42.9812,67880.3924,0.030747335487821128,0.4535268294172042,-0.10946180624716462,-0.01833,0.03299,-0.00611,-18.3,-18.48,-23.58
43.0045,67880.4134,0.06331201783733786,0.4636723806747904,-0.12690929055447597,0.01222,-0.00428,0.00489,-18.3,-18.66,-23.28
43.0232,67880.4344,0.08367580806173223,0.46020492563023707,-0.13677129168805635,0.0336,-0.05986,0.02566,-18.54,-18.66,-23.28
43.0442,67880.4544,0.08744028655139642,0.4406224186376587,-0.13071341194559238,0.01772,-0.0562,0.02505,-19.26,-18.6,-23.34
43.0623,67880.4744,0.07681016602520457,0.4038704143124494,-0.10170765164072826,-0.03971,-0.0281,-0.00672,-19.5,-19.14,-23.1
43.0888,67880.4944,0.05202785881939579,0.3553303237838529,-0.04784853947038492,-0.09102,0.00489,-0.04154,-19.5,-18.78,-23.28
43.1114,67880.5154,0.010567503633509646,0.28747774910289525,0.026247741715204498,-0.10079,-0.03421,-0.04154,-19.2,-18.84,-23.1
43.1246,67880.5354,-0.041873857927298225,0.20711332518349126,0.1085933875657279,-0.04826,-0.0391,-0.01283,-19.2,-19.38,-23.1
43.1523,67880.5554,-0.09405091224253634,0.14147036771266946,0.18335342972774704,0.00367,-0.03421,0.0055,-19.08,-19.14,-23.52
43.171,67880.5764,-0.12635635707468335,0.10435511558426804,0.2365124681173878,-0.00367,-0.05742,-0.00977,-19.26,-19.26,-23.16
43.1873,67880.5964,-0.13278186439705106,0.1068655426856587,0.2590111652403202,-0.02138,0.011,-0.01283,-19.38,-19.5,-23.1
43.209,67880.6164,-0.11513312169074814,0.14701502927997004,0.24842870206353318,-0.02321,0.03421,-0.01161,-18.96,-18.96,-23.28
43.2318,67880.6364,-0.08542521041726037,0.2108995208074944,0.20871175964367517,0.02443,0.03482,0.00855,-18.72,-18.96,-22.62
43.2457,67880.6564,-0.05341588649290407,0.28769571698725654,0.14864577701356652,0.06536,-0.01772,0.01649,-18.66,-18.9,-23.1
43.2666,67880.6774,-0.02722517083081877,0.356790473490823,0.08002823028148676,0.06292,-0.02016,0.01161,-18.78,-18.84,-23.52
43.2864,67880.6974,-0.00875186387293373,0.4114450553642897,0.014965018087856663,0.05559,0.01649,0.00489,-19.02,-18.96,-22.86
43.3092,67880.7174,-8.716284674774204e-06,0.44120943105041194,-0.03548615032985403,0.02321,0.04948,-0.02382,-19.68,-18.78,-23.4
43.3289,67880.7374,-0.004246468334490549,0.4433296336514415,-0.063425672835006,0.0171,0.03421,-0.0336,-19.32,-19.02,-23.28
43.3531,67880.7584,-0.01708382258820823,0.4190082177171739,-0.06573584908261942,-0.02505,-0.03787,-0.02627,-19.2,-19.14,-22.98
43.3713,67880.7784,-0.03493892601487648,0.3751880117090183,-0.04526888120426875,-0.00489,-0.011,-0.01222,-19.44,-19.2,-23.58
43.3877,67880.7984,-0.049807262573337334,0.3268675433339406,-0.010400379324767783,0.03421,-0.01222,0.00855,-18.78,-18.96,-23.58
43.4089,67880.8184,-0.05978478226606767,0.28768434991470554,0.027653965251873913,0.05437,-0.02077,0.01649,-19.02,-18.54,-23.88
43.4298,67880.8384,-0.06225317557976864,0.2737339607460313,0.057954532884336274,0.04581,-0.01894,0.01161,-19.02,-18.36,-24.06
43.4481,67880.8584,-0.059403765239495886,0.2902849619391697,0.07301918725811518,0.02077,-0.01955,-0.01833,-19.2,-18.48,-23.94
43.4686,67880.8784,-0.05618296961950871,0.32856896124868734,0.07050718573145431,-0.02566,0.0336,-0.03665,-19.8,-18.72,-24.18
43.4872,67880.8984,-0.06140914669654983,0.3716748079539824,0.05330639864648923,-0.00489,0.05864,-0.01955,-19.8,-18.42,-23.88
43.5087,67880.9184,-0.07797444520456868,0.4033134567957028,0.028054063257920703,0.03176,0.03299,0.00977,-20.28,-18.18,-23.76
43.5268,67880.9384,-0.10243310651170297,0.41908772235678204,0.002351646808932628,0.05559,-0.03726,0.00428,-19.92,-18.18,-23.76
43.5476,67880.9584,-0.1247092389461169,0.42002503611061515,-0.01727871279999782,0.04093,-0.04765,-0.02016,-19.62,-18.36,-23.7
43.5689,67880.9784,-0.134248907605799,0.4140195854534984,-0.026986789587242654,-0.02505,-0.02871,-0.02932,-19.74,-19.08,-23.58
43.5926,67880.9994,-0.12841574420582055,0.4052716431183656,-0.02589056751938834,-0.03848,0.04948,-0.01283,-19.14,-19.14,-23.46
43.6227,67881.0204,-0.11455679320085152,0.3942020869909842,-0.01595421664501373,0.00367,0.0391,0.01344,-18.96,-18.9,-23.52
43.6301,67881.0404,-0.09007987609984364,0.3905856112767183,-0.0014608341932120794,0.03971,-0.0281,0.04459,-19.08,-18.9,-23.4
43.6535,67881.0604,-0.07137043956720003,0.3924423857879345,0.012710725966883274,0.05498,-0.09224,0.05315,-19.08,-19.02,-23.52
43.6694,67881.0804,-0.04098950673133903,0.4139552588634907,0.021812167179197317,0.02077,-0.05742,0.03421,-18.9,-18.96,-23.4
43.6906,67881.1004,-0.00798368638696471,0.44912826291634167,0.023511136983662695,-0.03176,0.04948,0.02016,-18.78,-18.6,-23.34
43.7127,67881.1204,0.01947414468419402,0.4840241607976515,0.01870661667248541,-0.05498,0.07086,0.0055,-18.66,-18.9,-23.28
43.733,67881.1404,0.028682557115891034,0.5014100562576284,0.011072929159873013,-0.00855,0.00305,0.00672,-18.6,-18.66,-23.34
43.7516,67881.1604,0.018963200755174322,0.4971525165432778,0.004431012501839859,0.05376,-0.08552,0.02627,-19.14,-18.84,-23.28
43.7696,67881.1804,-0.0007053745491887123,0.478266740404641,0.0008177816215528821,0.05742,-0.09102,0.04948,-19.32,-19.62,-23.04
43.7902,67881.2004,-0.0213891720139236,0.45480744589965233,0.0001827561347003126,0.0,-0.03176,0.02321,-19.14,-19.2,-22.86
43.8257,67881.2204,-0.03568317333125861,0.4404735274836519,0.0008931765515889367,-0.07025,0.03176,-0.0226,-19.44,-19.2,-22.86
43.8302,67881.2404,-0.05883358665396801,0.4064013003098608,0.0027762180319541585,-0.0843,0.02749,-0.03726,-19.2,-19.38,-22.56
43.8478,67881.2604,-0.08181237230985004,0.3781568503868857,0.0040432735944069265,-0.02016,-0.03848,-0.00428,-19.44,-19.14,-22.56
43.8683,67881.2804,-0.10289272436732019,0.3556809315996818,0.0054283622544080146,0.04459,-0.05192,0.00733,-19.8,-19.26,-22.68
43.8899,67881.3004,-0.11208052486012655,0.34905103048543823,0.0084910620170362,-0.00977,-0.02627,-0.01283,-19.5,-19.44,-22.5
43.9139,67881.3204,-0.10472557742700753,0.36114107376522164,0.01502764504679277,-0.0562,0.02688,-0.01466,-19.74,-19.32,-22.92
43.9317,67881.3404,-0.08676988279337013,0.3795096790297842,0.025712826332787486,-0.05253,0.01894,0.01038,-19.62,-19.56,-23.34
43.9508,67881.3604,-0.0665418665049576,0.3964371350835478,0.038523758018797594,0.00611,-0.00672,0.03971,-19.44,-19.62,-23.4
43.972,67881.3804,-0.05089868488800712,0.40914261041216266,0.04899867503494093,0.03421,-0.03787,0.01833,-19.08,-19.38,-23.4
43.9907,67881.4004,-0.039513806216321244,0.4234451906927793,0.05175862260850117,0.0,-0.03543,-0.00489,-18.78,-19.56,-23.58
44.0094,67881.4204,-0.0322872986392217,0.4442881411569104,0.04339011631946654,-0.06109,-0.04337,-0.01222,-18.6,-19.38,-23.04
44.0315,67881.4404,-0.027814696666554152,0.47268224964147804,0.02484636703370846,-0.04154,-0.00977,-0.03176,-18.6,-19.14,-23.28
44.0518,67881.4604,-0.028354906304147706,0.5021199544314116,0.0022817718855030478,0.00977,0.01772,-0.01894,-18.72,-19.08,-23.46
44.0705,67881.4804,-0.03485566661315353,0.5264804700562508,-0.01498839899221771,0.02321,0.00183,0.01161,-18.54,-18.66,-23.46
44.0939,67881.5004,-0.04844165586899457,0.5363830401013981,-0.0179535537487876,0.00611,-0.05009,0.04215,-18.48,-18.06,-23.76
44.1145,67881.5214,-0.061530104588628155,0.5249107473434697,-0.001982954627999689,-0.00672,-0.06842,0.01344,-18.24,-18.24,-23.4
44.1329,67881.5414,-0.06939908548808262,0.48788729295676636,0.030990009524211715,-0.02688,-0.06597,-0.01405,-18.3,-18.24,-23.4
44.1502,67881.5614,-0.0710618821266065,0.43033580069434235,0.07237197709007681,-0.04704,-0.02382,-0.0391,-18.72,-18.78,-23.1
44.1728,67881.5814,-0.06564497349659708,0.37019346831950944,0.10912096236909541,-0.08308,-0.01344,-0.06231,-18.78,-19.2,-23.4
44.19,67881.6014,-0.06108561077590332,0.31577413753595923,0.1283264223707299,-0.07147,-0.02199,-0.05315,-19.32,-19.08,-23.46
44.2122,67881.6214,-0.05698436626492074,0.2864307914887829,0.12114781965327204,0.00061,-0.07941,0.00794,-19.5,-19.08,-23.46
44.2332,67881.6414,-0.047111900000226616,0.2935996392304217,0.08805458211741879,0.0733,-0.09102,0.04032,-19.32,-18.78,-23.64
44.2488,67881.6614,-0.025573729516180376,0.3451957544661306,0.04038442119706431,0.08919,-0.04154,0.02016,-19.56,-18.78,-23.46
44.269,67881.6814,-0.002998056066835707,0.42154260586827197,-0.0019445700427116464,0.00061,0.02016,-0.01833,-19.26,-18.84,-23.4
44.2889,67881.7014,0.005287020224212985,0.490777920300983,-0.017724777445234707,-0.07391,0.04093,-0.0281,-19.26,-19.38,-23.04
44.3187,67881.7214,-0.016225215549252787,0.5175771074444622,0.006673084168760113,-0.05803,-0.0171,0.0,-19.14,-19.5,-23.16
44.3351,67881.7414,-0.06683620850463579,0.47641901863083985,0.07008337496423955,0.02505,-0.09529,0.02016,-19.02,-19.74,-22.92
44.3557,67881.7614,-0.1371687696970755,0.3833356354941084,0.1540874654646327,0.04154,-0.10079,-0.03971,-18.96,-19.68,-22.8
44.3745,67881.7814,-0.20795379863264268,0.2729078054578764,0.23080527945060325,-0.0452,-0.0281,-0.08613,-19.08,-19.26,-23.1
44.3933,67881.8014,-0.2667449423984017,0.18071012560082866,0.2734345202050861,-0.07819,0.02443,-0.09102,-19.5,-19.38,-22.92
44.4105,67881.8214,-0.31029653294526255,0.13102923729079421,0.26564094576842123,-0.03176,0.05009,-0.0898,-19.62,-19.44,-22.98
44.4299,67881.8424,-0.3333952484878286,0.1357292250908446,0.20781965397674895,0.1014,0.07819,-0.06781,-19.38,-19.08,-22.98
44.4501,67881.8624,-0.3365445701524127,0.19510515292520741,0.1167240033650927,0.15149,0.07819,-0.00367,-19.26,-19.08,-22.8
44.4775,67881.8824,-0.3162231133607962,0.2899032098905867,0.018653919737788627,0.09591,0.03482,0.04581,-18.72,-18.6,-23.28
44.4943,67881.9034,-0.2719622280912433,0.41441918655884274,-0.06231811140272647,0.05559,0.04948,0.01283,-18.3,-18.54,-23.52
44.5117,67881.9234,-0.21030899926422117,0.5278306828103552,-0.1110112280753377,0.02627,0.0507,-0.02382,-18.54,-19.02,-23.34
44.5323,67881.9434,-0.14380160362603842,0.6119327009720431,-0.12510694187107774,0.02443,0.10568,0.02077,-18.12,-19.38,-23.58
44.5542,67881.9644,-0.08756142733662589,0.662987819118635,-0.11326057364156483,0.02749,0.0617,0.08735,-18.3,-20.16,-23.04
44.5738,67881.9844,-0.04697665855580037,0.689431792704523,-0.09031447895323197,0.03787,0.00428,0.10568,-18.3,-19.98,-22.68
44.5999,67882.0044,-0.027952985314875316,0.6990694895242078,-0.07060619946964408,0.0672,0.00305,0.0788,-18.18,-19.68,-22.86
44.6209,67882.0244,-0.01896856322184284,0.7083793957617173,-0.06298335721816173,0.0617,0.02382,0.04948,-18.78,-19.38,-22.38
44.647,67882.0444,-0.022143622211928258,0.7170877685144975,-0.06621667175740775,0.01344,0.03787,0.04032,-18.9,-19.02,-22.32
44.6527,67882.0644,-0.037207028624580224,0.7164756257211432,-0.0706959464944763,-0.02138,0.05315,0.02321,-18.84,-19.2,-22.68
44.6751,67882.0844,-0.05679048779308035,0.7023343175634175,-0.06393971886819294,-0.04581,0.03726,0.01283,-18.84,-19.38,-22.38
44.6983,67882.1044,-0.07911972033186726,0.6601496754981223,-0.03528716603226556,-0.03726,0.00794,0.03726,-18.42,-19.26,-22.92
44.7142,67882.1244,-0.09359925979073899,0.5889715812912838,0.017922491290940812,-0.00061,-0.03726,0.06231,-18.36,-18.9,-23.22
44.7331,67882.1454,-0.10036104978031384,0.502480463041301,0.08869609827668334,0.01222,-0.03726,0.06842,-18.48,-18.66,-22.98
44.7553,67882.1654,-0.09765606437854733,0.4188177857707837,0.1629003070606494,-0.02566,-0.05253,0.05925,-18.72,-18.6,-23.64
44.7765,67882.1854,-0.08462838685014305,0.3523691286855584,0.22355525099212947,-0.0562,-0.03238,0.03299,-18.78,-18.6,-23.46
44.8005,67882.2054,-0.0694565911333521,0.31282453797359755,0.2556966448025886,-0.0226,-0.01466,0.01833,-18.78,-18.84,-23.4
44.8231,67882.2254,-0.057262036684532835,0.3029989996854732,0.25113446156766095,0.02505,-0.00794,0.02993,-18.72,-19.14,-23.4
44.8329,67882.2454,-0.04329930210417337,0.3299294547070351,0.21060337778853544,0.0507,-0.0171,0.05315,-18.84,-19.26,-23.4
44.8536,67882.2654,-0.03489544335567686,0.37940755577615676,0.14379493118675768,0.05253,-0.03238,0.03543,-18.84,-19.08,-23.46
44.879,67882.2854,-0.024745886852154578,0.4413990571723697,0.06548377899164848,0.02993,-0.00855,0.01405,-18.78,-19.2,-23.46
44.8937,67882.3054,-0.014365992929760006,0.5038553568484352,-0.008909474641036752,0.02932,0.02077,-0.00061,-19.2,-19.32,-23.52
44.9124,67882.3254,-0.012493369570712346,0.5463544394081522,-0.06701538101060045,0.06231,0.00061,0.01283,-19.2,-19.26,-23.16
44.9368,67882.3454,-0.026775762389559414,0.5613741499040492,-0.10320038419739852,0.06048,-0.02749,0.04398,-19.2,-19.38,-23.22
44.9571,67882.3654,-0.05236279026582455,0.5577986092344689,-0.11927921864139535,0.03176,-0.04276,0.0391,-19.38,-18.9,-23.4
44.9797,67882.3854,-0.08636660979390813,0.5429847271296563,-0.12120456492109,0.0171,-0.02871,0.01466,-19.14,-18.48,-23.28
44.999,67882.4054,-0.12257496597922361,0.5273211703314337,-0.11553607875981342,-0.01405,-0.03787,-0.04398,-18.96,-18.48,-23.4
45.0269,67882.4254,-0.1556401001298031,0.5185431827445388,-0.10582633639773142,-0.03238,0.00061,-0.03482,-18.84,-18.84,-23.16
45.0348,67882.4474,-0.1815182924634173,0.5129506881467747,-0.09075655749265898,-0.00916,0.011,0.01772,-18.9,-18.96,-22.8
45.0776,67882.4674,-0.1952781246744422,0.5077740780981007,-0.06556530318675335,0.01649,-0.00794,0.03971,-19.2,-18.78,-22.8
45.0793,67882.4874,-0.16648817867581095,0.5153326174483857,-0.024859241891421746,0.03971,-0.03482,0.0226,-19.38,-18.6,-22.68
45.0969,67882.5074,-0.11059782243540381,0.5197354812072418,0.034643413031529846,0.01649,-0.03543,-0.01283,-19.68,-18.66,-22.86
45.1155,67882.5274,-0.03187907718213433,0.5202891390342501,0.10992485644924344,-0.0336,0.00733,-0.01222,-19.98,-18.78,-23.16
45.1363,67882.5473,0.0501326121936465,0.5102460164390679,0.19120703465788047,-0.04337,-0.01161,0.01222,-20.04,-18.84,-22.86
45.1576,67882.5674,0.11202791542416521,0.4849561311311007,0.26327793098802665,0.02138,-0.00855,0.01161,-20.52,-18.9,-22.86
45.1776,67882.5874,0.1357293642820258,0.45173487941699475,0.30892195323828453,0.07941,-0.03238,-0.03726,-20.58,-18.48,-22.8
45.1957,67882.6074,0.11349172375076695,0.42654161423940734,0.3142885472596202,0.04643,-0.06781,-0.06903,-20.04,-18.6,-22.26
45.2236,67882.6274,0.05746767711304278,0.41726779769156325,0.27426383254971576,0.0171,-0.01222,-0.08491,-20.28,-18.78,-22.5
45.2375,67882.6474,-0.04181782241623761,0.4328359533192895,0.19470144003885537,-0.00122,0.07147,-0.12034,-19.86,-19.26,-22.26
45.2581,67882.6674,-0.14410008429503066,0.4601745850650801,0.09202227843060484,0.01588,0.11851,-0.14111,-19.98,-19.26,-22.56
45.2775,67882.6874,-0.2447385466351968,0.4902137677008121,-0.011968493054242302,0.0617,0.07636,-0.12278,-20.34,-19.32,-23.04
45.2973,67882.7082,-0.32180413831236737,0.5155765750922869,-0.09618209716382609,0.07636,0.00367,-0.04398,-19.8,-19.62,-23.22
45.3222,67882.7284,-0.3567292080422198,0.5306839490429882,-0.14582166400560403,0.06903,-0.01344,0.03054,-20.1,-19.56,-23.34
45.3384,67882.7484,-0.3381413982411938,0.5431480930508661,-0.15636012346790373,0.04337,0.02566,0.0336,-20.04,-19.68,-22.92
45.3597,67882.7694,-0.2765053201549487,0.5464797477753619,-0.13268791787182366,0.00916,0.03787,0.01283,-19.92,-19.92,-22.44
45.3791,67882.7894,-0.19417150297227714,0.5429934126203609,-0.08719113673991075,0.02321,0.0391,0.02321,-20.22,-20.16,-22.02
45.4006,67882.8094,-0.11701978237970444,0.5341759678940742,-0.03490089153993026,0.04337,-0.00061,0.06597,-19.92,-20.34,-22.08
45.427,67882.8294,-0.062459884274472105,0.5228123307981243,0.010154725849220725,0.06475,-0.04154,0.08369,-19.92,-20.28,-22.5
45.4439,67882.8504,-0.026492176544544895,0.5234886279194481,0.03689356653415743,0.05559,-0.00672,0.03787,-20.04,-20.16,-22.8
45.4647,67882.8704,-0.017281275501003807,0.5323837350921117,0.04017149074426207,0.03176,0.05376,-0.00183,-19.98,-19.92,-22.8
45.4812,67882.8904,-0.03510779612224648,0.5483259421586268,0.020240879764296338,-0.02199,0.02932,-0.01344,-19.86,-19.8,-22.8
45.5013,67882.9104,-0.07459925904980694,0.5656888824622708,-0.01762546751320926,-0.03971,0.02016,0.00977,-19.68,-19.68,-22.38
45.5294,67882.9304,-0.12479684977826626,0.579122708412414,-0.06448446156432297,0.00244,0.00367,-0.01527,-19.14,-19.68,-22.26
45.538,67882.9504,-0.1765774437707031,0.5883135951176498,-0.10931869736165112,0.02688,0.01038,-0.03054,-19.02,-19.56,-22.2
45.5583,67882.9704,-0.21360706892322348,0.5928603551628203,-0.1403787654293165,0.00061,-0.00855,-0.01344,-19.26,-19.56,-22.02
45.5781,67882.9904,-0.23057190238974767,0.595144004235208,-0.1482734553049898,-0.011,0.03726,0.02627,-19.02,-19.86,-22.32
45.6068,67883.0104,-0.22695975269544094,0.5954313772713082,-0.12847136355221522,-0.02077,0.01405,0.03971,-19.32,-20.34,-22.56
45.6202,67883.0304,-0.2006919217926825,0.5797659497901062,-0.08218522921925953,-0.04398,0.00672,0.04337,-19.08,-20.52,-22.68
45.6475,67883.0504,-0.1674600990436001,0.5578262683925248,-0.018928428663262054,-0.05803,-0.0281,0.03176,-19.02,-20.64,-23.16
45.6712,67883.0704,-0.13052623415729322,0.5235305294014416,0.04874661974411332,-0.02382,-0.00916,0.03787,-19.32,-20.7,-23.22
45.6823,67883.0904,-0.09338521616179847,0.48623069463470964,0.10653302717964941,0.00122,0.00428,0.06109,-19.5,-20.22,-23.4
45.7019,67883.1104,-0.06933752857950454,0.46113112453142185,0.1426576915868747,-0.01772,0.01772,0.05437,-19.62,-20.04,-23.4
45.723,67883.1314,-0.056806375340040766,0.45474446018321496,0.151483206910628,-0.04581,0.02627,0.01222,-19.44,-19.86,-23.16
45.7424,67883.1514,-0.05637867874745431,0.4644145273719989,0.13414770218982675,-0.04581,0.03299,-0.00489,-19.2,-19.74,-22.98
45.7611,67883.1714,-0.06537815608322742,0.4844137654144557,0.09753091236808586,-0.011,-0.00244,0.00611,-19.08,-19.8,-22.92
45.7836,67883.1912,-0.0777220947332405,0.5081469373576194,0.05208466778366194,0.04093,-0.03176,0.02871,-19.2,-19.74,-22.8
45.8043,67883.2114,-0.08400721260158746,0.5350508185095302,0.008778878313151495,0.06353,0.02627,0.04154,-19.14,-19.5,-22.92
45.8309,67883.2314,-0.0810483030033918,0.5626649077818068,-0.023341705608325825,0.00672,0.03421,0.01833,-18.84,-19.38,-23.16
45.8439,67883.2514,-0.07162141963335494,0.5829700081945929,-0.039130361124424695,-0.05803,0.00367,-0.01588,-18.66,-19.26,-22.86
45.8642,67883.2724,-0.06154585159192381,0.5937414362597876,-0.03900553352181646,-0.07086,-0.01649,-0.01772,-18.6,-19.26,-23.1
45.8828,67883.2924,-0.057421510704833395,0.5858594784129323,-0.027615991452169197,-0.04704,-0.02321,0.00183,-18.72,-19.8,-22.86
45.9012,67883.3124,-0.06267506925751333,0.5636579237095982,-0.01281461989013799,-0.00244,0.00794,0.00305,-18.72,-19.5,-22.5
45.9199,67883.3324,-0.0786603456507191,0.5369654510441336,-0.001975950622300715,0.01894,0.0171,-0.02566,-18.6,-19.62,-22.62
45.9404,67883.3524,-0.10294655484868177,0.5165810257436928,0.001019524025441143,0.00305,-0.02627,-0.02138,-18.42,-19.68,-22.44
45.9595,67883.3724,-0.12859001989254312,0.5090593702084164,-0.002900277020623676,-0.01527,-0.0391,-0.01649,-18.42,-19.38,-22.26
45.9904,67883.3934,-0.14226536784004057,0.5178992245182882,-0.008820958407429913,-0.04704,-0.00305,-0.03971,-18.84,-19.62,-22.8
46.0018,67883.4134,-0.1531664813884096,0.5228639720128953,-0.009188131203611505,-0.05681,0.05009,-0.0507,-19.02,-19.38,-22.74
46.0219,67883.4334,-0.1505999464958188,0.5297312739867321,0.0015270392686907996,-0.01894,0.00855,-0.01161,-19.32,-19.38,-23.04
46.0441,67883.4534,-0.13977217473283757,0.5352637465746033,0.025373096080318902,0.00855,-0.04765,0.03115,-19.32,-19.26,-23.58
46.0644,67883.4744,-0.11761644781496812,0.5440115910546354,0.05844408688269098,-0.00611,-0.07391,0.03238,-19.56,-19.26,-23.46
46.0844,67883.4944,-0.08652134815087607,0.5592399539962468,0.09117190370233708,-0.05131,-0.04154,-0.00977,-19.56,-19.14,-23.7
46.1039,67883.5144,-0.05801982197100549,0.5799181614409527,0.1109390813556086,-0.07208,0.0507,-0.0281,-19.08,-19.14,-23.52
46.1234,67883.5344,-0.04848880216359248,0.6055381048876167,0.10596461657717526,-0.03482,0.04093,-0.01894,-19.2,-19.62,-23.4
46.1621,67883.5544,-0.06629163168103303,0.6391536611496165,0.06919623829444,0.0391,-0.02871,-0.01283,-18.72,-19.62,-22.86
46.1652,67883.5744,-0.10415660705250732,0.6885507063342922,0.001066756392335222,0.01527,-0.08125,-0.02749,-18.54,-19.74,-22.44
46.1837,67883.5944,-0.14637814726506096,0.7502754580178328,-0.08813365787949934,-0.07025,-0.03726,-0.05803,-18.6,-19.74,-22.86
46.2037,67883.6154,-0.18013240618776807,0.8095424672596003,-0.1789458388166647,-0.0672,0.03115,-0.09102,-18.3,-19.26,-22.86
46.2247,67883.6354,-0.20395353582535403,0.8451951373154168,-0.24680585808023459,-0.01344,0.08796,-0.10018,-18.18,-19.44,-22.74
46.2446,67883.6554,-0.22067830333394903,0.841227735678008,-0.2692940461813915,-0.0171,-0.03176,-0.07269,-18.42,-19.26,-22.92
46.2643,67883.6754,-0.22557661412678567,0.7932969840532138,-0.23371349340030534,-0.09529,-0.17593,-0.02199,-18.3,-19.2,-22.62
46.2863,67883.6954,-0.2143876226971031,0.7087172770275147,-0.14235725230651042,-0.09041,-0.14416,-0.04337,-18.0,-19.68,-22.92
46.3127,67883.7164,-0.18994251558973646,0.6039117695161237,-0.013303833528754083,-0.16249,0.09346,-0.06842,-18.18,-19.2,-23.28
46.3298,67883.7364,-0.17096971667750582,0.4747903987814073,0.12482035992299245,-0.19059,0.00367,-0.03238,-18.12,-19.5,-23.46
46.3493,67883.7564,-0.16508674636385673,0.36256604352201705,0.23716600616327987,-0.10934,-0.11301,-0.02505,-18.3,-19.62,-23.46
46.3646,67883.7764,-0.17199131766411666,0.285559744791953,0.2966609815452692,-0.05131,-0.12462,-0.03665,-19.14,-19.32,-23.64
46.3852,67883.7964,-0.18265383064720864,0.26916694735338265,0.2909871833731863,-0.09529,-0.00122,-0.0617,-19.44,-19.98,-24.0
46.4086,67883.8164,-0.18961050229287363,0.3097370375124803,0.22747241428664644,-0.06109,-0.03971,-0.0617,-19.44,-19.68,-23.7
46.4309,67883.8384,-0.19173186932034078,0.38911101798175696,0.12995207351449878,0.00061,-0.03665,-0.02321,-19.2,-19.86,-23.76
46.4467,67883.8584,-0.1869210302199827,0.4845326717364003,0.030316470685196606,0.02505,-0.09163,0.01405,-18.9,-19.92,-23.28
46.4674,67883.8784,-0.1778566807294176,0.5714424227823762,-0.0427978257142172,0.00611,-0.00794,0.00977,-18.84,-19.32,-22.92
46.488,67883.8984,-0.16815127604629512,0.6312060127038712,-0.07356540599312922,-0.05253,-0.011,0.00733,-19.14,-19.2,-23.04
46.51,67883.9194,-0.16476070451610528,0.656028728638093,-0.06329388793104229,-0.06475,-0.04215,-0.00733,-19.02,-19.08,-22.92
46.5317,67883.9404,-0.1696908312434352,0.6520299943419735,-0.028113383222489574,-0.05131,-0.0898,-0.03299,-19.08,-18.66,-23.16
46.5506,67883.9604,-0.17887207057785987,0.637423885619604,0.008643694919717504,-0.0562,-0.00183,-0.04032,-19.02,-18.84,-23.4
46.5751,67883.9804,-0.17903830074023472,0.6392399072894395,0.026276294509537834,-0.07636,0.07514,-0.0507,-18.96,-19.08,-23.34
46.6018,67884.0014,-0.164106250618837,0.66490411409357,0.015739496554141752,-0.08858,0.0452,-0.05986,-18.96,-18.78,-23.46
46.6122,67884.0214,-0.1437868156859818,0.7031664210740008,-0.0179769988767422,-0.04643,-0.01038,-0.06292,-18.72,-19.56,-23.46
46.6409,67884.0414,-0.10010020433406866,0.7519678061113456,-0.06017778678397434,0.0281,-0.00489,-0.03421,-18.3,-19.44,-23.64
46.6598,67884.0614,-0.04332451128368102,0.7962708166649356,-0.09316980405743713,0.00061,-0.02932,-0.00061,-17.88,-19.68,-23.7
46.6731,67884.0814,0.02039470710246698,0.8217701650033028,-0.10431513783835733,-0.04398,-0.08247,-0.00183,-17.88,-19.8,-23.82
46.6943,67884.1014,0.0762927896156553,0.8246390247020544,-0.0912514966006217,-0.10079,-0.01955,-0.05253,-17.82,-19.26,-23.4
46.7111,67884.1214,0.1062816580918944,0.7920242585475967,-0.0594295294250351,-0.10629,-0.02627,-0.07025,-18.3,-19.92,-23.28
46.7311,67884.1414,0.10158111221015065,0.7354278722963048,-0.02069846807342124,-0.11301,-0.03176,-0.08552,-18.24,-20.22,-23.34
46.753,67884.1614,0.061300591896438335,0.6665519886246177,0.014189642307757211,-0.09957,-0.0733,-0.09835,-18.6,-19.86,-23.52
46.7708,67884.1814,-0.006862915018802947,0.6008000391535759,0.03940560298793372,-0.05742,-0.05437,-0.12278,-18.6,-19.86,-23.58
46.7917,67884.2014,-0.0817809257882605,0.5590300525319385,0.05528106030673996,-0.09102,-0.05192,-0.135,-18.6,-19.2,-23.28
46.8149,67884.2214,-0.1521792338073234,0.5459001795619617,0.06738112933320117,-0.13683,0.02077,-0.11668,-18.78,-18.78,-23.4
46.8304,67884.2414,-0.225835998651697,0.542463933928854,0.08194175911599899,-0.14294,-0.02138,-0.13317,-19.02,-18.96,-22.68
46.8496,67884.2613,-0.2907775851178819,0.5493798692227454,0.10050906007871419,-0.06842,-0.07636,-0.14294,-19.5,-18.78,-22.86
46.869,67884.2813,-0.3489836637752545,0.5544954738645116,0.12012813689557156,-0.05681,-0.11484,-0.12828,-19.44,-18.78,-23.1
46.8885,67884.3014,-0.39725246297497546,0.5547547416591397,0.1341414167484274,-0.0733,-0.0562,-0.1124,-19.56,-18.48,-22.8
46.9081,67884.3213,-0.4349348672573772,0.5492259057988407,0.13577394706702428,-0.05315,0.01588,-0.09957,-19.5,-18.6,-23.04
46.9289,67884.3413,-0.46372845708997534,0.5366745527608556,0.12158787040165286,-0.0672,0.03665,-0.11118,-19.08,-18.9,-22.86
46.9527,67884.3614,-0.4831291378685564,0.5162446213417595,0.09340384447721561,-0.09835,-0.05376,-0.10934,-19.08,-19.26,-22.92
46.9737,67884.3814,-0.4869952999970719,0.4878230545185089,0.05817119600651921,-0.04765,-0.10629,-0.0562,-18.78,-19.8,-23.4
46.9936,67884.4014,-0.45854046565233597,0.4653578475684974,0.025670600317834413,0.02443,-0.07941,-0.03482,-18.54,-19.8,-23.4
47.0121,67884.4214,-0.3906573406094619,0.46390885878724086,0.005103609548216426,-0.00367,-0.00672,-0.01588,-18.6,-19.62,-23.46
47.0309,67884.4424,-0.2937148960603048,0.4902367022703776,0.0014998452630194947,-0.05376,-0.00977,0.03543,-17.94,-19.02,-23.04
47.0517,67884.4623,-0.19284132284468014,0.5383263003670136,0.013448734442995658,-0.02932,-0.07575,0.09346,-18.0,-18.78,-22.56
47.0716,67884.4824,-0.10917590206261327,0.5944329458874322,0.03320450448455148,0.03482,-0.12706,0.09529,-17.64,-18.6,-22.98
47.101,67884.5024,-0.07041437165910329,0.6468407974084214,0.048930405681547384,0.0617,-0.13867,0.04948,-17.4,-18.66,-22.74
47.1177,67884.5224,-0.06418225645307994,0.6970195032777446,0.04985094920667699,0.00428,-0.04337,-0.00367,-17.64,-18.84,-22.92
47.1375,67884.5424,-0.10917434855576413,0.7349460273033808,0.03270847464774107,-0.06597,0.06475,-0.05498,-17.82,-18.84,-22.86
47.1523,67884.5634,-0.209360450498081,0.7442856402683454,0.0035773893353532316,-0.10324,0.0617,-0.09041,-18.06,-18.96,-22.5
47.1719,67884.5834,-0.3374840733177576,0.7233944403505248,-0.026354637112453005,-0.06414,-0.0281,-0.09102,-18.42,-18.78,-22.68
47.1927,67884.6034,-0.463051420518057,0.6749750384604484,-0.044902283722633385,0.02566,-0.09468,-0.06536,-18.6,-19.02,-23.04
47.2116,67884.6234,-0.5455077295310687,0.6186385185909994,-0.04322843962727063,0.03726,-0.05681,-0.03665,-18.6,-18.96,-23.22
47.2421,67884.6434,-0.5563620089322692,0.5759767976107475,-0.017708455721805905,-0.03299,0.03421,-0.0055,-18.48,-19.08,-23.22
47.2568,67884.6644,-0.49844871834197324,0.5436318409030818,0.02925782857282755,-0.09529,0.05559,0.03115,-18.24,-19.38,-23.58
47.2793,67884.6844,-0.3920738212597223,0.5257768399192694,0.08886416563791677,-0.04093,0.00489,0.05131,-18.06,-18.84,-23.46
47.298,67884.7044,-0.2622314137874982,0.5141245626981124,0.15005509646158366,0.06475,-0.06964,0.07697,-18.24,-18.66,-23.64
47.3145,67884.7244,-0.13243526481473722,0.5147741242356095,0.20044755448278373,0.07514,-0.07758,0.07269,-18.42,-18.48,-23.82
47.3328,67884.7444,-0.02641799055651889,0.5316361671876766,0.22915628485542605,0.00428,0.01466,0.06109,-18.42,-18.3,-23.46
47.3578,67884.7644,0.04040464588560696,0.5640198988723496,0.2289684029641066,-0.04704,0.03665,0.02443,-18.66,-18.66,-23.1
47.3735,67884.7844,0.05424990429435241,0.5983500215231569,0.19848775610534553,-0.00794,0.03482,-0.01955,-18.42,-18.78,-22.8
47.3937,67884.8044,0.017278620017758234,0.6272703365742693,0.14189228349143868,0.05437,-0.00916,-0.02443,-18.36,-19.26,-22.74
47.4125,67884.8244,-0.0548859099849045,0.6517869433445936,0.06821429859146377,0.09285,-0.05192,-0.00611,-18.3,-19.5,-22.8
47.4354,67884.8444,-0.13561537492071365,0.6723043127789988,-0.00959447762629928,0.07941,-0.00794,-0.01038,-17.82,-19.38,-23.16
47.4585,67884.8654,-0.19902870762861924,0.6936687670369809,-0.07756237976499314,0.02993,-0.01038,-0.03665,-17.88,-19.5,-23.16
47.4789,67884.8854,-0.23534084611603012,0.7105613811475583,-0.12346934784350161,0.01405,0.0,-0.0452,-18.3,-19.38,-23.04
47.4932,67884.9054,-0.24835937150723167,0.7145833812553232,-0.14070782413444682,0.01222,-0.00367,-0.02871,-18.72,-19.14,-22.86
47.5134,67884.9254,-0.24703146740285434,0.7014779158084568,-0.13049820593526817,0.02443,-0.02749,0.01527,-19.08,-19.2,-22.44
47.5334,67884.9454,-0.24138225455594609,0.675262601814332,-0.10163036974582518,0.01344,-0.10324,0.02443,-19.32,-19.38,-22.44
47.5546,67884.9654,-0.23707130286795053,0.6440534557260396,-0.0668318714158147,0.01894,-0.09835,0.00305,-18.78,-19.26,-22.14
47.5778,67884.9864,-0.23615876123001922,0.6172051737643194,-0.03762529918998858,-0.00122,-0.0733,-0.04032,-18.48,-19.32,-22.44
47.5983,67885.0064,-0.24396760567547987,0.599707504401808,-0.019838209139992458,-0.02199,0.03604,-0.04765,-18.54,-19.32,-22.98
47.6308,67885.0264,-0.2606359784058776,0.5939945976037004,-0.012348413841523964,-0.03971,0.04032,-0.02016,-18.48,-19.38,-23.28
47.6365,67885.0464,-0.28844689131802537,0.5914161362426819,-0.009114754720254581,0.00183,-0.03299,0.00672,-18.66,-18.9,-24.06
47.6585,67885.0664,-0.31581853256014014,0.5938106150827237,-0.0040026813719364895,0.01466,-0.08491,0.01894,-18.9,-19.08,-24.0
47.6745,67885.0864,-0.32407970161854743,0.6003626046178475,0.006817313805461467,0.01344,-0.04948,0.02749,-18.9,-19.32,-23.64
47.6977,67885.1064,-0.31547004657596245,0.6105483761801054,0.0226762497213997,0.00305,0.00916,0.011,-18.9,-19.26,-23.28
47.718,67885.1264,-0.2947295192791346,0.6227444458585888,0.03989892804676387,-0.02505,0.03115,0.02688,-18.78,-19.62,-22.86
47.7347,67885.1464,-0.27320556182330696,0.634786012938655,0.053594685822940136,-0.0171,-0.00428,0.03054,-19.02,-19.2,-22.98
47.7595,67885.1664,-0.25820891184912254,0.6478481347856113,0.05972887175843944,0.02199,-0.03238,0.00977,-19.08,-19.02,-22.98
47.7786,67885.1874,-0.2457492806288251,0.6630061736566659,0.05677539806366383,0.00061,-0.02932,-0.00305,-18.84,-18.96,-23.46
47.7964,67885.2074,-0.2346770323965544,0.6808131409232278,0.04555542637172749,-0.01833,-0.00428,0.0055,-19.02,-18.78,-23.64
47.815,67885.2274,-0.22615818355016756,0.6982432571011297,0.028672545269472494,0.01344,0.04704,0.02505,-18.9,-19.14,-23.4
47.8373,67885.2474,-0.22448371991460148,0.7101424730649389,0.009162434544737863,0.03665,0.02443,0.05681,-18.72,-19.38,-23.4
47.8563,67885.2674,-0.22856635985472176,0.7165241271834268,-0.01078755353775307,0.04581,-0.02016,0.05437,-19.02,-19.38,-23.16
47.8759,67885.2873,-0.23814295449332074,0.7169323736871497,-0.029708256665550437,0.01283,-0.011,0.03054,-19.32,-19.86,-23.16
47.8962,67885.3073,-0.25069736776566365,0.7124485088835499,-0.04624763935750309,-0.04032,-0.00122,-0.01649,-19.2,-19.62,-23.16
47.9156,67885.3274,-0.2654249484803331,0.702458241792913,-0.05820321371714421,-0.04032,0.03787,-0.02566,-19.08,-19.38,-23.34
47.9348,67885.3473,-0.2806388068991649,0.6875842746022971,-0.06244211442867886,-0.00672,0.04643,0.01161,-18.9,-19.5,-23.16
47.9565,67885.3674,-0.29148377852218726,0.6706664912556346,-0.0555805684242241,0.00244,0.03482,0.0281,-18.6,-19.2,-22.86
47.98,67885.3874,-0.29154289784955184,0.6563029233270217,-0.035389682266854905,0.00672,0.01283,0.03299,-18.6,-19.56,-22.98
48.0028,67885.4084,-0.2730051530572872,0.6490892415209638,-0.002285837641172961,0.011,-0.00733,0.03176,-18.72,-19.8,-22.8
48.0195,67885.4283,-0.23372193352272133,0.6468567015267737,0.03986263521825428,-0.02566,0.00122,0.04398,-18.78,-19.68,-23.16
48.0399,67885.4493,-0.1829790297509431,0.6478125138787619,0.0835056720158125,-0.04765,0.04337,0.02688,-18.9,-19.68,-23.04
48.0591,67885.4694,-0.13325599744421565,0.6473334047041989,0.11979553345731375,-0.01344,0.04093,0.01588,-18.48,-19.32,-22.98
48.0808,67885.4892,-0.09635842919458701,0.6472660438025326,0.14055485368893095,0.03787,0.00367,0.03971,-18.48,-19.32,-23.34
48.1053,67885.5093,-0.07682627164857123,0.6530935596647388,0.14055569661656264,0.02688,-0.02627,0.04948,-18.54,-18.9,-22.98
48.1293,67885.5294,-0.07122091047997474,0.6688620246763723,0.11896359726136474,-0.01894,-0.02138,0.0171,-18.54,-19.08,-23.46
48.1399,67885.5494,-0.0792037445925836,0.6888830615414465,0.0801666236752876,-0.03176,0.01894,-0.00733,-18.9,-19.08,-23.52
48.1585,67885.5694,-0.10147227723796827,0.7100273329062182,0.03242857175008318,0.00244,0.0452,0.00122,-19.02,-19.14,-23.28
48.1778,67885.5894,-0.13564870542750848,0.7273173889665354,-0.013489008215625375,0.02688,-0.02871,0.01161,-18.9,-19.74,-23.58
48.2015,67885.6094,-0.1744228719883644,0.7398837794224358,-0.04725719597912281,0.0171,-0.06597,0.00977,-19.08,-19.5,-23.46
48.2206,67885.6294,-0.20568954288114308,0.747664885995855,-0.06127063345427608,-0.02688,-0.02627,0.0,-19.08,-19.62,-23.1
48.2416,67885.6494,-0.2259063815071009,0.7475887828700309,-0.05240547088555658,-0.01466,0.00733,-0.00489,-19.08,-19.56,-23.1
48.2611,67885.6694,-0.23604191244465636,0.7358546803893187,-0.022788847871479945,0.00061,0.00977,0.01649,-19.44,-19.38,-23.1
48.2813,67885.6894,-0.23942514024015685,0.7125582373201921,0.020567572022565983,0.01649,-0.03604,0.04215,-19.32,-19.56,-23.28
48.2977,67885.7093,-0.23531795963025653,0.682864362877318,0.06764528644211154,0.02749,-0.05131,0.02443,-19.26,-19.86,-23.4
48.3177,67885.7294,-0.2269712220143641,0.6523122119976894,0.10803268299713054,0.01283,-0.0226,-0.00122,-18.96,-19.68,-23.34
48.341,67885.7494,-0.2144464461458808,0.6283479135450087,0.1334058806503382,0.00672,-0.0171,-0.011,-18.54,-19.8,-23.28
48.3598,67885.7693,-0.20121348789607654,0.6150335156402916,0.1394267551410735,-0.01344,-0.00061,-0.01038,-18.18,-19.98,-23.16
48.3821,67885.7894,-0.19049478058729946,0.6135082010516739,0.12641163528762078,-0.011,0.01344,-0.01588,-18.36,-19.68,-23.4
48.4014,67885.8094,-0.1872814896907706,0.6223772436492905,0.09874733811882308,0.01222,0.03482,-0.02627,-18.66,-19.56,-23.28
48.4242,67885.8293,-0.19060092825422276,0.6392521827194666,0.06338203470014747,0.04093,-0.00672,-0.01955,-18.84,-19.44,-23.28
48.4414,67885.8494,-0.19687636201239805,0.6669954511412276,0.02720881849372425,0.03238,-0.06414,-0.02382,-19.14,-19.26,-23.28
48.468,67885.8694,-0.2012279696564168,0.6989051766812762,-0.0038664555887084617,0.04398,-0.01527,-0.00794,-18.84,-19.5,-22.98
48.4796,67885.8904,-0.2017434857795159,0.7402289495419656,-0.027388370605335055,0.03299,0.04643,0.00183,-18.96,-19.92,-23.28
48.5028,67885.9114,-0.19940598344810143,0.7780363877399428,-0.04204268092412278,-0.0055,0.05437,0.01527,-19.14,-19.62,-23.16
48.5284,67885.9313,-0.20220109640029266,0.8032853728006313,-0.04837916764400596,-0.00855,-0.03176,-0.01588,-19.02,-19.62,-22.92
48.5422,67885.9513,-0.21230174728647058,0.811145521163198,-0.047733614159435334,0.02932,-0.04581,-0.01588,-18.78,-19.62,-23.16
48.5653,67885.9714,-0.2321314631941544,0.7974825183684922,-0.04158447428339329,0.05559,-0.03299,0.01588,-18.36,-19.5,-22.68
48.5822,67885.9914,-0.25398173380780165,0.7758291085382261,-0.0327329378558705,0.0391,-0.011,0.00977,-18.36,-19.98,-22.44
48.6007,67886.0124,-0.27636759815955914,0.7519175043335032,-0.023826788695190615,-0.01588,-0.00794,-0.00977,-18.48,-19.86,-22.5
48.6208,67886.0323,-0.2976130360593522,0.7303334417336163,-0.017806616364200778,-0.03543,-0.01344,-0.0171,-18.96,-19.38,-22.74
48.6422,67886.0524,-0.31666180270354,0.7107914460613879,-0.01687803505927654,-0.00183,-0.01466,0.0055,-19.38,-19.44,-23.16
48.675,67886.0724,-0.3335791572048541,0.6902795671912545,-0.02144889805597394,0.05559,-0.0226,0.02932,-19.08,-19.32,-23.16
48.6805,67886.0923,-0.3282132739616566,0.6921055857130686,-0.030762120910370783,0.0617,-0.02382,0.04032,-18.9,-19.5,-23.1
48.7013,67886.1124,-0.31569142768401826,0.7023820759823711,-0.04113451680574265,0.02627,-0.02627,0.01222,-18.36,-19.56,-22.44
48.725,67886.1324,-0.2952816271643236,0.7282716488142452,-0.05025282027678557,-0.02505,0.00611,0.01955,-18.06,-19.5,-22.2
48.7412,67886.1523,-0.2712255446555531,0.758914363173896,-0.0564206683518762,-0.04337,-0.03543,0.03238,-18.06,-19.38,-22.26
48.7709,67886.1724,-0.2559154444313005,0.7895257300246653,-0.059993498736520934,0.00061,-0.02993,0.04704,-18.12,-19.5,-22.44
48.7857,67886.1924,-0.2396370377294626,0.8156851973072248,-0.0605444245600264,0.0452,-0.00367,0.02749,-18.36,-19.62,-22.74
48.8023,67886.2123,-0.22850729951705215,0.8370867705666338,-0.05692319427996928,0.0281,0.02566,0.0171,-18.54,-19.26,-22.74
48.8261,67886.2324,-0.22266714714675465,0.8533130270761019,-0.046745795930217326,-0.02871,0.00367,0.01649,-18.96,-19.74,-22.56
48.8412,67886.2524,-0.2198730399025117,0.8568027249670934,-0.027832033260063227,-0.04093,0.0,0.03238,-19.14,-19.62,-22.56
48.8632,67886.2723,-0.21994364603460417,0.8474352662837336,-0.001444861554134036,-0.03238,-0.0055,0.03543,-19.5,-19.5,-22.68
48.8808,67886.2923,-0.21436247179211368,0.8214107268702803,0.02868280460895356,-0.02382,-0.03054,0.04215,-19.68,-19.5,-22.56
48.9011,67886.3123,-0.20319367330119614,0.7889248912808843,0.056124934868480025,-0.00794,-0.03054,-0.00183,-19.56,-19.5,-22.26
48.9208,67886.3324,-0.19061964798573544,0.7599963412117386,0.07547269110481025,0.00367,0.02749,-0.011,-19.44,-19.68,-22.38
48.9412,67886.3523,-0.18591750562508605,0.7402845023978131,0.08404473505230037,-0.03787,0.02443,0.00855,-19.26,-20.28,-22.38
48.9618,67886.3723,-0.19491338238369982,0.7276766661657085,0.08229109690942948,-0.05253,0.00244,0.04154,-19.08,-20.76,-22.38
48.9873,67886.3924,-0.21549852241075815,0.718561113038039,0.07286036774533144,-0.00916,-0.02382,0.0226,-18.9,-20.46,-23.1
49.0016,67886.4123,-0.24006392342605157,0.7102811767458208,0.0600235101701454,0.02688,-0.01344,-0.02993,-19.2,-20.28,-23.28
49.0247,67886.4323,-0.2605608114788561,0.7063653581111836,0.04848053317084222,-0.02321,0.03482,-0.0452,-19.2,-19.92,-23.1
49.0429,67886.4524,-0.27799001931509004,0.7048992687603046,0.04224056518392416,-0.05192,0.04704,-0.00794,-19.38,-19.86,-23.58
49.0717,67886.4723,-0.28757011289132633,0.7044851853207399,0.04264518836954245,0.00428,0.00855,0.04398,-19.62,-19.56,-23.46
49.0805,67886.4923,-0.27799529762577524,0.7058603198541304,0.04769018706726236,0.03848,-0.02321,0.03604,-19.5,-19.56,-23.1
49.0995,67886.5124,-0.25332837244358886,0.7086485069807552,0.0528326687245837,0.03543,-0.01833,-0.00672,-19.62,-19.5,-23.16
49.1205,67886.5323,-0.21522271071912416,0.7169099048784875,0.05331328012741565,0.00977,0.03848,-0.00428,-19.44,-19.14,-22.86
49.1407,67886.5523,-0.17589035549605125,0.7281797884486793,0.046444689886975254,-0.02627,0.04398,0.00367,-19.32,-19.14,-22.68
49.162,67886.5724,-0.14756653971421843,0.7352410047094391,0.03248536953041814,0.00672,0.03543,0.01894,-19.68,-18.84,-22.5
49.1815,67886.5923,-0.13733526961647746,0.732987664794513,0.013771953244088309,0.03054,-0.00977,-0.00244,-19.62,-18.54,-22.5
49.2024,67886.6123,-0.1454626768538951,0.7213592821019783,-0.0065821216755797,0.01344,-0.00489,-0.03054,-19.68,-19.08,-22.62
49.2247,67886.6333,-0.16830662387810527,0.7046945647603408,-0.025836996964736514,-0.00855,0.01405,-0.02566,-20.22,-19.44,-22.8
49.243,67886.6534,-0.20034745944217394,0.6885912621516107,-0.04224652549747354,-0.00122,-0.00367,-0.01588,-20.04,-19.68,-23.22
49.261,67886.6733,-0.23228900264011007,0.6787012292423855,-0.05510601946896543,0.00794,-0.02505,-0.01894,-19.98,-19.74,-23.1
49.2809,67886.6933,-0.255850307079997,0.6808117395869878,-0.06438871956057746,0.02382,-0.00122,-0.01955,-20.22,-19.08,-22.8
49.3057,67886.7134,-0.2672150349944909,0.6987111037388871,-0.07017205427017004,0.011,0.00916,-0.00061,-19.32,-19.32,-22.8
49.3215,67886.7333,-0.2636342970912734,0.7347838568707236,-0.07250524930533864,0.01038,-0.01222,0.01955,-19.2,-18.84,-22.62
49.3448,67886.7533,-0.2503949477836407,0.7815433219403283,-0.0711709543286343,0.011,-0.05559,0.00794,-19.32,-19.44,-22.68
49.3625,67886.7733,-0.2315213713145112,0.828009460008362,-0.06584922583091313,-0.02077,-0.02749,-0.01222,-19.62,-19.5,-22.8
49.3845,67886.7943,-0.2179671523799232,0.8631196345400304,-0.05634340466495047,-0.02077,0.01466,-0.01955,-19.92,-19.2,-22.8
49.4084,67886.8144,-0.22062529729089328,0.8782340566259333,-0.04254828768546126,0.00428,0.00977,-0.0171,-19.86,-19.5,-22.68
49.4249,67886.8343,-0.24380848957640092,0.8707632525627451,-0.025031734373266445,0.00428,-0.02505,-0.00428,-19.68,-19.26,-23.04
49.4452,67886.8543,-0.2818612145281761,0.8451371281562932,-0.005454748218909344,-0.04154,-0.07697,-0.0171,-19.62,-19.56,-22.98
49.4627,67886.8744,-0.32487759180108605,0.8077427926673771,0.013845429194649483,-0.03299,-0.00977,-0.04459,-20.04,-19.92,-22.98
49.4861,67886.8943,-0.3619721322043447,0.7711730602437323,0.029882326344317534,-0.02505,0.01649,-0.03726,-20.28,-20.22,-23.58
49.5082,67886.9143,-0.38945749587651823,0.7442099113108752,0.04007960587942172,-0.01833,-0.00122,-0.01649,-20.88,-19.92,-23.22
49.5252,67886.9344,-0.40009835130850485,0.7357815685663027,0.04282263449514723,-0.00183,-0.04093,0.02382,-20.82,-19.62,-23.64
49.5469,67886.9543,-0.3899874614952968,0.749422644587047,0.038167702687504246,0.00855,-0.04215,0.01222,-20.16,-18.9,-23.58
49.5627,67886.9743,-0.35759305810213404,0.7806034956477598,0.02836771378885139,-0.00794,-0.01405,0.00244,-19.8,-18.54,-23.4
49.5832,67886.9944,-0.3143393583350451,0.8194271673084033,0.017080255177139847,0.00061,0.03176,-0.00489,-19.44,-18.78,-23.7
49.6034,67887.0143,-0.27505632722757034,0.8539914106449935,0.008597718900045237,-0.00489,0.02443,0.00977,-19.14,-18.78,-23.1
49.6253,67887.0343,-0.2506610512814192,0.87610245886452,0.006074365582279029,-0.00183,-0.02688,0.01588,-19.32,-19.14,-22.74
49.6471,67887.0544,-0.2422348044485508,0.8844571886387463,0.010106103399433408,-0.00794,-0.0391,0.00428,-19.02,-19.38,-22.74
49.6674,67887.0753,-0.246034746598734,0.8825375504836306,0.018693164953713648,-0.02321,0.03115,-0.01344,-18.84,-19.62,-22.8
49.6926,67887.0963,-0.2572421729201521,0.8767730857265168,0.028298843746528135,-0.05253,0.05376,-0.02932,-18.72,-20.1,-22.8
49.7049,67887.1164,-0.2827264568925596,0.8595263276716144,0.03622020353362032,-0.06353,0.02566,-0.02688,-18.54,-20.1,-23.28
49.7238,67887.1363,-0.31103115288561906,0.8394986263397444,0.039664972085233785,-0.01894,-0.01527,-0.00611,-18.84,-20.04,-23.04
49.745,67887.1563,-0.3375719671072849,0.8168877596964833,0.03806768331290655,0.04215,-0.01161,0.01405,-18.9,-19.8,-22.68
49.7791,67887.1764,-0.3550119387990326,0.7959789970542558,0.03242303306086747,0.0452,0.01894,0.00428,-19.02,-19.68,-22.92
49.7895,67887.1983,-0.3604339537036859,0.7866416498585205,0.02429626568877552,-0.01772,0.04032,-0.00244,-18.78,-19.92,-22.56
49.812,67887.2184,-0.35379093075648566,0.7842588664251208,0.016252768941463103,-0.04826,0.02627,-0.00122,-18.78,-19.92,-22.26
49.8324,67887.2383,-0.3423900642049301,0.7812519509854273,0.009836041687623975,-0.01038,0.01344,-0.00305,-18.78,-19.98,-22.38
49.8476,67887.2583,-0.32817274603966234,0.7773880590963209,0.005087249518663128,0.03665,0.0226,0.00244,-18.66,-19.86,-22.5
49.8653,67887.2784,-0.3100232921770014,0.7766734140651853,0.001043065033192292,0.02627,0.011,0.01466,-19.38,-19.8,-22.92
49.8852,67887.2982,-0.28617296043233054,0.7844647470112288,-0.0036539564292059623,-0.00855,0.02443,0.02321,-19.26,-19.56,-22.92
49.9052,67887.3183,-0.25587147887027883,0.8012847620630734,-0.009675592972751446,-0.0281,0.02993,0.01527,-18.96,-19.5,-23.4
49.932,67887.3383,-0.22065136136243843,0.8231043141908763,-0.016172550647072015,-0.0226,0.01833,-0.01833,-18.78,-19.56,-23.4
49.9512,67887.3584,-0.1904810066551621,0.8419004887338403,-0.02041453401786697,0.01894,0.03054,-0.02321,-18.3,-19.56,-23.46
49.9711,67887.3794,-0.1679161191856033,0.8555310837575809,-0.01907807716362342,0.02871,0.00061,0.00977,-18.42,-19.86,-23.16
49.9887,67887.3993,-0.15316001220955539,0.8635548755961179,-0.010137985064362809,0.00428,-0.01527,0.04704,-18.6,-19.74,-23.1
50.0096,67887.4193,-0.14670047885122747,0.8644113471892705,0.0055480057604562205,0.01283,-0.00122,0.02321,-18.9,-19.5,-23.22
50.0284,67887.4394,-0.14992042977445622,0.8567768365481826,0.02399516017785963,-0.01283,0.02321,-0.03971,-19.02,-19.08,-23.04
50.0477,67887.4593,-0.16648259913217223,0.839178280353704,0.03972344503027436,-0.06658,-0.02871,-0.06536,-18.9,-19.26,-23.16
50.0775,67887.4793,-0.19344628773406627,0.8138290753249967,0.04793011215765475,-0.04765,-0.06353,-0.04459,-18.9,-19.92,-22.68
50.0895,67887.4993,-0.23091840936295885,0.7857763287616101,0.04643396752396889,0.02321,-0.02199,-0.02993,-18.42,-19.98,-22.56
50.1122,67887.5193,-0.2629278971108696,0.7657774336814605,0.036708759321522066,0.0507,0.02993,-0.0226,-18.48,-20.4,-22.68
50.1301,67887.5393,-0.28821967981930713,0.762123333020075,0.022897896493683234,-0.04215,0.0,-0.04826,-18.78,-20.22,-23.22
50.1495,67887.5594,-0.30605181943176174,0.771220765318394,0.010364500579113312,-0.07575,-0.06231,-0.04887,-18.84,-19.8,-23.4
50.1749,67887.5804,-0.31997400259177555,0.7834821096783511,0.002966990566873662,-0.01772,-0.0617,-0.01894,-19.08,-19.86,-23.04
50.1928,67887.6014,-0.3311817761044464,0.7930295938808084,0.0018385858025862234,0.05803,-0.02566,0.00061,-19.32,-19.56,-22.32
50.2137,67887.6213,-0.34212883938110783,0.8025775745055046,0.00551574443585956,0.06109,0.01038,0.00244,-19.38,-19.68,-21.6
50.2397,67887.6424,-0.3538881522239349,0.8173153998955379,0.011512394470051035,-0.01588,-0.02016,-0.01955,-19.32,-19.92,-21.72
50.2508,67887.6623,-0.3672449953310994,0.8329974717204868,0.017998066822757508,-0.04276,-0.03543,-0.0171,-19.74,-20.22,-21.96
50.2711,67887.6823,-0.378469030647961,0.8440337840405425,0.02375059394351453,-0.00183,-0.02871,-0.01527,-19.08,-20.4,-22.5
50.2909,67887.7024,-0.3836656097561106,0.8426226548554999,0.028238714858002112,0.04093,-0.00122,-0.01405,-19.08,-20.4,-22.86
50.3139,67887.7223,-0.3795744477985721,0.8283946372431747,0.030390691395560054,0.04398,0.00183,0.00733,-19.02,-19.92,-22.68
50.3341,67887.7423,-0.36409866410640396,0.8100004510903417,0.027626948751088065,0.0391,0.00672,0.03543,-18.3,-19.8,-22.5
50.3523,67887.7624,-0.3386530775087802,0.7924243803829265,0.016299940275112945,0.01833,-0.01038,0.01955,-18.78,-19.8,-22.62
50.3722,67887.7823,-0.3083674572348318,0.7801324424593657,-0.007877302022279764,-0.00183,-0.03299,0.00367,-18.3,-20.04,-23.1
50.3936,67887.8023,-0.27922984998302636,0.779086904905485,-0.04745726677777995,-0.00672,-0.011,-0.02382,-18.6,-20.28,-22.86
50.4121,67887.8224,-0.2580098079400711,0.7971389251880753,-0.10001567534821554,0.01588,0.04032,-0.00489,-18.84,-20.04,-23.4
50.4323,67887.8423,-0.24560822820306094,0.8401942576904485,-0.1556658650195608,0.0507,0.06536,0.00916,-18.66,-20.04,-23.28
50.4542,67887.8633,-0.23553352826748042,0.908746285351781,-0.1980671062948307,0.0281,0.03848,-0.01161,-18.84,-19.86,-22.86
50.4771,67887.8833,-0.21673246281347824,0.9939452014377378,-0.20908777541519363,-0.011,0.04948,-0.03482,-18.48,-19.74,-23.22
50.5046,67887.9034,-0.17906668183508087,1.0777233538519966,-0.17559778279096427,-0.03421,0.08308,-0.04704,-18.42,-19.74,-23.16
50.5169,67887.9233,-0.14104586413907727,1.134110422219842,-0.09548749471796825,-0.01588,0.10629,-0.05376,-18.18,-19.98,-23.22
50.532,67887.9433,-0.09733924096873718,1.1506855929247233,0.01880518326678704,-0.00122,-0.0336,-0.01772,-17.88,-19.98,-23.4
50.5515,67887.9634,-0.06512152441654846,1.1201551431845431,0.14259774038717232,0.03482,-0.05437,0.02505,-18.36,-19.86,-23.4
50.5745,67887.9843,-0.05837122333131272,1.048289556035568,0.2452252305466054,0.04948,-0.03665,-0.00733,-18.6,-20.1,-23.28
50.5945,67888.0044,-0.08496600068822378,0.9537483976139868,0.29949294808372784,0.01955,-0.02016,-0.05681,-18.9,-19.86,-23.52
50.6142,67888.0243,-0.15253891777601822,0.8552382840504411,0.2916505973426826,-0.0171,0.00611,-0.11362,-19.26,-20.1,-23.7
50.6344,67888.0443,-0.25906535124570895,0.7715998307536189,0.2253647664183802,-0.01588,0.04337,-0.13989,-19.26,-20.76,-23.88
50.6566,67888.0644,-0.3890675491797515,0.717515816238872,0.12012174654523378,0.00305,0.04276,-0.13073,-18.66,-20.76,-24.18
50.6866,67888.0843,-0.5143786664295215,0.698878484113631,0.005000398002900752,0.01894,0.01772,-0.08247,-18.12,-20.82,-24.3
50.6957,67888.1043,-0.6172656993999109,0.7250606564294134,-0.09184918421348875,0.03787,-0.00061,-0.0171,-17.88,-20.52,-23.94
50.7125,67888.1244,-0.6634973321654332,0.774672161337134,-0.14710855543910384,0.03971,0.00733,0.02138,-17.4,-20.1,-23.82
50.739,67888.1443,-0.6530213123123998,0.8314920550117192,-0.15295607704869063,0.02749,0.02443,0.04154,-17.7,-19.92,-23.28
50.7695,67888.1643,-0.6002362479443686,0.8811261706451474,-0.11702504383059598,-0.02443,-0.00794,0.01283,-18.18,-20.28,-22.86
50.7886,67888.1842,-0.5190974180838184,0.9133516733780496,-0.05801624041070497,0.0226,-0.011,0.05864,-18.3,-20.1,-22.74
50.7934,67888.2042,-0.4266832835296721,0.9258535458358367,0.0004818089858638075,0.02749,-0.04337,0.06842,-18.78,-20.7,-22.26
50.8162,67888.2243,-0.3500099147080747,0.9255008778329744,0.03766631783789265,-0.01588,0.00061,0.01466,-18.9,-20.64,-22.02
50.8324,67888.2443,-0.2930406079309081,0.9187349070118713,0.043977716060778604,-0.01161,0.08552,-0.00183,-18.72,-20.46,-22.02
50.851,67888.2642,-0.26149608504742133,0.9113064755054949,0.021764430333638174,0.05864,0.09346,0.02016,-18.84,-20.46,-22.44
50.871,67888.2843,-0.2523979875541962,0.9094445850330929,-0.0173394629711634,0.07208,0.00489,0.04643,-18.42,-20.1,-22.26
50.8983,67888.3043,-0.2540416880495528,0.9161860347083517,-0.05801309737828575,0.0055,-0.02382,0.02016,-18.42,-20.22,-22.62
50.9149,67888.3243,-0.24633257912503964,0.9314548333561757,-0.08693185912265378,-0.02627,-0.03115,-0.00367,-18.72,-20.46,-22.5
50.9335,67888.3443,-0.22582591882177191,0.9468694400307874,-0.09610310270915434,0.00122,0.01527,0.01649,-18.78,-20.88,-22.32
50.954,67888.3643,-0.19740255347750985,0.9543229383467272,-0.0838320038887197,0.01588,0.0617,0.05437,-19.08,-21.06,-23.16
50.9732,67888.3843,-0.17027229486103782,0.948974394366404,-0.05361132191070617,0.01833,0.01161,0.08002,-18.9,-21.06,-23.4
50.9948,67888.4043,-0.15364217763122906,0.9300627572198866,-0.01232737132164985,0.03848,-0.05009,0.05742,-18.48,-20.82,-23.4
51.0233,67888.4243,-0.1508990634917437,0.9026778165487499,0.03142271864099122,0.00428,-0.09774,0.00367,-18.18,-20.58,-23.28
51.0405,67888.4443,-0.1567374868683445,0.8724504084357991,0.06940792955099262,-0.02871,-0.03787,-0.02505,-17.88,-20.4,-22.62
51.0622,67888.4642,-0.17745946271207172,0.8470220662559154,0.09436348850686649,-0.02932,0.06658,-0.00672,-17.64,-20.4,-22.2
51.0774,67888.4843,-0.21597895609362522,0.8280050253110914,0.10142984380517461,-0.02627,0.04643,0.01955,-17.52,-20.28,-22.14
51.0962,67888.5053,-0.26550642141172776,0.8215085064204958,0.08783944572871683,0.01344,-0.02505,0.01222,-17.52,-20.4,-22.44
51.1197,67888.5253,-0.31617528391664335,0.8302985847582104,0.054135599614177465,0.03299,-0.04154,-0.02688,-17.7,-20.28,-22.86
51.139,67888.5463,-0.35762398444297777,0.8588554384678183,0.004032649380782516,0.0281,-0.00794,-0.02505,-18.0,-20.4,-23.22
51.1547,67888.5673,-0.3874084289662749,0.9013184531030431,-0.05513436312229736,-0.01955,0.03787,-0.00611,-18.06,-20.88,-23.64
51.1747,67888.5873,-0.4043806437752832,0.9470811379983072,-0.11321667033089966,-0.03604,0.05131,0.0226,-18.42,-20.58,-23.64
51.1957,67888.6073,-0.4066848159850914,0.983667104639088,-0.15797776439967492,0.01833,0.01038,0.03848,-18.42,-20.82,-23.4
51.2161,67888.6273,-0.3846788991078519,1.003570842739832,-0.17650306051460518,0.0507,-0.04643,0.0171,-18.3,-20.52,-23.22
51.235,67888.6473,-0.33041376319061927,1.0037056917716651,-0.1579331795223169,0.00733,-0.05925,-0.01833,-18.36,-20.34,-23.04
51.257,67888.6673,-0.24769902862879387,0.982246804299389,-0.097367007881763,-0.04032,0.011,-0.01405,-18.06,-20.46,-22.68
51.2752,67888.6873,-0.1536557984060681,0.9393894772432905,-4.153497090619851e-05,-0.0171,0.03604,0.0281,-17.82,-20.1,-22.86
51.2984,67888.7083,-0.07283265268823753,0.8825347383436887,0.11608286510383792,0.03482,-0.02566,0.08125,-17.82,-20.1,-23.1
51.3183,67888.7283,-0.011048959369600628,0.8229406522094052,0.2226280776443037,-0.01772,-0.14783,0.0843,-18.0,-20.22,-22.86
51.3352,67888.7483,0.027124582697647764,0.7757787907347612,0.2877929611666694,-0.03665,-0.09529,0.00183,-18.0,-20.4,-22.8
51.3558,67888.7683,0.0371520834612349,0.7545471294997131,0.2882725482766624,0.00672,0.05803,-0.08674,-18.3,-20.76,-22.8
51.3766,67888.7883,0.012053914635033462,0.7657331897151003,0.21915355637299605,0.0281,0.1295,-0.09224,-18.96,-20.88,-22.5
51.3999,67888.8083,-0.05092659863142642,0.8093361578051691,0.09594368367019435,0.06109,0.0898,-0.06231,-18.96,-20.7,-22.5
51.4229,67888.8281,-0.14517959154994967,0.883334479876171,-0.0519413439934322,0.09774,0.00428,-0.05864,-18.66,-20.4,-22.56
51.4408,67888.8493,-0.24917566490780446,0.9793103588398235,-0.19104125104145453,0.06536,-0.02138,-0.05681,-18.78,-19.92,-22.5
51.4664,67888.8703,-0.3372660705316334,1.0707237315353835,-0.2916975606086538,-0.00428,0.06781,-0.08125,-18.24,-20.22,-22.74
51.482,67888.8903,-0.4273924364978393,1.1425134466535856,-0.3384956244026398,-0.0055,0.15394,-0.11973,-18.42,-20.22,-22.86
51.5001,67888.9113,-0.5146984457863304,1.1775561287531096,-0.328897568640123,-0.02321,0.14478,-0.10996,-18.54,-20.46,-22.92
51.5302,67888.9313,-0.5953038530450201,1.1764461799308954,-0.27404624764238505,-0.06475,0.01588,-0.09774,-18.3,-20.7,-23.1
51.5451,67888.9513,-0.6963605709919787,1.129885189354241,-0.19318843904499694,-0.09957,0.00305,-0.09774,-18.3,-20.64,-22.62
51.563,67888.9713,-0.7835317512419484,1.0569712522008698,-0.1063694618151736,-0.08247,0.05681,-0.07453,-17.7,-20.76,-22.86
51.586,67888.9913,-0.8392290616317714,0.9730371516686241,-0.028875310416346167,-0.09224,0.13744,-0.05376,-17.82,-20.64,-23.1
51.604,67889.0113,-0.8676429870187172,0.8841422136249952,0.031281491786309346,-0.11668,0.14905,-0.03176,-17.64,-20.64,-23.1
51.6204,67889.0313,-0.8608598948670393,0.8071015145557204,0.07391648336287915,-0.06536,0.11484,0.01466,-17.28,-20.46,-23.1
51.6452,67889.0523,-0.8161110508702333,0.7577648068674655,0.1034470414100781,-0.03848,0.0171,0.04948,-17.4,-20.16,-22.98
51.6679,67889.0723,-0.7331134469696271,0.7367189232331512,0.12571663856845738,-0.02321,-0.00733,0.10934,-17.7,-20.22,-23.22
51.6807,67889.0923,-0.6045792012847092,0.7447575420195144,0.14402421298665047,-0.00428,0.01894,0.12828,-17.46,-20.4,-23.28
51.7006,67889.1123,-0.4611361292366179,0.77912931787707,0.15576523560021194,0.01527,0.08552,0.16371,-17.82,-20.58,-23.82
51.7221,67889.1323,-0.3193000993790181,0.8298695719270089,0.15824190950487171,0.04643,0.08002,0.18509,-17.76,-20.7,-23.88
51.7439,67889.1523,-0.19800361349447143,0.8863143673442226,0.14919797103641486,0.05192,0.0562,0.14294,-17.52,-20.34,-23.28
51.7676,67889.1733,-0.10939629923771606,0.9376683073190849,0.12913621518975837,0.03726,0.01344,0.13011,-18.06,-20.16,-23.4
51.8017,67889.1933,-0.058937455509704015,0.9736293478485485,0.10203430323425522,0.03726,0.03299,0.0898,-18.18,-20.4,-23.1
51.8103,67889.2143,-0.024281419883971974,1.0007630943075072,0.07295958259432389,0.04581,0.05437,0.06048,-18.24,-20.58,-23.22
51.8282,67889.2343,-0.017206474467374725,1.008434384956041,0.048924469422207295,0.04948,0.04704,0.0733,-18.6,-20.4,-23.52
51.8445,67889.2543,-0.02608197458628708,1.0057616164554402,0.03286596332451808,0.06475,0.02077,0.09163,-18.18,-20.4,-23.22
51.8653,67889.2743,-0.04805485541985465,0.9968033131760403,0.024256961180924463,0.06292,0.02871,0.08002,-18.24,-19.68,-23.28
51.8865,67889.2943,-0.07608376036433111,0.990074600639551,0.018566219559106756,0.02566,0.01405,0.0452,-18.18,-19.32,-23.4
51.9023,67889.3143,-0.10962455610947165,0.9865265883206257,0.010648304746021964,-0.03543,-0.00794,-0.0055,-17.82,-19.98,-23.22
51.9219,67889.3343,-0.15168500147308683,0.9850811319617521,-0.0030243273418673056,-0.011,0.01588,-0.00122,-18.12,-20.04,-23.28
51.9425,67889.3543,-0.20333948898285917,0.9838694790312629,-0.022532002610095248,0.03787,0.00794,0.01344,-18.12,-20.34,-23.22
51.9682,67889.3743,-0.2639306841143927,0.9812336299574664,-0.04458767808914921,0.0452,-0.00611,0.04032,-17.94,-20.58,-22.98
51.9857,67889.3943,-0.31974774994224003,0.9822821835499504,-0.0645081938902532,0.04154,-0.03665,0.07208,-17.94,-20.34,-23.1
52.0083,67889.4143,-0.371653053629364,0.9806462146098552,-0.07731528302053725,0.0226,-0.02932,0.04643,-17.94,-20.04,-22.98
52.0248,67889.4343,-0.40993254223368886,0.9784280409907481,-0.08061846794941907,0.0281,-0.01894,0.02443,-17.64,-20.04,-22.86
52.0459,67889.4543,-0.44005400899618086,0.9745019423009698,-0.07479894716363233,0.01466,-0.02199,0.01038,-17.82,-20.22,-23.16
52.067,67889.4743,-0.46426417609025705,0.9702290750807192,-0.06245843437855925,-0.03299,0.02199,-0.00428,-17.58,-20.58,-23.04
52.0879,67889.4943,-0.4847412999245549,0.9651860937962522,-0.047112806432073384,-0.01588,0.01894,0.02382,-17.4,-20.76,-22.8
52.1096,67889.5143,-0.4987300156173722,0.9594724313913889,-0.032034120581640124,0.02993,0.00672,0.04643,-17.46,-20.82,-22.62
52.129,67889.5353,-0.49769031003974407,0.9569081354066976,-0.019506686427193998,0.06048,-0.01588,0.05559,-17.94,-20.7,-22.26
52.145,67889.5563,-0.47579911312652556,0.960489056561481,-0.010407019796405237,0.02566,0.02199,0.02749,-18.36,-20.4,-22.02
52.1653,67889.5763,-0.43538356408435863,0.9674648000286079,-0.004300990623358203,-0.01527,0.02016,0.01466,-18.24,-20.22,-22.56
52.1924,67889.5963,-0.38374468824344093,0.9728293672298254,-0.0002606252631665029,-0.01161,0.01894,0.02993,-18.36,-20.76,-22.98
52.2075,67889.6163,-0.3273703342972885,0.971367630810109,0.00247866633243099,0.03115,0.03299,0.06536,-17.94,-20.82,-23.1
52.2271,67889.6373,-0.27861958316458457,0.96223337112026,0.003313211959440565,0.05681,0.01894,0.08308,-17.88,-20.7,-23.58
52.2488,67889.6573,-0.24159166765242082,0.9523383168445517,0.0003899210359126215,0.05315,-0.00916,0.05437,-18.12,-20.88,-23.1
52.2701,67889.6773,-0.21607730118557336,0.9510497453973391,-0.008503503718126026,0.01588,-0.04398,0.01405,-18.18,-20.28,-22.8
52.2874,67889.6973,-0.20295020201535,0.9616483648963744,-0.024225049725956183,-0.00733,-0.01283,0.00367,-18.18,-20.28,-22.44
52.3141,67889.7173,-0.2036366988614975,0.9831787156946257,-0.04554798719715869,-0.02016,0.04337,0.01527,-18.18,-20.46,-22.62
52.3286,67889.7373,-0.22087914952425472,1.0123149497180282,-0.06929226773667985,0.0281,0.07453,0.03604,-18.36,-20.52,-23.1
52.3513,67889.7573,-0.25357955953413186,1.0436855120239188,-0.09123114701966983,0.03543,0.04032,0.05376,-18.3,-20.7,-23.16
52.3672,67889.7773,-0.29087097051836186,1.0736729006413162,-0.1076420802561131,0.00367,-0.04398,0.04887,-18.24,-20.4,-23.58
52.3861,67889.7973,-0.32749074218075513,1.0936950509682513,-0.1154959304824299,-0.03665,-0.08491,-0.00183,-18.12,-20.4,-23.16
52.4059,67889.8173,-0.35517361611960996,1.0964094981261654,-0.11231296183398953,-0.03176,0.00672,-0.00672,-18.06,-20.28,-23.16
52.4286,67889.8373,-0.3717694598720862,1.079631593036817,-0.09611268092134395,-0.00794,0.04643,0.00305,-18.18,-19.86,-22.92
52.4497,67889.8583,-0.3792913236502024,1.0466118249830754,-0.06563577615738048,-0.00916,-0.00428,0.0226,-18.18,-20.28,-22.74
52.4696,67889.8783,-0.377629644711303,1.0052002790147063,-0.021519651611257018,-0.0336,-0.04948,0.04154,-18.36,-20.34,-22.5
52.4856,67889.8983,-0.3634597388989125,0.9616797045117388,0.032568598694659556,-0.0281,-0.05803,0.02688,-18.42,-20.16,-22.56
52.5058,67889.9183,-0.34202671042938,0.9243741659961585,0.08847754190786716,-0.03176,-0.05803,0.02321,-18.42,-20.64,-22.92
52.5261,67889.9383,-0.31597227943658457,0.8973871375844832,0.13594960837406056,0.01222,-0.00061,0.03787,-18.66,-20.34,-22.92
52.5458,67889.9583,-0.2949633679586148,0.8849310657394905,0.16446238754634024,0.01772,0.04459,0.0226,-18.72,-20.4,-23.28
52.5704,67889.9783,-0.288897011989255,0.8877529775200682,0.16641221174609022,-0.011,0.01588,0.01283,-18.48,-20.4,-23.28
52.5924,67889.9993,-0.3000629989144359,0.9057118413808115,0.13889903907709567,0.00977,-0.01344,0.01344,-18.36,-19.98,-23.16
52.6093,67890.0193,-0.32242779143862144,0.9384099080017448,0.08466306528619683,0.04765,-0.03299,-0.01833,-18.36,-20.28,-23.28
52.6289,67890.0393,-0.34610213076587937,0.9827461873466202,0.012301107489490093,0.01038,0.00244,-0.03421,-18.3,-20.22,-23.28
52.6516,67890.0593,-0.361813382924948,1.0342456477825763,-0.0651754995627769,-0.01222,0.06842,-0.01955,-18.36,-20.4,-23.16
52.6727,67890.0793,-0.36921685297724066,1.0853267237276363,-0.13311901798769554,0.0,0.07269,-0.00244,-18.36,-20.4,-23.1
52.6905,67890.0991,-0.367296441499063,1.1289644936735115,-0.1787455829047353,0.03482,0.03971,0.02627,-18.36,-20.16,-22.8
52.7084,67890.1203,-0.35411351221387816,1.1595096684704147,-0.1943455448860032,0.03726,-0.0617,0.01283,-18.24,-20.46,-22.5
52.7286,67890.1403,-0.3306217623055713,1.1734508162425537,-0.17911877673601495,-0.03054,-0.08063,0.01588,-18.18,-20.16,-22.38
52.7557,67890.1603,-0.30078242597467003,1.1687406379874328,-0.1385564454752899,-0.03787,0.00244,0.01833,-18.12,-20.28,-22.5
52.7744,67890.1803,-0.2743011424221765,1.1390977636188666,-0.08170506840722602,-0.00855,0.0733,0.01161,-18.0,-20.1,-22.62
52.7884,67890.2003,-0.2653378452855069,1.0896840037817637,-0.02062259515759024,0.00305,0.04581,0.00611,-18.0,-19.8,-22.8
52.8089,67890.2203,-0.27986288785187163,1.031438648762392,0.03238718510192484,-0.011,-0.0281,0.01527,-17.94,-19.92,-22.62
52.831,67890.2403,-0.31438067934766045,0.9792795848998281,0.06624429644584318,-0.02382,-0.05131,-0.01222,-18.24,-20.1,-22.32
52.8498,67890.2603,-0.35758973796685545,0.944099195697624,0.07354280952125336,-0.03665,-0.01466,-0.04093,-18.3,-20.4,-22.44
52.8721,67890.2803,-0.397352962305416,0.9334337962722167,0.05248558809095094,-0.05192,0.0391,-0.03299,-18.54,-19.98,-22.32
52.8871,67890.3003,-0.4332096750862738,0.9431951064986832,0.008898069527621288,-0.01038,0.07147,-0.02505,-18.6,-20.16,-22.8
52.9078,67890.3202,-0.45498812263905586,0.9677840213899522,-0.04420013824247171,0.05192,0.06414,-0.00122,-18.54,-19.68,-22.92
52.9279,67890.3403,-0.46208403457509867,1.0006350344462827,-0.09074895857234644,0.0562,0.00305,0.00061,-18.48,-19.38,-23.04
52.9477,67890.3602,-0.4498704748098978,1.0331150539716005,-0.11625986366153818,0.0055,-0.01161,0.00855,-18.18,-19.74,-23.1
52.9671,67890.3802,-0.41749102489554185,1.0552983406194834,-0.11291187503315747,-0.03176,0.011,0.02138,-18.06,-19.68,-23.1
52.9872,67890.4003,-0.3708336449148255,1.0597057234604106,-0.08194963063039928,-0.05559,0.05131,0.00611,-17.64,-19.8,-23.04
53.0074,67890.4202,-0.3213693050971022,1.0446256296328564,-0.032611274460974116,-0.03665,0.02688,0.00305,-17.76,-19.74,-22.74
53.0434,67890.4402,-0.282423652494512,1.0170266495397842,0.021191458107473693,0.01161,0.01222,0.0226,-17.94,-19.62,-22.74
53.0563,67890.4603,-0.25284141983319397,0.9970938233714283,0.06484909404862904,0.02627,-0.011,0.0336,-18.06,-19.32,-22.32
53.0689,67890.4803,-0.23612293268302162,0.996024840385729,0.08792157130184108,0.02993,-0.011,0.02505,-18.6,-19.68,-22.32
53.0888,67890.5003,-0.23013139748659003,1.019389943336196,0.08585760840118972,-0.0226,-0.00977,-0.01344,-18.48,-19.74,-22.5
53.1085,67890.5203,-0.23264680036562696,1.059077517889971,0.061206848162457916,-0.0617,0.04887,-0.01955,-18.72,-19.8,-22.26
53.1287,67890.5403,-0.245650819514616,1.098696564212564,0.02241688913787243,-0.01466,0.03482,-0.00977,-18.9,-19.98,-22.38
53.1479,67890.5603,-0.26986183773626937,1.1250994259691145,-0.01924722858424488,0.03787,0.02688,-0.00061,-18.78,-20.16,-22.56
53.1683,67890.5803,-0.30001897005298533,1.134044223287523,-0.05337642842166623,0.04337,-0.02993,0.00611,-19.02,-20.04,-22.8
53.2001,67890.6003,-0.32863912877870705,1.1291716489752799,-0.07343824029561574,-0.0055,-0.04826,0.00244,-18.48,-19.74,-23.1
53.2085,67890.6203,-0.3455516045770975,1.1092292194343922,-0.07693392250849129,-0.06231,-0.05253,-0.0336,-18.3,-20.04,-22.98
53.2319,67890.6403,-0.34875911947079136,1.0876696953189848,-0.06783539878304268,-0.0391,0.00122,-0.04581,-18.0,-19.5,-22.98
53.2498,67890.6613,-0.3474572833394683,1.0606826607817714,-0.05136836911939646,-0.01038,0.01649,-0.01955,-17.7,-19.68,-22.62
53.2694,67890.6813,-0.34568607056263034,1.037339272561309,-0.03465982867737161,0.00794,-0.01772,0.00916,-18.24,-19.92,-22.32
53.2904,67890.7013,-0.34584672159602786,1.0253057031986366,-0.02360270359938177,0.01649,-0.06964,0.01222,-18.72,-20.04,-22.5
53.3112,67890.7223,-0.3460287443357727,1.0304754537856387,-0.021922099303706588,-0.01161,-0.04398,-0.02016,-19.14,-20.58,-22.38
53.3391,67890.7423,-0.34410250869484765,1.0548858510933365,-0.03064210700632941,-0.05437,-0.00428,-0.04215,-19.26,-20.22,-22.38
53.3549,67890.7623,-0.3506502258542369,1.0764657722061919,-0.04591148072898221,-0.08002,0.02505,-0.05559,-19.14,-20.4,-22.74
53.3704,67890.7823,-0.3628170310846213,1.0913215424000025,-0.06259105253967157,-0.05253,-0.00855,-0.04337,-18.9,-19.98,-23.22
53.4017,67890.8023,-0.37534699603887495,1.0906239779195264,-0.07331035590839718,0.03238,-0.01038,-0.01588,-18.84,-19.98,-23.04
53.4117,67890.8233,-0.3841712422497077,1.0862792340598026,-0.07370960148751315,0.05009,-0.02382,-0.00977,-19.08,-20.58,-23.28
53.4321,67890.8433,-0.385074817340267,1.079579992835718,-0.06144777687676495,-0.00367,-0.02688,0.011,-18.6,-20.82,-22.68
53.451,67890.8633,-0.374150857518131,1.0780465796549794,-0.03954959744863551,-0.09774,-0.06536,-0.02138,-18.6,-21.18,-22.38
53.4714,67890.8833,-0.3564580999683262,1.0810384044402863,-0.014179435721692002,-0.10996,-0.00794,-0.04398,-18.54,-20.88,-22.56
53.4952,67890.9033,-0.34130083806067474,1.0833779650353343,0.00840224358518249,-0.03176,0.00122,-0.04581,-18.12,-20.7,-22.68
53.5224,67890.9243,-0.3405355883533718,1.0795154462956702,0.024865570045248475,0.02505,0.01405,-0.0281,-18.3,-20.1,-23.22
53.5347,67890.9443,-0.36158816331902993,1.0769149392365382,0.034649268373401654,0.0281,0.01405,0.00183,-18.42,-20.16,-23.04
53.5537,67890.9643,-0.3979743167397699,1.0707909357984218,0.04135208180579397,-0.01344,-0.01894,-0.01038,-18.42,-20.28,-23.1
53.5729,67890.9843,-0.4400822541226528,1.0616951737401894,0.04773208879024793,-0.03726,-0.04154,-0.04948,-18.6,-20.1,-22.8
53.6024,67891.0043,-0.4714275009155774,1.055393409398792,0.054176536849437795,-0.0672,-0.05742,-0.08919,-18.78,-20.46,-22.74
53.6145,67891.0243,-0.49999378746896384,1.039684962807531,0.05967974773485274,-0.04826,0.01649,-0.06658,-18.42,-20.16,-22.92
53.6377,67891.0443,-0.5084575575512291,1.0329427018528519,0.06047542381726423,0.00977,0.04704,0.00428,-18.54,-19.68,-23.1
53.6608,67891.0643,-0.5030818142367771,1.0386638791566407,0.054363397380241096,0.06597,0.01222,0.05192,-18.72,-19.86,-23.04
53.6748,67891.0843,-0.47771629341075317,1.0681760946695467,0.04082843496478539,0.08002,-0.02199,0.04765,-18.54,-19.62,-23.04
53.6924,67891.1043,-0.44216807849269624,1.109127556410352,0.022410850754445377,0.0507,-0.0452,0.02138,-18.66,-19.5,-22.8
53.7148,67891.1243,-0.401978058380013,1.1532034064361414,0.0020366090939560877,0.00672,-0.00122,-0.01405,-18.48,-20.1,-23.1
53.7334,67891.1443,-0.36942728261633023,1.1882056676339718,-0.01695992037937799,-0.01344,0.07636,-0.00122,-18.12,-20.4,-23.1
53.7534,67891.1643,-0.35469537217984903,1.202896191150089,-0.031046629954365912,-0.00061,0.06964,-0.00733,-17.94,-20.28,-23.1
53.7795,67891.1843,-0.3619375854854439,1.1922572129758218,-0.03762171170316009,0.02443,0.01649,0.01038,-17.52,-20.4,-23.04
53.7967,67891.2053,-0.38278388615483755,1.1676377412729877,-0.03705512103901931,0.04643,-0.03054,0.0171,-17.34,-20.4,-23.16
53.8147,67891.2253,-0.40598937490845444,1.1385217032928567,-0.03142622896342573,0.01894,-0.00061,0.01772,-17.22,-19.98,-23.4
53.8372,67891.2453,-0.4216002455428322,1.1173531273006703,-0.025166772798996817,-0.01833,0.00794,-0.02749,-17.46,-20.46,-23.7
53.8547,67891.2653,-0.43080348533925833,1.1066891043544176,-0.02297046665605329,-0.05803,0.0562,-0.04032,-17.82,-19.98,-23.82
53.882,67891.2863,-0.4317035399869639,1.1078061250682572,-0.028318089561867765,-0.02077,0.03115,0.00611,-17.7,-19.56,-23.22
53.8937,67891.3063,-0.4262692140456524,1.1175245020139142,-0.0414548248606561,0.04032,0.01588,0.03054,-17.82,-19.74,-22.98
53.9152,67891.3263,-0.40977876667354135,1.1301330121384636,-0.05839373259984271,0.04765,0.0171,0.03421,-17.7,-19.98,-23.22
53.9334,67891.3463,-0.37918900854059,1.1453787044277026,-0.07339548774816862,0.00489,0.0055,-0.01772,-17.94,-20.4,-23.28
53.9545,67891.3663,-0.3396262862211073,1.1551317738046745,-0.08030388655952692,-0.05498,0.03421,-0.01588,-18.12,-20.82,-23.46
53.9826,67891.3863,-0.3009205115444089,1.1526599143187524,-0.07610461505607091,-0.02871,0.00794,0.00794,-18.0,-20.58,-23.64
53.9957,67891.4063,-0.2693536627754568,1.132218412242912,-0.0620430119295694,0.01038,-0.00367,0.02993,-18.0,-20.4,-23.34
54.0161,67891.4263,-0.24780228491844258,1.1070552123832191,-0.045141586870053985,0.02688,-0.03176,0.0171,-17.64,-20.46,-23.22
54.0432,67891.4463,-0.2315671307422474,1.0944759930454742,-0.03372086782694339,0.03482,-0.00061,-0.011,-17.82,-20.04,-23.22
54.0561,67891.4663,-0.2210124521779184,1.109568472023966,-0.03403643160815051,-0.00733,0.00428,-0.03726,-18.06,-20.52,-23.16
54.0753,67891.4873,-0.21492215503973403,1.150872592305463,-0.04671533054123245,-0.07819,0.02871,-0.04643,-18.12,-20.22,-23.28
54.0962,67891.5073,-0.2218089958519995,1.2016929243724623,-0.0669071166802393,-0.06414,0.05009,-0.03421,-18.3,-19.98,-23.46
54.1174,67891.5273,-0.24983964506042503,1.2414797177622987,-0.0866447975126583,0.0171,0.01466,-0.0391,-17.7,-20.4,-23.46
54.1373,67891.5471,-0.3004980950872943,1.2585268279451995,-0.0988002031200228,0.05192,-0.05192,-0.02688,-17.28,-19.98,-23.88
54.1557,67891.5673,-0.3682561707272053,1.2488880432456824,-0.09931536232016214,-0.00305,-0.08002,-0.04826,-17.1,-20.16,-23.58
54.1752,67891.5873,-0.4438505054647332,1.2126860550293204,-0.08782477178434789,-0.08186,-0.03176,-0.0898,-17.1,-20.16,-23.4
54.1988,67891.6073,-0.5147155499495124,1.157051527120931,-0.06789088211185224,-0.0788,0.01894,-0.10263,-17.34,-20.1,-23.46
54.2164,67891.6273,-0.5829825715087311,1.0858101135968976,-0.04618239361009735,-0.0617,0.02199,-0.09774,-17.64,-20.28,-23.28
54.2362,67891.6473,-0.6318442464613389,1.0242762949345243,-0.03249967232646256,-0.04887,0.01527,-0.04948,-17.52,-20.4,-23.64
54.2564,67891.6673,-0.6522184582857017,0.993976687374092,-0.03594137859744251,-0.03726,-0.01588,-0.00794,-17.1,-20.4,-24.0
54.2764,67891.6873,-0.634950585317636,1.0127428661481799,-0.06190991272788615,-0.0055,-0.03971,0.01283,-17.4,-20.1,-24.0
54.2966,67891.7073,-0.5806721102824567,1.0859372719524694,-0.10930682293728644,-0.00611,-0.02443,0.01283,-17.16,-19.86,-24.0
54.3164,67891.7273,-0.5034740370758195,1.2017110570219096,-0.16879317845850572,-0.02871,0.04948,0.02627,-17.58,-19.56,-23.64
54.3376,67891.7473,-0.42489663571378233,1.333198698128779,-0.22315771909426196,-0.04276,0.05681,0.05864,-17.76,-19.56,-23.82
54.3689,67891.7683,-0.3660494022556782,1.4471173221017335,-0.2513755316566577,-0.01161,-0.02749,0.0672,-17.7,-19.98,-23.76
54.382,67891.7883,-0.31762949314785416,1.5064850101050373,-0.23350175121776573,-0.00977,-0.0733,0.04459,-17.94,-20.4,-23.46
54.4081,67891.8083,-0.29183187356262225,1.5030461852483912,-0.16336689181075315,-0.06658,-0.02688,-0.00916,-17.7,-20.46,-23.46
54.4257,67891.8283,-0.28284002927349333,1.42047158832169,-0.044857555018269935,-0.14172,0.01833,-0.00855,-17.64,-20.58,-23.22
54.4388,67891.8493,-0.2915853119578206,1.26982776630302,0.10094426919812705,-0.15699,-0.02505,-0.00244,-17.4,-20.46,-23.52
54.4597,67891.8693,-0.3126707335236553,1.0971234047650467,0.2394029352707001,-0.13561,-0.0391,-0.01588,-17.16,-20.04,-23.28
54.4805,67891.8893,-0.33712833594441793,0.9268228313938321,0.3377817337338662,-0.11179,-0.1069,-0.05925,-17.04,-20.52,-23.64
54.5015,67891.9093,-0.35368923960434145,0.7995094187413784,0.37078222561092566,-0.05009,-0.11912,-0.10324,-17.28,-20.28,-23.34
54.5188,67891.9293,-0.36035503942949293,0.7459854421848291,0.33181865889177864,0.0171,-0.02321,-0.11973,-17.46,-20.46,-23.04
54.5378,67891.9493,-0.3570171007308904,0.7751566682907888,0.23512078916646928,-0.00305,0.02505,-0.05559,-17.46,-20.52,-23.7
54.5589,67891.9693,-0.34760998685031813,0.8686753522044057,0.10914043008129859,-0.02199,-0.03848,0.03726,-17.58,-19.8,-23.46
54.5806,67891.9893,-0.32908383348040954,0.9929586252744131,-0.014149534549568799,0.00122,-0.20953,-0.02688,-17.34,-19.86,-23.7
54.6035,67892.0093,-0.29750436709891837,1.116456193758077,-0.10974422360313163,0.04459,-0.18143,-0.08735,-17.28,-19.86,-23.88
54.6271,67892.0293,-0.2577382181229932,1.2191342657773683,-0.16571340658304123,-0.00794,-0.06536,-0.05742,-17.7,-20.22,-23.82
54.6442,67892.0503,-0.22237606151461342,1.2845632405431533,-0.18229773888146283,-0.07208,-0.01527,0.0226,-17.7,-20.46,-23.82
54.6706,67892.0703,-0.2069766706157559,1.3113586113381532,-0.16985254979586095,-0.0898,-0.0898,0.03238,-17.7,-20.4,-23.88
54.6846,67892.0903,-0.20638974293937212,1.2890934346524832,-0.14012906511647927,0.00367,-0.16371,-0.0281,-17.82,-20.16,-23.88
54.7009,67892.1103,-0.22567302949978482,1.2362018813915574,-0.10689238514629018,0.03726,-0.16249,-0.09285,-17.76,-19.98,-23.82
54.7223,67892.1303,-0.26036726415200556,1.1729563398273692,-0.0784735473442737,-0.04032,-0.07514,-0.07941,-18.0,-19.98,-23.52
54.7522,67892.1503,-0.30278540378102303,1.1254870559272834,-0.0585439382094286,-0.08063,-0.07636,-0.06109,-18.12,-20.46,-23.22
54.7611,67892.1703,-0.3514423811145107,1.0779972498957815,-0.04372163309417232,-0.10507,-0.12462,-0.05498,-18.3,-20.64,-22.8
54.7895,67892.1903,-0.38754024238520657,1.0683511531903604,-0.036199082418077566,-0.10201,-0.09285,-0.07819,-18.18,-20.58,-22.02
54.8008,67892.2103,-0.4139281974157216,1.065598329918292,-0.03171895817090409,-0.02749,-0.0788,-0.09041,-18.3,-20.82,-22.56
54.8192,67892.2303,-0.4272804489353971,1.0824547769965802,-0.030521131444874783,0.02382,-0.07636,-0.04948,-18.42,-20.58,-22.32
54.8382,67892.2503,-0.4318080902878958,1.1153224142707883,-0.03113383645441914,0.03665,-0.12156,-0.0171,-18.42,-20.34,-22.32
54.8573,67892.2703,-0.43110705771809676,1.1587719802635879,-0.03235114561969432,0.01894,-0.11423,-0.0281,-18.42,-20.58,-22.74
54.8788,67892.2903,-0.4307243065352367,1.2020037038588982,-0.03345312049553861,-0.02993,-0.07391,-0.06536,-18.42,-20.34,-22.32
54.9015,67892.3113,-0.43796947840551853,1.231560932979468,-0.03407837287148574,-0.06292,-0.05253,-0.06414,-18.66,-20.58,-22.68
54.9232,67892.3313,-0.4596327789771684,1.238375496148278,-0.03407943234002708,-0.01955,-0.05009,-0.05192,-18.6,-20.7,-22.62
54.9476,67892.3512,-0.4939189919055044,1.2261514409031051,-0.03353818294414879,0.01588,-0.08491,-0.03176,-18.6,-20.22,-23.1
54.9604,67892.3713,-0.5317986056516683,1.206152135368403,-0.031783400514040494,0.00733,-0.06842,-0.04093,-17.94,-20.52,-23.22
54.98,67892.3913,-0.5645376450968327,1.1879357951603746,-0.026739071314933582,-0.03787,-0.06353,-0.05803,-17.58,-20.4,-23.28
55.0096,67892.4123,-0.5871995391450083,1.1760366584143185,-0.015585612472197141,-0.0617,-0.04276,-0.02382,-17.58,-20.46,-23.34
55.0228,67892.4323,-0.6011719444589377,1.1551378293636803,0.005570948248209362,-0.02199,-0.011,0.01955,-17.7,-20.46,-23.16
55.0414,67892.4523,-0.608552308425512,1.129687361722311,0.03602321721713686,0.02566,-0.00428,0.00916,-18.12,-20.16,-23.22
55.0616,67892.4723,-0.6100917238074036,1.101941920450714,0.07235449210174316,0.0171,-0.02688,0.00183,-18.36,-20.1,-23.34
55.0827,67892.4923,-0.6036275942953581,1.0805322363321224,0.10737020121173124,-0.00428,-0.02871,0.00611,-18.36,-20.22,-23.34
55.1009,67892.5123,-0.5868062462361456,1.071482636941448,0.132081209485035,-0.01649,-0.00672,-0.00305,-18.36,-20.46,-23.4
55.1214,67892.5323,-0.5595431191807728,1.0761276028873488,0.1383595799447619,-0.01772,0.04459,-0.01772,-18.3,-20.64,-23.16
55.1398,67892.5523,-0.5264875933799223,1.0907389894271204,0.12208754944914979,0.02566,0.07758,0.01405,-18.18,-20.16,-22.98
55.1606,67892.5723,-0.4914604881263802,1.109881949890744,0.08517933295377667,0.07514,0.08247,0.03115,-18.3,-19.86,-22.8
55.1809,67892.5923,-0.4580629103404361,1.1341259628254017,0.03402939619331846,0.09102,0.05192,0.02016,-18.18,-19.8,-22.5
55.2032,67892.6133,-0.426701822366774,1.162227968466317,-0.022508918904678765,0.05559,0.01283,-0.0226,-18.24,-19.98,-22.74
55.2218,67892.6333,-0.39893611465823453,1.1931659968243755,-0.07696763856549005,-0.01038,0.00794,-0.03299,-18.36,-20.76,-22.56
55.2405,67892.6533,-0.375088106725321,1.2204789700122143,-0.12427208285950897,-0.02321,0.05009,-0.00733,-18.24,-20.64,-22.98
55.2617,67892.6733,-0.3556308226388044,1.2409672221445704,-0.16236741063209514,0.0336,0.0562,0.02566,-18.18,-20.46,-23.28
55.2818,67892.6933,-0.3403012786365291,1.2597080202846371,-0.1910440834138818,0.11362,0.0391,0.03971,-18.12,-20.16,-22.74
55.3018,67892.7133,-0.3262361831914244,1.283730534880511,-0.20973040952027588,0.09285,0.01527,0.04093,-18.06,-19.8,-22.5
55.3231,67892.7333,-0.3117372616507755,1.3139564588013917,-0.21675573753716826,0.00489,-0.02932,0.0507,-17.88,-20.22,-22.56
55.3416,67892.7533,-0.29661956906069703,1.3405036765508964,-0.20978379874754083,-0.03421,0.01466,0.05559,-18.0,-20.82,-22.68
55.3608,67892.7733,-0.28772231884634186,1.3489581967776443,-0.1874734596098122,-0.03421,0.00489,0.00855,-18.0,-20.82,-23.16
55.3825,67892.7933,-0.29158275572700565,1.3313688456330888,-0.1507896946118379,-0.00977,-0.02382,0.01344,-18.0,-21.12,-23.1
55.4051,67892.8133,-0.30952642071917785,1.2922688429698779,-0.10361961701430644,0.02566,-0.02566,0.05681,-17.88,-20.82,-22.92
55.4216,67892.8333,-0.33382545614513237,1.2461769475452278,-0.052321145370720856,0.00916,-0.06048,0.03726,-18.06,-20.64,-22.56
55.4449,67892.8533,-0.3648840299108254,1.208945624653221,-0.005141797621531552,-0.07025,-0.0733,-0.02077,-18.0,-20.46,-22.56
55.4649,67892.8733,-0.3979380006151217,1.1802524553836227,0.030940773575860447,-0.08796,-0.05864,-0.02688,-17.88,-20.04,-22.86
55.4848,67892.8933,-0.43427785666990165,1.160285154395916,0.04972706121294479,-0.02627,-0.03238,0.00489,-18.06,-20.04,-22.74
55.5072,67892.9143,-0.4724721991683461,1.1482387619914436,0.04929308590369352,0.04398,-0.02627,0.02566,-18.24,-19.98,-23.16
55.523,67892.9343,-0.5047994616143728,1.1515649474870502,0.03280385057165347,0.06903,0.00244,0.01466,-18.54,-20.4,-22.68
55.5446,67892.9543,-0.5273809641740542,1.1668950605320576,0.0089050236688486,0.02016,-0.00794,-0.01955,-18.54,-20.46,-22.56
55.5651,67892.9742,-0.5353761412645313,1.1904600773303575,-0.013154743269067737,-0.05803,-0.02321,-0.00672,-18.36,-20.28,-22.68
55.5867,67892.9943,-0.5286715424205874,1.2112138091858793,-0.02685953873791469,-0.03971,-0.02749,0.01894,-18.0,-20.76,-22.5
55.6036,67893.0153,-0.5078068111788301,1.223051652334885,-0.03127340051791627,0.02199,0.00489,0.02871,-18.06,-20.52,-22.68
55.6309,67893.0353,-0.48221201881375403,1.2282670296242197,-0.03087104082603709,0.06597,-0.011,0.03848,-18.18,-20.76,-22.44
55.6476,67893.0553,-0.44230900547219393,1.2442896919045283,-0.032541744834071906,0.05131,-0.02505,0.06658,-18.36,-20.7,-22.2
55.6629,67893.0753,-0.39892711412308085,1.2693810970390946,-0.04085512671447589,-0.01344,-0.05437,0.02077,-18.36,-20.1,-22.02
55.687,67893.0953,-0.35920608139252186,1.2989822755005838,-0.05703808649653119,-0.03787,-0.00367,-0.02871,-17.94,-20.22,-22.38
55.7059,67893.1153,-0.3324168591974836,1.320226179300141,-0.07773575043340131,-0.00977,0.02505,-0.02932,-18.06,-20.1,-22.2
55.7247,67893.1353,-0.3228184552565044,1.3277254357717658,-0.09761761878225172,0.02138,0.00489,0.00061,-18.3,-20.28,-21.72
55.7433,67893.1553,-0.3268567931675901,1.3217681892399997,-0.11130347637808313,0.0055,-0.04765,0.02566,-18.42,-20.52,-21.9
55.7636,67893.1753,-0.3362886719009225,1.3073898708092118,-0.11570495328255248,-0.01588,-0.04032,-0.00367,-18.54,-20.58,-21.9
55.7881,67893.1953,-0.34453982851003756,1.292640723025516,-0.11139927667543859,-0.00672,-0.01466,-0.0281,-18.6,-20.7,-22.26
55.806,67893.2153,-0.35323935535582934,1.278008349748918,-0.10149645157982157,-0.05864,-0.01222,-0.03299,-18.3,-20.88,-22.44
55.8245,67893.2353,-0.365261270538016,1.2678062061432982,-0.0915703704071138,-0.05986,-0.02566,0.00794,-18.24,-20.88,-22.26
55.8461,67893.2553,-0.38211899533023935,1.262589697204602,-0.0860417063387775,-0.01344,-0.03054,0.01649,-18.42,-20.64,-22.08
55.8634,67893.2753,-0.4013831440278797,1.2629540583906889,-0.0859533016502283,0.0391,-0.01527,0.00183,-18.42,-20.76,-21.96
55.8876,67893.2952,-0.4230379885807759,1.2675241771813341,-0.08790337918142299,0.03238,-0.0226,-0.04093,-18.6,-20.82,-22.56
55.904,67893.3153,-0.44903926725041526,1.2724570058363973,-0.08560895166769811,-0.03421,-0.01955,-0.03299,-18.66,-20.94,-22.98
55.9235,67893.3353,-0.477874685885644,1.2691048059094774,-0.07286891906476711,-0.04337,-0.01038,0.01405,-18.66,-21.0,-22.8
55.9441,67893.3553,-0.5038756091517191,1.2537777255949611,-0.04797788740598996,0.00794,0.00977,0.04093,-18.48,-20.82,-23.1
55.9748,67893.3763,-0.5192911292850413,1.234744298711955,-0.015792703579121437,0.01649,-0.00855,0.00794,-18.3,-20.94,-22.68
55.9857,67893.3973,-0.522933070396362,1.212800927289681,0.015568022766958123,-0.06597,0.00794,-0.03543,-18.12,-20.16,-22.5
56.0051,67893.4173,-0.5149317094957815,1.2056580422611838,0.0347882296650468,-0.08002,-0.01222,-0.01283,-18.06,-20.16,-22.26
56.0266,67893.4373,-0.4987982873430083,1.212587089470799,0.03522328829436283,0.01649,-0.01649,0.03054,-17.64,-19.98,-22.08
56.0446,67893.4573,-0.47366897331978003,1.235610987099551,0.015658849681987164,0.08491,-0.01161,0.02993,-18.06,-19.92,-22.38
56.0703,67893.4773,-0.44251674603068014,1.2693563938581787,-0.01809413227456602,0.04215,0.04826,-0.00244,-17.94,-20.64,-22.2
56.0881,67893.4973,-0.41536819252008583,1.3122287431054191,-0.05712071907129079,-0.02016,0.05498,-0.02993,-17.94,-20.4,-22.62
56.1082,67893.5173,-0.4005766081372248,1.3473605326295417,-0.09085014284553417,-0.02382,0.01466,-0.01161,-18.18,-20.34,-22.5
56.1265,67893.5373,-0.40179688104961486,1.3635063209743357,-0.11349581532978625,-0.00367,-0.02627,0.00428,-17.76,-20.58,-22.26
56.1542,67893.5583,-0.41189940705605915,1.36177339956173,-0.12610858707070882,-0.01527,-0.03665,-0.02688,-17.52,-20.52,-22.38
56.1664,67893.5783,-0.4272902828702833,1.3506761937349943,-0.13455586965142707,-0.00855,0.00672,-0.04459,-17.52,-20.58,-22.68
56.1898,67893.5983,-0.4380279368744044,1.3425725664609187,-0.14482461703901173,0.01222,0.03299,-0.03176,-17.64,-21.06,-23.04
56.2067,67893.6183,-0.44548193122365404,1.3459594523490621,-0.15953905933971235,0.01588,0.01649,0.01466,-17.7,-20.76,-23.04
56.2285,67893.6383,-0.44661488488132495,1.3576259649186895,-0.17523106811641398,-0.01344,-0.00977,0.0391,-18.18,-20.7,-22.92
56.2483,67893.6583,-0.44035664692039805,1.3686710044663783,-0.18480830754658406,-0.00916,0.01283,0.01038,-18.3,-20.76,-22.5
56.2663,67893.6783,-0.43073448614634563,1.369322926999284,-0.18112777794823032,-0.00733,0.00122,-0.0452,-18.36,-20.7,-22.62
56.289,67893.6983,-0.4238150019426218,1.3558927417795044,-0.16080144916148598,-0.03665,-0.05437,-0.02993,-18.3,-20.76,-22.5
56.3111,67893.7183,-0.4241435965645104,1.326937641837858,-0.1255042562474884,-0.05253,-0.02993,0.01344,-18.12,-20.7,-22.56
56.3284,67893.7383,-0.4299689539995244,1.2858585628125927,-0.08222726027976712,-0.04826,-0.00122,0.02321,-17.94,-20.88,-22.2
56.3523,67893.7583,-0.43797923891354223,1.2482141781581908,-0.04224029128964446,-0.03176,-0.00977,-0.01344,-18.06,-20.94,-21.78
56.3681,67893.7783,-0.44628501877850585,1.2223710837712565,-0.015161324761541195,-0.02321,-0.00367,-0.02993,-18.48,-20.7,-21.9
56.3864,67893.7983,-0.45180464045313234,1.221962993429793,-0.007406793969773062,-0.05376,-0.0281,-0.01038,-18.72,-20.94,-22.02
56.4105,67893.8191,-0.4516752294321883,1.2489724039543109,-0.018456893377313932,-0.06658,-0.0281,0.00733,-18.54,-20.88,-22.02
56.4352,67893.8393,-0.44378078029944773,1.2912304374795005,-0.04050761113532175,-0.02382,-0.01527,0.01527,-18.3,-20.88,-22.14
56.4567,67893.8592,-0.42988449035599935,1.3359975690633474,-0.061984897384482096,0.03115,0.0226,0.011,-18.12,-21.24,-22.26
56.47,67893.8793,-0.4154306134064568,1.3716349197148572,-0.07137147003713373,-0.00428,0.00672,0.02138,-17.88,-21.3,-22.44
56.4912,67893.8993,-0.4113320038144418,1.3874738270140208,-0.06155141316243551,-0.04276,-0.04154,0.02688,-18.6,-21.42,-22.86
56.5165,67893.9193,-0.41906037177030847,1.3777427198193266,-0.03254026010431588,-0.02932,-0.07758,0.00489,-18.6,-21.36,-22.68
56.5289,67893.9393,-0.4350334926992191,1.3337074637383435,0.0096048538360467,-0.05009,-0.04276,-0.02627,-18.48,-21.42,-22.86
56.548,67893.9593,-0.4572298862565231,1.2749063123341067,0.05124352721343328,-0.06048,-0.00916,-0.03482,-18.42,-20.94,-23.04
56.5718,67893.9793,-0.48092909931059147,1.2150373396323237,0.08056308703023873,-0.02077,0.02443,-0.02443,-18.3,-21.24,-23.28
56.5906,67893.9993,-0.5027578922084558,1.168770807846655,0.08992090837997502,-0.01588,-0.01222,-0.01038,-18.54,-21.18,-23.04
56.6126,67894.0193,-0.5137194553817062,1.1501485016061046,0.077867655708582,-0.02138,-0.04093,-0.00428,-18.12,-20.64,-22.86
56.6282,67894.0393,-0.5091810594453553,1.1615904559190864,0.049099299994578516,0.00305,-0.01649,-0.01161,-18.18,-21.06,-22.56
56.6495,67894.0593,-0.49182828908992904,1.1983281621092596,0.011424534643136752,-0.01038,0.01527,-0.00672,-18.18,-20.76,-22.2
56.6697,67894.0793,-0.4696765933509545,1.2459705962720085,-0.02635723006852686,-0.00061,-0.01405,0.01955,-18.18,-20.7,-22.8
56.6877,67894.0993,-0.4488244301144414,1.291262364015495,-0.057255437435886236,0.04032,-0.02321,0.0391,-18.36,-21.06,-22.62
56.7078,67894.1193,-0.4331851627995867,1.3242394658134242,-0.07725223345493148,0.05315,-0.01772,0.03543,-18.48,-20.52,-22.44
56.7403,67894.1393,-0.4217890948192193,1.3436288194156047,-0.08585371477694892,0.01344,0.00916,-0.01344,-18.48,-20.52,-22.92
56.7497,67894.1593,-0.4196444915465273,1.346262428364916,-0.08463611260039094,-0.05742,-0.00489,-0.03971,-18.72,-20.4,-23.1
56.7776,67894.1793,-0.4226483291493083,1.3447929046369622,-0.07846500037785553,-0.06048,-0.02138,-0.01283,-18.72,-20.52,-23.1
56.789,67894.1993,-0.4286670304078226,1.331400532256034,-0.0700385223193063,-0.00428,-0.04581,0.0281,-18.54,-20.64,-23.16
56.8152,67894.2191,-0.43683325469347006,1.3182046376769,-0.06389818121235713,0.0562,-0.0281,0.02199,-18.18,-20.7,-22.86
56.832,67894.2393,-0.4330534250816324,1.3203654831584446,-0.06197582940474966,0.04154,-0.01038,0.01527,-17.7,-20.82,-22.02
56.8466,67894.2593,-0.4222639606774505,1.3373089016938102,-0.06248485848948704,0.00794,-0.00122,-0.00061,-17.7,-20.4,-21.96
56.8669,67894.2792,-0.41108471139809283,1.3608442662276792,-0.061655536577664094,-0.03971,-0.02932,-0.00611,-18.0,-20.46,-21.96
56.8928,67894.2992,-0.4066946242048836,1.37612073646823,-0.0555133511517667,-0.03421,-0.04581,-0.01588,-18.42,-20.04,-21.96
56.9088,67894.3193,-0.411948147632864,1.36993335907124,-0.04200245351787224,0.02627,-0.02321,-0.00733,-18.66,-19.98,-22.26
56.9302,67894.3393,-0.42726931225090975,1.3436306830145468,-0.02334306463468927,0.03665,0.00061,0.00428,-18.84,-20.4,-22.92
56.9478,67894.3593,-0.4478832832682217,1.3096804909853137,-0.00513292853677072,-0.00061,-0.00367,-0.00122,-18.72,-20.46,-22.62
56.9677,67894.3793,-0.46934769170602486,1.2800686526686507,0.005871983007674331,-0.03971,-0.02627,-0.04215,-18.42,-21.06,-22.44
56.9887,67894.3993,-0.48849418496371294,1.2630047070138009,0.0035495299584873408,-0.0562,-0.00367,-0.05009,-18.66,-21.42,-22.5
57.0119,67894.4193,-0.503469045662574,1.2606972492986084,-0.015124697997048742,-0.01344,-0.00122,-0.02016,-18.66,-21.42,-22.32
57.0274,67894.4393,-0.5123319227545947,1.2767860272281526,-0.048703675160506776,0.04276,-0.00428,0.00183,-18.6,-21.18,-22.56
57.0658,67894.4592,-0.5169569607272768,1.2959152983486502,-0.08817041601196074,0.08247,0.00367,0.01649,-19.14,-21.06,-22.56
57.0675,67894.4793,-0.5042535080559237,1.3510687320215473,-0.12713819185885633,0.06536,0.01588,0.0226,-19.14,-20.7,-22.74
57.0898,67894.4993,-0.48833800459720683,1.4014007057076958,-0.15183727490254917,-0.01405,0.00916,0.00733,-19.38,-20.34,-22.5
57.1069,67894.5193,-0.4741093683109401,1.4359353541020652,-0.15624316449040698,-0.05742,-0.01283,-0.0226,-19.92,-20.34,-22.5
57.1263,67894.5393,-0.466494848682064,1.4438964656047752,-0.13995665575963656,-0.02382,-0.00733,-0.02382,-19.68,-19.98,-22.08
57.1503,67894.5593,-0.4662048271258466,1.4259622726085515,-0.10867741598075398,0.03238,0.00244,0.02627,-19.38,-20.16,-22.02
57.1702,67894.5803,-0.4673237567763123,1.3974018495549223,-0.07231235387373225,0.03543,-0.01038,0.03115,-19.08,-20.04,-21.9
57.1922,67894.6002,-0.46681705921678646,1.3731731130416813,-0.04084896120419934,-0.03115,-0.0055,-0.00672,-18.36,-20.22,-21.84
57.2106,67894.6203,-0.4656615232368888,1.3578248291083757,-0.021363094484943446,-0.05864,0.0,-0.02016,-18.3,-20.34,-22.26
57.2325,67894.6403,-0.46657805903555793,1.3511844930601187,-0.017612564833655142,-0.01649,-0.01894,0.011,-18.72,-20.16,-22.32
57.2526,67894.6613,-0.46765961338706863,1.3508331343883238,-0.02914518527353316,0.04093,-0.00977,0.03482,-18.96,-20.22,-22.8
57.2733,67894.6813,-0.46572093072603216,1.3582791770769365,-0.05200860289090059,0.0281,0.01894,0.00855,-18.9,-20.22,-22.68
57.2952,67894.7023,-0.4607820963355246,1.3723130404147734,-0.07902302332373168,-0.03299,0.06475,-0.02321,-19.2,-20.34,-22.86
57.3196,67894.7223,-0.4574957740053061,1.385194984033203,-0.10153692062815978,-0.0672,0.02932,-0.02566,-19.14,-20.64,-23.04
57.3316,67894.7423,-0.4598116472470782,1.3832935332884648,-0.11183139273592957,-0.0226,-0.04826,0.00733,-18.9,-20.58,-22.86
57.3533,67894.7623,-0.46508228701971643,1.3690168032101109,-0.10779103007537216,0.04826,-0.04032,0.02382,-19.32,-20.52,-23.28
57.3703,67894.7823,-0.4692597669460625,1.349943381293199,-0.0918721422108657,0.03482,0.0507,0.00428,-19.02,-20.16,-23.22
57.3908,67894.8023,-0.47411082577192853,1.3337858936093132,-0.06974541536788337,-0.0391,0.0733,-0.00183,-18.78,-19.98,-23.1
57.4117,67894.8223,-0.4831127509232087,1.3239682240373372,-0.047965590945178604,-0.0617,0.02016,-0.00183,-19.2,-19.98,-22.38
57.4327,67894.8422,-0.4965816738763794,1.3174837926859033,-0.03165852464291241,-0.03726,-0.02016,-0.02505,-19.26,-19.86,-21.96
57.4506,67894.8623,-0.5117758694104759,1.311120749770688,-0.0235476742655365,0.00367,0.01955,-0.03543,-19.26,-19.98,-22.08
57.4709,67894.8833,-0.5223722028097207,1.30638454554909,-0.02349959500464216,-0.0055,0.05192,-0.02627,-19.44,-20.1,-22.38
57.491,67894.9033,-0.5271621809405154,1.3048770989794187,-0.028861325845552344,0.00672,0.0617,0.00611,-19.2,-20.7,-23.22
57.5178,67894.9232,-0.5234320178391213,1.3068020318905238,-0.03584804550029297,0.03726,0.03238,0.0507,-19.02,-21.06,-23.64
57.5455,67894.9443,-0.5039560497268981,1.3156856906148677,-0.04209193226114216,0.00244,-0.01527,0.01527,-19.08,-21.36,-23.16
57.5534,67894.9651,-0.4746720397113501,1.3230828204394454,-0.04638351340838831,-0.05192,0.00244,-0.04643,-18.72,-21.54,-22.92
57.5788,67894.9853,-0.43041455526621325,1.3367852263165623,-0.05053708395416123,-0.04154,0.05437,-0.05192,-18.3,-21.0,-22.86
57.5944,67895.0063,-0.3960957304384433,1.3473262191718962,-0.055430301553485606,0.00183,0.06353,0.00183,-18.36,-20.82,-22.92
57.6169,67895.0263,-0.376372626241828,1.3549284612672317,-0.06142574022000069,0.04826,-0.00672,0.06475,-17.88,-20.4,-23.1
57.635,67895.0463,-0.3665365588372291,1.3670936997165388,-0.06889855297147207,0.07697,-0.0281,0.0562,-17.82,-19.62,-23.1
57.6552,67895.0673,-0.36560211666156894,1.3823026955297706,-0.0769798001416806,0.01283,0.01222,-0.01405,-18.0,-20.04,-23.1
57.6765,67895.0872,-0.37618534418431665,1.3955867544298823,-0.08462636165960724,-0.07514,0.03482,-0.07025,-17.82,-20.1,-22.68
57.6983,67895.1073,-0.40716117578049527,1.3950314665169024,-0.09036302581538536,-0.07636,0.04581,-0.04704,-17.94,-20.4,-22.86
57.7194,67895.1273,-0.45871534115496054,1.37438652272468,-0.09354934639558543,0.00183,0.00733,0.0171,-17.64,-20.58,-22.62
57.7441,67895.1483,-0.5152642870465628,1.3417117790301012,-0.09482833870392149,0.07453,-0.01894,0.04093,-17.52,-20.34,-22.5
57.7573,67895.1683,-0.5549288833523262,1.3178351865673825,-0.09543590018331471,0.03848,-0.01283,-0.01466,-17.4,-20.22,-22.56
57.7768,67895.1883,-0.568981785607705,1.3101569275693896,-0.09484129452156864,-0.08186,0.00183,-0.06536,-17.4,-20.1,-22.38
57.8017,67895.2083,-0.5603146046140522,1.319346634722301,-0.09276185488015543,-0.09346,0.00305,-0.02199,-17.76,-20.28,-22.08
57.8164,67895.2283,-0.5364010181055631,1.3331241496163568,-0.08829387669331368,0.02016,-0.02505,0.05192,-17.82,-20.52,-21.84
57.8378,67895.2482,-0.5046163710539775,1.3530218368766662,-0.08278939829342846,0.08308,-0.03726,0.07391,-18.36,-20.64,-21.9
57.8574,67895.2682,-0.46439525272071486,1.3838233176177717,-0.0775802147163418,0.04459,0.00244,0.03604,-18.48,-20.88,-21.72
57.8748,67895.2882,-0.42556533840517813,1.4207695678452732,-0.07312379341721176,-0.05925,0.01833,-0.00611,-18.9,-20.76,-22.14
57.8962,67895.3081,-0.40099729052323657,1.4522072107137827,-0.06897906725149561,-0.08369,-0.02443,-0.00305,-19.02,-20.64,-22.32
57.915,67895.3281,-0.39922344154968725,1.4609574073683942,-0.06363374423564849,-0.03299,-0.03971,-0.00489,-19.02,-20.58,-22.32
57.9362,67895.3482,-0.41891181034847896,1.4473082430967197,-0.05768081573288164,0.02505,-0.00183,-0.00672,-18.9,-20.4,-22.74
57.955,67895.3682,-0.45246780125359004,1.422629615266567,-0.05289534466675505,0.02871,0.01649,0.0055,-18.48,-20.4,-23.04
57.9749,67895.3881,-0.49126402344801234,1.3996834096365545,-0.05100553500989058,-0.04765,-0.02321,-0.01222,-18.3,-20.4,-23.1
57.9956,67895.4082,-0.5274462189964401,1.3837237677701877,-0.052733689789036475,-0.06048,-0.05009,-0.01649,-17.52,-20.7,-23.4
58.0211,67895.4281,-0.5540691582213557,1.374217746701934,-0.05785759772816057,-0.00672,-0.03238,-0.01588,-17.82,-20.46,-23.58
58.05,67895.4482,-0.5666093170718703,1.3679336201563015,-0.06488825641421236,0.01588,0.00367,-0.00061,-18.12,-20.16,-23.28
58.0602,67895.4682,-0.5619872793443639,1.370660635953482,-0.07211798398227742,0.00977,0.00061,0.00855,-18.12,-20.1,-23.04
58.079,67895.4881,-0.5449712109975559,1.3802566758984376,-0.07627539354019675,0.00794,-0.01161,0.02382,-18.48,-19.68,-22.86
58.0987,67895.5082,-0.5191277283217414,1.3944441389982902,-0.07471556081213038,-0.01344,-0.0336,0.03665,-18.3,-19.8,-22.44
58.1189,67895.5282,-0.48911961482198296,1.4075483423681434,-0.06654817126191759,-0.01955,-0.00916,0.04704,-18.42,-20.28,-22.44
58.1413,67895.5482,-0.46031468024906097,1.4169424026351602,-0.05386532332772198,-0.02077,-0.00489,0.01222,-18.54,-20.28,-22.26
58.1572,67895.5682,-0.43867715829505444,1.4218695716479581,-0.04070062622903947,-0.01038,0.01466,-0.01405,-18.24,-20.28,-21.96
58.1766,67895.5882,-0.4289464421106824,1.4273747663684913,-0.03208335336007906,-0.02871,-0.01833,0.00122,-18.24,-20.1,-22.14
58.2001,67895.6082,-0.43237209376881564,1.433524941307154,-0.031028739409306283,-0.01772,0.02382,0.02321,-18.36,-19.98,-22.08
58.2211,67895.6282,-0.4444474675983234,1.4387533188475248,-0.037965585987500106,0.01649,0.01283,0.01894,-18.18,-20.04,-22.38
58.2382,67895.6482,-0.4592904914420803,1.4438229080435467,-0.05114903569818452,0.03238,0.00367,-0.00244,-18.72,-19.98,-22.38
58.2566,67895.6682,-0.47358520633535717,1.4474674543632138,-0.06672616307056423,0.01161,-0.01772,-0.03115,-18.78,-20.28,-22.02
58.2774,67895.6882,-0.48717351530675557,1.447264031056957,-0.08023607575558955,-0.02199,0.02566,-0.02382,-18.54,-20.52,-21.96
58.2975,67895.7092,-0.5022212687571482,1.438185729728872,-0.08788089599141813,-0.01649,0.0281,0.0226,-18.54,-20.58,-22.02
58.322,67895.7292,-0.5173693077046044,1.4179144843853706,-0.08795175633664343,0.0281,0.01649,0.04826,-18.24,-20.64,-22.2
58.3382,67895.7492,-0.5223246372106701,1.3963041598670156,-0.08190746753637512,0.05009,-0.01222,0.0171,-18.0,-20.34,-22.68
58.3591,67895.7692,-0.5125717401669625,1.3814729415103637,-0.07256617866971382,0.01894,0.00489,-0.01038,-17.7,-20.16,-22.8
58.3789,67895.7892,-0.485821598299121,1.3809303029556665,-0.06361536287709235,-0.05742,-0.01038,-0.03787,-17.4,-20.34,-22.68
58.3986,67895.8092,-0.4467557390311125,1.3925986963856134,-0.05803261959911765,-0.04459,0.02566,-0.00367,-17.52,-20.52,-22.92
58.4203,67895.8292,-0.40295318726962503,1.4106732197875687,-0.05785136541685354,0.03421,0.04948,0.04581,-17.64,-20.58,-22.62
58.4398,67895.8492,-0.35930728492843694,1.434021147342424,-0.0645033021761936,0.08858,-0.01466,0.06292,-18.0,-20.7,-22.8
58.4596,67895.8692,-0.32290031519155543,1.4617125615670916,-0.0785950286499233,0.0507,-0.03543,0.02077,-18.06,-20.28,-22.86
58.4799,67895.8892,-0.30394781530947323,1.4892350810372503,-0.09992212153144209,-0.02138,-0.02566,-0.02871,-18.18,-20.46,-22.56
58.499,67895.9092,-0.31533651421825987,1.5057018469060977,-0.12707809693993966,-0.06048,0.00611,-0.03238,-18.12,-20.4,-22.38
58.5195,67895.9292,-0.36279622182365956,1.5033335482934755,-0.15799645840583132,-0.01588,0.03848,0.00672,-17.76,-20.34,-22.14
58.545,67895.9492,-0.43829440363476674,1.4840632573400083,-0.18986202468366287,0.04459,0.00916,0.02688,-18.06,-20.28,-22.26
58.5681,67895.9702,-0.5203105446536129,1.4626726813066908,-0.2187413730339749,0.02077,-0.03604,-0.0281,-18.0,-19.92,-22.26
58.59,67895.9902,-0.5829839585231728,1.4517561531529286,-0.23782738047881224,-0.0507,-0.05131,-0.06109,-18.12,-19.74,-22.92
58.6026,67896.0112,-0.6075479872594088,1.4492700490032477,-0.23804857093831622,-0.06414,-0.02993,0.01222,-18.48,-19.62,-22.68
58.6227,67896.0312,-0.5878046335011509,1.4572628088273434,-0.21391385382086447,-0.02566,0.03299,0.07575,-18.18,-19.86,-22.32
58.6464,67896.0512,-0.533787322449488,1.4676509961478457,-0.16399935797358722,0.00977,0.03848,0.09407,-18.36,-20.58,-22.44
58.6619,67896.0711,-0.4519189121734022,1.4751248606490355,-0.09360249739465765,-0.0171,-0.03971,0.09224,-18.42,-20.94,-21.9
58.68,67896.0912,-0.3728430971090704,1.4802389089426573,-0.01692533604333235,-0.05803,-0.16738,0.05498,-18.3,-21.24,-22.32
58.706,67896.1112,-0.3178716148126415,1.4855457671611396,0.048312135678667545,-0.07086,-0.0788,0.01772,-18.3,-21.0,-22.56
58.7298,67896.1322,-0.2970605772800655,1.4796171578912847,0.08861348522717094,-0.06658,0.04215,-0.0055,-18.42,-20.34,-22.56
58.7475,67896.1522,-0.32391197091089075,1.4639885318808652,0.09572351237547316,-0.03054,0.02688,-0.01344,-18.24,-20.64,-23.28
58.7624,67896.1722,-0.3933944195867664,1.4502559556527255,0.07024836512127308,0.03848,-0.03176,-0.02016,-18.42,-20.16,-23.28
58.7828,67896.1922,-0.4847454535903678,1.4457321653632302,0.022184195081653257,0.02443,-0.05253,-0.05192,-18.6,-20.34,-23.04
58.7995,67896.2122,-0.5722646624501639,1.4538580839862576,-0.033618028337009775,-0.04337,-0.05986,-0.03971,-18.3,-20.28,-22.98
58.8222,67896.2322,-0.6329630391600723,1.4703235845039255,-0.08173511847052595,-0.04704,-0.00855,-0.01222,-18.3,-19.92,-22.5
58.8411,67896.2522,-0.658411581399379,1.4830899327379388,-0.11006672955987185,-0.00733,0.04032,-0.00367,-18.18,-19.98,-22.44
58.8616,67896.2732,-0.6491665767559428,1.4878993669693015,-0.11341272990765461,0.03238,0.04704,0.0507,-18.48,-19.98,-22.62
58.88,67896.2932,-0.6112628222258844,1.4855512048481114,-0.09340412663289577,0.01894,-0.01955,0.06536,-18.72,-20.34,-22.68
58.901,67896.3131,-0.556775889211061,1.4784886997728135,-0.057902345447571335,-0.00122,-0.0788,0.02443,-18.84,-19.92,-22.62
58.9208,67896.3332,-0.496098749393824,1.469709154853968,-0.01899421098363696,0.0,-0.03176,-0.011,-18.72,-19.86,-22.68
58.94,67896.3532,-0.4425205340938819,1.463303714144852,0.00958335552599543,-0.011,-0.04032,0.00855,-18.6,-19.8,-22.74
58.9613,67896.3731,-0.40651275808191895,1.4648580980845554,0.016448911194542504,0.04826,0.00611,0.03604,-18.18,-19.38,-22.68
58.98,67896.3931,-0.39230593417933046,1.4807088166529372,-0.004190884875182377,0.06536,0.02993,0.01405,-18.24,-19.68,-22.98
59.0021,67896.4132,-0.40086956978998106,1.5075722797595046,-0.049956098803543014,0.01038,-0.03176,-0.02993,-18.18,-20.1,-22.8
59.0339,67896.4342,-0.42850123382507393,1.5356200829328834,-0.11138516373566354,0.00855,-0.05437,-0.04093,-18.18,-20.46,-22.8
59.0474,67896.4542,-0.4704919936650964,1.561897649904723,-0.17628915565528303,0.03299,-0.03238,-0.03115,-18.66,-20.7,-22.5
59.0644,67896.4742,-0.5157198016595105,1.5740416309267504,-0.22970522036723118,0.02871,0.03115,-0.00855,-18.36,-21.0,-22.32
59.0891,67896.4952,-0.5525680466534775,1.5727733179005343,-0.26060043484621076,-0.02749,0.01833,0.01283,-18.6,-20.76,-22.14
59.1069,67896.5152,-0.5756767372425118,1.557263004581369,-0.26238945281050086,-0.05437,-0.00305,0.00428,-18.72,-20.58,-21.9
59.1236,67896.5352,-0.5827908363611575,1.531303778332478,-0.23522728586339525,-0.0452,-0.01955,-0.02688,-18.48,-21.0,-22.38
59.1457,67896.5552,-0.5786120124934115,1.5023362031741334,-0.18594635660918435,-0.0171,-0.02077,0.01405,-18.84,-20.94,-21.96
59.17,67896.5762,-0.5676809565741011,1.476155767309127,-0.12506512558373295,0.01405,-0.03971,0.06903,-19.02,-20.94,-22.32
59.1883,67896.5962,-0.5479221832524587,1.4612496308074994,-0.06435816064474587,0.01466,0.00122,0.05437,-18.72,-21.0,-22.74
59.2078,67896.6172,-0.5272476406476567,1.459549917252782,-0.013590150413321567,-0.01772,0.0226,0.00916,-19.02,-21.12,-22.8
59.234,67896.6372,-0.5105278918317663,1.4679901942245528,0.02186580631260604,-0.05437,0.03238,-0.02077,-18.9,-20.88,-23.1
59.2466,67896.6572,-0.5095932825121852,1.4702532981348417,0.04197028963169558,-0.03665,0.02932,-0.00489,-18.66,-20.88,-22.98
59.2657,67896.6772,-0.5179249383681916,1.468634096069081,0.04738364975677989,0.00183,0.01588,0.02077,-18.9,-20.58,-22.68
59.2873,67896.6972,-0.5294303912898505,1.4653740008760536,0.03975536661086032,0.02199,0.00733,0.0336,-18.84,-19.8,-22.32
59.305,67896.7172,-0.533802853217594,1.4724351260115902,0.01982473116455452,0.02871,0.03238,0.02566,-18.6,-20.1,-22.32
59.3262,67896.7372,-0.5285641458862113,1.4972147300682925,-0.010730547037621108,-0.00916,0.02505,0.02016,-18.3,-19.92,-22.44
59.3538,67896.7572,-0.5166129511037568,1.5388785127149198,-0.047572608613384304,-0.02443,0.00428,0.00916,-18.06,-19.92,-22.8
