AppTimestamp(s),SensorTimestamp(s),acc_x,acc_y,acc_z,gyro_x,gyro_y,gyro_z,mag_x,mag_y,mag_z,yaw_deg_ori,yaw_deg_ori_cal,yaw_deg,yaw_error,Quat_w,Quat_x,Quat_y,Quat_z,q_w,q_x,q_y,q_z,quat_angle_error_deg
0.0455,613.6659,-0.61606704733261,-0.10560602798236274,0.12867736805772267,0.15053194157900956,-0.04409441481845178,-0.39870218150395764,0.5479476313116791,25.271647899382412,-45.31117746950814,112.494949,129.33239856686066,0.0,112.49494900000002,0.4690489213636075,0.11697225,0.38132703,0.78797227,1.0,0.0,0.0,0.0,124.05484468172031
0.0499,613.6859,-0.21414359106996628,-0.17132854010821919,0.2091943728593968,0.0975517988845143,-0.033674078763646545,-0.30046850979527717,0.49635997304259405,25.345804747390282,-45.44725054959072,112.167877,128.88332989701468,0.0,112.16787699999998,0.4720625159170728,0.11894153,0.37983233,0.78659856,1.0,0.0,0.0,0.0,123.66347518980336
0.0553,613.7059,0.03671693715962476,-0.23164089067596838,0.239151555804634,0.059784978690218926,-0.013169204080960832,-0.21822887227018717,0.4551257586847157,25.363769218054287,-45.526383766912545,111.875572,128.4889009784541,0.0,111.87557200000003,0.4746064049622177,0.11982039,0.37849933,0.78557628,1.0,0.0,0.0,0.0,123.33254762004907
0.0707,613.7258,0.08019049396244426,-0.27213128494325667,0.19170590666779574,0.050023596740452446,0.021011407565053458,-0.1680388639157516,0.34039338322341806,25.276354940519894,-45.5253232300289,111.712547,128.3015194330682,0.0,111.71254699999997,0.475767450416179,0.11945933,0.37798509,0.78517646,1.0,0.0,0.0,0.0,123.18133917066622
0.0929,613.7459,-0.029434120139366193,-0.2960024965121224,0.07894864679579783,0.07498643262894558,0.06373525567275326,-0.15737785120101958,0.12390559440836313,25.10253018049481,-45.43355963569588,111.659866,128.31201916394994,0.0,111.65986599999997,0.4757619625406297,0.1191132,0.37846082,0.78500319,1.0,0.0,0.0,0.0,123.18205413634486
0.1253,613.7659,-0.20308831212723621,-0.33058914083347646,-0.05400423126065945,0.13194903514788536,0.10373039322557062,-0.17805043629100437,-0.07739674049690137,24.97951012246542,-45.2250877724108,111.618073,128.283315745269,0.0,111.61807299999998,0.4761244176034711,0.12054929,0.37865132,0.78447217,1.0,0.0,0.0,0.0,123.13482795841023
0.1297,613.7859,-0.4041085739392054,-0.3710328450038556,-0.15626316150960307,0.21022442002883834,0.12849800509927445,-0.2123153392873225,-0.13599222194187277,24.949609893701158,-44.96205137646856,111.496613,128.06415812814316,0.0,111.49661300000002,0.4777112303706095,0.1234602,0.37784216,0.78344423,1.0,0.0,0.0,0.0,122.9279494870767
0.1457,613.8059,-0.6292391834370648,-0.3803034475771636,-0.1953867000731364,0.29441494405157076,0.12910279532453478,-0.24639689861541575,-0.14400765784186476,24.96816688432931,-44.751247206798816,111.431427,127.85559750420042,0.0,111.43142699999999,0.4791677958124835,0.12669203,0.37675536,0.78256166,1.0,0.0,0.0,0.0,122.7378729100677
0.1662,613.8259,-0.8676516076501439,-0.3412642903016201,-0.17029226752297788,0.3690587070093257,0.10179281255659371,-0.2770895879773735,-0.1795113037410374,25.090957121929215,-44.607215048529966,111.500557,127.7009968031544,0.0,111.50055700000001,0.4802182404883596,0.13095464,0.37527847,0.78192544,1.0,0.0,0.0,0.0,122.60068677454939
0.1871,613.8459,-1.1262367678851062,-0.26251315054100544,-0.11848958201087889,0.42481482277018123,0.0472402923735627,-0.3102372579987679,-0.09767935914155146,25.356072452483943,-44.51168133005035,111.583763,127.37555349233787,0.0,111.58376299999998,0.4820781818332048,0.13563849,0.37221372,0.78144723,1.0,0.0,0.0,0.0,122.35756093784681
0.2065,613.8659,-1.384575711668456,-0.1745101229324897,-0.09209357013437725,0.46259119799295934,-0.03264101653312826,-0.35855267772992544,0.08118333694950408,25.689753958854922,-44.47714177394553,111.750557,126.98746613198442,0.0,111.75055700000001,0.4839373807754583,0.13893257,0.36774179,0.78183651,1.0,0.0,0.0,0.0,122.11424815293444
0.2342,613.8859,-1.521803798132189,-0.08653246510574819,-0.098246140902706,0.4907808332493153,-0.1444762338305457,-0.43383973729768155,0.04013809347082997,25.893399554646564,-44.57403347981003,111.99469,126.83935703666806,0.0,111.99468999999999,0.4844565216413848,0.14178512,0.3648304,0.78236669,1.0,0.0,0.0,0.0,122.04625735508641
0.2554,613.9058,-1.4492037910868953,-0.018133787700663984,-0.105536331777623,0.5176246744578675,-0.3002169709143091,-0.5296458223588016,-0.06418558120727269,26.03880366993627,-44.70703634393533,112.031441,126.50180159693365,0.0,112.03144099999997,0.4862999638453424,0.14612409,0.36206391,0.78170955,1.0,0.0,0.0,0.0,121.80464468315719
0.2706,613.9259,-1.1344649815279402,0.03232704308818635,-0.09590786040836718,0.5476639219305544,-0.49572375636735155,-0.6237242191591224,-0.07000524961394561,26.195076710575066,-44.77237905285659,111.886536,125.80845691603518,0.0,111.88653599999998,0.4900862046691675,0.15096092,0.35753566,0.78050917,1.0,0.0,0.0,0.0,121.30750457072531
0.2913,613.9459,-0.5535404344569628,0.06290591340242546,-0.07027933496199879,0.5866683960195264,-0.6980458994945563,-0.6926295393964987,-0.07526006571448107,26.32892508819298,-44.7237188800066,111.693794,124.91672510808573,0.0,111.69379400000003,0.49478195951745,0.1559204,0.35158217,0.77927506,1.0,0.0,0.0,0.0,120.68925293944208
0.3099,613.9658,0.19090499118492943,0.0559703170353929,0.006350121251546881,0.6499990049816363,-0.8447552273845769,-0.7131629798304275,0.07963804476827008,26.291600665677976,-44.605634239980404,111.226204,123.72336894018945,0.0,111.226204,0.5011230316165585,0.15842487,0.34448045,0.77788848,1.0,0.0,0.0,0.0,119.8513459423522
0.3304,613.9859,0.8053189979600655,0.006727067535565956,0.2517624272951462,0.7463472652371087,-0.8657878647685149,-0.6676192143787196,0.9122531747522906,25.96289129722017,-44.489821112557905,110.021324,121.7837331907009,0.0,110.02132399999999,0.5119092974383547,0.15402785,0.33461711,0.77605134,1.0,0.0,0.0,0.0,118.41781805074505
0.3484,614.0059,1.0954024171289323,-0.08788655183977401,0.7341792122356381,0.8484634245184158,-0.7127780203818703,-0.5753020278893513,1.7513285390653976,25.66462873219789,-44.25110670191481,109.283241,120.17966716789726,0.0,109.28324099999998,0.520481421941454,0.14589424,0.32260433,0.77700734,1.0,0.0,0.0,0.0,117.2709002582974
0.3716,614.0258,1.046485116037629,-0.27732602715733035,1.3150054422454431,0.8824660673412352,-0.42229890507487994,-0.4729770658327793,2.0914560692918904,25.901701816461678,-43.72715090300413,109.499924,119.12423838057794,0.0,109.49992399999996,0.5251092481361878,0.14376235,0.30799165,0.78021395,1.0,0.0,0.0,0.0,116.64880384988291
0.3879,614.0459,0.8304833590682135,-0.4989829758201212,1.7462027533290403,0.7988483899697676,-0.10063209457135866,-0.3692199456232684,1.662603521685785,26.322482949219904,-43.23535901267322,110.334328,118.7833067589212,0.0,110.33432800000003,0.5252988325695273,0.14919545,0.29653254,0.78349876,1.0,0.0,0.0,0.0,116.6232746135373
0.4059,614.0658,0.6040245725688642,-0.7503427172525385,1.860586010097549,0.6103858538665521,0.14144883889186038,-0.2513681711082866,0.9278400038822561,26.571010903888027,-43.003713441049456,111.042862,118.63384889822635,0.0,111.04286200000001,0.5246272729188445,0.15875229,0.2900784,0.78448611,1.0,0.0,0.0,0.0,116.71369032234362
0.4259,614.0859,0.42446777262657065,-1.0487913330645051,1.6554602981964415,0.3853127387941005,0.25076769395661985,-0.10699114455001246,0.3574185758612991,26.473196808261406,-43.09797905435978,111.278107,118.40775934992853,0.0,111.27810699999998,0.5250370408405026,0.16733176,0.28804278,0.78317785,1.0,0.0,0.0,0.0,116.65852628397066
0.4473,614.1059,0.29713514450130596,-1.3427652634824148,1.283953793212973,0.19964670813760127,0.24034433724617854,0.058618538142713394,0.04139963531945057,25.86466350133829,-43.53632204824173,111.134041,118.39427249716327,0.0,111.13404100000002,0.5252730761247817,0.17030355,0.29083782,0.78134388,1.0,0.0,0.0,0.0,116.62674315481601
0.4698,614.1259,0.23847348159616022,-1.638073992718915,0.9389702760393757,0.09668676235859879,0.1618530025132686,0.22888158756833915,-0.03931326058139106,25.060531382145534,-44.03274437488937,110.953804,118.62411400501497,0.0,110.95380399999999,0.52459954211708,0.16907595,0.29516783,0.78043872,1.0,0.0,0.0,0.0,116.7174229246713
0.4855,614.1459,0.27164596239980643,-1.9212917196076682,0.736209121068125,0.06878704149317465,0.07650208040777493,0.3818080965651327,0.06613943496309105,24.4310465650422,-44.33919478943544,110.987793,118.94356399092639,0.0,110.98779300000001,0.5231618462983744,0.16679224,0.29768935,0.78093731,1.0,0.0,0.0,0.0,116.91083623959673
0.5071,614.1659,0.40759344771172046,-2.126908352697794,0.6889454288201673,0.07295355603972314,0.035717802685005934,0.4976837924716412,0.2129990892247413,23.994411588582604,-44.487570098074556,111.453026,119.57820798712802,0.0,111.45302600000002,0.5195488126634331,0.16303024,0.29863295,0.78377837,1.0,0.0,0.0,0.0,117.39601678280997
0.5315,614.1859,0.6449615027956028,-2.2287522905415393,0.7390156635618066,0.06658224258145223,0.06432232291311638,0.5722564012089257,0.37451543575256707,23.705021415515656,-44.5851384034861,112.108574,120.34532239611404,0.0,112.10857399999998,0.5149415316307198,0.15856494,0.2988728,0.78763407,1.0,0.0,0.0,0.0,118.01290608097703
0.5472,614.2059,0.9763037999853399,-2.2147431114040907,0.8068452063357903,0.028895234492164357,0.15380801315650322,0.6199920653463552,0.4996443383201985,23.498017141709518,-44.74217507846326,112.660667,121.04623594782117,0.0,112.66066699999999,0.5107472164979145,0.15481544,0.29983592,0.79073882,1.0,0.0,0.0,0.0,118.57277143285644
0.566,614.2259,1.3897303966258656,-2.031108087557891,0.8181479667998524,-0.038718400766909994,0.272814077001307,0.6640340114195884,0.4994580711722847,23.23015416911135,-45.06089743874416,113.014694,121.7634824078157,0.0,113.01469400000002,0.5067879160437715,0.15169241,0.30351856,0.79248464,1.0,0.0,0.0,0.0,119.09977940516339
0.5855,614.2459,1.870764312741482,-1.65605209482566,0.6938178465257749,-0.12671530171899706,0.3813536735119379,0.7279457299768681,0.29503814065237677,22.976642931458642,-45.46953368841007,113.534904,122.80644627551642,0.0,113.53490399999998,0.5009805287915895,0.14894094,0.30944514,0.79440469,1.0,0.0,0.0,0.0,119.87021501372652
0.6055,614.2659,2.324848583498887,-1.1022759834791707,0.3846482456259146,-0.22749150735005513,0.44792937705039415,0.8353883481599444,0.19842913481273428,22.776750767530416,-45.869542364750465,114.123466,123.94091341394466,0.0,114.12346600000001,0.4945195378459351,0.14499825,0.31538191,0.79684389,1.0,0.0,0.0,0.0,120.72385378033583
0.6319,614.2869,2.690432813272504,-0.47250291215835283,-0.13255539057711374,-0.32380370367119193,0.4517682725196295,1.0103749236116668,0.28183369727030083,22.77601080275978,-46.10270214804656,114.668755,124.85915102067426,0.0,114.66875500000003,0.4891194764296559,0.14240603,0.31967768,0.79892981,1.0,0.0,0.0,0.0,121.43455253371887
0.6512,614.3069,2.887003944750429,0.2330489763936352,-0.8225882748813262,-0.3953556699272382,0.3939133952844282,1.2542029249258606,0.36273977570607485,22.674583261091506,-46.26060704697967,115.257217,125.946143983394,0.0,115.25721699999997,0.482748995162072,0.13908948,0.32534555,0.80109787,1.0,0.0,0.0,0.0,122.269804657875
0.6939,614.3269,2.8238146884153292,0.9574326969269735,-1.5863400195726065,-0.42466522203458024,0.29265311475216205,1.5375096431527253,0.48736069294587736,22.52633354841452,-46.30623813511925,116.186752,127.39721842979137,0.0,116.18675200000001,0.4736920363077325,0.13261539,0.33110636,0.80523139,1.0,0.0,0.0,0.0,123.45155448364562
0.6993,614.3479,2.5199813616379285,1.6892539492648027,-2.294981519687587,-0.40759818917527235,0.1919821870666108,1.8136205910568828,0.5866379437651723,22.32308090160267,-46.276139237759,117.712448,129.41443953780092,0.0,117.712448,0.4600741308089236,0.12142538,0.33684283,0.81248051,1.0,0.0,0.0,0.0,125.21621773742575
0.713,614.3679,2.0487467910971064,2.3733468175877417,-2.8422384042116633,-0.36827794580106876,0.1313133532391344,2.052765867608434,0.7568172350140614,22.328902995608708,-46.09658154246731,119.819603,131.6543236630841,0.0,119.81960300000003,0.4433724792564237,0.10774366,0.33970034,0.82244503,1.0,0.0,0.0,0.0,127.36148521781602
0.733,614.3879,1.467729366590934,2.943525497595702,-3.2160846880847007,-0.3461117116033696,0.11841730876321033,2.2558955163970356,1.0905628065838613,22.78473179264205,-45.69936712923433,122.182281,133.6112031123302,0.0,122.18228099999999,0.4272268411061943,0.09618328,0.33744821,0.83327949,1.0,0.0,0.0,0.0,129.41660637435527
0.7551,614.4079,0.7445865721709226,3.3532765239589275,-3.5160471788330945,-0.3563455565287442,0.12871063436647068,2.43702396704888,1.3140701070297567,23.600851982052944,-45.160139391317614,124.899277,135.5903493747023,0.0,124.89927699999998,0.4103463250454721,0.08857825,0.33221063,0.84463358,1.0,0.0,0.0,0.0,131.54681549156385
0.7737,614.4279,-0.2170789444991017,3.574474617834754,-3.8678699275522366,-0.3785712152683175,0.13732996618186266,2.5917843556601365,1.2939068729602674,24.29059425090778,-44.75152481277115,127.880203,137.95135700981382,0.0,127.880203,0.3905107402014885,0.08137143,0.32912818,0.85589409,1.0,0.0,0.0,0.0,134.02743424379926
0.7913,614.4479,-1.4062406151452962,3.5403807939004572,-4.258695426556108,-0.3543576180723489,0.1053506987978462,2.6933779298205476,0.968172279298912,24.810326583175765,-44.50604940349521,131.166809,140.7564951839117,0.0,131.166809,0.3671102388078758,0.07410116,0.32906422,0.86686552,1.0,0.0,0.0,0.0,136.92498352271468
0.8113,614.4689,-2.669976532836687,3.2336881240448765,-4.5119799210334115,-0.21321586344144772,0.00497933190799249,2.707826436318509,0.04297734060828162,25.366607146410786,-44.275984586453504,135.147339,144.1879666572775,0.0,135.147339,0.3388490462305182,0.06990876,0.3307083,0.87802398,1.0,0.0,0.0,0.0,140.38646547884244
0.8317,614.4889,-3.8426970583895725,2.7631717955636343,-4.440725314982156,0.046746250551649604,-0.1499876228814836,2.600897982570366,-0.9660487691770641,26.07547092444125,-43.91707998799687,139.126068,147.44846060019069,0.0,139.12606800000003,0.3116835030730197,0.06870062,0.33044365,0.88822329,1.0,0.0,0.0,0.0,143.67856894705145
0.8506,614.5097,-4.8601250822022575,2.2574272089741285,-3.9546309149490906,0.3793616818665606,-0.3164015907046729,2.3524654332962713,-1.8378453455965236,26.89045022017032,-43.41079459089018,142.912369,150.35898690653536,0.0,142.912369,0.2865879028769214,0.06797012,0.32681084,0.89802122,1.0,0.0,0.0,0.0,146.69242284784394
0.8708,614.5299,-5.679717099967004,1.787435279418589,-3.032394474562513,0.7257966944544605,-0.4479802224912387,1.9552468889627188,-2.667539601443032,27.799724244254442,-42.74652091724337,146.564133,152.99715681702662,0.0,146.56413299999997,0.2632714345476778,0.06865157,0.31926423,0.9077695,1.0,0.0,0.0,0.0,149.47146715285908
0.8919,614.5509,-6.225030548973027,1.4299835638815246,-1.7393445389336684,1.014301548980057,-0.4986462855996485,1.4200316928107446,-3.53781191655753,28.549739514137173,-42.1021261118127,149.925476,155.39221582350208,0.0,149.925476,0.2421878104851165,0.07139893,0.31034753,0.91647786,1.0,0.0,0.0,0.0,151.96859447900562
0.9162,614.5709,-6.412967085324073,1.2015984566804478,-0.20941453928125853,1.1721442582109853,-0.46061847389653837,0.7913269921610613,-4.276119405269107,29.262902900994483,-41.45319194981491,152.746414,157.30606216321658,0.0,152.74641399999996,0.2252173907156334,0.07597819,0.29870766,0.9242717,1.0,0.0,0.0,0.0,153.9686763124149
0.9365,614.5908,-6.170443982088744,1.1746784967303876,1.4249435127784817,1.158403524819937,-0.34883310110818855,0.14771687997106656,-4.633874198502157,29.868298176035715,-40.914759664456774,154.327942,158.19961115892514,0.0,154.327942,0.2176892149883714,0.08424141,0.28615156,0.92931807,1.0,0.0,0.0,0.0,154.8533087379247
0.955,614.6109,-5.581625180852294,1.2607716329625562,3.0364333270531514,0.9755534429156422,-0.1810790228343251,-0.4256234352543429,-4.6615408059057515,30.277194401612277,-40.57269649790108,154.731842,158.13206222172593,0.0,154.73184200000003,0.2188371974821488,0.09477302,0.27445769,0.93155855,1.0,0.0,0.0,0.0,154.71850961029875
0.9731,614.6309,-4.78340250451361,1.2916678958893275,4.528076210890671,0.6537054394080243,0.02453180056775439,-0.8826008533945053,-4.678917029327435,30.49617078202762,-40.397863834335936,154.442917,157.49587270136283,0.0,154.44291699999997,0.2252540521293102,0.10761089,0.26469997,0.93145823,1.0,0.0,0.0,0.0,153.9643644269518
0.9921,614.6509,-4.005045458547292,1.147313182342641,5.738412897623112,0.23922161999554017,0.24858793371701365,-1.2180593492304725,-4.783347313705729,30.549193266470603,-40.369785476353265,153.853165,156.64254008572837,0.0,153.853165,0.2333016243015453,0.11952499,0.2572248,0.93011802,1.0,0.0,0.0,0.0,153.01693907542162
1.016,614.6719,-3.4551509985884694,0.8511524201167013,6.466153739120255,-0.19902662550168387,0.45156354153852746,-1.4591747986161379,-4.670116823794427,30.43804499085534,-40.52171473499237,152.796463,155.46810418480908,0.0,152.79646300000002,0.2433463611576962,0.12669401,0.25229782,0.92794234,1.0,0.0,0.0,0.0,151.83174029496215
1.036,614.6918,-2.9020313043237476,0.5483001251988657,6.612963196970533,-0.6015480157123354,0.5767378758346293,-1.6335597704902827,-4.617062757585533,30.042804382002217,-40.88857857838032,151.21489,153.95470741252223,0.0,151.21488999999997,0.2574418201998574,0.13614011,0.25378811,0.922378,1.0,0.0,0.0,0.0,150.16335443424552
1.0596,614.7119,-2.277084721212911,0.26729640664572507,6.1784392636775145,-0.9021596085252619,0.5837703496714507,-1.7501618479430276,-4.72580027814282,29.389999964981303,-41.39799578782082,149.243454,152.24015787477313,0.0,149.24345400000004,0.2747182471006493,0.14906821,0.26210201,0.91302305,1.0,0.0,0.0,0.0,148.10955152277756
1.0838,614.7319,-1.802351926045663,0.052234228073296585,5.339171442111708,-1.0460236772209024,0.45517342959518503,-1.84073087641345,-4.660448567241268,28.433160043407447,-42.0766346057052,146.977127,150.55529677994744,0.0,146.977127,0.2919698552547001,0.15686853,0.27552533,0.90234786,1.0,0.0,0.0,0.0,146.04814950519162
1.0966,614.7519,-1.3515561443721071,-0.10516084146576432,4.4306024589540485,-1.065589128785396,0.24955405128602204,-1.9214054265253329,-4.3619374565564115,27.612016458456267,-42.6165958001927,144.431122,148.73514890400418,0.0,144.43112199999996,0.3098232616037812,0.16217117,0.28863648,0.89129066,1.0,0.0,0.0,0.0,143.90284051838884
1.1167,614.7719,-0.7762876465184863,-0.19480665718211565,3.680227072954658,-1.0608682887954757,0.06128733492928734,-1.9987476393934678,-3.849981837335445,27.35719492591864,-42.77630938290095,141.848602,146.7100500908439,0.0,141.84860200000003,0.3278619472869543,0.16737175,0.29636672,0.88128316,1.0,0.0,0.0,0.0,141.7218886695976
1.135,614.7918,-0.13210895217433283,-0.15088258538438293,3.109245412150017,-1.1306608831851035,-0.03764644231765729,-2.0714841467611467,-2.8843953533073723,27.596288610104686,-42.66179472384776,139.137131,144.35426127450106,0.0,139.137131,0.3461967415356601,0.1686698,0.29765713,0.87355512,1.0,0.0,0.0,0.0,139.49026711395143
1.1522,614.8119,0.514037346257247,0.023381262240824263,2.566082475247171,-1.3528955403235494,-0.017214878664137456,-2.10679286122012,-1.496278410519981,28.00687841652666,-42.472845405816,135.804901,141.28678698578372,0.0,135.80490099999997,0.3687014966223843,0.16893186,0.2957443,0.86490262,1.0,0.0,0.0,0.0,136.72888502357944
1.1735,614.8319,1.1406819354805062,0.15449698445675963,1.737661943319111,-1.7445641823614106,0.10510049885600439,-2.062726486920609,-0.5190906843096919,28.419314746047583,-42.287143090028394,132.247391,137.90048871572458,0.0,132.247391,0.3939693778269219,0.17731012,0.2960341,0.85188794,1.0,0.0,0.0,0.0,133.59657542474068
1.1921,614.8519,1.3661351653208147,0.23542448982654252,0.3607974819898381,-2.157422619035639,0.2033030318648394,-1.9901035491503585,-0.16834584852707124,28.18696668517898,-42.56000441443525,128.891586,135.4156711111591,0.0,128.89158599999996,0.4139457670880404,0.18100551,0.3056289,0.83813894,1.0,0.0,0.0,0.0,131.09411210859884
1.2187,614.8719,1.1366511427876325,0.09230752265969411,-1.5414200200882249,-2.417943375672167,0.19983171416109063,-1.972011425496211,-0.10861848933414464,27.31560448470507,-43.25974426030811,125.260674,133.6748087849355,0.0,125.260674,0.4300737662595827,0.17612186,0.32360941,0.8241933,1.0,0.0,0.0,0.0,129.05551675016133
1.237,614.8919,0.7177296907588411,-0.4641092017428132,-3.6211956373744965,-2.413926959604264,0.0986155989640638,-2.0204679134263857,-0.04813699121498871,26.342758817723116,-43.9822328657543,120.766556,131.6862122646903,0.0,120.76655599999998,0.4483812618851279,0.17113829,0.34450081,0.80683649,1.0,0.0,0.0,0.0,126.72025053131102
1.2538,614.9119,0.2876900655992398,-1.2792908159298095,-5.364530135087822,-2.1217651923817993,-0.13133913760674076,-2.1143244386511073,0.14195514226350525,25.492396426625987,-44.5672038318349,115.471359,129.31518363904934,0.0,115.471359,0.4689737178815577,0.16694681,0.36519417,0.78665471,1.0,0.0,0.0,0.0,124.06460211017067
1.2752,614.9319,0.00824883308603197,-2.047378516771848,-6.401914664553802,-1.6243977493009312,-0.48076329297577813,-2.2159201183158164,0.48205039053679855,25.131587704348313,-44.8065906456403,110.26252,126.749307537673,0.0,110.26252,0.4892527087752828,0.16318604,0.38071495,0.76750129,1.0,0.0,0.0,0.0,121.41704776163344
1.2928,614.9529,-0.005327949926221542,-2.4885992838780338,-6.675504002441068,-1.0642922730707673,-0.858913565489031,-2.2935968968974665,1.3167558742012169,25.456842231935994,-44.58868317609321,105.610184,123.49770648232452,0.0,105.610184,0.5110095268015714,0.1593664,0.38568154,0.75147945,1.0,0.0,0.0,0.0,118.53780552602848
1.3148,614.9729,0.29549252139807347,-2.5249953700571375,-6.339486315161496,-0.5948240257698361,-1.170186933326081,-2.2991257999619563,2.4456189962983217,26.157374076118842,-44.067584529345865,101.933136,119.88091952828954,0.0,101.93313599999999,0.5326042687833163,0.15348133,0.38134986,0.73983002,1.0,0.0,0.0,0.0,115.6368315258966
1.3468,614.9929,0.7771304686133134,-2.3665905298786245,-5.623539283858767,-0.3533766690165253,-1.3054623257571782,-2.2056302532356753,3.8722541381519484,27.193615449349153,-43.23670275240251,98.729836,115.30655552357173,0.0,98.72983599999998,0.5578201255465451,0.15183905,0.3674221,0.72854829,1.0,0.0,0.0,0.0,112.18964289255878
1.3639,615.0129,1.277498341925064,-2.2724791922912853,-4.707572269361711,-0.35442941411221873,-1.2463302664878007,-2.0266323453280672,4.93842014958193,28.09378476432637,-42.45032647419423,95.828094,110.67645115600783,0.0,95.82809399999996,0.5824204139100537,0.15423167,0.35175785,0.71642548,1.0,0.0,0.0,0.0,108.75807529615255
1.3837,615.0339,1.633828469250545,-2.237142078276272,-3.7106806030736266,-0.4507305957162897,-1.0364847760473737,-1.8235657408909485,5.251297513690339,27.893562701823825,-42.4686640511544,92.780563,107.21359352452374,0.0,92.78056300000003,0.6020182000552254,0.14892609,0.34566456,0.70420957,1.0,0.0,0.0,0.0,105.97084453397572
1.3984,615.0539,1.7608731151905443,-2.2369754706688703,-2.7551978260811847,-0.46245946972736984,-0.6737532553231705,-1.731164145356364,5.081075739397317,26.92157748002246,-43.04895789237733,90.023964,104.96116219775487,0.0,90.02396399999998,0.6163754085734903,0.13503589,0.3462975,0.69420797,1.0,0.0,0.0,0.0,103.89614391717012
1.4203,615.0739,1.6814144505744313,-2.2857327131836485,-1.8663273390806836,-0.2729211155704816,-0.17798587178302921,-1.8343707238759377,4.95047924746909,25.59273747647274,-43.785892591478465,87.182945,102.86415566504486,0.0,87.18294500000002,0.6300709707624543,0.11934651,0.34948081,0.68310332,1.0,0.0,0.0,0.0,101.88928235135408
1.4364,615.0939,1.4680415322462657,-2.4201878926360356,-1.002142789369314,0.14581385582033035,0.3734771021929904,-2.1173530023999563,4.986157701008935,24.41131122777244,-44.329863516737106,84.21418,100.42312502990976,0.0,84.21418,0.6447522117755411,0.10950147,0.35230938,0.66946405,1.0,0.0,0.0,0.0,99.70580059568435
1.4772,615.1139,1.2443463042917768,-2.660024017581879,-0.17886517886546294,0.6821128666583863,0.8469502719937902,-2.4821207266533056,4.78255474584396,23.71378127262552,-44.57486081554438,81.514473,98.07959978277361,0.0,81.51447300000001,0.6574287369510392,0.11047211,0.35525146,0.65527076,1.0,0.0,0.0,0.0,97.79186554849649
1.4806,615.1339,1.1396659081241207,-3.1279121919973973,0.4234777777236651,1.1180035585542099,1.1367269315441215,-2.7719029442393186,3.9682469897180894,23.9405748287281,-44.38155692369551,79.74971,96.29065345642374,0.0,79.74971,0.6646420268171138,0.12670527,0.35703206,0.64399135,1.0,0.0,0.0,0.0,96.69026294649007
1.5016,615.1539,0.9477411464044154,-4.08268103107193,0.5459619620560154,1.3570358912293141,1.1650352951383298,-2.7795043136610147,3.777611371192709,25.59692673655717,-43.35671586876984,77.897682,92.18030320478037,0.0,77.89768200000003,0.6770347440838901,0.16627683,0.34689733,0.62740594,1.0,0.0,0.0,0.0,94.77528041973682
1.5132,615.1739,0.46470087584094166,-4.631202267896283,0.5045010604889235,1.3951732872900213,0.7181308483320198,-2.4664519507534166,4.540101464743408,25.426142831870173,-43.349727908610106,73.664223,86.20616821146719,0.0,73.66422299999999,0.6970418753894708,0.19352578,0.34235272,0.59956235,1.0,0.0,0.0,0.0,91.61969512975463
1.5336,615.1939,0.12663306257873552,-4.675217239147899,0.5465957999210715,1.2273821736036243,-0.013159891499345044,-1.8595136059701858,4.649499717838204,24.142957996811354,-44.09953945641611,69.597336,81.79017909708666,0.0,69.59733599999998,0.7111374539075417,0.20734939,0.34620738,0.57569975,1.0,0.0,0.0,0.0,89.34492556212459
1.5584,615.2139,0.12109534356726481,-4.5205339984426685,0.7095708498929483,1.0049790652740371,-0.7812060317789224,-1.1004993108105492,4.578307026097757,23.586469579729727,-44.47950438655279,68.64991,79.99518150532344,0.0,68.64991,0.7163933579493963,0.21387973,0.34268188,0.56886303,1.0,0.0,0.0,0.0,88.48498684346859
1.5818,615.2339,0.3702678737071796,-4.079858064963844,1.0618800714579102,0.8120792581549208,-1.4881435279331876,-0.4067560862493436,5.182175837379333,23.053677029806185,-44.76659079527913,68.988274,79.22047597363593,0.0,68.98827399999999,0.7220559399260625,0.20921585,0.33172706,0.56993079,1.0,0.0,0.0,0.0,87.55103089426794
1.5954,615.2539,0.5487381001150569,-3.4748802429937715,1.4382685451231136,0.7032550948448348,-2.0285129901891517,0.08064136016984236,6.778135251986868,22.453426089923575,-44.906144067695195,70.097374,78.92664279780693,0.0,70.097374,0.7304299952397475,0.19264908,0.31169456,0.57637215,1.0,0.0,0.0,0.0,86.1550916174871
1.6164,615.2739,0.8053092150288546,-2.6817993741169026,1.664091661749712,0.8019393160824957,-2.378027066136042,0.34349822099605276,7.320687951703134,21.411321789013776,-45.329980876833005,72.103462,80.95581613500289,0.0,72.10346199999998,0.7300294942437285,0.16659056,0.30032006,0.59085733,1.0,0.0,0.0,0.0,86.22226656530708
1.6355,615.2939,1.0895232744136756,-2.1994194912587575,1.672054111004904,1.033140391573465,-2.6398027154636154,0.4016009842930959,7.290054309155263,21.08098315864178,-45.430675529172106,73.835365,82.02482413630827,0.0,73.835365,0.7291830356278428,0.15354364,0.28752548,0.60170221,1.0,0.0,0.0,0.0,86.36410258754705
1.6687,615.3139,1.4554914134093857,-1.8682199749327715,1.7761938981970378,1.2748482113322308,-2.8516182125601155,0.45252246378575367,7.276626694094201,20.864092542649633,-45.400856230893986,74.713188,81.8419819099229,0.0,74.713188,0.7324265685264945,0.14669223,0.27216288,0.60659713,1.0,0.0,0.0,0.0,85.81958106633964
1.6751,615.3339,1.863799105502041,-1.4119110427575814,2.2536573470773735,1.378409208608652,-2.931578985010143,0.6710763888626188,7.735070884066005,20.550412051237025,-45.263787032451,75.456383,81.30440493898871,0.0,75.45638300000002,0.7382388494262202,0.13682972,0.2511712,0.61089611,1.0,0.0,0.0,0.0,84.83678424573327
1.6956,615.3539,2.0861736951405634,-0.9456691036979634,3.198654055248795,1.1759436153075327,-2.754185944131287,1.0221132329899194,8.790946371677599,21.153081786372137,-44.53692164000155,77.208923,81.07021149445147,0.0,77.20892300000003,0.7426575262640154,0.12850322,0.21630557,0.62061149,1.0,0.0,0.0,0.0,84.08341841942897
1.7159,615.3739,1.8888487768964457,-0.40367454342152853,4.478764991292735,0.6260922621276814,-2.211496705844866,1.4313826284858244,9.645986198858738,22.12057787115266,-43.627147492225745,80.263306,82.49108349151561,0.0,80.263306,0.7388985511140042,0.1165318,0.17763022,0.63945037,1.0,0.0,0.0,0.0,84.72465327456479
1.7362,615.3939,1.358474273276241,0.2530114256111186,5.591317456139599,-0.2023339157681751,-1.324236913419639,1.8042330399925646,9.556142048732266,22.217155751138407,-43.38987109433828,83.60537,85.29484255115906,0.0,83.60537,0.727227988396606,0.097629,0.15302481,0.6619603,1.0,0.0,0.0,0.0,86.6909857209948
1.7559,615.4139,0.8975151761196694,0.8726417205921193,6.011674962546255,-1.1207560306437898,-0.23245058462090779,2.0593495486351214,8.44009960976416,21.02247470220042,-44.086741734597766,86.199623,88.25541879856839,0.0,86.19962299999997,0.713106930105688,0.0767979,0.15141335,0.68018717,1.0,0.0,0.0,0.0,89.02346146558565
1.7799,615.4339,0.6905656940211573,1.1686955820953615,5.61552619296536,-1.8847909233573108,0.8645115212280394,2.192741983186168,6.748104732946485,19.35885542598906,-45.099999993985556,87.7146,90.60023219374911,0.0,87.71460000000002,0.7008017591947979,0.06256589,0.16667551,0.69078338,1.0,0.0,0.0,0.0,91.01727060311549
1.7983,615.4539,0.5818596633353339,1.3115928350676036,4.597874086504945,-2.3282684046026496,1.773156144975657,2.230045310541917,4.446060485951417,17.535606654832055,-46.18327258138369,89.159172,93.55448089593865,0.0,89.15917200000001,0.684210078471261,0.05228018,0.19681828,0.7002756,1.0,0.0,0.0,0.0,93.6529681547062
1.8285,615.4739,0.26242096231268963,1.3359337216771106,3.291171518828122,-2.4299573838993336,2.3493097085178674,2.1487353515898806,2.0940453351740658,15.828874153512388,-47.111452375455414,90.948502,97.5326830211762,0.0,90.94850200000002,0.6613081245549177,0.04231799,0.23462547,0.71121842,1.0,0.0,0.0,0.0,97.20057146147583
1.8453,615.4939,-0.3596378600645549,1.0640843844545236,2.041431496845007,-2.1948607893396197,2.5559576739673258,1.9826933258887913,0.448760257959389,14.93136542422426,-47.68036309384958,92.485207,101.38883299713245,0.0,92.485207,0.6387693597380643,0.03618675,0.269144,0.71987897,1.0,0.0,0.0,0.0,100.59977030682863
1.8574,615.5139,-1.0569016245892326,0.6089881199076814,1.1086321998863848,-1.674660789009411,2.4131201788066523,1.8108742696281246,-0.6030698014517704,14.93697272598091,-47.96583324128226,93.408051,104.59330945745342,0.0,93.408051,0.620132282345628,0.03757723,0.29892293,0.72434038,1.0,0.0,0.0,0.0,103.34840985050387
1.8791,615.5338,-1.3059150183816062,0.1686221081457025,0.6844925795344103,-1.0061451572135804,1.9558713865170383,1.7083495263594677,-2.256195744518127,15.637112475096389,-47.99996854202924,94.711617,108.48476849158955,0.0,94.71161699999999,0.5977127237450865,0.05056493,0.32890505,0.72938615,1.0,0.0,0.0,0.0,106.58748282363784
1.8946,615.5539,-1.071257270703251,-0.1911757771454221,0.7256853266396224,-0.3614203753342855,1.3384586752748437,1.6712817197915282,-2.825389966791466,17.259175861570682,-47.70099918131987,96.35289,111.50089559782855,0.0,96.35289,0.5801319655184808,0.06565828,0.34419543,0.73529953,1.0,0.0,0.0,0.0,109.08035014893998
1.9151,615.5749,-0.4688041757414503,-0.18802897069579005,1.0285957397662528,0.1217663115694948,0.8067021890483117,1.70105944731773,-1.5067106384984577,18.76746590661532,-47.435836932777526,97.813591,112.96529202392327,0.0,97.81359099999997,0.5708640641720002,0.06817654,0.34530652,0.74177462,1.0,0.0,0.0,0.0,110.3789968430159
1.9353,615.5949,0.4301299878005196,0.35993211803339953,1.3671913310429478,0.41324714398086027,0.565067260114531,1.8000123322333796,0.06074121955523637,19.737739813143133,-47.26150233366404,99.837341,114.58734413738209,0.0,99.83734099999998,0.5596916323727431,0.06131915,0.34263796,0.7520535,1.0,0.0,0.0,0.0,111.93105050083926
1.9598,615.6149,1.347503386405183,1.469446084603117,1.4413781080783572,0.508547358152803,0.6828025945325924,1.9106010119591375,0.7335323903791497,20.379696296777006,-47.14752251158066,102.731079,117.11438657448625,0.0,102.73107900000002,0.5421100054653154,0.05389564,0.34125215,0.76600194,1.0,0.0,0.0,0.0,114.34521620074345
1.9787,615.6359,1.8846199491927291,2.715325730814179,1.041621305724295,0.3772560941009303,1.0511247340685586,2.006585496303888,0.9021216096013625,21.449278324773466,-46.831608717074886,106.120918,119.62085629779067,0.0,106.12091800000002,0.5239739595613683,0.05306654,0.3350724,0.7812565,1.0,0.0,0.0,0.0,116.80160726594153
2.0028,615.6569,1.9184357541572377,3.7692814118775058,0.048415117342829106,0.0428258982594345,1.532738905636312,2.0894547301356594,0.33752318515734103,22.433656098315097,-46.554809183778644,109.862236,122.6035062379157,0.0,109.862236,0.5026823811527414,0.05704096,0.33086026,0.79661047,1.0,0.0,0.0,0.0,119.64475169194036
2.0185,615.6779,1.5590461687421167,4.266740872260082,-1.5337873228380552,-0.3706716080081097,1.962089182774492,2.1765222087922202,-1.0643736458856274,23.030546437541883,-46.4267897108013,113.673943,126.19733108328442,0.0,113.67394300000001,0.478139641777115,0.06707823,0.33390826,0.80956054,1.0,0.0,0.0,0.0,122.87206115708182
2.0433,615.6979,0.9349098242509444,4.086830104195354,-3.486332560540977,-0.6897714577516639,2.236400301252223,2.2582339184616123,-2.620875622636916,22.98049839615426,-46.511176607157466,116.787941,129.79428088601512,0.0,116.78794099999999,0.4549359394868471,0.07960461,0.34535429,0.81696194,1.0,0.0,0.0,0.0,125.87837492218407
2.0991,615.7179,0.15051848403891044,3.3907701324495285,-5.402248099696993,-0.8135192879308387,2.322013238095872,2.2941110166301146,-4.072342662502503,22.397354197366212,-46.70983187875961,119.833038,133.81684425435722,0.0,119.83303799999999,0.4292777808985203,0.0885134,0.36291862,0.82229924,1.0,0.0,0.0,0.0,129.15652993016687
2.1064,615.7389,-0.5830647830602496,2.4824372072550167,-6.855505350473469,-0.7121721874657386,2.2330089475772317,2.276491468814707,-5.25825309310429,22.095788716862685,-46.64250306225141,123.70079,138.29565408948727,0.0,123.70078999999998,0.3993353797210318,0.09444249,0.37874913,0.82955468,1.0,0.0,0.0,0.0,132.92672714052998
2.1105,615.7589,-1.0760278030697932,1.82104895413362,-7.695980087865521,-0.40132042630632825,2.0890939910052855,2.1823773713553303,-5.807607492564493,21.760592598657944,-46.57125679123509,126.935188,142.23739088873396,0.0,126.93518799999998,0.373098050562169,0.0987107,0.39542264,0.83348364,1.0,0.0,0.0,0.0,136.18638112889377
2.1216,615.7789,-1.3388076404231972,1.6449894170283477,-7.915591406484469,0.03029614792438451,1.8995394720132508,2.0949392895143104,-5.923174311467058,22.371881210024647,-46.092523300507494,130.400589,145.5338234768336,0.0,130.40058899999997,0.3515786560628318,0.10929997,0.40433261,0.8372342,1.0,0.0,0.0,0.0,138.8321935844798
2.1483,615.7989,-1.5132460164827635,2.0274216704202233,-7.672362699664893,0.44854569869016697,1.7102670595410296,2.0197671150790106,-5.87177929382489,23.2585020232549,-45.51922443457237,134.239838,148.65695217081938,0.0,134.23983799999996,0.3309412244571668,0.1212322,0.40939757,0.84153092,1.0,0.0,0.0,0.0,141.3481721327561
2.1587,615.8189,-1.7583487565003053,2.8642614362365726,-7.060620622801697,0.7574085184809449,1.5635024244015239,1.946986680684997,-5.778604676319734,23.980565197209316,-45.0533974248647,138.441589,151.80923295577645,0.0,138.44158900000002,0.3087058301441064,0.13001485,0.41260886,0.84708369,1.0,0.0,0.0,0.0,144.03748978034346
2.1816,615.8389,-2.173433709742797,3.928421402519835,-6.087393039127168,0.91000114442959,1.4754829078669005,1.862603993995694,-5.744081567044731,24.731276541612093,-44.55063208380568,143.114777,154.93136122818967,0.0,143.114777,0.2851016384692931,0.1375411,0.41171008,0.85457259,1.0,0.0,0.0,0.0,146.87015179944373
2.2119,615.8589,-2.7495563865840076,4.857488086751914,-4.795158820785599,0.8907485226216943,1.4486291150980795,1.7529677794032443,-5.917073956841742,25.787545293990256,-43.77966502713878,148.342834,158.0306546984426,0.0,148.34283400000004,0.2608960077641951,0.14828379,0.40462571,0.86384213,1.0,0.0,0.0,0.0,149.75353058283278
2.2282,615.8789,-3.4400984811218644,5.1761501981953835,-3.321009579363933,0.7164028325910979,1.4786838331915724,1.631912993533514,-6.512106387176749,27.40914368188903,-42.45804660192441,154.391769,161.3922612334183,0.0,154.391769,0.2340014682194275,0.16467986,0.38926485,0.8755551,1.0,0.0,0.0,0.0,152.93445987629957
2.2408,615.8999,-4.284419762500803,4.811749597765928,-2.0792049969501534,0.4515053720054847,1.5877063092079695,1.4848047192645972,-6.75643705164341,28.375328379764607,-41.407299405473665,158.997925,164.1428363280894,0.0,158.997925,0.2122918569111918,0.17902526,0.37688747,0.88365036,1.0,0.0,0.0,0.0,155.48661035758454
2.2642,615.9199,-5.2521377593569145,3.8521601352033743,-1.101775000106791,0.2083359376272848,1.7251439860871898,1.289840512406772,-7.462697948676196,28.3812544083966,-40.76096182013783,163.653687,167.42014362603464,0.0,163.653687,0.1893354748634177,0.19463894,0.37392911,0.88681722,1.0,0.0,0.0,0.0,158.1719883596674
2.2838,615.9399,-6.167401331028711,2.5731254444986966,-0.139556634167338,0.07563052970998262,1.7858457755475976,1.0451766515883287,-8.673809152751325,27.806248943527486,-40.27247232221874,168.826096,171.3122373060419,0.0,168.826096,0.165431422106551,0.21510099,0.3779048,0.88518471,1.0,0.0,0.0,0.0,160.95540486931105
2.3183,615.9608,-6.797147720113284,1.3417446870519898,1.002218614065205,0.08740512057940059,1.683372447577613,0.7717295562659754,-9.901398571134168,27.315603505844493,-39.613838862716875,173.894592,175.1542746836038,0.0,173.894592,0.1455555251328495,0.24215919,0.38183933,0.87998366,1.0,0.0,0.0,0.0,163.26110052977137
2.3208,615.9809,-7.084442931548641,0.3992743200014397,2.187529616322232,0.1935534131956665,1.4013328763957125,0.48402700381540514,-10.671011345755861,27.06630588322628,-38.888247168275825,178.02626,178.3850125389783,0.0,178.02625999999998,0.1312045071511877,0.26887819,0.38334703,0.87380487,1.0,0.0,0.0,0.0,164.92159657535555
2.3404,616.0009,-6.938391268247851,-0.24802839928578457,3.21042505837106,0.3318093284902918,0.9977948932847661,0.18779214711016123,-11.085276910761962,27.054680284582176,-38.17355834832793,-178.768784,-178.95534754667898,0.0,178.768784,0.1204086943413761,0.29249525,0.38233605,0.8681978,1.0,0.0,0.0,0.0,166.1686198614686
2.3629,616.0209,-6.4165861453622925,-0.6627908965967375,3.9161740220367935,0.4497174315673341,0.591235949083856,-0.12419247896185709,-11.036471415365437,27.16832994004529,-37.63299799205833,-176.835556,-177.22280516323212,0.0,176.835556,0.114114705558468,0.30991101,0.37943122,0.86427134,1.0,0.0,0.0,0.0,166.8948694665242
2.3861,616.0408,-5.686019111353531,-0.9057263175163275,4.363300564375493,0.506129042944568,0.3100735182267813,-0.45926439992294454,-10.470598251280661,27.318491655112737,-37.35141556376899,-176.347443,-176.71173098250628,0.0,176.347443,0.1133773982224733,0.31971827,0.37509537,0.86268723,1.0,0.0,0.0,0.0,166.97991059474725
2.4006,616.0609,-4.831016246379884,-1.0720793968039555,4.774153492980947,0.4644088444602842,0.23756656070133797,-0.8212475551326346,-9.751029665577779,27.58146776344165,-37.15106739868263,-176.725754,-176.98384521156015,0.0,176.725754,0.1158103624057856,0.32542562,0.36874521,0.86296761,1.0,0.0,0.0,0.0,166.69926458633788
2.4208,616.0809,-3.8220073524165556,-1.2131253557427337,5.27959664353634,0.2963394706241097,0.37869481264440963,-1.1995498505299635,-9.210326075087359,28.01165086194917,-36.89795901105441,-177.456192,-177.58304431118657,0.0,177.456192,0.120997660124676,0.33345833,0.36040309,0.86271358,1.0,0.0,0.0,0.0,166.10063227160884
2.4436,616.1009,-2.698863337620527,-1.3885634768692023,5.773026582978016,0.01194476980163494,0.67954543221694,-1.559709335365049,-8.764422737284145,28.487876505646128,-36.7092405128346,-178.578186,-178.59653213821522,0.0,178.578186,0.1307623557320248,0.3450692,0.35182372,0.86026073,1.0,0.0,0.0,0.0,164.97270370680147
2.4618,616.1219,-1.5782896675825566,-1.7123440526807023,6.038741370227921,-0.3323796296609002,1.07062720253719,-1.8718297608191796,-8.272824564986122,28.9343058127231,-36.66310013943008,179.901566,179.89861068140812,0.0,179.901566,0.1453712566726921,0.35928243,0.34427813,0.85513502,1.0,0.0,0.0,0.0,163.28244314781202
2.4827,616.1429,-0.5726418195643899,-2.143916950484596,5.9139451223579,-0.662149969146663,1.4688082155661457,-2.13554427165354,-7.759152761074226,29.188072732311653,-36.83241660601657,178.219116,178.0757593939233,0.0,178.21911599999999,0.1648008133887064,0.37716141,0.34002042,0.84556258,1.0,0.0,0.0,0.0,161.02867297494907
2.5053,616.1629,0.2561677282674108,-2.538176779925502,5.36030577689437,-0.9387479370505115,1.7627668441539783,-2.3602134034417355,-7.721291502557074,29.119640242626424,-37.151137533755396,177.532806,177.2265243391971,0.0,177.532806,0.18040364905917,0.39493141,0.34240174,0.83321351,1.0,0.0,0.0,0.0,159.2134558051375
2.5255,616.1829,1.0509310067704836,-2.622448652309844,4.481677123991858,-1.129958191354238,1.8595440275455506,-2.523427323520785,-7.903027263053062,28.87249318331307,-37.52115084393652,177.338257,176.84422565578822,0.0,177.338257,0.1981144874598249,0.4180063,0.34861997,0.8151598,1.0,0.0,0.0,0.0,157.14655799016097
2.5508,616.2029,1.8294742552249623,-2.34395319647449,3.3983701381904687,-1.236006858425334,1.7307547304188224,-2.5680749170720873,-7.846989899467067,28.761258238261174,-37.80767755245882,176.881195,175.98099773513601,0.0,176.881195,0.220870613346986,0.44511175,0.35335451,0.79261106,1.0,0.0,0.0,0.0,154.4796531200781
2.5814,616.2229,2.4569986959255083,-1.8306144269788645,2.191096663263016,-1.3049315615956694,1.4184379182316562,-2.459702278384749,-7.245841333681891,28.959861024989024,-37.9906080030979,175.636261,173.7878689066455,0.0,175.636261,0.2458667923210609,0.4681876,0.35388732,0.7714361,1.0,0.0,0.0,0.0,151.53387152710573
2.5864,616.2429,2.8172108342253868,-1.2761854083757456,0.894290881227704,-1.3993563048396938,1.0303913192619696,-2.2176641476436956,-6.225204307439113,29.47367206268807,-38.06539365773343,173.649704,170.07110321902772,0.0,173.64970400000004,0.2693839910213246,0.48360848,0.35069719,0.75535858,1.0,0.0,0.0,0.0,148.74477194882778
2.6046,616.2629,2.7891189288198137,-0.6973200502296049,-0.4066350156639249,-1.5317537661117016,0.6601209550595998,-1.9284501925148085,-5.0256446333034885,29.749200743264186,-38.403336801735605,170.987106,165.253780271528,0.0,170.98710600000004,0.2921724388179959,0.48850191,0.35011017,0.74392474,1.0,0.0,0.0,0.0,146.0238767646239
2.6295,616.2829,2.402558260615778,-0.15512830740975891,-1.5807031705303878,-1.6773413705160338,0.3944712628531709,-1.6644156675334392,-3.926136702519239,29.672191700251627,-39.01791058225602,167.862381,160.14426111751104,0.0,167.86238100000003,0.3148798469511132,0.48634905,0.35348067,0.73441589,1.0,0.0,0.0,0.0,143.29287916255427
2.6452,616.3029,1.80966467432214,0.3200278981374409,-2.4659601709838164,-1.8081261877375132,0.2704582163620884,-1.4673602759628903,-3.1789249385775955,29.50496296393751,-39.639673529659504,164.828751,155.38220751084043,0.0,164.828751,0.3363298952844564,0.48377451,0.35860544,0.72404873,1.0,0.0,0.0,0.0,140.6931430142249
2.664,616.3229,1.1529782039627023,0.7943332153797287,-2.9443466226536614,-1.9035970039532648,0.2607465353055478,-1.3665412143167048,-2.759999281275987,29.345673789355104,-40.16602115812977,162.057678,151.08369937997298,0.0,162.057678,0.3559708962264579,0.48214543,0.36476165,0.71257943,1.0,0.0,0.0,0.0,138.29407980213674
2.6849,616.3429,0.573000938220546,1.272200159921074,-3.0411982690987287,-1.9631235086039496,0.3376047581946067,-1.3730270999329885,-2.4779185481009787,29.34230552103229,-40.48031649155722,159.493057,146.86817813830166,0.0,159.49305700000002,0.3738411059532458,0.48201334,0.37019163,0.70061696,1.0,0.0,0.0,0.0,136.0945915809765
2.7045,616.3629,0.14450260162638107,1.6930610049035755,-2.907569430984541,-1.9910145471259146,0.4883165683163961,-1.4896427992389059,-2.1311042186528226,29.502150113643538,-40.583081905467445,156.904968,142.21068400246094,0.0,156.904968,0.3908540540277213,0.4829739,0.37417039,0.68845177,1.0,0.0,0.0,0.0,133.98469684505704
2.7246,616.3829,-0.15297321912484207,1.9725129339779963,-2.729937391279723,-1.9837713549769591,0.7037977916934767,-1.7167849729734708,-1.6245800611838366,29.662751738972737,-40.60393684619409,153.967484,136.70187157224538,0.0,153.967484,0.4084630507720412,0.48412034,0.37759882,0.67542917,1.0,0.0,0.0,0.0,131.7833548812685
2.7516,616.4029,-0.3745097661935993,1.999225604096353,-2.6388423858091574,-1.935353110263667,0.9702008950491634,-2.0426653893771345,-1.054108472449581,29.850050785401613,-40.54102027151466,150.955124,129.98144647138704,0.0,150.955124,0.4265035333007095,0.48719928,0.3804332,0.66030461,1.0,0.0,0.0,0.0,129.508261326228
2.7631,616.4229,-0.5890875845626826,1.6356609720521158,-2.705860192607986,-1.837730236137301,1.2542419779891416,-2.4410758603720444,-0.5558013044212018,30.302434893668543,-40.24701259841186,148.672485,121.69518130527307,0.0,148.672485,0.4428194725776836,0.49431306,0.38135099,0.64353472,1.0,0.0,0.0,0.0,127.43217314234883
2.7867,616.4429,-0.8348712405736733,0.8555718863985591,-2.978852221621305,-1.6761583638299833,1.4804911293998098,-2.877123388199864,-0.12742557744631533,30.82297977561271,-39.90237540062911,147.069092,110.00338020700433,0.0,147.069092,0.4589355712851195,0.50544327,0.3815504,0.62315691,1.0,0.0,0.0,0.0,125.3631136631622
2.8121,616.4629,-1.1176634920376267,-0.23528969660139132,-3.4065384299480757,-1.4376347271923566,1.5492835976796755,-3.3034827632492028,0.3441468619999615,31.10657630861064,-39.77854817948085,145.551682,90.72795151614861,0.0,145.55168200000003,0.4779169180169377,0.52009499,0.38180196,0.5960905,1.0,0.0,0.0,0.0,122.90111839447046
2.8248,616.4829,-1.4126289841040782,-1.4570910272887339,-3.8445178642324,-1.14084817475197,1.3858370141145024,-3.654300260715998,0.8594450619185388,31.192918468395185,-39.87173763636637,144.167099,64.14696365448037,0.0,144.167099,0.4987849089021525,0.53697103,0.38093811,0.56370372,1.0,0.0,0.0,0.0,120.16071454462516
2.8442,616.5029,-1.6363245900372412,-2.621665087138765,-4.195836635339253,-0.8173986508586679,0.9807940116179963,-3.8644382491663682,1.6466572164443356,31.239672970352782,-40.05450651566706,142.046082,41.35098258613459,0.0,142.046082,0.5208709995564134,0.55352592,0.37553108,0.5303573,1.0,0.0,0.0,0.0,117.21861084576835
2.8642,616.5229,-1.6172910260082545,-3.6627726922662927,-4.453258058753186,-0.5474536615643744,0.3811587307718144,-3.870918274653122,2.4778381989227753,31.33870077721114,-40.23889748017951,139.551422,27.814491172854957,0.0,139.551422,0.5416897013278769,0.56902593,0.36610809,0.49874505,1.0,0.0,0.0,0.0,114.40252324436429
2.8925,616.5429,-1.3483489134552333,-4.610437556875188,-4.6637212567670945,-0.35870294581598466,-0.3385147330198932,-3.63359195865649,3.586392435631325,31.399098362292502,-40.43590832895769,134.095337,21.784553443267974,0.0,134.09533699999997,0.5629575875466243,0.58063692,0.3513138,0.47171828,1.0,0.0,0.0,0.0,111.4788351712091
2.9134,616.5629,-0.9262025026913664,-5.426263449554462,-4.778455286790878,-0.2882678976137637,-1.1275840852189696,-3.1118270686250757,4.818089195998352,30.928708655602993,-40.9641845638776,122.331917,19.81448893765031,0.0,122.33191699999998,0.5875227715318041,0.58474529,0.33488056,0.4480457,1.0,0.0,0.0,0.0,108.03717417076854
2.9355,616.5829,-0.531636022758838,-6.053262715128812,-4.76236951766081,-0.3525711992397991,-1.8784271721542842,-2.3013332647696174,6.119882385041536,30.016225239153435,-41.67620758114121,105.428452,20.34397757005065,0.0,105.428452,0.6145391132338752,0.58108538,0.31671488,0.42938694,1.0,0.0,0.0,0.0,104.16312186713242
2.9526,616.6029,-0.26159577457478655,-6.475211573687108,-4.62692112285619,-0.5468975698930956,-2.4924307208397742,-1.2932797411329746,7.156490132594541,29.106580207938936,-42.25647951873491,91.400513,22.674992112532074,0.0,91.40051299999999,0.6391054716610957,0.57095659,0.29857901,0.42000398,1.0,0.0,0.0,0.0,100.54970185886762
2.9631,616.6229,-0.12945987116247237,-6.700538030984636,-4.316464132887966,-0.8092929064437167,-2.952706570111,-0.2234900323443858,7.674638087716996,28.109844585977523,-42.835517648200735,82.079964,27.258521917205286,0.0,82.07996400000002,0.6600083523583052,0.55038029,0.28545746,0.42424586,1.0,0.0,0.0,0.0,97.39898041384492
2.9887,616.6429,-0.1778103167903753,-6.777522851102,-3.753846122485765,-1.1104891328246649,-3.261823452542739,0.7771244705187919,7.866003239175562,26.68751572615635,-43.61549583020851,75.649879,33.38175641756367,0.0,75.649879,0.6796343585342469,0.51951015,0.27779639,0.43707609,1.0,0.0,0.0,0.0,94.36984573330675
3.0068,616.6629,-0.2621294887417429,-6.7855334986003175,-2.892927033790457,-1.3842483371948657,-3.452935348013118,1.5999154049264843,7.6394651353138485,24.96159027350624,-44.517024419833604,71.662918,40.159928786979535,0.0,71.66291799999999,0.6959736119641938,0.48233122,0.27625978,0.45459637,1.0,0.0,0.0,0.0,91.7902952805264
3.0254,616.6829,-0.06033476467068111,-6.808268767616192,-1.6645416471788437,-1.5270855057941797,-3.5905177132627677,2.1871957386825924,6.901390191290988,23.399401929642895,-45.28756142779948,70.431244,47.70584690802432,0.0,70.43124399999999,0.7050700381992652,0.44307578,0.28010744,0.47759807,1.0,0.0,0.0,0.0,90.32959478489371
3.0446,616.7029,0.5941132251440044,-6.724605306392606,0.10769302360966826,-1.5223478855722656,-3.6440852876063548,2.5804625942891577,6.173041348697211,21.88050948391403,-45.936330572334576,70.339951,55.3021197195655,0.0,70.33995099999999,0.7107116987474292,0.40272996,0.28498527,0.50147867,1.0,0.0,0.0,0.0,89.41429873492802
3.0663,616.7239,1.3876103294125572,-6.121548391378374,2.555014688380446,-1.45656961739388,-3.4854048350110314,2.8405836749645728,6.531496543401218,19.999785654847805,-46.53462619087112,69.966408,61.83295380113453,0.0,69.966408,0.7209164301701604,0.35702699,0.28374669,0.52182281,1.0,0.0,0.0,0.0,87.73961094249988
3.0845,616.7439,1.916260336275764,-4.768213842665977,5.397782967589778,-1.297058930855855,-3.1021085704399387,2.925493831948258,7.595892679182587,18.522112793698792,-46.8040659149758,71.435089,68.64271441904233,0.0,71.435089,0.7274283225788957,0.30617025,0.27640274,0.54836971,1.0,0.0,0.0,0.0,86.65753541318695
3.1057,616.7639,2.1942875262512542,-3.0384175113306746,8.012839450815804,-0.9855609501411097,-2.5420002184137265,2.7995890523910942,7.6328719240130205,18.324580825846446,-46.727527786959165,75.269539,75.84918315507721,0.0,75.26953900000001,0.7197155795003893,0.2638866,0.27089745,0.58222669,1.0,0.0,0.0,0.0,87.93799370800906
3.1324,616.7839,2.340543978358557,-1.3390608490336666,9.966562438331362,-0.6309480441912462,-1.7948248802514015,2.5325766490244668,6.572584949411436,18.599117054383143,-46.66436863110347,79.458626,82.39197027212802,0.0,79.45862599999998,0.7039993217616288,0.23189299,0.27054083,0.61434376,1.0,0.0,0.0,0.0,90.50248526630497
3.1519,616.8039,2.433716363829813,0.06376707321661179,11.024945577875002,-0.3838627929319084,-0.9134972767819266,2.2423370652643966,5.691733844473454,18.663980028274423,-46.678311696595635,81.794167,86.09796117307191,0.0,81.79416700000002,0.6945086849662848,0.20928057,0.27004412,0.63319468,1.0,0.0,0.0,0.0,92.02384265550042
3.1708,616.8239,2.6810937110168087,1.0653641598276828,11.105338446459736,-0.24572963764295896,-0.041598755275597005,2.0558960230670356,4.942730596258652,19.024479395057764,-46.59093412324996,83.044205,87.77717465617076,0.0,83.04420500000003,0.6894891456762217,0.19930214,0.26854888,0.6424678,1.0,0.0,0.0,0.0,92.82063216882366
3.1901,616.8449,3.0242190100001594,2.13343918751372,10.25153016457896,-0.2357389327694167,0.7242198199746925,2.0339044460334232,3.4674719531672764,19.426722689433607,-46.57963480418675,84.796509,90.24697336143208,0.0,84.79650900000001,0.6781089467401705,0.19619554,0.27489635,0.65276915,1.0,0.0,0.0,0.0,94.60790875193564
3.2131,616.8649,3.203009346045298,2.979072232146235,8.660164130226047,-0.3847111878363598,1.2665009522503692,2.1438322725745143,1.3549413713238785,20.362679151178252,-46.34862157036618,87.896812,93.90820813824429,0.0,87.89681200000001,0.6580099499945434,0.20241222,0.2846531,0.6671018,1.0,0.0,0.0,0.0,97.70344741660361
3.2276,616.8849,3.0695251563555033,3.7470837127413943,6.517044570317179,-0.636125108421334,1.594515504238951,2.2831147396610483,-0.7566119231934536,20.566134819084983,-46.36213411934924,90.915359,98.44884501436088,0.0,90.91535899999997,0.634646132274173,0.20557712,0.30217928,0.68091851,1.0,0.0,0.0,0.0,101.21251260310213
3.2468,616.9049,2.8220867394108957,4.236081012241918,4.046641123923436,-0.8606803401009726,1.7730648217740788,2.3705248443506974,-2.1853708908904714,19.697301284908274,-46.81724891954349,92.488846,102.81449009468128,0.0,92.48884599999997,0.614782573377643,0.20158358,0.32632229,0.68914455,1.0,0.0,0.0,0.0,104.1277532337722
3.2694,616.9249,2.791496054849998,4.249771205321233,1.5698297727811905,-0.9653570087449397,1.8448710950217377,2.425993327266186,-3.2561069748417353,18.765197661270484,-47.31651577315991,93.798416,107.3979140578082,0.0,93.79841599999997,0.594426167776589,0.19691819,0.3518512,0.69575965,1.0,0.0,0.0,0.0,107.05652859005146
3.2847,616.9449,2.965653454048426,3.938914106891118,-0.6439206536268376,-0.96414500387542,1.8590326078683774,2.4913366046419823,-3.5123672116004094,18.75826011803567,-47.55277316611028,95.878517,111.67531390390832,0.0,95.87851699999999,0.574431000818076,0.19335523,0.36833042,0.70496488,1.0,0.0,0.0,0.0,109.88041086446022
3.3063,616.9657,3.3047480118098997,3.6944965416676623,-2.6238498127386967,-0.8902254027095311,1.8975072433053206,2.5929979994050014,-3.344527490190494,19.311818318831122,-47.65284411551158,98.37072,115.68462960798709,0.0,98.37072,0.5547522834845804,0.19039576,0.38015935,0.71517706,1.0,0.0,0.0,0.0,112.61269124128918
3.326,616.9859,3.548353724470857,3.592589135863973,-4.408692402820951,-0.7870689865778832,1.9746596127880787,2.764451411920606,-3.1015565081859506,20.243994819647135,-47.595837335042816,101.298317,119.6397329863882,0.0,101.298317,0.5342815014726411,0.18931304,0.38960981,0.72588432,1.0,0.0,0.0,0.0,115.40960454843096
3.3462,617.0059,3.384954115136007,3.5538942977970436,-5.965848685652784,-0.6845499365200157,2.056252831455873,3.0004713492536297,-2.8400787282669846,21.321169822962325,-47.38295854935582,104.632698,123.62194750796225,0.0,104.632698,0.5127623875997789,0.18955028,0.39761266,0.73691899,1.0,0.0,0.0,0.0,118.30398639384659
3.3681,617.0259,2.6355112298336727,3.477966054883741,-7.191534494902008,-0.6022502849287785,2.075330356698993,3.258433794367735,-2.886893384159805,22.39086201820011,-46.98621359222848,109.188461,128.51646657982062,0.0,109.18846100000002,0.4850318863535277,0.18874219,0.40566081,0.75137192,1.0,0.0,0.0,0.0,121.970876926308
3.3876,617.0459,1.4166407492450719,3.217605698727546,-7.973411384877764,-0.5023152686114261,1.989314634324408,3.4768772575923808,-3.109408459557546,23.452598478045694,-46.37666786597393,114.756233,133.85879709488006,0.0,114.75623300000001,0.4528794724413051,0.18769674,0.4126606,0.76771176,1.0,0.0,0.0,0.0,126.1428429098035
3.4182,617.0659,0.0008447465275758792,2.7377124466447147,-8.265772483192741,-0.3375083420627576,1.7939184334189417,3.5992442173993107,-3.4205462177449704,24.49584286261229,-45.57439974748202,121.035622,139.2853363806024,0.0,121.03562199999999,0.4181530834918536,0.18726146,0.41825676,0.78431016,1.0,0.0,0.0,0.0,130.56392253710246
3.4302,617.0859,-1.332168346674434,2.1914633853315215,-8.13713905871042,-0.052505876489445935,1.6263615728754428,3.5414381599424996,-4.186925911815717,24.21342216717423,-45.317042437479735,126.299896,145.06253690950987,0.0,126.29989599999999,0.3828356957110569,0.1855915,0.43559527,0.79325241,1.0,0.0,0.0,0.0,134.981113674177
3.4546,617.1059,-2.4473253570302993,1.7440650931989092,-7.5525453521492185,0.2812861224770905,1.4201342531922454,3.342556259949335,-4.588024061663006,24.09694843417232,-44.953758701808496,131.810867,150.12396361863546,0.0,131.81086700000003,0.3492590642459461,0.18354322,0.44843131,0.80202204,1.0,0.0,0.0,0.0,139.11599424557582
3.4703,617.1259,-3.339381955174974,1.5758547239808605,-6.61292087918884,0.6171868837202267,1.2179902825733948,3.005364180643344,-4.710762821741197,24.23998471589943,-44.485030741838635,137.571289,154.48743113611334,0.0,137.57128899999998,0.3172098182422451,0.18084595,0.45599255,0.81163013,1.0,0.0,0.0,0.0,143.01145966472097
3.494,617.1459,-4.095421116636501,1.759899929312997,-5.411210759323754,0.9021124965989354,1.0556908118919437,2.5459339940971573,-4.639178684517818,24.660137044677448,-43.9138369634197,143.36972,158.1732619242427,0.0,143.36972000000003,0.2870359113018535,0.17789601,0.45792243,0.82235664,1.0,0.0,0.0,0.0,146.6388334056066
3.5063,617.1659,-4.782384124061513,2.2601995728815405,-4.017765706396472,1.1064490335420296,0.9418115323224246,1.9971372372636198,-4.539844065534078,25.288522287694086,-43.252796177916046,148.974945,161.31069214832016,0.0,148.974945,0.260020429342594,0.17805935,0.45501047,0.83285636,1.0,0.0,0.0,0.0,149.85745129431888
3.5267,617.1859,-5.264244237227909,2.8537995539156356,-2.411607174707105,1.2349201760785669,0.8422191115798424,1.4061001121645875,-5.2050798016749,26.417773215527877,-42.20812560608269,155.880981,164.89140006168418,0.0,155.88098100000002,0.2323764928444175,0.19118823,0.44620305,0.84282327,1.0,0.0,0.0,0.0,153.1259473991722
3.5672,617.2069,-5.5086566889823265,3.401699591267309,-0.8315285709558182,1.2543718989669936,0.7534613311324065,0.8556997806275712,-6.010047361506102,27.385659179063424,-41.20043917733591,162.073029,168.20239306245637,0.0,162.07302900000002,0.2084835219189486,0.2088535,0.43582758,0.85027593,1.0,0.0,0.0,0.0,155.93300490352357
3.5716,617.2269,-5.487935518220917,3.890449480275112,0.503697380557643,1.2036272285542102,0.640965446911035,0.41840470050788603,-6.442478737753074,27.92526779303419,-40.4912303183182,166.329712,170.55180491529615,0.0,166.32971199999997,0.1940859564426106,0.22847247,0.42628819,0.85346901,1.0,0.0,0.0,0.0,157.6173346703906
3.5901,617.2469,-5.388359298134246,4.188457569318955,1.5193955546284013,1.1163998850055457,0.5024662047597326,0.12597785692348618,-6.408038295065504,28.252794327379444,-39.983816319300324,168.788269,171.861322851656,0.0,168.788269,0.1871337174763612,0.24566497,0.4159902,0.85532558,1.0,0.0,0.0,0.0,158.42888346251155
3.6097,617.2669,-5.412625087769392,4.0537938077255,2.3000864776355883,1.0008686570671537,0.368029030498599,-0.05818114030616303,-6.399012161408209,28.74726295796542,-39.34195889181527,170.751068,172.92088027401425,0.0,170.75106800000003,0.1792672175028746,0.25895613,0.40273869,0.85942221,1.0,0.0,0.0,0.0,159.34583956776333
3.6367,617.2869,-5.506827567408731,3.507473685829755,2.869643604313403,0.8577346720153931,0.2536227371849973,-0.21057542110285069,-6.618938848207294,29.299295676751324,-38.61234210761796,172.625839,174.04984418724575,0.0,172.62583900000004,0.1704240106584757,0.27200955,0.38893402,0.86353737,1.0,0.0,0.0,0.0,160.37505432142416
3.6517,617.3079,-5.617278934696292,2.723083935420366,3.1766500223833916,0.6974280188825616,0.17015582314149874,-0.38329185260909693,-6.754806799046596,29.60930196988213,-38.09452556471735,173.853485,174.8206312126442,0.0,173.85348499999998,0.1650848339028655,0.28412798,0.37786135,0.86558598,1.0,0.0,0.0,0.0,160.9956746475247
3.6702,617.3279,-5.726988869141189,1.8168216222104476,3.3063979388715055,0.5421091336567718,0.12736737464116088,-0.6015485321460915,-6.647409795308729,29.683547964627337,-37.84311132599094,174.272354,175.01276422348485,0.0,174.272354,0.1643645684758432,0.29385442,0.36959678,0.86604393,1.0,0.0,0.0,0.0,161.0793540837071
3.6932,617.3479,-5.712283887681134,0.8637672049901379,3.4848944658079652,0.4026329265049173,0.12128735255535189,-0.8797846450732015,-6.585312478817565,29.757069582912248,-37.63756379755796,174.418243,174.97771749875105,0.0,174.41824299999996,0.1662407691619497,0.30492321,0.36223137,0.86497068,1.0,0.0,0.0,0.0,160.8613582936763
3.7099,617.3679,-5.470472093690376,0.012995624310204512,3.8423812705162046,0.2703967067705501,0.1362541676721163,-1.2187889438133634,-6.73502626495271,29.86340482344424,-37.42697091067843,174.518967,174.8834892763929,0.0,174.51896699999998,0.170095425633025,0.31914204,0.35572556,0.86178607,1.0,0.0,0.0,0.0,160.41326530196517
3.7305,617.3879,-5.04135809352908,-0.5430039310987356,4.3280041983658215,0.13912418611259592,0.16025226781625457,-1.6049329300401503,-6.739024416202357,29.862064691351986,-37.38948472196693,173.957397,174.17909140402077,0.0,173.95739700000001,0.1782135641288065,0.33143607,0.35084128,0.85749662,1.0,0.0,0.0,0.0,159.4685555416617
3.7508,617.4079,-4.356549398062995,-0.7580564660854741,4.8759507270284725,-0.006963222584760537,0.20430001405472564,-2.009514016140413,-6.499607013845189,29.901419341505854,-37.43126978964694,172.586609,172.64696375326892,0.0,172.586609,0.1907750987171522,0.34136993,0.34552556,0.85304368,1.0,0.0,0.0,0.0,158.0039569584828
3.7683,617.4279,-3.4111558981343144,-0.7205181126880476,5.361827787941811,-0.18032536963506607,0.28706676315743085,-2.381555451668085,-5.851020234011038,30.19071825363601,-37.41697353170261,170.159592,169.89191752007682,0.0,170.15959199999998,0.2090426257588049,0.35022023,0.33673176,0.84868056,1.0,0.0,0.0,0.0,155.86749284531345
3.7877,617.4479,-2.1590500680280753,-0.5470181583039775,5.63909838203004,-0.40444958426921696,0.39691689714001144,-2.661466623133503,-5.143588265016165,30.5501852807409,-37.42200493780197,167.240326,166.30412987559902,0.0,167.24032599999998,0.2320535918362931,0.36204079,0.32723397,0.8414247,1.0,0.0,0.0,0.0,153.1639890170326
3.8083,617.4679,-0.7849211877864217,-0.348480139915611,5.534557924846194,-0.6706014036563472,0.5010731531002137,-2.809833017520451,-4.544630054464454,30.685848026778938,-37.64443481679674,164.084854,162.1186648107332,0.0,164.084854,0.2587280274429823,0.37589347,0.32083744,0.82995617,1.0,0.0,0.0,0.0,150.01079764467582
3.8273,617.4879,0.3785656777775115,-0.2568639444227907,4.984520628377815,-0.9450547962910425,0.587661383211465,-2.8293890307949328,-4.026614852043837,30.63479033153879,-38.03403759611787,160.772018,157.5013642107745,0.0,160.772018,0.2864378325763688,0.388275,0.31726161,0.8164196,1.0,0.0,0.0,0.0,146.7103721364757
3.8545,617.5079,1.157290958080564,-0.30044696289827844,4.042631785830338,-1.2161061408594471,0.6530359215527901,-2.754365271952036,-3.656843557016378,30.56475000201679,-38.43258546741434,157.586655,152.83170424492295,0.0,157.586655,0.3124168850096258,0.39872289,0.3154301,0.80244601,1.0,0.0,0.0,0.0,143.59011254915112
3.8675,617.5279,1.57682775290592,-0.36301911778680473,2.7838050728300345,-1.4919787219776672,0.6757758831997631,-2.6264459771303112,-3.4869241094294985,30.435910768030016,-38.87315908763988,154.595795,148.22832520884398,0.0,154.595795,0.3370660028469443,0.40857154,0.31653959,0.78692979,1.0,0.0,0.0,0.0,140.60356083729764
3.8876,617.5479,1.70132038727973,-0.38164840141435263,1.293889813318847,-1.7733954209623353,0.6417390798242564,-2.481209408728062,-3.364440635495921,30.258754798718147,-39.37795618315662,151.49794,143.38643201897497,0.0,151.49793999999997,0.3618285393592679,0.41752553,0.32028797,0.76952463,1.0,0.0,0.0,0.0,137.57492915079877
3.9071,617.5679,1.5951947852983719,-0.40167652367907136,-0.3344015436707224,-2.0552542051163867,0.5528730743633105,-2.347324512580779,-3.1054701338430686,30.202397035285745,-39.84495171595063,148.085495,138.18540062795097,0.0,148.08549500000004,0.386269682462362,0.42410308,0.3244606,0.75210214,1.0,0.0,0.0,0.0,134.55482730970098
3.9305,617.5878,1.3423251618883607,-0.4596306991870587,-2.0218602417241227,-2.327578982887034,0.4033919853223157,-2.2500850268229913,-2.607846852886677,30.16897219095761,-40.345931951206964,144.033081,132.68330111452195,0.0,144.03308100000004,0.4109291840457348,0.42674544,0.32932451,0.73523527,1.0,0.0,0.0,0.0,131.47356387057286
3.957,617.6079,1.0433322902116797,-0.611130706402987,-3.6816684210897552,-2.5727690615467353,0.18160219069198502,-2.1974681714435373,-1.9454679045969456,29.926257431982172,-41.00411098112102,139.058014,127.10618088774685,0.0,139.05801399999996,0.4364464234327835,0.42518738,0.33667684,0.71789896,1.0,0.0,0.0,0.0,128.2452643720985
3.9763,617.6289,0.7767426253974519,-0.9281373833842382,-5.17912827082275,-2.7623617684025747,-0.11188139176037165,-2.181344401741479,-1.0459019510662628,29.37869587032002,-41.82301440418241,132.584641,121.04824868537203,0.0,132.58464100000003,0.4643852110382056,0.42001593,0.34579021,0.69882911,1.0,0.0,0.0,0.0,124.659117562188
3.998,617.6489,0.6180805746920222,-1.4418747213184802,-6.352320515085353,-2.8707603753608164,-0.48391720500858704,-2.188684629872685,0.08360637601321486,28.694591636302796,-42.61186566054221,124.661156,114.95048338073371,0.0,124.661156,0.493047250677795,0.41050807,0.35432899,0.68032235,1.0,0.0,0.0,0.0,120.91786786078124
4.013,617.6689,0.6825772229700164,-2.107846985982009,-7.069147422536421,-2.910164658391797,-0.9347721447830669,-2.1691896513979234,1.1746648931832517,27.84582525174441,-43.34724924911799,115.532776,109.05778890645404,0.0,115.53277600000001,0.521820808063271,0.39802778,0.36319509,0.66133672,1.0,0.0,0.0,0.0,117.09106572307708
4.0296,617.6889,1.0265578310246202,-2.9142555533692143,-7.286262756241517,-2.8971463702423708,-1.4195734205780726,-2.092488694949341,2.2731093802502365,27.20010709694205,-43.79180383514381,106.199692,103.25904560993442,0.0,106.19969200000003,0.5499471794083663,0.38408381,0.36859906,0.64356232,1.0,0.0,0.0,0.0,113.27322133651374
4.0527,617.7089,1.5926451553771535,-3.8654640502558153,-7.001841984434244,-2.848566243016687,-1.8893551137004558,-1.9375955194110774,3.5825565011324088,26.64951329996003,-44.02800615400569,96.904152,97.34257960488634,0.0,96.90415200000001,0.579623301090872,0.36700252,0.3694059,0.6268056,1.0,0.0,0.0,0.0,109.15189598878213
4.0709,617.7289,2.2200281612447683,-4.9820036103409455,-6.237620097324123,-2.760136636964041,-2.3039630563167113,-1.6964836166425614,4.935123902567723,26.147597191116233,-44.11939497390327,88.686577,92.20624959058101,0.0,88.686577,0.609288693930078,0.34535423,0.36663288,0.61243618,1.0,0.0,0.0,0.0,104.92382268434933
4.0888,617.7489,2.694662275952556,-6.181078866542978,-4.9340122144600915,-2.586518590428254,-2.6486466969830067,-1.3699418658252018,6.399189652270977,25.124197081604347,-44.41699701791471,81.260941,88.49723369991655,0.0,81.260941,0.6399303963225309,0.31240013,0.36348221,0.60064626,1.0,0.0,0.0,0.0,100.42674095077938
4.1095,617.7689,2.900968776572765,-7.338208417084843,-3.1388830425051477,-2.3146451745417886,-2.855870564000092,-0.9691433110840657,7.621873652164641,23.737241728286055,-44.877854745201574,75.124695,85.53405152310582,0.0,75.124695,0.669306788419023,0.27399683,0.36111429,0.58868551,1.0,0.0,0.0,0.0,95.97283015137997
4.1361,617.7889,2.880238704319312,-8.148035991061894,-0.8855540815997784,-1.8961157316658905,-2.889922608854484,-0.543480245739622,8.502675490432743,22.070174926267242,-45.472816491636934,70.442345,83.38671112820849,0.0,70.44234499999999,0.6952076085838855,0.23144214,0.36012277,0.57743615,1.0,0.0,0.0,0.0,91.91247352171465
4.1546,617.8089,2.8065143097359515,-8.264564983108762,1.6498029606800948,-1.2850649715643643,-2.734012007386254,-0.1619184846298467,8.938087960440274,20.561956143945196,-46.0032524861505,68.290161,83.05288502644568,0.0,68.29016100000001,0.7125324212298018,0.18455957,0.35884115,0.57399333,1.0,0.0,0.0,0.0,89.11732918319669
4.1741,617.8287,2.6509455894238876,-7.740371059099317,3.996986906127475,-0.6021042478776438,-2.3419303025190867,0.14960176802370867,9.041097872535293,19.763597926489357,-46.2266864649162,68.104744,83.30843215258965,0.0,68.10474399999998,0.722694744080891,0.14365819,0.35320863,0.57647055,1.0,0.0,0.0,0.0,87.44517196223386
4.198,617.8499,2.11723795923959,-6.973808859811536,5.656947159297275,-0.04628770671024912,-1.7521663208603697,0.4355230949018827,9.489172067895003,19.915442918996618,-45.93239938843806,68.424316,82.3260215435851,0.0,68.424316,0.7334558155154542,0.11758264,0.33765849,0.57810348,1.0,0.0,0.0,0.0,85.64620982718343
4.2115,617.8699,1.5766134675432202,-6.3992083862778255,6.255591150273613,0.3073549699632325,-1.10649109716105,0.7623349866272704,9.181077903689584,21.511388760201513,-45.09446099256704,69.473961,81.44866037671204,0.0,69.473961,0.7387909101885328,0.11558569,0.31862494,0.58249986,1.0,0.0,0.0,0.0,84.7429574535968
4.232,617.8899,1.191111580494102,-5.404266269538101,6.176610005057661,0.463789014829509,-0.49823827842817425,1.1778689837186345,7.825608704321722,22.56105737411159,-44.640632831428604,71.027061,82.32140223782521,0.0,71.027061,0.7351198971552554,0.11556044,0.31092367,0.59124529,1.0,0.0,0.0,0.0,85.3653035434079
4.2533,617.9099,0.9252569592411248,-4.1460864597719675,5.735923877770315,0.4529902916263312,0.010356280320009043,1.5871358900788137,5.84065158422934,22.99715307532529,-44.52808334052745,73.331955,84.89007062172098,0.0,73.331955,0.7231903131791565,0.11389003,0.31216815,0.6054551,1.0,0.0,0.0,0.0,87.36297863582367
4.2705,617.9309,0.7223680853946162,-2.9603503822191133,5.256931527540168,0.3250365086863789,0.40209883117270667,1.9256187180373745,3.974191942817919,23.02394763365298,-44.54594028551567,76.255669,88.4103160052404,0.0,76.25566900000001,0.7065583198551975,0.1097157,0.31628156,0.62346113,1.0,0.0,0.0,0.0,90.08884752871094
4.2918,617.9509,0.6150510172132337,-2.1585576229191044,4.8763302232800605,0.14247756548510304,0.7027363873409569,2.188620865403022,2.799835953375439,22.919308743882752,-44.55886486638242,79.03624,91.64922010817104,0.0,79.03624000000002,0.6906841724248882,0.1058294,0.31945327,0.64008212,1.0,0.0,0.0,0.0,92.63141705837162
4.3105,617.9709,0.7414998287010697,-1.8425965599771208,4.523340780092402,-0.018462992530034805,0.9682772728504809,2.404019657640857,2.00081134329373,22.838687828548473,-44.5879046610466,81.540565,94.68288763715188,0.0,81.54056500000002,0.6750366964610223,0.10442588,0.32404563,0.65453428,1.0,0.0,0.0,0.0,95.08600008006549
4.3327,617.9909,1.0452988749569991,-1.8002082450322998,4.066760407353076,-0.11204391238288336,1.264453333739132,2.581967855202069,1.3212913963081583,22.476820241449147,-44.84746590192261,83.91246,98.11451733560307,0.0,83.91246000000001,0.6572652902263948,0.10087271,0.33355185,0.66825908,1.0,0.0,0.0,0.0,97.81671946684553
4.3575,618.0109,1.3970432104989081,-1.8200584055176297,3.4092632952326447,-0.12668169195460988,1.6110916037121246,2.711321301140507,0.6941200357572761,21.874514345946587,-45.330295314645724,86.469376,102.24417624523636,0.0,86.46937600000001,0.6356823970469424,0.09344518,0.34740856,0.68299574,1.0,0.0,0.0,0.0,101.05877005220556
4.3792,618.0309,1.7175788287597245,-1.856837207640031,2.483532612743918,-0.06877562182331487,1.9641171283759964,2.80452969286521,0.1441293572012725,21.566525960257614,-45.7573798010601,89.414711,106.73468871736237,0.0,89.41471100000001,0.6111181109876505,0.08714876,0.36135259,0.69883049,1.0,0.0,0.0,0.0,104.65921269916188
4.3964,618.0509,2.063488185519329,-1.871160101497999,1.2432176348801214,0.06828122752825427,2.2646126843264414,2.901684989462849,-0.5638388854135066,21.781299714743184,-45.98345081869947,92.642662,111.37916255059027,0.0,92.64266199999997,0.5845821350768216,0.08758874,0.37484473,0.71420121,1.0,0.0,0.0,0.0,108.45304949051466
4.4163,618.0709,2.497697050660924,-1.7282914633431168,-0.3000376994533269,0.3002510811184249,2.497727520118404,3.0196164940564785,-1.5521074422040222,22.05765675947796,-46.16537765546075,95.72097,116.18925044342686,0.0,95.72096999999997,0.5569518814872136,0.09399129,0.39107773,0.72665566,1.0,0.0,0.0,0.0,112.30947792280881
4.4382,618.0919,2.942014995506466,-1.433750368048589,-2.111716580203666,0.6140563157385868,2.6645370793586407,3.170773624075883,-2.4157840449674737,22.468827641298546,-46.2276577873992,99.175331,121.05341589551394,0.0,99.17533100000003,0.5285518887052881,0.10244931,0.40529394,0.73883277,1.0,0.0,0.0,0.0,116.18467219828061
4.4618,618.1119,3.2653576641308675,-0.9344543771747988,-4.165239388650337,0.9705599976221393,2.8295570254510416,3.333301233678918,-2.914345513056542,23.070752279088452,-46.12008171199593,103.997246,126.18458141915433,0.0,103.99724600000002,0.4964059007264339,0.10635508,0.41354445,0.75581133,1.0,0.0,0.0,0.0,120.47500036124637
4.4728,618.1319,3.299905156377715,-0.15338687779533705,-6.455326411119584,1.40041150453624,3.0910489647205637,3.4382364192112167,-2.974674655835848,23.501850441308765,-45.993949741455936,109.417191,131.19321741766726,0.0,109.417191,0.4625687203918612,0.10519616,0.41867605,0.77438641,1.0,0.0,0.0,0.0,124.89402609953615
4.4957,618.1519,2.8236616377373904,0.93733672554903,-8.911617964834619,1.933225327040187,3.4477920371239077,3.458398431806062,-2.9321862247484667,23.9370168085101,-45.70099550958268,115.493706,136.20297259639457,0.0,115.49370599999997,0.4268220139565862,0.10549928,0.42142007,0.79315698,1.0,0.0,0.0,0.0,129.46790887180936
4.5164,618.1719,1.5768081244335979,2.401639814324872,-11.213981179718472,2.5618169558079122,3.7941671023030477,3.4044593125713067,-3.2440139939269734,24.69818013483421,-45.000609851499476,122.970276,141.64032465833904,0.0,122.97027600000001,0.3876008995993525,0.11513966,0.42072147,0.81209719,1.0,0.0,0.0,0.0,134.38939500216534
4.5344,618.1919,-0.5834755805387823,4.23122519101634,-12.741111934197425,3.2931340780412306,3.9698971390729962,3.2378787680649372,-4.871816092469764,25.918728217746025,-43.6697396745656,133.40947,148.57788681258205,0.0,133.40947,0.3404831341742946,0.14569326,0.4175829,0.82974046,1.0,0.0,0.0,0.0,140.18737612017543
4.5516,618.2119,-3.2562114910094655,6.217791829515971,-12.798404023443302,3.958693046144342,3.8623500939175495,3.0012600566977103,-6.620691548263586,27.27563726136845,-41.90280588326303,145.712067,155.93320491563134,0.0,145.712067,0.2904437194231605,0.18504089,0.40720272,0.8459245,1.0,0.0,0.0,0.0,146.23095456017498
4.5818,618.2319,-5.665866077763574,8.066002085604156,-11.239485449035474,4.462348625779582,3.4430159386848427,2.705211794524823,-7.826979218497218,28.286279090119404,-40.15194811587492,157.356827,162.87970166265464,0.0,157.356827,0.2421065161094691,0.22422932,0.39061943,0.85937309,1.0,0.0,0.0,0.0,151.97819587013873
4.5967,618.2519,-7.162750117850441,9.526765760833035,-7.652746857071673,4.803127740688343,2.6369476321100986,2.357460831825599,-9.387121029997592,30.825666936267424,-36.87663344431967,169.006058,170.24455299081157,0.0,169.006058,0.1865632438009527,0.27716538,0.34854567,0.87572223,1.0,0.0,0.0,0.0,158.49542684387038
4.6147,618.2729,-7.455379658105298,10.073838682592104,-3.165500576127144,4.776044173677358,1.755552081506799,1.9157860271069826,-10.042395621907767,32.92182715263996,-33.74996652069644,176.298096,176.16651436316994,0.0,176.298096,0.1355370892712896,0.3195599,0.29762506,0.88934273,1.0,0.0,0.0,0.0,164.4206434077685
4.634,618.2929,-7.030033227901463,9.360357615084759,1.2310300605679245,4.289172552827382,1.0094495904016012,1.5122240828327116,-9.745349294505914,34.71462710660494,-30.911541303779636,-179.751266,-179.71115562469558,0.0,179.751266,0.0886360514046603,0.34285885,0.23923106,0.90407962,1.0,0.0,0.0,0.0,169.82971002809504
4.6556,618.3129,-6.344673348627426,7.893432925411907,4.517962712868995,3.426501156362664,0.4921819141724896,1.1613762903965936,-8.628014773225607,35.570530368072525,-29.29688310330446,-178.029297,-177.5669081254134,0.0,178.029297,0.0551414651019193,0.35128805,0.18886808,0.91536057,1.0,0.0,0.0,0.0,173.67804704746294
4.6781,618.3329,-5.785307266194306,6.541669507171052,6.3302861630680205,2.351796664910256,0.1956310620373408,0.8785865975728554,-7.092103794474788,35.12323479234214,-29.485939592941428,-177.59166,-176.95810794500244,0.0,177.59166,0.0391949109609564,0.35208476,0.15910907,0.92151201,1.0,0.0,0.0,0.0,175.5074432710108
4.6975,618.3529,-5.401006485822464,5.4439807575181876,7.145918565077121,1.2667349991030123,0.06478637138399268,0.6151906673414259,-6.537334036208809,33.72873406208943,-30.679784072592916,-176.760178,-175.84407806069245,0.0,176.760178,0.0285099961109451,0.35722017,0.14913635,0.92159605,1.0,0.0,0.0,0.0,176.73255235476833
4.7225,618.3729,-5.555161298970305,4.448191081812825,7.431784445763231,0.28157646974858364,0.006635249712848498,0.35223193182185,-6.416145112315123,31.975610005423082,-32.20619799906214,-175.735733,-174.5231531435594,0.0,175.735733,0.0202672256822918,0.35892817,0.15103798,0.92084056,1.0,0.0,0.0,0.0,177.6773879872342
4.7367,618.3929,-6.024756836971818,3.3501849585228625,7.611483702596793,-0.5811132557821732,-0.011047889909979035,0.005559487911947179,-6.234073812577694,30.576199440620123,-33.384236472959046,-175.127869,-173.7707797848368,0.0,175.127869,0.0159890366506422,0.35794544,0.15444903,0.9207415,1.0,0.0,0.0,0.0,178.16771328675358
4.7526,618.4127,-6.393069834898541,2.1506728641275936,7.668513526391948,-1.354241554176692,0.030576998646920373,-0.44900228488886706,-6.053268319571353,29.732151019577287,-34.069998256206574,-174.870407,-173.47284144822265,0.0,174.870407,0.0145630341504615,0.35642576,0.15728118,0.92087525,1.0,0.0,0.0,0.0,178.33114021982578
4.7801,618.4329,-6.279924944767981,1.2529594437812093,7.277618775796338,-2.046082171350803,0.14682691667964232,-0.9646752369602294,-5.633607440455572,29.009180584337948,-34.72937888017951,-175.455032,-174.24101883961208,0.0,175.455032,0.0229908937404887,0.3565678,0.16459094,0.9193697,1.0,0.0,0.0,0.0,177.36520549096178
4.7938,618.4529,-5.5749973943075295,0.8360070533085002,6.29154592423772,-2.6136896342071956,0.3235489305739059,-1.4659088134074447,-4.91187423159475,27.983915730098857,-35.72994335738684,-177.135193,-176.38091274685993,0.0,177.135193,0.0458061187644507,0.36031228,0.18080725,0.91399431,1.0,0.0,0.0,0.0,174.74916812869535
4.8177,618.4729,-4.597919974999004,0.40886789312090777,4.892440556398867,-2.999397392340349,0.5106902552885002,-1.9141678332161438,-4.0806973780010205,26.99978991400806,-36.770838627372,-179.347275,-179.18005682886778,0.0,179.347275,0.0754858317917556,0.36487517,0.20156676,0.90583599,1.0,0.0,0.0,0.0,171.34172490127628
4.8335,618.4929,-3.6995452420258754,-0.26548516386694665,3.4468254757320143,-3.1868137552329556,0.6543395637230238,-2.3008307973897133,-3.264835428122162,26.395960915590564,-37.6230948191462,178.207474,177.76340776913804,0.0,178.207474,0.1070481239843378,0.36965361,0.22224304,0.8958264,1.0,0.0,0.0,0.0,167.70963875909771
4.8644,618.5129,-2.99438701633664,-1.0081985192665082,2.2231619757366907,-3.226227812261787,0.6815997490049418,-2.608627197625844,-2.7708926339107243,26.16134010313577,-38.29219683241236,175.831863,174.79798109220997,0.0,175.831863,0.1385978956171319,0.3780385,0.2422545,0.88271755,1.0,0.0,0.0,0.0,164.06655873556315
4.8753,618.5339,-2.399386311779542,-1.5911598029067422,1.2935933152272803,-3.2139744415845866,0.5460710561206727,-2.804718324911261,-2.8766245026074686,26.29585639117525,-38.73956180687045,173.783508,172.07740567777307,0.0,173.78350799999998,0.1696563492225578,0.39439127,0.26059714,0.86473197,1.0,0.0,0.0,0.0,160.46432183579927
4.8988,618.5549,-1.989967936210126,-1.8189124664703273,0.5652980328324961,-3.1932353156013353,0.24248500617987934,-2.936767270529601,-2.8036706836891536,26.525944052352457,-39.157818719497996,171.22142,168.51709482382728,0.0,171.22141999999997,0.2044799688960175,0.41029084,0.27730384,0.84436482,1.0,0.0,0.0,0.0,156.40188275417913
4.9149,618.5749,-1.7093914679633933,-1.754307880946718,-0.10567818075316282,-3.2028205129895286,-0.1572879491004111,-3.0377389842093936,-2.161200476229113,26.928900283375558,-39.482539754927245,167.730118,163.7343744530158,0.0,167.730118,0.2411128324677127,0.41856706,0.29002401,0.82616723,1.0,0.0,0.0,0.0,152.09554013131682
4.9351,618.5949,-1.3988351824720933,-1.4999546419057728,-0.8456992248772082,-3.2772216023903713,-0.5384769103299474,-3.1119664222131798,-1.1431317697975985,27.41103952778563,-39.739406220300665,163.335999,158.01620947315456,0.0,163.33599900000002,0.2780372969874795,0.41941223,0.29976416,0.81051224,1.0,0.0,0.0,0.0,147.7138013511241
4.955,618.6149,-0.9896158330944484,-1.1948043984962418,-1.7524232712880234,-3.396898418593497,-0.7999722244401982,-3.1740191958631847,0.14186349516861085,27.75411567901222,-40.05441808161831,157.795273,151.42383785819135,0.0,157.795273,0.3166946442678779,0.41402262,0.30834973,0.79574507,1.0,0.0,0.0,0.0,143.07370345068367
4.9928,618.6349,-0.3981269046119902,-1.0777706604500286,-2.8682839019896003,-3.520419534530641,-0.8892788128249782,-3.2087163953470474,1.2207560852932726,27.97452399689672,-40.3971781135365,151.617081,144.6097049060585,0.0,151.61708099999998,0.3552846530951619,0.40745422,0.31719992,0.77919066,1.0,0.0,0.0,0.0,138.3782177697443
5.0078,618.6559,0.3037861312997119,-1.345412891289255,-4.124920965838195,-3.5579580185654978,-0.8107862628176994,-3.2135418085264615,2.1323554228454444,27.941328670216866,-40.84434989704569,144.428085,137.18004442681928,0.0,144.428085,0.3958178310372601,0.401169,0.32711825,0.75854158,1.0,0.0,0.0,0.0,133.36602029440252
5.0242,618.6759,0.8810524615591744,-2.0707269438494116,-5.277439440711742,-3.3824648630107523,-0.6460291480189619,-3.227255871593208,3.291614931156838,27.471892535823475,-41.47466098766088,135.115143,128.82902140590133,0.0,135.115143,0.4399714412656019,0.39014471,0.33771425,0.73495668,1.0,0.0,0.0,0.0,127.79588201542944
5.0375,618.6959,1.205439317966302,-3.1089027609513957,-6.021955835441866,-2.9689568452260064,-0.5184795018594653,-3.2329577027242946,4.163667072104648,26.98926638949711,-42.0421280218433,125.198372,121.43962514688484,0.0,125.198372,0.4795787921241763,0.37584698,0.34851086,0.71223831,1.0,0.0,0.0,0.0,122.68420824144667
5.0706,618.7159,1.2631672414687078,-4.057859971236124,-6.184784272936431,-2.4350863523018647,-0.5101835860610241,-3.156426156658696,4.446657253252537,26.59722030717672,-42.555482853149456,115.587677,114.69413224408777,0.0,115.58767699999999,0.5141359992144439,0.36535129,0.35951704,0.68769914,1.0,0.0,0.0,0.0,118.12055711566249
5.0812,618.7359,1.1408149432048371,-4.585189545382173,-5.852210402235563,-1.9372672856928974,-0.6497874145380866,-2.957747409947398,4.527689655975648,26.70146296560943,-42.74406936951104,107.115471,107.41447658782722,0.0,107.11547100000001,0.5447422106874585,0.36264473,0.36444506,0.66251379,1.0,0.0,0.0,0.0,113.98590205265222
5.0993,618.7559,0.9973881262844546,-4.584190195693388,-5.219889922592277,-1.6254746474413393,-0.9889041794579925,-2.6113562900170266,4.879687856186486,26.76869018328814,-42.87335512146803,99.014618,99.80447494799985,0.0,99.01461799999998,0.5743189838849179,0.35974267,0.36435461,0.63873988,1.0,0.0,0.0,0.0,109.89609168004257
5.1156,618.7759,0.8923440518749151,-4.357695624470052,-4.625883326774402,-1.5997862949327195,-1.468355870471184,-2.130314581270106,5.572116390678172,26.659601448294396,-42.987972593603494,91.925735,93.32643046453641,0.0,91.92573500000003,0.6019631644347632,0.35109606,0.3596198,0.62052035,1.0,0.0,0.0,0.0,105.9787425840474
5.1392,618.7959,0.7449170352027417,-4.391164097248551,-4.370551737856145,-1.848870893042471,-1.9971160433266921,-1.586203204114601,6.410176553348645,26.34206858166928,-43.112649990122655,86.365143,88.88972194983276,0.0,86.36514299999999,0.6267040429298444,0.3351889,0.35212249,0.60901576,1.0,0.0,0.0,0.0,102.38526148372618
5.1574,618.8159,0.5175655701445061,-4.960347882653428,-4.472474297827766,-2.2382470340914558,-2.5374935832482883,-1.0349478596710104,7.221747973272228,25.174905365101328,-43.65137358042883,80.934052,86.27218530579704,0.0,80.93405200000001,0.6509615949867665,0.30775195,0.34851599,0.60006195,1.0,0.0,0.0,0.0,98.77171738673478
5.1776,618.8359,0.3845344197448255,-6.117771514560064,-4.669354272843378,-2.5730036527516607,-3.04762779523821,-0.4971424629312995,7.740277521072521,23.158176264180266,-44.583324359510016,75.572174,84.81484051770036,0.0,75.57217400000002,0.6740090027180968,0.27056187,0.3516449,0.59063864,1.0,0.0,0.0,0.0,95.24551843849724
5.1984,618.8559,0.5966424820795073,-7.61050261084888,-4.467700842108579,-2.6665714323951675,-3.479177061744304,0.015625964166859352,8.088710373823336,20.61727796714301,-45.62317930971939,70.874313,83.9917884327755,0.0,70.874313,0.6951617131634156,0.22524647,0.35878861,0.58076239,1.0,0.0,0.0,0.0,91.91978988169157
5.2188,618.8759,1.2866897158709305,-8.897164628723122,-3.4118368266840022,-2.4015931388548175,-3.773431667852159,0.48010836081026587,8.740043778490213,17.90353885506876,-46.467041503960665,67.772499,83.64820900963174,0.0,67.77249899999998,0.7139919860450488,0.17005326,0.36372635,0.57358563,1.0,0.0,0.0,0.0,88.8787008832215
5.2445,618.8959,2.3431421697446413,-9.389895606098756,-1.4484099755467117,-1.7738161681093207,-3.8587806155111593,0.8907458737772382,9.696213249354738,15.644723286690988,-46.88025125760162,66.985451,83.73466815073883,0.0,66.98545100000001,0.7276718540454742,0.10911864,0.36155531,0.57259458,1.0,0.0,0.0,0.0,86.61685839942226
5.2578,618.9159,3.318254489839179,-8.807424417430672,1.0050756681460804,-0.947123529451762,-3.662914691051249,1.2717346766534905,10.648160094549283,14.326452039914324,-46.84930332335519,67.749062,83.579069551798,0.0,67.74906199999998,0.7366931738299807,0.05370863,0.35080853,0.57561439,1.0,0.0,0.0,0.0,85.09903725786327
5.275,618.9359,3.808308764242045,-7.276937321259328,3.386982996425372,-0.14018577501932983,-3.207674829865921,1.6487548830943295,11.38173908176699,14.130198440768972,-46.45663536684417,69.49733,83.30276430961793,0.0,69.49733,0.7417941699465196,0.01010793,0.33183676,0.58268654,1.0,0.0,0.0,0.0,84.23104716523352
5.2981,618.9559,3.703354949797372,-5.145634670923178,5.296578823022241,0.4528584559342539,-2.5894627265617007,2.0345757478382156,11.57306292699895,14.930174664764841,-45.8531038647127,71.936577,83.46998404912375,0.0,71.936577,0.7421846791094338,-0.01905822,0.3082979,0.59476978,1.0,0.0,0.0,0.0,84.16429853242077
5.3151,618.9758,3.1814113063626728,-2.880704245669612,6.594253176427415,0.7387569816785369,-1.9467276137748155,2.3828737825394697,10.802063499482372,16.6802773853261,-45.13097231484437,75.124176,84.73080059498967,0.0,75.124176,0.7358698913420805,-0.03104043,0.28427529,0.61377484,1.0,0.0,0.0,0.0,85.23845603943937
5.3369,618.9959,2.2512557211393047,-0.5479070604876901,7.478189671930075,0.7101140487163677,-1.3411993839450842,2.673547569690738,9.453600080646943,18.275773555870856,-44.55429648582936,78.94693,87.14584795004468,0.0,78.94693000000001,0.722517011695436,-0.03792785,0.26443461,0.63765585,1.0,0.0,0.0,0.0,87.47463500617823
5.3609,619.0159,0.9092865244370736,1.7038556552726716,8.034603949431276,0.43525536141092336,-0.7945040339911705,2.844899352459406,8.12086057970204,19.070512926613944,-44.31679345242477,82.941925,90.15077514777056,0.0,82.94192499999997,0.7046213195970763,-0.04743057,0.25050205,0.66219926,1.0,0.0,0.0,0.0,90.40208170066254
5.3832,619.0359,-0.6293067790732625,3.699794945700215,8.26001847865695,0.04889384650906958,-0.29495500628148275,2.8365641147903182,7.037984112033197,18.991966873258573,-44.49406916775294,86.674049,93.29166313910113,0.0,86.67404899999997,0.6845161107531555,-0.06041246,0.24395864,0.68430418,1.0,0.0,0.0,0.0,93.60487224614164
5.4018,619.0559,-2.0731174339438105,5.1849224744802065,8.218813442219165,-0.3293456557177078,0.1675488224915657,2.6323424146633347,6.114886451240531,18.59441508994572,-44.88058909278864,90.284256,96.57807581840981,0.0,90.28425600000003,0.6623801388531283,-0.07317185,0.24258536,0.70501828,1.0,0.0,0.0,0.0,97.03670136049712
5.4246,619.0759,-3.1028542166475783,6.06365428835475,8.006448972874669,-0.6445736736303549,0.6224032133127236,2.273312164746827,5.2523670510523175,18.144424256770307,-45.327798983202456,93.567436,99.8195679923378,0.0,93.56743599999999,0.63991182693735,-0.08288398,0.24573281,0.72336608,1.0,0.0,0.0,0.0,100.4295100584643
5.4376,619.0959,-3.5343150364175395,6.461422207164288,7.624998727718861,-0.8999670722120131,1.1081198235010186,1.826024428583398,4.617839749498007,17.553039653307795,-45.76427253532165,96.010742,102.53242381995685,0.0,96.010742,0.6206430780368194,-0.09009734,0.25351062,0.73648965,1.0,0.0,0.0,0.0,103.27377867885012
5.4576,619.1159,-3.308753850930038,6.501075611381828,7.037232316405817,-1.1111011834357138,1.623342887944086,1.3655724653531807,4.034400827844923,16.942291649150253,-46.07896045090273,97.586586,104.77162148440809,0.0,97.58658600000001,0.6050267955787408,-0.09284145,0.26578134,0.74477065,1.0,0.0,0.0,0.0,105.53845982159694
5.4763,619.1359,-2.56904155277989,6.262421466394933,6.158672769363044,-1.3047998982100508,2.1327617427385714,0.9535962758230494,3.255518520821113,16.495694503754436,-46.18732071147636,98.622665,106.91197918858256,0.0,98.62266499999998,0.5911733355130878,-0.08931487,0.28182673,0.75040698,1.0,0.0,0.0,0.0,107.51936814282672
5.5004,619.1559,-1.5635265862730554,5.831219429340048,4.866330107827494,-1.506216980436002,2.5866588374275987,0.6067437088539382,2.1602731145257437,16.00465446998224,-46.19381548117951,99.458961,109.40882733693256,0.0,99.45896099999999,0.5757386719064966,-0.0816609,0.30329463,0.75489658,1.0,0.0,0.0,0.0,109.6972434670398
5.516,619.1759,-0.48070928984726535,5.147269918840049,3.1600318138980885,-1.7024883016425,2.939450624756442,0.3235038617460827,0.9944668946597552,15.32197141087967,-46.211527572293065,99.940651,112.17554455099747,0.0,99.940651,0.5590878435710004,-0.07208037,0.33025274,0.75707221,1.0,0.0,0.0,0.0,112.01452101044494
5.5353,619.1959,0.6267228934869875,4.068467672457669,1.1931091350983944,-1.8428590112927155,3.1725015709706748,0.13245170799387918,-0.017042987856065395,14.5818741190235,-46.300571474366386,99.760971,114.94824209069705,0.0,99.76097099999998,0.543446348444171,-0.05997079,0.36098877,0.7554844,1.0,0.0,0.0,0.0,114.16288732733528
5.5565,619.2168,1.692221453658143,2.4329167069695217,-0.8103738031148797,-1.87636943439224,3.2927521482226405,0.13202888198564255,-0.7409949865545329,14.701366110560379,-46.27671397499701,99.459328,117.61246622047639,0.0,99.45932800000003,0.5301372652931479,-0.04128375,0.38697961,0.75332391,1.0,0.0,0.0,0.0,115.97054048184562
5.5832,619.2369,2.5637905666128384,0.5921931248761481,-2.797915833756849,-1.764838858417089,3.3212097595120498,0.2929662274955729,-0.8950341928187768,15.0388199098028,-46.38615644760938,98.863815,119.99527811530928,0.0,98.86381499999999,0.51887173500042,-0.02418137,0.41058987,0.74940199,1.0,0.0,0.0,0.0,117.4867997983869
5.6163,619.2569,3.1818650623666587,-1.2055988495651897,-4.690410928743457,-1.4844605560107476,3.2761683530259926,0.6091855683141305,-0.6640924206946472,15.50108780488231,-46.5962865673229,98.396744,122.3833748643413,0.0,98.39674400000001,0.507015012278078,-0.0108242,0.43176517,0.74592054,1.0,0.0,0.0,0.0,119.06959008872973
5.6213,619.2769,3.53371558225554,-2.7108324950584954,-6.430842675764712,-1.0076751709557166,3.1877020997541647,1.037205917904609,-0.23915744373733006,15.903545611085004,-46.843099494712575,98.156464,124.92574779093142,0.0,98.15646400000003,0.4932831390655255,-0.0018919,0.45165113,0.74342412,1.0,0.0,0.0,0.0,120.88679565759126
5.6433,619.2969,3.647866203670685,-3.693624391227523,-7.964785163696081,-0.3419117707921939,3.0855992731279693,1.514115627000219,0.275984910176863,16.204828803163856,-47.02221661697974,98.422333,127.71781681304668,0.0,98.42233299999998,0.4764721045675326,0.00240845,0.46980226,0.74313819,1.0,0.0,0.0,0.0,123.08951608909028
5.6603,619.3169,3.57920733629129,-3.9495333881872003,-9.291858536792546,0.470469804784853,2.9948291953908934,1.981196560029843,0.5676919459034018,16.635447555830723,-46.9902529581117,99.786507,131.0399729320443,0.0,99.78650700000003,0.4546724719131821,0.00577481,0.48494226,0.74704123,1.0,0.0,0.0,0.0,125.91227504568693
5.6805,619.3369,3.2812041204252647,-3.317582196875269,-10.47966265436432,1.3820909254017544,2.904643481566291,2.3790020972295114,-0.25500623443583237,17.89024382145428,-46.47980533513105,103.715584,135.79214965048192,0.0,103.71558400000004,0.4234900789605266,0.01976678,0.49459431,0.75871068,1.0,0.0,0.0,0.0,129.88974460153054
5.7123,619.3569,2.5869138458291605,-1.7525803276535732,-11.23976025100923,2.2120683933505236,2.816276006509292,2.642936190908452,-0.9560914912103442,19.625531579726264,-45.56321582968705,109.889595,140.47788804206488,0.0,109.88959499999999,0.3903749333978344,0.0347178,0.49418259,0.77600622,1.0,0.0,0.0,0.0,134.04433827817883
5.7226,619.3769,1.3183490191783411,0.5485456016265935,-11.284471766304009,2.817992352735106,2.692976966789568,2.75550889774512,-1.6842847652519986,21.624268366088273,-44.299983695639696,118.208115,145.16083981952735,0.0,118.20811500000002,0.3554780728122374,0.0521044,0.48493016,0.79734761,1.0,0.0,0.0,0.0,138.35450560578425
5.7373,619.3969,-0.5774749599209332,3.0893350585326447,-10.320002531221444,3.082292373651665,2.483182246837713,2.7148067108397678,-2.5839358512017263,23.564087738570258,-42.83080118267689,128.204117,149.99640922859086,0.0,128.204117,0.3178021346947131,0.07128307,0.46901971,0.82093912,1.0,0.0,0.0,0.0,142.93988147505058
5.7597,619.4169,-2.8569249496658147,5.149596398333448,-8.298593680194262,2.9637050793692015,2.11435821060599,2.549862429782503,-3.522893907021551,25.192060564487377,-41.36012180072602,138.631836,154.79691793404,0.0,138.63183600000002,0.2788385896143313,0.09056165,0.44829896,0.84443808,1.0,0.0,0.0,0.0,147.61819931969004
5.7785,619.4369,-4.980212852738829,6.144141708218182,-5.654850826476016,2.5373529327906796,1.5313666124036462,2.29735163611415,-4.214011857872796,26.173401135329648,-40.26981150273564,147.63913,159.1126883945719,0.0,147.63913000000002,0.243104224464138,0.10840012,0.4271462,0.86411566,1.0,0.0,0.0,0.0,151.86034615531855
5.8026,619.4569,-6.292709419754667,5.756672789188841,-2.8349523939603234,2.005617493715516,0.6842374240168849,1.9944206104044004,-5.249223105968497,27.605744153382187,-38.92632208572702,156.393387,163.4428249678069,0.0,156.39338699999996,0.2085077538192242,0.13528204,0.39800879,0.88306981,1.0,0.0,0.0,0.0,155.93016573676746
5.8178,619.4769,-6.76328709151794,4.534381875768276,-0.8958158643083198,1.4977000921328703,-0.22275218252611906,1.689079705317253,-5.536161368294332,27.824223385173802,-38.727658926947754,161.510361,166.32552618288582,0.0,161.510361,0.1851258029411851,0.15240982,0.37916937,0.89371711,1.0,0.0,0.0,0.0,158.6630658611243
5.8369,619.4969,-6.7629981535954435,3.0464105847472105,0.09831846520960852,1.1662888298179297,-1.0460632422057798,1.4156464806280544,-5.105667878212598,27.258009296422873,-39.439080614336845,163.851517,167.75450315143556,0.0,163.851517,0.1716791174926195,0.15633714,0.36898994,0.89996189,1.0,0.0,0.0,0.0,160.22907827842158
5.8626,619.5169,-6.664123881458814,1.701880642523336,0.6781209283600518,1.08057409195882,-1.6465444189870262,1.1269795270068672,-4.364214779580495,26.54900892449594,-40.44715922955123,164.739777,168.31350653688258,0.0,164.739777,0.1623603880438741,0.14810143,0.36217624,0.90583301,1.0,0.0,0.0,0.0,161.31214355351355
5.8774,619.5369,-6.614436076056899,0.8072597858711665,1.4278427989864522,1.1799096808940308,-1.9416171968513964,0.7402524094544003,-3.79171485933448,26.312536368591644,-41.188214276673285,165.268997,168.5878927830405,0.0,165.268997,0.1529969029666743,0.13367975,0.35272703,0.91340315,1.0,0.0,0.0,0.0,162.39871674448983
5.8985,619.5569,-6.538104377476812,0.5085091316780135,2.6297986264829056,1.2994741037118434,-1.9304302933623827,0.2194268760536412,-3.804578416733099,26.778150989644715,-41.417761312197726,166.008087,168.91322251543681,0.0,166.008087,0.1431850690788305,0.12141681,0.33765984,0.92235667,1.0,0.0,0.0,0.0,163.53561069561343
5.9166,619.5769,-6.283078596608979,0.7835549984678547,4.169701002272863,1.2530749768491776,-1.7052349890181417,-0.3615625661548979,-4.090037524962703,27.670814169474642,-41.272050422004604,166.140121,168.66971087413017,0.0,166.14012100000002,0.1403067249065121,0.11630072,0.31817734,0.93035012,1.0,0.0,0.0,0.0,163.86880904333208
5.9411,619.5969,-5.7401415379315965,1.380160135825549,5.659019168016783,0.9776856244665919,-1.395636369192891,-0.8643920879465341,-4.265952727414065,28.471565872340935,-41.09083489507687,165.09198,167.4353969893621,0.0,165.09198000000004,0.1481970533890729,0.11754167,0.29901055,0.93531507,1.0,0.0,0.0,0.0,162.95508481236257
5.9664,619.6179,-5.148769212465075,1.9714449409715495,6.589710694878946,0.5484521455976369,-1.111602192927566,-1.1865839790457344,-3.7837923471539625,28.7357068149338,-41.258601896665866,162.566711,165.00375759023257,0.0,162.566711,0.1665778674569912,0.11663375,0.28459415,0.93683219,1.0,0.0,0.0,0.0,160.82218345014908
5.9847,619.6389,-4.449768996836335,2.2527288823647655,6.790119475414382,0.0606183701076147,-0.9015891649829707,-1.3546856768043092,-3.5156953739644905,28.43170627325911,-41.74114781039599,159.896912,162.52702554092278,0.0,159.896912,0.1870078586059868,0.11827005,0.2776998,0.93483853,1.0,0.0,0.0,0.0,158.4435650083047
6.0132,619.6599,-3.9519358437136742,2.1325300651028405,6.250993446235853,-0.36956294536636813,-0.7603767309536814,-1.4443097866567578,-3.444848810676927,27.6482190398987,-42.470196424226884,157.691269,160.63864611874055,0.0,157.69126900000003,0.2024448804020731,0.11522274,0.27798027,0.93191564,1.0,0.0,0.0,0.0,156.64006896410984
6.0253,619.6809,-3.605141890836143,1.7824024583574811,5.280006318623041,-0.6832737325066831,-0.6457958436519075,-1.5447604447440364,-3.2061354686624775,26.659067219151172,-43.25041175378091,155.475723,158.9073087909213,0.0,155.47572300000002,0.2164020426670179,0.10815274,0.28272197,0.92819256,1.0,0.0,0.0,0.0,155.00440986353763
6.0447,619.7009,-3.2149399222561708,1.4371829021237952,4.287061909179439,-0.8711597103738494,-0.5060303462840008,-1.691457156488216,-2.6477018289087297,25.689426510813963,-43.91529386745087,152.767654,156.85807864683247,0.0,152.767654,0.2332612525405956,0.10053978,0.28970808,0.92279476,1.0,0.0,0.0,0.0,153.0216966021285
6.0786,619.7209,-2.5611469092877055,1.0972477145830144,3.581725274146546,-0.9788896893274013,-0.3084269427325293,-1.8548631753844202,-2.362437603011628,25.25113177269242,-44.13529538162268,150.188065,154.83806582832324,0.0,150.188065,0.2509450081597837,0.09973519,0.29477051,0.9166187,1.0,0.0,0.0,0.0,150.93312012664677
6.0838,619.7419,-1.7274786549145233,0.7833540437862396,3.164527190983545,-1.0500711656011843,-0.06471861102604881,-1.9815524739654125,-2.1833982495829964,25.275919851145012,-44.01336879510994,147.401321,152.53682062906958,0.0,147.401321,0.2718291986937424,0.10529255,0.29799023,0.90896875,1.0,0.0,0.0,0.0,148.45371226476357
6.1031,619.7619,-0.8466228496889858,0.4082053729682702,2.900431622849011,-1.111505480009667,0.18318860578453278,-2.0307193026049335,-2.250120170586971,25.507108088763836,-43.74613793874952,144.75444,150.34107926165697,0.0,144.75444,0.2923346637118066,0.11459725,0.30175632,0.900195,1.0,0.0,0.0,0.0,146.00443850355555
6.1264,619.7819,-0.03332904214471588,-0.05313166983025219,2.6862291889547887,-1.1679217293715856,0.4147054065458753,-2.0003625341284623,-2.5290486776279515,25.746282595598313,-43.504483799986616,142.193054,148.29568095430068,0.0,142.19305399999996,0.3121656835492984,0.12664488,0.30793989,0.88976777,1.0,0.0,0.0,0.0,143.62041357996802
6.1445,619.8019,0.5158331549577109,-0.4536525472000541,2.5380767567749505,-1.193709714442429,0.6259198101975798,-1.9441038303889953,-2.6717620745037713,25.739914004225383,-43.494550855393186,139.465881,146.35649336571265,0.0,139.46588099999997,0.3309327077920578,0.135299,0.31754506,0.87826127,1.0,0.0,0.0,0.0,141.34920634562354
6.1685,619.8219,0.7493622434035565,-0.6391464396717415,2.5135949322667983,-1.1923580122045918,0.8355420875314055,-1.9249889161853773,-2.578548023655678,25.604583333269268,-43.65834955807282,136.639114,144.5523352570731,0.0,136.639114,0.3479838644081905,0.13928056,0.32846358,0.86696011,1.0,0.0,0.0,0.0,139.27190252140093
6.1861,619.8419,0.8210600061962889,-0.6192470761865674,2.5297286100205394,-1.21040562243979,1.0518465245296822,-1.9634144682931933,-2.581249221611177,25.80374810903851,-43.68408245628565,134.269394,143.0389628583553,0.0,134.26939400000003,0.3624787905351959,0.14538026,0.33722952,0.85659206,1.0,0.0,0.0,0.0,137.49498941597884
6.2037,619.8619,0.8982286486373479,-0.4383793297537357,2.3840257036984376,-1.2878440425220568,1.2263334465932232,-2.046029826037164,-2.8234416740358483,26.255893412430098,-43.59181649414718,132.24588,141.72447373669144,0.0,132.24588,0.376034302146623,0.15760747,0.34556898,0.84518647,1.0,0.0,0.0,0.0,135.82349308991198
6.2264,619.8819,1.0601538369288654,-0.18530754518608283,1.897607919461489,-1.427456408419217,1.2916834763889344,-2.1397605901055776,-3.1237868879684108,26.60236454113805,-43.59665717553012,129.999664,140.3657406412003,0.0,129.999664,0.3907725786976776,0.17411473,0.35636309,0.83065408,1.0,0.0,0.0,0.0,133.994839908359
6.2469,619.9018,1.2958880731827374,0.010243254899716892,1.029374369148389,-1.5962554430585576,1.2238597005188794,-2.2054843828518056,-3.1560467291128482,26.680819805859674,-43.80956321074282,127.066597,138.70605459930698,0.0,127.066597,0.407800137393202,0.19043523,0.36926895,0.81306452,1.0,0.0,0.0,0.0,131.8665648247439
6.2646,619.9219,1.5763955593586871,0.07441700671469409,-0.11818610047246025,-1.7517656106359158,1.0558517967620138,-2.220428123794359,-2.7605548878890396,26.45925053554297,-44.221079394631495,123.305092,136.69261910200697,0.0,123.305092,0.4265103875124622,0.20252973,0.38275558,0.7940836,1.0,0.0,0.0,0.0,129.50739294760822
6.2833,619.9419,1.8724441119635022,-0.01525804607802872,-1.3928862540200981,-1.855702558033621,0.8639847468176043,-2.1895566509421895,-1.8925184713133412,26.022987812039702,-44.704805492071216,118.728477,134.23638412663524,0.0,118.728477,0.4466670855855084,0.20885636,0.39482611,0.77522892,1.0,0.0,0.0,0.0,126.93990430963002
6.3021,619.9619,2.1442793824588957,-0.2796596188271365,-2.6874600853019643,-1.8878499475550115,0.7208702016999017,-2.134370348433766,-0.7722637135683996,25.56116211425178,-45.065558896375485,113.817459,131.50293413676758,0.0,113.81745899999999,0.4668461486820157,0.21044689,0.40427437,0.75784498,1.0,0.0,0.0,0.0,124.34046560588715
6.3218,619.9819,2.3215372157171252,-0.7359854341715216,-3.9465929540418143,-1.8377228337573857,0.6504853867979972,-2.076225078851624,0.2682031495852222,25.108129655497123,-45.265602819959376,108.853363,128.75560545587157,0.0,108.853363,0.4860082897987255,0.20899902,0.41251004,0.74158669,1.0,0.0,0.0,0.0,121.84289209537698
6.347,620.0019,2.3211339124931465,-1.4125637612322668,-5.105045366447702,-1.698067977872565,0.6292471268402311,-2.016173447234639,1.0238822969552572,24.68721278958813,-45.35458503152106,103.860481,126.10629179914218,0.0,103.860481,0.5040600725538177,0.20648026,0.42089483,0.72535294,1.0,0.0,0.0,0.0,119.46204451264924
6.3657,620.0219,2.0802962134157035,-2.290708382033787,-6.045832954357827,-1.4702011404484585,0.6022472539409924,-1.9306964641335949,1.5274742653738471,24.314581555791207,-45.41310750999584,98.686676,123.43020500804292,0.0,98.68667600000003,0.5218382470229151,0.20458494,0.42973933,0.70792228,1.0,0.0,0.0,0.0,117.08872311940146
6.3942,620.0429,1.5790613583762982,-3.264957942167424,-6.624656347232604,-1.1692475777279077,0.5077284279613541,-1.7850302525501835,2.0224646608650687,24.057428368680718,-45.46230137246872,93.484673,120.5563359478419,0.0,93.48467299999999,0.5397608828141656,0.20333129,0.43749338,0.68986529,1.0,0.0,0.0,0.0,114.66527482441909
6.4175,620.0629,0.9218537898638948,-4.164843471210423,-6.772936724332968,-0.8506336422288534,0.31061008498930887,-1.5389108904133086,2.1184226707501175,24.073926367730934,-45.45700849765544,88.779381,118.05200802160232,0.0,88.779381,0.5546619377822871,0.20803133,0.44532102,0.67138833,1.0,0.0,0.0,0.0,112.62513389327268
6.4337,620.0829,0.28330441662464234,-4.790965022845585,-6.46113356665689,-0.5332103577897085,-0.0030860610474228445,-1.2161738777178743,2.1757033102984344,24.224490785942656,-45.43604977690711,85.02977,116.06112445730237,0.0,85.02976999999998,0.5658712568094235,0.21162787,0.45143819,0.65666348,1.0,0.0,0.0,0.0,111.07437033474498
6.4467,620.1029,-0.1466206873871434,-5.00573351945124,-5.738382020758563,-0.23919347301339944,-0.40169739874651916,-0.8492896490006846,2.4560256777899276,23.923246134039587,-45.65673186906673,81.581039,114.36689744431547,0.0,81.58103900000003,0.5759096665668565,0.20764363,0.45743257,0.64495552,1.0,0.0,0.0,0.0,109.67327676145919
6.4651,620.1229,-0.28234008679761446,-4.817728512864307,-4.785347455547142,0.003404653034917049,-0.8121093684526826,-0.46200095258809687,2.9288626612612454,23.158912921464264,-46.07982230707011,78.636551,112.88507299653216,0.0,78.636551,0.5853345030359373,0.19609153,0.46261033,0.63633585,1.0,0.0,0.0,0.0,108.3467507348922
6.4837,620.1429,-0.1761918747772686,-4.416835402273707,-3.8412311587375143,0.17325295159221393,-1.1759292107527357,-0.08348940386886375,3.474623234829693,22.53396715790381,-46.386416271995884,77.210304,111.63050944359608,0.0,77.21030400000001,0.5928602409687878,0.18190823,0.46324238,0.63311344,1.0,0.0,0.0,0.0,107.27951323424169
6.506,620.1629,0.04001551741155307,-3.9813243854916487,-2.9996468499750204,0.25912090809409805,-1.4841639329871408,0.2784913332017376,4.064548582672405,21.97624696277219,-46.63353070779229,76.753014,110.44233592037546,0.0,76.75301400000001,0.5994621876547177,0.1665581,0.460383,0.6332069,1.0,0.0,0.0,0.0,106.33722124705474
6.5361,620.1829,0.2882374870438613,-3.637660485897684,-2.257273214429441,0.26720786591861057,-1.7492790931530995,0.6324973308424385,4.595732520635266,21.37826790473296,-46.902907734082746,76.766785,109.38974391112306,0.0,76.76678500000003,0.6051576558721565,0.15100254,0.45600167,0.63485819,1.0,0.0,0.0,0.0,105.51962494922105
6.5534,620.2029,0.5643758325082646,-3.4282275531699122,-1.5219050036218285,0.22965193389844007,-1.978298470595015,0.9859005450346117,5.008319768754507,20.699938251573208,-47.22812987979354,77.314941,108.78208767858362,0.0,77.31494099999998,0.6086199811111274,0.13351345,0.45116386,0.63891083,1.0,0.0,0.0,0.0,105.0204292662314
6.5715,620.2229,0.8601883822319758,-3.322495442021799,-0.6531744454070818,0.18091825673926376,-2.1574273222718188,1.331673411499936,5.440213987662943,19.95412928110814,-47.57733529664339,78.42128,108.5180990938317,0.0,78.42128000000002,0.6100660852480064,0.11255869,0.4452588,0.64567369,1.0,0.0,0.0,0.0,104.81143697638669
6.5836,620.2429,1.115609968004355,-3.2425167763489755,0.46504078741756594,0.15071657158992224,-2.2517624029404026,1.6465696932599883,6.066413526802489,19.227046273418267,-47.8673878659305,80.078102,108.3594221412217,0.0,80.078102,0.6102221363880571,0.08747441,0.43688276,0.65506536,1.0,0.0,0.0,0.0,104.7888667896469
6.606,620.2629,1.281420169822833,-3.0563963421186395,1.868851344958939,0.17685847863019755,-2.2144648251416026,1.90452269179497,6.683506990023222,18.577305801227073,-48.07649507617456,82.221848,108.48356737082622,0.0,82.22184800000002,0.6078453597608494,0.05948928,0.42709902,0.66676193,1.0,0.0,0.0,0.0,105.13225804708259
6.6269,620.2829,1.317938762887164,-2.5862820815052316,3.506274282821021,0.2841847829779328,-1.9986089322593126,2.0884306919491316,7.018317441379033,18.005103080505204,-48.238929939286336,84.703926,109.0439004172115,0.0,84.70392600000002,0.6018598239049605,0.03080926,0.41773924,0.67993343,1.0,0.0,0.0,0.0,105.99357166495632
6.6523,620.3029,1.1359991917194678,-1.6590686681445863,5.24503776216676,0.44767080636646805,-1.5738915340646609,2.1870099889345354,7.078533738124488,17.528743899261656,-48.359343150002914,87.263733,109.80835036329749,0.0,87.263733,0.5936079463535979,0.00393048,0.40892124,0.69310719,1.0,0.0,0.0,0.0,107.17308150719403
6.6707,620.3239,0.587787667094803,-0.16273311695025766,6.856308314880682,0.59806808763974,-0.9407589516774959,2.194627923478241,6.972333131503962,17.12763348492659,-48.44619629671186,89.884224,110.71322511368881,0.0,89.88422400000002,0.5835643758588508,-0.02100239,0.40037784,0.70619339,1.0,0.0,0.0,0.0,108.59673126765948
6.6918,620.3439,-0.3594677394037191,1.4456130289052658,8.02734849664063,0.6457534345543823,-0.19131045665373395,2.1035639776087742,6.403324669848647,17.605885614011896,-48.26971777984305,93.579094,112.36174773186148,0.0,93.579094,0.5682624948044123,-0.03863958,0.38779059,0.72470903,1.0,0.0,0.0,0.0,110.74169421519635
6.7138,620.3639,-1.3634228523082328,2.693310360243321,8.526336333368814,0.5218299142259333,0.5457573488263593,1.9650129145100053,5.029125643500048,18.646838087327698,-47.95679450886749,97.503853,114.74734962697477,0.0,97.50385299999999,0.5497149601611006,-0.04247181,0.37656593,0.74445128,1.0,0.0,0.0,0.0,113.3050795122777
6.7355,620.3839,-1.9621709913911705,3.426239539018684,8.230095026958889,0.25015931420736315,1.1505963595103055,1.8464190352221155,2.945689521731474,19.366642266524856,-47.76253822033018,100.703079,117.64684968974841,0.0,100.703079,0.5302148585180431,-0.03398944,0.37458736,0.75986922,1.0,0.0,0.0,0.0,115.96005379840125
6.7542,620.4049,-2.0308948307547396,3.77324726274483,7.156175059109739,-0.08051467003214385,1.568660357957662,1.7841987531606964,0.8605225639713261,19.178717182729727,-47.84314699495773,102.85704,120.6875341165288,0.0,102.85703999999998,0.5110495416051917,-0.02254616,0.38363013,0.76886147,1.0,0.0,0.0,0.0,118.53247100382127
6.7683,620.4249,-1.6704255647257122,3.894174104030336,5.5199917111897925,-0.3738561881728982,1.8267262667190858,1.7637902596640838,-0.7106800021612649,18.28154544528503,-48.1314169207374,104.504112,123.83576966614399,0.0,104.50411200000002,0.4907838435421968,-0.01541995,0.39902538,0.77438504,1.0,0.0,0.0,0.0,121.21577127140382
6.791,620.4459,-1.1183209524412483,3.970609856911619,3.613231778889169,-0.5786334716541828,2.0057421720039,1.730576983271399,-1.3106847782825461,17.322466251243753,-48.43528213218967,106.102341,126.71317737378578,0.0,106.10234100000002,0.4707448251863436,-0.01483222,0.41317555,0.77940059,1.0,0.0,0.0,0.0,123.83468876848237
6.8116,620.4669,-0.5097399320303433,4.2310892895825045,1.6544855232507025,-0.6969905963524019,2.184507159553188,1.6228170264474093,-1.6976812669682957,16.611919804754738,-48.66952579234874,108.273613,129.960672943266,0.0,108.27361300000001,0.4469099488318375,-0.01576845,0.42666143,0.78611887,1.0,0.0,0.0,0.0,126.90879672389981
6.8308,620.4879,-0.12308354311891678,4.617085023144755,-0.1960334307078675,-0.7688669317582646,2.3694378029960657,1.440405993820917,-2.0579523871280756,16.788393288588125,-48.62575195672906,111.032539,133.25968176777707,0.0,111.03253899999999,0.4233460823705259,-0.01033371,0.43559986,0.79430729,1.0,0.0,0.0,0.0,129.90795871709255
6.8479,620.5079,-0.16817553452255884,5.044051515354271,-1.867782949852094,-0.8597901327047979,2.5230402423509384,1.2052113136666507,-2.5163370947927106,17.465617677855548,-48.4119411523933,113.988121,136.55880333310776,0.0,113.98812099999998,0.4012517368272378,0.00154051,0.44288093,0.80177999,1.0,0.0,0.0,0.0,132.68709211725525
6.8684,620.5279,-0.6232433811550877,5.291686283467373,-3.292898326683738,-0.9966467469413823,2.573636504445726,0.9857368372364415,-3.139007732490281,18.259064044574224,-48.11131935950802,116.875237,139.87769390142384,0.0,116.87523699999997,0.3809418274692548,0.0190732,0.45107806,0.80687553,1.0,0.0,0.0,0.0,135.21593235396722
6.9055,620.5489,-1.3315516193967591,5.201357382016928,-4.42858500334592,-1.1560687841082748,2.4671788848410396,0.8574206936377703,-3.761205524351137,18.895036246006924,-47.78211177349205,119.368042,143.04594066373596,0.0,119.368042,0.3635818605293027,0.03989117,0.46127209,0.80835944,1.0,0.0,0.0,0.0,137.35933198180717
6.9108,620.5689,-2.1356726936565673,4.739654571369541,-5.250749811103602,-1.2935473322438065,2.1916160654296766,0.8674016910709714,-4.3026366992154905,19.339832030923297,-47.39547894169351,121.552711,146.0557105013875,0.0,121.55271099999999,0.3485974157460261,0.06148865,0.47287133,0.80690253,1.0,0.0,0.0,0.0,139.1968984553805
6.9315,620.5888,-2.9878458110120496,3.915445919656809,-5.7555268602971905,-1.3826775494158057,1.7684933266507348,0.9972212195622818,-4.526267983566431,19.855190048384944,-46.837633220464504,123.999947,148.802656725638,0.0,123.99994700000002,0.3339772852087366,0.07831709,0.48197195,0.80624354,1.0,0.0,0.0,0.0,140.97928162120138
6.9555,620.6089,-3.784125176360349,2.7672136447126725,-5.97396576710571,-1.38396032149845,1.2547237029967153,1.1671985540346852,-4.702252338985538,20.391341505439375,-46.11085896089959,127.039032,151.57987878066206,0.0,127.03903200000002,0.3167953851832863,0.08957581,0.48960993,0.80740261,1.0,0.0,0.0,0.0,143.06153273056844
6.9695,620.6289,-4.395169013322805,1.3759566682120035,-5.944083357383252,-1.2560920364539045,0.7280496393713118,1.282771773545304,-4.901157758412172,20.778408539993116,-45.328971632718236,130.276428,154.32614515639455,0.0,130.276428,0.2979495126303384,0.0960981,0.49747723,0.80901647,1.0,0.0,0.0,0.0,145.3310247081767
6.989,620.6489,-4.7138870952158864,-0.09497150125582321,-5.684546618109503,-0.9781958995482392,0.2566353109927868,1.2820336978592408,-5.103519998714269,20.937605187703348,-44.598982637934384,133.281479,156.87857293326744,0.0,133.281479,0.2797311242454315,0.10014027,0.50615746,0.80964625,1.0,0.0,0.0,0.0,147.51168395206346
7.0091,620.6689,-4.7031131137011535,-1.418298232147544,-5.20752360520206,-0.5616008630504061,-0.12329244452069216,1.1412793614277106,-5.2739255964476115,20.896443559019147,-43.9774258043484,135.954102,159.14959426086546,0.0,135.95410200000003,0.2633142956360624,0.10307512,0.51503867,0.80918247,1.0,0.0,0.0,0.0,149.46637599734112
7.029,620.6889,-4.400391733358951,-2.331599136696015,-4.5365478560949475,-0.0462883182454947,-0.4000907809773326,0.8696920830676038,-5.283825807830391,20.697491369567842,-43.5114074278458,138.088074,160.98175579451183,0.0,138.088074,0.2498635351346042,0.10482544,0.52322412,0.80797052,1.0,0.0,0.0,0.0,151.06112590384134
7.0511,620.7089,-3.9050904171453205,-2.617271505558856,-3.709193983149132,0.506318054562196,-0.5829795559468365,0.5110379005068011,-4.990023053422858,20.49901610850776,-43.18476581782708,139.55191,162.20126894985577,0.0,139.55191000000002,0.2405045162869971,0.10528746,0.52898413,0.80699933,1.0,0.0,0.0,0.0,152.16736154940875
7.0785,620.7289,-3.326187397196536,-2.207803065469664,-2.7623031465339443,1.0209414575014562,-0.7007042918279133,0.13104151063008196,-4.397573350330632,20.626904700364783,-42.86837704178739,140.670197,162.7943641922308,0.0,140.67019700000003,0.2364916094477258,0.10762899,0.52973771,0.80738199,1.0,0.0,0.0,0.0,152.6408712694729
7.0963,620.7489,-2.721785392569975,-1.2793409586890814,-1.721946861466039,1.4206277319873337,-0.7881168182695257,-0.2076036395567522,-3.6002251426650815,21.332096725445595,-42.42834459867501,141.855316,162.82392111452143,0.0,141.85531600000002,0.2378465505346615,0.1139626,0.52346915,0.81019849,1.0,0.0,0.0,0.0,152.48104638128555
7.1211,620.7699,-2.0906930439605,-0.1817781667385754,-0.6052575527392392,1.6551550680039822,-0.8571054654132934,-0.4624924698037831,-2.8011817667443406,22.546499290792408,-41.84428972283883,143.241531,162.45596600232332,0.0,143.241531,0.2416297105724289,0.12182643,0.51087028,0.81595647,1.0,0.0,0.0,0.0,152.0345056466552
7.1313,620.7899,-1.4098513802195995,0.7669824476542462,0.522397766295823,1.7089136357163408,-0.9027388653764379,-0.6219635091663639,-2.2593054477143912,23.936729194400375,-41.23911214854283,144.574051,161.91675837888778,0.0,144.574051,0.2453134186474343,0.12864627,0.49550799,0.82325166,1.0,0.0,0.0,0.0,151.5992869067791
7.1555,620.8099,-0.6865663136117042,1.3199544469134907,1.5262113823240746,1.5965178538241747,-0.9180614390808997,-0.6970596467999335,-1.9402672291042578,25.38346841047058,-40.666832106458386,145.384567,161.0610784413022,0.0,145.384567,0.2503693723835272,0.13410844,0.47839168,0.83094615,1.0,0.0,0.0,0.0,151.0012583804002
7.1737,620.8299,0.015212939410395698,1.4003655702320392,2.2802697350358656,1.3649160695433191,-0.884425637570767,-0.7042492739787166,-1.7969044527457108,26.64758380517233,-40.26687343902416,145.323349,159.81024705263397,0.0,145.323349,0.2576231378715248,0.13702165,0.46165362,0.83769405,1.0,0.0,0.0,0.0,150.14185166338737
7.1953,620.8499,0.5894213215403301,1.0874166192649461,2.733795859426426,1.0768390284206957,-0.7835843531375724,-0.6691575117431536,-1.8431638543179378,27.541326307444912,-40.155064364865545,144.496384,158.28948850912906,0.0,144.49638400000003,0.2664163875084336,0.1367583,0.44722658,0.84279764,1.0,0.0,0.0,0.0,149.09773645514784
7.2102,620.8699,0.988992791312215,0.5679583916906639,2.910064247927469,0.7889296176141664,-0.6138918528590185,-0.626189649689508,-2.2370502122673344,27.98443350481412,-40.35760213007991,143.476517,156.90797140749086,0.0,143.476517,0.2744823708387177,0.13495031,0.43664747,0.84604186,1.0,0.0,0.0,0.0,148.1376615439831
7.2316,620.8899,1.1943165455782498,0.028418166498648034,2.870655836710222,0.5389917968741158,-0.39692180139610056,-0.5999622797604336,-2.9156706604743903,28.084494949648498,-40.761467325950335,142.579712,155.80622053207034,0.0,142.57971199999997,0.2811729282645345,0.13345896,0.42920643,0.84788698,1.0,0.0,0.0,0.0,147.3395575947116
7.2545,620.9099,1.2196508840196008,-0.3741260459947311,2.682232242773141,0.34170268406698245,-0.17157222074639797,-0.5964839318585239,-3.6738195469185193,27.96645338366238,-41.25631922396529,141.763123,154.89131841495956,0.0,141.763123,0.2875747207495337,0.13394196,0.42402002,0.84827316,1.0,0.0,0.0,0.0,146.57437266417426
7.2707,620.9299,1.1128348184627446,-0.5481993769876734,2.395167208571504,0.195617746119771,0.020531135400574108,-0.6052942144338616,-4.434932003204441,27.739459931522372,-41.76647474922628,141.106979,154.19275147317774,0.0,141.10697900000002,0.2933966686891598,0.13673826,0.42071694,0.84747761,1.0,0.0,0.0,0.0,145.87716103013196
7.2896,620.9499,0.9528808102375859,-0.5052149302424773,2.024915178648934,0.09228623897544178,0.14797185259580145,-0.6058857111272711,-5.148005810098681,27.551115074887115,-42.21695165564183,140.670166,153.692533447242,0.0,140.670166,0.2986082285225653,0.14207759,0.41847467,0.84588772,1.0,0.0,0.0,0.0,145.25194145808726
7.312,620.9699,0.8186876252166604,-0.30225990986380546,1.5673904447864544,0.030796690010159472,0.20449362267116988,-0.5762980144162518,-5.743773173645327,27.43168638858744,-42.61434085043106,140.311981,153.29367299668198,0.0,140.311981,0.3037585160492183,0.149299,0.41721222,0.84343022,1.0,0.0,0.0,0.0,144.63302230627988
7.3348,620.9899,0.7199354371485125,-0.007327980438821324,1.0520783383741676,0.024124204173326586,0.2180454884218434,-0.5038371185056538,-6.058407894237202,27.318231831161228,-43.01256657193718,139.721573,152.79713965576664,0.0,139.72157300000003,0.3096262383601722,0.15579867,0.41681063,0.84031379,1.0,0.0,0.0,0.0,143.92658534078265
7.3544,621.0099,0.6432782708656086,0.32526391772419716,0.583496516641743,0.08651921311898773,0.24583389437422748,-0.3922435762939871,-6.1103421854588476,27.182881193825907,-43.38838714685269,138.953568,152.23212683557702,0.0,138.95356800000002,0.3156072166513481,0.160578,0.41697127,0.83710319,1.0,0.0,0.0,0.0,143.2050504151252
7.3696,621.0299,0.5387208066382594,0.6815584324309141,0.32971069713104484,0.21890550045661708,0.3561251617590534,-0.26221157635091374,-6.036367363040718,27.053656710976238,-43.65796758049042,138.331482,151.78335015064243,0.0,138.331482,0.3201814063650459,0.16387226,0.41717064,0.83462471,1.0,0.0,0.0,0.0,142.6522081511285
7.3911,621.0499,0.3133967861826319,1.03771154108543,0.4470014895185095,0.39929806463973294,0.6042336842996484,-0.1414897524298489,-5.889928295765959,27.106110009906295,-43.675308852281034,138.188599,151.52191751503136,0.0,138.188599,0.3225973533190455,0.16685697,0.41556835,0.83390206,1.0,0.0,0.0,0.0,142.35985051011548
7.4202,621.0699,-0.14011572323527588,1.3548641022850578,0.9822598846898298,0.5852139374980685,1.0036700456411127,-0.05252496426690478,-5.681692708058591,27.35091808000105,-43.42496001165885,138.573761,151.46587314077038,0.0,138.573761,0.3230029699757517,0.17061904,0.41207668,0.83471614,1.0,0.0,0.0,0.0,142.31074130879952
7.4371,621.0909,-0.7771960301396841,1.4445315887407437,1.8320987737682053,0.7361842618578532,1.5101478431982285,-0.008455110030479274,-5.757493811059227,27.96404576929335,-42.756975121029654,140.120117,151.97020740458095,0.0,140.120117,0.3202459578178294,0.18145725,0.40642843,0.83626056,1.0,0.0,0.0,0.0,142.64439996198925
