AppTimestamp(s),SensorTimestamp(s),acc_x,acc_y,acc_z,gyro_x,gyro_y,gyro_z,mag_x,mag_y,mag_z,yaw_deg_ori,yaw_deg_ori_cal,yaw_deg,yaw_error,Quat_w,Quat_x,Quat_y,Quat_z,q_w,q_x,q_y,q_z,quat_angle_error_deg
0.0534,82715.4278,2.202644932357657,-1.943058848759744,-0.9641984288128445,0.2528114267158475,0.4192572924879133,-0.43502446680652984,-0.0524096327349266,12.713065989687287,-36.52918615186547,-178.48587,-179.00040103632588,0.0,178.48587,0.0983155552674859,0.18044634,-0.43372902,-0.8772983,1.0,0.0,0.0,0.0,168.71563820007876
0.0614,82715.4479,1.076940684077817,-0.726042679127664,0.02291800778626296,0.28833262948369803,0.44988662903273463,-0.5328870953059816,0.016001992164972667,12.818203390630389,-36.495786462061965,-178.448471,-178.9762003367752,0.0,178.448471,0.0953990774275664,0.17488416,-0.43261629,-0.87929386,1.0,0.0,0.0,0.0,169.05142082245104
0.0683,82715.4679,0.34214473214302843,0.2662216344102859,0.7656503652611537,0.2705650461340058,0.4508489928860861,-0.5878823186916375,-0.23493998715151554,13.093283369456724,-36.374932992385084,-178.055893,-178.71280431725756,0.0,178.055893,0.091388516483654,0.16391976,-0.42892963,-0.88362765,1.0,0.0,0.0,0.0,169.51301508673583
0.0743,82715.4878,0.03754422771376284,0.8868008841927741,1.1310814025883467,0.18635900763545968,0.43190746567039606,-0.5898277357221333,-0.327901083301268,13.304856472166778,-36.24769108885681,-178.30452,-178.87502359201002,0.0,178.30452,0.083862143961705,0.15311326,-0.42599908,-0.88772082,1.0,0.0,0.0,0.0,170.3788062098227
0.0788,82715.5079,0.07055662505965551,0.9972726125471159,1.142470284807498,0.04604113841332116,0.4467424749906762,-0.5780049754570796,-0.28215674878496755,13.44779349592022,-36.14054484264732,-178.660522,-179.1072846380286,0.0,178.660522,0.0784503032357727,0.14761606,-0.423372,-0.89039946,1.0,0.0,0.0,0.0,171.00101066055382
0.1029,82715.5279,0.22112416233803373,0.7123507079436155,0.9390778304222636,-0.1156961887183159,0.5303263719345126,-0.607681108015724,-0.15640399029786833,13.439105144244792,-36.11088386047358,-178.725967,-179.1480677852139,0.0,178.725967,0.0785701858884485,0.14902391,-0.42248127,-0.89057744,1.0,0.0,0.0,0.0,170.987230585613
0.1116,82715.5479,0.422026261051856,0.2687620651444025,0.6292903281785946,-0.24841445039803872,0.6732876043545528,-0.6877840237826472,-0.18289688834790307,13.358708559950289,-36.14115001467623,-178.765793,-179.18063782251056,0.0,178.765793,0.0767213786543304,0.14506651,-0.42432833,-0.8905139,1.0,0.0,0.0,0.0,171.19972985317384
0.1375,82715.5679,0.520535191315871,-0.1378184987303408,0.2567841298692777,-0.305185639164336,0.8297340508938176,-0.7764362448847558,-0.4261852034103205,13.278941078228323,-36.196288485093945,-178.659531,-179.12418697186985,0.0,178.659531,0.0727027303877194,0.13426261,-0.42806628,-0.89075649,1.0,0.0,0.0,0.0,171.66152398594056
0.154,82715.5879,0.4621914506514694,-0.39952850979489796,-0.11199821527925735,-0.2567940488356193,0.9458659194725794,-0.8295128930470658,-0.7518483795690812,13.172787618942143,-36.264450784710476,-178.380112,-178.96291778729184,0.0,178.380112,0.0684608023846281,0.12069046,-0.43308413,-0.89060938,1.0,0.0,0.0,0.0,172.14882884058264
0.1714,82715.6079,0.35148365706093754,-0.4863784113137486,-0.3565001417505158,-0.10272750888251214,0.9961147694091703,-0.8238350110009008,-1.028577944461416,13.082389650257438,-36.31462342497419,-178.040314,-178.76958915698805,0.0,178.040314,0.064076539056521,0.1065325,-0.43786561,-0.89040369,1.0,0.0,0.0,0.0,172.6523356207635
0.1914,82715.6278,0.3073225591672678,-0.37379258175183594,-0.35960325200872667,0.11984975359113872,0.9822284882802554,-0.7537513962449787,-1.1377459191532788,13.084994122156163,-36.32253582906259,-177.657639,-178.54632435614167,0.0,177.657639,0.0608525833891368,0.0949862,-0.44042516,-0.89067405,1.0,0.0,0.0,0.0,173.02249674653712
0.2128,82715.6478,0.4473457933758825,-0.08155352445790331,-0.08239756768609219,0.35565452922047985,0.9166492755288073,-0.6136226214527162,-1.054947623721176,13.329968400609053,-36.25065016856233,-177.364487,-178.36119974430974,0.0,177.364487,0.057485746976201,0.08506037,-0.43870732,-0.89274633,1.0,0.0,0.0,0.0,173.40898510401635
0.2314,82715.6679,0.8798949930047437,0.32381560947527266,0.43308369462791774,0.5518841907809962,0.8030846557615935,-0.4052418337303799,-0.925149411902088,13.748642178670112,-36.13259666283448,-176.998993,-178.1119558584664,0.0,176.998993,0.0537865701138763,0.07384393,-0.43351766,-0.89650238,1.0,0.0,0.0,0.0,173.83353737750724
0.2629,82715.6879,1.5909425137248694,0.7189279722544377,1.1223746449021057,0.6783909580833467,0.6519222354484306,-0.14279001165634095,-0.7121057045916896,14.151347758823572,-36.03845976549677,-176.730942,-177.91282041806275,0.0,176.730942,0.0495817650767542,0.06240076,-0.42728096,-0.90059912,1.0,0.0,0.0,0.0,174.31601774541534
0.2756,82715.7079,2.323499338559128,1.0893871709362184,1.9761346924696621,0.7027161827185109,0.4999271124828538,0.1483712982191391,-0.24359801998649622,14.294093025161095,-36.05076802921939,-176.509735,-177.74596125036214,0.0,176.509735,0.0496991798484333,0.06014238,-0.42282826,-0.90284503,1.0,0.0,0.0,0.0,174.3025463955385
0.2966,82715.7279,2.9745207113677563,1.3764625034224345,2.9579367525535485,0.5914461360894597,0.3613001346211223,0.4156126339449946,0.26902796883888613,14.388871222609913,-36.06574069136795,-176.423035,-177.66009762375907,0.0,176.423035,0.0502578085427991,0.06055126,-0.41796046,-0.90505069,1.0,0.0,0.0,0.0,174.2384521627577
0.3161,82715.7479,3.3536176002742137,1.5374914959007313,3.935932848533989,0.29243562131978335,0.24123573423380576,0.5906076567787756,0.6569293732443198,14.689473696117085,-35.978238835705355,-176.192383,-177.45535303069212,0.0,176.192383,0.0524575354215055,0.06282505,-0.40966842,-0.90855545,1.0,0.0,0.0,0.0,173.98604888838923
0.3355,82715.7679,3.259771430645511,1.6960129728085205,4.687842150609551,-0.22400752438800237,0.14124985196511997,0.602603589215984,0.947831467810569,14.993613467129375,-35.86927392208677,-175.583267,-176.98191852969572,0.0,175.583267,0.0593674533704355,0.07026641,-0.40118191,-0.91136777,1.0,0.0,0.0,0.0,173.19298841680705
0.3536,82715.7879,2.698932377755124,2.0057700641054597,4.955887352177246,-0.9084209049258135,0.031095015436636342,0.4323480479755698,1.1438401289350768,15.058455971787808,-35.83876641201349,-174.380951,-176.10873137886247,0.0,174.380951,0.0729302005204587,0.08384331,-0.39689964,-0.9111104,1.0,0.0,0.0,0.0,171.63538844823455
0.3853,82715.8079,2.1484228786915085,2.439996255128974,4.467583383534823,-1.612550081466162,-0.10974055090484659,0.20021542623747957,1.142637241118345,14.722251710749727,-35.956467341726,-173.360748,-175.43995922684422,0.0,173.360748,0.0820242382196207,0.08923845,-0.40091228,-0.9080627,1.0,0.0,0.0,0.0,170.5901429324202
0.3934,82715.8279,1.80699913242483,2.911091831352598,3.1074454034879455,-2.156459414074347,-0.24275117232451018,0.11408714849397486,1.1983207336053034,13.76069352072161,-36.2975439412457,-173.469467,-175.71213432935852,0.0,173.469467,0.0790309502369813,0.08300684,-0.41817629,-0.9011063,1.0,0.0,0.0,0.0,170.93426618200556
0.4274,82715.8479,1.3842403694514196,3.032225464188964,1.0779760393076323,-2.369010633627772,-0.37076087613021613,0.27522925883393917,1.6287710111356608,12.67391680637549,-36.655988439068985,-174.620361,-176.70510150429308,0.0,174.620361,0.0716391463322238,0.08045014,-0.44303635,-0.89000809,1.0,0.0,0.0,0.0,171.78372040119507
0.4329,82715.8679,0.825790930355148,2.5856621727572273,-1.1859975307993658,-2.1714235402436266,-0.4932826173813689,0.6916584113052979,2.0709576367813627,12.01252833582541,-36.898402824680524,-175.578522,-177.48922433323457,0.0,175.578522,0.0707496484576267,0.08697673,-0.46751624,-0.87684554,1.0,0.0,0.0,0.0,171.8859086596862
0.453,82715.8879,0.2356317314956653,1.6778040194157207,-3.21373660253722,-1.621755513881171,-0.5591617713277739,1.2924100554719895,2.1795549752030055,12.323824549049881,-36.91583374064378,-175.736008,-177.69993602659838,0.0,175.736008,0.0770318926469019,0.09800144,-0.48279053,-0.86681896,1.0,0.0,0.0,0.0,171.16404195620157
0.4773,82715.9079,-0.3723696115294824,0.7572953613704536,-4.755139545296921,-0.8699513272481436,-0.5453119784009165,1.9453377533683482,1.9490999400896871,13.346695399512164,-36.75987273123453,-174.975266,-177.34277454092347,0.0,174.975266,0.0891647928393928,0.11147204,-0.48874739,-0.86066812,1.0,0.0,0.0,0.0,169.76887986615185
0.5057,82715.9289,-0.9909907590802245,0.19028280783976292,-5.743852655502766,-0.09207592225018849,-0.44959734882001945,2.512063693111638,1.4126741395556652,14.60283860131061,-36.50306096047581,-173.166763,-176.3614714196604,0.0,173.166763,0.1062784368252551,0.12523264,-0.48753855,-0.85751259,1.0,0.0,0.0,0.0,167.79834446119273
0.5207,82715.9488,-1.622495083706254,0.09722663468959225,-6.224070102513851,0.5559044493716505,-0.28183107925330475,2.872390111969527,0.38048774986131706,15.94645426263753,-36.12868922393919,-169.445969,-174.1475144241899,0.0,169.445969,0.1340699612466488,0.14145024,-0.47733146,-0.85683823,1.0,0.0,0.0,0.0,164.59031259292897
0.5335,82715.9689,-2.348439482891788,0.40928117861028346,-6.312873803049757,0.905459476214034,-0.04296062549626556,3.0010290928876815,-0.5620674303962856,17.168600760667836,-35.68406358335298,-165.514023,-171.4168239015328,0.0,165.514023,0.1657630099001554,0.16229852,-0.46027765,-0.85692841,1.0,0.0,0.0,0.0,160.91687575353572
0.5523,82715.9889,-3.2297831826426853,0.8600762192141032,-6.1209464927870805,0.9084819619963475,0.19913829368597846,2.986586325601366,-0.9234446445176312,18.209690177892114,-35.250000339883115,-162.830597,-169.04305309837892,0.0,162.830597,0.1904993292812082,0.18200506,-0.44034275,-0.85830206,1.0,0.0,0.0,0.0,158.0361481771582
0.5722,82716.0088,-4.10861439074893,1.0638189709815777,-5.669054329287012,0.737450231502321,0.37896281108260554,2.9319923106183996,-1.3683480500173317,18.899892052480045,-34.9524815446218,-159.936646,-166.4315437987818,0.0,159.936646,0.2081779118428152,0.1845208,-0.42118275,-0.86326075,1.0,0.0,0.0,0.0,155.96881087768776
0.5924,82716.0289,-4.875952509924467,0.5606543386165859,-5.082786966593257,0.5119594724881326,0.4991770646489786,2.9144329385585266,-2.239619690441101,19.042441932923253,-34.90656955336328,-155.638718,-162.81242986494433,0.0,155.638718,0.2320447369975546,0.18051566,-0.40452924,-0.86598235,1.0,0.0,0.0,0.0,153.1650321809499
0.6134,82716.0489,-5.354846598030288,-0.7211458902804682,-4.46077727436214,0.3425007502599603,0.5636773205139609,2.9029439769909287,-3.3699526243111624,18.64614421243448,-35.10113596270879,-150.138748,-158.2794991195676,0.0,150.138748,0.2643813176955643,0.17717397,-0.39172941,-0.86328441,1.0,0.0,0.0,0.0,149.33961231147856
0.6336,82716.0689,-5.383195012876451,-2.3926947981521143,-3.7887813692625887,0.3152894944676433,0.5965190907109033,2.814573197598062,-4.4052241840983015,17.939371539346556,-35.425438145513446,-144.420044,-153.5746869935824,0.0,144.420044,0.2984970900315304,0.17401136,-0.3827545,-0.85680717,1.0,0.0,0.0,0.0,145.26528557396963
0.6528,82716.0889,-4.979652080072102,-3.9322017725824145,-2.997963048630478,0.4487670687557974,0.6409202141395509,2.5926694388552063,-5.235539815301298,17.027925443961397,-35.8439430954336,-138.913696,-149.13990172927586,0.0,138.913696,0.33031148431049,0.1687196,-0.377518,-0.84847403,1.0,0.0,0.0,0.0,141.42463518936287
0.688,82716.1089,-4.2997969222611765,-5.020826458545141,-2.0724766737174507,0.6903000383545627,0.6974154854269555,2.233446130557676,-5.8482370714725604,16.18751399278608,-36.246116640169106,-134.15036,-145.22256437729303,0.0,134.15036,0.3573323106736046,0.16117744,-0.37260655,-0.84113008,1.0,0.0,0.0,0.0,138.12709161089938
0.7024,82716.1299,-3.498825959842649,-5.602716097000256,-1.040372432786537,0.9407766621278855,0.7548045182987054,1.7654110061121484,-6.237060703758301,15.58317421968874,-36.58685755970464,-130.503204,-141.92212270027963,0.0,130.503204,0.3788563727956279,0.15298142,-0.36547449,-0.83635694,1.0,0.0,0.0,0.0,135.47427652980954
0.7191,82716.1499,-2.6800200977958086,-5.778740577957688,0.1059141654119955,1.0920259931293335,0.8117079782913756,1.2280643854749815,-6.375281655575547,15.19615845788546,-36.900832246839585,-128.018982,-139.2865657463102,0.0,128.018982,0.3950960706852907,0.14579935,-0.35613078,-0.83415377,1.0,0.0,0.0,0.0,133.45606824420022
0.7456,82716.1699,-1.9381683757376003,-5.655136860171845,1.4469095785631367,1.0635074071369108,0.8662936372914154,0.6579141774903577,-6.2246078429093235,14.83619194893591,-37.27379738709137,-126.504829,-137.44559463053557,0.0,126.504829,0.4059033105933664,0.13965884,-0.34743395,-0.83368313,1.0,0.0,0.0,0.0,132.10450875445392
0.7661,82716.1899,-1.3176643405072168,-5.403740425563432,3.0323124487137925,0.8286977788911435,0.8936093403348081,0.08663160908050449,-5.953846943098643,14.555955555700946,-37.622278492791594,-125.895668,-136.38255820834848,0.0,125.895668,0.4111182855744194,0.1327989,-0.3389425,-0.8357417,1.0,0.0,0.0,0.0,131.44979373752625
0.7779,82716.2099,-0.8400462588600828,-5.174312131106521,4.802523018003161,0.4189632183456142,0.8650995212581282,-0.4554371820426496,-5.690393294052903,14.328147950001995,-37.876532705248664,-125.933029,-135.96008652331474,0.0,125.933029,0.4117438954176586,0.12430645,-0.33118463,-0.83984023,1.0,0.0,0.0,0.0,131.37113848738224
0.7995,82716.2299,-0.46199043580239696,-4.845718992312383,6.572461665660558,-0.06957262485033888,0.743142703818953,-0.9496233430442325,-5.533604341028024,13.72652358418047,-38.113606112783486,-126.065781,-136.12518124168642,0.0,126.065781,0.408507935633897,0.11003479,-0.32914194,-0.84420329,1.0,0.0,0.0,0.0,131.7777198850126
0.8141,82716.2499,-0.20727647873372845,-4.360823651525195,7.95002790477324,-0.5154142271272765,0.5143305907899913,-1.367989770172849,-5.280162906345485,12.911704376836322,-38.25615322827491,-126.480049,-136.90364982420317,0.0,126.480049,0.4010586074347296,0.09363233,-0.33252776,-0.84841633,1.0,0.0,0.0,0.0,132.7112523289405
0.8338,82716.2699,-0.09187478845340458,-3.4907998147493964,8.613453119341631,-0.8398034190855859,0.19132159511344238,-1.701412252858622,-4.7806550006355515,11.793849282595383,-38.35885716811546,-127.119705,-138.3580813504801,0.0,127.119705,0.3890152189928709,0.07689197,-0.34353086,-0.85131741,1.0,0.0,0.0,0.0,134.21352535661177
0.8547,82716.2898,-0.056972398207831176,-2.4537636470238127,8.345173890113013,-1.0599911626188119,-0.14963581090318678,-1.9468730226173463,-4.0813603150829,10.96697196403671,-38.28548736261159,-128.63652,-140.54372718261666,0.0,128.63652,0.3709616564919443,0.06278531,-0.35576338,-0.85549861,1.0,0.0,0.0,0.0,136.45012529039002
0.8779,82716.3099,-0.04249721528611783,-1.47256564803486,7.2323347964117985,-1.255953277106636,-0.42989521271013564,-2.137544451640207,-3.3012222184121693,10.602675976511978,-38.065480115311175,-130.952835,-143.19862151329764,0.0,130.952835,0.3490150486085494,0.0534573,-0.36674303,-0.86071503,1.0,0.0,0.0,0.0,139.14583415356304
0.8974,82716.3299,-0.047114266076616396,-0.6529004936593799,5.593797992017558,-1.4948592884640992,-0.6040867301133712,-2.3294191063204495,-2.549328340791284,10.513508789142646,-37.80654887345811,-133.526474,-145.9888192516539,0.0,133.526474,0.3265677538094246,0.04942119,-0.3778891,-0.86493403,1.0,0.0,0.0,0.0,141.8788320730487
0.9155,82716.3498,-0.04567510999195257,0.0215819438252689,3.7942779344663826,-1.8026997419466078,-0.6668897586632074,-2.559898183576328,-2.031233999662186,10.419834905556282,-37.59587747248489,-135.953827,-148.75395703047667,0.0,135.953827,0.3042746294571411,0.04592508,-0.39138383,-0.86725229,1.0,0.0,0.0,0.0,144.57094158244013
0.9376,82716.3699,-0.015826960926686784,0.6186086197051068,2.0715848711406615,-2.153459079792059,-0.6477896090598483,-2.8218568386037504,-1.881117623483508,10.13175760337685,-37.47272203984499,-138.126419,-151.51085149377,0.0,138.126419,0.2800422929097945,0.03657626,-0.40884522,-0.86780417,1.0,0.0,0.0,0.0,147.47454220670127
0.9684,82716.3899,0.009905873062207693,1.1641281448171834,0.49458012150497765,-2.4604399661925793,-0.5975707987856562,-3.0831910695807676,-1.9450644413590688,9.700587927298944,-37.402898349261925,-140.121948,-154.29689692488012,0.0,140.121948,0.252663383386002,0.02132246,-0.43028212,-0.86635089,1.0,0.0,0.0,0.0,150.72965271333692
0.976,82716.4099,0.05160930039421707,1.6606336673606878,-0.9573421807912794,-2.631786438505887,-0.5628654134980469,-3.302408488244887,-1.9955006391761128,9.2910344389807,-37.32639662558794,-142.186264,-157.17593705532332,0.0,142.186264,0.2214426228996173,0.00283713,-0.45432627,-0.86286891,1.0,0.0,0.0,0.0,154.412441375824
1.0075,82716.4299,0.189816941418409,2.069322328740639,-2.3076377178385066,-2.6249618515359865,-0.5669755298035795,-3.4395864665976905,-1.9616492274433064,9.161657782293624,-37.17619014384434,-144.540146,-160.04187429853386,0.0,144.540146,0.1875230484472258,-0.01625839,-0.47745904,-0.85825616,1.0,0.0,0.0,0.0,158.38346539901838
1.0337,82716.4499,0.5010874153821685,2.3359909024006953,-3.562196805851963,-2.4560719076184796,-0.6090838190363741,-3.4718091879402433,-1.8603334069006827,9.494562916120042,-36.917320369301365,-147.389664,-162.78368027379582,0.0,147.389664,0.1526141438600217,-0.03431551,-0.49638262,-0.85389441,1.0,0.0,0.0,0.0,162.44309891944823
1.0493,82716.4699,1.0222170511321573,2.405080993915445,-4.714882218755006,-2.1685811651794555,-0.6678671806409757,-3.4073026756123963,-1.6360552666110095,10.302446439189348,-36.55166423768745,-151.126221,-165.51485933271186,0.0,151.126221,0.1167235001972628,-0.05036804,-0.50960964,-0.85096222,1.0,0.0,0.0,0.0,166.59391219975808
1.0614,82716.4899,1.7326033715316282,2.273663042778695,-5.736620061086936,-1.7957479693559177,-0.740409797679447,-3.273154555079721,-1.279017349878555,11.363954712517256,-36.13006984560273,-155.594818,-168.2420945060952,0.0,155.594818,0.0822719421604344,-0.06177907,-0.51837856,-0.84893954,1.0,0.0,0.0,0.0,170.56166188947913
1.0769,82716.5099,2.5933566462274165,1.9916066774707248,-6.550945652196574,-1.3545978913650853,-0.8068976760910822,-3.0909039167508228,-0.751067112241369,12.48973012677721,-35.700261380872746,-161.001556,-171.13730882662523,0.0,161.001556,0.0489104598331962,-0.06761516,-0.52374989,-0.84777474,1.0,0.0,0.0,0.0,174.3930371109047
1.0993,82716.5299,3.5413886153963396,1.6263414333867106,-7.074660778385119,-0.8604587264784012,-0.8623114496301414,-2.850751856672536,-0.11908688589347616,13.518398767248542,-35.30339247757975,-167.319962,-174.22391481874647,0.0,167.319962,0.0155540220971627,-0.07003976,-0.52656972,-0.84709907,1.0,0.0,0.0,0.0,178.2175684839342
1.1199,82716.5499,4.4777203182956455,1.193472534934592,-7.2596936339252665,-0.3272604142588743,-0.920186656864747,-2.5326059309885887,0.5508549623293708,14.464390355425234,-34.92045022695413,-174.383377,-177.46044632290256,0.0,174.383377,0.0188815136304099,0.07210685,0.52598011,0.8472243,1.0,0.0,0.0,0.0,177.83620933393163
1.1346,82716.5699,5.304159735103076,0.7600222755119914,-7.07161120060007,0.25149673811492107,-1.0122840459642382,-2.1345840371093088,1.2728800504849835,15.395768580511284,-34.508504047165594,178.196091,179.17349386771537,0.0,178.19609100000002,0.0515200616198307,0.0702721,0.52129632,0.84891558,1.0,0.0,0.0,0.0,174.0936209499857
1.154,82716.5899,6.036717005247014,0.500573809632179,-6.499520397966848,0.8507740728510189,-1.150582332172719,-1.6673376753152156,1.8597008171344491,16.180851175630544,-34.13247768327953,171.533615,176.01975029237605,0.0,171.533615,0.0775784646103986,0.06210694,0.51466024,0.85161561,1.0,0.0,0.0,0.0,171.10122143012202
1.1753,82716.6099,6.694080534064195,0.4906423545767722,-5.428222863637064,1.4200444363703255,-1.298654116220829,-1.1458165346307299,2.7468657130789036,17.02159131210629,-33.68625650216948,164.805527,172.48055692705657,0.0,164.80552699999998,0.101580014237434,0.04519304,0.50267023,0.85729909,1.0,0.0,0.0,0.0,168.33967602288484
1.194,82716.6299,7.276654429897317,0.6710906662360432,-3.867030953804999,1.8598729936597405,-1.4296913925311392,-0.595488361142545,3.7119776030946094,17.995995069308368,-33.1423720035548,159.370941,168.97542319137045,0.0,159.37094100000002,0.1233408436197787,0.02580395,0.48398352,0.86595678,1.0,0.0,0.0,0.0,165.83009665045054
1.2167,82716.6499,7.6997772098428054,0.8973555985809214,-1.8783324702653363,2.1193575652339978,-1.5050625137548177,-0.04286775457109504,4.512839318278246,19.050437645164777,-32.56115170412526,155.957016,165.96960832277304,0.0,155.957016,0.1397575907668513,0.00545127,0.4597365,0.87697232,1.0,0.0,0.0,0.0,163.93236136517913
1.2375,82716.6699,7.781841325878587,1.0135688289046696,0.4449446624651525,2.188168204808588,-1.4826498632414205,0.5136534645369977,5.175901735077621,19.942138300668383,-32.09490175222628,154.010727,163.51718356260253,0.0,154.01072699999997,0.1501285855410815,-0.01800299,0.4334335,0.88841021,1.0,0.0,0.0,0.0,162.73124330042646
1.2628,82716.6899,7.287619491668372,0.9123024240543205,2.955997195063274,2.062290671671544,-1.3490950047214048,1.0809880154811835,5.877064118916538,20.421274982704197,-31.887367591470763,152.695633,161.4143782710658,0.0,152.695633,0.1569518222609641,-0.0446258,0.40868801,0.89796925,1.0,0.0,0.0,0.0,161.93997374456126
1.2887,82716.7099,6.149654385059974,0.5737434884727506,5.3793992156521,1.7660810176397745,-1.1195636705293974,1.616548493595526,6.291941748698613,20.56052292745013,-31.955864914040887,152.530762,160.18808415619046,0.0,152.53076199999998,0.1574104868717098,-0.06943312,0.38633388,0.90617168,1.0,0.0,0.0,0.0,161.88675310739376
1.2975,82716.7298,4.464310208781992,0.040710952932128563,7.449316998449746,1.3352532321354142,-0.8431797686792636,2.07239911292952,6.192618956841064,20.447904128721866,-32.26993481910633,153.82077,160.23796784315772,0.0,153.82077000000004,0.1486607696986323,-0.08978479,0.36679354,0.91394812,1.0,0.0,0.0,0.0,162.9013516389227
1.3148,82716.7499,2.595977973124631,-0.6486155360622714,8.940457198136606,0.8141280734945131,-0.5853234679308712,2.3983854737874832,5.473767657829697,20.099353915600688,-32.78964054968482,156.524979,161.70370861490423,0.0,156.52497900000003,0.1304235554836821,-0.1026171,0.35112047,0.92150629,1.0,0.0,0.0,0.0,165.0118627106428
1.3366,82716.7699,0.662852316417399,-1.3736987026017324,9.758438840879908,0.2119125512894518,-0.38752459809630413,2.5734533880050465,4.718542436566803,19.484114034680356,-33.382643094978235,159.786758,163.87733073591605,0.0,159.78675799999996,0.105814737801496,-0.11563911,0.33991754,0.92730087,1.0,0.0,0.0,0.0,167.8517817801044
1.3538,82716.7898,-0.9268202275784918,-1.9575194278335228,9.82647813083831,-0.41417620993794824,-0.2680562711239134,2.5805034198914063,4.064640177072707,18.606981407811496,-34.01384656804701,163.194046,166.42675985063255,0.0,163.19404599999996,0.0777843723604235,-0.12815513,0.3350141,0.93021041,1.0,0.0,0.0,0.0,171.07755462441764
1.3738,82716.8099,-1.9735539474762782,-2.1902971109627547,9.179095608491135,-1.0061381348615144,-0.21662318353941967,2.450568306502505,3.7040728079755785,17.55374033874719,-34.61757386358875,166.215515,168.84766081269052,0.0,166.21551499999998,0.0501498519031463,-0.14099556,0.33719555,0.92946458,1.0,0.0,0.0,0.0,174.25083870192583
1.3963,82716.8299,-2.4096646076235007,-2.0494134147515686,7.90286294956169,-1.502153645379384,-0.213901048318335,2.254444898812739,3.5917374850556048,16.604578267656887,-35.075028816566864,168.635269,170.8681254610795,0.0,168.635269,0.0259732440547795,-0.15240732,0.34432772,0.9260323,1.0,0.0,0.0,0.0,177.02335072753658
1.4186,82716.8498,-2.3844302315161823,-1.595254358458007,6.131152646908795,-1.862354789888132,-0.2254196263084709,2.068781494399794,3.6480175866518154,15.819967127093788,-35.39713516945109,170.476669,172.46749786825825,0.0,170.47666900000002,0.0050431518597946,-0.16284373,0.3559505,0.92019331,1.0,0.0,0.0,0.0,179.4220949162828
1.4354,82716.8699,-2.1026627813485694,-1.0060917601767665,4.058306717513323,-2.0612516116920045,-0.22940742851799434,1.9439867727807518,3.7432588806589338,15.174731788139116,-35.64507339519636,172.056366,173.86850244069663,0.0,172.05636600000003,0.0150432069230823,0.17280044,-0.3715331,-0.91207284,1.0,0.0,0.0,0.0,178.27611044294687
1.4543,82716.8899,-1.7661158176843,-0.4681909313582331,1.927599254513126,-2.0954709725235707,-0.21767644662634422,1.8919179639516819,3.7983461464803785,14.716036483877803,-35.84860698561954,173.604477,175.21918347541612,0.0,173.60447699999997,0.0353071664301807,0.18201175,-0.38900423,-0.90238619,1.0,0.0,0.0,0.0,175.95325568093392
1.4733,82716.9098,-1.4902579281059147,-0.04745614036455592,-0.03726868752645274,-1.9867094787340434,-0.1965190095124013,1.8976941991171103,3.6364621493608222,14.52768459034299,-36.02013774223682,175.602615,176.82458613059643,0.0,175.60261500000001,0.0574635629446458,0.18957473,-0.40535387,-0.89243913,1.0,0.0,0.0,0.0,173.4115314159186
1.4935,82716.9298,-1.331261461615801,0.2922026790101251,-1.7346035291635982,-1.7927431172606543,-0.1709645277891636,1.9229453482182834,3.3019846074487025,14.662998650596133,-36.118862495673355,178.071594,178.64827095683233,0.0,178.071594,0.0808999641521679,0.19661376,-0.41799748,-0.8832193,1.0,0.0,0.0,0.0,170.71940486734485
1.5131,82716.9499,-1.1899562331948508,0.5832872218330731,-3.181867874482914,-1.5704316166044465,-0.1309715662986195,1.9415918922884907,2.7809899346536624,15.133904411535486,-36.079354754153684,-179.046585,-179.34456679750036,0.0,179.046585,0.1037118525268799,0.20161647,-0.42526916,-0.87620819,1.0,0.0,0.0,0.0,168.09408809526587
1.5354,82716.9699,-1.0057388735043484,0.8394292329212774,-4.4491751260517205,-1.366892156503795,-0.04584837798784269,1.9294788671551968,2.2335388306692545,15.720755814917265,-35.912165461410446,-176.042267,-177.30825126916986,0.0,176.042267,0.1254646732888551,0.20615382,-0.42901561,-0.87046242,1.0,0.0,0.0,0.0,165.58481827854848
1.5534,82716.9899,-0.8470084097222692,1.0468204155261283,-5.540408363140251,-1.2028837882013204,0.11923362552322303,1.8732940845457808,1.86675127274902,16.227795545742957,-35.67587939527222,-173.215836,-175.4102973028173,0.0,173.215836,0.1467464196871504,0.21326719,-0.43160635,-0.86411721,1.0,0.0,0.0,0.0,163.12315281586666
1.5741,82717.0099,-0.8999725541803496,1.2181362668402302,-6.341343311216053,-1.0648959660757245,0.37330602527538614,1.7905691252622526,1.6668557800790702,16.595768175240252,-35.45014578157658,-170.498032,-173.60106132539383,0.0,170.498032,0.1676811800752748,0.22164315,-0.43430358,-0.85681838,1.0,0.0,0.0,0.0,160.69394951300595
1.5946,82717.0299,-1.3912671914854282,1.3841789189124012,-6.712015022047764,-0.9281346462545244,0.6715608667892818,1.7314507183529217,1.5237324432196147,16.7711924686066,-35.34476628026055,-167.605988,-171.7494695986058,0.0,167.605988,0.1880934703539311,0.22763848,-0.43844888,-0.8488605,1.0,0.0,0.0,0.0,158.3169156570306
1.6143,82717.0499,-2.360304584909249,1.4904056947941378,-6.577511882573305,-0.7491475491873896,0.9082493069433699,1.779985837880719,1.1004695615903417,17.03784559164928,-35.30089363884899,-163.874176,-169.3969801757181,0.0,163.874176,0.2077021482512851,0.22538717,-0.44039336,-0.84386855,1.0,0.0,0.0,0.0,156.02454768879463
1.6336,82717.0699,-3.584726383014311,1.399093676143294,-6.012775018031701,-0.4929389050783618,0.9933535019766845,1.9885684674097757,0.3763667890622102,17.479106881241943,-35.29030374609439,-159.300125,-166.46510914016892,0.0,159.300125,0.2272972445067485,0.21594457,-0.43866456,-0.84218603,1.0,0.0,0.0,0.0,153.7239974533659
1.6542,82717.0899,-4.629539697588195,0.9030332795001859,-5.1561099787406395,-0.10064236544455446,0.8984785796501565,2.3399100366241337,-1.0513845832557038,18.277566576769935,-35.1685344019313,-153.357315,-162.24857966483728,0.0,153.357315,0.2516225688314382,0.19957964,-0.42831579,-0.84462988,1.0,0.0,0.0,0.0,150.85290351724657
1.6744,82717.1099,-5.348059979863455,-0.013388101032129507,-4.350337372394253,0.3619661615526223,0.7371044498964804,2.707021636982364,-2.1918207571742343,18.7891119403197,-35.20187001542476,-147.818207,-158.04256601141614,0.0,147.818207,0.2795440967325998,0.19183987,-0.41852874,-0.84254748,1.0,0.0,0.0,0.0,147.53400626099625
1.7093,82717.1299,-5.7054454905834655,-1.2458748466617036,-3.654382573048352,0.8282682995971213,0.6013651833744944,2.9882333235069267,-3.013214359789563,19.226554107840283,-35.258813645662144,-142.978882,-153.77349227814221,0.0,142.978882,0.309589649326934,0.1941392,-0.40590832,-0.83767694,1.0,0.0,0.0,0.0,143.9309947968458
1.7227,82717.1518,-5.675381132911968,-2.6045702373052935,-2.9165545971530236,1.2493483851375378,0.519950644901296,3.0849926236654373,-4.024172416641193,19.73534019400431,-35.194096000000386,-138.314621,-148.79308913613346,0.0,138.314621,0.3416231878959807,0.19755316,-0.38613448,-0.83376646,1.0,0.0,0.0,0.0,140.0484033241422
1.7377,82717.1719,-5.294779807465772,-3.9279859409026208,-2.110910716249574,1.5440441151797462,0.4841945803651304,2.947313076873008,-5.187774640885042,20.13509393094585,-35.1065541500733,-133.84874,-143.32113302361157,0.0,133.84874,0.3739992146675553,0.19868128,-0.3615419,-0.83062494,1.0,0.0,0.0,0.0,136.07505660739645
1.7689,82717.1919,-4.681059783141922,-5.052526593822036,-1.3318537049222385,1.6477756774610945,0.4764028825279265,2.6016547112851676,-5.938621810467319,20.184479307402967,-35.26799023907298,-130.10173,-138.46599775475914,0.0,130.10173,0.4018581831452987,0.19813314,-0.3395341,-0.8270247,1.0,0.0,0.0,0.0,132.6112120334315
1.7799,82717.2118,-3.9362441984307077,-5.877120974635005,-0.624443664881916,1.5693116212301415,0.48934614783932195,2.1038515039991474,-6.086300332199865,19.857924222103534,-35.787514219908125,-127.066597,-134.64856209988537,0.0,127.066597,0.4239428277563563,0.19643018,-0.32382908,-0.82269216,1.0,0.0,0.0,0.0,129.8324676260013
1.8109,82717.2319,-3.161662974789376,-6.3419172274661335,0.053767282762400725,1.3449299945721775,0.524798041557836,1.507208410417964,-5.728290543516678,19.28657654954421,-36.55281639604254,-124.628174,-131.81301269510476,0.0,124.628174,0.4408140712794316,0.19408995,-0.31428117,-0.81807053,1.0,0.0,0.0,0.0,127.68833274918659
1.8247,82717.2519,-2.425092689157963,-6.440833186920846,0.8099404374674073,0.9973953986093572,0.576098222084642,0.8555742328876277,-5.173268059223872,18.687405515288475,-37.310308122425155,-122.697098,-129.694078062832,0.0,122.697098,0.4536204097093043,0.1906517,-0.30788842,-0.81430042,1.0,0.0,0.0,0.0,126.04759191641965
1.8418,82717.2719,-1.7813355819349157,-6.237545630627606,1.7450228995994728,0.5315995215610612,0.6222458514032508,0.19994496316364258,-4.604779223899115,18.243961495201013,-37.85373712045381,-121.524048,-128.4249371166432,0.0,121.524048,0.4611370443337225,0.1847188,-0.30257908,-0.81343561,1.0,0.0,0.0,0.0,125.07899347420833
1.8587,82717.2919,-1.2134553734132885,-5.824003598010682,2.917681774609573,-0.031452472349610516,0.6478512306744896,-0.40579084869624016,-4.094505667493326,17.799416774225513,-38.191833156670945,-121.106819,-128.23516823636893,0.0,121.106819,0.4622499722605611,0.17349754,-0.3001737,-0.81616133,1.0,0.0,0.0,0.0,124.93522066706124
1.8755,82717.3119,-0.6783775427437115,-5.304779216984375,4.266943899116535,-0.6306867218532104,0.6416156313069459,-0.9230797135819387,-3.6318279307380195,17.09385726629917,-38.425998888315,-120.889145,-128.73492767632698,0.0,120.889145,0.4596823945130383,0.1583765,-0.30347562,-0.81945807,1.0,0.0,0.0,0.0,125.2667701978567
1.8951,82717.3319,-0.23937654058374314,-4.704865066001073,5.6579957247892825,-1.1597398141826696,0.5863530681460243,-1.3455271610481445,-3.1150548933635456,16.057433316243767,-38.61373622871547,-120.629608,-129.7242037982096,0.0,120.629608,0.4545704847562273,0.1415617,-0.31400889,-0.82141608,1.0,0.0,0.0,0.0,125.92539626216576
1.9152,82717.3518,0.03159692869805397,-4.022060046380352,6.920940734250795,-1.5183049657065792,0.4732506817100464,-1.6736267590256075,-2.593807764380937,14.971136861007752,-38.686745443119875,-120.552597,-131.16102185675265,0.0,120.552597,0.4462793018082001,0.12402594,-0.32878143,-0.82301587,1.0,0.0,0.0,0.0,126.98956557108653
1.9355,82717.3719,0.16789484006334554,-3.0523160370686155,7.891403361789326,-1.6732840029620415,0.28163226537596076,-1.9006082669980386,-2.2397556599757316,13.789463033105188,-38.73032627828638,-120.567863,-132.97852015300356,0.0,120.567863,0.4345418349039467,0.10288054,-0.34733465,-0.82458937,1.0,0.0,0.0,0.0,128.48771258566023
1.9555,82717.3919,0.19101496521090056,-1.8679557164698406,8.317159265213416,-1.6717143711317288,0.012610358917247044,-2.0280687700327307,-1.9653726918292378,12.897351317601377,-38.67969830926141,-121.009331,-135.0528131733971,0.0,121.009331,0.4194402090345714,0.08225578,-0.36564371,-0.82680625,1.0,0.0,0.0,0.0,130.4014988129444
1.9755,82717.4119,0.14414803092052075,-0.7618732836833253,8.024569934150477,-1.6205621100086325,-0.2985603619074082,-2.0840732800786466,-1.6128576835327202,12.698411523872078,-38.44891802215925,-122.297722,-137.32161237722164,0.0,122.297722,0.4016128345525802,0.06728637,-0.37937722,-0.83081442,1.0,0.0,0.0,0.0,132.64191331823426
1.9954,82717.4319,0.08326321510213575,0.13973587113270547,7.0312629911224285,-1.6223449646889314,-0.6158785533508072,-2.1172475612532655,-1.0936427683305254,12.933509904524234,-38.10334753162215,-124.201645,-139.79529223669263,0.0,124.201645,0.381977526890539,0.05816475,-0.39068165,-0.83551055,1.0,0.0,0.0,0.0,135.08754173838494
2.0178,82717.4519,0.04721513794601062,0.8408244698348035,5.4830244830243196,-1.7109270287090204,-0.9120890881991083,-2.171374800947748,-0.45649241432773735,13.074685973255622,-37.756546751632456,-126.085785,-142.40519464973067,0.0,126.085785,0.3618270657677036,0.05263776,-0.40437371,-0.83832711,1.0,0.0,0.0,0.0,137.57511028468986
2.0354,82717.4719,0.07657955436219765,1.3906025418074663,3.580332142584936,-1.8491629408318073,-1.1700427647368943,-2.2629469605743497,0.11614830881948279,12.767093954090209,-37.49212888441828,-127.455307,-145.06565662994637,0.0,127.455307,0.3416543094430189,0.04730241,-0.42352733,-0.83765113,1.0,0.0,0.0,0.0,140.04460874270296
2.0708,82717.4919,0.15909859253535608,1.781241070760617,1.5330895687285704,-1.9651625111539421,-1.3689168895652535,-2.390683804518187,0.5749623717832648,12.200467754441267,-37.252363192290254,-128.645111,-147.90021786893067,0.0,128.645111,0.3199035980696195,0.04189308,-0.44619083,-0.83475769,1.0,0.0,0.0,0.0,142.6858099864485
2.0751,82717.5119,0.32559717226209317,2.0341223456518396,-0.485562585128374,-2.0134374855341672,-1.4889864618046182,-2.5280125991003497,0.856512310360058,11.75430872116031,-36.96617379503336,-130.322342,-150.96744869370644,0.0,130.322342,0.2948425721531771,0.03596805,-0.46806505,-0.83227956,1.0,0.0,0.0,0.0,145.70380489610838
2.0967,82717.5319,0.5934122757653912,2.182279384988399,-2.3623592049601374,-1.9753094790505838,-1.5312657606701747,-2.636646007786112,0.9737989511141851,11.61813213194126,-36.657324509810984,-132.829376,-154.21117340103532,0.0,132.829376,0.2665843840089835,0.0303044,-0.48706278,-0.83113432,1.0,0.0,0.0,0.0,149.07776313533859
2.1203,82717.5518,0.9695944411521354,2.1965272121739874,-4.017683600260742,-1.8522040988718276,-1.5108263934446284,-2.686018934973484,0.9882876677280272,11.79153858547837,-36.39281608985003,-136.209183,-157.5481993045753,0.0,136.209183,0.2362505959715725,0.02593219,-0.50300038,-0.83096558,1.0,0.0,0.0,0.0,152.66929482189028
2.1362,82717.5719,1.4434929143967699,2.023345524376292,-5.392350555992142,-1.6575383167767272,-1.4498557454823588,-2.6615235602659055,0.8777404134033233,12.201004634627033,-36.21945364502515,-140.19722,-160.7727174191207,0.0,140.19722,0.2060168530954459,0.02292036,-0.51600248,-0.83112764,1.0,0.0,0.0,0.0,156.22193773168792
2.1554,82717.5918,1.9726595350672476,1.6490495885768583,-6.458889479729004,-1.4007182520102508,-1.3659637776119513,-2.5677342314428953,0.6807956869265439,12.801613295909892,-36.12685672744709,-144.75499,-163.83566701467083,0.0,144.75499,0.1765788344843853,0.02109672,-0.52601224,-0.8316766,1.0,0.0,0.0,0.0,159.6589007508352
2.1755,82717.6119,2.507858453801581,1.1174203239948661,-7.224199467011773,-1.0753153682573733,-1.2777607646565825,-2.4147092674423516,0.5442839063925398,13.540797933868298,-36.075755045009736,-150.127701,-166.88529299901563,0.0,150.127701,0.1472157403588861,0.0210932,-0.53337735,-0.83270115,1.0,0.0,0.0,0.0,163.0687821243024
2.1961,82717.6319,3.0434440627895434,0.524653320789957,-7.747002968119353,-0.6904599467225221,-1.2281266864834521,-2.1853742563097915,0.24644048795001616,13.965237196269882,-36.18229079349357,-154.934998,-169.54788469557369,0.0,154.934998,0.1201774325364336,0.01916472,-0.54238337,-0.83127034,1.0,0.0,0.0,0.0,166.19531435640107
2.2273,82717.6518,3.5730162043742877,-0.07261765958422217,-8.048584542307003,-0.24157237080815858,-1.2046397454843252,-1.902187729340419,-0.20953456856337915,14.292081854031734,-36.312754506046566,-159.376236,-171.78776932723244,0.0,159.376236,0.0957698393856965,0.01568437,-0.55018306,-0.82938576,1.0,0.0,0.0,0.0,169.00873920607577
2.2366,82717.6719,4.083578550979098,-0.5896207615692852,-8.115397472014827,0.27463529667201686,-1.1896175188831837,-1.5999119706112521,-0.5884531607217331,14.740691268809446,-36.331225680594194,-164.306717,-173.91324900594006,0.0,164.306717,0.0730255429568564,0.01411493,-0.55407083,-0.82914025,1.0,0.0,0.0,0.0,171.62443379989148
2.2633,82717.6919,4.5557284645594835,-0.8963811000972546,-7.92070774837868,0.8349696222833584,-1.1643643593683208,-1.310791961487714,-0.8615849579102746,15.375272087961713,-36.17465002809061,-169.606766,-175.94974142844455,0.0,169.606766,0.0537839934289666,0.01727757,-0.55254745,-0.83156484,1.0,0.0,0.0,0.0,173.8338330718586
2.2763,82717.7118,4.962208215451411,-0.9005634833099772,-7.453337467589527,1.3834789345917038,-1.1194849179558906,-1.060416300368742,-1.0636210557299557,16.175890966496627,-35.8258949186996,-174.682541,-177.8428032430298,0.0,174.682541,0.0371739536023368,0.02268447,-0.54500681,-0.83729988,1.0,0.0,0.0,0.0,175.73919698108153
2.3043,82717.7319,5.301593026774513,-0.525891619905112,-6.707832111922473,1.8737618258300675,-1.0611427801994688,-0.8464171140655449,-1.213879964067225,16.996907214948685,-35.34304952362456,-178.952133,-179.54672853042484,0.0,178.952133,0.0234515859975692,0.02982997,-0.53253317,-0.84555817,1.0,0.0,0.0,0.0,177.31239980750576
2.3162,82717.7519,5.549478011819571,0.1811888583571708,-5.630748251144807,2.27162922673616,-1.0186893496102316,-0.6007324424506507,-0.6727350790080504,17.66129656978734,-34.850300438034935,175.763123,178.019945465213,0.0,175.763123,0.0060291604936405,0.04325139,-0.51728511,-0.85469824,1.0,0.0,0.0,0.0,179.30910491360956
2.3403,82717.7728,5.745465401276894,0.9767783503668312,-4.315158574295495,2.540796053050374,-1.0143154168433623,-0.29591289196202103,0.4340174359347735,18.50492855378541,-34.17768399225937,170.379501,175.02821445420795,0.0,170.379501,0.0156419817118236,-0.05980487,0.4950715,0.8666504,1.0,0.0,0.0,0.0,178.20748782818103
2.3583,82717.7929,5.943018828966028,1.7144178784947317,-2.917268206529287,2.693986203546433,-1.0206158006934647,0.06813798557996364,1.4236045201529386,19.227810230440628,-33.49460960599082,166.811493,172.45654521851284,0.0,166.81149300000004,0.0324154047559141,-0.07831912,0.46952304,0.87884212,1.0,0.0,0.0,0.0,176.28481741215722
2.3784,82717.8129,6.0921736476632,2.2608665855687495,-1.5114707175728128,2.7632885934579603,-1.0201068094491976,0.49775958813649857,2.3123692797469992,19.686023770903528,-32.95596548713276,164.466141,170.26001751760828,0.0,164.466141,0.0443685249014692,-0.09990943,0.44343701,0.88961405,1.0,0.0,0.0,0.0,174.9140719640218
2.3966,82717.8329,6.195868138144195,2.551211515933208,-0.15465057759559997,2.783650356563773,-1.0041828220958435,0.9549257678672478,2.897567117449838,20.00906002076476,-32.57840869574769,163.417297,168.70300335119188,0.0,163.41729699999996,0.0515386488750308,-0.12028978,0.41642848,0.89970076,1.0,0.0,0.0,0.0,174.09148817399932
2.4187,82717.8529,6.138474163039492,2.6666815188985185,1.2186208193129993,2.7765518050926628,-0.9397481650901364,1.416627204761031,3.1414732094839826,20.268257921010825,-32.37469592626775,163.548874,167.90932709727366,0.0,163.548874,0.0526549928843735,-0.14016461,0.38828969,0.90929228,1.0,0.0,0.0,0.0,173.96339061530375
2.4401,82717.8729,5.629383097921755,2.7034446614051464,2.763927010029734,2.7107524749167413,-0.7880705998098759,1.8703584960414843,3.2962281204656216,20.41846953917973,-32.35727292760178,164.380753,167.67888366770958,0.0,164.38075300000003,0.0485193728673328,-0.16237946,0.35977393,0.91751921,1.0,0.0,0.0,0.0,174.4379056476787
2.4572,82717.8929,4.281573817794131,2.5727638650023517,4.598928168877681,2.511334503915928,-0.5408879455351715,2.284606363316731,3.574531287214554,20.546043974441137,-32.42165496587128,165.733871,167.91830728555104,0.0,165.73387100000002,0.0402194535878853,-0.1879705,0.32950062,0.92438024,1.0,0.0,0.0,0.0,175.38994666627863
2.4793,82717.9129,1.9860802168838694,1.9477452797526356,6.601568572572724,2.1289315511899667,-0.2624153426604814,2.586813946012371,3.773920306071865,20.751346183973993,-32.482505092021206,167.876907,168.9999194956345,0.0,167.87690699999996,0.0277381746043851,-0.21111834,0.29628703,0.93106049,1.0,0.0,0.0,0.0,176.8210315855703
2.5022,82717.9339,-0.7439279879414744,0.6560979995395781,8.471107435729717,1.6039407593451949,-0.03139591927014884,2.699181775089577,3.2248719055880057,20.73634923935818,-32.772199292910386,171.442184,171.82930967893233,0.0,171.442184,0.0061076296231869,-0.22260964,0.26476434,0.93824703,1.0,0.0,0.0,0.0,179.30011284814728
2.5218,82717.9539,-3.3867404395745675,-1.1112500415827231,9.954139776341915,0.9695125322716086,0.06269248188109922,2.6254771860233066,2.425868021985305,20.06996253138073,-33.46832489690956,175.446533,175.52368112860034,0.0,175.446533,0.0208491328647718,0.22602884,-0.24233896,-0.9432646,1.0,0.0,0.0,0.0,177.61069223945012
2.5389,82717.9739,-5.459260391472501,-3.0445497602719103,10.76352710407599,0.29605625873397173,-0.05130906638659882,2.388379972284509,1.9528081300975066,18.995782404211106,-34.333980834066864,179.130676,179.13087261557865,0.0,179.130676,0.0478037372069358,0.22775498,-0.2281297,-0.9454096,1.0,0.0,0.0,0.0,174.5200067289256
2.5583,82717.9939,-6.5922286953407525,-4.464746871544674,10.745546774813075,-0.3216524448995702,-0.3330163204536347,2.027513892246443,2.014088450060205,17.56302857212559,-35.29946673258904,-177.900101,-177.88703812298814,0.0,177.900101,0.0721164050650918,0.23064592,-0.22453043,-0.94402742,1.0,0.0,0.0,0.0,171.72888875347442
2.6053,82718.0138,-6.777624872634078,-5.009711172723895,9.923369770646826,-0.8357661267259406,-0.6971262291164545,1.6001690521355298,2.6781128453247485,16.156320344237347,-36.126298527383625,-175.805435,-175.76194025969232,0.0,175.805435,0.0922813380360024,0.23830819,-0.22859161,-0.93938237,1.0,0.0,0.0,0.0,169.41027109863933
2.6222,82718.0339,-6.201177201688072,-4.650176784870185,8.494081434279977,-1.2521198528742514,-1.0394278377370985,1.1553344364344258,3.789068382288718,15.20921353799665,-36.60741044279412,-174.713852,-174.62119493742628,0.0,174.713852,0.1065104359795869,0.25129735,-0.23587771,-0.93266654,1.0,0.0,0.0,0.0,167.77160755777203
2.6248,82718.0549,-5.082002371750814,-3.5606587766996576,6.764324537729909,-1.6075261084588248,-1.276539415184004,0.7351339941900958,4.895287620990516,14.849622221572593,-36.73815677458323,-174.319214,-174.16171599779864,0.0,174.319214,0.1163709423187346,0.26690149,-0.2442217,-0.92497414,1.0,0.0,0.0,0.0,166.63458956702058
2.6416,82718.0749,-3.6827750216127595,-1.942570758802698,4.969460069824548,-1.9389622462767078,-1.3726972764169885,0.3820676069229785,5.6710227473469015,14.71793295597653,-36.73439661118699,-174.364853,-174.18000126702134,0.0,174.364853,0.1240829623757276,0.28172758,-0.25687268,-0.91610557,1.0,0.0,0.0,0.0,165.74439777962075
2.6665,82718.0949,-2.2095348587445987,-0.1708457416569411,3.166196437540716,-2.2525853480474636,-1.3433099574231813,0.11832974033203436,5.973860848948032,14.642825547056427,-36.731411618494406,-174.691818,-174.54607338108644,0.0,174.691818,0.1306580357607432,0.29361552,-0.2743181,-0.90634871,1.0,0.0,0.0,0.0,164.98476134199447
2.6829,82718.1149,-0.8589307046814006,1.4375839353601032,1.3459804057729396,-2.5210933273542913,-1.226732638939906,-0.05631928265866126,5.927908821129317,14.552738793035832,-36.77740779684842,-175.232559,-175.17449127614196,0.0,175.232559,0.1370319979484963,0.30373436,-0.29578897,-0.89525223,1.0,0.0,0.0,0.0,164.247726110404
2.7005,82718.1349,0.34623035385635326,2.6757281143118097,-0.46448109801332116,-2.71073787675102,-1.0580060807906237,-0.11417944377291533,5.317717016133584,14.522016394489224,-36.88745835295758,-175.548965,-175.62112114138705,0.0,175.548965,0.144047911689394,0.30816886,-0.31814685,-0.88490945,1.0,0.0,0.0,0.0,163.43570048503875
2.7211,82718.1549,1.242556506974482,3.488041370096222,-2.2242236962680257,-2.7952887991919666,-0.8671986423134026,-0.058146185059405775,4.56096065860264,14.563998592769451,-36.97247469188822,-175.913345,-176.12138991863085,0.0,175.913345,0.1504460952687537,0.31061125,-0.34048769,-0.87461692,1.0,0.0,0.0,0.0,162.69444138261298
2.7403,82718.1749,1.8173062542711762,3.890386631806043,-3.8659654025162418,-2.766416885436596,-0.6769091375647609,0.12940252852157236,3.741165334888011,14.760661772675661,-36.97163303377425,-176.176224,-176.51002734349922,0.0,176.176224,0.1566929929849818,0.31163192,-0.36086112,-0.86493474,1.0,0.0,0.0,0.0,161.97000497679846
2.7591,82718.1949,2.0646448553824253,3.930013928489908,-5.327336607084135,-2.6363171353553896,-0.49532636452518736,0.44707569584678175,3.0360535217212905,15.247845125913125,-36.81567719617574,-176.368027,-176.79239897655256,0.0,176.368027,0.1628646816996869,0.31376886,-0.3773098,-0.85595649,1.0,0.0,0.0,0.0,161.25357622569317
2.7838,82718.2149,2.014861965690764,3.6614953910629304,-6.580756483233626,-2.427505200413599,-0.31668940908379273,0.8878716855066362,2.4412606051404833,16.084662779343972,-36.507679461252486,-176.299805,-176.7997921223429,0.0,176.299805,0.1701022462785444,0.31780308,-0.38873237,-0.8479113,1.0,0.0,0.0,0.0,160.41247215503685
2.7991,82718.2349,1.6990252057634059,3.136308533134742,-7.6172807849402355,-2.1578049336761005,-0.12496851936242603,1.426542984286804,1.8405657095401968,17.20375144725222,-36.11370388936402,-175.593475,-176.21757567886837,0.0,175.593475,0.180619765244236,0.32348952,-0.39519662,-0.84056568,1.0,0.0,0.0,0.0,159.18827709978123
2.8196,82718.2557,1.1363479393107727,2.4151635252493153,-8.417603761973636,-1.843394864612421,0.11903681088493878,2.008706157796368,1.1924050597298663,18.298694510350128,-35.796519827814116,-174.03479,-174.8906657079048,0.0,174.03479,0.1962169610129272,0.32984257,-0.39961359,-0.83247328,1.0,0.0,0.0,0.0,157.36835232639157
2.8423,82718.2759,0.2942185607219582,1.568572958586949,-8.929598349209844,-1.5133765891166198,0.47959003609455864,2.5489346319904573,0.4165455657396784,18.659028001015436,-35.92218982691521,-171.018066,-172.44459966779692,0.0,171.018066,0.2218997946337382,0.33529887,-0.40846834,-0.81944418,1.0,0.0,0.0,0.0,154.35871676397997
2.8768,82718.2959,-0.8777358221102292,0.5804522392578052,-8.988133549456764,-1.2124953273069823,0.885279249059913,2.972303863176743,-0.3589086744168233,19.266164384435946,-35.92637267436373,-166.922775,-168.9604231411526,0.0,166.922775,0.2507037995662751,0.34156084,-0.40984792,-0.80777997,1.0,0.0,0.0,0.0,150.9616733683569
2.8941,82718.3158,-2.37482706213455,-0.5908308525267587,-8.534797822924407,-0.9587273724905975,1.2585103929241064,3.2374625745235357,-1.222093282920099,19.952440481746297,-35.797125897986945,-161.439575,-164.02160108722265,0.0,161.439575,0.2829965703521599,0.34556437,-0.4045403,-0.79802591,1.0,0.0,0.0,0.0,147.1217377919647
2.9082,82718.3359,-3.9769375869490795,-2.0235646295824514,-7.536166044599936,-0.7282814449001744,1.5048936773511534,3.330918889931283,-2.2318668705345823,20.576855867601548,-35.53647250443472,-154.434875,-157.40474728616832,0.0,154.434875,0.3187035064001859,0.34421092,-0.39355549,-0.79060799,1.0,0.0,0.0,0.0,142.83092688232117
2.9216,82718.3557,-5.2612488077895465,-3.678548510710538,-6.07716896218496,-0.48206945187408745,1.5741407707699366,3.257958332733504,-3.145198059961885,21.015344161626462,-35.23029337158157,-146.676956,-149.87263514359725,0.0,146.676956,0.3555177939751944,0.33736962,-0.3798655,-0.78453237,1.0,0.0,0.0,0.0,138.34963578480398
2.9741,82718.3758,-5.783907847133186,-5.328668113915212,-4.3223130534889584,-0.15675372006096355,1.5066440849364822,3.0365302290879423,-4.0551109377177905,21.04701170765729,-35.07710953694566,-138.14183,-141.91741114254384,0.0,138.14183,0.3939437593211042,0.32247013,-0.3663041,-0.77887267,1.0,0.0,0.0,0.0,133.59976938809294
2.979,82718.3959,-5.483408534902209,-6.6469171330117245,-2.6153141887144793,0.23049659605771478,1.384754886317553,2.689068761528281,-4.413666677585994,20.719016320387382,-35.20217623449363,-130.435104,-135.23081139974093,0.0,130.435104,0.4282332778936375,0.30443373,-0.35682771,-0.77240556,1.0,0.0,0.0,0.0,129.28901666458864
2.9833,82718.4159,-4.627168922918282,-7.495432237882495,-1.2516793365563608,0.6110015918491908,1.2793165076941113,2.245391712238126,-4.041619799186648,20.297790061257714,-35.5230856095952,-124.373642,-129.95799135364516,0.0,124.373642,0.4564878882013169,0.29111964,-0.35032451,-0.76429111,1.0,0.0,0.0,0.0,125.67858298420667
3.0078,82718.4359,-3.5472396714933447,-7.891255723583935,-0.23330046295964024,0.921053496187572,1.2321288828275594,1.7157710414159015,-3.3408036909729386,20.059670697568393,-35.81756512296755,-119.922958,-125.47434128108533,0.0,119.922958,0.4796110432852887,0.28361762,-0.3418951,-0.75673115,1.0,0.0,0.0,0.0,122.67999655721424
3.0209,82718.4558,-2.5666833502091757,-7.874558719587492,0.6730674082238295,1.0968369584729465,1.2374517031787606,1.0890037755580415,-2.6802140322308823,19.953664091050328,-36.03681139799332,-116.976631,-122.00833634233295,0.0,116.976631,0.496760928267119,0.276169,-0.3303425,-0.75354701,1.0,0.0,0.0,0.0,120.42812976758493
3.0397,82718.4759,-1.8764740752950395,-7.589622664690024,1.6951905893749277,1.0666768019690522,1.253494070651687,0.38476516190842924,-2.1729021931450916,19.768647238876333,-36.252059453757695,-115.071533,-119.44577054961829,0.0,115.071533,0.5093886445138472,0.26791471,-0.31730443,-0.75369942,1.0,0.0,0.0,0.0,118.75376752537426
3.0687,82718.4959,-1.5478552693303822,-7.11774376296634,2.9976344427044133,0.832375635768912,1.2208126330523765,-0.34450540912845096,-1.6994269157836577,19.254017300089874,-36.57806122590266,-113.959602,-118.15549748272743,0.0,113.959602,0.5166876852748089,0.25688326,-0.30713686,-0.75677723,1.0,0.0,0.0,0.0,117.77934183889224
3.0802,82718.5159,-1.4882912819471459,-6.474832659929176,4.58488805998676,0.4590569282688346,1.0946901767011377,-1.0254529215099524,-1.1792377978444364,18.304332883577516,-37.03976682909067,-113.596451,-118.4124773568436,0.0,113.596451,0.5174158238828563,0.24122041,-0.302834,-0.76314163,1.0,0.0,0.0,0.0,117.6818616819127
3.1036,82718.5359,-1.5369836965440777,-5.797167366855016,6.229358192623682,0.03673270440149712,0.8842365493018307,-1.5801741204812347,-0.580782926619527,17.299942189748187,-37.42201248766677,-114.324036,-120.00662603872074,0.0,114.324036,0.5107387387091419,0.22411592,-0.30212027,-0.77307266,1.0,0.0,0.0,0.0,118.57390141451384
3.126,82718.5559,-1.6321070437423923,-5.161102277353926,7.658594242802252,-0.34369270776523353,0.6244817800085148,-1.9854030180647677,0.17618887549597417,16.43434754431871,-37.64306954748885,-115.936974,-122.45732602671485,0.0,115.936974,0.4981904353749227,0.2095232,-0.30466205,-0.78427505,1.0,0.0,0.0,0.0,120.23929558437668
3.1399,82718.5759,-1.6949796901957157,-4.314020313171691,8.701392577240075,-0.6400406404228947,0.3082643682425463,-2.27589147472154,0.892171512220763,15.296807597325511,-37.89618525834971,-117.3395,-125.20033177841178,0.0,117.3395,0.4841282888319975,0.19433528,-0.3140468,-0.79323906,1.0,0.0,0.0,0.0,122.08924791749413
3.1594,82718.5959,-1.7380060882799135,-3.343442320002997,9.142929686064978,-0.867514328819768,-0.03938676986857148,-2.4948466936290683,1.503741958021628,14.30864846964938,-38.02721296264236,-118.844269,-128.02998974646852,0.0,118.844269,0.4687315301080679,0.1812671,-0.32565755,-0.80086213,1.0,0.0,0.0,0.0,124.0960222572259
3.1801,82718.6159,-1.7382269489693307,-2.33092666781446,8.9061089527453,-1.092508199018204,-0.3909301233522722,-2.6947457191627073,1.942897293769903,13.716930912513064,-37.98628692138638,-120.788414,-130.97100387476178,0.0,120.788414,0.4513145116418089,0.17060369,-0.33611187,-0.80885005,1.0,0.0,0.0,0.0,126.34389404744655
3.2098,82718.6359,-1.715418635572548,-1.252732281317476,8.03031635141729,-1.3714408023924505,-0.7299159603224137,-2.916616279321003,2.2873302064802665,13.313384512765857,-37.87055730337235,-123.127708,-134.20811661683476,0.0,123.127708,0.4311861426594968,0.16134104,-0.34761316,-0.81683087,1.0,0.0,0.0,0.0,128.91428137885788
3.2233,82718.6559,-1.7440686238928604,-0.10906587175785631,6.613026275447144,-1.7009829399940606,-1.0399106355272254,-3.1800964841429167,2.710999086431908,12.772445582844103,-37.780630781842085,-125.654427,-137.94688803983726,0.0,125.654427,0.4079379676564811,0.15360503,-0.36466792,-0.82280582,1.0,0.0,0.0,0.0,131.84926637423916
3.2476,82718.6769,-1.8277294010935927,1.0635018912656484,4.799863433560148,-2.040685911195017,-1.301659031709494,-3.479299794793576,3.286719808785101,11.869518281594372,-37.76658042609695,-128.386841,-142.50437569705608,0.0,128.386841,0.3796607501301187,0.14553916,-0.39044043,-0.82597357,1.0,0.0,0.0,0.0,135.3746593460185
3.2666,82718.6969,-1.8391608408944502,2.072732111135514,2.781613117779422,-2.3542305007241415,-1.496966478300962,-3.787454501261444,3.6141406682312436,10.962537931483416,-37.74046340171532,-131.006775,-147.14991108577678,0.0,131.006775,0.3496348644158701,0.13588341,-0.41957054,-0.82659042,1.0,0.0,0.0,0.0,139.07003315341925
3.281,82718.7168,-1.7256596944810347,2.8524226402300084,0.733895819541198,-2.6222713705335075,-1.6074296499480651,-4.072630253203557,3.6100349012225283,10.359818188526551,-37.65294567520646,-133.812225,-151.70250836962916,0.0,133.812225,0.3170859180431226,0.12317488,-0.44829389,-0.82662994,1.0,0.0,0.0,0.0,143.02643043103765
3.3035,82718.7369,-1.4817616645713934,3.363649247809169,-1.2093567985340847,-2.8191844751403643,-1.6213705699478973,-4.312243047498119,3.3974565194145807,10.296206885870456,-37.45801683752368,-137.228836,-156.0584985951158,0.0,137.228836,0.2816815357674582,0.10872458,-0.47373843,-0.82728857,1.0,0.0,0.0,0.0,147.278820635504
3.3333,82718.7569,-1.1078514246268485,3.631285862285501,-2.9687992319126053,-2.9046884033651548,-1.5646134834934586,-4.478398915952527,3.208383759575172,10.566256626867043,-37.18525436032426,-141.448959,-160.3664750785456,0.0,141.448959,0.2425585507979192,0.09337884,-0.49756649,-0.82757074,1.0,0.0,0.0,0.0,151.9248051047265
3.3458,82718.7778,-0.5699179040635656,3.657247267910841,-4.486786155567623,-2.8513031151824784,-1.478402635921998,-4.528713805779251,3.0369949086943464,10.896227731804037,-36.88571059461228,-146.302292,-164.55347514801176,0.0,146.302292,0.1996787525682813,0.07558268,-0.52137959,-0.82618338,1.0,0.0,0.0,0.0,156.96365201710356
3.3623,82718.7978,0.09837646233405062,3.4236225202586352,-5.706612113439522,-2.6252552637044726,-1.4061620570053601,-4.435385572633116,2.6380818966765283,11.465288063204204,-36.504706084912826,-151.258408,-168.11107681094254,0.0,151.258408,0.1586278800075893,0.05777435,-0.54206723,-0.82320255,1.0,0.0,0.0,0.0,161.745475109707
3.3882,82718.8179,0.8910557967357328,3.020771699432733,-6.630196984599466,-2.212078885863413,-1.3602558915563112,-4.193796434340507,2.202507497134082,12.3159396375422,-36.00211199789701,-157.159042,-171.41690279050883,0.0,157.159042,0.1173974527942515,0.04131937,-0.55910486,-0.81970257,1.0,0.0,0.0,0.0,166.51614827596558
3.4073,82718.8379,1.8267027103162614,2.5305749381657803,-7.2769214230634995,-1.6477548293766155,-1.338562443153918,-3.8097048201141908,1.8383288652926995,13.560249364764045,-35.330308990451094,-164.635254,-174.63121960228045,0.0,164.635254,0.0760425335885455,0.02765546,-0.57048166,-0.81731474,1.0,0.0,0.0,0.0,171.2777476879974
3.4294,82718.8588,2.924277732088038,2.003168020948795,-7.697290158021779,-1.012500304042964,-1.3568383703134053,-3.295493763392283,1.63229931563078,14.811664076810766,-34.634869327942894,-173.474899,-177.8547959970494,0.0,173.474899,0.0349102909619673,0.01683565,-0.5792492,-0.81422859,1.0,0.0,0.0,0.0,175.99876231478154
3.4425,82718.8789,4.133558474032719,1.4499889683255667,-7.90070259471751,-0.386954451727824,-1.3647263446854474,-2.7070027393828497,1.272421167932221,16.01748485826262,-33.9754296746088,177.98999,179.35834018275528,0.0,177.98999000000003,0.0009786859228153,0.0109351,-0.58457589,-0.81126475,1.0,0.0,0.0,0.0,179.88785083640443
3.4626,82718.8989,5.332671652081171,0.8654750769764953,-7.81985280389048,0.1951181961081195,-1.2726339392513768,-2.133093469701525,0.99541988034013,17.286467376580312,-33.29864139534738,169.439056,176.61710884452845,0.0,169.439056,0.0279579294627197,-0.0116808,0.58392256,0.81124371,1.0,0.0,0.0,0.0,176.79583976349934
3.4829,82718.9189,6.336910553225885,0.29432406802620764,-7.348238085546566,0.7320130391629498,-1.0548824915491917,-1.6180242959168099,1.1360929311137329,18.608364236860044,-32.58829475742599,160.845993,173.42014738201752,0.0,160.84599300000002,0.0553929458540754,-0.02102668,0.57623929,0.81513053,1.0,0.0,0.0,0.0,173.6491853637339
3.5078,82718.9389,6.994423883588983,-0.15722830890270667,-6.472496499184851,1.2246301959852859,-0.7536242916693549,-1.1427624329796293,1.6378869134279679,19.763469254314483,-31.951008440161818,153.564651,169.9478620055724,0.0,153.56465100000003,0.0810235032282667,-0.03672034,0.56390095,0.82103747,1.0,0.0,0.0,0.0,170.7052017060157
3.5233,82718.9589,7.257849113499732,-0.3815417307802105,-5.314216373595561,1.6779611339374019,-0.44237384741704605,-0.6684165323520905,2.146037439427695,20.5731569040194,-31.50597693004714,148.838303,166.94404926021744,0.0,148.838303,0.1020937813968101,-0.0517369,0.5503245,0.82706898,1.0,0.0,0.0,0.0,168.28049496657292
3.5429,82718.9789,7.11285493261181,-0.3541804117740679,-3.9166566192637866,2.1096657665392065,-0.20304728988197449,-0.13971663198085915,2.7684197992842083,21.186932401876934,-31.143688635308028,145.999573,164.36632773080495,0.0,145.999573,0.1204239149299936,-0.0641127,0.53458679,0.83402914,1.0,0.0,0.0,0.0,166.1668629261196
3.5661,82718.9989,6.636488990926357,-0.029483686239968554,-2.299812426463472,2.5110729371049088,-0.09417820283232581,0.4725208660909932,3.28422789726664,21.643491447419898,-30.84478643965079,145.102585,162.5267195698754,0.0,145.10258499999998,0.1325350524478956,-0.07441925,0.51693422,0.84242225,1.0,0.0,0.0,0.0,164.76778406619403
3.5838,82719.0189,6.00369582350711,0.4853879776784966,-0.44841515777400076,2.849028906775572,-0.1374508732357372,1.1365366524884695,3.50035820334824,22.13285824936937,-30.50712359515756,146.374237,161.67701196144816,0.0,146.374237,0.1361677801987018,-0.08257004,0.49508354,0.85412693,1.0,0.0,0.0,0.0,164.3476952535633
3.6031,82719.0389,5.319822996702218,1.011951439925117,1.7005297187901753,3.0691786267509813,-0.28982803337336255,1.7974054808464075,3.5047728619953418,22.701696969657277,-30.110245486303263,149.157211,161.60111957675775,0.0,149.15721099999996,0.1313210036716521,-0.09314794,0.46761858,0.8691439,1.0,0.0,0.0,0.0,164.90813054412763
3.6259,82719.0589,4.486291057555578,1.375817947602921,4.138902493435227,3.0916564847185675,-0.45591738130916193,2.4078246323383303,3.57509937115141,23.2249988281924,-29.750730869312214,152.355759,161.86906421266843,0.0,152.35575900000003,0.1203123973675462,-0.11121797,0.43556923,0.8851186,1.0,0.0,0.0,0.0,166.1797354897298
3.6587,82719.0789,3.358521690399112,1.3796124725645216,6.682695442030102,2.8545591462632323,-0.564987288255226,2.9083649919898957,3.754898290375537,23.680200374988022,-29.48306306166002,155.661972,162.48438044236926,0.0,155.661972,0.1054903139054362,-0.133986,0.4003669,0.90034765,1.0,0.0,0.0,0.0,167.88916726277003
3.673,82719.0989,1.8030513339319758,0.98099912397333,9.016054951420916,2.3374484895199483,-0.5852625393104451,3.262643236343865,3.963721457274212,23.91793175144176,-29.46217918684158,158.942612,163.58061719463663,0.0,158.942612,0.0879105506588989,-0.15701021,0.36655203,0.91283029,1.0,0.0,0.0,0.0,169.91317210301875
3.6867,82719.1189,-0.05737145678279898,0.19176208146968143,10.764063109052639,1.598539173946199,-0.5428276078768124,3.4460909546184064,3.799588196203251,23.918083549746537,-29.75167636690085,162.801071,165.72524497804193,0.0,162.80107099999998,0.0642595558871283,-0.1752528,0.33692709,0.92284197,1.0,0.0,0.0,0.0,172.6313201261048
3.7118,82719.1388,-1.969009481776959,-0.8449757797453739,11.612470456297334,0.7219086095688662,-0.5069562803436063,3.4723177861091434,3.299019105137141,23.565165135479162,-30.390689973691792,167.089279,168.81115877753152,0.0,167.08927900000003,0.0346640680368844,-0.18868594,0.31480333,0.92956704,1.0,0.0,0.0,0.0,176.02699447141956
3.7228,82719.1589,-3.5619805018580903,-1.8677635671506998,11.365554643957985,-0.18444715243795917,-0.5259255418181856,3.3586904290256623,2.706213253812842,22.77779867297399,-31.33732472243655,171.577057,172.4927605827911,0.0,171.57705699999997,0.0002195354582933,0.20095749,-0.30241835,-0.9317506,1.0,0.0,0.0,0.0,179.97484308937058
3.7442,82719.1789,-4.595202833767728,-2.538389317489612,10.024448307332353,-1.0199858115324596,-0.5918125366870235,3.1238557593677685,2.5800458333963,21.55816353163881,-32.46635195878924,175.444138,175.88551536843613,0.0,175.444138,0.035219840309236,0.21637923,-0.30129442,-0.92798775,1.0,0.0,0.0,0.0,175.96326874491248
3.7633,82719.1988,-4.922169096227432,-2.665055801882537,7.864754437113369,-1.687379792260703,-0.6511234044757901,2.8097916152372022,3.0624091514848377,20.15162239526273,-33.54547432324848,178.282516,178.44341051841877,0.0,178.282516,0.0656868973356522,0.23363961,-0.30976585,-0.91931653,1.0,0.0,0.0,0.0,172.46741249454618
3.7917,82719.2189,-4.58335891751714,-2.3175141947095232,5.309298472214895,-2.1325428515256912,-0.6591532235094093,2.4970583185535955,3.693491243581619,18.94167609701581,-34.36635685856591,-179.490219,-179.54065125730665,0.0,179.490219,0.0921500121255063,0.2485828,-0.32293451,-0.90853083,1.0,0.0,0.0,0.0,169.42538433612103
3.8046,82719.2389,-3.873683891594954,-1.6509805591754274,2.6751567499007773,-2.377582228581648,-0.593124930785246,2.255955809721656,4.092554029196387,18.094297238510322,-34.92274946846838,-177.343658,-177.63771808515955,0.0,177.343658,0.1172782390417377,0.26026714,-0.33780622,-0.89688003,1.0,0.0,0.0,0.0,166.5299041908339
3.8334,82719.2589,-3.1039910810492266,-0.8509292845840175,0.11261327349837913,-2.4847788163886517,-0.4433284614349018,2.1136193324940566,4.23743785376104,17.596239086441614,-35.28455227294702,-175.186096,-175.80010641785626,0.0,175.186096,0.1416975555511677,0.26991564,-0.35351554,-0.88436085,1.0,0.0,0.0,0.0,163.70782321496628
3.8449,82719.2789,-2.381362179268029,-0.12962415174780562,-2.267192609263912,-2.48699542934743,-0.21822492854525088,2.0950249139336887,3.8500480322441977,17.431697584756776,-35.52776777780666,-172.372482,-173.5202906847352,0.0,172.372482,0.1672714660967267,0.27414039,-0.36801064,-0.8726027,1.0,0.0,0.0,0.0,160.74157189071096
3.864,82719.2989,-1.9159019298737732,0.33975616012462995,-4.392362361868844,-2.4208359201142895,0.05916424549974675,2.173664160289364,3.2473786617789555,17.546722443635886,-35.63295129341795,-169.123505,-171.0224588541381,0.0,169.123505,0.1927927946737906,0.27580222,-0.38056657,-0.86135542,1.0,0.0,0.0,0.0,157.76837288049404
3.8845,82719.3189,-1.7708200021168448,0.4621601372108499,-6.14786887247362,-2.2719885012115433,0.3495518820574205,2.33458241837799,2.3736225358824914,17.772476577030346,-35.64360453054431,-164.857498,-167.8746275389781,0.0,164.857498,0.2210395834951973,0.27433917,-0.39080352,-0.85038352,1.0,0.0,0.0,0.0,154.45979987414302
3.9101,82719.3389,-1.9228156424913838,0.2508410607457021,-7.435390563478131,-2.0110066995370732,0.6333217616030331,2.546577995567266,1.295048096814428,17.970729599369207,-35.57447250435063,-159.344162,-163.9798089224845,0.0,159.344162,0.2521045608239191,0.26865333,-0.39875272,-0.83980054,1.0,0.0,0.0,0.0,150.79583145654482
3.9258,82719.3589,-2.2808754979710684,-0.17310530572966376,-8.197882195735463,-1.6285313182159356,0.9061456235249946,2.757196678807149,0.15086642147280038,18.1310782813862,-35.414658317366786,-152.675339,-159.38412528527456,0.0,152.675339,0.2854874507446175,0.25958925,-0.40355533,-0.82961041,1.0,0.0,0.0,0.0,146.82402388786764
3.9478,82719.3799,-2.7922921161611365,-0.6573895076790608,-8.472811841523402,-1.224362660713994,1.175103398043891,2.8809221461418772,-0.3432513553720842,18.209494590578267,-35.23875199516155,-146.191696,-154.89801225786698,0.0,146.191696,0.3192092052388312,0.25776127,-0.40752748,-0.81583452,1.0,0.0,0.0,0.0,142.76978456331727
3.9667,82719.4009,-3.43984467725555,-1.13420442135027,-8.254274613569782,-0.8284658223397955,1.4123445174267082,2.929283039172109,-0.5929014720275099,18.634641336238793,-34.906514934633734,-139.990417,-149.98307829669417,0.0,139.990417,0.3524350969857132,0.25928143,-0.40423682,-0.80321556,1.0,0.0,0.0,0.0,138.72734190008126
3.9882,82719.4209,-4.253356431893942,-1.640269284510935,-7.532526923649259,-0.4559830874430073,1.6034012327202185,2.900954634580142,-0.7239822026893652,19.23439714460662,-34.54681848189891,-134.360428,-144.92781448177087,0.0,134.360428,0.3823878715926416,0.25778157,-0.39560634,-0.79424417,1.0,0.0,0.0,0.0,135.03665686420453
4.0151,82719.4408,-5.13116508101432,-2.341794026958414,-6.3499519612760835,-0.13904830289734915,1.7037783885359188,2.7894933180849164,-0.9059963060571405,19.758898090067838,-34.305633365295584,-128.887192,-139.51761914694976,0.0,128.887192,0.4120852324529446,0.2533305,-0.38348609,-0.78673238,1.0,0.0,0.0,0.0,131.3282133569866
4.0357,82719.4609,-5.7393573747726485,-3.2804838323198853,-4.675656167843229,0.1748184416048626,1.7012714629763952,2.5779269250535624,-1.926104798933256,19.830129914431595,-34.35669008150959,-122.200813,-133.01881009386403,0.0,122.200813,0.4469125125606272,0.23593561,-0.36768216,-0.78064936,1.0,0.0,0.0,0.0,126.90846832148293
4.055,82719.4809,-5.913767439388803,-4.4126144567968275,-2.840601054373379,0.4243268954335212,1.564232941051026,2.28627000516872,-2.8665702656355485,19.77329228491604,-34.49439144419298,-116.568909,-127.11613503708628,0.0,116.568909,0.4791146901981594,0.21770175,-0.35077712,-0.77460343,1.0,0.0,0.0,0.0,122.74480602272
4.0691,82719.5019,-5.6255602582505,-5.5703943676770535,-1.0959608039405992,0.6174136765957463,1.322354355187115,1.9356753964274838,-3.376240468326767,19.61745545504209,-34.69898103218088,-112.403114,-122.5705273247711,0.0,112.403114,0.5047200942721487,0.20075873,-0.33614933,-0.76938754,1.0,0.0,0.0,0.0,119.37445327736742
4.101,82719.5219,-4.910418713076396,-6.599348555552281,0.41724953940929765,0.7506190378839195,1.034348574013254,1.5329380124644674,-3.502076525845773,19.29781540405312,-34.9849978529092,-109.174835,-119.0872667831894,0.0,109.174835,0.5251574928224576,0.18616852,-0.32514808,-0.76408744,1.0,0.0,0.0,0.0,116.64230760515667
4.1236,82719.5429,-3.9056954533131174,-7.354725955827537,1.640915902626249,0.7962357490870473,0.7508130550419894,1.0713981495907874,-3.263105810489094,18.848994198443556,-35.32373436379319,-106.618027,-116.39321475468843,0.0,106.618027,0.5414024054106221,0.17564858,-0.31783015,-0.75829744,1.0,0.0,0.0,0.0,114.44168444311632
4.1269,82719.5628,-2.8201869937448354,-7.7753675604828185,2.598594152542688,0.7155888872113206,0.4903300735208382,0.5384454702657155,-2.716209218445787,18.523043180204734,-35.58903738495973,-105.029991,-114.5100133758963,0.0,105.029991,0.5525174347212355,0.16987965,-0.31151742,-0.75420308,1.0,0.0,0.0,0.0,112.92021696994358
4.1509,82719.5829,-1.8359136763481523,-7.790835287270354,3.46663639087957,0.48007219165684034,0.25528356713127387,-0.07195501950471495,-2.047810490385455,18.20745826167542,-35.84910269870413,-104.289406,-113.52003907847994,0.0,104.289406,0.5583931077025474,0.1649271,-0.30656242,-0.75300443,1.0,0.0,0.0,0.0,112.11051375900145
4.1684,82719.6029,-1.0899294817959992,-7.377409498446902,4.412357385300332,0.10207358672597655,0.029931470692805412,-0.7281474735565154,-1.3735760411524218,17.622725137112084,-36.23668540299788,-104.016556,-113.44352982256203,0.0,104.016556,0.5595722578608138,0.15760055,-0.30593529,-0.75395262,1.0,0.0,0.0,0.0,111.94755663130344
4.1859,82719.6228,-0.716415171949718,-6.756305333684621,5.366079956129578,-0.3417139448583031,-0.18877614865590342,-1.3714134311335788,-0.5885969528860429,17.05811167604399,-36.572325641872055,-104.656693,-114.48170580727218,0.0,104.656693,0.5541481320913128,0.1512064,-0.30861497,-0.75816441,1.0,0.0,0.0,0.0,112.6958794746271
4.2071,82719.6429,-0.7246436735633619,-5.963708654232221,6.23781557484153,-0.740427380728435,-0.39292780381394987,-1.9425328329608411,0.27736481463435325,16.40204873395963,-36.856044902873215,-106.035339,-116.6917267845859,0.0,106.035339,0.5419477557089819,0.14444922,-0.31668738,-0.76494193,1.0,0.0,0.0,0.0,114.36734059471085
4.2284,82719.6629,-1.0143189838863993,-4.917067132844895,6.884859009029665,-1.0050898076354002,-0.5956528363995606,-2.386042544160656,1.0978393015926038,15.439843025834428,-37.147938925937595,-107.737732,-119.95070328320512,0.0,107.737732,0.5238472322818679,0.13430299,-0.33221844,-0.77277273,1.0,0.0,0.0,0.0,116.8186562591764
4.2465,82719.6829,-1.4158949593892345,-3.7239508534071257,7.098419222859771,-1.103241749378554,-0.8098476849293256,-2.6785948239156117,1.6904245294601026,14.473953597483167,-37.335387782049565,-109.559151,-123.64926983596615,0.0,109.559151,0.5025765188850178,0.12277802,-0.35129097,-0.78034419,1.0,0.0,0.0,0.0,119.65878395895692
4.2665,82719.7029,-1.8105748113728062,-2.579012896407832,6.743999351432901,-1.0650586966282392,-1.0380420213299677,-2.843257793057978,2.0380429738863306,13.951915847923974,-37.31048900253973,-111.6623,-127.34479739606041,0.0,111.6623,0.4800866666697064,0.11378146,-0.36873063,-0.78778696,1.0,0.0,0.0,0.0,122.6178749937757
4.2904,82719.7237,-2.2876765734064453,-1.2617192305184144,5.8054290686339645,-0.98303959724675,-1.2920632134662806,-2.918062892287172,2.9772940712467815,13.355121488179782,-37.26679632719109,-115.48233,-132.97692115167993,0.0,115.48233,0.4434329559920303,0.10277271,-0.39191481,-0.7995047,1.0,0.0,0.0,0.0,127.35375348800406
4.3098,82719.7439,-2.188488996051489,-0.3898121565042718,4.350304068575188,-0.9236803405321748,-1.5586114235647983,-2.95775128259983,2.3783073140335773,13.75884548081071,-36.97344020305205,-116.985764,-134.97272225161623,0.0,116.985764,0.42999730067483,0.10045606,-0.39954844,-0.80335045,1.0,0.0,0.0,0.0,129.06522232666597
4.33,82719.7638,-2.1037610049781215,0.6106178664423476,2.4706156767748695,-0.9504892386947612,-1.7926714490901283,-3.002395655933748,2.684446190461099,13.75422448016135,-36.7562630614262,-120.182861,-139.09365372623355,0.0,120.182861,0.4023165417904192,0.09944197,-0.41560495,-0.80964512,1.0,0.0,0.0,0.0,132.5538464178351
4.3475,82719.7839,-1.681651073968586,1.468774848456702,0.4502128607983771,-1.1263169472801668,-1.9303696999275572,-3.0750318607249896,2.7235113577133454,13.680559291115907,-36.56335640988543,-123.558617,-143.10413911021197,0.0,123.558617,0.3741937984721059,0.09767052,-0.43065545,-0.81546021,1.0,0.0,0.0,0.0,136.0510131446907
4.3692,82719.8039,-1.0730826765542636,2.1015262615452066,-1.4219179830979325,-1.4242645559080236,-1.9253954573352554,-3.1996257615558683,2.6742461181197115,13.583526058021818,-36.37561538211666,-127.417343,-147.26159194503168,0.0,127.417343,0.343996770876084,0.09645756,-0.44554722,-0.82088357,1.0,0.0,0.0,0.0,139.75886607171748
4.3874,82719.8238,-0.39058456502335415,2.482472046705571,-2.9095770035397734,-1.7915433298344168,-1.7872899257531047,-3.359450600029273,2.3963624314400978,13.430016053890718,-36.2333275618869,-131.34494,-151.28782351376637,0.0,131.34494,0.3131428942217681,0.09325711,-0.46087432,-0.82512999,1.0,0.0,0.0,0.0,143.50252328336128
4.4078,82719.8438,0.2256235964465798,2.621174427496325,-3.9120549062140793,-2.133861508602167,-1.567555011507731,-3.510479814896703,1.9207932315859377,13.20581885612665,-36.14688482436484,-135.096146,-155.1155647128558,0.0,135.096146,0.2815787411501113,0.08650741,-0.47790208,-0.82755029,1.0,0.0,0.0,0.0,147.29109693838788
4.437,82719.8639,0.7024000194483697,2.5483529499145803,-4.446632450326725,-2.3452345342094283,-1.332949572573712,-3.5911678797644906,1.3495466435187087,13.005553731008849,-36.07994077207056,-138.785843,-158.78186313546107,0.0,138.785843,0.2480290688203321,0.07535725,-0.49662587,-0.82835114,1.0,0.0,0.0,0.0,151.27817354461482
4.468,82719.8839,1.0654258533382162,2.328520258677365,-4.6257312015424015,-2.340757472201892,-1.1638239113397986,-3.535336288339833,0.7349417058825853,12.920018762784775,-36.01457545768978,-142.381256,-162.1887056201301,0.0,142.381256,0.2125771023610422,0.05985063,-0.5164187,-0.82736969,1.0,0.0,0.0,0.0,155.45316014603165
4.4735,82719.9037,1.4193947179949373,2.0414934061877847,-4.6133779088216595,-2.0784708148013236,-1.1282818331990339,-3.314922175592484,0.18216562818089166,13.090911671992027,-35.919174789531695,-146.027512,-165.28517373758868,0.0,146.027512,0.1770683171404293,0.04377441,-0.5354768,-0.82461822,1.0,0.0,0.0,0.0,159.6019121756519
4.4917,82719.9249,1.9751955922358797,1.7745310379640007,-4.602451201606069,-1.6083787069586792,-1.2413406962784284,-2.9417680701097986,-0.23562251652965394,13.506872733061176,-35.797689718801195,-149.963547,-168.1190336424743,0.0,149.963547,0.1424853397833904,0.02927741,-0.55268866,-0.82059491,1.0,0.0,0.0,0.0,163.61662444394005
4.5098,82719.9459,2.9206166585643314,1.5482769006640487,-4.714006374162276,-1.024254418736251,-1.4287419175952434,-2.4874480033487814,-0.5019878055454976,14.406660439214454,-35.513577389627365,-154.99115,-170.75704583616883,0.0,154.99115,0.1119754847487282,0.02194408,-0.56354403,-0.81816751,1.0,0.0,0.0,0.0,167.14158766199915
4.5301,82719.9659,4.270172793322408,1.3545608724407574,-4.883911085150534,-0.42027055609530745,-1.5605462469688072,-2.040959222161974,-0.27769144463184325,15.870314567761284,-34.93397385579458,-163.128006,-173.90678593448754,0.0,163.128006,0.0831122659091762,0.02758988,-0.56551266,-0.82007718,1.0,0.0,0.0,0.0,170.46503695153112
4.5512,82719.9869,5.847576171483713,1.19710899652871,-4.895857975425001,0.10512786617200509,-1.5449560212577673,-1.6214312333519856,0.5415947717699918,17.430598533248443,-34.149692520690444,-174.270859,-177.89344359101563,0.0,174.270859,0.0521300149410641,0.04406318,-0.56184942,-0.82441866,1.0,0.0,0.0,0.0,174.02363139349578
4.5734,82720.0069,7.350427448482,1.0607633147392406,-4.624877204299105,0.5014312298218468,-1.3501674230883192,-1.208604872213554,1.4286886136998018,18.686323645339144,-33.335690640101,174.972778,178.0588664589865,0.0,174.972778,0.0222094405430948,0.06336249,-0.55553365,-0.8287788,1.0,0.0,0.0,0.0,177.45477631129643
4.5912,82720.0268,8.419754837465696,0.9576034890445049,-4.104217546092485,0.8012922092940935,-1.002833967134463,-0.7742498575091783,2.02485828089016,19.52069992089816,-32.65583898910751,166.800613,174.5817705669465,0.0,166.800613,0.0027075419124741,-0.08126829,0.54810315,0.83244884,1.0,0.0,0.0,0.0,179.6897381720431
4.6158,82720.0469,8.733797098004302,0.8870828766714733,-3.349860744617181,1.0637231908637994,-0.5794373211891348,-0.27512079949613244,2.577668666798618,20.057266680924915,-32.14533019984865,160.550217,171.44602182690704,0.0,160.55021699999998,0.0242447839506743,-0.09897449,0.53931791,0.83591413,1.0,0.0,0.0,0.0,177.2214801567418
4.6322,82720.0669,8.199737438132601,0.9429108061861131,-2.446846026123568,1.323073758165745,-0.18140332768781298,0.3162350850854343,2.9479047111436527,20.35768021377111,-31.87647668097954,156.63443,169.03379099667524,0.0,156.63443,0.0390170329205339,-0.11558251,0.52999604,0.83917969,1.0,0.0,0.0,0.0,175.5278421967787
4.6583,82720.0868,6.985041180838158,1.1507988967199245,-1.4604813406833692,1.588472775664246,0.09584507980457405,0.9820486151692961,2.906176446534724,20.672801496864444,-31.763602853604038,155.706131,167.86787127690454,0.0,155.70613100000003,0.0436387590130588,-0.12861323,0.51842123,0.84427112,1.0,0.0,0.0,0.0,174.99777805694933
4.6757,82720.1069,5.3435865972690895,1.4015118231961443,-0.33490373229723147,1.8480924937993173,0.1888957607813948,1.6881086221583141,2.561204982877661,21.240993333476084,-31.616288742203754,157.299179,167.83668017260595,0.0,157.29917899999998,0.0385373699213927,-0.14020409,0.5017795,0.85268694,1.0,0.0,0.0,0.0,175.58284889974738
4.6938,82720.1269,3.4813881129038844,1.462372383839492,0.9715725537504216,2.0697963048967924,0.08497703906434029,2.393449275232564,2.300062172986218,22.04194333667456,-31.32859091380341,159.961029,168.33536982369773,0.0,159.961029,0.0284449828374251,-0.15352941,0.47956696,0.86350167,1.0,0.0,0.0,0.0,176.74000534982068
4.7112,82720.1467,1.530046241229464,1.2056874761373644,2.3964854398474245,2.2216550914753666,-0.1409664206625567,3.0389547803722667,2.196441939516875,22.761439040490576,-31.022814512595957,162.940781,169.18517320717038,0.0,162.94078100000002,0.0139716998009089,-0.17083511,0.45477271,0.87395763,1.0,0.0,0.0,0.0,178.39890904362082
4.7306,82720.1669,-0.41540573058911967,0.5802924017289657,3.866594585011855,2.2758692439747126,-0.3810802797696562,3.554255534714467,2.1674819639223877,23.206369169546615,-30.79842346063221,166.190659,170.4830535576689,0.0,166.19065899999998,0.0054460924200981,0.1921137,-0.42910773,-0.88256967,1.0,0.0,0.0,0.0,179.37592069393048
4.7549,82720.1877,-2.1728613619667745,-0.41130618569786215,5.335172943635092,2.208359289569097,-0.54585053394411,3.8551268762182547,1.8991800558078769,23.427085716095032,-30.65313300539803,170.370789,172.78141937782672,0.0,170.370789,0.032692893563537,0.2153022,-0.40133604,-0.88966596,1.0,0.0,0.0,0.0,176.25300267431396
4.7724,82720.2079,-3.7001895770244833,-1.709789914190547,6.673507906364868,1.928450862869676,-0.6203396069971383,3.9021057644729407,1.6966095735334537,23.55742452211317,-30.52889601012368,174.794067,175.73194045272894,0.0,174.79406700000004,0.0636714706014992,0.24162084,-0.37085402,-0.89444542,1.0,0.0,0.0,0.0,172.69884802654954
4.7931,82720.2279,-4.829886450599868,-3.212297475984128,7.631925455192704,1.4098212014058316,-0.6609165376727302,3.6778188303187833,1.6725712081836266,23.76946639086781,-30.36783413816479,179.037125,179.13666421272637,0.0,179.037125,0.0933804053251653,0.26647654,-0.33833161,-0.89766479,1.0,0.0,0.0,0.0,169.2837810602416
4.8128,82720.2479,-5.378652369668695,-4.846100447339098,7.911926270431945,0.7151210667888299,-0.679603750868919,3.2405638207020253,1.1937383522612408,24.032913721907725,-30.280814606538957,-175.522156,-175.58421544334593,0.0,175.522156,0.1338812792478252,0.29452685,-0.30370653,-0.89615405,1.0,0.0,0.0,0.0,164.61213065531481
4.835,82720.2679,-5.548677978093578,-5.208266429686065,7.632553930111861,-0.05153495134517963,-0.6757544395365973,2.705036771716741,2.2833903123060892,23.090113618494446,-31.147404908292906,-174.142319,-174.12871255038456,0.0,174.142319,0.1456230401309339,0.30110064,-0.29958248,-0.89352262,1.0,0.0,0.0,0.0,163.25328056001987
4.8545,82720.2879,-5.1372236177304025,-5.215127265890864,6.646604638227675,-0.7252357690455948,-0.6822413323064719,2.1643057778874875,2.907678306723122,21.96322279360608,-32.1715786381169,-171.72023,-171.5688924025557,0.0,171.72023,0.1681449281023766,0.31136119,-0.29999143,-0.88588184,1.0,0.0,0.0,0.0,160.64004252127768
4.8797,82720.3089,-4.216863111381195,-4.611307733804264,5.161695931073655,-1.2209206248187627,-0.6837041203731917,1.6910921209534253,3.4983605666751405,20.646104480238357,-33.25443567746722,-169.594101,-169.39868221618173,0.0,169.594101,0.1897270773602633,0.31928289,-0.30819643,-0.87582934,1.0,0.0,0.0,0.0,158.1262856425212
4.8953,82720.3299,-3.026257439346085,-3.526320186183052,3.3142813607762847,-1.5519982907391758,-0.6289264842798115,1.308959295871509,4.173902574612643,19.542603629916293,-34.08154624685673,-168.117828,-167.9094961036386,0.0,168.117828,0.2079306698908412,0.32894009,-0.31922674,-0.86409348,1.0,0.0,0.0,0.0,155.99777656658705
4.9195,82720.3498,-1.8067125563304203,-2.1501378334342514,1.305464676101197,-1.7820660757458362,-0.46000739060552087,1.0271892895387058,4.8038410900801205,18.939956367697437,-34.52535190085008,-167.360748,-167.12095601230504,0.0,167.360748,0.2210909799761651,0.33925587,-0.32939455,-0.85294986,1.0,0.0,0.0,0.0,154.4537608600876
4.9348,82720.3699,-0.7384088125307235,-0.6478734560798243,-0.6656976904991865,-1.9671590338661256,-0.1659092128731186,0.8823848806246264,4.732648847060204,18.465411479345093,-34.931160510885775,-165.960892,-165.9080147253347,0.0,165.960892,0.2358080245119437,0.34260076,-0.34072337,-0.8431648,1.0,0.0,0.0,0.0,152.72148434197058
4.957,82720.3899,-0.16532955772247404,0.5730234890178765,-2.5536084785642883,-2.137352988336518,0.19513267077211313,0.8695785966213192,4.186078326317577,18.23041281538728,-35.25083957771056,-164.041534,-164.3772925205949,0.0,164.041534,0.2511052123337547,0.34134454,-0.35157928,-0.8347587,1.0,0.0,0.0,0.0,150.91415482243227
4.9798,82720.4099,-0.11506482029901621,1.3360214522162996,-4.287615964671826,-2.25235855553586,0.5664550184267526,1.0005310570170407,3.243873908652154,17.935270986166255,-35.64508829417392,-161.169281,-162.38601966995805,0.0,161.169281,0.2684982665657255,0.33317503,-0.36452559,-0.82705754,1.0,0.0,0.0,0.0,148.85015102097015
4.9943,82720.4299,-0.49048003146889196,1.6050942514103805,-5.769764721299859,-2.257497474023334,0.9011714510477796,1.26468991975785,2.0917726844847877,17.674438811103705,-36.0182896123704,-157.042191,-159.6899974196079,0.0,157.042191,0.2891434864742166,0.32033297,-0.3771466,-0.81947744,1.0,0.0,0.0,0.0,146.38663047935037
5.0152,82720.4499,-1.1811550368539203,1.502637862329379,-6.887640350752089,-2.134259595359667,1.1946170958117786,1.6213460074003545,1.067135658023675,17.608628447506653,-36.22538375517416,-151.979767,-156.43420049335583,0.0,151.979767,0.3121544994657345,0.30695409,-0.38708466,-0.81148273,1.0,0.0,0.0,0.0,143.62176259234408
5.0341,82720.4699,-2.1280109652044628,1.1420723739137126,-7.545900839864494,-1.9090915670339454,1.4586862529386395,2.0196214814289704,0.27165879928678116,17.87135702010604,-36.163009542735786,-146.315247,-152.5921001887657,0.0,146.315247,0.3371288187980717,0.29531184,-0.39196068,-0.80343133,1.0,0.0,0.0,0.0,140.5959151560756
5.0591,82720.4899,-3.337713079180636,0.5327569124936901,-7.681109181997348,-1.6470168565606853,1.7104703724560686,2.376736817731364,-0.08525622535576005,18.20487260783036,-35.93265039806663,-140.509369,-148.54201499540193,0.0,140.509369,0.3632367675355228,0.28729066,-0.39507401,-0.79337233,1.0,0.0,0.0,0.0,137.40177883561293
5.0832,82720.5099,-4.725078284699617,-0.437280325547621,-7.1917944652817685,-1.378123731045771,1.9023376785828228,2.6542909239135835,-0.5204159264932091,18.662035645773013,-35.500324226565795,-134.029709,-143.47342235147212,0.0,134.029709,0.3932166456464903,0.28027773,-0.39285064,-0.7826196,1.0,0.0,0.0,0.0,133.69040571318027
5.1056,82720.5299,-6.0352397175253545,-1.7563621116213657,-6.062627931049823,-1.0913888001928171,1.9855004030010246,2.8010538641615943,-1.1951741440248718,19.02904896157339,-34.98995524471016,-126.893341,-137.47540372909455,0.0,126.893341,0.4265501850180225,0.27039692,-0.38656321,-0.77169251,1.0,0.0,0.0,0.0,129.50235083270323
5.1171,82720.5497,-6.744531255780956,-3.1892089824800536,-4.255354146491264,-0.6891305475460802,1.924090840483329,2.795610988986329,-3.0692232390156917,19.040325788722434,-34.528221976339324,-118.128159,-129.733760251217,0.0,118.128159,0.4679631615274387,0.24402419,-0.37226319,-0.76346761,1.0,0.0,0.0,0.0,124.19567605557023
5.1429,82720.5699,-6.76381378100445,-4.428746711987596,-2.42369460414701,-0.30844096829186507,1.691873085416832,2.603454116651065,-4.453454779354274,18.913002407832714,-34.15183181821443,-110.945061,-122.88132891026618,0.0,110.945061,0.5060579787230324,0.21978526,-0.35790128,-0.75333023,1.0,0.0,0.0,0.0,119.19678287784745
5.1571,82720.5899,-6.242180920477522,-5.324783026079428,-1.0167375069248283,0.008017125091057231,1.3157295638204936,2.2940783954707444,-5.071718388475972,18.945450572743894,-33.885677522773165,-105.721008,-117.26574446702834,0.0,105.721008,0.5375978711738988,0.20294386,-0.34387287,-0.74266666,1.0,0.0,0.0,0.0,114.95947047570083
5.1766,82720.6099,-5.457232708247025,-5.779768733582988,-0.07571386013896131,0.2697880204808303,0.8919000729313947,1.9375339982803355,-4.898223883046455,19.016035223030446,-33.893823515147616,-102.338036,-113.56373470640935,0.0,102.338036,0.5590512089194117,0.18911397,-0.33373985,-0.73506147,1.0,0.0,0.0,0.0,112.01958423157166
5.1977,82720.6299,-4.544041478623196,-6.023647433844149,0.5614079265607597,0.4600753766008867,0.5001910970923202,1.5919986877970325,-4.235530080259185,19.051806648429807,-34.154248236354306,-99.987473,-110.96691766413493,0.0,99.987473,0.5742187997346904,0.18064056,-0.32713762,-0.72843856,1.0,0.0,0.0,0.0,109.91011479512278
5.2156,82720.6499,-3.516877293340709,-6.243417181681788,1.1722190892608122,0.6022729993442039,0.19183549006520736,1.2675307940433973,-3.4950753552929825,19.023789059627635,-34.5493330850521,-98.108223,-108.76176142070855,0.0,98.108223,0.5866408959296168,0.1773514,-0.32199058,-0.72161001,1.0,0.0,0.0,0.0,108.16200686842213
5.2334,82720.6699,-2.392313688686161,-6.388826530848127,1.9784095841923701,0.7409908459306911,-0.025687050173047996,0.9387397898535378,-2.9328481188111155,18.71275896351261,-35.09713759267972,-96.406204,-106.91273445326473,0.0,96.406204,0.5972196135384206,0.17424792,-0.31877178,-0.71508807,1.0,0.0,0.0,0.0,106.65794882210452
5.2534,82720.6899,-1.2130856984825344,-6.43348957043132,2.886557498417451,0.9178368748612529,-0.1848287656420698,0.5825424610988184,-2.601861601901277,18.21116757011412,-35.692720823547944,-95.034142,-105.43127483361665,0.0,95.034142,0.6057865719462723,0.17101429,-0.31607729,-0.70983934,1.0,0.0,0.0,0.0,105.42907147491691
5.2735,82720.7099,-0.07925703818175567,-6.323597898132825,3.6072877774777314,1.1589269158410171,-0.31091836922007793,0.18533289513850493,-2.301874767221225,17.579976244638143,-36.287221108535064,-94.437614,-104.8550864840848,0.0,94.437614,0.6095520565693766,0.16698775,-0.31467953,-0.7081936,1.0,0.0,0.0,0.0,104.88575843585078
5.295,82720.7298,0.8004354374067111,-6.157927056620962,3.812080255022579,1.4621579302068026,-0.39409082170529053,-0.25146783538724216,-1.638877298029037,17.198963222230965,-36.68921607543924,-94.928795,-105.17534264289918,0.0,94.928795,0.6071802774765493,0.17023298,-0.31430811,-0.70962191,1.0,0.0,0.0,0.0,105.22820652325046
5.3174,82720.7499,1.3593476834461997,-5.847094384884121,3.4523730816476075,1.8072923966018382,-0.40616483228324973,-0.7313517477222355,-0.8300305966562966,17.08698615147182,-36.84527220311521,-96.183311,-105.83642589474783,0.0,96.183311,0.6014756128685289,0.18094233,-0.31294969,-0.71242505,1.0,0.0,0.0,0.0,106.04869221110067
5.3372,82720.7699,1.5910423904106379,-5.16695234499951,2.666432494909259,2.145780064497404,-0.3747609065242239,-1.258617565553182,-0.34541319517544267,16.92372100905002,-36.87828774823788,-98.067337,-106.85701573378657,0.0,98.067337,0.5936207889753808,0.19043396,-0.30907488,-0.71820748,1.0,0.0,0.0,0.0,107.17125279428801
5.3567,82720.7909,1.4378767841424507,-4.028718439807227,1.5957879734620661,2.4275928182425646,-0.37792150510807077,-1.801147491729097,-0.1582717824997495,16.488238504570184,-36.92046036894831,-100.830429,-108.86738919993624,0.0,100.830429,0.581058196407747,0.19424117,-0.30429494,-0.72941506,1.0,0.0,0.0,0.0,108.94998999199295
5.3806,82720.8108,0.9796481601086695,-2.607051701306459,0.3542062805485884,2.6248592839742297,-0.4520507783264861,-2.293435290702546,0.12209805663237816,16.074782538820862,-36.907112870101614,-105.125343,-112.31956834619182,0.0,105.125343,0.5599516567802085,0.19719987,-0.29882315,-0.7471754,1.0,0.0,0.0,0.0,111.89509089400453
5.395,82720.8309,0.5370253774530811,-1.1380746326146252,-0.8531856480822153,2.7194568608581027,-0.5291022430691108,-2.6974939345581825,0.34740139831380645,15.928173551497123,-36.815050666153134,-110.202644,-116.02818865626928,0.0,110.202644,0.535480232490863,0.20435281,-0.28987873,-0.76646668,1.0,0.0,0.0,0.0,115.24702908044112
5.4179,82720.8519,0.2643299194924924,0.10618660567479998,-1.7929507278513341,2.713219298950053,-0.5784108976319753,-2.9958920497396804,0.6377997994274089,16.045035352542076,-36.69167236687426,-116.017448,-120.14896861807556,0.0,116.017448,0.506862903816633,0.21501805,-0.27866769,-0.78689361,1.0,0.0,0.0,0.0,119.08981133078561
5.4374,82720.8719,0.2394436826137678,1.0494085360365575,-2.389199343357303,2.620401521676255,-0.6412484622098339,-3.184553766180179,0.8819913251960294,15.745376884174979,-36.814690871751054,-121.726051,-124.82343114763209,0.0,121.726051,0.4754495293375351,0.22113894,-0.27191427,-0.8069126,1.0,0.0,0.0,0.0,123.22275425568058
5.4588,82720.8919,0.41893301288407025,1.5603495845409154,-2.7253310558222044,2.479818553170962,-0.6576407802464241,-3.2712141235102776,0.989780054312174,15.453031643086975,-36.941627542750815,-127.47805,-129.6572124700738,0.0,127.47805,0.4421544517590511,0.22559436,-0.26444885,-0.82684547,1.0,0.0,0.0,0.0,127.51715073509492
5.4787,82720.9119,0.7055766571816662,1.7760229571860702,-2.9287671993076785,2.3310881965526717,-0.5808245941058026,-3.2578581675320177,0.9544797076533591,15.273460571728592,-36.97498148696046,-132.896606,-134.09235103928182,0.0,132.896606,0.4099275592690795,0.23093109,-0.25443196,-0.84492284,1.0,0.0,0.0,0.0,131.59943146043793
5.4958,82720.9319,1.0383920092981374,1.9588831762081766,-3.0876152560425467,2.192422327439397,-0.4047432156321954,-3.1331056227892633,0.9029202071429516,15.037917446538037,-36.966922131334655,-137.981308,-138.33372850251317,0.0,137.981308,0.3781813160672921,0.23640202,-0.24410933,-0.86110604,1.0,0.0,0.0,0.0,135.55785079692586
5.5155,82720.9519,1.3738314361717527,2.2968312533891453,-3.200820951774853,2.0816779115362185,-0.1145521565658229,-2.8649005806067165,0.960519747083282,14.698519055199071,-36.96600777832337,-142.938309,-142.66281723817818,0.0,142.938309,0.3454985635796898,0.24175863,-0.2349775,-0.87576771,1.0,0.0,0.0,0.0,139.57553419025112
5.5356,82720.9719,1.6743752117661608,2.78103801617618,-3.2147552479440487,2.012868570162783,0.3169544795755128,-2.4263847736130244,1.0112842873834236,14.579057550268782,-36.898834513863676,-147.67746,-146.81962520469966,0.0,147.67746,0.3126984263900686,0.24726598,-0.22300112,-0.8895784,1.0,0.0,0.0,0.0,143.55614865089132
5.559,82720.9918,1.8532145421225552,3.335764302223354,-3.07773604733534,2.0004530386585904,0.8513287473269692,-1.8152479377436022,0.8579721277164243,14.736738224989185,-36.78025168187516,-151.503052,-150.1091418674952,0.0,151.503052,0.2843739121552633,0.25197732,-0.20634311,-0.90169919,1.0,0.0,0.0,0.0,146.95714410251352
5.5767,82721.0119,1.9066031830018533,3.9582079166058763,-2.7764690383234925,2.046203400914853,1.3705730384484565,-1.1172378905090812,0.16089182027425863,14.610563534308163,-36.82489628876042,-153.89325,-152.36954824517653,0.0,153.89325,0.2634466158455014,0.24784382,-0.1903877,-0.91264552,1.0,0.0,0.0,0.0,149.4506582569145
5.5962,82721.0319,1.7141780221861092,4.507052468298541,-2.1079872918137132,2.139993453256679,1.835521431711394,-0.39858178820920875,-0.8676950031332051,14.68779487333066,-36.77303093219399,-154.807785,-153.10383054569363,0.0,154.807785,0.252203947379095,0.24090107,-0.16851111,-0.92193484,1.0,0.0,0.0,0.0,150.78406230010418
5.6191,82721.0519,1.1529640746591927,4.824267400761725,-0.873102621250311,2.2050159595752463,2.16352450912333,0.2902672450689023,-1.6530546408026812,15.040758863852128,-36.54958843348191,-154.622604,-152.52494471402838,0.0,154.622604,0.2495591275271023,0.23755623,-0.14045776,-0.92820197,1.0,0.0,0.0,0.0,151.0971496674759
5.6372,82721.0719,0.31913154258624366,4.5812969163862425,0.9507121960028879,2.179192653251913,2.197806925617615,0.8827488143383894,-1.9902095895062537,15.750398946302642,-36.111534679823336,-154.360321,-151.867438707879,0.0,154.360321,0.2466684199089528,0.23493426,-0.10690319,-0.93409437,1.0,0.0,0.0,0.0,151.43909276020796
5.6564,82721.0919,-0.3953457515396333,3.5762621353043795,2.9759215997749067,2.0282673555461534,1.8304610504642564,1.2294339010088091,-2.6853481298032102,16.540838929709274,-35.531647489777484,-153.701889,-151.17615004561546,0.0,153.701889,0.2447591587348166,0.2216596,-0.06888802,-0.94138962,1.0,0.0,0.0,0.0,151.66479757972436
5.6774,82721.1119,-0.42421430550317324,2.1400937704650116,4.382023106694749,1.7204836650667423,1.1486336278837677,1.1833729269266426,-4.437416092061732,16.642376183499252,-35.113486205721586,-151.820724,-149.75869286553623,0.0,151.820724,0.2526307853275763,0.19076882,-0.03365679,-0.94797266,1.0,0.0,0.0,0.0,150.73351342288242
5.7129,82721.1319,-0.36720619657678305,0.5935513036722393,4.374058083382629,1.176946025902911,0.3828109130291312,0.8788569089506544,-4.879239467927845,16.586457553763026,-34.92475781257946,-149.339401,-147.3466969382289,0.0,149.339401,0.2687172986575825,0.17906764,-0.00403761,-0.9464193,1.0,0.0,0.0,0.0,148.82409419412056
5.7173,82721.1518,-0.3655308581396546,-0.4365691377625569,2.806564697420759,0.4908588395296439,-0.1378211814354298,0.3744943848478434,-2.851121518279051,16.526505877800865,-35.08513820990386,-148.121399,-145.60379407739921,0.0,148.121399,0.2773842648300464,0.19711487,0.01126679,-0.94025356,1.0,0.0,0.0,0.0,147.79169738762076
5.7465,82721.1719,0.21602359446409214,-0.6650887328356283,0.48568677851730335,-0.15671417461306023,-0.115079884546599,-0.224510851470855,-0.2151826636574814,15.920605267087359,-35.43771293002971,-148.994919,-145.98404932945823,0.0,148.994919,0.2710188314637841,0.21635641,0.00972488,-0.93789345,1.0,0.0,0.0,0.0,148.55019550569892
5.7581,82721.1929,1.000232408350501,-0.4930615646868928,-1.54127590560919,-0.5830741616258207,0.464251936414242,-0.7442218603435102,1.950603552310418,14.54201158679337,-35.9492815874243,-150.49057,-147.20428167903043,0.0,150.49057,0.2618280574891544,0.22912146,-0.00562693,-0.93750614,1.0,0.0,0.0,0.0,149.642879405209
5.7792,82721.2129,1.5549850602957287,-0.18020786835136748,-2.5987056469641328,-0.7226299349246077,1.3379413963428681,-1.1057583832436668,2.399282750357184,12.846983567886207,-36.53303887520307,-151.270462,-148.25495150512506,0.0,151.270462,0.2581469566533252,0.22341722,-0.02382016,-0.93961561,1.0,0.0,0.0,0.0,150.07972505684867
5.7967,82721.2329,1.6159630698201388,0.31379520477384637,-2.4974072224024013,-0.6501551742399106,2.216980631844345,-1.2699683115232383,1.242798722476767,11.711085786929642,-36.9347995469583,-151.897537,-149.6511901302236,0.0,151.897537,0.2526168864157245,0.19853964,-0.03406054,-0.94636494,1.0,0.0,0.0,0.0,150.735159512484
5.8165,82721.2529,1.154893249477244,0.9557742842998429,-1.3745517841575587,-0.4305844040142268,2.8971108278067543,-1.205270638643699,0.27532609337905534,11.74863148595129,-36.90891091039395,-153.531555,-151.95445745558476,0.0,153.531555,0.2368487291563419,0.17343119,-0.03354479,-0.95535284,1.0,0.0,0.0,0.0,152.59875175176373
5.837,82721.2729,0.7839712498417731,1.7200503000869203,0.19326761633756995,-0.30108240848664525,3.2627014465007322,-0.9885704586872799,-1.402581180501727,11.903269192985993,-36.805264683298496,-155.051102,-154.21266224927498,0.0,155.051102,0.2210013410155784,0.13264422,-0.02983426,-0.9657504,1.0,0.0,0.0,0.0,154.46429326478085
5.8575,82721.2929,0.15715939407060237,1.978010024915695,1.6826649696905633,-0.42915146267501725,3.4500593796564623,-0.6410747228873599,-1.9096995437413709,12.811710058933215,-36.45834620255091,-156.112198,-155.6063373621896,0.0,156.112198,0.2095808629336363,0.10475332,-0.0178004,-0.9720009,1.0,0.0,0.0,0.0,155.80441823948607
5.8776,82721.3129,-0.882280644550276,1.4578559356204237,2.7000674837039575,-0.9538143893725605,3.650300854178154,-0.2770439208175375,-1.285691081980989,14.12504771140584,-35.9912336761422,-156.532898,-156.15684515715998,0.0,156.532898,0.2042367145447571,0.09007773,-0.00142104,-0.97476733,1.0,0.0,0.0,0.0,156.43035859964516
5.9012,82721.3339,-1.870009087012138,0.6550968923401834,3.176570704835598,-1.9030866900378034,3.96840739926442,-0.09240358524039591,-1.2159610288074427,14.346514836134329,-35.891530545466466,-155.880371,-155.6862386487392,0.0,155.880371,0.2092262115999402,0.06416116,0.00172917,-0.97575855,1.0,0.0,0.0,0.0,155.8459797360542
5.9291,82721.3539,-2.6738154000893486,-0.1948961276199644,3.3934120426803958,-3.0621832445581445,4.402273843182391,-0.07531534505692256,-1.6310388295192837,13.580649389526773,-36.10492518532438,-155.268143,-155.24386615260443,0.0,155.268143,0.2144100965673677,0.02481169,-0.01044602,-0.97637266,1.0,0.0,0.0,0.0,155.23815744418388
5.9483,82721.3739,-3.462365554824759,-1.1027322976885827,3.5845918368420744,-4.172338988148136,4.8254633097229505,-0.1377790076397183,-1.834573666937371,12.67209290885009,-36.24605108219798,-155.089905,-155.11934315759495,0.0,155.089905,0.2149120639686052,-0.01829045,-0.03072486,-0.97597861,1.0,0.0,0.0,0.0,155.17926331166754
5.974,82721.3949,-3.6253238158407144,-1.5951743312030942,3.9985378720878924,-5.010960132544199,5.016570046956491,-0.15220023641583635,-3.0125899496758404,11.060272536585224,-36.37573688287799,-154.755447,-154.6216943882623,0.0,154.755447,0.2131088053023374,-0.0830327,-0.06466548,-0.9713437,1.0,0.0,0.0,0.0,155.39080264270493
5.9831,82721.4148,-2.9140658969187134,-1.4105538808996971,4.351144181974156,-5.3783207268154,4.864103956150187,-0.016540437316177714,-4.9302344453786215,8.882153182954216,-36.36332626330458,-153.868118,-153.07412948838535,0.0,153.868118,0.2082663272121953,-0.16606049,-0.11151765,-0.95739901,1.0,0.0,0.0,0.0,155.95845217614428
6.0044,82721.4349,-1.9879220938576165,-0.7917753022865477,3.8802971006270948,-5.17884220051835,4.536335353725713,0.13283439057472246,-5.8105241732909025,6.970012980459914,-36.30462664536181,-152.986115,-151.21262986363132,0.0,152.986115,0.194842421609606,-0.24114606,-0.16355743,-0.93655431,1.0,0.0,0.0,0.0,157.52896309810393
6.0193,82721.4549,-1.8417685912106154,-0.746355250508751,2.4456561601507705,-4.663137563031223,4.1841025728258705,0.15981162713666985,-3.9966803717350103,6.983951329064968,-36.388363047230165,-152.192062,-150.07993113715554,0.0,152.192062,0.183077821172729,-0.27630115,-0.20194119,-0.92160726,1.0,0.0,0.0,0.0,158.90182845804665
6.0403,82721.4748,-1.8265022885667153,-1.093961904225683,0.8603565361107126,-4.112079244878522,3.9333587036125985,0.1931202634337159,-1.9506848691188932,8.210009972216007,-36.366266263196636,-150.477417,-148.09483364095146,0.0,150.477417,0.1826320292421362,-0.29990488,-0.22914225,-0.90785265,1.0,0.0,0.0,0.0,158.95378850204247
6.06,82721.4949,-1.5153273153602864,-1.2172821351584684,-0.14137686522049542,-3.6336936293635413,3.84936712053464,0.24774171018314473,-1.421220407787418,9.48998119737056,-36.29223423294397,-147.932312,-144.36992378689797,0.0,147.932312,0.1876648403326711,-0.33747825,-0.25172904,-0.88742483,1.0,0.0,0.0,0.0,158.36692357322696
6.0855,82721.5149,-1.0847247910110864,-0.8070719563733575,-0.4910126925698872,-3.273629603567235,3.8242066887394426,0.26045250593253666,-1.4450127713898961,10.47030417876914,-36.25126939051452,-145.434494,-139.98638546092815,0.0,145.434494,0.1909711204282501,-0.37948769,-0.27238935,-0.86332101,1.0,0.0,0.0,0.0,157.98107381187705
6.1067,82721.5349,-0.4941463462128084,0.15260718397738193,-0.5925176082961485,-2.9828310429275247,3.7619248659913977,0.334990048173913,-1.4176070862931223,11.025718619640386,-36.237485507990684,-143.451004,-135.57530188711783,0.0,143.451004,0.1889112351445359,-0.42128605,-0.29166475,-0.83771253,1.0,0.0,0.0,0.0,158.22149610037368
6.1188,82721.5549,0.21140054940780217,1.2603903531212486,-0.9495925829216372,-2.6641644024387325,3.660203610592771,0.6212685636940323,-1.2359754532188418,11.472508242248821,-36.148438204817126,-142.218307,-131.0880691704258,0.0,142.218307,0.1827249568181351,-0.46273601,-0.30508253,-0.81204164,1.0,0.0,0.0,0.0,158.94295753027257
6.1397,82721.5749,0.5998986411009859,2.0717207780194364,-1.73430427844184,-2.348541479457484,3.531949209059867,1.0927632168145476,-0.7195467998277945,11.952906407087756,-35.967508762743705,-140.640762,-126.4558937492114,0.0,140.640762,0.1814264867283228,-0.49520549,-0.3177377,-0.78797126,1.0,0.0,0.0,0.0,159.09428069467498
6.1594,82721.5949,0.3285556283498263,2.3511588642061576,-2.6574453157232263,-2.1272292222064633,3.4290454985384953,1.6381903113082503,0.07820055218987854,12.6610348434041,-35.64375588411081,-137.836075,-122.11313270585643,0.0,137.836075,0.1918438727977349,-0.51312864,-0.33391193,-0.76707089,1.0,0.0,0.0,0.0,157.87917980023508
6.1799,82721.6149,-0.4057318930045178,2.039536503201908,-3.2622723442189043,-1.9992495265659278,3.396203576226953,2.1747798329956245,0.7495642101458806,13.83001751497049,-35.06898250218725,-134.607193,-117.9599959799088,0.0,134.607193,0.2111235782791062,-0.52443522,-0.34671304,-0.74845481,1.0,0.0,0.0,0.0,155.62359015408887
6.2027,82721.6349,-1.196019747554694,1.3120034671483176,-3.2804738511100195,-1.9381855029190265,3.3828844106519593,2.6084722559618267,0.6254800828633744,14.988970608901075,-34.40745358144126,-130.865311,-112.72536600072894,0.0,130.865311,0.2377111216362947,-0.53911316,-0.35742536,-0.72463614,1.0,0.0,0.0,0.0,152.4970236281763
6.2288,82721.6549,-1.7318941852666896,0.4458650225598164,-2.7901445279054577,-1.9218332712586186,3.3154946746656373,2.844488546667219,-0.14110245985675718,15.606752592955786,-33.90567546751816,-126.312553,-106.75731299029837,0.0,126.312553,0.2682147387490058,-0.55647135,-0.3729333,-0.6923303,1.0,0.0,0.0,0.0,148.88387803359774
6.2422,82721.6749,-1.8453772549375473,-0.20680866238927498,-2.18990477438172,-1.8601169495303065,3.1854652453282797,2.8627494459696363,-0.9582486746266703,15.521487579416132,-33.70821170807543,-121.641022,-101.02042757419287,0.0,121.641022,0.2947766250057636,-0.57574403,-0.39350083,-0.65328604,1.0,0.0,0.0,0.0,145.71171336647248
6.2615,82721.6949,-1.7618505872286818,-0.5000433974702364,-1.9267469432770552,-1.7016568444869922,3.0243169167819235,2.720591113662449,-1.0299213983177182,15.138878153370733,-33.754893435182524,-117.76207,-96.6122513716109,0.0,117.76207,0.3121762706052998,-0.59309667,-0.41466141,-0.61549836,1.0,0.0,0.0,0.0,143.61913657561962
6.2894,82721.7149,-1.757494963407653,-0.6351023130522913,-2.1164254332600763,-1.4665406923244293,2.876465439298838,2.529127901334293,-0.463565731087062,14.996608869359575,-33.885518566179165,-114.658005,-93.21660196839142,0.0,114.658005,0.3253869085089977,-0.60723531,-0.43213171,-0.58193713,1.0,0.0,0.0,0.0,142.0219652696926
6.3013,82721.7359,-1.925396507520991,-0.8206824183616277,-2.5053662385742363,-1.2796391688954158,2.8091139820071995,2.356020012676948,0.07960551529531301,15.114142174849597,-34.09162733907876,-111.581718,-90.07836948148778,0.0,111.581718,0.3409668199229889,-0.61895651,-0.44750288,-0.54806536,1.0,0.0,0.0,0.0,140.1284221896989
6.3204,82721.7559,-2.2948665657280287,-1.2199675290694816,-2.8293331481443182,-1.3293829158511574,2.821060842557178,2.2999375245603635,0.662382188052784,16.03606989240052,-34.065375095484264,-108.491325,-87.5048385952261,0.0,108.491325,0.3633498360187777,-0.62340593,-0.45764229,-0.51952428,1.0,0.0,0.0,0.0,137.38787195151926
6.3417,82721.7768,-2.705708301092859,-1.5811694818195432,-2.9969097688561703,-1.657775889760259,2.935052780686736,2.435275006960115,0.8943037619431489,17.132082373217635,-33.971932049728416,-105.872803,-84.40762213204202,0.0,105.872803,0.3879129456566949,-0.629749,-0.46137092,-0.48997614,1.0,0.0,0.0,0.0,134.35060206275574
6.3606,82721.7969,-3.238161364218807,-1.6457866945299977,-3.1342287816583,-2.195426926950018,3.173343061599234,2.7851515176016703,0.8124030948257525,17.4253139331221,-34.2047537649907,-103.862823,-80.72249507605098,0.0,103.862823,0.4059179360376472,-0.64352071,-0.46481162,-0.45283759,1.0,0.0,0.0,0.0,132.10267493343525
6.3878,82721.8178,-4.119249295027432,-1.5418785577829262,-3.38529525447007,-2.851453667346159,3.509567933002886,3.3001344987849603,0.5280020469070159,16.744343969012675,-34.77690053669241,-101.299789,-77.57544810776092,0.0,101.299789,0.4172921178670781,-0.65763354,-0.47871912,-0.40523255,1.0,0.0,0.0,0.0,130.67250954552435
6.4094,82721.8379,-5.350665285328116,-1.5655344309886976,-3.607627228843942,-3.4681560697451914,3.9133310444121046,3.892333424413783,-0.061161635720470287,15.492289715406548,-35.40312557428321,-97.728088,-75.1698578736254,0.0,97.728088,0.4262210508869249,-0.66801459,-0.50277138,-0.34541723,1.0,0.0,0.0,0.0,129.54404708879383
6.4287,82721.8579,-6.642954011432401,-1.7974080397337922,-3.4220325404680736,-3.8480622885935185,4.39879218262597,4.492728679697745,-0.9515787445971711,14.173245200844274,-35.822953844452634,-93.96386,-72.83163008978062,0.0,93.96386,0.4353836123458501,-0.67636693,-0.5267483,-0.27478194,1.0,0.0,0.0,0.0,128.38058752555892
6.4498,82721.8779,-7.578162655807871,-2.050419921361135,-2.5365825713228087,-3.871647573684987,4.9783480937199185,5.0192541969433595,-2.119224363822809,12.957083512146967,-35.999326121410256,-90.690712,-70.06255965638682,0.0,90.690712,0.4454984660160053,-0.68401575,-0.54406106,-0.194039,1.0,0.0,0.0,0.0,127.0895302266135
6.496,82721.8979,-7.807709366343097,-2.206977051236844,-1.0336556912249009,-3.573231506212835,5.5485067725860775,5.389576497694854,-3.3320465017133447,12.13652472679307,-35.89500526641866,-87.623169,-67.21297632464852,0.0,87.623169,0.4582622277730324,-0.68599707,-0.55483282,-0.1075374,1.0,0.0,0.0,0.0,125.44994206725795
6.5057,82721.9179,-7.077900539920844,-2.1614329380291566,0.7857831636805255,-3.0455224912889967,6.018493826462279,5.486933242245832,-4.436450651806549,11.602735490161592,-35.62610742359759,-84.413658,-64.63944991030455,0.0,84.413658,0.4721907132164039,-0.67942715,-0.56136078,-0.01699273,1.0,0.0,0.0,0.0,123.64681062257266
6.5164,82721.9379,-5.295408315815119,-1.8104582532959135,2.514181258956981,-2.362959722481235,6.291049287447804,5.2520209525994686,-5.39620048189796,11.410155123701028,-35.23770103168633,-80.718277,-62.20033111782012,0.0,80.718277,0.4880473043460898,-0.66288918,-0.5629077,0.07431477,1.0,0.0,0.0,0.0,121.57536567194738
6.5254,82721.9579,-2.711127809630476,-1.027317250611532,3.7104531976993123,-1.611819370875391,6.306401700857314,4.65205363727161,-6.089807141755696,11.532136866179831,-34.83008463816093,-76.249306,-59.446369318460505,0.0,76.249306,0.5052404431156706,-0.63769442,-0.5584414,0.16192938,1.0,0.0,0.0,0.0,119.30537037471679
6.5551,82721.9779,0.03414738437618592,0.03227533735796184,4.109728310151503,-0.8893077664396873,6.003355129015439,3.7916792072614913,-6.1395037541258475,12.316764551923889,-34.43841926927733,-69.589462,-55.79596398858107,0.0,69.589462,0.5249770505899178,-0.60553396,-0.54980606,0.23545916,1.0,0.0,0.0,0.0,116.66660335301592
6.5648,82721.9979,2.3790735194148165,1.2538269608748918,3.8745275011114106,-0.22855864675192583,5.4555450137698385,2.7600900165202846,-5.4009088197842985,13.493891356748652,-34.21126487006796,-59.856277,-50.014176059166594,0.0,59.856277000000006,0.5449093442919318,-0.57278627,-0.53817356,0.29216248,1.0,0.0,0.0,0.0,113.96306248777336
6.5846,82722.0179,4.049842885685306,2.4254957497328533,3.4139444836718127,0.42503120188619825,4.753224972307629,1.669105496375931,-3.623816055331856,14.703259505274094,-34.24370980338502,-48.049416,-40.554283080732574,0.0,48.04941600000001,0.5636192892671797,-0.54837346,-0.52286369,0.32898846,1.0,0.0,0.0,0.0,111.38706574486308
6.6018,82722.0379,5.151252383049006,3.224010157476896,3.1351953167565867,1.0495182016075284,3.941664367341435,0.6657429144629008,-1.2507652513638607,15.92244191375297,-34.29852024709926,-33.5327,-28.753672787322206,0.0,33.532700000000006,0.5828199063347776,-0.52855873,-0.50881606,0.34936062,1.0,0.0,0.0,0.0,108.70174953012415
6.6218,82722.0579,5.87393299724612,3.5152449740129135,3.24907385895661,1.6242254009990464,3.082901204227381,-0.20625353772141308,1.186632509753212,17.21899172110605,-34.133776272843576,-18.522573,-17.158941912803435,0.0,18.522572999999994,0.603600978590847,-0.50864035,-0.49906698,0.35760733,1.0,0.0,0.0,0.0,105.74352716025238
6.6432,82722.0779,6.40349168677928,3.3555910920234937,3.7095442882182112,2.14268981116497,2.226687331141596,-0.9864988997235072,3.3252898946197513,18.587412171241144,-33.67304154231313,-6.836804,-7.109369510289283,0.0,6.836804000000001,0.6272029934135989,-0.48701319,-0.49238187,0.35636309,1.0,0.0,0.0,0.0,102.31187078018355
6.664,82722.0987,6.84296055142376,3.039528191657808,4.308644395544352,2.5988326962568844,1.410172508994275,-1.726428459046145,4.939641268789897,19.70170888810256,-33.14159507860875,0.585356,0.6654095746148844,0.0,0.5853559999999902,0.6517671384251551,-0.46559939,-0.48595095,0.3496691,1.0,0.0,0.0,0.0,98.65006116716793
6.6852,82722.1189,7.088964342588115,2.5834036204555852,4.982393756119784,3.0651816918237453,0.6109939041343877,-2.3609651389899478,6.769127478564577,20.411205312948,-32.58756892353653,1.880442,2.1818863828306894,0.0,1.880441999999988,0.6766065698723654,-0.45161334,-0.47948781,0.329151,1.0,0.0,0.0,0.0,94.8419316318344
6.7052,82722.1388,7.150433563130087,2.0037690117044455,5.631094366297951,3.561046726075373,-0.2066880362469672,-2.844850920537869,8.792970825747409,20.48530426150662,-32.159146118505134,-1.093051,-1.2249477842902123,0.0,1.0930510000000027,0.7001253970636575,-0.44697902,-0.47193095,0.29549173,1.0,0.0,0.0,0.0,91.12586901873412
6.7307,82722.1589,6.9841150739465165,1.0841508934550728,6.209239568849924,4.065339224567491,-0.9586167612550094,-3.2100656070935947,10.38398437396351,20.540222744465176,-31.647306628030627,-5.458887,-6.10884089772371,0.0,5.458887000000004,0.7215890404455506,-0.44081971,-0.46915507,0.25471702,1.0,0.0,0.0,0.0,87.62833825704983
6.766,82722.1799,6.41369149587624,-0.45571896299117043,6.646295560594233,4.563846162822792,-1.5293725377774756,-3.5686027194329286,11.355886988563292,21.15885313139451,-30.796719492946394,-9.715689,-11.58210003679754,0.0,9.715688999999998,0.7413787621817371,-0.42505276,-0.47543889,0.20891516,1.0,0.0,0.0,0.0,84.30200447185827
6.7756,82722.1999,5.243205796722469,-2.4963804908687885,6.768082524273893,5.047116824357096,-1.853356290106098,-3.9759885134207407,11.882375698678132,22.20795324110625,-29.669434988403015,-13.529649,-17.89370789986593,0.0,13.529649000000006,0.7576787017348598,-0.4003121,-0.49024534,0.15916254,1.0,0.0,0.0,0.0,81.48003497287526
6.7889,82722.2199,3.4815346515466707,-4.629695771871243,6.389361740871511,5.450315400066815,-2.047256692194856,-4.377214059891165,12.388284592261929,23.017585409224505,-28.647447923304547,-17.660599,-25.2396817851829,0.0,17.66059899999999,0.7712200110166558,-0.37530488,-0.50409192,0.10127822,1.0,0.0,0.0,0.0,79.07285693600323
6.8132,82722.2399,1.2897119176985976,-6.358814720700508,5.488018777929474,5.68054602984431,-2.299209372453934,-4.66629841653662,13.0570611859816,23.27000416315679,-28.013796153844684,-22.677355,-32.85513205675895,0.0,22.677355000000006,0.78416982927476,-0.35531992,-0.50777543,0.03145705,1.0,0.0,0.0,0.0,76.71207463478989
6.8279,82722.2599,-1.1022516172672798,-7.249146277288586,4.257900591820519,5.722840870887583,-2.720294338038734,-4.697413194322488,13.807451012508409,23.09729717257174,-27.74714722415934,-28.526022,-40.4080088745031,0.0,28.52602200000001,0.7933719946790431,-0.3390784,-0.50335389,-0.04713362,1.0,0.0,0.0,0.0,74.99648847978048
6.8472,82722.2809,-3.2760041775133777,-7.404708365750203,2.839591734748714,5.560298407534138,-3.2942298328045334,-4.485235938582586,14.465613278293265,23.037245413757567,-27.456618905909963,-34.597637,-47.9478044855852,0.0,34.59763699999999,0.7970933667319189,-0.31893551,-0.49563539,-0.13140725,1.0,0.0,0.0,0.0,74.29314215127995
6.8651,82722.3009,-4.80724581697738,-7.1147537280748905,1.4313009832615577,5.319343844696315,-3.8600405201935364,-4.104080983204437,14.578041215153144,23.326146855689682,-27.148264223877426,-39.302986,-55.358093351906696,0.0,39.302986000000004,0.7921745641030885,-0.28983673,-0.49647865,-0.20484892,1.0,0.0,0.0,0.0,75.22161042536372
6.8885,82722.3209,-5.774903789207,-6.732041673684496,0.09022043129062673,5.081790976017117,-4.3454358404252895,-3.6924807122514487,14.543679167850518,23.69395462756961,-26.838965012681484,-42.927105,-63.492248159633974,0.0,42.92710499999998,0.7770349401496792,-0.25452152,-0.50948471,-0.2680687,1.0,0.0,0.0,0.0,78.02021342301369
6.9505,82722.3409,-6.18957471577721,-6.181006888135991,-0.8901425329146466,4.818567825163747,-4.770913492655942,-3.3670635859063327,14.125102490567125,23.16056664210919,-27.538921323112945,-46.141762,-71.24997653624663,0.0,46.141762,0.7545593875471145,-0.23024291,-0.52635187,-0.31714672,1.0,0.0,0.0,0.0,82.02623018137274
6.9534,82722.3619,-6.268817765604018,-5.76345775613486,-1.746505826063391,4.6102962483051035,-4.995548540011449,-3.2516237520043556,13.314738112489117,22.31382839861286,-28.66413453264703,-49.187618,-78.31676564179313,0.0,49.187617999999986,0.7306754243866697,-0.20999131,-0.54016459,-0.36088681,1.0,0.0,0.0,0.0,86.11390563312472
6.9554,82722.3819,-6.267111850714983,-5.508580369651074,-2.7845836470207592,4.507134604761287,-5.013815798629978,-3.3321574314376234,12.462312716667306,21.62663092658224,-29.556609346135936,-52.680378,-85.26623034137107,0.0,52.68037799999999,0.7051418542925058,-0.18746205,-0.5484044,-0.40851629,1.0,0.0,0.0,0.0,90.31798923527757
6.9732,82722.4018,-6.121327586158648,-5.186279298670819,-3.9368566193552272,4.502541104669254,-4.906991551923847,-3.4838859054886537,11.179494979016026,20.769528814955795,-30.52243592337928,-56.507626,-91.29986054007442,0.0,56.507626,0.6801793794205043,-0.16807437,-0.55039042,-0.45406762,1.0,0.0,0.0,0.0,94.28467605061961
6.9857,82722.4219,-5.841807183924945,-4.663446109294781,-5.185556970059941,4.575772835786135,-4.735561449204709,-3.600115008310738,9.722104400923229,19.70716261464142,-31.39751205970115,-60.947308,-96.99840233341055,0.0,60.94730799999999,0.6534099228412796,-0.15101448,-0.54813635,-0.4997966,1.0,0.0,0.0,0.0,98.40161686926955
7.0096,82722.4419,-5.333349088172367,-3.8732311870548726,-6.404130723724601,4.716024601931839,-4.530446948573085,-3.604879553476066,8.126208228040188,18.357972024136384,-32.24658165388378,-65.908073,-102.4999006390254,0.0,65.908073,0.6242004532668594,-0.13641603,-0.54356408,-0.5443368,1.0,0.0,0.0,0.0,102.75294623422496
7.0393,82722.4629,-4.466922986625351,-2.8409739963219263,-7.510672350166452,4.920266455851145,-4.257143129947045,-3.4968869417476225,6.3077159973636245,16.94266882142032,-33.04401590630061,-71.142914,-107.66168415153928,0.0,71.142914,0.594605335195855,-0.12123554,-0.53643638,-0.58650017,1.0,0.0,0.0,0.0,107.03099509488109
7.0544,82722.4839,-3.1730241456009525,-1.5485684980598395,-8.425974739541214,5.103337376174212,-3.905194213339539,-3.331330541023636,4.277173850244724,15.76172717581348,-33.70837748780851,-77.167038,-112.42226432740314,0.0,77.167038,0.565270556727983,-0.10523051,-0.52343881,-0.6288144,1.0,0.0,0.0,0.0,111.15783728013601
7.0762,82722.5039,-1.4615036430973138,-0.0247071416652046,-9.004939306418027,5.177050088337668,-3.4204690137635105,-3.173855665287861,1.8476611083959753,15.076845584149282,-34.1552753936667,-84.018013,-116.38271671799072,0.0,84.018013,0.539353765138902,-0.08811414,-0.50162673,-0.67059976,1.0,0.0,0.0,0.0,114.7206846622073
7.0926,82722.5239,0.445624489630699,1.6446427988671877,-8.998497644889122,5.20314227458948,-2.7258956429077084,-2.796784977572644,0.7944989004765795,15.226678120262491,-34.17098979787017,-91.946548,-122.06295050182614,0.0,91.946548,0.5060133941617981,-0.04976196,-0.48046714,-0.71458066,1.0,0.0,0.0,0.0,119.20270628665176
7.1171,82722.5437,2.224650435272412,3.2550040603105135,-8.002569459161569,4.9478624247874325,-1.8684011490877224,-2.38151026215864,-0.2699763355343876,15.660274169939036,-34.13176728850233,-100.899094,-127.00768551188062,0.0,100.899094,0.4752747534263774,-0.01046038,-0.45179421,-0.75490826,1.0,0.0,0.0,0.0,123.24551859620533
7.13,82722.5639,3.5283621862332715,4.514252502918031,-6.087347539571227,4.368468613138269,-0.9403693742803995,-1.9721702948205877,-1.6535980238766044,15.638322315910102,-34.3653143241907,-109.331306,-130.77165822255768,0.0,109.331306,0.4484261638119667,0.01691125,-0.42121902,-0.78816402,1.0,0.0,0.0,0.0,126.71449398339136
7.148,82722.5839,4.091619619621724,5.207226417962729,-3.443444509908968,3.532776596802448,-0.00392764419884567,-1.6036953895472266,-3.052120152273723,15.068977034061563,-34.89648744389454,-116.49157,-133.86650877854152,0.0,116.49157,0.4232846405502619,0.03146686,-0.39368412,-0.81538504,1.0,0.0,0.0,0.0,129.91573007555866
7.1674,82722.6039,3.305630022875138,5.092900592630072,0.0529131134266656,2.5217669272645624,1.0120718490922669,-1.255121001250001,-3.8635369880745074,15.331865038473797,-35.13320919646328,-122.570732,-135.86866396902465,0.0,122.570732,0.4079081693222434,0.0593019,-0.35922581,-0.8372879,1.0,0.0,0.0,0.0,131.853006326707
7.1897,82722.6239,1.6124777907561305,4.410276692367058,3.738471793883189,1.3050019313670638,1.7929332190492087,-1.097014554663391,-5.054824155615757,15.12851622301973,-35.451338774422766,-125.461296,-135.84404551480463,0.0,125.461296,0.4053777420415359,0.07328015,-0.32747045,-0.85033053,1.0,0.0,0.0,0.0,132.17039887143466
7.2089,82722.6439,0.3123698318297521,3.556750967389289,7.169686271085187,0.05054891747122214,2.123194402339231,-1.088191271208467,-6.869693072745946,14.513180985235197,-35.63425707884685,-126.7276,-135.1949788034244,0.0,126.7276,0.4038750078248333,0.05668821,-0.29935342,-0.86258852,1.0,0.0,0.0,0.0,132.3587029278423
7.2318,82722.6639,-0.032629295574895245,3.3574838192028222,9.744150979254137,-1.044036116093166,1.9804778877607858,-1.0663694629767801,-8.465435870756288,13.102323760051846,-35.890855419396075,-127.012611,-134.8308003582631,0.0,127.012611,0.3996564367386722,0.0206471,-0.28730723,-0.87023157,1.0,0.0,0.0,0.0,132.88659512268572
7.2503,82722.6839,0.3831345975428091,4.292661471880304,10.686462894178813,-1.8526166081436255,1.479220659231041,-0.956650354049525,-8.963895460486448,10.689808655008285,-36.4914555161154,-126.743927,-135.17866255980792,0.0,126.743927,0.3901778504350848,-0.01892705,-0.30002129,-0.8702817,1.0,0.0,0.0,0.0,134.06886754866358
7.2773,82722.7038,1.0231196268078744,5.402641177376866,9.828385443208166,-2.3940566289458896,0.8812954894929274,-0.7210466097677313,-8.097905582220324,8.688889808340399,-37.09317497999269,-126.767075,-136.27595965999814,0.0,126.767075,0.3765185858845734,-0.04386807,-0.32187101,-0.86758769,1.0,0.0,0.0,0.0,135.76359629140927
7.2954,82722.7239,1.67775409960633,6.170941066145945,7.651196182307654,-2.8245291971763655,0.3830089175532596,-0.43444789628447733,-6.663748117177764,7.548652399045957,-37.48258089257277,-126.405602,-137.22493056334693,0.0,126.405602,0.3670713873946323,-0.05401231,-0.34358194,-0.86272401,1.0,0.0,0.0,0.0,136.92976971416914
7.3204,82722.7439,2.2873332239031563,6.631107271232043,4.818041285595097,-3.2999105570706475,0.0922871085206769,-0.18019465296974913,-5.449934719833632,7.138638412115673,-37.58938883029374,-125.375076,-137.6869240547252,0.0,125.375076,0.3633003810354176,-0.05790897,-0.36374927,-0.85577208,1.0,0.0,0.0,0.0,137.3939547595428
7.3347,82722.7638,2.822526258444891,6.912662317127859,1.7698816160319293,-3.903756105032613,0.044973034539146806,0.021802937527190203,-4.821283337180667,6.957071836520004,-37.48582741613927,-123.783676,-137.9295008746676,0.0,123.783676,0.3603226210871189,-0.06532409,-0.38626966,-0.84657907,1.0,0.0,0.0,0.0,137.75997878658393
7.3518,82722.7848,3.1981200101281644,6.9174119970912535,-1.2841072717564614,-4.60872213146935,0.2072178214544853,0.20974509503811078,-4.741064275268995,6.634148335003818,-37.26512224111719,-121.410751,-138.02725372014706,0.0,121.410751,0.356023911230473,-0.08002425,-0.41440853,-0.83373177,1.0,0.0,0.0,0.0,138.28757883173586
