AppTimestamp(s),SensorTimestamp(s),acc_x,acc_y,acc_z,gyro_x,gyro_y,gyro_z,mag_x,mag_y,mag_z,PitchX,RollY,YawZ,Quat_w,Quat_x,Quat_y,Quat_z
0.0534,82715.4278,-3.41653,8.24802,2.63123,-0.26634,-0.6017,-0.0452,4.32,-36.78,-11.16,52.797283,22.493883,-178.48587,0.09831555526748594,0.18044634,-0.43372902,-0.8772983
0.0614,82715.4479,-2.9329,8.66222,4.01986,-0.62308,-1.12949,0.03421,3.78,-37.2,-11.22,52.576145,21.731277,-178.448471,0.0953990774275664,0.17488416,-0.43261629,-0.87929386
0.0683,82715.4679,-1.87705,10.62307,7.9679,-0.48258,-1.36773,-0.21014,3.66,-36.9,-11.4,51.997971,20.070454,-178.055893,0.09138851648365406,0.16391976,-0.42892963,-0.88362765
0.0743,82715.4878,-1.83635,7.15148,9.72046,-0.20281,-0.93646,-0.35247,3.78,-36.72,-11.16,51.44566,18.755224,-178.30452,0.08386214396170508,0.15311326,-0.42599908,-0.88772082
0.0788,82715.5079,-1.87466,5.04698,8.4659,-0.10934,0.11973,-0.08308,3.78,-36.54,-11.7,50.995964,18.187622,-178.660522,0.07845030323577278,0.14761606,-0.423372,-0.89039946
0.1029,82715.5279,-3.05261,8.837,4.99191,0.12156,-0.25595,0.0898,4.08,-36.12,-12.18,50.888721,18.392859,-178.725967,0.07857018588844854,0.14902391,-0.42248127,-0.89057744
0.1116,82715.5479,-3.82354,8.54012,5.07092,0.25229,-1.11483,0.20831,3.66,-36.3,-11.94,51.077831,17.914923,-178.765793,0.0767213786543304,0.14506651,-0.42432833,-0.8905139
0.1375,82715.5679,-3.06697,8.78672,6.12676,0.37629,-1.45814,0.35552,3.48,-36.6,-11.94,51.455883,16.497244,-178.659531,0.07270273038771949,0.13426261,-0.42806628,-0.89075649
0.154,82715.5879,-1.59933,7.88889,5.68623,0.40256,-1.51983,0.37813,3.42,-36.78,-11.46,51.993679,14.644795,-178.380112,0.06846080238462815,0.12069046,-0.43308413,-0.89060938
0.1714,82715.6079,-0.92416,6.99586,5.16429,0.20281,-1.26693,0.35858,2.94,-37.08,-10.92,52.505039,12.678871,-178.040314,0.06407653905652108,0.1065325,-0.43786561,-0.89040369
0.1914,82715.6278,-0.78051,7.57047,3.89297,-0.24923,-1.0122,0.2474,3.06,-36.9,-11.1,52.760319,11.012774,-177.657639,0.06085258338913683,0.0949862,-0.44042516,-0.89067405
0.2128,82715.6478,-1.42694,8.4635,4.98712,-0.69272,-1.10078,0.22052,2.76,-36.78,-10.98,52.475056,9.586213,-177.364487,0.057485746976201006,0.08506037,-0.43870732,-0.89274633
0.2314,82715.6679,-1.14443,8.22408,6.49547,-0.76969,-1.23517,0.19487,1.74,-36.72,-11.34,51.743164,7.96189,-176.998993,0.05378657011387637,0.07384393,-0.43351766,-0.89650238
0.2629,82715.6879,-2.19788,7.24007,9.92636,-0.56627,-0.36652,0.21564,1.32,-36.9,-12.06,50.878128,6.371832,-176.730942,0.04958176507675426,0.06240076,-0.42728096,-0.90059912
0.2756,82715.7079,-2.39181,7.11557,6.29436,-0.45021,-0.17959,0.28283,0.48,-37.14,-11.76,50.306755,5.982851,-176.509735,0.049699179848433334,0.06014238,-0.42282826,-0.90284503
0.2966,82715.7279,-4.57771,9.50019,7.38372,-0.81551,-0.05437,0.31643,-0.3,-36.78,-12.42,49.697235,5.998298,-176.423035,0.05025780854279914,0.06055126,-0.41796046,-0.90505069
0.3161,82715.7479,-6.03099,9.44752,10.45069,-0.85704,0.3653,0.55894,-0.54,-36.66,-12.54,48.677456,6.188414,-176.192383,0.05245753542150551,0.06282505,-0.40966842,-0.90855545
0.3355,82715.7679,-5.77481,9.32542,10.45787,-0.50519,1.46241,0.90164,-0.36,-36.84,-12.78,47.69664,6.864321,-175.583267,0.059367453370435516,0.07026641,-0.40118191,-0.91136777
0.3536,82715.7879,-3.77326,11.20008,9.40442,0.27672,1.0006,0.92363,-0.48,-36.42,-13.74,47.346809,8.0504,-174.380951,0.07293020052045875,0.08384331,-0.39689964,-0.9111104
0.3853,82715.8079,-2.99993,10.60631,11.315,1.51128,-0.59865,0.3036,-0.78,-36.3,-13.92,47.965912,8.268991,-173.360748,0.08202423821962072,0.08923845,-0.40091228,-0.9080627
0.3934,82715.8279,-3.1388,8.30549,13.31176,2.97186,-1.12766,-0.05986,-1.08,-36.3,-13.98,50.064079,7.473808,-173.469467,0.07903095023698135,0.08300684,-0.41817629,-0.9011063
0.4274,82715.8479,-3.44047,5.96874,10.30225,3.50392,-0.08063,0.08002,-1.26,-36.24,-13.26,53.143356,7.638072,-174.620361,0.07163914633222382,0.08045014,-0.44303635,-0.89000809
0.4329,82715.8679,-2.43969,5.21457,5.49469,2.78371,0.79168,0.42333,-1.56,-36.9,-11.46,56.323982,8.961752,-175.578522,0.07074964845762678,0.08697673,-0.46751624,-0.87684554
0.453,82715.8879,-1.39582,4.3359,3.63679,1.57664,1.45508,0.66157,-1.56,-37.98,-9.48,58.438885,10.515067,-175.736008,0.07703189264690194,0.09800144,-0.48279053,-0.86681896
0.4773,82715.9079,-0.38547,3.5506,2.02549,0.72876,1.81122,0.86743,-1.26,-38.88,-7.5,59.449055,11.889355,-174.975266,0.08916479283939284,0.11147204,-0.48874739,-0.86066812
0.5057,82715.9289,0.36392,2.81558,1.12767,-0.40134,2.50394,1.24555,-1.62,-38.94,-5.7,59.627884,12.698908,-173.166763,0.1062784368252551,0.12523264,-0.48753855,-0.85751259
0.5207,82715.9488,2.49715,4.11324,1.97761,-1.35001,3.63526,1.28465,-1.74,-39.18,-5.16,58.861534,12.782268,-169.445969,0.13406996124664883,0.14145024,-0.47733146,-0.85683823
0.5335,82715.9689,2.92093,3.61046,1.98719,-1.7935,3.59983,0.83994,-2.46,-39.0,-5.1,57.421692,13.485003,-165.514023,0.1657630099001554,0.16229852,-0.46027765,-0.85692841
0.5523,82715.9889,1.2809,2.18112,3.24893,-1.62734,1.94072,0.65851,-3.24,-38.82,-5.88,55.612633,14.840737,-162.830597,0.19049932928120825,0.18200506,-0.44034275,-0.85830206
0.5722,82716.0088,-0.34237,0.4956,8.65265,-1.18935,1.20218,1.27732,-3.6,-39.24,-7.5,53.5145,13.93703,-159.936646,0.2081779118428152,0.1845208,-0.42118275,-0.86326075
0.5924,82716.0289,2.44687,1.07021,7.10599,-0.77763,1.94744,2.10321,-4.26,-38.64,-8.82,51.665756,11.618001,-155.638718,0.23204473699755468,0.18051566,-0.40452924,-0.86598235
0.6134,82716.0489,4.52265,2.37505,6.33506,-0.54978,2.31151,2.39642,-4.8,-38.34,-10.14,50.356667,8.905872,-150.138748,0.2643813176955643,0.17717397,-0.39172941,-0.86328441
0.6336,82716.0689,5.76045,4.0462,4.94881,-0.45571,2.12215,2.29685,-5.4,-38.1,-11.34,49.44458,6.152733,-144.420044,0.2984970900315304,0.17401136,-0.3827545,-0.85680717
0.6528,82716.0889,6.86178,5.85861,3.94804,-0.6524,1.77701,1.99814,-6.48,-37.44,-11.64,48.771626,3.210558,-138.913696,0.33031148431049007,0.1687196,-0.377518,-0.84847403
0.688,82716.1089,7.18261,6.7301,4.06296,-1.00548,1.53938,1.51495,-7.62,-37.32,-12.66,47.902832,0.414831,-134.15036,0.3573323106736046,0.16117744,-0.37260655,-0.84113008
0.7024,82716.1299,6.79235,6.90967,5.284,-1.25655,1.38727,0.9389,-8.34,-37.14,-13.44,46.656364,-1.755828,-130.503204,0.3788563727956279,0.15298142,-0.36547449,-0.83635694
0.7191,82716.1499,6.63673,8.02536,6.09803,-1.32191,1.29015,0.51496,-9.06,-36.24,-14.88,45.18166,-3.104529,-128.018982,0.3950960706852907,0.14579935,-0.35613078,-0.83415377
0.7456,82716.1699,6.60081,8.6718,5.782,-1.40682,0.99449,0.06414,-9.72,-35.64,-16.68,43.842281,-3.910409,-126.504829,0.4059033105933664,0.13965884,-0.34743395,-0.83368313
0.7661,82716.1899,5.31752,9.38048,6.47632,-1.5235,0.55528,-0.24496,-9.9,-35.1,-18.18,42.51078,-4.412976,-125.895668,0.41111828557441943,0.1327989,-0.3389425,-0.8357417
0.7779,82716.2099,3.82354,10.67814,8.08761,-1.32741,-0.29627,-0.25351,-9.9,-34.68,-19.5,41.196938,-4.873978,-125.933029,0.4117438954176586,0.12430645,-0.33118463,-0.83984023
0.7995,82716.2299,4.14197,12.48097,11.50414,-0.60415,-1.43187,0.00611,-9.78,-34.68,-20.28,40.212605,-6.249557,-126.065781,0.408507935633897,0.11003479,-0.32914194,-0.84420329
0.8141,82716.2499,6.11719,13.86961,12.58871,0.19853,-2.02624,-0.09957,-9.72,-34.14,-20.7,39.743225,-8.06286,-126.480049,0.4010586074347296,0.09363233,-0.33252776,-0.84841633
0.8338,82716.2699,6.83784,15.24149,12.12424,0.52595,-2.1478,-0.73487,-10.2,-33.0,-20.76,40.14558,-10.275681,-127.119705,0.3890152189928709,0.07689197,-0.34353086,-0.85131741
0.8547,82716.2898,5.57849,14.00847,12.87602,0.55161,-1.9511,-1.37994,-10.74,-32.34,-20.88,40.941803,-11.959084,-128.63652,0.37096165649194435,0.06278531,-0.35576338,-0.85549861
0.8779,82716.3099,3.64637,11.69089,12.67012,0.75808,-1.50151,-1.70981,-10.86,-31.92,-19.98,41.961983,-12.739466,-130.952835,0.3490150486085494,0.0534573,-0.36674303,-0.86071503
0.8974,82716.3299,2.03747,9.93354,10.12029,1.03786,-1.39644,-1.71959,-10.92,-32.1,-19.32,43.312492,-12.809437,-133.526474,0.3265677538094246,0.04942119,-0.3778891,-0.86493403
0.9155,82716.3498,1.22104,8.9591,8.04452,1.28098,-1.97126,-1.60047,-10.26,-33.12,-18.3,44.975533,-12.949048,-135.953827,0.3042746294571411,0.04592508,-0.39138383,-0.86725229
0.9376,82716.3699,1.1564,8.20972,7.86495,1.59191,-2.75317,-1.52167,-9.42,-33.36,-17.22,46.893181,-14.016085,-138.126419,0.28004229290979454,0.03657626,-0.40884522,-0.86780417
0.9684,82716.3899,1.50356,7.39329,7.60877,1.99875,-3.37625,-1.60535,-9.12,-34.08,-16.2,49.141319,-16.015224,-140.121948,0.252663383386002,0.02132246,-0.43028212,-0.86635089
0.976,82716.4099,1.28329,6.16746,6.42843,2.21194,-3.66641,-1.79533,-8.82,-34.86,-14.64,51.748856,-18.487501,-142.186264,0.22144262289961736,0.00283713,-0.45432627,-0.86286891
1.0075,82716.4299,1.01754,5.24809,5.27203,2.06228,-3.65175,-1.90895,-8.7,-35.04,-12.66,54.436031,-20.846689,-144.540146,0.1875230484472258,-0.01625839,-0.47745904,-0.85825616
1.0337,82716.4499,0.40223,4.34308,5.20021,1.66094,-3.50392,-2.06472,-8.52,-36.06,-10.38,56.850079,-22.596466,-147.389664,0.15261414386002176,-0.03431551,-0.49638262,-0.85389441
1.0493,82716.4699,-0.16281,3.52187,5.43005,1.39216,-3.13313,-2.14841,-7.62,-36.42,-8.16,58.821526,-23.289551,-151.126221,0.11672350019726285,-0.05036804,-0.50960964,-0.85096222
1.0614,82716.4899,-0.60094,2.83952,4.27365,1.13499,-2.58091,-2.24554,-6.6,-36.72,-6.06,60.456173,-22.687849,-155.594818,0.08227194216043443,-0.06177907,-0.51837856,-0.84893954
1.0769,82716.5099,-1.63524,2.30322,2.61447,0.81062,-2.27303,-2.25409,-5.46,-37.2,-4.32,61.815292,-20.561045,-161.001556,0.04891045983319629,-0.06761516,-0.52374989,-0.84777474
1.0993,82716.5299,-3.41413,2.18351,2.41336,0.37935,-2.35794,-2.24554,-4.02,-37.32,-3.18,62.865021,-17.222813,-167.319962,0.015554022097162782,-0.07003976,-0.52656972,-0.84709907
1.1199,82716.5499,-5.09965,1.61609,3.68707,0.07758,-2.24004,-2.0073,-2.64,-37.86,-2.16,63.376339,-13.198399,-174.383377,0.018881513630409998,0.07210685,0.52598011,0.8472243
1.1346,82716.5699,-5.11162,1.76213,3.93367,-0.25168,-1.49845,-1.66827,-1.14,-37.74,-1.86,63.165501,-8.355072,178.196091,0.05152006161983076,0.0702721,0.52129632,0.84891558
1.154,82716.5899,-5.05655,2.73657,2.08296,-0.91447,-0.73793,-1.4618,0.6,-37.92,-1.44,62.402237,-3.208632,171.533615,0.07757846461039869,0.06210694,0.51466024,0.85161561
1.1753,82716.6099,-6.2752,2.86825,2.19069,-1.71897,-0.55955,-1.39277,2.16,-37.8,-1.44,60.581924,2.874935,164.805527,0.10158001423743404,0.04519304,0.50267023,0.85729909
1.194,82716.6299,-7.57765,3.08852,4.11084,-2.3616,-0.27489,-1.12338,3.42,-37.32,-1.98,57.627281,8.019808,159.370941,0.12334084361977873,0.02580395,0.48398352,0.86595678
1.2167,82716.6499,-7.60877,4.54898,7.22091,-2.68109,0.24984,-0.90408,4.26,-37.56,-2.58,53.888939,11.643326,155.957016,0.1397575907668513,0.00545127,0.4597365,0.87697232
1.2375,82716.6699,-7.35738,5.05416,8.7939,-2.6029,0.81245,-0.92485,5.1,-37.62,-3.84,49.882797,14.573147,154.010727,0.15012858554108155,-0.01800299,0.4334335,0.88841021
1.2628,82716.6899,-10.02692,5.3247,9.47864,-2.40803,1.0177,-0.57177,5.94,-37.44,-5.46,46.052029,17.47772,152.695633,0.1569518222609641,-0.0446258,0.40868801,0.89796925
1.2887,82716.7099,-10.94868,6.84263,10.3214,-2.24126,1.08184,0.23457,6.54,-37.26,-7.08,42.711761,19.681273,152.530762,0.15741048687170986,-0.06943312,0.38633388,0.90617168
1.2975,82716.7298,-9.98382,9.23204,11.66934,-2.07633,1.34574,0.86743,7.5,-37.32,-9.0,40.073185,20.915142,153.82077,0.1486607696986323,-0.08978479,0.36679354,0.91394812
1.3148,82716.7499,-8.837,11.4371,13.42429,-1.73364,1.67072,1.50639,7.86,-36.72,-10.98,38.341846,20.971609,156.524979,0.13042355548368217,-0.1026171,0.35112047,0.92150629
1.3366,82716.7699,-6.23211,13.25191,14.55435,-1.14598,1.87475,1.98409,7.56,-36.12,-12.78,37.296432,21.101549,159.786758,0.105814737801496,-0.11563911,0.33991754,0.92730087
1.3538,82716.7898,-3.48835,14.43943,14.02284,-0.34514,2.0635,2.08244,7.14,-35.58,-14.52,37.108784,21.365606,163.194046,0.07778437236042358,-0.12815513,0.3350141,0.93021041
1.3738,82716.8099,-2.24816,15.01883,12.39718,0.31521,1.9004,1.87963,6.24,-34.92,-15.36,37.783588,21.988956,166.215515,0.05014985190314631,-0.14099556,0.33719555,0.92946458
1.3963,82716.8299,-2.51391,13.84806,12.1793,0.85338,1.70065,1.63284,5.88,-35.1,-15.9,39.035343,22.732023,168.635269,0.025973244054779583,-0.15240732,0.34432772,0.9260323
1.4186,82716.8498,-2.61447,11.69089,11.48977,1.36589,1.66461,1.62063,5.58,-35.28,-15.54,40.801353,23.619982,170.476669,0.005043151859794662,-0.16284373,0.3559505,0.92019331
1.4354,82716.8699,-2.43251,9.72525,9.59357,1.64689,1.6359,1.68904,5.22,-35.7,-14.58,43.073128,24.595284,172.056366,0.01504320692308236,0.17280044,-0.3715331,-0.91207284
1.4543,82716.8899,-2.7246,7.77158,7.07965,1.65728,1.5968,1.83748,4.44,-35.94,-13.86,45.636364,25.500301,173.604477,0.03530716643018074,0.18201175,-0.38900423,-0.90238619
1.4733,82716.9098,-1.9824,7.04614,4.83868,1.36223,1.64017,1.95233,3.3,-36.54,-12.66,48.184471,25.952484,175.602615,0.057463562944645816,0.18957473,-0.40535387,-0.89243913
1.4935,82716.9298,-0.83318,6.33027,4.35505,0.87537,1.54793,1.83565,2.46,-37.38,-11.4,50.369965,26.006882,178.071594,0.08089996415216798,0.19661376,-0.41799748,-0.8832193
1.5131,82716.9499,0.06464,5.31034,5.58567,0.58032,1.49479,1.65789,1.62,-38.16,-10.5,51.912426,25.452419,-179.046585,0.10371185252687994,0.20161647,-0.42526916,-0.87620819
1.5354,82716.9699,0.15562,4.04141,5.91847,0.62736,1.69515,1.50639,0.72,-38.4,-9.72,52.997978,24.674286,-176.042267,0.1254646732888551,0.20615382,-0.42901561,-0.87046242
1.5534,82716.9899,-0.826,2.62883,4.458,0.7477,1.85581,1.49479,0.0,-38.4,-8.82,53.950554,24.271471,-173.215836,0.14674641968715044,0.21326719,-0.43160635,-0.86411721
1.5741,82717.0099,-1.31202,1.58975,1.74058,0.65485,1.63712,1.65361,-0.96,-38.1,-8.28,54.941837,24.058323,-170.498032,0.16768118007527488,0.22164315,-0.43430358,-0.85681838
1.5946,82717.0299,-1.21147,1.43892,0.27773,0.06414,0.82833,1.81977,-2.22,-37.92,-8.22,56.098595,23.401369,-167.605988,0.18809347035393112,0.22763848,-0.43844888,-0.8488605
1.6143,82717.0499,-0.45011,1.22344,1.98479,-0.57116,0.19975,1.99509,-3.0,-38.22,-7.44,56.813683,21.145306,-163.874176,0.20770214825128513,0.22538717,-0.44039336,-0.84386855
1.6336,82717.0699,1.47243,1.67115,6.79714,-0.8094,0.09957,2.14169,-4.26,-38.16,-7.74,56.829029,17.476765,-159.300125,0.22729724450674854,0.21594457,-0.43866456,-0.84218603
1.6542,82717.0899,3.39498,2.42054,9.40682,-0.52107,1.03297,2.12031,-5.58,-38.4,-7.68,55.484619,12.391611,-153.357315,0.2516225688314382,0.19957964,-0.42831579,-0.84462988
1.6744,82717.1099,4.25928,3.22738,7.07965,-0.42577,2.40864,1.74036,-7.26,-38.82,-7.5,54.342495,8.809199,-147.818207,0.27954409673259983,0.19183987,-0.41852874,-0.84254748
1.7093,82717.1299,4.45082,3.32315,3.85466,-1.05985,2.96086,1.44775,-8.58,-38.64,-8.34,53.153706,7.080885,-142.978882,0.309589649326934,0.1941392,-0.40590832,-0.83767694
1.7227,82717.1518,5.16908,3.91691,5.26006,-1.9114,3.00729,1.38544,-9.36,-38.52,-9.06,51.157173,6.003917,-138.314621,0.3416231878959807,0.19755316,-0.38613448,-0.83376646
1.7377,82717.1719,6.02142,5.0781,6.57687,-2.02135,2.97003,1.30542,-10.32,-38.16,-10.56,48.52327,5.165168,-133.84874,0.3739992146675553,0.19868128,-0.3615419,-0.83062494
1.7689,82717.1919,6.21774,5.97114,7.75243,-1.57725,2.45201,1.07207,-10.38,-37.44,-12.3,46.12463,4.537596,-130.10173,0.4018581831452987,0.19813314,-0.3395341,-0.8270247
1.7799,82717.2118,6.5649,6.83066,7.56807,-1.08551,2.01036,0.81734,-10.86,-37.02,-14.52,44.376781,3.901494,-127.066597,0.42394282775635633,0.19643018,-0.32382908,-0.82269216
1.8109,82717.2319,6.92164,7.78594,6.69658,-0.91691,1.61024,0.56688,-11.88,-36.48,-16.92,43.261055,3.186442,-124.628174,0.4408140712794316,0.19408995,-0.31428117,-0.81807053
1.8247,82717.2519,7.25922,8.6718,5.93283,-1.00732,1.20218,0.17043,-12.18,-35.7,-18.54,42.407139,2.419163,-122.697098,0.45362040970930434,0.1906517,-0.30788842,-0.81430042
1.8418,82717.2719,6.42364,8.70532,6.38534,-1.07757,0.34575,-0.27611,-12.66,-35.34,-20.34,41.499889,1.641381,-121.524048,0.46113704433372255,0.1847188,-0.30257908,-0.81343561
1.8587,82717.2919,4.88178,8.84418,8.92798,-0.80084,-0.58154,-0.33048,-13.08,-34.5,-21.12,40.570171,0.429441,-121.106819,0.46224997226056114,0.17349754,-0.3001737,-0.81616133
1.8755,82717.3119,4.43885,10.06044,10.33337,-0.23702,-1.248,-0.17959,-13.08,-34.08,-21.42,40.014156,-1.454388,-120.889145,0.4596823945130383,0.1583765,-0.30347562,-0.81945807
1.8951,82717.3319,4.17549,11.48738,10.22085,0.31398,-1.97371,-0.0281,-13.68,-33.3,-21.9,40.132954,-3.968742,-120.629608,0.45457048475622736,0.1415617,-0.31400889,-0.82141608
1.9152,82717.3518,4.17309,12.52407,9.89763,0.65118,-2.755,0.03054,-14.16,-32.22,-21.42,40.683884,-6.763348,-120.552597,0.44627930180820014,0.12402594,-0.32878143,-0.82301587
1.9355,82717.3719,5.35104,13.94623,11.03009,0.73915,-3.00973,-0.21441,-14.52,-32.22,-20.88,41.470074,-10.161522,-120.567863,0.4345418349039467,0.10288054,-0.34733465,-0.82458937
1.9555,82717.3919,5.73172,14.06115,11.96861,0.56566,-2.53265,-0.76725,-15.06,-31.86,-19.8,42.348305,-13.355051,-121.009331,0.4194402090345714,0.08225578,-0.36564371,-0.82680625
1.9755,82717.4119,4.51786,13.11304,12.94545,0.49969,-1.98959,-1.248,-15.36,-32.1,-18.9,43.190815,-15.343701,-122.297722,0.40161283455258023,0.06728637,-0.37937722,-0.83081442
1.9954,82717.4319,2.63362,11.21684,12.78504,0.82406,-1.70615,-1.43859,-15.78,-32.94,-17.64,44.208588,-16.307093,-124.201645,0.38197752689053904,0.05816475,-0.39068165,-0.83551055
2.0178,82717.4519,1.47962,9.96467,11.47301,1.41537,-1.85947,-1.34451,-16.02,-32.88,-16.62,45.732304,-17.025122,-126.085785,0.3618270657677036,0.05263776,-0.40437371,-0.83832711
2.0354,82717.4719,1.66397,9.27993,9.39964,1.91934,-2.11298,-1.34513,-15.84,-33.0,-15.48,47.889969,-18.264402,-127.455307,0.34165430944301894,0.04730241,-0.42352733,-0.83765113
2.0708,82717.4919,1.77171,8.36534,6.83784,2.08916,-2.36038,-1.57359,-15.54,-33.42,-14.04,50.509132,-19.81082,-128.645111,0.31990359806961954,0.04189308,-0.44619083,-0.83475769
2.0751,82717.5119,1.16837,7.28316,5.60722,1.94866,-2.56319,-1.90407,-15.12,-33.42,-12.3,53.161797,-21.130877,-130.322342,0.2948425721531771,0.03596805,-0.46806505,-0.83227956
2.0967,82717.5319,0.1245,5.50188,5.44441,1.82221,-2.56686,-2.15086,-14.04,-34.08,-10.14,55.668316,-21.785511,-132.829376,0.2665843840089835,0.0303044,-0.48706278,-0.83113432
2.1203,82717.5518,-0.98162,3.87382,4.80037,1.69576,-2.40742,-2.17285,-12.84,-34.98,-8.46,58.016964,-21.551996,-136.209183,0.23625059597157255,0.02593219,-0.50300038,-0.83096558
2.1362,82717.5719,-1.47962,3.14598,3.632,1.50212,-2.25409,-2.06534,-11.7,-35.64,-6.42,60.131634,-20.512871,-140.19722,0.2060168530954459,0.02292036,-0.51600248,-0.83112764
2.1554,82717.5918,-1.92973,2.78924,2.56419,1.28282,-2.07389,-1.99509,-9.96,-36.72,-5.22,61.93259,-18.677212,-144.75499,0.1765788344843853,0.02109672,-0.52601224,-0.8316766
2.1755,82717.6119,-2.50673,2.44687,1.66158,1.08062,-1.934,-1.92056,-8.64,-37.56,-3.78,63.444073,-15.824738,-150.127701,0.14721574035888615,0.0210932,-0.53337735,-0.83270115
2.1961,82717.6319,-2.86825,2.29365,0.89304,0.83139,-1.76174,-1.82099,-7.02,-37.98,-2.28,65.004471,-13.480564,-154.934998,0.12017743253643366,0.01916472,-0.54238337,-0.83127034
2.2273,82717.6518,-2.87783,2.42054,0.48123,0.47037,-1.54854,-1.78189,-5.04,-38.94,-1.68,66.29567,-11.38604,-159.376236,0.09576983938569651,0.01568437,-0.55018306,-0.82938576
2.2366,82717.6719,-3.70622,2.03268,-0.08859,-0.05376,-0.8998,-1.77823,-3.6,-39.18,-0.12,67.05307,-8.483606,-164.306717,0.07302554295685645,0.01411493,-0.55407083,-0.82914025
2.2633,82717.6919,-4.707,2.24576,-0.79966,-0.74587,-0.47464,-1.73913,-1.8,-39.24,0.18,67.045761,-4.515164,-169.606766,0.05378399342896661,0.01727757,-0.55254745,-0.83156484
2.2763,82717.7118,-5.35104,2.37505,-0.64883,-1.33596,-0.14478,-1.5351,-0.42,-39.48,0.3,66.114265,-0.358373,-174.682541,0.037173953602336864,0.02268447,-0.54500681,-0.83729988
2.3043,82717.7319,-5.26006,3.04064,-0.69192,-1.89002,-0.14355,-1.36101,0.96,-39.18,0.6,64.418884,3.38081,-178.952133,0.023451585997569212,0.02982997,-0.53253317,-0.84555817
2.3162,82717.7519,-5.48751,3.96719,0.06225,-2.40498,-0.45693,-1.28343,2.46,-38.82,-0.48,62.222908,8.35162,175.763123,0.0060291604936405655,0.04325139,-0.51728511,-0.85469824
2.3403,82717.7728,-6.23211,4.04141,4.40533,-2.69086,-0.28588,-1.26388,3.24,-38.88,-1.2,58.896622,13.335363,170.379501,0.015641981711823624,-0.05980487,0.4950715,0.8666504
2.3583,82717.7929,-6.70616,3.881,6.01423,-2.60351,0.31276,-1.20402,3.84,-38.4,-2.58,55.104374,17.088024,166.811493,0.032415404755914166,-0.07831912,0.46952304,0.87884212
2.3784,82717.8129,-7.83383,4.03662,6.34463,-2.56502,0.48869,-0.9615,4.44,-37.74,-3.9,51.270603,20.305351,164.466141,0.044368524901469204,-0.09990943,0.44343701,0.88961405
2.3966,82717.8329,-8.12113,4.50349,7.53216,-2.68292,0.63652,-0.59559,5.04,-37.5,-5.76,47.469944,22.563225,163.417297,0.05153864887503083,-0.12028978,0.41642848,0.89970076
2.4187,82717.8529,-8.37252,4.89375,8.41801,-2.7941,1.10017,-0.30421,6.12,-36.96,-7.68,43.739178,24.167458,163.548874,0.05265499288437356,-0.14016461,0.38828969,0.90929228
2.4401,82717.8729,-8.94234,5.1595,8.10437,-2.99752,1.62429,-0.13989,7.26,-36.36,-9.24,40.123795,25.807058,164.380753,0.04851937286733286,-0.16237946,0.35977393,0.91751921
2.4572,82717.8929,-10.82658,5.28161,7.97987,-3.3677,1.67621,0.0617,7.74,-36.12,-11.34,36.444706,27.706869,165.733871,0.04021945358788531,-0.1879705,0.32950062,0.92438024
2.4793,82717.9129,-11.47301,4.71179,10.35971,-3.44528,1.3042,0.7196,8.4,-35.7,-13.08,32.684273,29.1185,167.876907,0.027738174604385196,-0.21111834,0.29628703,0.93106049
2.5022,82717.9339,-8.64307,6.82347,14.55196,-2.95842,0.88087,1.72508,9.06,-34.92,-15.36,29.610504,28.960373,171.442184,0.006107629623186977,-0.22260964,0.26476434,0.93824703
2.5218,82717.9539,-4.7501,10.82419,18.12889,-2.21378,0.77091,2.08916,9.0,-33.72,-18.24,27.814135,28.078749,175.446533,0.020849132864771826,0.22602884,-0.24233896,-0.9432646
2.5389,82717.9739,-2.20506,13.3357,19.96046,-1.08856,0.77641,2.11909,8.88,-32.7,-20.46,26.944527,27.297897,179.130676,0.04780373720693583,0.22775498,-0.2281297,-0.9454096
2.5583,82717.9939,0.84036,14.77701,19.53669,-0.0617,1.09223,1.90223,8.4,-31.14,-22.38,27.206133,26.951023,-177.900101,0.0721164050650918,0.23064592,-0.22453043,-0.94402742
2.6053,82718.0138,1.68073,14.74828,16.78814,0.59865,1.50762,1.31397,7.62,-30.66,-23.76,28.25868,27.413363,-175.805435,0.09228133803600241,0.23830819,-0.22859161,-0.93938237
2.6222,82718.0339,-0.20111,13.42908,13.79778,0.89858,1.71775,0.7648,6.9,-30.72,-24.3,29.572371,28.763084,-174.713852,0.10651043597958695,0.25129735,-0.23587771,-0.93266654
2.6248,82718.0549,-2.76291,10.75954,12.69166,1.2816,1.51617,0.56872,6.54,-30.78,-24.36,30.925079,30.618404,-174.319214,0.11637094231873467,0.26690149,-0.2442217,-0.92497414
2.6416,82718.0749,-3.75171,8.35816,12.03326,1.8216,1.21623,0.68661,6.54,-31.62,-23.64,32.721794,32.532646,-174.364853,0.12408296237572763,0.28172758,-0.25687268,-0.91610557
2.6665,82718.0949,-4.42688,6.74447,10.27591,2.28464,1.01281,0.8491,6.0,-32.4,-22.56,35.028389,34.223717,-174.691818,0.13065803576074328,0.29361552,-0.2743181,-0.90634871
2.6829,82718.1149,-5.66468,5.37019,8.20732,2.57724,0.80084,1.03358,6.18,-33.72,-20.64,37.796169,35.848408,-175.232559,0.13703199794849638,0.30373436,-0.29578897,-0.89525223
2.7005,82718.1349,-6.29436,3.97198,6.55532,2.71591,0.50824,1.26693,6.36,-34.92,-18.72,40.680832,36.750477,-175.548965,0.144047911689394,0.30816886,-0.31814685,-0.88490945
2.7211,82718.1549,-5.9448,2.68151,4.96557,2.65543,0.25045,1.46913,5.88,-36.12,-16.92,43.555187,37.470673,-175.913345,0.15044609526875374,0.31061125,-0.34048769,-0.87461692
2.7403,82718.1749,-5.47793,1.78847,4.07733,2.39581,0.24068,1.55526,5.7,-37.02,-14.58,46.211906,37.99577,-176.176224,0.15669299298498185,0.31163192,-0.36086112,-0.86493474
2.7591,82718.1949,-5.43484,1.00796,3.05021,2.00058,0.43188,1.61207,5.34,-37.74,-12.66,48.428268,38.629166,-176.368027,0.16286468169968693,0.31376886,-0.3773098,-0.85595649
2.7838,82718.2149,-4.96079,0.15083,2.56419,1.59069,0.64141,1.8045,4.26,-37.98,-11.1,50.115562,39.362259,-176.299805,0.17010224627854445,0.31780308,-0.38873237,-0.8479113
2.7991,82718.2349,-3.96959,-0.34955,2.21464,1.17347,0.99876,2.0971,3.6,-38.52,-9.3,51.37376,39.977905,-175.593475,0.18061976524423604,0.32348952,-0.39519662,-0.84056568
2.8196,82718.2557,-2.46363,-0.21787,1.64482,0.66279,1.49418,2.31029,2.58,-39.12,-7.68,52.63419,40.276508,-174.03479,0.19621696101292727,0.32984257,-0.39961359,-0.83247328
2.8423,82718.2759,-0.97923,0.17717,0.54588,-0.04032,1.97798,2.3726,0.9,-39.66,-6.48,54.908966,39.833027,-171.018066,0.22189979463373824,0.33529887,-0.40846834,-0.81944418
2.8768,82718.2959,-0.59616,0.19154,-0.02155,-0.8601,2.13803,2.47278,-0.36,-40.56,-5.34,56.449093,38.800148,-166.922775,0.25070379956627514,0.34156084,-0.40984792,-0.80777997
2.8941,82718.3158,0.27294,0.31843,0.28491,-1.69088,2.05801,2.70552,-2.04,-40.8,-4.98,57.272823,36.630207,-161.439575,0.28299657035215997,0.34556437,-0.4045403,-0.79802591
2.9082,82718.3359,2.67193,1.49638,3.02627,-2.33045,1.68965,2.9572,-4.26,-40.92,-5.7,57.319942,32.916557,-154.434875,0.31870350640018597,0.34421092,-0.39355549,-0.79060799
2.9216,82718.3557,5.51863,3.12683,6.13155,-2.2602,1.69637,2.79593,-6.0,-40.32,-6.84,56.711277,28.187374,-146.676956,0.35551779397519445,0.33736962,-0.3798655,-0.78453237
2.9741,82718.3758,6.78277,4.5825,7.20176,-1.77334,1.54549,2.29746,-8.28,-39.3,-8.4,55.55592,22.201385,-138.14183,0.3939437593211042,0.32247013,-0.3663041,-0.77887267
2.979,82718.3959,7.30471,6.59842,8.44914,-1.29565,1.42515,1.83198,-10.56,-38.52,-10.68,54.288727,16.387579,-130.435104,0.4282332778936375,0.30443373,-0.35682771,-0.77240556
2.9833,82718.4159,8.38449,7.77397,6.84742,-1.15148,1.86497,1.15454,-12.24,-37.08,-12.36,53.252991,12.075635,-124.373642,0.4564878882013169,0.29111964,-0.35032451,-0.76429111
3.0078,82718.4359,8.2576,8.13789,5.1212,-1.49784,1.75318,0.44838,-14.28,-36.0,-14.16,52.138592,9.499298,-119.922958,0.47961104328528875,0.28361762,-0.3418951,-0.75673115
3.0209,82718.4558,6.96473,8.9184,5.78439,-1.82893,1.46608,-0.04032,-15.06,-35.1,-16.26,50.555206,7.962548,-116.976631,0.49676092826711904,0.276169,-0.3303425,-0.75354701
3.0397,82718.4759,6.01423,9.4954,6.37815,-1.83015,0.93951,-0.35797,-15.12,-33.84,-18.0,48.698761,7.013619,-115.071533,0.5093886445138472,0.26791471,-0.31730443,-0.75369942
3.0687,82718.4959,5.97832,9.95509,7.46033,-1.60535,-0.03848,-0.6127,-15.24,-33.24,-19.86,46.91367,6.001333,-113.959602,0.5166876852748089,0.25688326,-0.30713686,-0.75677723
3.0802,82718.5159,6.18901,10.69729,9.37569,-1.27488,-0.97311,-0.92424,-14.34,-32.34,-21.54,45.384254,4.474041,-113.596451,0.5174158238828563,0.24122041,-0.302834,-0.76314163
3.1036,82718.5359,5.01825,11.33415,12.04523,-0.76053,-1.73486,-1.04519,-13.8,-31.56,-22.5,44.111046,3.026365,-114.324036,0.5107387387091419,0.22411592,-0.30212027,-0.77307266
3.126,82718.5559,4.01029,12.39478,13.25669,-0.10873,-2.23454,-0.91996,-13.92,-31.02,-23.22,43.364929,1.97763,-115.936974,0.49819043537492275,0.2095232,-0.30466205,-0.78427505
3.1399,82718.5759,4.80995,13.58949,13.73314,0.31093,-2.30418,-0.92363,-13.38,-30.42,-23.52,43.345402,0.333322,-117.3395,0.48412828883199754,0.19433528,-0.3140468,-0.79323906
3.1594,82718.5959,5.10204,13.96298,13.08192,0.3879,-2.13742,-1.23822,-13.56,-30.12,-23.34,43.752525,-1.186084,-118.844269,0.4687315301080679,0.1812671,-0.32565755,-0.80086213
3.1801,82718.6159,4.05817,13.38598,13.3764,0.48319,-2.1252,-1.51067,-13.98,-30.54,-22.5,44.244373,-2.191908,-120.788414,0.4513145116418089,0.17060369,-0.33611187,-0.80885005
3.2098,82718.6359,2.51391,12.17452,13.91271,1.05374,-2.33839,-1.71164,-13.8,-30.42,-22.02,44.992836,-2.933761,-123.127708,0.43118614265949684,0.16134104,-0.34761316,-0.81683087
3.2233,82718.6559,1.23301,10.72602,12.77067,1.84726,-2.65421,-1.78984,-13.68,-30.84,-21.48,46.504169,-3.727682,-125.654427,0.40793796765648116,0.15360503,-0.36466792,-0.82280582
3.2476,82718.6769,0.63207,9.40921,10.64223,2.3836,-3.16489,-1.81549,-13.02,-31.68,-20.28,49.068909,-4.907551,-128.386841,0.37966075013011874,0.14553916,-0.39044043,-0.82597357
3.2666,82718.6969,0.75896,8.34379,9.05487,2.56319,-3.53752,-1.91323,-12.3,-32.16,-19.02,52.059082,-6.420337,-131.006775,0.3496348644158701,0.13588341,-0.41957054,-0.82659042
3.281,82718.7168,0.71826,7.03895,8.39407,2.64138,-3.80386,-2.11237,-12.18,-33.42,-16.56,55.010822,-8.085816,-133.812225,0.3170859180431226,0.12317488,-0.44829389,-0.82662994
3.3035,82718.7369,0.10774,5.30555,7.53455,2.70858,-3.99506,-2.31151,-11.76,-34.68,-13.44,57.681393,-9.364739,-137.228836,0.2816815357674582,0.10872458,-0.47373843,-0.82728857
3.3333,82718.7569,-0.63207,3.66552,6.86178,2.81609,-4.21864,-2.3274,-11.34,-35.52,-11.16,60.324436,-10.100149,-141.448959,0.24255855079791924,0.09337884,-0.49756649,-0.82757074
3.3458,82718.7778,-0.76375,2.69108,6.09803,2.92788,-4.33714,-2.21072,-10.74,-36.3,-8.34,63.087002,-10.608181,-146.302292,0.1996787525682813,0.07558268,-0.52137959,-0.82618338
3.3623,82718.7978,-0.68953,2.47321,4.69024,2.85396,-4.21131,-2.19667,-9.24,-36.96,-5.76,65.61496,-10.728078,-151.258408,0.15862788000758937,0.05777435,-0.54206723,-0.82320255
3.3882,82718.8179,-1.15879,2.14999,3.34949,2.45568,-3.94314,-2.25409,-7.92,-37.5,-3.06,67.865349,-9.707946,-157.159042,0.11739745279425158,0.04131937,-0.55910486,-0.81970257
3.4073,82718.8379,-1.7765,1.89381,2.49715,1.77456,-3.52408,-2.32068,-5.46,-37.74,0.12,69.509819,-6.818089,-164.635254,0.07604253358854554,0.02765546,-0.57048166,-0.81731474
3.4294,82718.8588,-2.35111,1.84832,2.49955,0.96639,-2.79654,-2.33595,-3.36,-37.74,2.82,70.814224,-2.271796,-173.474899,0.03491029096196736,0.01683565,-0.5792492,-0.81422859
3.4425,82718.8789,-3.60567,1.66876,2.30801,0.19792,-1.89551,-2.35,-0.78,-37.32,5.04,71.534447,2.992481,177.98999,0.0009786859228153747,0.0109351,-0.58457589,-0.81126475
3.4626,82718.8989,-5.97114,0.88585,2.00395,-0.36102,-1.21684,-2.19301,1.62,-36.84,6.12,71.21859,9.223787,169.439056,0.02795792946271976,-0.0116808,0.58392256,0.81124371
3.4829,82718.9189,-7.25443,0.96247,1.42216,-0.79046,-0.88148,-1.56931,3.3,-36.54,6.96,69.568626,16.324217,160.845993,0.05539294585407549,-0.02102668,0.57623929,0.81513053
3.5078,82718.9389,-7.20655,1.8148,0.9505,-1.10506,-0.77213,-0.93829,5.34,-36.48,6.96,66.928604,22.77092,153.564651,0.08102350322826678,-0.03672034,0.56390095,0.82103747
3.5233,82718.9589,-8.25042,3.04303,1.22104,-1.40377,-0.93401,-0.64324,6.54,-36.42,6.3,64.125038,26.974125,148.838303,0.10209378139681011,-0.0517369,0.5503245,0.82706898
3.5429,82718.9789,-9.28232,3.18189,2.32716,-1.69454,-0.95173,-0.18754,7.62,-36.66,6.0,61.196869,29.288197,145.999573,0.12042391492999364,-0.0641127,0.53458679,0.83402914
3.5661,82718.9989,-8.93756,3.84509,2.67672,-2.16552,-0.75442,0.41233,8.52,-36.42,5.04,58.345421,30.001312,145.102585,0.13253505244789562,-0.07441925,0.51693422,0.84242225
3.5838,82719.0189,-7.46751,5.74608,4.78601,-2.91933,-0.26512,0.80329,8.46,-36.54,4.14,55.410614,29.075945,146.374237,0.13616778019870188,-0.08257004,0.49508354,0.85412693
3.6031,82719.0389,-6.43801,7.31189,7.16824,-3.56623,0.68417,0.73426,8.58,-36.84,2.94,52.0354,27.571306,149.157211,0.13132100367165217,-0.09314794,0.46761858,0.8691439
3.6259,82719.0589,-6.77559,8.28633,8.6694,-4.02988,1.4563,0.56933,8.1,-36.84,1.02,48.098927,26.855175,152.355759,0.12031239736754626,-0.11121797,0.43556923,0.8851186
3.6587,82719.0789,-8.18338,9.32063,11.1091,-4.05981,1.82221,0.53267,7.5,-37.44,-1.62,43.841869,26.848082,155.661972,0.10549031390543628,-0.133986,0.4003669,0.90034765
3.673,82719.0989,-10.15381,9.98382,12.38281,-3.65542,2.0183,0.82345,7.56,-37.2,-4.32,39.910751,27.24041,158.942612,0.08791055065889895,-0.15701021,0.36655203,0.91283029
3.6867,82719.1189,-10.66856,10.98699,13.92468,-2.97736,1.87291,1.62001,7.14,-37.38,-6.84,36.822449,27.269072,162.801071,0.06425955588712833,-0.1752528,0.33692709,0.92284197
3.7118,82719.1388,-7.74764,13.48654,17.08742,-2.14475,1.97981,2.43735,7.26,-37.02,-9.6,34.902409,27.022505,167.089279,0.03466406803688449,-0.18868594,0.31480333,0.92956704
3.7228,82719.1589,-2.34392,15.58146,19.24938,-0.93218,2.4398,2.73301,6.84,-36.36,-11.4,34.310452,26.946312,171.577057,0.0002195354582933753,0.20095749,-0.30241835,-0.9317506
3.7442,82719.1789,-0.22745,15.31571,16.45774,0.27184,2.65116,2.5186,5.88,-36.48,-12.84,35.060234,27.690107,175.444138,0.03521984030923609,0.21637923,-0.30129442,-0.92798775
3.7633,82719.1988,-0.87867,13.41232,11.88721,1.01709,2.35305,2.26326,5.1,-36.0,-14.52,36.887108,29.091904,178.282516,0.06568689733565225,0.23363961,-0.30976585,-0.91931653
3.7917,82719.2189,-1.88184,10.72363,9.24641,1.23822,2.00181,2.26875,3.72,-36.12,-15.12,39.242641,30.422592,-179.490219,0.09215001212550639,0.2485828,-0.32293451,-0.90853083
3.8046,82719.2389,-1.30963,9.14346,8.76038,1.34268,1.75135,2.33289,2.88,-36.54,-14.82,41.835251,31.349133,-177.343658,0.11727823904173777,0.26026714,-0.33780622,-0.89688003
3.8334,82719.2589,-0.4118,7.46273,7.52498,1.39461,1.68171,2.28464,1.92,-36.6,-14.52,44.568657,31.971661,-175.186096,0.1416975555511677,0.26991564,-0.35351554,-0.88436085
3.8449,82719.2789,-0.85712,5.2026,5.782,1.27854,1.47585,2.33534,1.14,-37.38,-13.14,47.219913,31.543737,-172.372482,0.16727146609672677,0.27414039,-0.36801064,-0.8726027
3.864,82719.2989,-1.41497,3.06937,4.20661,1.08001,1.25594,2.65971,-0.24,-38.1,-12.06,49.636539,30.467907,-169.123505,0.19279279467379062,0.27580222,-0.38056657,-0.86135542
3.8845,82719.3189,-0.98641,1.60651,3.27766,0.80756,1.06291,3.07754,-1.56,-38.46,-11.16,51.808208,28.37307,-164.857498,0.22103958349519737,0.27433917,-0.39080352,-0.85038352
3.9101,82719.3389,0.69432,1.16837,2.80122,0.47037,1.02503,3.27974,-3.12,-38.88,-10.26,53.629868,24.953449,-159.344162,0.2521045608239191,0.26865333,-0.39875272,-0.83980054
3.9258,82719.3589,2.24097,1.02232,2.9329,0.146,1.27976,3.22537,-5.34,-38.28,-9.66,54.865826,20.367577,-152.675339,0.2854874507446175,0.25958925,-0.40355533,-0.82961041
3.9478,82719.3799,3.33512,1.06781,1.81002,-0.37751,1.82832,2.9291,-7.2,-37.86,-9.06,56.048389,16.691345,-146.191696,0.3192092052388312,0.25776127,-0.40752748,-0.81583452
3.9667,82719.4009,2.86107,0.68714,1.403,-1.0287,1.72081,2.60656,-9.66,-37.08,-9.36,56.319038,13.725554,-139.990417,0.3524350969857132,0.25928143,-0.40423682,-0.80321556
3.9882,82719.4209,2.21942,0.29209,3.0574,-1.51861,1.5235,2.52226,-11.82,-36.18,-9.96,55.645428,10.923151,-134.360428,0.3823878715926416,0.25778157,-0.39560634,-0.79424417
4.0151,82719.4408,3.92649,1.06303,4.9967,-1.83015,1.45875,2.49111,-13.68,-35.58,-11.1,54.31039,8.134501,-128.887192,0.4120852324529446,0.2533305,-0.38348609,-0.78673238
4.0357,82719.4609,5.47075,2.24337,6.33266,-1.90895,1.61635,2.18873,-14.76,-34.44,-12.78,51.715767,3.675951,-122.200813,0.4469125125606272,0.23593561,-0.36768216,-0.78064936
4.055,82719.4809,6.6056,3.2609,7.64708,-1.73425,1.40927,1.7428,-16.56,-33.66,-14.46,48.766933,0.099094,-116.568909,0.4791146901981594,0.21770175,-0.35077712,-0.77460343
4.0691,82719.5019,7.50343,3.94804,8.56885,-1.30664,1.20524,1.31214,-17.34,-32.34,-16.2,46.04723,-2.510366,-112.403114,0.5047200942721487,0.20075873,-0.33614933,-0.76938754
4.101,82719.5219,8.55927,5.01585,9.22486,-0.87904,1.11361,1.02198,-18.66,-31.32,-17.28,43.821888,-4.532029,-109.174835,0.5251574928224576,0.18616852,-0.32514808,-0.76408744
4.1236,82719.5429,10.20648,6.81869,9.27514,-0.66401,1.34513,0.54672,-19.44,-30.12,-18.42,42.238075,-6.028932,-106.618027,0.5414024054106221,0.17564858,-0.31783015,-0.75829744
4.1269,82719.5628,9.96706,7.92241,7.95114,-0.64507,1.28221,-0.02871,-19.44,-29.04,-19.5,41.118435,-6.707351,-105.029991,0.5525174347212355,0.16987965,-0.31151742,-0.75420308
4.1509,82719.5829,9.13148,8.47069,7.87692,-0.57727,0.64691,-0.3653,-20.16,-27.9,-20.4,40.231243,-7.071283,-104.289406,0.5583931077025474,0.1649271,-0.30656242,-0.75300443
4.1684,82719.6029,8.51139,9.26077,8.59758,-0.33292,-0.21197,-0.60659,-19.86,-27.24,-21.84,39.620476,-7.814977,-104.016556,0.5595722578608138,0.15760055,-0.30593529,-0.75395262
4.1859,82719.6228,7.76679,10.52012,9.85214,0.11179,-1.1918,-0.8827,-19.86,-26.94,-22.86,39.460293,-8.397951,-104.656693,0.5541481320913128,0.1512064,-0.30861497,-0.75816441
4.2071,82719.6429,7.49864,11.05163,10.79067,0.56383,-2.13925,-1.23517,-19.68,-26.58,-23.16,39.871117,-9.166622,-106.035339,0.5419477557089819,0.14444922,-0.31668738,-0.76494193
4.2284,82719.6629,6.68461,11.50175,11.88961,0.8601,-2.76294,-1.42698,-19.26,-27.12,-23.04,40.856533,-10.704864,-107.737732,0.5238472322818679,0.13430299,-0.33221844,-0.77277273
4.2465,82719.6829,6.88333,11.60709,11.67892,0.93462,-2.5864,-1.61818,-19.02,-27.42,-22.08,42.195812,-12.589758,-109.559151,0.5025765188850178,0.12277802,-0.35129097,-0.78034419
4.2665,82719.7029,6.08367,10.95587,10.90559,0.79474,-2.46362,-1.85886,-19.02,-28.08,-20.46,43.646915,-13.976987,-111.6623,0.48008666666970645,0.11378146,-0.36873063,-0.78778696
4.2904,82719.7237,5.35344,10.41717,11.53526,0.83505,-2.23577,-1.98043,-19.02,-29.1,-19.14,45.874882,-15.259551,-115.48233,0.44343295599203036,0.10277271,-0.39191481,-0.7995047
4.3098,82719.7439,4.96079,9.68933,11.01572,1.16736,-2.09099,-2.32312,-19.2,-29.76,-17.64,46.747955,-15.421271,-116.985764,0.42999730067483,0.10045606,-0.39954844,-0.80335045
4.33,82719.7638,3.49075,7.98706,9.54808,1.47646,-1.95416,-2.64505,-18.72,-30.78,-16.26,48.850864,-15.277452,-120.182861,0.40231654179041926,0.09944197,-0.41560495,-0.80964512
4.3475,82719.7839,1.81959,6.24168,7.56807,1.62979,-1.97981,-2.80815,-17.7,-31.56,-14.94,50.846775,-14.961217,-123.558617,0.3741937984721059,0.09767052,-0.43065545,-0.81546021
4.3692,82719.8039,0.11013,4.88417,6.359,1.74158,-2.215,-2.69086,-16.56,-32.52,-13.26,52.924999,-14.228133,-127.417343,0.34399677087608405,0.09645756,-0.44554722,-0.82088357
4.3874,82719.8238,-0.71347,4.07014,5.2457,1.93705,-2.64199,-2.41658,-14.46,-33.84,-12.06,54.981621,-13.580153,-131.34494,0.31314289422176816,0.09325711,-0.46087432,-0.82512999
4.4078,82719.8438,-1.46765,3.6751,4.39815,2.13497,-3.17894,-2.1081,-13.08,-34.98,-10.2,57.107754,-13.411133,-135.096146,0.2815787411501113,0.08650741,-0.47790208,-0.82755029
4.437,82719.8639,-1.89381,3.57933,4.16591,2.31579,-3.78981,-1.83993,-11.88,-35.52,-8.58,59.332626,-13.782192,-138.785843,0.24802906882033218,0.07535725,-0.49662587,-0.82835114
4.468,82719.8839,-1.83396,3.67749,4.51068,2.42514,-3.95413,-1.61513,-10.08,-36.3,-6.48,61.64045,-14.698099,-142.381256,0.21257710236104227,0.05985063,-0.5164187,-0.82736969
4.4735,82719.9037,-1.66636,4.00311,3.88579,2.30785,-3.59616,-1.48868,-8.76,-36.96,-3.96,63.978573,-15.526885,-146.027512,0.1770683171404293,0.04377441,-0.5354768,-0.82461822
4.4917,82719.9249,-0.58179,5.36541,3.62243,1.76784,-2.80143,-1.55587,-7.5,-37.32,-1.74,66.264053,-15.778015,-149.963547,0.14248533978339048,0.02927741,-0.55268866,-0.82059491
4.5098,82719.9459,-0.02394,5.95438,2.74136,0.91385,-1.61757,-2.06534,-5.64,-38.16,0.72,67.981255,-13.936893,-154.99115,0.11197548474872822,0.02194408,-0.56354403,-0.81816751
4.5301,82719.9659,-3.0143,4.80037,2.32956,0.21564,-0.81673,-2.62428,-4.38,-38.4,2.16,68.766815,-7.736053,-163.128006,0.08311226590917628,0.02758988,-0.56551266,-0.82007718
4.5512,82719.9869,-6.9791,3.69425,2.03986,-0.17349,-0.53817,-2.47828,-2.76,-38.28,4.02,68.590027,2.209652,-174.270859,0.05213001494106418,0.04406318,-0.56184942,-0.82441866
4.5734,82720.0069,-8.12831,3.96959,1.86269,-0.38607,-0.5058,-1.88757,-0.72,-38.1,4.92,67.464714,12.101892,174.972778,0.022209440543094858,0.06336249,-0.55553365,-0.8287788
4.5912,82720.0268,-10.24479,4.61841,2.16196,-0.55589,-0.44715,-1.48746,0.78,-37.74,5.04,65.796288,19.712191,166.800613,0.002707541912474118,-0.08126829,0.54810315,0.83244884
4.6158,82720.0469,-11.48259,3.58891,2.67911,-0.66768,-0.32437,-0.91508,2.28,-37.44,5.16,63.74675,25.670551,160.550217,0.02424478395067436,-0.09897449,0.53931791,0.83591413
4.6322,82720.0669,-10.97263,3.46441,1.78847,-1.00854,-0.09163,-0.01833,3.9,-37.02,4.44,61.703266,29.766932,156.63443,0.03901703292053393,-0.11558251,0.52999604,0.83917969
4.6583,82720.0868,-8.77236,5.22175,2.35829,-1.72447,0.24557,0.75136,4.68,-37.14,3.6,59.785904,31.430262,155.706131,0.04363875901305889,-0.12861323,0.51842123,0.84427112
4.6757,82720.1069,-6.48829,6.8977,4.19943,-2.3897,0.69761,0.85216,5.16,-37.62,3.24,57.662781,31.28577,157.299179,0.038537369921392714,-0.14020409,0.5017795,0.85268694
4.6938,82720.1269,-5.97832,7.56089,6.8546,-2.72751,1.3213,0.74892,5.04,-37.8,2.52,55.032692,30.68051,159.961029,0.028444982837425137,-0.15352941,0.47956696,0.86350167
4.7112,82720.1467,-5.68384,8.23127,7.84101,-2.83625,2.06534,0.69578,4.32,-38.7,1.56,52.19754,30.524597,162.940781,0.01397169980090891,-0.17083511,0.45477271,0.87395763
4.7306,82720.1669,-4.87938,9.20092,8.03494,-3.04577,2.63527,0.85277,4.14,-38.76,0.06,49.422531,30.939852,166.190659,0.005446092420098175,0.1921137,-0.42910773,-0.88256967
4.7549,82720.1877,-2.41814,11.19768,7.96311,-3.41962,3.42512,0.93401,3.42,-38.58,-1.92,46.734707,31.376841,170.370789,0.03269289356353706,0.2153022,-0.40133604,-0.88966596
4.7724,82720.2079,-1.66158,13.30937,9.03332,-3.68535,3.54607,0.82955,3.24,-38.28,-4.26,43.962387,32.336102,174.794067,0.06367147060149926,0.24162084,-0.37085402,-0.89444542
4.7931,82720.2279,-2.43969,14.64294,12.469,-3.1936,3.06715,0.95173,3.0,-37.92,-6.9,41.085468,33.428436,179.037125,0.09338040532516534,0.26647654,-0.33833161,-0.89766479
4.8128,82720.2479,-2.83473,14.98052,14.60463,-1.80999,2.4569,1.34024,2.52,-37.56,-9.06,38.550144,34.820271,-175.522156,0.1338812792478252,0.29452685,-0.30370653,-0.89615405
4.835,82720.2679,-2.43251,14.4921,13.25191,-0.46242,1.87719,1.7092,2.1,-36.84,-11.16,38.540089,35.196278,-174.142319,0.1456230401309339,0.30110064,-0.29958248,-0.89352262
4.8545,82720.2879,-0.15562,13.80976,11.90158,0.38546,1.41171,1.91812,1.62,-37.08,-13.08,39.510651,35.752003,-171.72023,0.16814492810237666,0.31136119,-0.29999143,-0.88588184
4.8797,82720.3089,0.63686,13.42908,10.45069,0.88392,1.36284,1.80144,1.38,-36.54,-14.1,41.376816,36.119637,-169.594101,0.1897270773602633,0.31928289,-0.30819643,-0.87582934
4.8953,82720.3299,0.1221,11.99256,7.95833,1.08734,1.39033,1.3494,0.48,-36.54,-14.82,43.509678,36.925308,-168.117828,0.20793066989084127,0.32894009,-0.31922674,-0.86409348
4.9195,82720.3498,-2.34871,9.165,5.33428,0.98594,1.15209,1.19302,0.36,-36.9,-15.3,45.391926,38.075993,-167.360748,0.22109097997616514,0.33925587,-0.32939455,-0.85294986
4.9348,82720.3699,-4.78601,6.28717,3.9648,0.80573,0.5901,1.507,-0.48,-36.78,-14.82,47.404305,38.038124,-165.960892,0.23580802451194371,0.34260076,-0.34072337,-0.8431648
4.957,82720.3899,-5.14753,4.09408,3.881,0.76358,-0.06048,2.13253,-1.08,-37.2,-13.86,49.322861,37.116032,-164.041534,0.25110521233375477,0.34134454,-0.35157928,-0.8347587
4.9798,82720.4099,-3.23217,3.00233,4.13239,0.70616,-0.46609,2.71224,-1.32,-37.5,-13.08,51.433144,34.751015,-161.169281,0.2684982665657255,0.33317503,-0.36452559,-0.82705754
4.9943,82720.4299,-1.07739,2.39899,3.75411,0.51435,-0.28405,2.9908,-2.34,-38.28,-11.7,53.453224,31.024431,-157.042191,0.28914348647421667,0.32033297,-0.3771466,-0.81947744
5.0152,82720.4499,0.25857,1.95606,3.10767,0.15455,0.09652,2.96209,-3.78,-38.7,-11.1,55.070709,26.616137,-151.979767,0.3121544994657345,0.30695409,-0.38708466,-0.81148273
5.0341,82720.4699,0.33279,1.06303,2.82276,-0.30055,0.49969,2.8503,-6.12,-38.46,-11.1,55.990349,22.078814,-146.315247,0.3371288187980717,0.29531184,-0.39196068,-0.80343133
5.0591,82720.4899,0.07901,0.02634,3.23696,-0.74159,0.91385,2.92238,-8.76,-38.1,-11.22,56.677399,17.899876,-140.509369,0.36323676753552286,0.28729066,-0.39507401,-0.79337233
5.0832,82720.5099,0.76854,-0.79487,3.26809,-1.27793,1.13926,3.19116,-11.28,-37.2,-11.52,56.649708,13.65145,-134.029709,0.39321664564649034,0.28027773,-0.39285064,-0.7826196
5.1056,82720.5299,3.54102,0.15083,5.782,-1.74952,1.01465,3.46055,-13.02,-35.82,-11.52,55.821518,8.965785,-126.893341,0.4265501850180225,0.27039692,-0.38656321,-0.77169251
5.1171,82720.5497,7.05332,2.28407,8.58321,-1.87719,1.23517,3.26569,-14.94,-34.8,-11.94,52.826595,2.295198,-118.128159,0.4679631615274387,0.24402419,-0.37226319,-0.76346761
5.1429,82720.5699,8.55448,3.83312,9.06924,-1.55221,1.72386,2.59496,-16.44,-33.24,-12.66,49.612877,-2.750754,-110.945061,0.5060579787230324,0.21978526,-0.35790128,-0.75333023
5.1571,82720.5899,8.71729,4.34548,8.73884,-1.12949,1.40866,1.74463,-18.24,-31.44,-13.8,46.800137,-5.725446,-105.721008,0.5375978711738988,0.20294386,-0.34387287,-0.74266666
5.1766,82720.6099,7.75003,4.14436,9.72764,-0.52901,1.16553,1.0458,-19.92,-29.94,-15.54,44.594715,-7.677612,-102.338036,0.5590512089194117,0.18911397,-0.33373985,-0.73506147
5.1977,82720.6299,7.31429,3.62243,8.47069,-0.04826,1.46974,0.63347,-21.06,-28.44,-16.98,43.16124,-8.874196,-99.987473,0.5742187997346904,0.18064056,-0.32713762,-0.72843856
5.2156,82720.6499,7.20176,4.23055,7.61356,0.0171,1.37078,0.50824,-22.02,-27.54,-18.36,42.282494,-9.478041,-98.108223,0.5866408959296168,0.1773514,-0.32199058,-0.72161001
5.2334,82720.6699,8.07804,5.79636,6.91445,-0.09285,1.26327,0.40073,-22.14,-26.94,-19.62,41.607826,-10.13311,-96.406204,0.5972196135384206,0.17424792,-0.31877178,-0.71508807
5.2534,82720.6899,8.51139,7.83862,7.8865,-0.2303,0.84666,0.02321,-21.9,-26.52,-20.22,40.989792,-10.701493,-95.034142,0.6057865719462723,0.17101429,-0.31607729,-0.70983934
5.2735,82720.7099,7.92002,9.72764,11.49696,0.08491,0.57116,-0.47464,-21.54,-26.52,-21.42,40.487606,-11.152668,-94.437614,0.6095520565693766,0.16698775,-0.31467953,-0.7081936
5.295,82720.7298,8.15705,10.11071,10.13226,0.54123,1.1356,-1.21562,-21.24,-26.28,-22.38,40.753349,-10.656425,-94.928795,0.6071802774765493,0.17023298,-0.31430811,-0.70962191
5.3174,82720.7499,7.47709,10.41238,5.90889,0.16493,1.35856,-1.76112,-20.82,-26.46,-22.98,41.572803,-9.125394,-96.183311,0.6014756128685289,0.18094233,-0.31294969,-0.71242505
5.3372,82720.7699,5.91368,11.52329,4.96318,-0.49175,0.84544,-2.1814,-20.16,-26.82,-23.34,42.070992,-7.228601,-98.067337,0.5936207889753808,0.19043396,-0.30907488,-0.71820748
5.3567,82720.7909,5.4109,10.76912,6.88094,-0.63774,0.20769,-3.01767,-18.84,-27.06,-23.64,42.039707,-5.428585,-100.830429,0.581058196407747,0.19424117,-0.30429494,-0.72941506
5.3806,82720.8108,3.25851,7.60159,7.35738,-0.5846,0.41905,-3.71162,-17.04,-27.66,-23.46,41.866051,-3.076458,-105.125343,0.5599516567802085,0.19719987,-0.29882315,-0.7471754
5.395,82720.8309,-0.01676,5.60722,6.28478,-0.59254,0.71471,-4.03354,-14.76,-27.96,-23.88,41.545803,0.215161,-110.202644,0.535480232490863,0.20435281,-0.28987873,-0.76646668
5.4179,82720.8519,-2.31759,4.04141,5.07331,-0.22174,-0.02688,-4.12701,-12.66,-28.74,-24.78,41.035992,4.250013,-116.017448,0.506862903816633,0.21501805,-0.27866769,-0.78689361
5.4374,82720.8719,-2.6432,3.73256,5.83946,-0.21197,-0.47647,-4.15266,-10.62,-29.7,-24.78,40.474003,7.425949,-121.726051,0.4754495293375351,0.22113894,-0.27191427,-0.8069126
5.4588,82720.8919,-2.41096,3.72538,5.68144,-0.32987,-0.31887,-4.014,-8.64,-30.42,-24.96,39.554497,10.401893,-127.47805,0.4421544517590511,0.22559436,-0.26444885,-0.82684547
5.4787,82720.9119,-2.68151,4.40294,6.24168,-0.37324,-0.31704,-3.8063,-6.42,-31.08,-25.14,38.263638,13.375924,-132.896606,0.4099275592690795,0.23093109,-0.25443196,-0.84492284
5.4958,82720.9319,-2.89698,3.69425,4.54659,-0.23274,-0.29749,-3.75132,-3.96,-30.84,-25.44,36.81361,16.136059,-137.981308,0.3781813160672921,0.23640202,-0.24410933,-0.86110604
5.5155,82720.9519,-2.64799,3.65355,4.21619,-0.12523,-0.64935,-3.84479,-1.62,-30.24,-25.5,35.353954,18.669617,-142.938309,0.34549856357968983,0.24175863,-0.2349775,-0.87576771
5.5356,82720.9719,-5.46596,3.27287,5.92086,-0.80268,-0.29566,-3.42695,0.78,-29.82,-25.98,33.462654,21.109945,-147.67746,0.3126984263900686,0.24726598,-0.22300112,-0.8895784
5.559,82720.9918,-7.16585,0.81163,4.6256,-1.00304,-1.0122,-2.37199,2.76,-29.52,-26.04,31.026241,23.161959,-151.503052,0.28437391215526336,0.25197732,-0.20634311,-0.90169919
5.5767,82721.0119,-6.43083,1.34794,5.59525,-1.71714,-1.14782,-1.53083,4.5,-28.98,-26.28,28.561396,23.631641,-153.89325,0.26344661584550144,0.24784382,-0.1903877,-0.91264552
5.5962,82721.0319,-5.04937,0.52433,6.45716,-2.3781,-0.46242,-0.67806,5.94,-28.5,-27.18,25.608849,23.473225,-154.807785,0.252203947379095,0.24090107,-0.16851111,-0.92193484
5.6191,82721.0519,-5.54258,-0.16281,6.53138,-2.80387,-0.14172,-0.55344,7.2,-27.36,-27.6,22.291267,23.631441,-154.622604,0.24955912752710233,0.23755623,-0.14045776,-0.92820197
5.6372,82721.0719,-8.14507,-1.37188,5.16669,-3.4972,-1.01648,-0.7086,7.74,-25.86,-28.98,18.398071,24.014229,-154.360321,0.2466684199089528,0.23493426,-0.10690319,-0.93409437
5.6564,82721.0919,-9.086,-1.84832,6.42125,-3.99078,-2.41842,0.05986,8.04,-24.66,-29.88,13.780766,23.264977,-153.701889,0.24475915873481666,0.2216596,-0.06888802,-0.94138962
5.6774,82721.1119,-7.37414,0.39744,21.72977,-3.9132,-1.23639,1.13743,7.92,-22.44,-31.08,9.218482,20.437883,-151.820724,0.2526307853275763,0.19076882,-0.03365679,-0.94797266
5.7129,82721.1319,-1.04148,2.44687,20.81758,-1.66888,2.08672,1.11361,6.78,-20.34,-32.82,5.962626,19.792093,-149.339401,0.2687172986575825,0.17906764,-0.00403761,-0.9464193
5.7173,82721.1518,-1.04387,2.30083,14.22874,0.43616,2.22844,-0.19487,5.94,-18.18,-33.78,5.058096,22.234606,-148.121399,0.2773842648300464,0.19711487,0.01126679,-0.94025356
5.7465,82721.1719,-5.5737,-0.40462,7.70454,1.77334,1.02625,-0.58032,5.94,-16.26,-34.68,5.683408,24.402279,-148.994919,0.2710188314637841,0.21635641,0.00972488,-0.93789345
5.7581,82721.1929,-6.95516,0.60573,1.63763,1.9566,-0.81856,-0.12584,5.94,-15.48,-35.28,7.500304,25.489195,-150.49057,0.26182805748915444,0.22912146,-0.00562693,-0.93750614
5.7792,82721.2129,-2.82995,4.0055,1.34794,0.46853,-2.90772,-0.36408,6.84,-15.24,-34.86,9.213429,24.385948,-151.270462,0.2581469566533252,0.22341722,-0.02382016,-0.93961561
5.7967,82721.2329,-1.901,4.83868,5.92565,-0.54611,-3.08976,-1.53938,7.44,-15.78,-34.38,9.484246,21.317923,-151.897537,0.25261688641572455,0.19853964,-0.03406054,-0.94636494
5.8165,82721.2529,-3.98635,0.35195,3.33752,-1.0965,-4.09585,-1.70615,6.6,-16.44,-34.44,8.409564,18.597311,-153.531555,0.23684872915634195,0.17343119,-0.03354479,-0.95535284
5.837,82721.2729,-4.85065,-0.64643,15.96693,-1.21562,-4.47642,-1.2089,5.4,-16.38,-34.62,6.675961,14.162604,-155.051102,0.22100134101557847,0.13264422,-0.02983426,-0.9657504
5.8575,82721.2929,-4.49631,-1.76932,12.72279,-1.84176,-1.66522,-0.76725,3.36,-16.08,-34.86,4.503078,11.349125,-156.112198,0.20958086293363634,0.10475332,-0.0178004,-0.9720009
5.8776,82721.3129,-3.39498,-3.20823,12.24874,-1.01831,-2.17651,0.28527,1.2,-15.24,-35.64,2.267484,10.088339,-156.532898,0.20423671454475714,0.09007773,-0.00142104,-0.97476733
5.9012,82721.3339,0.8667,-1.0343,12.73955,0.15027,-3.85334,0.69333,-0.6,-14.1,-35.76,1.34508,7.236768,-155.880371,0.2092262115999402,0.06416116,0.00172917,-0.97575855
5.9291,82721.3539,2.41575,0.84755,14.07551,1.01404,-4.50085,0.33353,-2.64,-13.56,-35.46,1.778643,2.521405,-155.268143,0.2144100965673677,0.02481169,-0.01044602,-0.97637266
5.9483,82721.3739,0.91219,-0.27294,11.066,1.85886,-6.36827,0.10873,-4.74,-13.68,-35.88,2.987146,-2.807184,-155.089905,0.2149120639686052,-0.01829045,-0.03072486,-0.97597861
5.974,82721.3949,4.75249,-0.64165,10.73081,2.82403,-8.85755,0.26267,-7.32,-14.16,-35.04,5.177114,-10.931882,-154.755447,0.21310880530233745,-0.0830327,-0.06466548,-0.9713437
5.9831,82721.4148,14.9063,3.67749,15.38275,3.51919,-9.43237,-0.40684,-11.64,-14.94,-33.18,8.300462,-21.609636,-153.868118,0.20826632721219537,-0.16606049,-0.11151765,-0.95739901
6.0044,82721.4349,13.01249,4.8315,14.54478,3.45444,-5.57903,-1.10139,-16.26,-16.2,-30.36,12.262436,-31.834179,-152.986115,0.19484242160960608,-0.24114606,-0.16355743,-0.93655431
6.0193,82721.4549,6.53138,1.77171,7.90087,2.89917,-3.14229,-0.3146,-20.4,-17.34,-26.16,15.726852,-37.294102,-152.192062,0.18307782117272903,-0.27630115,-0.20194119,-0.92160726
6.0403,82721.4748,4.88417,1.95367,2.77727,2.24126,-4.21497,0.93401,-24.0,-19.08,-21.96,17.849037,-41.300186,-150.477417,0.18263202924213626,-0.29990488,-0.22914225,-0.90785265
6.06,82721.4949,5.91368,5.06134,2.48997,1.8833,-4.88509,1.22356,-26.34,-20.46,-18.06,18.669916,-47.051971,-147.932312,0.1876648403326711,-0.33747825,-0.25172904,-0.88742483
6.0855,82721.5149,7.85298,3.14838,2.53067,1.73058,-4.98405,0.85582,-27.78,-21.3,-14.46,18.988384,-53.414696,-145.434494,0.19097112042825012,-0.37948769,-0.27238935,-0.86332101
6.1067,82721.5349,9.71806,2.24097,2.23379,1.20646,-5.28887,0.56444,-29.22,-21.54,-11.22,19.237858,-59.802197,-143.451004,0.18891123514453598,-0.42128605,-0.29166475,-0.83771253
6.1188,82721.5549,9.40682,2.08296,8.19775,1.22112,-4.959,0.64202,-30.96,-20.94,-7.38,19.048729,-65.924622,-142.218307,0.1827249568181351,-0.46273601,-0.30508253,-0.81204164
6.1397,82721.5749,7.94157,1.88424,7.16824,2.29074,-3.48315,0.79351,-31.5,-20.46,-3.54,18.726406,-71.045082,-140.640762,0.18142648672832284,-0.49520549,-0.3177377,-0.78797126
6.1594,82721.5949,5.50666,1.14922,2.91374,2.66826,-2.22844,1.17958,-32.04,-19.68,0.54,18.384174,-74.700134,-137.836075,0.19184387279773496,-0.51312864,-0.33391193,-0.76707089
6.1799,82721.6149,3.75171,-0.82839,2.45406,2.83564,-2.40864,2.01097,-32.28,-19.26,4.02,17.310919,-77.322922,-134.607193,0.21112357827910627,-0.52443522,-0.34671304,-0.74845481
6.2027,82721.6349,4.10845,-0.85234,2.54504,3.52103,-2.73607,2.40498,-32.1,-18.24,6.54,15.17096,-80.264412,-130.865311,0.23771112163629474,-0.53911316,-0.35742536,-0.72463614
6.2288,82721.6549,7.58722,-0.47645,-1.35751,3.97307,-3.20032,2.3616,-32.16,-16.62,9.18,12.584434,-83.970284,-126.312553,0.26821473874900587,-0.55647135,-0.3729333,-0.6923303
6.2422,82721.6749,11.12346,0.5794,-2.93769,3.58334,-3.37992,1.71836,-31.98,-15.06,11.28,10.061518,-88.408173,-121.641022,0.2947766250057636,-0.57574403,-0.39350083,-0.65328604
6.2615,82721.6949,9.56723,0.43574,-2.09253,2.96819,-3.06288,1.29259,-31.56,-12.54,13.74,8.056256,-92.744835,-117.76207,0.31217627060529984,-0.59309667,-0.41466141,-0.61549836
6.2894,82721.7149,8.27197,-0.05267,-1.02951,2.76417,-2.7941,1.34818,-31.2,-10.32,16.86,6.18701,-96.407272,-114.658005,0.3253869085089977,-0.60723531,-0.43213171,-0.58193713
6.3013,82721.7359,5.17866,-0.77093,-0.1652,2.98957,-1.67438,1.42576,-30.54,-7.74,19.86,3.924072,-99.620628,-111.581718,0.34096681992298894,-0.61895651,-0.44750288,-0.54806536
6.3204,82721.7559,3.41892,-2.99036,-4.19464,2.88206,-0.74648,1.91262,-30.06,-4.86,22.14,1.288335,-101.314392,-108.491325,0.36334983601877774,-0.62340593,-0.45764229,-0.51952428
6.3417,82721.7768,6.12197,-3.07894,-5.4923,2.27975,-1.63773,2.40864,-29.34,-2.46,24.3,-2.089133,-102.652618,-105.872803,0.38791294565669493,-0.629749,-0.46137092,-0.48997614
6.3606,82721.7969,8.339,-2.15239,-3.60806,2.56808,-3.12213,2.14414,-28.5,0.36,25.44,-5.82353,-105.170242,-103.862823,0.4059179360376472,-0.64352071,-0.46481162,-0.45283759
6.3878,82721.8178,7.00304,-3.29921,-3.27766,3.6322,-4.51735,1.38789,-27.66,3.0,26.64,-9.257131,-109.121597,-101.299789,0.41729211786707815,-0.65763354,-0.47871912,-0.40523255
6.4094,82721.8379,2.78924,-6.00945,-4.27126,4.26201,-5.16303,1.28587,-26.1,5.52,27.6,-12.833113,-114.094482,-97.728088,0.42622105088692497,-0.66801459,-0.50277138,-0.34541723
6.4287,82721.8579,0.66319,-8.73644,-4.55377,4.64502,-5.57842,1.88941,-24.0,8.58,28.62,-17.426172,-119.503349,-93.96386,0.4353836123458501,-0.67636693,-0.5267483,-0.27478194
6.4498,82721.8779,0.96726,-10.12268,-3.9217,5.12882,-5.62057,2.55158,-20.88,11.82,29.82,-23.473063,-125.125801,-90.690712,0.44549846601600535,-0.68401575,-0.54406106,-0.194039
6.496,82721.8979,2.03507,-10.95826,-4.60405,5.74397,-5.57353,2.62061,-17.22,15.36,30.54,-30.624048,-130.324615,-87.623169,0.45826222777303244,-0.68599707,-0.55483282,-0.1075374
6.5057,82721.9179,1.08218,-13.67089,-1.75734,6.41347,-5.55704,2.59923,-12.96,19.44,30.54,-38.503353,-135.013718,-84.413658,0.47219071321640393,-0.67942715,-0.56136078,-0.01699273
6.5164,82721.9379,1.55623,-13.31894,-3.18908,7.03656,-5.10622,2.60534,-8.46,23.28,29.16,-46.945728,-138.66098,-80.718277,0.4880473043460898,-0.66288918,-0.5629077,0.07431477
6.5254,82721.9579,3.48835,-12.99573,-4.03662,7.25891,-4.14778,2.19362,-3.9,27.18,26.52,-55.612251,-140.694244,-76.249306,0.5052404431156706,-0.63769442,-0.5584414,0.16192938
6.5551,82721.9779,4.72376,-12.38521,-5.99269,6.79832,-2.94009,1.45569,0.24,30.54,22.02,-63.469494,-139.15799,-69.589462,0.5249770505899178,-0.60553396,-0.54980606,0.23545916
6.5648,82721.9979,3.96959,-12.63181,-5.58567,5.61202,-1.40377,1.30175,3.18,33.3,17.28,-69.834641,-133.073578,-59.856277,0.5449093442919318,-0.57278627,-0.53817356,0.29216248
6.5846,82722.0179,7.09402,-10.32859,-5.43484,4.49963,-0.15638,0.8827,5.58,35.52,12.06,-74.192001,-122.957909,-48.049416,0.5636192892671797,-0.54837346,-0.52286369,0.32898846
6.6018,82722.0379,8.33422,-9.89045,-4.41012,3.80997,0.48442,0.06414,6.96,36.66,7.02,-76.319489,-108.881409,-33.5327,0.5828199063347776,-0.52855873,-0.50881606,0.34936062
6.6218,82722.0579,8.64067,-10.55125,-4.46279,3.46238,1.05619,-0.96028,8.16,37.44,3.3,-76.160988,-93.731186,-18.522573,0.603600978590847,-0.50864035,-0.49906698,0.35760733
6.6432,82722.0779,7.77158,-11.84412,-5.2433,2.80326,1.26755,-1.81488,8.88,37.56,-0.06,-74.121864,-81.432884,-6.836804,0.6272029934135989,-0.48701319,-0.49238187,0.35636309
6.664,82722.0987,7.60398,-13.53921,-4.99909,1.50456,1.82954,-2.40986,9.06,37.2,-2.64,-71.221275,-72.996445,0.585356,0.6517671384251551,-0.46559939,-0.48595095,0.3496691
6.6852,82722.1189,8.85855,-14.00369,-4.44124,0.16982,3.02134,-2.78799,8.64,37.26,-4.98,-67.937851,-69.380836,1.880442,0.6766065698723654,-0.45161334,-0.47948781,0.329151
6.7052,82722.1388,10.40999,-13.36922,-2.7653,-0.52229,3.17222,-3.51797,7.44,37.5,-6.54,-64.79451,-68.658783,-1.093051,0.7001253970636575,-0.44697902,-0.47193095,0.29549173
6.7307,82722.1589,11.91594,-12.59111,-1.7765,-0.46548,2.47156,-4.30721,6.12,37.56,-7.02,-61.066879,-69.282799,-5.458887,0.7215890404455506,-0.44081971,-0.46915507,0.25471702
6.766,82722.1799,13.64934,-11.67173,-2.63602,-0.25595,1.57115,-5.67616,4.32,38.4,-6.84,-55.986217,-70.516624,-9.715689,0.7413787621817371,-0.42505276,-0.47543889,0.20891516
6.7756,82722.1999,10.88404,-13.65174,-2.87304,-0.61636,1.52472,-6.36644,1.86,38.28,-6.06,-49.700447,-72.097572,-13.529649,0.7576787017348598,-0.4003121,-0.49024534,0.15916254
6.7889,82722.2199,10.08917,-13.53442,-2.8491,-1.49112,2.68109,-6.67431,-1.44,38.1,-5.04,-42.921234,-73.329102,-17.660599,0.7712200110166558,-0.37530488,-0.50409192,0.10127822
6.8132,82722.2399,9.38766,-14.10903,-2.48518,-2.44285,3.64015,-6.91194,-5.58,38.04,-4.56,-36.100868,-73.326515,-22.677355,0.78416982927476,-0.35531992,-0.50777543,0.03145705
6.8279,82722.2599,9.1267,-13.60385,-0.17957,-2.75561,3.8173,-7.05,-10.14,37.2,-4.08,-29.378765,-72.411201,-28.526022,0.7933719946790431,-0.3390784,-0.50335389,-0.04713362
6.8472,82722.2809,8.45871,-12.28704,3.32794,-1.9566,2.81731,-7.43362,-14.94,35.94,-3.54,-22.221161,-70.746948,-34.597637,0.7970933667319189,-0.31893551,-0.49563539,-0.13140725
6.8651,82722.3009,8.03973,-11.07797,3.40216,-0.87659,1.27854,-7.61382,-19.32,33.84,-3.6,-14.82078,-69.471458,-39.302986,0.7921745641030885,-0.28983673,-0.49647865,-0.20484892
6.8885,82722.3209,7.58722,-9.80186,2.79882,-0.44471,-0.23702,-7.6743,-23.46,30.54,-3.48,-7.030084,-69.270943,-42.927105,0.7770349401496792,-0.25452152,-0.50948471,-0.2680687
6.9505,82722.3409,7.41245,-8.88488,2.97599,-0.50885,-0.60476,-7.38719,-27.66,26.64,-3.12,-0.779383,-70.128296,-46.141762,0.7545593875471145,-0.23024291,-0.52635187,-0.31714672
6.9534,82722.3619,9.78271,-6.90488,2.46124,-0.686,-0.15516,-7.31755,-31.74,22.32,-2.58,4.761344,-70.768341,-49.187618,0.7306754243866697,-0.20999131,-0.54016459,-0.36088681
6.9554,82722.3819,8.94474,-6.73728,2.04944,-1.01037,0.20953,-7.35726,-35.1,17.34,-2.1,10.584742,-70.494171,-52.680378,0.7051418542925058,-0.18746205,-0.5484044,-0.40851629
6.9732,82722.4018,7.91284,-5.87058,1.7358,-1.32619,0.3543,-7.41224,-37.38,11.94,-1.68,15.73494,-69.464478,-56.507626,0.6801793794205043,-0.16807437,-0.55039042,-0.45406762
6.9857,82722.4219,5.92565,-5.68862,1.27372,-1.55282,0.2529,-7.35543,-38.28,6.12,-1.56,20.521856,-67.825111,-60.947308,0.6534099228412796,-0.15101448,-0.54813635,-0.4997966
7.0096,82722.4419,5.54258,-4.15633,1.16358,-1.4337,0.41966,-7.34504,-38.16,0.06,-2.04,24.926922,-65.791664,-65.908073,0.6242004532668594,-0.13641603,-0.54356408,-0.5443368
7.0393,82722.4629,4.6663,-4.23295,1.01754,-1.45508,0.76114,-7.04267,-36.84,-5.94,-2.82,29.016762,-63.141735,-71.142914,0.594605335195855,-0.12123554,-0.53643638,-0.58650017
7.0544,82722.4839,4.34548,-2.42772,1.57538,-1.75318,1.59863,-6.65293,-35.46,-12.0,-4.08,32.637653,-59.304005,-77.167038,0.565270556727983,-0.10523051,-0.52343881,-0.6288144
7.0762,82722.5039,2.68869,-0.8667,0.94332,-1.92789,2.24798,-6.53992,-33.3,-17.4,-5.94,35.291191,-53.874332,-84.018013,0.539353765138902,-0.08811414,-0.50162673,-0.67059976
7.0926,82722.5239,-1.4437,0.96965,1.15401,-2.07816,2.83197,-6.15263,-29.94,-21.72,-7.5,39.516815,-46.261234,-91.946548,0.5060133941617981,-0.04976196,-0.48046714,-0.71458066
7.1171,82722.5437,-2.98078,2.63123,1.70467,-2.46484,2.64321,-5.06041,-26.64,-25.74,-9.0,42.23579,-36.968166,-100.899094,0.4752747534263774,-0.01046038,-0.45179421,-0.75490826
7.13,82722.5639,-2.95923,3.99353,4.10606,-2.63649,1.37689,-4.03049,-22.56,-28.38,-10.98,42.776962,-28.57798,-109.331306,0.4484261638119667,0.01691125,-0.42121902,-0.78816402
7.148,82722.5839,-7.58004,4.55856,7.10838,-2.34267,1.75257,-2.71346,-18.48,-30.48,-13.26,41.962738,-22.284164,-116.49157,0.4232846405502619,0.03146686,-0.39368412,-0.81538504
7.1674,82722.6039,-7.05092,6.67982,4.84347,-2.44774,1.8387,-0.76603,-14.88,-32.22,-15.72,40.53635,-14.770344,-122.570732,0.4079081693222434,0.0593019,-0.35922581,-0.8372879
7.1897,82722.6239,-4.03662,8.6718,7.70694,-3.34388,-0.44166,0.22297,-12.0,-32.4,-18.3,38.048515,-10.305096,-125.461296,0.4053777420415359,0.07328015,-0.32747045,-0.85033053
7.2089,82722.6439,-0.47884,7.67102,16.88152,-2.83503,-2.70308,0.72815,-9.9,-32.28,-19.98,34.209991,-10.028253,-126.7276,0.4038750078248333,0.05668821,-0.29935342,-0.86258852
7.2318,82722.6639,4.97755,7.36456,23.18784,-0.78802,-4.07569,0.7251,-9.72,-31.02,-21.36,31.101192,-13.075356,-127.012611,0.3996564367386722,0.0206471,-0.28730723,-0.87023157
7.2503,82722.6839,7.11796,8.19296,23.35065,0.83139,-3.59494,0.0171,-10.08,-29.76,-22.62,30.49321,-18.055279,-126.743927,0.3901778504350848,-0.01892705,-0.30002129,-0.8702817
7.2773,82722.7038,2.68869,9.23204,19.07939,1.65728,-2.16307,-0.19303,-11.7,-28.86,-22.98,31.699781,-21.983973,-126.767075,0.3765185858845734,-0.04386807,-0.32187101,-0.86758769
7.2954,82722.7239,-0.05267,8.65025,14.85602,1.9169,-1.06535,0.15149,-13.68,-27.96,-22.8,33.585449,-24.497622,-126.405602,0.36707138739463235,-0.05401231,-0.34358194,-0.86272401
7.3204,82722.7439,-1.67115,6.72292,12.43309,2.04762,-1.21745,0.39095,-14.76,-28.26,-21.9,35.485451,-26.507238,-125.375076,0.3633003810354176,-0.05790897,-0.36374927,-0.85577208
7.3347,82722.7638,-2.58095,5.3678,11.08515,2.39032,-2.21072,0.74037,-15.66,-28.86,-20.16,37.36858,-29.302652,-123.783676,0.3603226210871189,-0.06532409,-0.38626966,-0.84657907
7.3518,82722.7848,-2.21703,4.27365,10.33098,3.08548,-3.23392,1.05558,-16.08,-29.46,-18.12,39.348083,-33.651066,-121.410751,0.356023911230473,-0.08002425,-0.41440853,-0.83373177
7.3749,82722.8047,-2.43251,3.80199,8.53294,3.85028,-4.04576,1.29015,-16.44,-30.06,-15.84,41.319881,-38.204948,-119.015747,0.34914900361135076,-0.0946934,-0.44266263,-0.82047421
7.3953,82722.8257,-3.42371,3.2226,6.608,4.62669,-4.52529,1.72875,-17.52,-30.36,-12.9,43.648067,-44.673309,-115.277481,0.34026786131920767,-0.1139602,-0.4793013,-0.80093765
7.4118,82722.8459,-3.15077,0.95529,3.24414,4.71832,-3.79592,2.47645,-19.5,-30.3,-9.18,45.560448,-51.741764,-110.461784,0.3343068097626936,-0.13180086,-0.51561391,-0.77782375
7.4303,82722.8659,-1.85072,0.31125,0.09816,4.51429,-3.33532,3.27546,-21.06,-30.0,-5.1,46.373928,-58.670109,-104.601013,0.337418221366774,-0.14642356,-0.54697859,-0.75201297
7.4508,82722.8859,-0.38547,0.90022,-2.7677,4.19054,-3.72139,3.79469,-22.74,-29.4,-0.66,45.110252,-68.950539,-95.930969,0.34849513585042946,-0.17654656,-0.58488357,-0.71084011
7.4714,82722.9059,1.31202,0.92656,-3.24414,4.29316,-4.66884,3.8454,-24.42,-28.14,3.54,42.240971,-78.915092,-88.306679,0.3572376011074717,-0.21333525,-0.61912799,-0.66599542
7.4919,82722.9259,1.75974,-0.14365,-4.0893,4.32615,-4.10257,3.85151,-25.86,-25.68,7.8,38.345757,-88.969391,-81.481766,0.36037451104891216,-0.25442302,-0.65438193,-0.61415261
7.5113,82722.9469,3.82354,-1.12767,-7.34781,3.70368,-3.06227,4.18748,-27.18,-22.98,12.36,33.351204,-96.960632,-75.932457,0.3684423645370139,-0.29128394,-0.68247235,-0.56003159
7.5352,82722.9669,6.59363,-0.87628,-8.61673,3.06166,-2.90222,4.18626,-27.9,-19.38,16.5,27.90439,-102.301842,-72.570183,0.37958669699833153,-0.32538521,-0.69876248,-0.51163405
7.558,82722.9869,8.21929,-0.27294,-8.8777,2.71407,-3.04089,3.73483,-28.44,-15.48,19.92,21.760664,-108.195847,-69.990517,0.38405603414316064,-0.36552688,-0.71512043,-0.45551491
7.577,82723.0079,6.87854,-0.62728,-8.44914,2.11787,-2.2205,3.44284,-27.72,-11.7,23.4,15.96897,-113.447266,-68.436043,0.38400113008833703,-0.40255877,-0.72747606,-0.40158206
7.5913,82723.0279,9.18655,-0.29449,-8.90643,1.11666,-1.14904,3.38175,-27.0,-7.44,25.44,10.991424,-116.657089,-68.252975,0.38690929347073966,-0.43365002,-0.72949123,-0.36068186
7.6125,82723.0478,10.02452,0.54588,-8.55448,0.71532,-1.39522,2.78249,-26.34,-3.72,27.36,6.870239,-118.561348,-69.138489,0.3906579123510876,-0.46170348,-0.7239911,-0.33174264
7.6315,82723.0679,6.58884,-1.27611,-9.38527,0.7703,-2.52348,2.40681,-25.2,-0.72,29.16,3.610924,-121.082962,-70.023346,0.38685667924441125,-0.48662663,-0.72167957,-0.30449143
7.6616,82723.0879,5.60243,-4.47716,-9.4571,-0.04581,-3.81302,2.96392,-24.6,1.86,29.94,0.495955,-125.05394,-71.091652,0.3731264755047535,-0.51416409,-0.72304785,-0.2713185
7.6737,82723.1079,11.10431,-2.39899,-6.82347,-0.39462,-3.3286,2.82953,-23.4,3.84,31.32,-2.395545,-129.668686,-73.461647,0.35204811192365054,-0.54829597,-0.71990716,-0.23909692
7.6935,82723.1279,12.48097,-0.35913,-6.52181,-0.08858,-2.58518,1.81427,-21.36,5.4,32.04,-4.403638,-133.285049,-75.797302,0.33428600875332937,-0.57553017,-0.71453989,-0.21552409
7.7132,82723.1479,7.54174,-0.0838,-6.54814,0.38668,-2.19606,1.30664,-19.14,6.84,32.82,-5.728515,-136.059998,-77.028145,0.3212241627668316,-0.59139216,-0.71308535,-0.19641699
7.7342,82723.1679,3.23217,-2.75333,-6.98867,0.8827,-2.59618,1.91079,-17.22,7.68,33.78,-7.273563,-138.655136,-77.739983,0.3115450444770743,-0.6034016,-0.71292323,-0.17489043
7.753,82723.1879,1.66636,-3.80199,-6.55293,1.50517,-2.91688,2.2938,-15.06,8.16,34.56,-9.679013,-141.860245,-78.701851,0.30230270432095224,-0.61844927,-0.71075726,-0.14476772
7.7742,82723.2089,1.52989,-2.44927,-7.12754,2.30724,-2.64321,2.46973,-12.96,9.3,35.52,-13.051026,-145.576599,-79.778099,0.2951893582176713,-0.63441783,-0.70661288,-0.10524019
7.796,82723.2289,3.39498,-2.43969,-11.35809,2.30541,-2.67376,2.6872,-11.04,10.62,36.42,-16.828602,-148.904037,-80.874886,0.29325594830998736,-0.648009,-0.699929,-0.0646891
7.8217,82723.2489,3.04782,-3.29682,-13.85764,1.74402,-3.25897,2.87962,-7.98,12.66,36.54,-20.304651,-152.837524,-82.714722,0.28671118562482056,-0.66328955,-0.69084126,-0.02412514
7.8389,82723.2688,3.12204,-3.72059,-14.63815,1.29076,-4.46787,2.77211,-5.34,14.82,35.94,-22.985126,-157.91452,-85.298462,0.2705446139177934,-0.67970103,-0.68156767,0.01666232
7.8569,82723.2889,1.72383,-4.707,-13.60625,0.92913,-5.32064,2.35,-2.46,16.2,34.98,-24.893747,-164.44371,-88.092583,0.24346023313735557,-0.69361913,-0.67514676,0.0616155
7.8785,82723.3088,-0.36152,-6.22492,-11.61906,0.77336,-4.74398,1.93583,1.26,17.76,33.78,-26.198112,-171.520569,-90.608002,0.21130727402438063,-0.70224202,-0.67125893,0.1077814
7.8925,82723.3288,-2.23618,-6.82108,-10.42435,0.83444,-4.14533,2.25043,4.62,18.48,33.12,-27.176632,-177.773804,-92.871414,0.1832209402007246,-0.70733166,-0.66644418,0.14820312
7.9156,82723.3489,-1.01035,-6.4835,-10.817,1.25777,-4.00544,2.41109,8.16,19.32,32.16,-28.117046,176.306351,-95.642715,0.15892711127613482,-0.71322912,-0.65679646,0.18618487
7.9387,82723.3689,-2.01831,-6.32069,-12.6773,1.48868,-4.33103,2.21133,11.7,19.32,31.44,-29.200865,170.404236,-98.520676,0.13750152220543735,-0.71688604,-0.64531004,0.22526138
7.9539,82723.3888,-3.61764,-7.40766,-12.95742,1.35123,-4.46176,2.25165,15.24,19.14,30.12,-30.161295,164.147461,-101.421097,0.11512749696695357,-0.71744323,-0.63335687,0.26623288
7.9762,82723.4089,-3.26569,-6.76601,-11.71962,1.25533,-4.05798,2.12642,18.84,18.54,27.66,-30.633547,158.0634,-104.381569,0.09238855607643576,-0.7172631,-0.62016654,0.30395964
7.9979,82723.4289,-3.90973,-6.69179,-12.86165,1.01953,-4.11662,2.03479,22.14,17.94,25.68,-30.825275,152.321594,-107.16613,0.07076443847591707,-0.71551841,-0.6068505,0.3387599
8.016,82723.4488,-5.48272,-6.46674,-12.92869,0.44776,-4.00178,2.33351,25.14,17.82,22.86,-30.433121,146.451538,-109.870567,0.045701395272800344,-0.71268302,-0.59277183,0.3723115
8.0342,82723.4689,-5.01585,-3.40216,-13.1298,0.18448,-4.40251,2.60534,27.9,16.92,20.34,-29.040737,140.827316,-112.399712,0.01576363688834427,-0.7111367,-0.5772118,0.40107685
8.0722,82723.4889,-4.26647,-3.51469,-14.20959,-0.34147,-5.58758,2.52654,30.48,15.66,18.54,-27.083357,134.540756,-114.736893,0.020680376104778485,0.70637268,0.55972224,-0.43280593
8.0809,82723.5089,-3.1795,-6.46195,-10.15141,-0.95356,-5.1441,1.81916,32.82,13.8,15.48,-24.684721,128.582581,-115.658333,0.06261085014199796,0.69567567,0.54713988,-0.46125177
8.0959,82723.5289,-2.29365,-4.98952,-8.19056,-0.87659,-4.63036,0.48747,34.38,11.64,13.08,-22.937983,124.579079,-115.055382,0.09616075886731261,0.68233687,0.54382849,-0.47897816
8.1177,82723.5489,-2.38223,-1.86987,-2.86347,0.11057,-6.09155,-0.20097,35.88,9.66,9.72,-22.477879,120.61248,-113.809219,0.12345881423286502,0.6610781,0.54611945,-0.49948695
8.1357,82723.5689,-3.06218,-2.57137,-4.30717,0.58399,-6.75617,-0.84483,36.78,8.58,6.0,-23.289526,115.030884,-113.284836,0.14702554983175356,0.63045901,0.5448277,-0.53298002
8.1525,82723.5889,-5.55215,-3.02627,-3.70144,0.23091,-6.71952,-0.98349,36.66,8.28,1.92,-24.816999,108.879662,-112.942368,0.1680034606703389,0.59327805,0.54302025,-0.57002193
8.1737,82723.6089,-8.68138,-3.00233,-0.25139,0.00428,-5.62729,-0.15944,36.84,8.88,-2.88,-25.911579,102.62838,-112.4375,0.19323534278702073,0.5543614,0.539451,-0.60360265
8.1926,82723.6289,-6.78038,-3.11964,0.29688,-0.01344,-3.35365,0.37813,36.24,9.36,-7.14,-25.983561,97.704659,-112.138298,0.21743054547770008,0.52622217,0.53230435,-0.62647128
8.2136,82723.6489,-4.63517,-2.29365,-0.86431,-0.18998,-2.29441,-0.14478,34.92,9.3,-11.34,-25.818016,95.208229,-111.877228,0.2314104039472523,0.51197714,0.52795517,-0.63686103
8.2351,82723.6689,-4.59926,-1.78129,0.65601,-0.63652,-2.34756,-0.42516,33.72,9.3,-14.1,-26.109167,93.409058,-111.213364,0.24169458563543117,0.49756783,0.52832228,-0.6441161
8.254,82723.6889,-4.03902,-2.96163,4.36942,-0.76175,-2.17468,-0.83872,32.28,9.12,-16.8,-26.732204,91.118477,-110.269699,0.2539847801685974,0.47742102,0.52989233,-0.6532802
8.2762,82723.7089,-3.1364,-4.35984,9.11473,-0.05253,-1.1411,-1.07268,31.02,8.76,-18.54,-28.040699,88.153481,-109.901085,0.26231483790833804,0.45255819,0.53006715,-0.66739106
8.3047,82723.7289,-3.68468,-5.58328,10.78348,1.43004,0.48197,-1.50762,30.84,9.42,-19.32,-29.790867,85.384933,-111.179054,0.2576067480796881,0.4338392,0.52618408,-0.68450904
8.3136,82723.7489,-2.89698,-5.48512,8.59758,2.56808,1.39644,-1.69271,30.54,9.9,-20.7,-31.792183,82.998512,-114.651855,0.2361078071959596,0.42568219,0.51671213,-0.70431268
8.3374,82723.7689,-1.07739,-5.13556,3.98635,3.15023,1.74646,-2.21805,30.12,9.9,-20.58,-33.979954,80.695206,-119.784981,0.20196085928195434,0.42392179,0.50324196,-0.72543067
8.3556,82723.7889,0.15802,-5.19542,0.25618,2.92238,1.59314,-2.87412,29.82,10.5,-20.52,-36.820061,78.273499,-125.654877,0.15875076484896816,0.42091015,0.49141183,-0.74575281
8.3746,82723.8089,0.64883,-5.68623,-0.28491,2.38054,1.43309,-3.75682,29.58,10.8,-20.4,-40.599224,75.708641,-131.484772,0.11014220695319087,0.4121865,0.48619649,-0.76261652
8.3945,82723.8289,-1.54426,-7.87214,1.88424,2.07144,2.68964,-4.47825,29.46,11.28,-19.74,-45.314362,73.132317,-137.397018,0.05543921475893135,0.39981931,0.4879764,-0.77391863
8.4143,82723.8489,-2.45645,-8.76996,1.33836,1.85153,4.84599,-4.38296,28.86,12.66,-19.74,-50.375526,71.946022,-143.665512,0.009178147473808842,-0.39766625,-0.49298844,0.77378273
8.4371,82723.8689,-2.229,-9.65342,-2.27928,1.22906,5.72564,-3.70184,28.74,14.16,-19.74,-55.208241,73.283783,-149.465668,0.07954578354307643,-0.41231167,-0.49793413,0.75877082
8.4661,82723.8899,-0.29209,-10.11071,-2.41814,0.83689,5.91195,-4.02805,28.44,15.42,-18.42,-60.018791,76.720718,-153.777664,0.14827271398115663,-0.43443891,-0.50385612,0.73171514
8.4775,82723.9098,-0.73981,-8.55927,-5.68144,1.12888,5.03353,-4.49536,28.44,17.52,-16.56,-65.202354,80.66507,-157.001846,0.21369379111443396,-0.45242533,-0.51117086,0.69882089
8.4956,82723.9299,0.62489,-8.99741,-12.28704,-0.01405,3.70856,-5.13554,28.98,19.56,-13.68,-70.913719,84.756668,-158.722839,0.273187774105616,-0.46047992,-0.52251035,0.6635583
8.5144,82723.9499,-0.22505,-11.34133,-12.33014,-1.53205,4.19787,-5.42204,28.26,21.84,-10.26,-77.170158,95.836533,-152.002533,0.32241244424520993,-0.46181697,-0.54590809,0.62028998
8.5356,82723.9699,-0.42856,-12.55759,-13.47936,-2.87351,4.94129,-5.4422,26.88,24.42,-7.92,-81.654701,132.126556,-120.482613,0.3663669752995077,-0.46873775,-0.57355243,0.56311435
8.5664,82723.9899,0.09577,-15.57189,-12.77785,-3.87227,5.46663,-5.48923,24.66,27.06,-5.58,-80.561058,-175.426651,-73.188286,0.40955586421145884,-0.47513944,-0.59664083,0.50052595
8.5782,82724.0099,0.20111,-16.82884,-11.36528,-4.30965,5.71281,-5.45625,21.66,29.64,-2.4,-74.133598,-148.595459,-52.120907,0.4489118686746672,-0.48400682,-0.61839312,0.42638654
8.5979,82724.0298,1.26893,-16.14889,-9.97664,-3.87533,5.06041,-5.4367,18.6,31.98,1.26,-66.458595,-136.546997,-46.060043,0.4841200025526103,-0.49068287,-0.63577086,0.34735221
8.6158,82724.0499,2.18591,-15.02122,-10.41478,-3.3848,4.27239,-5.41349,14.46,33.36,5.46,-58.964603,-128.931213,-43.642326,0.5134195634600617,-0.48891646,-0.65034509,0.2727862
8.6363,82724.0699,3.53145,-12.84729,-14.4514,-3.26202,2.92299,-5.37989,9.6,34.26,9.66,-51.726955,-123.458839,-42.461445,0.5363953370257903,-0.47957566,-0.66389698,0.20378427
8.6548,82724.0899,2.20506,-12.48097,-16.15847,-4.05615,2.09344,-5.2284,5.16,34.5,12.9,-44.441845,-120.52417,-42.409046,0.5468768427345871,-0.4656277,-0.68154389,0.14005174
8.677,82724.1099,1.51314,-13.42429,-12.14339,-5.18502,3.2779,-4.40251,0.54,33.78,15.6,-36.94202,-119.117836,-44.091393,0.547941679154768,-0.45571738,-0.69769681,0.07280623
8.6956,82724.1299,4.41012,-12.18409,-8.47787,-5.35301,3.88755,-3.6377,-4.02,33.12,18.6,-29.841442,-117.091652,-47.635574,0.5499799065623869,-0.45579031,-0.69983578,-0.00267894
8.7182,82724.1499,9.47625,-9.26317,-8.53294,-4.7843,2.3555,-3.74521,-7.98,30.96,21.42,-23.49379,-114.656982,-51.549236,0.5504549246777845,-0.4573344,-0.69436735,-0.07548911
8.7378,82724.1699,10.54406,-6.28478,-8.88009,-4.12334,0.45937,-4.689,-11.82,27.96,23.76,-17.218109,-113.624542,-54.607506,0.5383822274812513,-0.4523685,-0.69767749,-0.13694319
8.7603,82724.1908,7.08923,-5.94001,-9.73722,-4.07447,-0.79168,-5.07263,-15.0,24.48,26.22,-9.897089,-113.963501,-56.634556,0.5122214656361709,-0.43764096,-0.71310967,-0.19384055
8.7754,82724.2109,5.75327,-6.05254,-8.12592,-4.54667,-0.93279,-4.4923,-17.82,20.46,27.9,-3.613646,-115.921783,-58.475056,0.47573806608382907,-0.42842615,-0.73115551,-0.23566066
8.7954,82724.2309,6.16986,-6.14831,-5.33189,-5.10622,0.65057,-3.6322,-19.02,15.72,28.74,1.572791,-117.591583,-60.91296,0.44060850776125665,-0.42738059,-0.74083835,-0.27270591
8.8229,82724.2508,6.80911,-3.21302,-2.95923,-4.73054,1.93644,-3.12091,-20.04,11.1,29.88,6.110078,-116.85817,-64.079765,0.4190855804700511,-0.42769513,-0.73599285,-0.31584597
8.8366,82724.2709,7.92241,0.1245,-4.64954,-3.74399,1.52472,-2.96758,-20.34,6.06,30.66,9.999042,-114.863594,-66.993927,0.40665821189829315,-0.42421839,-0.72599947,-0.3572011
8.8576,82724.2909,8.74123,2.09493,-7.32386,-3.43306,0.04459,-3.11969,-20.7,1.14,30.66,13.60428,-113.674408,-69.151329,0.39096668585741223,-0.41837025,-0.72118157,-0.38988271
8.8822,82724.3108,11.44428,2.07338,-8.67659,-3.76965,-1.27304,-3.83684,-21.48,-3.06,30.78,17.588371,-114.127693,-71.162354,0.36233181773400347,-0.41499272,-0.72291929,-0.41699448
8.8951,82724.3309,9.38766,-0.19632,-6.99346,-4.34875,-0.76541,-4.55461,-21.3,-7.32,30.0,22.530579,-115.417099,-73.195557,0.3221799853969666,-0.4104909,-0.72781873,-0.44494626
8.9176,82724.3509,6.12437,1.24498,-4.74291,-4.4807,0.45754,-4.14289,-20.82,-11.16,28.86,28.11623,-115.472069,-75.511459,0.2836470030961311,-0.39973006,-0.72792566,-0.47946271
8.96,82724.3719,4.64715,4.56814,-6.47392,-4.55522,1.70431,-3.42573,-18.78,-15.54,27.96,33.269672,-113.82827,-78.226761,0.25452010886738313,-0.38519171,-0.72146916,-0.51607084
8.9673,82724.3929,6.24408,4.32872,-8.02536,-5.21984,1.33169,-3.47155,-16.62,-20.1,26.04,38.357437,-110.132774,-82.325821,0.22990172981935902,-0.36803353,-0.70675534,-0.5587427
8.9825,82724.4128,6.64152,3.03824,-6.11,-5.70426,1.03603,-4.02438,-15.0,-24.54,24.0,43.045509,-106.327728,-87.517448,0.19974265872150712,-0.35608503,-0.68987715,-0.5978092
9.0064,82724.4329,4.5849,1.901,-3.38301,-5.94189,1.68782,-4.26384,-13.14,-28.92,20.82,48.004391,-101.418877,-93.917435,0.16474869531880224,-0.34092376,-0.67082238,-0.63767248
9.0226,82724.4538,2.53067,2.48279,-0.08619,-5.89485,2.57113,-3.87105,-11.16,-32.52,16.74,52.473019,-94.053856,-101.998413,0.1334205885973958,-0.3203859,-0.64721251,-0.67872512
9.0405,82724.4748,0.13168,1.92733,-1.85551,-5.92417,2.7495,-3.34143,-9.0,-35.16,12.3,56.364223,-82.382904,-113.368355,0.10440725530800711,-0.28989983,-0.61583036,-0.7251277
9.0603,82724.4959,-2.54504,1.63763,-2.19069,-6.26259,3.14107,-2.82464,-6.54,-36.9,7.68,58.142826,-67.338379,-127.599121,0.07945212282650889,-0.25622207,-0.57677722,-0.77159941
9.0829,82724.5159,-5.68384,0.93853,-2.29843,-6.73723,2.91749,-2.37932,-3.96,-38.1,2.7,56.990997,-50.543774,-143.215408,0.05748528159111699,-0.219905,-0.52777267,-0.81840897
9.0989,82724.5359,-8.92558,-1.80762,-1.08218,-7.3597,2.04762,-1.72814,-1.98,-37.92,-2.4,53.041519,-36.899292,-156.230438,0.03651856650812789,-0.18986735,-0.47280908,-0.85969085
9.1203,82724.5559,-8.86573,-3.95522,1.50356,-7.78181,1.27793,-0.67745,0.48,-37.32,-7.5,46.712261,-27.590809,-165.822556,0.016211335096828924,-0.16973022,-0.4090817,-0.8964268
9.1407,82724.5758,-7.10599,-3.4668,6.50744,-7.34688,1.23395,0.6634,2.22,-35.82,-12.96,38.731541,-20.184799,-172.932739,0.0007856878172488896,0.1448856,0.33603537,0.93063837
9.1608,82724.5959,-2.31998,-2.12605,8.71011,-6.72563,0.24984,1.41232,3.36,-33.3,-18.06,29.815966,-15.813397,-176.264481,0.0041645635772149464,0.12455416,0.25901884,0.9577986
9.1816,82724.6159,3.28006,-2.19548,9.96227,-5.93883,-0.59926,0.76541,4.38,-30.48,-22.8,21.006788,-14.191406,-177.6241,0.002277168184901591,0.11768076,0.1833768,0.9759708
9.2013,82724.6359,3.35188,-2.9712,10.37886,-5.36462,-0.97983,-0.2926,3.96,-26.94,-26.88,13.220993,-13.740904,-179.190323,0.006801664926921701,0.11801901,0.11512924,0.98629129
9.2328,82724.6569,-0.37589,-5.56652,13.1705,-4.90158,-1.79717,-0.60231,3.78,-23.1,-30.3,6.026359,-14.061787,178.313934,0.02101180219608005,0.12298962,0.05036628,0.9909063
9.2532,82724.6778,0.33519,-5.46596,16.95095,-3.84601,-2.02135,-0.1967,3.48,-19.56,-32.7,-0.058935,-15.601215,175.978775,0.03468821640759018,0.13562463,-0.00527112,0.99013883
9.2765,82724.6989,3.0981,-5.26006,17.45373,-2.66093,-1.12888,-0.01955,2.34,-16.2,-34.68,-4.498044,-17.163614,174.414703,0.042289572858508324,0.1470388,-0.04602201,0.98715407
9.2908,82724.7189,2.82037,-4.88896,16.22072,-1.98226,-0.62858,-0.04093,1.5,-12.96,-36.24,-7.52797,-18.220243,173.217133,0.047907426038799474,0.15387978,-0.07405137,0.98414546
9.3104,82724.7389,0.83558,-3.34949,17.59259,-1.25655,-0.71716,-0.39095,0.12,-10.2,-37.14,-9.498327,-19.082241,172.126999,0.05377765870438835,0.15919138,-0.0927959,0.9814046
9.3316,82724.7589,0.86431,-4.99909,19.55823,-0.19853,-0.9163,-0.82345,-1.38,-7.98,-37.62,-10.417466,-20.117483,170.879608,0.06215462381077349,0.1662789,-0.10293505,0.97871983
9.3444,82724.7788,0.29688,-5.97593,20.15439,0.88759,-1.44347,-0.82894,-2.4,-6.6,-37.62,-9.993357,-21.472271,169.671295,0.07194061977676988,0.17712228,-0.10193048,0.97624916
9.3644,82724.7989,-2.83713,-5.93523,19.51274,1.98226,-1.25716,-0.21075,-3.36,-5.88,-37.5,-8.484532,-23.070108,168.983185,0.07907139258582258,0.19154119,-0.09128772,0.97402579
9.386,82724.8189,-1.73819,-5.17626,17.15206,2.80082,-1.4673,0.70616,-3.9,-6.12,-36.96,-6.180319,-24.4599,169.615829,0.07694010486305243,0.2058921,-0.07160995,0.9729135
9.4041,82724.8399,4.29041,-4.92248,16.45056,3.1936,-1.28709,0.69516,-4.56,-6.78,-37.02,-3.406834,-25.940184,171.38913,0.0664730927461586,0.22153546,-0.04572793,0.97180879
9.43,82724.8599,4.55377,-3.66073,15.65568,3.7837,-1.54671,0.4722,-5.34,-7.68,-36.78,-0.348429,-27.400927,173.114624,0.057621786793315644,0.23624007,-0.01717132,0.96983272
9.4453,82724.8799,3.36864,-2.75094,13.55836,4.40434,-1.89124,0.2926,-5.94,-9.78,-35.94,3.386135,-29.325773,174.978973,0.04982943499238593,0.25402999,0.01747263,0.96575385
9.4677,82724.8999,3.29203,-3.09331,13.03643,4.76841,-1.46241,0.34941,-7.32,-11.82,-35.4,7.651495,-31.707632,177.18042,0.04183448404117878,0.27407175,0.05745873,0.95907927
9.4844,82724.9199,0.0407,0.11492,8.45393,4.87959,-2.78799,0.33964,-8.52,-14.58,-34.14,11.143854,-33.187588,179.551025,0.03146390881364498,0.28459761,0.09193721,0.95370948
9.5044,82724.9399,-1.07978,2.22421,7.77397,5.15692,-3.74766,0.10507,-9.96,-18.3,-32.1,14.701547,-36.081703,-177.948044,0.02273239632040496,0.30492228,0.12713353,0.94357973
9.5286,82724.9599,-2.19788,-0.89543,5.4492,5.85453,-5.11477,0.12156,-11.7,-20.94,-30.12,18.455679,-40.191399,-175.082077,0.015272610526775072,0.33236906,0.16500987,0.92847687
9.5477,82724.9799,-2.65996,-3.11246,2.50673,6.28458,-6.43241,0.58582,-12.96,-24.0,-26.7,22.015875,-45.991894,-171.271057,0.0056005269099602744,0.36898968,0.20444426,0.90665197
9.5761,82724.9999,0.7015,-2.62883,-0.96965,6.37132,-7.59977,0.82528,-14.82,-26.28,-22.44,24.463049,-53.910679,-166.196503,0.009335751126755531,-0.41710252,-0.24071217,-0.8763538
9.5868,82725.0198,4.73813,0.09098,-3.74453,6.1563,-7.99195,0.47525,-16.86,-28.02,-17.22,27.331808,-66.055618,-159.156815,0.02072032436240188,-0.48504788,-0.29061615,-0.824525
9.6036,82725.0398,6.6056,4.86023,-5.21936,5.63096,-8.60343,-0.45998,-18.54,-29.4,-10.92,29.130175,-78.986176,-152.059525,0.025106294761491964,-0.55048782,-0.33693072,-0.76342028
9.6257,82725.0599,5.22894,5.87058,-3.23696,5.14043,-8.70544,-1.30053,-19.5,-30.36,-4.38,30.346996,-92.498695,-145.388382,0.018021208543082173,-0.61176986,-0.38019624,-0.69344336
9.6466,82725.0799,2.43969,2.10929,-1.47243,5.03231,-7.3933,-1.78556,-19.8,-30.36,2.88,31.075518,-105.760399,-138.906525,0.004037152037765793,-0.66262722,-0.42100206,-0.61940789
9.6651,82725.0998,1.15161,1.16358,-2.95205,5.22778,-6.93637,-1.59986,-18.42,-29.82,9.48,30.809584,-117.751343,-132.228622,0.006131121427919388,0.69901317,0.45971912,0.54772377
9.6845,82725.1199,-0.22984,1.99437,-3.51708,5.63462,-6.72685,-1.20157,-15.78,-29.22,15.72,28.89282,-129.125031,-125.797546,0.011065964246239856,0.72966731,0.49378157,0.472909
9.7062,82725.1399,-1.38624,1.62806,-6.19859,6.07139,-5.85453,-0.91813,-12.24,-27.24,21.0,25.200773,-139.536545,-119.942329,0.00831422408114451,0.75503856,0.5235647,0.39462343
9.7284,82725.1599,-1.90578,0.14126,-8.68138,6.20822,-5.56376,-0.72693,-7.62,-24.9,25.68,20.126516,-148.172592,-114.998772,0.003324346527537868,-0.77284294,-0.54917437,-0.31797838
9.7482,82725.1809,-1.901,-0.96247,-9.52892,6.27603,-6.19662,-0.6182,-3.42,-21.66,30.06,13.664315,-157.421524,-110.729179,0.014483238972600806,-0.78790009,-0.57255888,-0.22623
9.7679,82725.2029,-2.91853,-2.73897,-7.85059,6.88445,-6.38782,-0.9615,0.84,-17.34,33.18,6.327374,-166.562103,-107.771622,0.024576324521660507,-0.79726714,-0.58967268,-0.12667771
9.7907,82725.2229,-6.23211,-5.04698,-9.18895,7.4159,-6.66332,-0.8039,4.92,-13.02,35.52,-2.216747,-175.361679,-105.647079,0.039847682339454085,-0.79644966,-0.60304022,-0.0205571
9.8117,82725.2439,-7.35499,-6.09803,-10.88404,7.50814,-6.82642,-0.42028,9.36,-7.86,36.48,-11.040508,176.12439,-105.351753,0.056046440002932685,-0.7891053,-0.60575294,0.08505879
9.8314,82725.2638,-7.18261,-7.34302,-10.86968,7.601,-6.35117,-0.52657,14.1,-1.92,35.28,-20.148893,167.125748,-106.858788,0.07383406397208919,-0.77407002,-0.59867847,0.19221921
9.8515,82725.2839,-5.67186,-8.11634,-10.1155,7.81052,-5.83804,-0.68478,18.18,3.72,32.94,-28.625076,158.894318,-109.576424,0.09623882220695813,-0.75217175,-0.58624482,0.28511885
9.8682,82725.3039,-2.64559,-8.12113,-10.5297,7.69446,-5.25955,-0.94623,22.08,8.76,29.52,-36.815746,150.540588,-113.654709,0.12362594901201508,-0.72416508,-0.56930959,0.36903679
9.8889,82725.3238,-1.95606,-10.02692,-8.09719,6.68531,-3.75438,-1.4618,25.14,13.2,24.3,-44.33868,142.27533,-118.573685,0.1540816225169289,-0.69111359,-0.5524652,0.43977615
9.9141,82725.3439,-3.04542,-9.54329,-7.54413,5.46175,-1.50517,-1.34818,27.06,16.62,19.02,-50.587673,135.725433,-123.47226,0.18724701151950063,-0.6613915,-0.53838205,0.48748806
9.9295,82725.3639,-0.81163,-6.67743,-8.59518,4.47398,-0.16799,-1.16431,28.38,19.5,14.1,-55.220844,131.641724,-128.043442,0.22109680015018077,-0.64355057,-0.52474242,0.51147264
9.9492,82725.3839,1.34315,-7.40766,-8.80827,3.52469,0.75381,-1.79289,28.56,22.44,9.36,-59.092815,129.582642,-131.496262,0.2545951086760885,-0.63137096,-0.51479787,0.52109039
9.9683,82725.4039,1.96803,-8.16183,-7.08923,2.4007,1.74952,-2.48378,28.14,24.48,6.18,-62.803558,130.912491,-132.116608,0.2892995663878312,-0.62177986,-0.51288378,0.51637757
9.9901,82725.4239,2.38941,-9.29429,-5.58328,1.75502,2.88328,-2.68353,27.48,25.74,3.9,-66.345734,136.415771,-129.130142,0.32536240842018477,-0.61463392,-0.51724112,0.49882469
10.0164,82725.4439,5.21218,-8.83939,-9.00459,1.18997,3.59128,-3.18994,25.98,27.0,2.4,-69.308662,146.536804,-122.445175,0.3632911252339573,-0.61167264,-0.52272284,0.4697201
10.0368,82725.4639,5.7389,-10.10832,-11.54245,0.57055,3.46361,-4.26873,24.18,28.44,1.98,-71.345459,162.385635,-110.150879,0.4012869409456752,-0.60709053,-0.53279793,0.43189842
10.0717,82725.4839,3.58173,-10.49857,-13.73314,-0.54367,3.90832,-4.76841,21.72,29.58,1.98,-71.731102,-177.482285,-93.146919,0.4376388558180431,-0.59726,-0.54760188,0.38972414
10.0777,82725.5039,4.68545,-11.54245,-15.78018,-1.98348,4.42328,-5.23512,18.72,31.56,2.76,-69.570854,-157.910675,-77.106003,0.4720187018997013,-0.58785284,-0.56226605,0.33982977
10.1056,82725.5239,4.27126,-13.59188,-13.72356,-3.24858,5.07201,-5.38172,15.54,33.36,4.56,-64.299545,-143.343582,-66.669853,0.5000269664108027,-0.58146793,-0.57952154,0.27572244
10.1116,82725.5449,4.5011,-14.20959,-10.72363,-3.59005,5.802,-5.20763,11.94,34.5,6.96,-57.322174,-133.672043,-62.238335,0.5233921472718711,-0.57845324,-0.59313184,0.19911587
10.1316,82725.5649,6.66785,-13.2974,-10.90319,-3.33166,5.5491,-5.29009,7.68,35.1,9.78,-49.793655,-125.70784,-60.740395,0.5464664761930257,-0.57380462,-0.59927827,0.1139658
10.1494,82725.5849,10.07001,-11.5209,-12.09072,-2.85335,4.0873,-5.8191,3.24,35.04,12.48,-42.600208,-119.485832,-60.109783,0.5634842777781566,-0.56147844,-0.60489506,0.03646089
10.1758,82725.6048,11.43231,-9.84975,-13.16572,-2.92971,2.99813,-6.3866,-2.28,34.8,14.58,-35.047966,-114.926506,-59.493137,0.5712460098960855,-0.5394839,-0.61763573,-0.03407672
10.1911,82725.6249,9.96946,-9.20092,-13.84327,-3.95413,2.36466,-6.50327,-7.38,33.42,16.38,-26.8752,-111.860977,-59.560509,0.5685152181866131,-0.51315159,-0.63462186,-0.1035422
10.2157,82725.6449,9.67736,-8.18099,-10.82897,-4.76658,2.06595,-6.48556,-12.06,31.68,18.06,-18.218279,-109.963585,-61.173504,0.5537372093859324,-0.48967776,-0.64989984,-0.17669463
10.2298,82725.6648,8.64546,-7.90805,-8.64786,-5.06224,1.60841,-6.30779,-16.38,28.92,19.5,-9.39925,-108.366028,-63.768677,0.5303233037236116,-0.46758938,-0.66089964,-0.2516526
10.2491,82725.6849,8.97347,-7.49625,-6.06451,-4.76475,0.83566,-6.20273,-20.34,24.24,20.82,-0.826241,-107.012337,-66.727074,0.49989738417152674,-0.4456858,-0.66905737,-0.32222509
10.2704,82725.7049,9.81144,-6.35182,-3.41413,-3.94619,0.08613,-6.26503,-23.82,19.2,21.84,7.340641,-106.191635,-69.374039,0.46361305541690717,-0.42252871,-0.67805034,-0.38311899
10.2894,82725.7248,8.73405,-3.81875,-3.66552,-3.31211,-0.48503,-6.17829,-26.64,13.14,22.68,13.583755,-106.62986,-71.028419,0.4277747860969056,-0.40506753,-0.68921077,-0.42180273
10.3092,82725.7449,9.07402,-1.78607,-4.22098,-3.19544,-0.78802,-6.19906,-28.08,6.6,22.62,19.542776,-107.529732,-72.025429,0.3907080967275332,-0.38622358,-0.70196569,-0.45323581
10.333,82725.7649,7.86735,-1.38864,-4.56095,-3.52042,-0.70494,-6.04879,-28.14,0.42,22.8,25.474073,-108.515434,-72.903748,0.35197174896022565,-0.36678186,-0.71331239,-0.48246491
10.3572,82725.7848,7.29034,0.26336,-3.84509,-3.83746,-0.37385,-5.8918,-27.24,-5.82,23.34,31.334887,-108.948769,-74.219757,0.313566158649249,-0.34765217,-0.71959543,-0.51283199
10.3778,82725.8059,5.99987,0.28491,-2.83952,-3.88449,0.28527,-5.81483,-25.14,-11.04,22.8,37.107304,-108.473839,-76.044197,0.2774344650504674,-0.32734516,-0.72055453,-0.54468012
10.3961,82725.8259,2.16196,-0.92416,-1.45328,-3.868,1.00976,-4.98894,-23.04,-16.26,22.14,42.791901,-106.738403,-78.413658,0.24540768914171868,-0.30365172,-0.71656644,-0.57801664
10.4114,82725.8459,2.69348,2.1452,-1.5706,-3.70673,1.14659,-3.87289,-19.68,-21.18,20.88,47.021629,-103.685997,-81.528458,0.2242742053093042,-0.28413358,-0.70704746,-0.60749739
10.4398,82725.8659,2.20027,4.54419,-0.826,-3.4801,1.43431,-3.44833,-16.98,-25.38,18.42,51.784931,-98.772568,-86.345901,0.20027183846698252,-0.25994048,-0.69253463,-0.64243126
10.4587,82725.8859,2.28886,5.533,-0.63446,-3.27118,2.67681,-3.20888,-14.64,-29.58,16.2,55.998985,-92.014961,-92.369484,0.18087656189498033,-0.23260956,-0.67507321,-0.67635244
10.4792,82725.9069,2.81319,5.533,-1.86748,-3.51064,2.92971,-3.23453,-12.3,-32.76,13.62,59.579285,-82.114334,-100.096405,0.17007659200636732,-0.19640268,-0.65321624,-0.71120214
10.4952,82725.9269,1.11091,5.2433,0.826,-3.60044,2.20156,-3.16245,-10.5,-34.98,10.5,62.204739,-70.263222,-110.233612,0.1566348061712871,-0.16258696,-0.62835383,-0.74444777
10.5138,82725.9469,-5.88974,4.33111,3.57454,-3.30784,2.46851,-2.05067,-8.76,-36.6,7.14,63.541256,-57.680763,-121.741768,0.14065512295341898,-0.13371769,-0.60250735,-0.774158
10.5313,82725.9669,-10.22564,5.46357,3.6344,-3.10992,3.07143,0.33414,-6.96,-37.56,4.2,62.854977,-46.335487,-131.157684,0.1375537643911751,-0.10748261,-0.57527745,-0.79911345
10.5511,82725.9869,-12.718,5.2457,4.34787,-2.99935,3.42451,2.73851,-5.64,-38.1,1.32,60.977486,-35.583672,-138.364258,0.1466994315536461,-0.07442511,-0.54514343,-0.82204551
10.5724,82726.0069,-10.97502,4.0055,4.83629,-2.80387,3.36587,5.34568,-5.16,-38.46,-1.56,57.137291,-29.274757,-139.847763,0.17818736880376077,-0.0496207,-0.510759,-0.83959055
10.596,82726.0268,-1.9393,3.19147,5.9448,-2.59679,1.28709,6.39332,-5.58,-38.1,-4.26,51.854485,-27.691381,-136.143875,0.22903352855349507,-0.04111532,-0.47418499,-0.84911823
10.6163,82726.0469,4.02944,0.23942,8.42041,-1.73425,-2.17163,6.23938,-7.56,-36.78,-7.38,45.824913,-29.931723,-131.050705,0.2771529538474065,-0.06067222,-0.44086859,-0.85155153
10.634,82726.0669,4.42688,-0.67038,8.38449,-0.50274,-4.83194,5.90829,-10.5,-35.46,-9.54,40.04274,-35.643417,-126.134346,0.31173062433079324,-0.10873649,-0.42083806,-0.8449235
10.6614,82726.0868,3.81875,-0.69192,6.20098,0.6353,-5.29987,6.24976,-14.82,-32.88,-10.86,34.768856,-43.343056,-121.371849,0.3379999030655102,-0.17134666,-0.41464949,-0.8273223
10.6737,82726.1069,5.84425,-2.27449,3.42371,1.11788,-4.29011,6.97181,-19.62,-30.3,-10.38,29.247999,-51.643536,-115.794655,0.3697217013461355,-0.23624152,-0.41649729,-0.79625738
10.6996,82726.1269,7.81467,-4.39815,1.77171,0.87293,-2.80265,7.73172,-24.54,-26.82,-8.16,22.215488,-58.331753,-110.211311,0.41316837062414097,-0.2959944,-0.4115496,-0.75650918
10.717,82726.1469,13.20881,-3.41413,0.46448,0.22174,-1.84115,7.93025,-28.68,-22.2,-5.64,13.679548,-62.975594,-105.282425,0.4643272323774061,-0.35058442,-0.39541116,-0.71073258
10.7339,82726.1669,19.04587,-0.26097,-0.08619,-0.55833,-1.50762,7.00296,-32.4,-17.34,-2.7,5.13866,-66.056778,-101.720367,0.5097279244136547,-0.39860001,-0.37285113,-0.66503948
10.7515,82726.1869,20.13763,2.96163,1.87945,-0.84727,-1.28954,5.26322,-34.74,-11.64,-0.36,-2.091313,-68.36132,-99.863228,0.540272324470936,-0.43958193,-0.35002062,-0.62638575
10.7709,82726.2069,16.57027,1.92015,1.93212,-1.04091,-0.38362,3.71467,-36.24,-6.54,1.08,-7.331023,-69.898209,-99.213676,0.557970387336212,-0.46935606,-0.33055267,-0.59925693
10.7943,82726.2269,9.91918,-1.60172,0.76854,-1.18202,-0.41539,3.05738,-37.02,-1.86,2.04,-11.078268,-70.727158,-99.407898,0.5675580030389596,-0.49027741,-0.31252176,-0.58295465
10.8263,82726.2479,5.16908,-4.56814,-0.6177,-1.22784,-1.29503,3.51431,-37.08,1.98,2.76,-14.812338,-72.010925,-99.894295,0.5742220526504292,-0.51332754,-0.29531106,-0.56529218
10.8385,82726.2689,8.31027,-4.51307,-1.87227,-1.0177,-2.99019,3.55707,-36.66,5.34,3.24,-18.909504,-74.4823,-100.361244,0.5792240510943034,-0.5422411,-0.28182584,-0.53948891
10.861,82726.2889,11.53766,-5.55694,-4.32872,-0.93829,-5.20274,2.7434,-36.0,8.04,4.14,-22.934595,-79.360626,-100.99263,0.5777481183448869,-0.58015645,-0.28000438,-0.50122166
10.8743,82726.3089,13.59188,-5.23373,-4.74291,-0.98044,-7.69996,2.30663,-35.46,11.04,6.36,-25.723791,-86.95134,-102.21199,0.5634067849355948,-0.623501,-0.29544842,-0.4544552
10.8996,82726.3288,12.97657,-5.37259,-4.31435,-0.76358,-8.60098,2.40437,-34.44,13.2,9.54,-27.956118,-96.905525,-103.818283,0.5393207530727974,-0.67041332,-0.32194278,-0.3950088
10.9153,82726.3489,14.07072,-5.86579,-6.03099,-0.94623,-7.54357,2.41536,-32.52,15.06,14.1,-30.076414,-107.380508,-105.726334,0.5119299559775946,-0.71315849,-0.34735164,-0.32966578
10.9588,82726.3689,19.09136,-4.458,-7.2664,-1.63834,-6.49716,1.72753,-29.58,16.92,18.72,-32.064724,-117.07093,-108.602608,0.4840423258370445,-0.74986678,-0.36129481,-0.2699424
10.9644,82726.3888,16.38831,-4.16112,-7.03656,-2.05617,-5.25466,0.83627,-25.44,17.04,22.8,-32.47414,-125.851379,-112.017426,0.45073531709645437,-0.77996695,-0.37242895,-0.22312756
10.9751,82726.4089,12.20325,-4.43167,-7.24964,-1.98898,-4.59004,0.30116,-21.36,17.7,26.52,-31.584461,-133.066284,-115.014915,0.41640656855072267,-0.80271381,-0.38274971,-0.18909989
10.9965,82726.4289,10.47224,-3.98874,-9.03572,-1.76662,-4.78613,-0.32559,-16.92,17.52,29.46,-30.151361,-139.32753,-117.008461,0.3832662657135202,-0.81923652,-0.39593798,-0.15871865
11.0182,82726.4499,9.19852,-3.73256,-11.71962,-2.43185,-5.49473,-0.92546,-12.96,16.08,31.98,-28.007015,-145.802094,-117.88797,0.3453051141964867,-0.8311671,-0.41746974,-0.12507856
11.0337,82726.4699,9.1267,-3.30639,-12.22001,-3.25713,-5.57109,-1.33902,-9.54,14.88,33.78,-24.862911,-152.433777,-118.32769,0.2987760051453794,-0.84064943,-0.44211528,-0.09260407
11.0546,82726.4899,7.93199,-1.25696,-10.17775,-3.72322,-5.11233,-1.653,-5.58,13.2,35.1,-20.549292,-158.382217,-118.130074,0.24513822754327733,-0.84621787,-0.46815553,-0.06821265
11.0808,82726.5109,6.3183,-1.42455,-10.39562,-3.72383,-5.21129,-1.75074,-2.22,10.5,35.88,-15.781058,-162.926086,-117.036903,0.19256573572019806,-0.84601712,-0.49416906,-0.05450147
11.1005,82726.5309,4.68306,-2.88022,-9.59835,-3.96329,-5.57598,-1.84054,1.2,7.86,36.6,-10.966797,-167.982391,-115.521095,0.13596820831263584,-0.84266585,-0.51963937,-0.03744111
11.1171,82726.5509,2.63602,-2.65996,-7.97509,-3.79469,-5.44159,-1.79533,5.04,5.16,37.14,-6.506411,-172.99559,-113.695198,0.0807738653489874,-0.83620453,-0.54206473,-0.0200847
11.1345,82726.5709,2.08296,-1.17555,-7.5154,-3.31089,-5.5882,-1.73241,9.12,2.1,36.96,-2.594489,-177.95369,-111.597191,0.02875330677948224,-0.82695025,-0.56153572,-0.00204121
11.1556,82726.5909,2.03986,0.22505,-8.97826,-2.79349,-6.22105,-1.74952,13.2,-0.84,35.7,0.593105,176.821594,-109.335678,0.020255873945754052,0.81557143,0.57796842,-0.01963282
11.1758,82726.6109,-0.00479,0.88346,-8.89207,-2.51249,-7.15323,-1.79472,17.7,-2.94,34.32,3.086066,170.543167,-106.866676,0.07064550481269526,0.80146295,0.59173203,-0.05019519
11.2075,82726.6309,-2.26731,0.59376,-7.35499,-2.24432,-6.87284,-1.70981,21.66,-4.56,32.04,5.013181,163.323822,-104.157364,0.12317221072479781,0.78366786,0.6024977,-0.08769158
11.2199,82726.6509,-2.68151,1.83396,-7.25204,-2.0073,-6.18318,-1.26083,25.86,-5.82,29.4,6.481817,156.459167,-101.542648,0.17167304329227373,0.76442033,0.60919559,-0.12276261
11.2392,82726.6709,-4.82192,2.67193,-7.05332,-2.0073,-4.97855,-0.79901,29.76,-6.72,26.16,7.880695,150.352585,-99.366173,0.2157966706694942,0.74673313,0.61059695,-0.15163375
11.258,82726.6908,-5.31034,3.02388,-7.33823,-1.93583,-4.04881,-0.45326,33.3,-7.14,21.48,9.42846,145.397278,-97.525406,0.2543813215259031,0.73164415,0.6088447,-0.17115815
11.277,82726.7109,-3.84509,2.91374,-8.91361,-2.02563,-3.64931,-0.55711,35.88,-8.16,17.4,10.978075,141.462921,-95.886452,0.287083516407052,0.71882033,0.60600561,-0.18340553
11.2952,82726.7309,-2.18112,1.24259,-9.49301,-2.59679,-4.05126,-1.15759,37.5,-8.28,13.26,12.303013,137.82756,-93.865608,0.3173005679060885,0.70403647,0.60529852,-0.19304585
11.3153,82726.7508,-3.7565,-0.23224,-7.60159,-3.07448,-4.85943,-1.87902,38.82,-8.46,9.78,13.247406,133.409607,-90.723778,0.35139800732073523,0.68124121,0.6085816,-0.20508118
11.338,82726.7709,-4.95839,0.10295,-2.93529,-3.05738,-5.33652,-2.12031,39.3,-8.52,6.96,13.575836,127.732216,-86.696831,0.3909000544007679,0.64979595,0.61253721,-0.2230707
11.3601,82726.7909,-6.42364,0.64165,-0.7015,-2.80265,-4.56438,-1.79228,39.6,-7.38,3.54,13.292929,121.453423,-82.608932,0.4314970507896903,0.61441433,0.61352056,-0.24474037
11.3871,82726.8119,-6.24408,2.32716,-2.22421,-2.62611,-4.02621,-1.4282,40.14,-6.36,0.24,13.012926,116.219398,-79.00914,0.46619684224257274,0.58283198,0.61281216,-0.25967026
11.4074,82726.8319,-8.24084,0.57461,-2.17633,-2.51249,-4.02621,-1.45386,40.26,-4.5,-3.54,12.507151,111.065514,-75.537582,0.499707510324429,0.55068249,0.61008322,-0.27356839
11.423,82726.8519,-9.13388,-0.6608,-2.10929,-2.49172,-4.08425,-1.01953,40.44,-2.76,-7.2,11.633224,106.215408,-72.393265,0.5298210769787008,0.51897269,0.60615498,-0.28728577
11.4404,82726.8729,-9.95749,-2.99036,-1.15879,-3.06777,-4.20397,-0.29383,39.9,-1.2,-10.86,10.756354,101.171799,-69.324776,0.5611185059720804,0.48640949,0.59881502,-0.299954
11.4624,82726.8929,-11.76032,-3.80918,1.36948,-3.78248,-3.29501,1.13926,38.28,0.78,-14.4,10.449029,95.731255,-65.500328,0.5984144461024736,0.45088539,0.58805239,-0.30462584
11.4796,82726.9129,-11.20486,-2.65278,5.96156,-3.96635,-1.67255,2.63283,36.96,2.46,-16.92,11.507289,91.2911,-61.072964,0.635522241012332,0.42183128,0.57714635,-0.29167095
11.4966,82726.9329,-10.38844,-0.70868,8.85136,-3.29195,-0.20892,3.49965,35.52,3.84,-19.26,13.888309,88.143066,-56.350155,0.6684000222153712,0.40258157,0.56762642,-0.2626209
11.5184,82726.9529,-11.04445,-0.65122,7.28795,-2.22905,0.68722,3.88938,34.92,4.44,-20.46,16.918619,86.306213,-52.336296,0.6920026840166644,0.39466429,0.55984128,-0.2279257
11.5417,82726.9739,-10.85292,-1.10852,7.09641,-1.81549,1.85947,4.33592,34.62,4.02,-20.64,20.266399,85.451851,-49.121853,0.7073364085032781,0.395174,0.55375409,-0.19201334
11.5604,82726.9939,-13.14656,-1.26893,6.86418,-1.84481,3.69757,5.57415,34.74,2.82,-20.64,24.403702,86.052933,-45.931511,0.7141596784925214,0.40248299,0.5537734,-0.14600828
11.5786,82727.0138,-13.02206,-1.41976,7.1419,-2.35977,5.28154,7.21371,35.82,0.9,-19.32,29.748356,88.076988,-42.483364,0.7122311206129851,0.41540819,0.55934685,-0.08540473
11.5989,82727.0339,-9.67497,-0.79727,6.50026,-3.15451,7.04083,8.44582,36.06,-2.04,-17.1,36.850582,91.120972,-38.053692,0.7015427999894029,0.43004259,0.56823474,-0.00321727
11.6189,82727.0539,-6.13155,-0.01676,6.1938,-3.79286,6.50083,8.47698,36.84,-6.0,-14.4,45.16563,93.931946,-32.134945,0.6831815620571771,0.43862185,0.57600731,0.09533837
11.6492,82727.0738,-6.3183,1.85311,8.48026,-3.57356,6.0268,7.83984,36.96,-10.56,-11.22,53.426281,93.841682,-24.290243,0.6655323130543576,0.43742505,0.57325429,0.1926281
11.6583,82727.0939,-4.63039,2.8084,8.86094,-2.70247,6.17096,7.6572,36.0,-15.72,-8.16,60.97887,91.386696,-14.661823,0.6433215350977616,0.43019226,0.56639624,0.28331488
11.68,82727.1139,-2.91614,3.51708,6.41646,-2.18201,7.5338,8.06464,35.28,-20.52,-5.28,68.344093,87.365166,-3.256413,0.6091051557890311,0.42226624,0.55965072,0.37077379
11.6982,82727.1339,0.17478,4.81235,2.71742,-2.66704,8.20026,8.47759,32.58,-25.26,-2.64,75.926712,78.107605,15.084231,0.5560707429829397,0.40837169,0.55513757,0.46458602
11.7253,82727.1539,4.23534,8.16423,3.0143,-3.17222,7.5619,7.79342,28.32,-29.58,0.24,81.702934,40.324547,62.503971,0.4900547565508859,0.38965788,0.5414409,0.56111926
11.7497,82727.1739,4.80516,10.26634,6.58166,-2.90528,7.68468,6.25343,23.4,-32.88,2.04,78.808716,-9.210671,121.302139,0.4219180269830762,0.36420035,0.52112031,0.64635664
11.764,82727.1939,0.47884,7.02459,7.9679,-2.47217,7.79892,5.57292,17.4,-35.58,2.64,72.61972,-21.392378,143.051971,0.35514956777860984,0.32623267,0.50448573,0.71619493
11.7803,82727.2139,1.79805,6.2776,9.89284,-1.90651,8.13734,5.69632,12.18,-37.5,2.34,66.575157,-23.930719,155.528412,0.28451398675031025,0.28315929,0.48799071,0.77507269
11.8009,82727.2339,7.73806,6.72531,8.4228,-1.4166,8.20636,5.49351,7.14,-38.46,1.32,61.079361,-24.634165,166.80159,0.20438017799538877,0.23956423,0.47203469,0.82342029
11.8181,82727.2539,11.53048,8.84897,6.19141,-1.24861,7.80991,4.36341,2.76,-39.06,-0.12,56.473572,-24.104355,176.839508,0.12250983929360061,0.1966445,0.45743906,0.85852885
11.8403,82727.2749,6.29914,9.19134,6.26802,-1.33413,6.86307,3.25102,-1.02,-39.06,-2.16,52.903194,-21.578966,-176.023438,0.05282181082514119,0.15232079,0.44311845,0.88184708
11.8615,82727.2959,2.95444,8.65504,7.45554,-1.14843,6.63155,2.90772,-4.38,-38.46,-4.14,49.819572,-17.853926,-170.440781,0.009526197409425407,-0.10558034,-0.4263688,-0.89831603
11.8831,82727.3158,0.31125,6.91206,7.48906,-1.16431,7.59367,3.26019,-6.72,-37.8,-6.36,47.528786,-13.84868,-165.66539,0.06515181258328023,-0.05956276,-0.41067785,-0.90749723
11.9113,82727.3359,0.60094,5.11401,8.339,-1.15026,7.62787,3.73788,-8.58,-37.2,-8.7,45.299374,-9.189433,-160.250275,0.1273698867947881,-0.00700306,-0.39084974,-0.91157246
11.929,82727.3559,1.28808,5.10683,9.38766,-0.39279,6.36155,3.95352,-9.96,-36.12,-10.8,43.366379,-5.23499,-154.072372,0.19180141041261461,0.04144477,-0.36920133,-0.9083969
11.94,82727.3758,4.01986,6.56251,7.72848,0.54367,4.52101,3.37808,-10.5,-34.98,-12.96,42.680859,-3.246916,-147.460403,0.2509496115741976,0.0765804,-0.35658795,-0.89666313
11.961,82727.3959,3.35428,8.96389,2.84431,0.66096,2.87595,1.76845,-10.86,-34.08,-15.18,43.443588,-2.65318,-142.221954,0.29256079335161667,0.09943356,-0.35703817,-0.8815015
11.9825,82727.4159,-0.75178,9.00938,1.07021,-0.39462,2.16307,1.08184,-11.34,-32.82,-16.86,44.371655,-1.924021,-139.369049,0.3154935963150416,0.1165048,-0.35947004,-0.8704434
12.0075,82727.4359,-2.43969,6.76362,2.37026,-1.27426,2.00058,1.36162,-11.58,-32.1,-18.3,44.283886,-0.972423,-137.397812,0.3334871785646735,0.12958896,-0.35399678,-0.86410606
12.0208,82727.4559,-0.59855,5.02064,5.80354,-1.77029,1.78067,1.55221,-11.76,-31.62,-19.44,43.132565,-0.388531,-134.983231,0.3548651003012372,0.13780159,-0.34078178,-0.85962158
12.0429,82727.4759,-1.31681,6.0693,9.27035,-1.38727,1.91934,1.47524,-11.76,-30.9,-20.58,41.326401,0.07791,-132.568481,0.3765460787627843,0.14250819,-0.32281852,-0.85655862
12.0864,82727.4959,-1.76932,5.96874,5.85622,-1.05435,2.08855,1.57237,-11.52,-29.94,-23.04,40.117077,1.046398,-130.341187,0.39727274153696374,0.15180214,-0.30766073,-0.85116118
12.0927,82727.5057,-0.01197,5.57131,2.36308,-1.59191,1.15026,1.37628,-11.52,-29.94,-23.04,39.68959,1.615891,-128.11322,0.4157667757618687,0.1604259,-0.2994307,-0.84364849
12.0968,82727.5157,0.2897,5.50906,2.45406,-1.62551,1.07818,1.34696,-11.52,-29.94,-23.04,39.68959,1.615891,-128.11322,0.4157667757618687,0.1604259,-0.2994307,-0.84364849
12.1012,82727.5359,1.05824,5.42526,4.32153,-1.8833,-0.12278,0.82467,-11.94,-28.68,-24.3,38.387466,1.373162,-126.066582,0.4317457776419624,0.15916079,-0.28786409,-0.83987957
12.133,82727.5569,3.25611,4.82671,5.31513,-1.71592,-1.86558,0.15699,-12.12,-27.18,-25.32,36.723148,-0.247695,-124.717529,0.43970936043679,0.14432724,-0.2800113,-0.84108204
12.1421,82727.5769,1.22344,5.4085,5.87537,-1.79839,-2.5467,-0.25229,-13.02,-25.8,-25.8,35.274033,-2.978317,-124.480797,0.43675196630504015,0.11915591,-0.27955952,-0.84669715
12.1621,82727.5969,-2.53546,5.31034,5.71975,-2.13864,-1.29626,0.24862,-13.38,-24.06,-26.22,33.692711,-5.259519,-124.877518,0.43058568210958525,0.09502162,-0.27696583,-0.8537311
12.1804,82727.6169,-2.85149,2.11408,2.29365,-3.00973,-0.17837,1.31336,-14.34,-23.4,-26.52,31.626511,-6.062463,-124.657173,0.43343779094775253,0.08131354,-0.26462603,-0.8576088
12.1999,82727.6367,-1.11809,0.07183,2.05183,-4.02499,-0.37385,2.17163,-15.54,-22.08,-27.12,27.827976,-6.831551,-123.015091,0.44963098869700013,0.06368014,-0.23855323,-0.85841084
12.2247,82727.6568,1.17555,-1.3623,3.16513,-4.44038,-1.8271,2.58518,-16.68,-20.1,-28.32,22.765894,-8.54543,-120.710915,0.47076103425884824,0.03387079,-0.20718184,-0.85692036
12.2443,82727.6769,5.18345,-3.30639,3.81396,-4.62669,-3.55585,2.52471,-17.58,-17.64,-29.7,17.182903,-11.825808,-118.530884,0.4894102179020642,-0.01161347,-0.17977926,-0.85324216
12.2744,82727.6969,14.60224,-1.86987,9.05487,-4.69572,-4.6554,1.58642,-19.08,-14.22,-30.6,10.939192,-17.65793,-117.009392,0.5014132837657203,-0.08107193,-0.16013269,-0.84638619
12.289,82727.7168,17.32923,-1.16358,14.35563,-4.44221,-3.70551,0.0788,-21.42,-11.16,-30.9,5.199711,-23.751715,-117.589851,0.49850702994293966,-0.15283799,-0.1444788,-0.84098583
12.303,82727.7369,13.92947,-2.64799,15.26543,-3.7049,-2.64321,-0.99693,-24.12,-7.26,-29.76,0.672013,-28.131416,-120.159149,0.4825979472643009,-0.20780151,-0.1261531,-0.84142923
12.3212,82727.7569,8.82263,-4.13957,10.36689,-2.36832,-4.38113,-1.37017,-26.58,-3.9,-27.6,-2.290933,-31.909334,-123.380035,0.4607202102373269,-0.25106692,-0.1134101,-0.84370637
12.3416,82727.7768,10.45548,-2.66714,3.81396,-2.22844,-7.40369,-1.62673,-29.1,-1.8,-25.32,-3.709541,-38.360519,-126.177338,0.43674459042558933,-0.30664548,-0.12136443,-0.83695483
12.3613,82727.7969,14.71237,-1.43652,4.18506,-2.73118,-8.51241,-2.44774,-30.96,0.06,-22.2,-4.396098,-47.843071,-129.437073,0.40415626435390284,-0.38135093,-0.14133997,-0.81929982
12.3839,82727.8169,15.90468,-3.04542,4.09648,-3.5253,-8.66879,-2.84419,-32.76,-0.24,-18.84,-4.120395,-58.054047,-133.798096,0.35889238907489174,-0.45835918,-0.16134165,-0.79691404
12.4044,82727.8379,17.49443,-5.50666,3.56497,-4.69755,-8.14711,-2.62855,-35.22,-1.14,-14.22,-3.147243,-68.772026,-139.669388,0.2989401788211338,-0.53775901,-0.17334478,-0.7690264
12.4314,82727.8579,18.70829,-4.42209,7.94636,-4.59737,-6.01763,-2.6817,-36.42,-2.34,-8.82,-1.852904,-77.903145,-146.21521,0.2356704730081616,-0.60511297,-0.17061839,-0.74107158
12.4449,82727.8789,17.23346,-2.4756,6.64152,-3.75377,-4.55278,-2.99263,-37.26,-4.08,-3.3,0.461786,-84.44973,-152.178146,0.1753986493619688,-0.65160871,-0.16446309,-0.71943957
12.4653,82727.8999,15.28937,-1.26414,3.36625,-2.73423,-4.47337,-3.4294,-37.14,-5.4,1.98,4.14919,-89.878471,-156.968567,0.1161659114584371,-0.6865682,-0.16603124,-0.69825727
12.4849,82727.9199,16.19917,0.24421,0.03831,-2.41231,-5.27116,-4.2675,-36.12,-7.8,5.58,8.33841,-94.911629,-159.670609,0.06628854932180682,-0.714598,-0.17806402,-0.6732375
12.5141,82727.9399,13.53442,0.96486,-2.1045,-2.75317,-5.41166,-5.08912,-35.28,-10.98,9.18,13.824693,-100.644691,-161.536346,0.010253696973144334,-0.74183041,-0.19842172,-0.64047742
12.5421,82727.9599,12.71321,1.71425,-2.09014,-3.01523,-5.44953,-5.34507,-33.12,-14.16,12.06,20.163002,-106.088547,-163.14064,0.05159684655598069,0.76283473,0.21943776,0.60602641
12.5643,82727.9799,13.06516,3.37343,-0.74699,-2.55586,-5.72014,-5.38783,-30.3,-18.0,14.4,26.4168,-111.118469,-164.294098,0.11144481108940203,0.77770817,0.23771392,0.57117611
12.5681,82727.9999,12.55759,3.30639,-1.54187,-1.96454,-6.55031,-5.75679,-26.7,-21.36,16.44,32.283562,-116.553398,-164.456299,0.16600445503826117,0.78979027,0.25533301,0.53242737
12.5992,82728.0199,11.28627,3.62003,-3.33033,-1.61146,-7.99134,-5.86736,-21.9,-24.84,18.54,38.084747,-124.032036,-163.023697,0.21949415017951704,0.8030138,0.27462959,0.48121694
12.608,82728.0409,10.01016,4.65912,-3.29921,-1.70615,-8.24973,-6.1056,-16.74,-28.32,19.14,43.795849,-134.419067,-159.974945,0.2761109247572228,0.81726444,0.29099274,0.4137207
12.6295,82728.0608,7.89847,4.61363,-2.90177,-1.64384,-7.66575,-6.3646,-10.98,-30.96,19.74,48.925442,-145.552353,-155.672958,0.3298618504223044,0.824058,0.30305198,0.34681273
12.6491,82728.0809,3.93367,6.39731,-4.36702,-1.89674,-6.50083,-6.0103,-4.2,-32.82,19.98,53.353931,-157.849152,-149.124741,0.37900960855023214,0.82231379,0.31655794,0.28274161
12.6672,82728.1009,3.82115,6.84742,-3.17232,-1.73608,-5.82888,-5.62973,2.46,-34.02,18.3,56.987869,-170.245056,-141.38179,0.4238904882280571,0.81301379,0.32783875,0.22769977
12.6845,82728.1209,2.80122,6.96234,-3.553,-1.59558,-5.18441,-5.48679,9.3,-33.96,16.68,59.2817,176.789993,-132.418686,0.46217901856958127,0.80056345,0.33779621,0.17715089
12.7054,82728.1408,2.18591,6.26563,-3.71341,-1.71042,-4.61203,-5.63096,15.3,-33.18,14.16,60.309273,163.561646,-122.428452,0.49526230121169906,0.78461897,0.34915477,0.13106972
12.7276,82728.1609,-1.075,4.41012,-3.24654,-1.8326,-3.97429,-5.4929,19.92,-32.1,11.28,60.067471,150.090698,-111.608452,0.5255200626746653,0.76440239,0.36325061,0.08698646
12.7592,82728.1809,-6.20338,5.09726,-3.11964,-2.24126,-2.766,-4.33592,24.12,-30.0,7.98,58.589214,137.523743,-101.087013,0.5528979650964325,0.7402724,0.37972808,0.04590424
12.7706,82728.2019,-7.89368,6.40449,-2.56419,-2.53998,-1.37933,-2.73545,27.84,-27.9,4.92,57.086514,127.264381,-91.756233,0.5789411651324807,0.71274364,0.39560166,0.01797102
12.7962,82728.2229,-7.57286,7.38372,-1.67115,-2.47095,-0.4667,-1.47035,30.18,-25.86,2.04,56.362606,119.872009,-84.126656,0.6016598510352459,0.68673152,0.40785712,0.00760347
12.8085,82728.2429,-7.05332,6.87615,-1.68791,-2.17102,-0.09896,-1.02503,32.34,-23.28,-0.6,56.161182,114.804886,-78.260345,0.6189766440596477,0.66580087,0.41655555,0.00765437
12.829,82728.2629,-5.80594,6.51462,-2.85628,-2.37016,0.18692,-0.97922,33.18,-21.9,-1.74,55.891186,110.969551,-73.306168,0.6320904396836451,0.64756268,0.42544544,0.01097402
12.8507,82728.2839,-5.55694,5.57849,-1.86987,-2.7214,0.42638,-0.91508,33.42,-20.28,-3.06,55.474506,106.931023,-67.682343,0.6458923618152702,0.62617195,0.4363904,0.01718036
12.8702,82728.3039,-6.39012,5.64792,-0.69432,-2.81365,0.94318,-0.60048,34.02,-18.78,-4.08,54.980469,103.052849,-61.837185,0.6591645508862765,0.60322189,0.44824758,0.02644907
12.8909,82728.3249,-8.67659,5.15711,-0.1652,-2.87412,1.70981,0.3708,34.32,-17.76,-4.5,54.626034,99.82238,-56.01524,0.6700146816173729,0.58008754,0.46138695,0.04124142
12.9139,82728.3449,-7.90565,4.88896,0.51236,-3.00362,3.04516,1.48501,34.92,-16.62,-5.22,55.209728,97.381554,-49.887634,0.6772006289158425,0.55807352,0.47455937,0.068896
12.9348,82728.3659,-7.3909,5.62637,0.22984,-3.21987,4.25895,2.2938,34.86,-16.2,-5.22,56.878746,96.208054,-43.417454,0.6766673236350775,0.53756428,0.49047828,0.11214738
12.9529,82728.3859,-8.71729,5.08768,0.89543,-3.75865,5.55338,3.21132,34.86,-16.98,-4.56,59.151585,95.413963,-36.234592,0.6697615522981141,0.51572293,0.5081535,0.16501316
12.9748,82728.4059,-9.03332,3.12922,1.33357,-3.50514,6.75861,4.55767,34.44,-18.3,-3.42,62.245155,94.749435,-27.561897,0.6536330121835364,0.48999572,0.52837801,0.23126772
13.0013,82728.4259,-6.74447,3.46441,1.31921,-3.62304,7.52647,6.04268,33.48,-19.62,-1.32,66.725243,94.172295,-18.096102,0.6249536253480824,0.46598655,0.5451889,0.30831569
13.0151,82728.4458,-3.68946,6.05972,0.32082,-3.4972,7.78731,6.61384,32.34,-22.14,1.38,72.604164,91.623123,-6.14611,0.5836844164645648,0.4430517,0.55492288,0.39379981
13.0352,82728.4659,-1.70467,7.67821,1.28329,-3.18505,8.57349,6.4373,30.36,-24.72,4.02,78.773293,82.885452,12.290093,0.5310786409788192,0.41817802,0.55952704,0.47959578
13.0548,82728.4859,-1.37667,6.42125,1.70467,-2.93399,9.37556,6.1056,26.82,-28.2,6.36,83.302917,55.568939,50.198368,0.46722175401720867,0.38470823,0.5648275,0.56095749
13.0718,82728.5059,-0.22984,6.56251,1.69749,-2.85213,9.48307,5.92478,22.8,-32.04,8.28,83.165222,5.306713,111.758682,0.3936954299764599,0.34322819,0.5682835,0.63580829
13.0907,82728.5268,2.57856,8.05649,0.66559,-2.89489,8.83006,5.34568,17.64,-34.98,9.42,78.967918,-19.543024,147.799744,0.3146142215663148,0.29962939,0.56573409,0.70084596
13.111,82728.5469,4.26407,9.46189,1.22823,-2.53631,7.87344,4.565,11.82,-37.02,9.54,73.640259,-26.52383,165.696106,0.23341986601611892,0.25483713,0.55592,0.75599349
13.1306,82728.5669,3.58651,9.33978,2.65278,-1.84359,6.90522,3.68657,6.72,-38.28,8.88,69.201813,-27.444992,175.86232,0.16348596382056033,0.2150493,0.54423934,0.79424787
13.1511,82728.5868,2.54982,8.3007,3.11964,-1.29809,6.65354,3.14168,1.44,-38.52,7.38,65.871117,-26.499989,-176.782928,0.10163395979555839,0.17743243,0.5344131,0.8201164
13.1799,82728.6079,1.16837,7.41963,3.51229,-1.16125,7.28884,3.13618,-2.7,-38.46,5.1,63.335217,-24.391209,-170.661789,0.0428182363184318,0.13742939,0.5260753,0.83816737
13.1949,82728.6279,3.5506,6.82347,2.77488,-1.27243,8.12573,3.32494,-6.0,-38.1,3.0,60.840378,-21.482212,-163.740402,0.026393289836222012,-0.08874985,-0.51519448,-0.85205722
13.2167,82728.6479,4.28802,7.24725,2.57137,-1.48929,7.96507,3.2834,-9.12,-36.54,0.84,58.48592,-18.364084,-156.78653,0.09694322559385321,-0.03936192,-0.50040621,-0.85944533
13.2418,82728.6679,2.81079,6.8953,2.41336,-1.79655,7.45378,3.17406,-11.28,-35.58,-2.16,56.183758,-15.153625,-150.210556,0.16477950731260865,0.00756836,-0.48099151,-0.86106771
13.2561,82728.6879,2.63841,7.13233,1.80762,-2.29258,7.15384,3.16795,-13.14,-34.98,-5.1,53.878864,-12.126879,-143.998245,0.2284429784802541,0.04966501,-0.4575626,-0.8578949
13.2752,82728.7079,4.80516,7.81946,0.68235,-3.35365,6.3023,2.44835,-14.16,-34.08,-8.52,51.295441,-9.271192,-138.052887,0.2889513199834219,0.08639314,-0.42891493,-0.85151356
13.2949,82728.7279,5.88974,7.75243,4.56574,-4.03904,5.13982,1.10017,-14.76,-33.3,-12.36,47.699001,-6.174901,-133.937622,0.33726408742984254,0.11262497,-0.39083928,-0.84900719
13.3156,82728.7479,3.97198,6.63912,6.59603,-3.56501,4.25284,-0.04032,-14.7,-31.98,-16.14,43.813141,-2.594849,-131.998627,0.36956366940311564,0.13252509,-0.34929398,-0.85079581
13.3369,82728.7679,2.10211,5.35822,4.04141,-3.15023,3.11419,-0.8601,-13.86,-30.36,-20.1,40.680382,0.901796,-131.503693,0.3875631068993183,0.14947644,-0.31388682,-0.85377204
13.3546,82728.7879,2.83713,4.59687,1.33836,-3.56623,2.20156,-1.76479,-13.02,-28.8,-23.88,37.961285,3.593807,-131.809448,0.3951780110880613,0.15978737,-0.28465757,-0.85864568
13.3799,82728.8079,5.92086,3.3016,0.88825,-4.52712,1.55343,-3.19177,-11.22,-26.34,-26.7,34.642776,5.428514,-132.987961,0.3932594795683846,0.16007155,-0.25468791,-0.86882573
13.3939,82728.8279,4.9967,0.39983,3.64637,-5.01093,1.45386,-4.65846,-9.18,-24.48,-28.86,29.775625,7.079502,-135.695129,0.3784108159319104,0.15195917,-0.21500863,-0.88740349
13.4229,82728.8479,-1.18513,-4.51546,4.69982,-5.06041,1.50029,-5.03903,-6.9,-21.84,-30.96,23.188673,11.018466,-140.645569,0.3464949516951094,0.15591714,-0.15670291,-0.91163331
13.4381,82728.8679,-5.92325,-6.75404,4.23774,-4.88204,1.61879,-4.18504,-4.32,-18.84,-32.52,16.332809,14.305828,-144.958023,0.3125500017281088,0.15996863,-0.0972976,-0.93126565
13.4531,82728.8879,-4.92727,-7.17542,3.89537,-4.9248,1.14598,-3.27485,-2.16,-15.84,-33.84,9.777216,16.737612,-147.702438,0.28608376532051694,0.16274279,-0.04065132,-0.94340783
13.4718,82728.9079,-3.63679,-7.66145,4.4987,-5.14654,0.40256,-3.11663,-0.24,-11.94,-35.28,1.631079,18.313931,-149.356567,0.2630293119384304,0.15718099,0.02849406,-0.95147139
13.4929,82728.9278,-3.22978,-8.70771,11.64779,-4.8967,-0.48503,-3.06838,1.62,-8.16,-36.18,-6.452756,18.457861,-150.720825,0.24033764046359424,0.1408866,0.09421889,-0.955778
13.5118,82728.9479,-4.32153,-10.74518,16.33324,-3.66275,-0.09529,-2.67192,2.46,-3.9,-37.2,-13.521627,17.661381,-152.245316,0.21780778824096236,0.12009698,0.14949754,-0.95696759
13.5381,82728.9679,-6.40928,-12.69406,14.54478,-2.32556,0.18204,-2.03113,2.94,0.48,-37.8,-18.649958,17.322792,-153.761047,0.19766374147276627,0.10836652,0.18973573,-0.95560771
13.5614,82728.9878,-6.26084,-11.19768,14.10424,-1.67866,-0.04398,-1.69515,3.0,4.32,-38.04,-21.625435,16.92318,-155.120529,0.1823285314580736,0.10116927,0.21233538,-0.95469093
13.5757,82729.0079,-7.762,-10.92474,16.90546,-1.23395,-0.31032,-1.32802,2.52,7.38,-37.62,-23.90551,16.25902,-156.35701,0.16974159140827075,0.09340911,0.22901723,-0.95394635
13.5935,82729.0279,-8.17859,-11.63103,17.87511,-0.31093,-0.28711,-0.4948,1.86,9.6,-37.26,-25.413593,15.469134,-157.206665,0.1619873264369434,0.08563008,0.23960568,-0.95342368
13.6206,82729.0478,-6.99107,-11.39161,17.27177,0.51435,-0.84116,0.31154,1.38,10.56,-36.54,-25.616255,14.923871,-157.248627,0.16248005213952263,0.08079287,0.24046913,-0.95354462
13.6353,82729.0679,-5.00867,-8.82742,18.80406,1.51556,-0.90652,0.50091,0.72,11.28,-36.06,-24.720198,13.877426,-156.62912,0.17107128055180487,0.07252482,0.23198447,-0.95480782
13.6525,82729.0879,-3.553,-8.6287,16.64928,2.32434,-0.79962,0.5003,0.0,11.34,-36.18,-22.639116,12.959586,-156.082397,0.1802093320181282,0.06784472,0.21372341,-0.95772856
13.6748,82729.1079,-3.45004,-8.83939,14.4921,2.68903,-0.45632,0.83383,-0.36,10.62,-36.18,-19.793442,12.137561,-155.455978,0.1904606100080938,0.06544182,0.1891413,-0.96107632
13.6984,82729.1289,-2.77967,-7.4747,14.43704,3.03722,-0.45754,1.00915,-1.08,9.3,-36.54,-16.30932,11.644135,-154.340012,0.20465014495516745,0.06657118,0.15988858,-0.96339101
13.7149,82729.1489,-2.3128,-7.08684,13.14177,3.45261,-0.48686,1.15698,-1.32,7.32,-36.96,-12.571027,11.27639,-153.067078,0.21989565457853252,0.06959818,0.1286995,-0.96448869
13.7368,82729.1698,-2.84671,-6.55054,11.6047,3.78553,-1.04336,1.42393,-1.74,5.1,-36.96,-8.075181,10.665232,-151.558151,0.23764775829760276,0.07264341,0.09073231,-0.9643724
13.7554,82729.1908,-3.11964,-5.49709,12.71321,4.06775,-1.09528,1.45325,-1.92,2.64,-36.78,-3.225216,9.356529,-149.748489,0.25775000615392324,0.07138485,0.04834996,-0.96235722
13.7745,82729.2109,-2.01113,-5.05177,11.74835,4.57233,-0.58643,1.49601,-1.98,-0.36,-36.6,1.761572,8.302007,-147.893234,0.276844032704271,0.0737941,0.00528072,-0.95806259
13.7971,82729.2309,-0.50039,-4.49631,9.81862,4.89914,-0.30665,1.32191,-2.7,-3.72,-36.42,6.076569,7.785632,-146.083572,0.29403395046694414,0.08027089,-0.03080755,-0.95191991
13.8164,82729.2508,-2.14999,-4.52983,7.05332,4.81851,-1.35856,1.28221,-3.3,-7.44,-35.82,10.279998,7.341236,-144.620987,0.3074800240436991,0.08791494,-0.06580351,-0.94519675
13.85,82729.2709,-3.45723,-4.23534,5.50427,4.82156,-2.95292,1.53755,-3.78,-10.92,-35.04,14.165859,5.567686,-143.20694,0.31849627077674475,0.0846027,-0.10165551,-0.93865258
13.8654,82729.2909,-3.48356,-1.69031,3.9217,4.68961,-4.26812,1.7935,-4.62,-14.16,-34.2,17.965881,2.099515,-141.422974,0.32891885703208185,0.06864866,-0.14137347,-0.93118918
