AppTimestamp(s),SensorTimestamp(s),acc_x,acc_y,acc_z,gyro_x,gyro_y,gyro_z,mag_x,mag_y,mag_z
50.0035,82765.4305,0.03992024977238047,0.29552247888304223,0.08466906685560538,-0.00305,0.04459,-0.01466,-6.6,-36.96,-11.34
50.0163,82765.4505,0.20689967912086846,0.22094533738629216,0.1838448170236351,0.01649,0.0226,-0.01283,-6.6,-36.54,-11.22
50.0453,82765.4705,0.3468512064644071,0.1380849158501646,0.25504858391838603,0.0391,-0.01405,-0.01466,-6.6,-36.3,-11.58
50.0576,82765.4905,0.43861552077721266,0.06434134011322305,0.27644526813566905,0.04154,-0.00183,-0.04765,-6.66,-36.48,-10.8
50.0759,82765.5105,0.4813655083540954,-0.005174544142752968,0.23862517914279202,0.03971,0.06048,-0.12217,-7.02,-36.6,-10.86
50.0938,82765.5305,0.4680510206496118,-0.06541337296892366,0.1472379533166137,0.02443,0.05986,-0.17104,-6.96,-37.02,-11.16
50.1165,82765.5505,0.412365486736412,-0.11788574742286867,0.019904150644183716,0.01588,0.05498,-0.18265,-6.54,-36.84,-11.1
50.1365,82765.5705,0.3149221802896261,-0.15791238832645252,-0.11744884277763745,0.04093,0.01772,-0.16677,-6.42,-36.42,-11.58
50.1546,82765.5904,0.198925407303994,-0.1806710180280516,-0.23831306583681666,0.09102,0.03299,-0.15088,-6.12,-36.18,-11.46
50.1743,82765.6105,0.0899258667822857,-0.18498591127982345,-0.3199425831951892,0.02566,0.04398,-0.13011,-6.06,-35.88,-11.16
50.1981,82765.6305,0.0045814450166135985,-0.17354720748416066,-0.34732310010490686,-0.04093,0.02077,-0.1295,-6.24,-36.18,-10.68
50.2279,82765.6515,-0.051695439209446435,-0.15585405435891997,-0.3158837883999226,-0.0672,-0.0055,-0.12095,-6.0,-36.36,-10.38
50.2393,82765.6725,-0.0980995101413517,-0.14894829751600905,-0.2318401430022181,-0.00855,0.00061,-0.08002,-6.06,-36.6,-10.38
50.2618,82765.6935,-0.11846629470182651,-0.14665720242696764,-0.10927420965014889,0.01955,-0.00672,-0.01527,-5.64,-36.72,-10.14
50.2785,82765.7135,-0.11882507952408779,-0.14709529203567315,0.032040050531490394,-0.04581,-0.01772,0.01894,-5.76,-36.6,-10.44
50.2971,82765.7335,-0.10201563933608904,-0.14446804579263212,0.170274858918102,-0.09163,-0.00061,0.01222,-5.52,-36.84,-10.56
50.3186,82765.7535,-0.07349776496971035,-0.13828553569094476,0.28509108440651687,-0.06964,0.01588,-0.02443,-5.7,-36.84,-10.68
50.3382,82765.7734,-0.04339098333434203,-0.13330956867720264,0.3612669509242483,-0.00733,0.03604,-0.01894,-6.12,-36.9,-10.8
50.3608,82765.7935,-0.019131423478647665,-0.12715426937252347,0.3913272442933877,0.02871,0.03238,0.01344,-5.82,-37.32,-10.68
50.383,82765.8135,-0.004745077168241884,-0.1161515460697001,0.37571138602006293,0.02932,0.03726,0.00489,-6.18,-36.84,-10.8
50.399,82765.8335,0.0023753237314763248,-0.09598167606837675,0.3212488548988439,0.0281,0.04887,0.00244,-5.88,-36.72,-10.98
50.4275,82765.8535,0.014652178443382154,-0.07610993741200478,0.23890364566817013,0.04337,0.03848,-0.01894,-5.76,-36.72,-11.34
50.4411,82765.8735,0.02593467606503226,-0.054111183687426644,0.14223126577834044,0.02871,0.03421,-0.05315,-5.52,-36.3,-11.46
50.4601,82765.8935,0.05170785717795756,-0.03986583693331902,0.04553196507419699,0.01038,0.08369,-0.04032,-5.28,-36.72,-11.58
50.4784,82765.9135,0.08976943265154916,-0.03351765563899049,-0.037781426334770885,0.03665,0.05864,0.00733,-5.1,-36.96,-11.16
50.4997,82765.9335,0.14080391536788225,-0.03388224528095843,-0.09759623873273249,0.08186,0.03054,0.03604,-4.74,-36.96,-11.1
50.5377,82765.9545,0.19511263134916748,-0.039276829970773385,-0.12912143286885858,0.0452,-0.04398,0.03971,-4.86,-37.14,-10.86
50.5445,82765.9745,0.27496624386270335,-0.030563825523806085,-0.13455121959429306,-0.00855,-0.06536,0.03176,-4.98,-36.96,-10.56
50.5639,82765.9945,0.3481034443377391,-0.016674040837979208,-0.11994076360731754,-0.00122,-0.04032,0.0055,-4.98,-37.02,-10.68
50.5801,82766.0145,0.40701068512281674,0.002412551698760474,-0.09304536057657131,0.01894,0.01466,-0.00489,-4.86,-37.38,-10.74
50.5984,82766.0345,0.43689859181464097,0.022597904453905696,-0.05944010263461763,0.02321,-0.00244,0.00611,-4.98,-37.5,-10.62
50.6192,82766.0545,0.42962357866195144,0.03804998660988265,-0.022045231480108285,0.01588,-0.0336,-0.01283,-4.8,-37.68,-10.56
50.6389,82766.0745,0.38569392994765894,0.0431430163474499,0.01714073801473326,-0.00244,-0.04398,-0.03238,-5.04,-37.2,-10.68
50.6593,82766.0945,0.3132999779614847,0.03406175660636017,0.0546842150669562,-0.01833,-0.05498,-0.05925,-5.46,-36.54,-10.5
50.6839,82766.1145,0.22620183794133733,0.014763448510901955,0.08454015681430782,-0.02505,-0.05986,-0.07269,-4.92,-36.42,-10.68
50.7091,82766.1355,0.13799727553518565,-0.005025448400294123,0.09912586795704037,-0.01833,-0.06414,-0.0733,-5.16,-36.54,-10.38
50.7289,82766.1565,0.058634150248116176,-0.014607784416026299,0.09215839276272675,-0.03421,-0.0452,-0.07147,-4.8,-36.9,-10.26
50.753,82766.1765,-0.0012947978895575041,-0.00420383114044074,0.062143069429628994,-0.00244,-0.04643,-0.05498,-4.68,-37.74,-10.02
50.7706,82766.1965,-0.04010312408299632,0.02576166986763404,0.014795940176803413,0.00794,-0.05437,-0.0391,-4.98,-37.32,-10.08
50.7832,82766.2165,-0.05748216227500959,0.07047656354996197,-0.03744272273986127,0.02382,-0.09896,-0.02627,-4.68,-37.26,-10.14
50.8094,82766.2365,-0.0621975956767685,0.11345287263784909,-0.07888741848203651,0.04887,-0.08186,-0.03848,-4.98,-37.08,-10.26
50.826,82766.2565,-0.05839437880569318,0.14525427613562636,-0.09588447949851009,-0.00305,-0.06048,-0.03665,-4.68,-36.84,-10.32
50.8494,82766.2765,-0.0565339356878491,0.15217772433277735,-0.0814020742821775,-0.09163,-0.02566,-0.01527,-4.98,-37.08,-10.38
50.8646,82766.2965,-0.06262236517859478,0.11657636080370189,-0.03696669453067436,-0.06414,-0.04093,-0.02382,-4.86,-37.08,-10.32
50.8864,82766.3165,-0.0769005535985787,0.047820323400511906,0.027778805772479487,-0.00244,-0.04643,-0.02993,-4.74,-37.5,-10.2
50.9035,82766.3375,-0.09390306060643594,-0.042153454989276265,0.09865828232732099,-0.02688,-0.04215,-0.01772,-5.04,-37.26,-10.32
50.9247,82766.3575,-0.1053632517563604,-0.125928646440713,0.1608018834022733,-0.0507,-0.04765,-0.03421,-4.92,-37.44,-10.2
50.9659,82766.3773,-0.10279506079401271,-0.17389339436392243,0.20215850930534174,-0.04154,-0.04765,-0.04765,-5.94,-37.56,-10.38
50.9681,82766.3975,-0.0816459996463027,-0.19591918333356953,0.21504796519400493,-0.02566,-0.02932,-0.01955,-5.82,-36.9,-10.2
50.9845,82766.4175,-0.04012939822954073,-0.17007605679480606,0.19907208839757118,0.00367,0.00183,0.02321,-6.18,-36.78,-10.38
51.0026,82766.4375,0.016624314494581682,-0.10898538479951424,0.16022588343389899,0.01405,0.01222,0.02138,-6.48,-36.6,-10.56
51.025,82766.4575,0.07677040844123416,-0.029909293253493258,0.10965721872502598,0.05192,0.00367,0.0055,-5.94,-35.94,-10.44
51.0447,82766.4775,0.12850618059295507,0.05034058075697468,0.06008953130408301,0.04093,-0.03482,0.00305,-6.6,-36.0,-10.62
51.0667,82766.4975,0.1611792626048133,0.11118638280739583,0.02186271381382454,-0.00305,-0.04459,0.03543,-6.54,-36.36,-10.5
51.0809,82766.5174,0.17339571436862763,0.13885379735877437,0.0003905122507426029,-0.01344,-0.02138,0.01466,-6.36,-36.12,-10.26
51.1004,82766.5375,0.16331402221295951,0.12969687653607825,-0.00401067371264574,-0.00733,0.00489,-0.04276,-6.78,-36.42,-10.38
51.1204,82766.5574,0.13367443813952706,0.08955686311383038,0.005149145603036587,-0.0055,0.00183,-0.04337,-6.24,-36.6,-10.38
51.1412,82766.5774,0.08944406384855348,0.030981030807681952,0.02230014919442702,-0.02749,-0.02443,-0.01038,-6.48,-36.36,-9.9
51.1606,82766.5975,0.0409178254596521,-0.03183889296498108,0.041258140569379265,-0.01405,-0.05376,0.00611,-6.36,-36.24,-9.96
51.1803,82766.6174,0.0013563021647778823,-0.08414339720629753,0.05662812436970022,0.02016,-0.05498,0.02688,-6.0,-35.94,-10.32
51.2023,82766.6374,-0.01914098378045728,-0.11272457487145014,0.06510427478649383,0.02688,-0.02443,0.03787,-5.88,-35.64,-10.44
51.2217,82766.6575,-0.015079746969960537,-0.10759083181056553,0.06608165343355843,0.00733,0.0055,0.00916,-5.94,-35.64,-10.8
51.2481,82766.6774,0.008846142388532215,-0.06832997929086794,0.061180117806273415,-0.01772,0.01649,-0.00428,-6.06,-36.0,-10.44
51.2668,82766.6974,0.04324503816353936,-0.008077047212192105,0.053179163803214635,-0.02688,0.00733,0.01894,-6.3,-36.48,-10.44
51.2835,82766.7174,0.07909691227835737,0.05785107219801592,0.04489311914824334,0.01649,-0.0055,0.02627,-6.42,-36.36,-10.32
51.3091,82766.7374,0.10295174103514358,0.11051131022250893,0.038066351208129845,0.04887,0.00305,0.02505,-6.18,-36.12,-10.26
51.3248,82766.7574,0.11381729881979433,0.14626067617906938,0.03246584470824665,0.04643,-0.011,0.04948,-6.42,-36.42,-10.74
51.3441,82766.7774,0.1013696576163945,0.15485404724696664,0.026872353485686062,0.01038,-0.04154,0.02505,-6.36,-36.18,-10.56
51.3614,82766.7974,0.06799504595286819,0.1366733059022697,0.020380074739902554,-0.03421,-0.01833,-0.03421,-6.12,-36.6,-10.56
51.389,82766.8174,0.02459174717812154,0.10028001271003636,0.014156311521784204,-0.04643,0.00672,-0.05742,-6.36,-36.96,-10.86
51.4083,82766.8374,-0.02230482081739954,0.04896956314736825,0.012013870559268724,-0.01344,0.01344,-0.02627,-6.06,-36.54,-11.04
51.4234,82766.8575,-0.05311665027226413,-0.0002122131540831688,0.018814206042172543,-0.00428,0.00733,0.02566,-5.76,-36.66,-10.86
51.4414,82766.8774,-0.05363638759232632,-0.03414465237622024,0.038361667091015406,0.01038,0.00428,0.04765,-6.24,-36.66,-10.44
51.4624,82766.8974,-0.02222390444005973,-0.046516400094773105,0.07054487921660701,0.01955,-0.02199,0.09957,-5.52,-36.54,-10.44
51.4829,82766.9175,0.036380228060339324,-0.03829290613405027,0.10962679444149614,0.01588,-0.05559,0.11851,-5.22,-36.84,-10.02
51.5029,82766.9374,0.10564143463815452,-0.016553402358597515,0.14499045157126744,0.00672,-0.06964,0.10751,-5.46,-36.6,-10.26
51.5248,82766.9574,0.16266971332996338,0.011385101207409999,0.1648887538186461,0.0226,-0.03604,0.06109,-4.98,-36.42,-10.62
51.547,82766.9775,0.19318345003258125,0.04388941834317116,0.16118810324162602,0.07086,-0.0672,0.04093,-5.28,-36.54,-10.8
51.5745,82766.9974,0.1893656961121513,0.08079420873352575,0.13285023298296217,0.04459,-0.02443,0.0171,-5.4,-36.3,-11.04
51.5893,82767.0174,0.15794310148065924,0.1235321444016609,0.08625769026785335,-0.01772,0.04337,0.03115,-5.28,-36.72,-10.98
51.6111,82767.0384,0.10777378013207715,0.16016262763249292,0.03325451048134909,-0.01894,0.01527,-0.01405,-5.22,-36.72,-10.44
51.623,82767.0585,0.04797386619870897,0.17658872728177044,-0.012720229804862981,-0.01466,-0.00367,-0.0452,-4.98,-36.72,-10.14
51.6496,82767.0782,-0.004860649767110435,0.168383572692698,-0.040661812726936475,-0.00855,-0.00367,-0.01955,-4.98,-36.48,-10.14
51.6656,82767.0984,-0.04253180358944443,0.13040314907776548,-0.044320335009432554,-0.01283,-0.00122,0.01649,-4.98,-36.24,-10.32
51.6842,82767.1194,-0.0569562198876542,0.07258174672308362,-0.023633495259677062,-0.08674,-0.01833,-0.00061,-5.46,-36.54,-10.86
51.706,82767.1394,-0.0461591946601704,0.013463425918937039,0.015721784143021722,-0.09652,0.02138,-0.0562,-5.76,-36.42,-10.98
51.724,82767.1595,-0.018892551863184136,-0.035479696281663226,0.06358012262121981,-0.13439,0.00611,-0.06292,-6.36,-36.78,-10.62
51.7456,82767.1794,0.0187408977817184,-0.049834124040387465,0.10752807053569846,-0.17837,0.03787,0.00733,-6.66,-36.9,-10.5
51.7722,82767.1994,0.05701363746898712,-0.02869698339253871,0.13619820312382913,-0.16371,0.01344,0.01588,-6.3,-36.72,-10.32
51.7878,82767.2204,0.08882053786339658,0.00703823833260804,0.14337317888852574,-0.01405,0.02505,0.00794,-6.06,-36.84,-10.26
51.8124,82767.2405,0.11003271711897844,0.05387235510743473,0.13081566041403114,0.10996,0.00305,0.01772,-5.7,-36.84,-10.56
51.8273,82767.2604,0.1256877391923649,0.1103533903981095,0.10680723687961446,0.09285,-0.03604,0.0281,-5.58,-36.78,-10.14
51.8531,82767.2804,0.13345231994638196,0.14930771624224742,0.08217698540143914,-0.00672,-0.02871,0.02199,-5.7,-36.36,-10.5
51.8675,82767.3005,0.14355601230887066,0.16592944410177288,0.0642902477762437,-0.00428,-0.0336,-0.00916,-5.94,-36.0,-10.5
51.8911,82767.3204,0.15381835505186375,0.15692011812370982,0.05332974793557632,0.01344,-0.07147,-0.04459,-5.88,-36.12,-10.38
51.9086,82767.3404,0.16552569056806796,0.1382977635345893,0.040411809096440265,0.01283,-0.08491,-0.03665,-5.88,-35.94,-10.56
51.9295,82767.3605,0.1728403569842816,0.13645029364841002,0.009985330698659922,0.04215,-0.05559,-0.00672,-5.46,-36.54,-10.26
51.9494,82767.3804,0.16762317177654487,0.1765889575894431,-0.054953708241198385,0.03176,-0.011,-0.01038,-5.04,-37.08,-9.84
51.9664,82767.4004,0.138793474721899,0.27111636301020364,-0.16628858033548433,0.03299,0.04887,0.00244,-5.22,-36.9,-10.02
51.9876,82767.4225,0.08129443863796836,0.41448188624873367,-0.32492086495970085,0.00916,-0.04887,-0.01955,-5.04,-37.02,-9.9
52.0095,82767.4424,0.004168916258681144,0.5905028453576648,-0.5169712413216025,-0.04337,-0.14478,-0.06658,-5.22,-36.9,-9.72
52.0284,82767.4624,-0.06888816098094268,0.7594221135827326,-0.7113002836854516,-0.08063,-0.21747,-0.06781,-5.64,-36.6,-9.96
52.0478,82767.4825,-0.11388061095395968,0.8726139462253342,-0.8619952157132396,-0.06231,-0.28161,-0.04765,-5.52,-36.42,-9.54
52.0671,82767.5024,-0.11678756926970695,0.8813238017832663,-0.9177577711680325,0.02871,-0.33292,0.00489,-6.0,-36.66,-9.84
52.0924,82767.5224,-0.09712495064871314,0.756609166308872,-0.8392238301697503,0.15394,-0.33537,0.14416,-6.42,-36.54,-9.78
52.1093,82767.5425,-0.02099968144000565,0.5329868114226087,-0.6173811601984589,0.13867,-0.3708,0.28222,-6.42,-36.36,-10.08
52.1282,82767.5624,0.061834356421813064,0.2510432216538701,-0.2778774923635261,-0.20036,-0.32498,0.27245,-6.42,-36.36,-10.32
52.1465,82767.5824,0.13861866838927028,-0.039114351048087755,0.11922723166775206,-0.63286,-0.21991,0.13011,-6.24,-36.42,-10.08
52.168,82767.6025,0.17818236931863615,-0.2798930488221246,0.49197159795027545,-0.59193,-0.15944,-0.05009,-5.88,-36.6,-10.26
52.1862,82767.6224,0.16613188201877688,-0.4797655086335033,0.759415018561409,-0.32193,-0.24068,-0.05559,-6.0,-36.78,-9.96
52.2109,82767.6424,0.09810534976286309,-0.5781538786194849,0.8742527664234121,-0.08674,-0.25412,0.04276,-6.12,-37.08,-10.14
52.2268,82767.6625,0.036740745766802994,-0.5612311051735666,0.836525235958133,-0.00244,-0.13439,0.135,-6.42,-36.84,-10.56
52.247,82767.6835,-0.001585498408079413,-0.42452225004948246,0.6893914931885767,-0.10201,-0.0171,0.04093,-7.14,-36.72,-10.38
52.2681,82767.7034,-0.0044803917212543985,-0.2250210418165583,0.493191795638797,-0.23274,0.06353,-0.0733,-7.32,-36.42,-10.62
52.2928,82767.7234,0.005507382057750713,-0.04244075905555209,0.30577219149481927,-0.20097,0.05315,-0.09774,-7.14,-36.42,-10.86
52.3093,82767.7435,-0.0038588261784585427,0.050847109396530706,0.168604820691046,-0.04093,-0.02443,0.0,-7.14,-36.3,-10.74
52.3284,82767.7634,-0.026717788329396436,0.06395235448648093,0.0977933830675628,0.12401,-0.10996,0.07208,-6.78,-36.36,-11.22
52.3479,82767.7834,-0.04294185386226013,0.03708877840036002,0.08469362059812902,0.06658,-0.09529,0.00855,-6.78,-36.66,-11.16
52.3721,82767.8035,-0.03245693046390593,0.02267714624541506,0.10556731648273043,-0.18815,0.02749,-0.04093,-6.78,-36.24,-10.86
52.3935,82767.8234,-0.0043094558034818715,0.026843162344500807,0.1321781014898029,-0.281,0.13073,-0.07636,-6.72,-35.94,-11.22
52.4148,82767.8434,0.01824506276944152,0.036009353292603415,0.14208446969124822,-0.16982,0.13561,-0.04032,-6.66,-35.76,-11.4
52.4304,82767.8634,0.021711811003350484,0.036647869216651516,0.126885473133294,0.05498,-0.02871,0.05253,-7.02,-35.7,-11.58
52.461,82767.8835,-7.861235903758123e-05,0.011715688983522097,0.09387087716475229,0.25779,-0.08491,0.10873,-7.26,-36.42,-12.06
52.4687,82767.9034,0.002849375459270202,0.030439207368449985,0.06000110564519545,0.11057,0.00916,0.04643,-6.96,-36.9,-12.12
52.4918,82767.9234,0.01790351316249354,0.05745555886569414,0.04231720672754946,-0.13622,0.10201,-0.05131,-7.14,-37.08,-11.64
52.5173,82767.9444,0.04153740957696471,0.08504424702801906,0.04901501993577817,-0.28833,0.09774,-0.09346,-6.54,-36.96,-12.18
52.5327,82767.9645,0.041900153256846616,0.06013702938763543,0.077112549296384,-0.13439,0.03115,-0.02321,-6.48,-36.18,-11.76
52.5488,82767.9844,0.03292796094794359,0.010433852637543158,0.11419601529346224,0.13561,-0.0171,0.06903,-6.72,-36.06,-11.88
52.5701,82768.0044,0.02031918279700397,-0.0433377483226696,0.14657242889158972,0.28466,-0.04704,0.09835,-6.72,-36.18,-12.18
52.5898,82768.0245,0.029501265031949078,-0.047599325985443225,0.1652308626267125,0.12767,0.00611,0.08002,-6.84,-35.88,-11.64
52.6096,82768.0444,0.06012199404251323,0.004747636545377191,0.1661141626197118,-0.09591,0.14966,0.01161,-6.72,-36.12,-12.18
52.6307,82768.0644,0.09414344450972993,0.08449036845863388,0.14828046178287835,-0.19975,0.22235,-0.08674,-6.84,-36.18,-11.82
52.6578,82768.0854,0.1104104800387184,0.1472548392763348,0.11436013784812538,-0.06048,0.15394,-0.07453,-6.84,-36.06,-11.76
52.6737,82768.1055,0.08482423359666272,0.17815716310573965,0.07016837248706587,0.17898,-0.00367,0.02443,-6.66,-36.54,-11.76
52.6932,82768.1254,0.04460227337143067,0.18742636985896907,0.02245944126474342,0.2865,-0.10079,0.04276,-6.66,-36.48,-11.58
52.7101,82768.1454,0.017687632997072437,0.20984092985254166,-0.022181391485757374,0.15455,-0.06842,0.00733,-6.36,-36.48,-11.7
52.7305,82768.1654,0.012679400759684736,0.24021306987038238,-0.058354999857344936,-0.03726,0.03176,-0.02505,-5.76,-36.36,-12.0
52.7506,82768.1854,0.021289994535317634,0.2602248272969196,-0.08374680482744523,-0.06842,0.09713,-0.04032,-5.94,-36.24,-12.06
52.7714,82768.2054,0.025022137006029163,0.2466024304588729,-0.09844530810167917,0.03176,0.0898,-0.02321,-6.06,-36.18,-12.0
52.7928,82768.2254,0.014408384406683091,0.20007799019715386,-0.10412970175618419,0.14905,0.01038,0.011,-6.0,-36.3,-11.82
52.8138,82768.2464,-0.0021709507583043863,0.147108913384611,-0.10280651171871291,0.13622,-0.05315,0.03115,-6.42,-36.66,-11.52
52.8356,82768.2684,-0.010384195599996064,0.11255636001853137,-0.09565954699090184,-0.02138,-0.02138,0.01038,-6.12,-36.78,-11.46
52.8606,82768.2884,-0.003486462978077465,0.10532085559634646,-0.08335306108948437,-0.08735,0.07147,-0.02016,-6.0,-37.14,-11.16
52.8917,82768.3085,0.012754945712103718,0.11578887900177219,-0.06576480012680896,-0.02077,0.06353,-0.00489,-5.82,-37.26,-11.1
52.9144,82768.3295,0.028173941076949933,0.12827483264832173,-0.04071379757658811,0.05009,0.02932,0.04765,-5.52,-37.08,-11.16
52.9166,82768.3493,0.06118952145505373,0.15445429527238727,-0.0043641960807043745,0.07758,-0.01405,0.07697,-5.52,-37.2,-11.58
52.9335,82768.3694,0.10706131295623274,0.16560224816184263,0.0473581853962628,0.03543,0.02505,0.04459,-5.52,-37.32,-11.88
52.9533,82768.3894,0.17703138236473034,0.1569652407775682,0.11381013091595982,-0.03299,0.07697,0.00367,-5.7,-36.6,-12.18
52.973,82768.4095,0.2604943556862476,0.11339085523998055,0.187293055052681,-0.05742,0.06658,-0.02016,-6.0,-36.12,-12.18
52.9984,82768.4294,0.33765414848710235,0.031284192312783315,0.2523502019071433,0.00367,0.01527,-0.00122,-6.36,-36.12,-12.18
53.0137,82768.4494,0.39410251134112073,-0.06818167107676985,0.2885891751576679,0.0617,-0.05131,0.01833,-6.24,-36.12,-11.82
53.0361,82768.4695,0.4197942371093734,-0.1556660308542363,0.2778250843458139,0.11301,-0.04826,0.0281,-6.3,-36.9,-12.66
53.0536,82768.4894,0.41641722733450837,-0.18326500348950242,0.2126694330132377,0.12706,0.06658,-0.00733,-6.6,-37.08,-12.72
53.0736,82768.5094,0.3779887916713937,-0.1415736018071625,0.10235429855138634,0.0898,0.18387,-0.05864,-6.54,-36.84,-12.0
53.0937,82768.5304,0.2930250010300645,-0.03542406795327781,-0.0278015360342323,0.13011,0.15577,-0.08919,-6.9,-36.66,-12.12
53.1161,82768.5504,0.1634381674928218,0.10861572642072354,-0.14492637636821115,0.21441,0.03421,-0.0617,-6.66,-36.72,-11.1
53.1379,82768.5704,0.006098810454633829,0.2719113908664224,-0.22034483390724624,0.28283,-0.05192,-0.011,-6.6,-36.84,-11.22
53.1558,82768.5904,-0.14361972283929147,0.44089399074938834,-0.23999924228611924,0.23579,-0.08369,0.02749,-6.72,-36.78,-11.76
53.1819,82768.6105,-0.2669641621524663,0.5703332561180914,-0.2060207815534678,0.16005,-0.05009,0.01222,-6.84,-36.48,-11.52
53.1971,82768.6302,-0.34766619739109694,0.6747966119481775,-0.13780568262551718,0.14539,-0.00489,-0.02566,-7.5,-36.18,-10.98
53.2242,82768.6504,-0.39782158634034126,0.712204312658604,-0.05863983210308277,0.13317,-0.05131,-0.02627,-7.56,-36.24,-10.26
53.2382,82768.6705,-0.4224779846875943,0.7161177015485758,0.005862962319930887,0.15027,-0.08674,0.00244,-7.44,-36.12,-9.72
53.2568,82768.6904,-0.4314780262365508,0.6742267897105055,0.0423769955880271,0.18815,-0.06658,0.02871,-7.02,-36.72,-9.78
53.2771,82768.7104,-0.4224477185490869,0.6076199961121006,0.04766248110639104,0.18082,-0.02688,0.01955,-6.54,-36.9,-10.08
53.2972,82768.7305,-0.39247683944429373,0.5366394459252581,0.029524657578685165,0.12156,0.08125,0.01161,-6.36,-37.08,-10.14
53.3166,82768.7514,-0.3467810533514909,0.47066898725630035,0.002760618698582462,0.05498,0.15394,-0.00489,-6.24,-36.96,-9.96
53.3464,82768.7714,-0.2830338764158855,0.41215752328505256,-0.01648873866756695,-0.05131,0.22969,-0.00428,-6.24,-36.96,-9.96
53.3588,82768.7914,-0.24516147896704565,0.34378510464543144,-0.0172276410570138,-0.09591,0.25534,0.03543,-5.76,-36.66,-9.54
53.3753,82768.8114,-0.2140879252510308,0.2746785858742832,0.0046461110299436115,-0.01649,0.15944,0.0843,-5.76,-36.66,-9.66
53.3993,82768.8315,-0.1936314175264299,0.21001991962186753,0.04500489428580323,0.0336,0.10751,0.11668,-6.12,-37.08,-9.84
53.4162,82768.8514,-0.172347267557172,0.16352489981124907,0.09461756735156968,0.02138,0.1124,0.1405,-6.24,-36.6,-9.6
53.4367,82768.8714,-0.14800109815178025,0.14354268022860248,0.14241411760148814,-0.01283,0.15882,0.13317,-6.66,-36.6,-10.2
53.4574,82768.8915,-0.11808298720519349,0.15007240818657794,0.17870298614930213,-0.03054,0.17654,0.13378,-6.84,-36.42,-10.2
53.478,82768.9125,-0.08600754105002809,0.1768723468365267,0.1971556637205385,0.02138,0.18265,0.15882,-6.48,-36.48,-10.44
53.5,82768.9324,-0.05562695978436411,0.21866395572702366,0.19577106479181516,0.05803,0.12217,0.15638,-6.42,-36.42,-11.1
53.5332,82768.9524,-0.03628174211037519,0.267747587690482,0.17671204691491837,0.05376,0.1124,0.1686,-6.48,-36.6,-10.8
53.5381,82768.9734,0.005647446579645384,0.3362590721512751,0.14474390861489717,0.04581,0.12706,0.17287,-6.18,-36.72,-10.68
53.5628,82768.9932,0.03023062711652555,0.3905030674003124,0.10766188666722165,0.04337,0.15882,0.16799,-6.3,-36.84,-10.62
53.5804,82769.0133,0.05203765822623103,0.42709330102158855,0.07323116617092751,0.06353,0.17532,0.14172,-6.36,-37.02,-10.38
53.5993,82769.0345,0.062397823681491056,0.43170599731881104,0.04864941105463849,0.06414,0.15272,0.09835,-6.6,-37.02,-10.38
53.6189,82769.0544,0.05889273513949369,0.4026813551215394,0.03766978177904079,0.03726,0.14661,0.07086,-6.96,-37.14,-10.02
53.6431,82769.0744,0.04413832030484449,0.3474645485457516,0.03909116454607897,0.02627,0.10812,0.08613,-7.02,-36.84,-9.6
53.6626,82769.0945,0.03110469718311309,0.28352714764843007,0.04668928202439382,-0.00428,0.11484,0.11668,-7.08,-37.32,-9.66
53.6798,82769.1144,0.031256355134396056,0.22933196397959205,0.05170466556350917,0.00489,0.15882,0.09713,-7.02,-37.02,-9.3
53.6991,82769.1344,0.0509554256771656,0.20163073682390126,0.046317122269998734,0.01405,0.19242,0.04276,-7.08,-36.6,-9.48
53.7195,82769.1544,0.08587280251448756,0.20613692131842865,0.02694736775432993,0.02138,0.21136,0.04826,-7.5,-36.3,-9.72
53.7479,82769.1755,0.12741008017527605,0.23205526934906365,-0.0045252984586579,0.05864,0.15211,0.09407,-7.14,-36.06,-9.18
53.7616,82769.1954,0.17475215293009633,0.28289576878871564,-0.042918369263224676,0.09957,0.0843,0.11973,-7.26,-36.48,-9.48
53.7808,82769.2154,0.22722625082172138,0.33002151625030923,-0.08119695049763642,0.10629,0.05437,0.09652,-7.32,-37.02,-9.6
53.8013,82769.2364,0.2878528745207552,0.36759890853511124,-0.11397329284623581,0.06048,0.10934,0.03054,-7.44,-37.62,-9.42
53.8296,82769.2565,0.3540177999783084,0.3902576539274551,-0.13759968419648594,-0.05681,0.13073,-0.00489,-8.1,-37.5,-9.9
53.8463,82769.2764,0.3998085461247955,0.38507206967052454,-0.1489283010787279,-0.07147,0.1069,-0.01038,-8.16,-37.56,-9.66
53.8667,82769.2975,0.4251196836687409,0.36289799914466164,-0.14837675557371988,0.00183,0.06842,0.01466,-8.16,-37.56,-9.18
53.8863,82769.3174,0.4290981429684954,0.3376464196610624,-0.13809542000738873,0.00489,0.00305,0.03726,-7.62,-37.14,-9.18
53.908,82769.3374,0.4213428045640831,0.3287348171763231,-0.12124628119184422,-0.03238,-0.00855,0.01894,-7.26,-37.02,-9.12
53.9261,82769.3575,0.4122369825845894,0.3435344470695989,-0.09941060375023447,-0.04459,0.07086,-0.02199,-7.32,-36.96,-9.0
53.9517,82769.3774,0.41321381009214314,0.38166990551936153,-0.07225652443249686,-0.0788,0.11118,-0.03238,-7.14,-36.84,-9.66
53.9672,82769.3984,0.4125391549327319,0.4090144429291767,-0.03667601153293454,-0.12034,0.07514,-0.04581,-7.2,-36.96,-9.84
53.9855,82769.4205,0.4200697514533611,0.4199291383417206,0.006382655381672819,-0.07819,0.05925,-0.04581,-7.26,-37.14,-9.9
54.0061,82769.4404,0.4305712592590117,0.4057852819097989,0.05204431969733747,-0.08125,0.02871,-0.03787,-7.14,-36.9,-10.2
54.0249,82769.4604,0.43361799152111596,0.36719109511392717,0.09011666090417947,-0.09896,-0.03726,-0.04337,-7.32,-37.02,-9.84
54.0462,82769.4805,0.41639448975592264,0.32144484266956014,0.1073767799569616,-0.11606,-0.07453,-0.0617,-7.2,-37.5,-9.54
54.0672,82769.5004,0.363611311589263,0.2835570728505866,0.09370841460631674,-0.09224,-0.0452,-0.08002,-7.14,-37.5,-9.0
54.0839,82769.5204,0.26432539132884814,0.26687856459629444,0.047527300350989066,-0.05986,-0.05192,-0.11057,-7.14,-37.62,-8.82
54.104,82769.5404,0.12526860421398334,0.2863459618524585,-0.02133030646443146,-0.11057,-0.03482,-0.12095,-6.9,-37.38,-9.36
54.1252,82769.5605,-0.03995593826993177,0.3356589507779613,-0.09166020499053218,-0.15211,0.02688,-0.11668,-7.2,-37.32,-9.42
54.1467,82769.5804,-0.21296140536327496,0.39470102448844974,-0.13663264142312137,-0.17959,0.12095,-0.13928,-7.08,-36.96,-9.6
54.1667,82769.6004,-0.37764708685751114,0.42905228963450265,-0.13172826509519275,-0.22113,0.2193,-0.12767,-6.96,-37.08,-9.9
54.1876,82769.6205,-0.5089525923039029,0.4109184564079299,-0.06288297896170825,-0.28772,0.22969,-0.09346,-6.96,-37.2,-9.6
54.2062,82769.6404,-0.5917726668703803,0.3084625179506822,0.06782452719083132,-0.3091,0.26206,-0.08369,-6.54,-36.78,-10.2
54.2251,82769.6604,-0.6046002600599462,0.13147823041747989,0.23903468833391806,-0.2474,0.31215,-0.09591,-6.72,-36.96,-10.38
54.2444,82769.6805,-0.5449627595993649,-0.08309628666787956,0.4128274252069346,-0.18204,0.35858,-0.146,-6.66,-36.78,-10.68
54.2642,82769.7004,-0.42413648096741874,-0.27303167284186164,0.543715197067824,-0.16371,0.2529,-0.135,-6.42,-36.9,-11.04
54.2842,82769.7204,-0.2549857955365415,-0.3754478255185014,0.5913407098807095,-0.18754,0.01344,-0.01833,-6.72,-36.9,-11.1
54.3154,82769.7405,-0.04857786469869537,-0.34145646184209966,0.5333612614003602,-0.09163,-0.09652,0.06353,-6.54,-37.02,-11.22
54.3368,82769.7604,0.18672492624017498,-0.16065713590501535,0.3754199896546808,0.14233,0.03482,0.1124,-5.94,-36.78,-11.82
54.356,82769.7804,0.41041553938108827,0.16478643618153033,0.15307938483294414,0.26145,0.1124,0.24129,-6.12,-36.66,-11.76
54.3785,82769.8005,0.5591164256073534,0.5711619915527408,-0.08155002475983153,0.17165,-0.07086,0.31704,-6.06,-36.48,-11.88
54.3942,82769.8215,0.6222935725748647,0.9798871556085467,-0.2846400760489711,0.05742,-0.16554,0.30665,-6.12,-36.6,-12.3
54.4157,82769.8414,0.5539370911260229,1.2728639855406667,-0.42497822903508364,0.03665,-0.15821,0.16921,-6.54,-36.6,-11.94
54.4313,82769.8614,0.3829588988632061,1.3844417284007418,-0.4943987649930772,-0.00794,-0.08491,-0.0336,-6.66,-36.6,-11.7
54.4609,82769.8815,0.1326789248404222,1.309820043820506,-0.4978807768322291,-0.10873,-0.04581,-0.14722,-6.66,-36.96,-11.16
54.4721,82769.9014,-0.1854006199971113,1.0452308790473794,-0.44137053456007713,-0.19242,-0.00672,-0.16371,-6.78,-36.9,-10.62
54.4908,82769.9214,-0.4890825685851416,0.6923894845355142,-0.34442744941262404,-0.29993,0.02138,-0.19548,-6.84,-37.02,-10.44
54.5078,82769.9424,-0.7434546651952284,0.30053242082401416,-0.21857955981603006,-0.31093,0.02382,-0.18265,-6.54,-36.9,-10.56
54.5297,82769.9634,-0.9051191245311129,-0.04933285056577938,-0.07636683765654695,-0.2022,-0.04093,-0.19792,-6.42,-36.84,-11.16
54.5495,82769.9834,-0.9642933574628332,-0.3222592573580625,0.07249183265852466,-0.10812,-0.09285,-0.14233,-6.12,-36.3,-11.64
54.567,82770.0035,-0.9130418977953061,-0.4817629990838124,0.2222056760773743,-0.1014,-0.08674,-0.011,-6.3,-36.3,-11.64
54.5872,82770.0234,-0.7602126093599346,-0.5136011922300577,0.36750328351564043,-0.09224,0.00122,0.11545,-6.0,-36.48,-12.12
54.6091,82770.0434,-0.5281144140516233,-0.43468627838597446,0.49854849461755,-0.08002,0.02993,0.17959,-6.12,-36.42,-11.88
54.6276,82770.0635,-0.23965197640465782,-0.2794961093022652,0.6010274152474793,-0.01038,-0.0391,0.23274,-6.12,-36.96,-12.18
54.6521,82770.0834,0.04913121695353078,-0.08518116590573406,0.6591792833925023,0.05253,-0.03054,0.27733,-6.0,-37.2,-12.42
54.6784,82770.1034,0.3097779353821584,0.11355080334533747,0.6627684064359673,0.10446,0.01649,0.28955,-6.3,-37.26,-12.48
54.6976,82770.1235,0.5306005415291492,0.30605884962019214,0.6072914004532706,0.17104,0.0281,0.2645,-6.66,-37.2,-12.66
54.7233,82770.1434,0.661998366623644,0.45139847642151526,0.49934733653947916,0.17776,-0.00977,0.20403,-6.6,-37.2,-12.36
54.7347,82770.1634,0.7199401199327541,0.5713513198838389,0.34903337002463175,0.17715,0.00489,0.09652,-6.96,-37.08,-12.72
54.7489,82770.1835,0.6872700792651539,0.628027133583654,0.17774758114202704,0.12645,-0.03176,-0.011,-7.44,-36.36,-12.18
54.7698,82770.2034,0.5880972773121894,0.6210723767175977,0.0063676373296495115,0.11606,-0.01283,-0.07453,-7.44,-36.24,-12.24
54.7886,82770.2234,0.4468950595750339,0.5743238331039725,-0.14610029971315797,0.09713,0.01405,-0.0898,-7.2,-35.94,-12.54
54.8079,82770.2435,0.29423075472567817,0.5036323185232404,-0.26391563830368625,0.08063,0.01527,-0.10751,-7.26,-35.7,-11.94
54.8283,82770.2634,0.15413925751039584,0.4284154295118781,-0.33697625128700714,0.05437,-0.0055,-0.12401,-6.96,-35.88,-12.06
54.8612,82770.2845,0.04713022644377256,0.3607353582506252,-0.36181121047095033,0.01222,-0.05559,-0.13073,-6.42,-35.7,-12.24
54.8699,82770.3044,-0.04343159846410857,0.31857963844769793,-0.3425379418275085,0.01466,-0.06353,-0.08858,-6.72,-36.0,-11.76
54.8907,82770.3254,-0.10375232175056866,0.29655901844130544,-0.28927762086315845,0.04643,-0.07269,-0.03665,-6.42,-36.36,-11.82
54.9435,82770.3454,-0.14350715892751342,0.292993329613102,-0.21651358125036246,0.03054,-0.03665,-0.01405,-6.72,-36.48,-12.18
54.9455,82770.3655,-0.16492071891777732,0.3177964960990634,-0.13999712299767886,-0.01161,-0.05131,-0.03054,-7.44,-36.96,-11.88
54.9575,82770.3854,-0.17783447725497648,0.3548461310264056,-0.072220676067559,-0.02993,-0.01038,-0.05803,-7.74,-36.72,-11.88
54.9731,82770.4054,-0.18927449528907636,0.39434404528269945,-0.02036625489929733,-0.02382,0.0055,-0.04032,-7.86,-36.48,-11.88
54.9931,82770.4264,-0.20297668978071298,0.42604006440184106,0.015000974832320324,0.00977,-0.03971,-0.01466,-7.74,-36.6,-11.4
55.0122,82770.4465,-0.21646879495724503,0.4422113121944373,0.03866146539482784,0.00122,-0.06597,-0.00672,-7.44,-36.48,-10.92
55.0482,82770.4664,-0.22537994746696996,0.4389622000449917,0.057574191327493196,-0.01833,-0.04459,-0.02627,-7.38,-36.72,-10.68
55.0643,82770.4863,-0.2288383115456753,0.4171220083687693,0.07706326852336964,0.00367,-0.00672,-0.04887,-7.38,-36.72,-10.86
55.0704,82770.5065,-0.22992090941914836,0.37930256137154894,0.09810096727713713,-0.00367,-0.00916,-0.02688,-7.38,-36.78,-11.1
55.0906,82770.5264,-0.22774291592727292,0.3399223668885017,0.11646316282752522,-0.03238,-0.0391,0.00061,-7.08,-36.66,-11.34
55.1117,82770.5464,-0.22007722376001787,0.3089915873989018,0.12556281696912208,-0.03299,-0.05803,-0.04032,-7.32,-36.36,-11.58
55.13,82770.5664,-0.20604878915415675,0.2964074197182016,0.12045102454703738,0.01038,-0.00916,-0.06414,-7.32,-36.36,-11.76
55.1504,82770.5864,-0.18783049310158603,0.3066343539445295,0.10182136906714412,0.0391,0.02382,-0.02749,-7.2,-35.94,-11.76
55.1726,82770.6064,-0.1717794327964756,0.33482051830010146,0.0768662865169869,0.03787,0.02199,0.04704,-7.68,-35.94,-12.0
55.1943,82770.6264,-0.1590430296638695,0.3711088064499777,0.056260887185118236,0.04215,-0.03848,0.07575,-7.08,-36.12,-12.24
55.2126,82770.6465,-0.14459445360975473,0.4023371191490363,0.04918250192861251,0.05498,-0.04765,0.03176,-7.62,-35.82,-11.88
55.2416,82770.6664,-0.13106151428047055,0.4137662011714088,0.05922897924484971,0.00305,-0.03604,-0.02199,-7.8,-36.06,-11.64
55.2513,82770.6864,-0.11846039769147416,0.39597816265538865,0.08309310406282222,-0.05253,0.02993,-0.0055,-7.68,-36.06,-11.22
55.271,82770.7064,-0.10953522325590076,0.3545828022081632,0.11124366247874384,0.00244,0.03482,0.01955,-8.1,-36.3,-11.04
55.2922,82770.7264,-0.10619486060257663,0.3009948130362886,0.13120273342253874,0.05376,-0.01405,0.03665,-7.44,-36.3,-11.58
55.3112,82770.7464,-0.10448202861120688,0.2570463093117015,0.13105917370713271,0.04337,-0.04276,0.02077,-7.02,-36.3,-12.12
55.3316,82770.7665,-0.10232229731884099,0.23972236156983617,0.10323819474246854,0.03482,-0.04459,0.03299,-6.9,-36.54,-12.36
55.3568,82770.7864,-0.10022931916022415,0.25578388327996104,0.04684163517186235,0.05925,-0.02749,0.05681,-6.6,-36.6,-12.06
55.3764,82770.8064,-0.0949092601702743,0.3090369399671431,-0.03167658408011498,0.05376,0.0055,0.04765,-6.54,-36.48,-11.4
55.3984,82770.8265,-0.09325374831397865,0.38552072894958933,-0.11922569082689272,0.04948,0.0391,0.02871,-6.6,-36.48,-10.92
55.4136,82770.8464,-0.0980011462305805,0.47281054851397447,-0.19926036192738295,0.03787,0.0281,0.02199,-6.48,-36.9,-10.8
55.4339,82770.8664,-0.1094883115680763,0.5481645160167737,-0.2552017239668949,-0.01405,-0.00244,0.00794,-6.6,-36.72,-10.74
55.4509,82770.8865,-0.12312530826969847,0.5919821741183393,-0.274468952244856,-0.02138,-0.00244,0.02138,-6.42,-36.9,-10.92
55.4744,82770.9064,-0.13440867550137411,0.5915010364733829,-0.25115930487638316,0.00916,-0.02016,0.02443,-6.72,-37.08,-10.92
55.4978,82770.9264,-0.1348030625696853,0.547676218320167,-0.1874027670424372,0.01038,-0.05315,0.01894,-6.78,-36.72,-11.1
55.5199,82770.9465,-0.12023514659230362,0.4766114911252428,-0.09340862982027254,-0.011,-0.0281,0.00244,-7.2,-36.42,-11.4
55.5346,82770.9664,-0.09011778134050324,0.3952631839430595,0.014197361366209194,-0.06964,-0.04154,-0.00611,-7.5,-36.42,-10.68
55.5524,82770.9864,-0.051840606611768744,0.32859026197985997,0.11390924479592535,-0.12339,-0.01161,0.03054,-7.44,-36.48,-10.5
55.572,82771.0065,-0.012678539852795663,0.28964887080379875,0.18442191656936302,-0.07269,-0.02138,0.04215,-7.5,-36.48,-10.5
55.5946,82771.0274,0.017690382038896686,0.28486742551297306,0.21061289215503542,-0.01038,-0.02566,0.01161,-7.44,-36.66,-10.44
55.6147,82771.0474,0.03322592834894193,0.31659433074676413,0.18960846538869447,0.0391,-0.05864,0.00305,-6.96,-36.36,-11.1
55.6383,82771.0674,0.029314299070044743,0.38000964668425746,0.13299253357886265,0.03665,-0.04765,-0.00672,-6.84,-36.6,-11.28
55.6567,82771.0895,0.012848675757069097,0.46291614153108873,0.06319702073183997,-0.00672,-0.0507,-0.00611,-6.48,-36.48,-11.28
55.6857,82771.1114,-0.007524642630499947,0.5425401692785796,0.006053323881705097,-0.03665,-0.01161,-0.01527,-6.24,-36.42,-11.28
55.7008,82771.1315,-0.03103416416698721,0.5841787645003119,-0.01754080120254997,-0.04154,0.00611,-0.0507,-6.66,-37.2,-11.16
55.718,82771.1514,-0.05366463519793641,0.5800069181234178,-0.0008502101783136595,-0.04215,-0.02688,-0.02993,-6.72,-37.2,-11.28
55.7389,82771.1725,-0.08055589771357713,0.5316586892691731,0.046446414445519224,0.00367,-0.08369,0.01038,-6.9,-37.38,-11.64
55.7635,82771.1924,-0.11564833350054861,0.45852306530460396,0.10053514669877295,0.01588,-0.1405,0.0171,-6.72,-37.26,-11.64
55.7788,82771.2124,-0.1516686503241102,0.38989573010907896,0.1322727054179733,-0.00428,-0.07453,-0.00367,-6.54,-37.02,-11.88
55.7996,82771.2325,-0.19845389554524343,0.3486923505787895,0.11855141962925231,-0.05376,-0.01038,-0.04948,-6.54,-36.66,-11.76
55.8197,82771.2524,-0.26055653878379226,0.338378011105023,0.052571382252601495,-0.07636,0.04765,-0.07086,-6.84,-36.96,-11.1
55.8379,82771.2734,-0.3381729269885475,0.35072913710911147,-0.05176690008321039,-0.02566,0.00367,-0.03971,-6.96,-36.84,-11.1
55.8584,82771.2934,-0.4151923857671153,0.37450931740596954,-0.16254274030603888,0.0391,-0.06475,0.00061,-7.02,-36.72,-10.86
55.8801,82771.3135,-0.468079338199892,0.39942421851884263,-0.2401219201014051,0.0336,-0.08674,0.04032,-7.26,-36.84,-10.26
55.8998,82771.3334,-0.47147804543887073,0.4151118034706861,-0.2510501317502545,-0.08674,-0.08247,0.10873,-7.2,-36.24,-10.56
55.9205,82771.3534,-0.42210562797722606,0.4140980181910508,-0.18164520479722057,-0.20159,-0.08491,0.17471,-7.32,-36.42,-10.5
55.9423,82771.3735,-0.3315958279250649,0.3958141422836357,-0.04381210075641562,-0.15699,-0.10018,0.18082,-7.44,-36.24,-10.56
55.9611,82771.3934,-0.2085097190233652,0.36276663059388525,0.12834980404726615,-0.11668,-0.16066,0.20647,-7.14,-36.6,-11.1
55.9826,82771.4134,-0.0848502085384075,0.3393316182925205,0.2878341828187878,-0.1179,-0.15455,0.20464,-7.2,-36.78,-11.28
56.0074,82771.4335,0.02571310872040634,0.33570030528318145,0.39296580165566297,-0.07697,-0.0617,0.10568,-7.32,-36.6,-11.52
56.0282,82771.4534,0.10942681734302616,0.3562907967402873,0.42033920427910587,0.0452,0.0617,0.00672,-7.14,-36.84,-11.82
56.0399,82771.4734,0.1365522287390384,0.4045803029426615,0.3710575065697306,0.11118,0.10324,-0.01955,-7.32,-36.6,-12.18
56.0639,82771.4935,0.11389798714620732,0.45969631084707185,0.2664075764102467,0.01527,0.00855,-0.02871,-7.56,-36.42,-12.06
56.0868,82771.5134,0.052843871463295694,0.5106543749643806,0.13596156976102947,-0.05437,-0.02505,-0.05803,-7.68,-36.54,-11.76
56.1102,82771.5334,-0.014919074023917175,0.5410437017930569,0.008162142426717978,0.02443,0.05437,-0.09774,-8.1,-36.3,-11.64
56.1223,82771.5534,-0.07786406773301466,0.548320684621026,-0.095815589016917,0.06353,0.12645,-0.10018,-7.68,-35.7,-11.16
56.1397,82771.5744,-0.1034079070438407,0.5366015547493689,-0.16313244458577714,0.02016,0.02871,-0.08552,-7.38,-36.12,-11.04
56.1601,82771.5954,-0.09177125689285728,0.5157558423267009,-0.18911983394170484,0.00672,-0.05315,-0.0562,-7.26,-36.12,-11.34
56.1797,82771.6155,-0.04920788180874998,0.4935558807442902,-0.17628611635224978,0.02505,-0.04948,-0.01222,-6.84,-36.06,-11.16
56.2026,82771.6354,0.010442382505013502,0.47212498283762444,-0.13359911057498763,0.01894,-0.03787,0.01955,-7.02,-36.3,-11.34
56.2238,82771.6564,0.06871564132730815,0.45310605609240384,-0.07542214648431589,-0.00733,-0.02932,0.02627,-7.26,-35.82,-11.46
56.2452,82771.6774,0.10410687826429693,0.43763887301946097,-0.018459347075488353,-0.02566,-0.07819,-0.02016,-7.32,-35.7,-10.92
56.2659,82771.6985,0.1048604962960772,0.4283515244128083,0.022435695643633125,-0.03482,-0.10996,-0.0733,-7.32,-35.7,-11.52
56.2929,82771.7184,0.07364220470137946,0.4308900153346006,0.03823838280356817,-0.01894,-0.07391,-0.09468,-7.38,-36.18,-11.52
56.308,82771.7384,0.007483197048868685,0.44564441698840196,0.02836855007878647,-0.00794,0.00244,-0.10751,-6.84,-36.54,-11.22
56.3278,82771.7585,-0.0735890680694504,0.4734745528380666,-0.0006216024800256292,-0.01222,0.02932,-0.09529,-6.54,-36.54,-11.4
56.343,82771.7784,-0.16546221975736308,0.5062453216596374,-0.03757237745778852,-0.02871,-0.00855,-0.07208,-6.9,-36.3,-10.8
56.3663,82771.7984,-0.2492223718897732,0.5352576608100117,-0.07068882576326985,-0.00855,-0.06842,-0.09102,-6.84,-35.82,-10.62
56.3851,82771.8194,-0.3235550903306987,0.5495098188378071,-0.09064378070139512,-0.01894,-0.01649,-0.12889,-7.14,-35.7,-10.68
56.4054,82771.8393,-0.38009310212395025,0.5442530583163435,-0.09201671973913861,-0.06964,-0.00244,-0.15149,-7.56,-35.94,-10.5
56.4266,82771.8594,-0.4188866531819315,0.5175590520579337,-0.0737656025269473,-0.08919,0.01405,-0.14355,-7.14,-36.24,-10.74
56.4465,82771.8794,-0.4419527917942804,0.4727404606299738,-0.03890495830354368,-0.0336,0.01405,-0.10873,-7.02,-35.88,-11.22
56.4661,82771.8995,-0.4449595170730145,0.4210064828898243,0.006507188634113703,-0.00061,0.01649,-0.05192,-6.9,-35.88,-11.52
56.4929,82771.9194,-0.422954646391278,0.37712821958544246,0.05441811963168064,-0.06781,-0.00611,-0.04093,-6.54,-35.76,-11.88
56.5282,82771.9394,-0.3809944555229793,0.35132708038579197,0.09574936555407376,-0.05192,0.00672,-0.03421,-6.18,-35.7,-12.12
56.5323,82771.9595,-0.326241431168383,0.3389640224207423,0.12243139938961534,0.0,-0.01283,-0.011,-6.0,-36.0,-12.18
56.5501,82771.9794,-0.2668130172245427,0.35862297120010755,0.12787008803074862,-0.02382,-0.02321,0.01283,-6.0,-36.18,-12.42
56.5645,82771.9994,-0.21474612009573474,0.40497454984117687,0.11041595561768425,-0.05315,0.01222,-0.01527,-6.12,-36.18,-12.36
56.5834,82772.0195,-0.18047555549522568,0.47402330498826234,0.07418092155118394,-0.03665,0.03176,-0.02138,-6.42,-36.24,-12.3
56.6034,82772.0394,-0.17248012541444466,0.5523390842603707,0.029648988917656993,0.0,0.00183,0.00183,-6.54,-36.3,-12.24
56.6302,82772.0594,-0.19064803977357841,0.6259821125591742,-0.008533408898413697,0.011,-0.05559,0.02016,-6.54,-36.18,-12.18
56.6485,82772.0795,-0.21980715764928782,0.681010047391709,-0.02532141020907197,-0.00672,-0.04765,0.01833,-6.12,-36.3,-12.18
56.6795,82772.0994,-0.25060579029391483,0.7067687250590222,-0.010237328478590157,-0.04215,0.0226,-0.01038,-6.42,-36.6,-12.24
56.6871,82772.1194,-0.2798402604478631,0.6796726444643761,0.04008171602697708,-0.05437,0.02199,-0.0226,-6.42,-36.84,-11.88
56.7057,82772.1404,-0.3031346029085127,0.6126007530610681,0.11661594453716084,-0.02382,-0.01222,0.01772,-6.3,-36.9,-11.76
56.7274,82772.1604,-0.32060013463623216,0.5161634619027579,0.20158140644971922,-0.02932,-0.05559,0.05009,-6.72,-37.26,-12.0
56.7452,82772.1805,-0.32346979550958976,0.4144801921654341,0.2719450701519204,-0.02321,-0.05925,0.0391,-6.36,-36.84,-11.94
56.7652,82772.2004,-0.31251951071477674,0.336406091267546,0.3061355010857465,-0.01833,-0.05253,-0.02077,-6.36,-36.6,-11.82
56.7851,82772.2204,-0.29171286360612736,0.29886957136583625,0.29188214718999994,-0.011,0.01283,-0.00244,-6.12,-36.78,-11.7
56.8156,82772.2405,-0.2713796454161991,0.3015104103746449,0.2306614440497281,0.0226,0.07514,0.04765,-5.94,-36.48,-11.46
56.8266,82772.2604,-0.2631094508598344,0.3465406496945396,0.1370281515523395,0.06658,0.07758,0.06048,-5.94,-36.42,-11.16
56.8472,82772.2804,-0.26921676415778323,0.40285898656028607,0.03471875108374611,0.08369,0.02138,0.0562,-6.0,-36.9,-11.4
56.8674,82772.3005,-0.28263677393051023,0.4587805932751787,-0.05292779485669641,0.04643,-0.03848,0.02382,-6.24,-37.02,-11.34
56.8893,82772.3204,-0.29600772272620074,0.49781177837132295,-0.10933248839606691,0.00122,-0.00977,0.01222,-6.36,-36.78,-11.4
56.9086,82772.3404,-0.30347058659601406,0.5112208775988281,-0.12863843042265266,0.00244,0.04948,0.03238,-6.36,-37.08,-11.22
56.9288,82772.3605,-0.3031171655026771,0.5002645282919252,-0.115631659302327,0.02932,0.05315,0.08735,-6.3,-36.9,-11.1
56.9471,82772.3804,-0.2918701282622445,0.4777253371953081,-0.08258095922029618,0.04704,-0.00061,0.09896,-6.42,-36.48,-11.4
56.9647,82772.4004,-0.2695926117281777,0.4585794466152772,-0.04449562596108336,0.03482,-0.01283,0.06842,-6.42,-36.66,-11.46
56.9845,82772.4205,-0.2403849326023667,0.45201150180912664,-0.014572131414755773,0.01772,0.01161,0.03604,-6.6,-36.12,-11.88
57.0141,82772.4404,-0.2108831540302893,0.4575316447139475,-0.0007619257908952903,-0.00244,0.02077,0.05742,-6.84,-36.0,-11.82
57.0351,82772.4604,-0.1823456041923905,0.47216910516675886,-0.004156353018348824,0.04704,0.04398,0.06353,-6.42,-36.12,-11.52
57.0568,82772.4805,-0.16229843909257824,0.4871658681124306,-0.01919100727553591,0.06903,0.05498,0.03299,-6.48,-36.18,-11.58
57.0822,82772.5003,-0.15370678925978312,0.4965005163094481,-0.03607300683603931,0.02688,0.0336,0.03176,-6.6,-36.6,-11.34
57.0907,82772.5215,-0.15361448725085985,0.5036179316898179,-0.04513155850611028,0.03299,0.02932,0.02688,-6.9,-36.72,-11.28
57.108,82772.5414,-0.16060674814363307,0.5010344095854667,-0.040225916867782985,0.00367,0.00244,0.02688,-7.32,-36.84,-11.28
57.1307,82772.5614,-0.16869468388197031,0.49586404210319085,-0.022896836478043525,-0.01772,0.00305,0.03543,-7.44,-36.66,-10.86
57.1512,82772.5823,-0.1739845582356787,0.4986806725431979,-0.002080778790730875,0.02016,0.04581,0.0391,-7.38,-36.3,-10.74
57.1672,82772.6025,-0.17584241274943962,0.5232179425614802,0.008817558279138993,0.02993,0.05192,0.05376,-7.14,-36.48,-10.74
57.1861,82772.6224,-0.17726746677029048,0.5768239826042109,-0.002433200640322042,0.00428,-0.00794,0.0898,-7.5,-36.24,-10.62
57.2079,82772.6424,-0.1771849042168801,0.6561327555026892,-0.040821300008701655,0.00977,-0.07208,0.06964,-7.44,-36.3,-10.62
57.2284,82772.6625,-0.16872827809870325,0.7455010859957616,-0.09997729236876651,0.03299,-0.05376,0.04032,-7.62,-36.66,-10.8
57.2515,82772.6824,-0.1542108592408272,0.8173854185750022,-0.16249981233016975,0.04887,-0.00367,0.02077,-7.74,-36.42,-10.98
57.2679,82772.7024,-0.13657985135837092,0.8450224683173546,-0.20598143672748925,0.01344,0.0,0.01283,-7.2,-36.66,-10.92
57.2906,82772.7225,-0.12403479509959259,0.8044862839214704,-0.21201419037319447,-0.0171,-0.03604,0.01222,-7.08,-36.66,-10.8
57.3068,82772.7424,-0.11637275087115333,0.6941928958355564,-0.1760656736103101,-0.0391,-0.06781,-0.02749,-6.84,-36.48,-10.74
57.3355,82772.7624,-0.11165703356031256,0.5516928735783919,-0.11241377914986117,-0.0898,-0.13867,-0.09713,-6.6,-36.6,-10.5
57.3503,82772.7825,-0.10212711813413168,0.3956719793990774,-0.04723991860411836,-0.16249,-0.13439,-0.11729,-6.84,-36.3,-10.32
57.3739,82772.8024,-0.07492237655018714,0.30024026077383564,-0.013187436706695976,-0.15088,-0.0672,-0.08125,-7.08,-36.48,-10.62
57.3943,82772.8224,-0.02348266557836996,0.28155992118791534,-0.030233980845192576,-0.06781,-0.0281,-0.04581,-7.08,-37.02,-10.8
57.4102,82772.8434,0.05702963779229946,0.35251415220812493,-0.09746387384603139,0.00244,-0.08186,-0.03665,-7.08,-36.84,-10.92
57.4294,82772.8634,0.16194955159847013,0.4975171644920345,-0.19092622654932256,0.00489,-0.15088,-0.01588,-6.84,-37.14,-11.22
57.4513,82772.8835,0.27632095399097373,0.6789071884456733,-0.2741493912425028,0.00367,-0.21564,0.01344,-6.78,-36.84,-11.04
57.4704,82772.9034,0.3907877313918755,0.8478570482070829,-0.31447607061285865,-0.09163,-0.32865,0.03543,-6.48,-36.42,-11.28
57.487,82772.9234,0.48494416656114947,0.9570852725356038,-0.2951607677854682,-0.19609,-0.36346,0.03604,-6.66,-36.42,-11.04
57.5072,82772.9435,0.5238188070681029,0.9895765016424034,-0.22043655547777696,-0.18754,-0.37385,-0.00733,-6.96,-36.42,-10.98
57.5309,82772.9634,0.4899754364182081,0.9474493267236103,-0.11105092041874975,-0.17593,-0.31398,-0.07697,-6.96,-36.6,-10.92
57.5507,82772.9834,0.3830445969023989,0.845044385596115,0.005642917310636264,-0.18509,-0.37629,-0.12462,-7.32,-36.42,-10.98
57.5764,82773.0035,0.20370840481511288,0.7346616281690086,0.10266689823122377,-0.23885,-0.40989,-0.14478,-7.38,-36.54,-11.16
57.5909,82773.0234,-0.0005868441327729841,0.6171119655978875,0.16400402310187623,-0.24312,-0.42516,-0.18204,-7.32,-36.18,-11.4
57.6164,82773.0442,-0.20073779278656398,0.5563872238982793,0.17868467658310294,-0.21686,-0.36041,-0.21197,-7.08,-36.18,-11.64
57.6281,82773.0644,-0.35049000844656525,0.5203652527276649,0.14913682025033026,-0.16677,-0.29871,-0.20708,-7.2,-36.0,-11.4
57.6488,82773.0854,-0.43570019960853335,0.5505109594578087,0.07846167409145721,-0.15577,-0.33537,-0.19181,-7.2,-35.76,-11.58
57.6715,82773.1055,-0.45584883241137036,0.6256424457034699,-0.023166694104009622,-0.15211,-0.36102,-0.17532,-7.02,-35.88,-11.7
57.6925,82773.1254,-0.42055519289891274,0.7176157327882389,-0.1408413080775368,-0.13134,-0.36224,-0.17226,-7.08,-35.94,-12.24
57.7122,82773.1454,-0.3514052901191648,0.7976042845936652,-0.25486370312827233,-0.17043,-0.3146,-0.16127,-7.14,-36.42,-12.18
57.7322,82773.1654,-0.27851358301514584,0.8422022599989502,-0.3420555681086057,-0.135,-0.17654,-0.16371,-6.9,-36.42,-12.78
57.7518,82773.1854,-0.23471749646090528,0.8353643360198848,-0.3788645237745918,-0.22907,-0.07086,-0.25962,-6.84,-36.48,-13.02
57.7709,82773.2054,-0.24393895262979184,0.7723868637337993,-0.34749351653943883,-0.37385,-0.0617,-0.28283,-7.2,-36.06,-12.42
57.7908,82773.2264,-0.3051814269844352,0.6641589880353013,-0.24395184957232985,-0.37874,-0.22907,-0.23518,-6.78,-35.82,-13.08
57.811,82773.2464,-0.39531555892941755,0.5271255065183591,-0.08230776122226402,-0.35491,-0.32254,-0.19242,-6.72,-35.88,-12.48
57.8337,82773.2664,-0.47779039014809316,0.39352647620828296,0.1075511399658815,-0.26267,-0.23335,-0.17226,-6.36,-35.76,-12.48
57.8527,82773.2864,-0.5231992778041238,0.27703622607678174,0.29086259613877097,-0.17043,-0.17226,-0.14539,-5.82,-35.76,-13.08
57.8727,82773.3064,-0.523759240235938,0.2065352180225614,0.4362338212216166,-0.17898,-0.22052,-0.08002,-5.88,-35.76,-12.9
57.8912,82773.3274,-0.4876186566393935,0.1769886916467042,0.5237814806504595,-0.21991,-0.25107,-0.06414,-5.7,-35.7,-13.08
57.9113,82773.3475,-0.4340101965938716,0.1799105521964403,0.545951338113781,-0.11912,-0.15821,-0.09652,-6.06,-35.58,-13.26
57.9335,82773.3674,-0.3806501669415254,0.20103050563550084,0.5071673920127182,-0.06353,-0.16005,-0.14233,-5.82,-35.88,-13.56
57.9544,82773.3874,-0.33830091739254403,0.23145013083212998,0.4211791389876822,-0.09102,-0.18265,-0.14355,-6.12,-36.0,-13.68
57.9734,82773.4073,-0.30870476656028467,0.27303136799541805,0.3072024379274083,-0.08735,-0.15577,-0.15455,-6.24,-35.88,-13.68
57.9916,82773.4272,-0.28469820601722917,0.32924379441295876,0.18576404140779523,-0.05009,-0.1124,-0.14905,-6.18,-35.82,-13.62
58.0193,82773.4474,-0.2548395694884636,0.40511211027537664,0.07465918522169801,-0.0336,-0.07453,-0.11912,-6.42,-35.64,-13.38
58.0373,82773.4675,-0.2212751047629544,0.4854743034349255,-0.013096879970703412,-0.06414,-0.11912,-0.09041,-6.12,-35.4,-13.38
58.0536,82773.4874,-0.18155890323030122,0.5635169327505815,-0.0702068727647589,-0.06964,-0.14416,-0.05803,-6.12,-35.22,-13.44
58.0748,82773.5074,-0.14135554285317176,0.62871057220672,-0.09386883950036307,-0.01772,-0.12156,-0.06658,-6.24,-35.16,-13.68
58.0998,82773.5274,-0.10360700108270064,0.673189147086598,-0.08422918992573969,0.03299,-0.08125,-0.11057,-6.24,-35.28,-13.62
58.1137,82773.5474,-0.08753371223283524,0.6891839147750076,-0.043917774123430675,-0.06597,-0.06353,-0.14905,-6.24,-35.46,-13.68
58.1312,82773.5674,-0.09813147226521174,0.6755616050096946,0.02072912868993626,-0.16371,-0.02688,-0.14722,-5.7,-35.4,-14.1
58.1505,82773.5874,-0.146141254595178,0.6303549168434471,0.09840804274370818,-0.10751,-0.01772,-0.13928,-5.58,-35.82,-13.5
58.1707,82773.6075,-0.23070665682152616,0.5615964206430745,0.1726924217274064,-0.011,-0.08919,-0.13928,-5.28,-36.0,-13.44
58.1953,82773.6274,-0.332939579548559,0.4913029615540434,0.225950429959477,-0.05192,-0.12156,-0.16371,-5.04,-35.82,-13.38
58.2126,82773.6474,-0.44245387160318184,0.4369726196562775,0.24561377526033112,-0.11179,-0.03604,-0.1857,-5.34,-36.24,-13.26
58.2332,82773.6674,-0.5328742681076067,0.4151293149319337,0.22923377686736757,-0.08674,0.04948,-0.19303,-5.34,-36.18,-13.92
58.2537,82773.6874,-0.6013998372484365,0.42528133444509814,0.1846088255666416,-0.02932,0.05131,-0.15944,-5.46,-36.3,-14.1
58.2717,82773.7074,-0.6419881137117719,0.46264112399945423,0.12738018417496377,0.011,-0.02505,-0.09407,-5.28,-36.42,-14.58
58.2934,82773.7274,-0.6411598293905589,0.5170438851620943,0.07591026895277153,0.02688,-0.05315,-0.03054,-4.92,-36.18,-14.82
58.3132,82773.7474,-0.5970795235381957,0.5769614713869695,0.04349323469690525,0.0171,-0.011,0.00122,-4.62,-35.7,-15.0
58.3329,82773.7674,-0.5217478213997908,0.6270080984771086,0.03418827794534707,0.01955,-0.01038,-0.02138,-4.68,-35.58,-15.0
58.3514,82773.7874,-0.43943691217807995,0.6555274237364379,0.042753879578807386,0.00794,-0.07819,-0.0336,-4.92,-35.58,-14.88
58.3763,82773.8074,-0.37601647131671073,0.6563417466300852,0.0590451428616543,0.04581,-0.05315,-0.01038,-5.04,-35.7,-14.82
58.3946,82773.8274,-0.33915393183453885,0.6372830389449021,0.07350000567844184,0.03787,-0.01466,0.00672,-4.86,-35.7,-14.28
58.4139,82773.8474,-0.32860291290486476,0.6037922655133027,0.08210377357494458,0.00794,0.04643,-0.02566,-4.5,-35.7,-14.58
58.4318,82773.8674,-0.33643954777462926,0.5631394942893129,0.08747063348605444,-0.0281,0.0391,-0.0788,-4.2,-35.88,-14.1
58.4573,82773.8874,-0.34466749430909405,0.5210122847505935,0.09647057311348561,-0.03543,0.00611,-0.1069,-4.44,-35.82,-13.86
58.4751,82773.9074,-0.35347797635937084,0.4815106737609623,0.11415659396507749,0.00977,-0.01405,-0.05131,-4.92,-36.06,-14.1
58.494,82773.9273,-0.3460383349019853,0.45132106200833066,0.14043171359174345,0.04948,-0.04459,0.0562,-4.74,-35.7,-13.68
58.5188,82773.9484,-0.32207196672357263,0.43362069163644557,0.16787020886027904,0.08186,-0.0281,0.10446,-4.74,-35.34,-13.98
58.5409,82773.9684,-0.2801528078701955,0.4350481755654091,0.18403650245795866,0.06536,0.0336,0.04643,-4.68,-35.22,-13.98
58.5548,82773.9884,-0.24748062486483624,0.4541781729997905,0.17576767111602187,0.03787,0.0733,-0.01649,-4.5,-35.22,-14.16
58.5727,82774.0085,-0.2492426774352254,0.4753074320154691,0.13603480047241412,0.04032,0.1179,-0.05498,-4.92,-35.58,-13.98
58.5926,82774.0284,-0.29985700246033403,0.4904719592256347,0.06657565537395627,0.05559,0.14478,-0.05986,-4.86,-35.76,-14.4
58.6146,82774.0484,-0.39398205415524795,0.4956364630219302,-0.02205267340762518,0.07208,0.15149,-0.0507,-4.68,-35.88,-14.1
58.636,82774.0685,-0.513597891054929,0.49587887604036773,-0.11416502731493594,0.08369,0.20281,-0.07147,-4.26,-35.76,-13.86
58.6593,82774.0894,-0.626964108357382,0.4948094179437896,-0.19257601850373085,0.02566,0.18326,-0.06781,-3.9,-35.7,-14.1
58.6842,82774.1104,-0.7099145472697166,0.4993859321137919,-0.24370524876887245,0.00794,0.16921,-0.04704,-4.08,-35.7,-13.32
58.6966,82774.1314,-0.7613535660613752,0.524130417423037,-0.26167384380350533,0.05437,0.17471,-0.011,-3.84,-35.94,-13.38
58.7165,82774.1514,-0.7526903416937019,0.5626360941702191,-0.2435728116895941,0.04887,0.19914,0.07391,-3.96,-35.88,-13.56
58.738,82774.1725,-0.6986077978445081,0.6174247649450151,-0.19626164820541447,-0.00061,0.19303,0.14294,-4.26,-35.64,-13.14
58.7582,82774.1924,-0.6175753806322222,0.6799708819675294,-0.13114742340473384,-0.01466,0.16921,0.14111,-3.84,-35.64,-13.32
58.7768,82774.2124,-0.5285484442579832,0.7372538459538264,-0.06193570919914926,0.05864,0.1179,0.13989,-4.14,-35.76,-13.74
58.7967,82774.2325,-0.4469845644006644,0.7785111012343735,-0.001720014000223813,0.05803,0.09102,0.16066,-4.02,-35.7,-13.86
58.818,82774.2524,-0.37856156079949566,0.7989694098174854,0.040080165490349984,0.01466,0.13317,0.17043,-3.78,-35.82,-14.16
58.837,82774.2724,-0.32288196518429196,0.7968955799380929,0.059771199269405884,-0.01283,0.17776,0.14966,-4.44,-36.06,-14.1
58.8564,82774.2925,-0.27867859214346763,0.7724028698267194,0.05973129812078959,0.01222,0.17165,0.12889,-4.32,-35.76,-14.16
58.8772,82774.3124,-0.23945381740126193,0.7305409793142996,0.046943665264693735,0.04887,0.10873,0.14661,-4.68,-36.0,-13.68
58.9313,82774.3324,-0.21218274608083898,0.669324700322563,0.030820171150153897,0.05803,0.08125,0.16921,-5.22,-35.82,-13.62
58.9363,82774.3524,-0.13735249549769898,0.6331550825909545,0.01827565007026344,0.04887,0.135,0.16432,-5.58,-35.82,-13.32
58.938,82774.3724,-0.04371605380123415,0.6111535735460303,0.014704595491501493,0.02382,0.15516,0.14539,-5.82,-35.82,-13.32
58.9569,82774.3924,0.05139061918153537,0.6051637253877371,0.02010394273313132,0.03543,0.1014,0.12767,-5.88,-36.12,-13.38
58.976,82774.4124,0.1353446088700039,0.6203344965988818,0.029041221632763126,0.04093,0.03726,0.13317,-5.88,-36.12,-13.2
58.9976,82774.4324,0.18858648021050828,0.6534611067291516,0.03276983689993962,0.0171,0.0055,0.14111,-5.82,-35.94,-13.62
59.0191,82774.4523,0.20159227763198448,0.6991593725363178,0.022138392878455093,0.03848,0.03115,0.12278,-5.88,-36.24,-13.74
59.0359,82774.4724,0.16990427151298476,0.7530494189693148,-0.008115024902531687,0.07086,0.06658,0.08247,-6.48,-36.0,-13.8
59.061,82774.4934,0.09023082704330476,0.8034427537911024,-0.05525571661772766,0.04765,0.07147,0.02627,-6.72,-36.3,-13.86
59.0763,82774.5134,-0.03202467066415595,0.8441451298343067,-0.10952137345418578,-0.0391,0.04948,-0.02382,-6.9,-36.18,-13.38
59.0979,82774.5333,-0.1703676950429177,0.8642203841349855,-0.15624491013064556,-0.05803,0.04276,-0.06109,-6.96,-35.88,-12.9
59.117,82774.5533,-0.305613530997468,0.854039284740087,-0.18086140267547535,-0.03421,0.0391,-0.05437,-6.48,-35.46,-12.66
59.1373,82774.5734,-0.4107179657769125,0.8139751052139151,-0.17399707430790912,-0.04765,0.03971,-0.0171,-6.48,-35.58,-12.78
59.1564,82774.5933,-0.47062955216502156,0.7484796852780126,-0.13397771706779515,-0.04032,0.01344,0.03176,-6.42,-35.7,-13.38
59.18,82774.6134,-0.48424250825242154,0.6689603294190569,-0.06798306150860256,-0.04032,0.00672,0.02993,-6.42,-35.82,-13.8
59.2049,82774.6334,-0.4651358816430764,0.5858275910671065,0.009800682271096761,-0.03543,-0.00489,0.03482,-6.42,-35.76,-14.16
59.2231,82774.6544,-0.43041373262867316,0.5110381680833971,0.08153011649501529,-0.0055,0.00428,0.05253,-6.3,-35.58,-14.04
59.2397,82774.6754,-0.400765935425737,0.45940468823896435,0.12995637647877345,-0.02016,0.00794,0.08063,-6.18,-35.64,-13.8
59.2601,82774.6953,-0.38848579775271735,0.4413497593127041,0.1439122223699858,-0.04459,0.02443,0.05803,-6.48,-35.82,-13.86
59.2804,82774.7154,-0.39376465770379415,0.4559190417178541,0.12218571081322871,-0.03848,0.06781,0.02382,-6.72,-36.0,-13.5
59.3012,82774.7354,-0.4102232305260484,0.4978780069926099,0.07401771933905543,0.01772,0.10201,0.04093,-6.72,-36.12,-13.74
59.325,82774.7553,-0.42526072908629775,0.5587793093984222,0.016438277941780655,0.03238,0.06781,0.06231,-6.72,-35.82,-13.74
59.3427,82774.7753,-0.4242821187303938,0.6305888243039719,-0.031920960277755484,0.0171,0.06903,0.08308,-6.24,-35.4,-13.2
59.3608,82774.7954,-0.39741251710164505,0.6972590098740198,-0.057026862666443634,-0.00244,0.08858,0.09224,-5.88,-35.1,-13.5
59.3952,82774.8153,-0.34892834910781173,0.7467914985693669,-0.05452468937846966,-0.03848,0.0843,0.08919,-5.7,-34.86,-13.5
59.4039,82774.8363,-0.27985408570709336,0.7579395068255582,-0.028133537768741945,-0.01527,0.04948,0.06964,-5.76,-34.86,-13.2
59.4217,82774.8564,-0.2107367964082669,0.7363586697576426,0.010006001515032281,0.02505,0.04581,0.05742,-5.94,-34.86,-13.02
59.4416,82774.8764,-0.1520221565754272,0.6903786245208382,0.04685665119012228,0.02871,0.07575,0.03054,-6.0,-35.1,-12.9
59.4638,82774.8964,-0.1094592407080364,0.6356385635694948,0.07178986111006758,-0.02627,0.09713,0.02505,-6.0,-35.22,-12.3
59.4857,82774.9164,-0.08280673814936072,0.587118180887277,0.07908331559807458,-0.03421,0.07819,-0.00122,-5.76,-35.4,-12.6
59.5051,82774.9364,-0.06733182192911334,0.5558628208050848,0.0681147868843528,0.01038,0.05437,-0.02566,-5.76,-35.7,-12.96
59.5208,82774.9564,-0.058302733592014384,0.5501870200208883,0.04228276981774215,-0.01344,0.06781,-0.0452,-5.58,-35.64,-12.84
59.5443,82774.9764,-0.04648163169333985,0.5721701495114798,0.007746473380251473,-0.01161,0.09713,-0.02443,-5.4,-35.52,-13.5
59.561,82774.9964,-0.04692666031859665,0.6204600591101368,-0.028847536020888853,0.04643,0.07453,-0.02321,-5.34,-35.58,-13.86
59.5831,82775.0164,-0.06120693863600916,0.682545782720636,-0.061747054125374845,0.04093,-0.00794,-0.00428,-5.46,-35.28,-14.22
59.602,82775.0364,-0.09615824005667524,0.7496718756824803,-0.08835020332705668,0.00305,-0.02505,-0.02443,-5.82,-35.7,-14.16
59.6223,82775.0564,-0.15515947192581925,0.8086623955968263,-0.10826958038384227,-0.01405,0.03421,-0.0733,-5.34,-35.94,-13.86
59.6415,82775.0764,-0.24351625057488788,0.8492464406983029,-0.1223829538512824,-0.0452,0.05925,-0.09835,-5.52,-36.12,-13.44
59.6614,82775.0963,-0.35567281267429074,0.8674301914097297,-0.13163787405039606,-0.0617,-0.03482,-0.09529,-5.34,-36.54,-13.2
59.6816,82775.1164,-0.4735662919735575,0.8668947028312424,-0.1362982138269313,-0.02749,-0.09529,-0.04337,-5.28,-36.12,-13.44
59.7027,82775.1364,-0.5699563057442079,0.858783297846929,-0.1353916411389111,-0.01283,-0.04948,-0.04154,-5.82,-35.64,-13.56
59.7286,82775.1563,-0.6232613204088308,0.8566267046061279,-0.12678525235189753,-0.04581,-0.00916,-0.05315,-5.88,-35.34,-13.74
59.7476,82775.1764,-0.6297501789378629,0.8587497239254718,-0.10715052987624318,-0.06475,-0.01527,-0.0281,-5.52,-35.1,-13.8
59.7622,82775.1964,-0.5932625260397775,0.8605714323102731,-0.07353045276411407,-0.0507,-0.08796,0.02138,-5.1,-35.64,-14.1
59.7853,82775.2174,-0.5317835008728313,0.857797073379796,-0.025157202829444003,-0.02443,-0.12462,0.05498,-4.68,-35.88,-14.34
59.8016,82775.2373,-0.44582080093434157,0.8409410574555319,0.03760938293423699,0.01344,-0.07147,0.00489,-4.38,-36.0,-14.52
59.829,82775.2574,-0.3575972392475192,0.816836782695895,0.10825798383139151,-0.02993,-0.0452,-0.01894,-4.38,-35.7,-14.52
59.8472,82775.2774,-0.2717684837078887,0.7741359972644674,0.1789706836185534,-0.1295,-0.09774,-0.00855,-4.62,-35.7,-14.16
59.8627,82775.2974,-0.20245628377045366,0.7154403298302462,0.23776249107276648,-0.1124,-0.10385,-0.02871,-4.86,-36.0,-14.28
59.8841,82775.3174,-0.15863851184748656,0.652750385831512,0.27237719139820094,-0.03482,-0.09163,-0.04643,-4.92,-35.76,-14.16
59.9009,82775.3374,-0.13553225547882478,0.5981946634967265,0.274682401987814,0.05742,-0.09468,0.01222,-5.4,-36.0,-13.8
59.922,82775.3574,-0.1353226258778619,0.5702783082682016,0.24285811938552904,0.0672,-0.13439,0.05009,-5.4,-35.58,-13.98
59.9459,82775.3784,-0.14958128223804854,0.5768345643586916,0.18345818155433413,-0.04154,-0.10568,0.00794,-5.4,-35.52,-13.62
59.974,82775.3982,-0.1762949009232932,0.6053788471225604,0.11014195279595107,-0.04948,-0.05498,-0.07147,-5.64,-35.7,-13.74
59.994,82775.4184,-0.21943253482687447,0.6329752776209429,0.04008429562320437,0.03848,-0.06353,-0.08552,-5.4,-35.64,-14.1
60.0089,82775.4384,-0.27368801562027156,0.6505485559085058,-0.011709708533222951,0.08002,-0.09774,-0.02505,-5.4,-35.76,-14.1
60.0392,82775.4583,-0.33332238088130167,0.6460074143067339,-0.036368795534317044,0.05803,-0.13683,-0.00733,-5.34,-35.52,-13.98
60.0487,82775.4793,-0.3638508174683172,0.6423991663615748,-0.03566318659131973,0.00672,-0.11179,-0.04581,-5.34,-35.58,-13.8
60.0654,82775.4994,-0.37364769934189934,0.6365927104610136,-0.020101522284107887,-0.01894,-0.03848,-0.05803,-5.52,-35.28,-13.56
60.0855,82775.5194,-0.36961563441085854,0.6382686181558686,-0.0065329770370272655,-0.00489,-0.02932,-0.03665,-5.76,-35.28,-13.26
60.1073,82775.5393,-0.36713118182839877,0.6521238840513801,-0.011084475789136405,0.01038,-0.09346,0.00428,-5.7,-35.52,-13.26
60.1269,82775.5594,-0.37296501059853554,0.6837235461600998,-0.0424547482664952,0.04093,-0.10568,-0.02566,-5.7,-35.34,-13.26
60.145,82775.5804,-0.3874134015801369,0.73686562563345,-0.0978609409177853,0.08858,-0.03604,-0.05559,-5.7,-35.46,-13.26
60.169,82775.6004,-0.4059617464665619,0.8045401376908353,-0.16309644230758735,0.06109,0.00367,-0.0617,-5.76,-35.34,-13.44
60.1889,82775.6214,-0.4308153192312125,0.8793611504916562,-0.21918680479781827,-0.02443,0.05498,-0.04704,-6.18,-35.28,-13.5
60.2081,82775.6414,-0.4599609699587958,0.9393971593016455,-0.24809849964486297,-0.06903,-0.00428,-0.05376,-5.88,-35.16,-13.5
60.2291,82775.6624,-0.4892297136230919,0.9677203596717049,-0.23989033576692975,-0.01344,-0.01527,-0.01466,-5.46,-35.22,-13.5
60.2557,82775.6823,-0.5140112082927216,0.9574233090721921,-0.19493122432719368,0.04826,-0.02932,0.0391,-5.04,-35.46,-13.32
60.2746,82775.7033,-0.5211919679041584,0.9183535596453688,-0.12204341299660548,0.0281,-0.01588,0.02993,-4.92,-35.76,-13.26
60.2906,82775.7234,-0.5129439640644546,0.86172659616393,-0.034472465523412765,-0.03665,0.00305,-0.0226,-4.8,-35.88,-13.26
60.3083,82775.7434,-0.4954613572824385,0.79741196491341,0.05400304435645786,-0.0391,0.03176,-0.03848,-5.1,-36.24,-13.68
60.3289,82775.7644,-0.4778808128417144,0.7324980452594527,0.13084720978085862,-0.04032,0.011,-0.01222,-4.92,-36.3,-13.98
60.3516,82775.7843,-0.4685861374278122,0.6707790711902987,0.18568925238461098,-0.03238,-0.0055,0.02443,-4.62,-36.0,-14.28
60.375,82775.8044,-0.4657096929645683,0.6194940308857012,0.21122888248287097,0.02505,-0.03115,0.03726,-4.68,-36.18,-14.28
60.3888,82775.8244,-0.4561950483686154,0.5929373661871479,0.20481363103444572,0.05742,-0.03726,0.02016,-4.62,-36.3,-13.86
60.4087,82775.8442,-0.43919859733289673,0.5925929340213685,0.17019901149062555,0.01772,0.02382,-0.02077,-4.5,-36.42,-13.56
60.4292,82775.8644,-0.41163818780758754,0.6147289723188579,0.11794731457388963,-0.01527,0.09774,-0.02138,-4.74,-36.54,-13.8
60.4524,82775.8844,-0.3742694457179307,0.6442473252076006,0.06350810086252423,0.02505,0.08002,-0.01222,-4.56,-36.72,-13.92
60.483,82775.9063,-0.327457130944146,0.6636483576985034,0.022422587665396065,0.07636,0.04826,-0.00367,-4.26,-36.6,-13.98
60.4937,82775.9264,-0.2683923999245222,0.6927800403394203,0.0018631180547199477,0.09713,0.01038,0.01405,-4.56,-36.78,-14.22
60.5184,82775.9474,-0.19850330447691655,0.7134758300359743,0.0009827635314074712,0.05925,-0.01405,0.04215,-4.32,-37.14,-13.74
60.5338,82775.9674,-0.11789264288826362,0.7432460505593729,0.005695819658916079,-0.01222,-0.05315,0.03848,-4.32,-36.78,-13.2
60.5516,82775.9873,-0.0520243565093818,0.7819466042431858,-0.0026559809266402112,-0.04215,-0.07636,0.03115,-4.38,-36.36,-12.96
60.5722,82776.0074,-0.025282841796617238,0.8277632059451145,-0.03820404719798631,0.00916,-0.07636,0.0336,-4.32,-36.12,-12.72
60.5922,82776.0274,-0.05161815345689772,0.8756451980369133,-0.10161976506741155,0.07819,-0.10079,0.04643,-4.74,-35.64,-12.96
60.6143,82776.0473,-0.13877249424548732,0.9161293708523482,-0.17675749951484043,0.04704,-0.12889,0.04093,-4.98,-35.64,-13.2
60.6319,82776.0674,-0.2773757744645404,0.9360836568462928,-0.23515320565592468,-0.01955,-0.08002,-0.00061,-5.22,-36.18,-13.26
60.6533,82776.0874,-0.453336315635801,0.9229809384503981,-0.24720837254258754,-0.06414,-0.0562,-0.06109,-5.1,-36.0,-13.2
60.6749,82776.1074,-0.6266821252312967,0.8781298553264556,-0.19445123633202144,-0.06475,-0.07697,-0.07269,-5.16,-36.06,-12.72
60.6947,82776.1284,-0.7491924055536877,0.8113359943421189,-0.07654263928464466,-0.05803,-0.03604,-0.0562,-5.34,-36.42,-12.78
60.7202,82776.1483,-0.7743694948040762,0.7431446229487215,0.08699143928536479,-0.25229,0.15699,-0.11301,-5.58,-36.36,-13.32
60.7386,82776.1693,-0.7610279094932564,0.6631496235642736,0.2568358564812616,-0.16616,0.60415,-0.06048,-5.64,-36.36,-13.32
60.7629,82776.1894,-0.7337683604769504,0.579492549126058,0.3916606828638116,0.04765,0.63774,0.0281,-5.22,-36.24,-13.68
60.7804,82776.2104,-0.7666196326441844,0.5054586748538564,0.4533844302792236,0.16066,0.0733,0.05498,-4.74,-35.7,-13.98
60.8001,82776.2303,-0.8251413128665478,0.4484775230750733,0.42570291244010683,0.01283,-0.24496,-0.15333,-4.74,-35.7,-13.44
60.8173,82776.2503,-0.8562512791617314,0.4279102018467107,0.31241188457331504,-0.08613,0.09835,-0.416,-4.56,-35.64,-13.5
60.84,82776.2704,-0.7783280741469357,0.46013474239311614,0.14028020448027867,-0.10018,0.60842,-0.51007,-4.38,-36.0,-13.32
60.8561,82776.2904,-0.6772092763281418,0.5493363813343767,-0.06318756240180079,-0.17532,0.78741,-0.20831,-4.08,-36.72,-13.08
60.8757,82776.3103,-0.5193103497288577,0.7009171601424128,-0.25593408768076387,-0.12523,0.5736,0.12523,-3.3,-36.42,-13.5
60.896,82776.3304,-0.34509858571099555,0.8935539855685714,-0.4047271112495743,0.11301,0.03787,0.35736,-3.06,-36.42,-13.68
60.9172,82776.3504,-0.15217363048092922,1.093420582783605,-0.4875130580554021,0.24007,-0.28405,0.30421,-3.06,-35.94,-13.68
60.9374,82776.3704,0.06572764608993238,1.2718348266795447,-0.5047391878972558,0.12217,-0.2022,0.14722,-3.36,-35.4,-13.74
60.9565,82776.3904,0.2691561158065844,1.4045058771526335,-0.47338047951989815,0.04643,-0.06597,-0.01344,-3.48,-35.82,-13.14
60.9783,82776.4124,0.403233172917627,1.472173805615647,-0.4087843828620432,-0.16493,0.40684,0.01283,-3.9,-35.76,-13.38
60.9997,82776.4323,0.42096943114050367,1.4424825883309962,-0.3123166922497038,-0.40928,0.45998,0.09835,-3.9,-35.94,-13.68
61.029,82776.4524,0.3296008919769608,1.3133444439720328,-0.18574339303561338,-0.31398,0.21441,0.06109,-3.6,-36.18,-13.62
61.0378,82776.4724,0.1469285331888078,1.0546334705650904,-0.03313285130542276,0.04643,-0.13256,-0.05559,-3.54,-35.76,-14.22
61.0574,82776.4923,-0.058501018949689725,0.7726888773422735,0.11338772898548477,0.03543,-0.22663,-0.16249,-3.3,-36.0,-14.16
61.0781,82776.5124,-0.2398432904959515,0.5368248590533409,0.22557024270335546,-0.11118,-0.05559,-0.07453,-3.54,-36.3,-13.98
61.096,82776.5324,-0.36644874162419766,0.40803282909628624,0.2770284955974436,0.04948,0.00672,0.03787,-3.66,-36.12,-14.28
61.1211,82776.5523,-0.42774738653653643,0.40679546874652617,0.24980604067781087,0.09774,0.10996,0.08674,-3.96,-36.12,-14.28
61.1355,82776.5723,-0.43834914667357205,0.5211209477247799,0.14043507493983576,0.03971,0.25412,0.11729,-4.08,-35.82,-13.92
61.1555,82776.5922,-0.40676063713014154,0.6951252337946605,-0.0315651011245226,0.13928,0.22358,0.0672,-4.02,-35.82,-14.1
61.1754,82776.6123,-0.36006890037493056,0.8922353178203908,-0.22858310939527904,0.46242,0.13867,-0.05131,-4.02,-36.06,-13.92
61.2022,82776.6324,-0.31873875718783007,1.0585035501576001,-0.40193497623682006,0.42883,-0.0672,-0.02871,-4.02,-36.36,-13.5
61.2197,82776.6524,-0.27620762383368147,1.2212874606716944,-0.517082961722803,0.1857,-0.06842,0.14478,-4.26,-36.6,-13.68
61.2373,82776.6724,-0.2340215341040279,1.3223531077572084,-0.5484828331083555,-0.00672,-0.05131,0.13622,-4.08,-36.42,-13.98
61.2559,82776.6924,-0.1896946690052958,1.348679029624322,-0.49729646099233626,-0.16616,-0.03054,0.14111,-4.38,-36.42,-13.2
61.2761,82776.7124,-0.1457336491618972,1.315350963543006,-0.38905946641768807,-0.06536,0.0843,0.00794,-4.56,-36.6,-13.68
61.2991,82776.7324,-0.10935609732641675,1.2635849737769422,-0.2649932631230829,-0.08491,-0.06048,-0.0391,-4.02,-36.78,-13.56
61.3221,82776.7524,-0.08415402334546705,1.2241906520866175,-0.16507560472793514,-0.33903,-0.08796,0.07208,-4.2,-36.9,-13.2
61.3384,82776.7723,-0.057585381803661864,1.1998304969163136,-0.1145492517209199,-0.26328,-0.04093,0.06903,-4.14,-36.72,-13.8
61.3583,82776.7934,-0.023914655550908413,1.2120154722916758,-0.12111003582897162,0.10079,-0.1069,0.01344,-3.78,-36.18,-13.62
61.3793,82776.8134,0.02273511078776507,1.2632260627744167,-0.168249586093129,0.20831,-0.10385,-0.00122,-4.2,-35.88,-13.56
61.3982,82776.8333,0.07911648188445558,1.3599503367614159,-0.22709560831283504,-0.03604,-0.05498,0.04093,-4.26,-35.76,-13.68
61.4239,82776.8534,0.12580329657206363,1.4880682391708602,-0.26793183209893456,-0.17349,-0.05864,0.09041,-3.96,-35.88,-13.56
61.4375,82776.8734,0.15600888582029285,1.5882675415802714,-0.2671106603137794,-0.10996,-0.03115,0.07208,-3.9,-36.3,-13.68
61.4575,82776.8933,0.14592461795962813,1.6475634829252241,-0.22371774808430978,-0.05925,0.07941,0.04459,-3.84,-36.3,-13.68
61.4802,82776.9134,0.09158385950497282,1.6398892204324234,-0.1476852608247725,-0.12278,0.02871,0.0336,-3.66,-36.24,-13.68
61.5,82776.9334,0.004748323169211955,1.5696284373602507,-0.060344908328755054,0.01038,-0.26389,-0.06292,-3.9,-36.36,-13.56
61.5178,82776.9533,-0.09197458765211687,1.4557672256372072,0.014869451247202292,0.09529,-0.25595,-0.12401,-4.02,-35.94,-13.68
61.5425,82776.9734,-0.18267237175781925,1.3119227557134427,0.059453585790159025,-0.05498,-0.18204,-0.05925,-4.26,-35.82,-13.86
61.5636,82776.9934,-0.2507502628805698,1.1439065941833588,0.0605985660103574,-0.03848,-0.16249,0.01772,-4.14,-35.88,-13.8
61.5833,82777.0143,-0.29511004859357753,0.9679874259931064,0.008147919219412714,0.16493,-0.33781,0.05925,-4.08,-35.76,-13.98
61.6011,82777.0344,-0.3130302834067973,0.8224882650090555,-0.10519308138098005,0.15882,-0.35919,0.06353,-4.32,-35.88,-13.86
61.6202,82777.0543,-0.31331374838883064,0.7562396527605603,-0.2806442838791412,0.03421,-0.33964,-0.00916,-4.26,-36.0,-13.8
61.6384,82777.0744,-0.2988655967991371,0.8147627734818922,-0.5088879189270052,-0.02016,-0.10385,-0.05131,-4.74,-35.7,-13.98
61.6579,82777.0944,-0.2868927209371457,1.0162508112017938,-0.765752065382511,-0.05376,0.07514,-0.05192,-4.86,-35.64,-14.1
61.6806,82777.1144,-0.29436024200090893,1.3420069597052127,-1.0089642848417224,0.02566,0.07941,0.00367,-4.74,-35.88,-14.28
61.7009,82777.1344,-0.3403017810565601,1.7444420658435549,-1.184068790269663,0.19914,0.15455,0.03299,-4.56,-36.12,-14.22
61.7303,82777.1544,-0.43079195318536145,2.130106735872329,-1.2347066618726217,0.22541,0.03787,0.03482,-4.38,-36.54,-14.34
61.7494,82777.1743,-0.5471525176936352,2.4465463172816477,-1.1375431615484395,0.14844,-0.11362,0.04337,-4.32,-36.54,-14.46
61.7614,82777.1944,-0.67217662573871,2.6083026638032805,-0.8916928518548062,0.01405,-0.27184,-0.00672,-4.26,-36.24,-14.4
61.7815,82777.2144,-0.7995244570223528,2.595731075287541,-0.5358526068486036,-0.11179,-0.39584,-0.12645,-4.2,-35.88,-14.4
61.8039,82777.2354,-0.8984525093241366,2.4623911743102544,-0.13728501973653984,-0.31765,-0.25901,-0.18937,-4.32,-35.52,-13.98
61.8221,82777.2553,-0.9571020958560266,2.26412515358768,0.23379060168691623,-0.53206,-0.17715,-0.17776,-4.86,-35.7,-14.16
61.8503,82777.2754,-0.9494417748671594,2.154448927575146,0.49346553495078105,-0.5681,-0.15516,-0.1295,-4.86,-35.76,-14.28
61.8603,82777.2954,-0.9000209988913022,2.040093510203276,0.6259971123758987,-0.42028,-0.11606,-0.04398,-4.92,-35.88,-14.46
61.8844,82777.3153,-0.7988228757082758,2.0754926433798104,0.6004932763880806,-0.17287,-0.13195,0.02871,-4.74,-35.76,-15.0
61.9004,82777.3354,-0.6594206439109367,2.183216681273122,0.4666429449774885,0.00855,-0.10629,0.06475,-4.56,-35.4,-14.58
61.9221,82777.3554,-0.5335842995117642,2.33242780189291,0.281773687028684,0.00428,-0.10324,0.1295,-4.68,-35.76,-14.7
61.944,82777.3764,-0.460506708871828,2.4558195831786502,0.10905856701345762,-0.06109,-0.13622,0.19548,-4.86,-35.64,-14.52
61.9609,82777.3964,-0.46594489295514785,2.4887705128331232,-0.005618537866061146,-0.05192,-0.19609,0.16371,-4.86,-35.76,-14.52
61.9854,82777.4164,-0.592858866780936,2.4163610223186955,-0.04887755292335605,-0.00305,-0.28955,0.08308,-4.92,-35.82,-14.76
62.0007,82777.4364,-0.7872197401452745,2.249914830784703,-0.020677260824410126,-0.01527,-0.29383,0.01588,-5.16,-35.7,-14.58
62.0206,82777.4564,-1.0256816893726362,2.0530215862811008,0.06418700473211025,-0.0452,-0.18204,-0.04948,-5.4,-36.0,-14.7
62.0433,82777.4764,-1.241914715073023,1.8832712906660807,0.2015935243496756,-0.06231,0.04765,-0.04398,-5.82,-36.12,-14.34
62.075,82777.4964,-1.3835903308006967,1.7848799433603373,0.3931692207124051,-0.01649,0.10629,0.01833,-5.46,-36.24,-14.16
62.0823,82777.5164,-1.4252091266620819,1.7597368458968337,0.6409727797431461,-0.00061,0.01466,0.1124,-5.52,-36.12,-14.28
62.1018,82777.5363,-1.372145792766988,1.7940765912157348,0.9327237829358808,-0.04154,-0.07025,0.17165,-5.58,-35.82,-14.28
62.1206,82777.5564,-1.2368465161304136,1.8214671951196397,1.2454735392716625,-0.04948,-0.05253,0.22663,-5.34,-35.76,-14.58
62.1499,82777.5764,-1.071195068611306,1.7745029619632366,1.5341756072308375,0.0391,0.0562,0.23702,-5.82,-35.52,-14.82
62.1629,82777.5974,-0.8603446551815193,1.6136444250680702,1.7484987735907165,-0.0452,0.21319,0.15394,-5.28,-35.52,-14.88
62.1816,82777.6173,-0.6375620546039535,1.346094571976382,1.8361282610407024,-0.1741,0.4331,0.02016,-4.98,-36.12,-15.0
62.2073,82777.6374,-0.3805710856531116,1.0358552213450372,1.7686060808381505,-0.43616,0.52412,-0.21319,-4.8,-36.0,-15.18
62.2227,82777.6573,-0.22707104830361208,0.6401412590711238,1.5508484101266315,-0.59498,0.37568,-0.32865,-4.32,-36.24,-15.24
62.2428,82777.6773,-0.1045969310209221,0.274664576790518,1.2019974749217344,-0.38179,0.10018,-0.20831,-4.26,-35.76,-15.24
62.2683,82777.6974,-0.0385302407148407,-0.03244230089964178,0.7601231535810733,0.08491,-0.18082,-0.02993,-4.02,-35.4,-15.66
62.2919,82777.7174,0.007429159658046558,-0.2195273976098617,0.27877689307568154,0.43127,-0.39462,0.05498,-3.96,-35.52,-15.6
62.3091,82777.7373,0.0927945150628986,-0.21267012992613854,-0.17488650716134657,0.46059,-0.44471,0.05742,-3.66,-35.4,-15.96
62.3254,82777.7584,0.17850262896970304,-0.0573867001057688,-0.5427873603027749,0.27306,-0.16554,-0.00305,-3.54,-35.82,-15.9
62.3436,82777.7783,0.22060220734063068,0.1662494196558685,-0.7906191870584713,0.11668,-0.00672,-0.05192,-3.54,-35.64,-15.54
62.3633,82777.7984,0.18787831713414713,0.3804258772660144,-0.9104011645634085,0.10873,0.05315,-0.08552,-3.54,-35.88,-15.72
62.384,82777.8184,0.07570606131960603,0.5341685688254418,-0.9184182464477342,0.12217,-0.06781,-0.07086,-3.9,-36.24,-15.36
62.4107,82777.8384,-0.08968095884882597,0.6152024996626259,-0.8513986617925511,0.15027,-0.22785,-0.01405,-3.84,-36.18,-15.3
62.4283,82777.8593,-0.22730540322173182,0.6710268961985493,-0.7585521770097934,0.13622,-0.27855,0.04887,-4.02,-36.54,-15.12
62.4536,82777.8794,-0.3180104274030165,0.7212393181437368,-0.6848217663013525,0.18021,-0.22113,0.11423,-4.2,-36.3,-14.88
62.4669,82777.8994,-0.2963402684764938,0.825641134712792,-0.6645040060456022,0.23274,-0.17715,0.09407,-4.2,-36.54,-14.4
62.4853,82777.9204,-0.2147337757585911,0.9753046770103182,-0.7117406843533267,0.23335,-0.16738,0.10507,-4.38,-36.72,-14.64
62.5044,82777.9403,-0.09843820409041144,1.1706266347421612,-0.8188254732789311,0.29138,-0.18265,0.10201,-4.02,-36.6,-14.82
62.5367,82777.9604,-0.009939233392594737,1.3514993037673215,-0.9514483657097355,0.41172,-0.15394,0.09835,-4.14,-36.84,-14.46
62.5478,82777.9804,0.09366296150750236,1.5920381612356211,-1.0846720506903527,0.37751,-0.16677,0.02382,-4.14,-36.72,-14.4
62.5726,82778.0014,0.14090544276790493,1.7598919777227895,-1.1602486564651642,0.17715,-0.11545,-0.01588,-4.26,-36.72,-13.98
62.5978,82778.0214,0.15023395966156383,1.8613467537131316,-1.1471373935337432,0.05009,0.06414,-0.02871,-4.56,-36.9,-13.68
62.6106,82778.0414,0.12217777706863923,1.8716435839757013,-1.0210605434850173,-0.02932,0.08247,-0.01283,-4.44,-37.14,-13.62
62.6252,82778.0613,0.08446085303114938,1.7926180413834534,-0.782000059210576,-0.10385,-0.02932,-0.00611,-4.14,-37.2,-13.74
62.647,82778.0814,0.060550599115899786,1.6643418828189103,-0.46015834951397494,-0.13928,-0.06292,0.02138,-4.2,-37.62,-13.2
62.6756,82778.1014,0.06171219272009008,1.5290983279608181,-0.10590688841461571,-0.06353,-0.10629,0.06964,-3.78,-37.8,-12.9
62.6912,82778.1213,0.1127726737421646,1.4169784142926298,0.22132180675388824,0.00733,-0.07941,0.11362,-4.02,-37.38,-12.48
62.7093,82778.1424,0.18125153803092692,1.3694434035405472,0.46502296344896443,0.11668,0.04032,0.12095,-4.44,-37.38,-12.72
62.7312,82778.1624,0.23680381124656716,1.3926086819520032,0.5940561122601338,0.22052,0.04948,0.09529,-4.38,-37.2,-13.26
62.7483,82778.1823,0.2572631580982953,1.49777687294096,0.6064383384208938,0.26756,0.08247,0.04398,-4.98,-37.14,-13.38
62.7683,82778.2024,0.2215359657659103,1.6413799552683115,0.538648768399641,0.28283,0.11484,-0.01222,-4.56,-37.62,-13.62
62.7881,82778.2234,0.12640827267837892,1.7918121475433966,0.44739016846303237,0.27306,0.10385,-0.10446,-4.38,-37.38,-13.26
62.8102,82778.2434,-0.01363475734846899,1.8966785048111867,0.39725775540695807,0.26267,-0.02443,-0.1295,-4.32,-37.44,-12.54
62.8287,82778.2633,-0.16509382566013323,1.9373750585743494,0.43139888093624457,0.3207,-0.22052,-0.0898,-3.84,-37.56,-12.3
62.8573,82778.2834,-0.30620643902684014,1.8535650067222398,0.570018702097661,0.30788,-0.3317,0.01283,-3.9,-37.86,-12.3
62.8753,82778.3034,-0.3653161692292707,1.7078377169609495,0.7775441057456778,0.18143,-0.14233,0.08796,-3.54,-37.98,-12.12
62.9034,82778.3244,-0.3718300269105742,1.4925566951939435,1.0007153292773125,0.04765,0.16616,0.12095,-3.42,-37.98,-12.42
62.9152,82778.3444,-0.3615097955799776,1.2295689800276324,1.1653752900370797,-0.14722,0.28039,0.12706,-3.6,-38.28,-12.66
62.9354,82778.3644,-0.38952656608022634,0.9808142997572717,1.1973293868138573,-0.29566,0.20036,0.08369,-3.6,-38.16,-12.18
62.9693,82778.3853,-0.4860924077585823,0.7840827022341144,1.0535113063981,-0.26573,0.00916,0.00733,-4.26,-38.58,-11.94
62.9708,82778.4054,-0.6897293552335799,0.5954519619754375,0.7379566852847059,-0.03604,0.02932,-0.09041,-4.26,-38.34,-11.7
62.9903,82778.4254,-0.9008872147299943,0.4962730318194725,0.30299148595817016,0.09224,0.18021,-0.12462,-4.44,-38.16,-11.94
63.0117,82778.4453,-1.0918155821492215,0.47546449486265274,-0.15718104742778216,0.07269,0.28772,-0.08186,-4.74,-37.74,-12.6
63.029,82778.4654,-1.2380998023865497,0.4994648520721397,-0.5424373584516129,-0.01038,0.23824,0.01588,-4.68,-37.44,-12.78
63.0488,82778.4854,-1.309705440318896,0.5034647623318556,-0.7768882579235061,0.00977,0.09041,0.13378,-4.86,-37.26,-12.6
63.0732,82778.5053,-1.313239700009436,0.4462786629358054,-0.8370413138989221,0.06109,-0.011,0.18998,-5.04,-37.02,-12.18
63.0886,82778.5253,-1.2449511602393595,0.3226008107789252,-0.7506282114078342,-0.01344,-0.09407,0.17715,-4.92,-37.2,-11.76
63.1091,82778.5453,-1.157661165574916,0.17493205489507924,-0.5952658841120879,-0.12767,-0.11729,0.12828,-5.04,-37.32,-11.7
63.1305,82778.5653,-1.067090600460212,0.05414265234418613,-0.4586030620787902,-0.14539,-0.06903,0.06231,-5.22,-37.32,-11.88
63.1544,82778.5853,-0.9811604835564375,0.007588773730305372,-0.4122947574043554,-0.10629,0.05192,-0.0055,-5.22,-37.68,-12.24
63.1732,82778.6053,-0.9086987205805857,0.061793026108060777,-0.4867586600078244,-0.00061,0.24862,-0.04581,-5.04,-37.74,-12.48
63.1936,82778.6253,-0.838823920078744,0.22747817421520444,-0.660438030434241,0.11118,0.3036,-0.00611,-4.62,-37.8,-12.72
63.2178,82778.6453,-0.7669822110445892,0.482060136639677,-0.8754977226840062,0.06903,0.21258,0.04154,-4.02,-38.16,-12.84
63.238,82778.6653,-0.6945526558402565,0.7888561501922886,-1.063929157774016,0.05192,0.10324,0.07819,-3.84,-37.92,-12.12
63.2526,82778.6853,-0.6092453290162944,1.0933075949072184,-1.169634320681551,0.07269,-0.04765,0.1124,-3.66,-37.98,-11.88
63.2689,82778.7053,-0.5236415535055962,1.3494464671867865,-1.165384728425252,0.05681,-0.04643,0.11057,-3.84,-38.46,-11.76
63.2923,82778.7253,-0.4586611631571523,1.535302299238962,-1.0537796426228248,-0.01405,-0.01161,0.05131,-4.32,-38.58,-11.88
63.3102,82778.7453,-0.4278107087224078,1.6436897714530203,-0.8571472639292512,-0.0391,0.06536,0.05253,-4.32,-38.88,-11.76
63.3316,82778.7653,-0.44802197095347773,1.680596979550185,-0.607045769788046,-0.05559,0.05437,0.09224,-4.92,-38.82,-11.94
63.3515,82778.7853,-0.5154116997052957,1.6540663505699236,-0.3326846374474499,-0.05376,-0.00855,0.10079,-4.92,-38.4,-11.82
63.3848,82778.8053,-0.6255239911943932,1.5938174562309062,-0.060779774796758446,-0.07636,-0.08247,0.0788,-4.68,-38.4,-12.0
63.3982,82778.8253,-0.7225443095784894,1.5054196084431237,0.19755138033816344,-0.04337,-0.14722,0.04276,-4.98,-38.34,-12.54
63.4165,82778.8463,-0.8098967284612117,1.4400931150294705,0.4285737449875775,0.01466,-0.18204,0.06781,-4.38,-38.58,-12.48
63.432,82778.8663,-0.8543332670825262,1.4277542817049478,0.6316149476364785,0.03054,-0.2193,0.08247,-4.38,-38.58,-12.54
63.4539,82778.8863,-0.855152284478486,1.481566577593803,0.8095106482541361,0.04337,-0.20831,0.0898,-4.74,-38.58,-12.42
63.4719,82778.9063,-0.7825986736027247,1.5907307809029922,0.9692493202050958,0.01894,-0.15394,0.08858,-4.5,-38.58,-11.88
63.4914,82778.9263,-0.6592369621980213,1.709440368280982,1.111588811009499,0.01038,0.00916,0.09407,-4.62,-38.64,-12.0
63.5124,82778.9463,-0.5212248037053705,1.7697165913218247,1.2306435297152376,-0.02505,0.01894,0.09407,-4.44,-38.82,-11.7
63.5335,82778.9663,-0.4074921785045754,1.7006356727406493,1.3137084415014417,-0.09896,-0.1912,0.08552,-4.32,-38.82,-11.94
63.5516,82778.9863,-0.3272669596763154,1.4668044634527175,1.341080815237813,-0.08002,-0.32926,0.05864,-4.74,-38.82,-12.6
63.5762,82779.0063,-0.27980062494481617,1.110965934610914,1.2875611678196144,-0.11301,-0.22602,-0.05253,-5.04,-38.58,-12.24
63.591,82779.0263,-0.2385408512186607,0.6877219068340475,1.1414794145291438,-0.28955,-0.02321,-0.17776,-5.7,-38.22,-12.12
63.6106,82779.0463,-0.17992985183633384,0.3299037031863745,0.9029347464432824,-0.5229,0.13989,-0.29688,-5.52,-38.04,-12.18
63.6347,82779.0663,-0.10864221068460443,0.09952789113978014,0.5931877048363035,-0.61514,0.17532,-0.29932,-4.86,-38.28,-11.58
63.6556,82779.0863,-0.0748942617246098,-0.028100608960167188,0.24630585488125512,-0.2865,0.09652,-0.19487,-4.44,-38.64,-11.64
63.676,82779.1063,-0.06084708073583038,-0.042605834765262765,-0.0886724762142137,0.17471,-0.18754,-0.1014,-3.6,-38.64,-12.54
63.6924,82779.1263,-0.04160363583761919,0.05206672141189308,-0.35424428679382913,0.36957,-0.32681,-0.10385,-3.72,-38.76,-12.42
63.7149,82779.1463,-0.028183942129656032,0.1899534896644923,-0.5077826439380981,0.21808,-0.21197,-0.08735,-3.84,-38.4,-12.84
63.7394,82779.1663,-0.028882638348645635,0.33630935268325135,-0.5426401618807208,0.02138,-0.18815,-0.09224,-4.02,-38.16,-13.32
63.7547,82779.1863,-0.061641313527694974,0.44538270004833325,-0.4913047275448079,-0.0672,-0.28161,-0.14233,-4.14,-38.64,-12.78
63.7709,82779.2063,-0.13865940501695626,0.5080881646069483,-0.4122804533354394,-0.05009,-0.39095,-0.17898,-3.6,-38.4,-12.9
63.7907,82779.2263,-0.23978635947407043,0.5622654354321864,-0.36908471675557486,-0.0391,-0.38057,-0.17654,-3.78,-38.58,-13.44
63.8155,82779.2463,-0.3267616465207175,0.6561935086232228,-0.4054119374825067,0.05253,-0.25351,-0.10385,-3.84,-38.7,-13.38
63.8335,82779.2662,-0.36472938634947516,0.8266651612332432,-0.5297047268121222,0.07391,-0.14111,-0.09407,-3.9,-38.4,-13.74
63.8539,82779.2863,-0.3609764133537514,1.0555865920812433,-0.7143961430594015,0.04704,-0.06964,-0.07269,-4.32,-38.7,-13.56
63.877,82779.3083,-0.3370747302865036,1.29375891536965,-0.9092980609826515,0.08919,-0.15821,-0.09835,-4.32,-38.7,-13.08
63.9031,82779.3293,-0.3148356773549875,1.4860336713640483,-1.0619941630138623,0.15944,-0.23518,-0.09835,-4.14,-38.64,-13.2
63.9205,82779.3503,-0.29955391555656724,1.6135375040450244,-1.1398508755918737,0.1179,-0.20769,-0.12401,-3.96,-38.34,-13.2
63.9397,82779.3703,-0.29926861078311867,1.6596829143763607,-1.1311395839185572,-0.02077,-0.09774,-0.14355,-3.78,-38.34,-12.78
63.9563,82779.3903,-0.31569084675320364,1.6430083469325785,-1.0469743137085068,-0.12706,-0.05315,-0.16493,-3.6,-38.4,-12.48
63.9769,82779.4103,-0.33778305891571236,1.5984009820618963,-0.9106524880810873,-0.15699,-0.06292,-0.13195,-3.84,-38.58,-12.18
63.9978,82779.4303,-0.3575354638779117,1.552643665448454,-0.7448765388785681,-0.06903,-0.16921,-0.04887,-3.66,-38.76,-11.82
64.0257,82779.4503,-0.3565588312317004,1.5254328724868635,-0.5630976986780851,0.02871,-0.14783,0.00244,-3.3,-38.58,-12.0
64.0362,82779.4703,-0.29474400428683106,1.5296592646024039,-0.3649752030687452,0.12034,-0.02932,0.0452,-3.42,-38.46,-12.42
64.06,82779.4903,-0.1880523701989878,1.5327875637431372,-0.1374086051414558,0.0898,0.1124,0.04032,-3.6,-38.28,-12.42
64.0778,82779.5103,-0.05982646877341644,1.528563698631707,0.12589391171648145,0.11118,0.12645,0.04643,-4.14,-38.4,-12.48
64.0962,82779.5303,0.04600796914457608,1.495706779596156,0.42085297647568076,0.22052,-0.08552,0.05925,-4.26,-38.82,-12.66
64.1143,82779.5503,0.09783868087355355,1.4457262262013915,0.7208832746577567,0.3207,-0.35308,0.10568,-4.14,-38.94,-12.3
64.1342,82779.5703,0.08365501137248382,1.404239133095994,0.983854823974653,0.32681,-0.54306,0.1014,-3.84,-39.36,-12.36
64.1558,82779.5903,0.029795586546079673,1.4046266207964195,1.1676720736001176,0.37813,-0.46731,0.06597,-3.18,-39.78,-11.7
64.1776,82779.6103,-0.025766225896387062,1.4729453779398802,1.2505786704344164,0.49114,-0.15149,-0.08858,-3.66,-39.78,-11.46
64.1967,82779.6303,-0.07982930954313434,1.6109598047831877,1.2397741720794588,0.44166,0.10507,-0.22174,-3.42,-39.84,-11.16
64.2189,82779.6503,-0.14348929549585987,1.739304299880654,1.1696452587403936,0.17349,0.16188,-0.22846,-3.48,-39.96,-10.56
64.2361,82779.6703,-0.25492341653105954,1.802552692961547,1.0699232088026722,0.02077,0.24984,-0.20159,-4.26,-39.6,-10.74
64.2586,82779.6903,-0.3850936107834856,1.7185844182441876,0.9627829483291706,0.02321,0.30421,-0.22174,-3.48,-39.78,-10.38
64.2772,82779.7113,-0.5627810499242212,1.4761251490513638,0.8432990787801309,-0.11057,0.25534,-0.2193,-3.72,-39.72,-10.26
64.2973,82779.7313,-0.76049135003509,1.1129545133125331,0.6936324277549257,-0.29138,0.11423,-0.21869,-3.36,-39.48,-10.08
64.3149,82779.7513,-0.9756429174282883,0.6925677331466208,0.49505676454285386,-0.29505,0.07697,-0.24007,-2.76,-39.66,-10.44
64.3385,82779.7712,-1.1506945505291857,0.3076149936498167,0.247177534636025,-0.13744,0.25656,-0.27184,-3.24,-39.66,-10.56
64.3584,82779.7913,-1.291175302902925,0.023750049097968667,-0.029447645699788083,-0.04154,0.42394,-0.2529,-2.82,-40.02,-10.68
64.3814,82779.8113,-1.3428326307133043,-0.11840176727419076,-0.2865378835249164,-0.21441,0.48075,-0.17471,-2.88,-40.08,-11.4
64.3993,82779.8313,-1.3340019283924034,-0.14559115714730086,-0.48441202889674173,-0.3653,0.46976,-0.05376,-2.46,-40.08,-11.22
64.4231,82779.8513,-1.2318483584210256,-0.09573438415722382,-0.5927266567023821,-0.22785,0.40012,0.01344,-2.16,-39.84,-11.64
64.4378,82779.8713,-1.099645416849801,-0.031376818202751566,-0.6218666187993378,-0.00489,0.20281,0.03115,-1.8,-39.54,-11.58
64.4698,82779.8923,-0.9704012296880361,0.04097733629259568,-0.6024651359459945,0.05253,-0.11729,0.09407,-1.26,-39.6,-11.64
64.4785,82779.9123,-0.8021426317237904,0.13574801998489844,-0.5743146587537531,0.0562,-0.30116,0.12095,-1.74,-39.12,-11.88
64.4967,82779.9323,-0.669721758091784,0.26564797237362664,-0.5878317899530163,0.02138,-0.23763,0.10263,-1.32,-39.18,-11.76
64.5198,82779.9523,-0.5456225986044039,0.44170798756569707,-0.6605906934503167,-0.03238,0.03238,0.06475,-1.38,-38.82,-12.36
64.5385,82779.9723,-0.4359100845237689,0.6495343229657268,-0.7755922007388012,-0.05376,0.31582,-0.01649,-1.68,-39.06,-12.48
64.5588,82779.9923,-0.34780383692664246,0.8636876326431284,-0.8799569833392322,-0.06292,0.33537,-0.01527,-1.26,-39.66,-12.24
64.5779,82780.0123,-0.28267834554746846,1.047701128531348,-0.903612638106992,-0.04826,0.0507,0.06903,-1.38,-39.66,-12.06
64.5973,82780.0323,-0.22281384820933897,1.1689971012612446,-0.7875543547553523,0.03299,-0.15027,0.14783,-1.32,-40.08,-12.0
64.6191,82780.0533,-0.16323760587358066,1.2082672971987767,-0.5104330537738875,0.01405,-0.10263,0.14844,-1.32,-39.84,-11.88
64.6381,82780.0733,-0.11132060138921673,1.1610460080306981,-0.10195630076081308,-0.02199,0.02321,0.12034,-1.86,-39.54,-12.0
64.6581,82780.0933,-0.10685567253776443,1.0482379724318331,0.3572790632058851,-0.0391,0.09224,0.05376,-1.92,-39.36,-12.54
64.6794,82780.1133,-0.17647245403323128,0.9130932976615559,0.7546941940861966,0.05742,0.01955,0.01833,-2.22,-39.72,-12.18
64.7024,82780.1343,-0.32224190896652416,0.816416552327865,0.9772692367668174,0.21686,-0.06109,-0.13867,-2.1,-39.66,-12.24
64.7219,82780.1543,-0.5470616784558078,0.8240586258333397,0.948305692152493,0.23702,0.21502,-0.3317,-1.92,-39.96,-12.06
64.7394,82780.1743,-0.8302088006690366,0.9627649436883456,0.6597619136887545,0.30238,0.19059,-0.36408,-1.98,-40.14,-11.52
64.7592,82780.1941,-1.120373795407588,1.2044758091117524,0.18707597397838605,0.59865,-0.46181,-0.37141,-1.92,-39.84,-11.34
64.7826,82780.2153,-1.3560457630084548,1.513264410411114,-0.32837099091300814,1.07757,-0.71838,-0.4215,-1.98,-39.78,-10.86
64.8102,82780.2363,-1.4815054391271716,1.8591000726854179,-0.7283932162207858,0.88637,-0.4777,-0.35125,-1.8,-39.78,-10.62
64.8289,82780.2573,-1.4452956202537122,2.233114728001799,-0.9008121358176098,0.25045,-0.46609,-0.08002,-1.56,-39.72,-10.08
64.845,82780.2773,-1.2744925190627605,2.476118370401151,-0.7806227964287036,-0.09652,-0.51252,0.22358,-1.08,-40.14,-9.54
64.8697,82780.2973,-1.0274747535460824,2.534802287317084,-0.3945981274290542,-0.14416,-0.4777,0.23763,-0.6,-40.38,-8.88
64.8862,82780.3171,-0.690744250927383,2.332752215643879,0.1873109400413817,-0.21686,-0.17226,0.26817,-0.18,-39.96,-8.76
64.9072,82780.3373,-0.34288284541982617,1.9440295716423812,0.8080414514160967,-0.28527,0.11057,0.27978,-0.3,-40.2,-8.76
64.9237,82780.3573,-0.04410418903888807,1.4176600210927695,1.3240657772291726,-0.31337,0.11118,0.27,-0.36,-39.9,-8.76
64.9571,82780.3783,0.07471875169470076,0.9359690621776252,1.6136683503479308,-0.27917,-0.3708,0.18815,-0.96,-39.6,-8.94
64.9756,82780.3983,0.07785540990209316,0.43282867818904114,1.6360979169268894,-0.35919,-0.59682,0.14111,-1.32,-39.96,-9.06
64.9867,82780.4183,-0.029419040791097455,0.01519098220516226,1.3873824898047804,-0.34514,-0.38362,-0.04765,-1.62,-39.84,-9.36
65.0068,82780.4383,-0.19591081531285764,-0.22599460536057545,0.9335894794733584,-0.1014,0.10873,-0.28222,-2.16,-39.96,-9.12
65.0313,82780.4583,-0.3521663958010551,-0.2954932874315621,0.3883488646782318,0.05864,0.27,-0.44899,-2.46,-40.14,-9.72
65.0474,82780.4783,-0.5114701956836947,-0.17800662934904823,-0.12918492306294027,0.06597,0.19303,-0.37385,-2.52,-40.14,-9.54
65.0666,82780.4993,-0.5728611490559292,0.055580286739559406,-0.5298416809925826,0.09041,-0.05559,-0.12401,-2.28,-40.38,-9.54
65.0858,82780.5203,-0.5041186461808107,0.3366906434155779,-0.7778172070939853,0.17471,-0.05009,-0.05559,-1.8,-39.9,-9.96
65.1053,82780.5413,-0.30939792750111866,0.5975009241629516,-0.8887878052060607,0.18509,-0.10324,-0.05681,-1.38,-40.02,-9.42
65.1249,82780.5613,-0.0465902717464787,0.8001848907673832,-0.9151562226842156,0.1967,-0.09407,0.00061,-0.9,-39.96,-9.36
65.1449,82780.5813,0.19855330982714003,0.9353018467932128,-0.9205727035792268,0.16005,-0.11057,0.02321,-0.9,-39.6,-9.54
65.165,82780.6013,0.3493587035147744,1.0116745204400202,-0.9527813114533732,0.13134,-0.08858,-0.08308,-0.72,-39.6,-9.54
65.1867,82780.6213,0.3640650619382914,1.0437566000783958,-1.025463480208085,0.08063,-0.08491,-0.25107,-0.48,-39.42,-9.84
65.2098,82780.6413,0.24626359064418543,1.0503820566899733,-1.116791787991394,0.06903,-0.16188,-0.26084,-0.78,-39.42,-10.2
65.2301,82780.6613,0.04103759475480648,1.050989937617664,-1.1826080058157427,0.11912,-0.3036,-0.17104,-0.6,-39.18,-9.78
65.2467,82780.6813,-0.17733793107973345,1.0547874726215298,-1.1752943298958005,0.20159,-0.3769,-0.0788,-0.6,-39.54,-9.42
65.2649,82780.7013,-0.35205802271137254,1.0565866902972874,-1.0617180475644936,0.24312,-0.32681,-0.06109,-0.6,-39.78,-9.24
65.2849,82780.7213,-0.4544834725917267,1.0603351062059585,-0.839063044808162,0.20647,-0.41172,-0.01833,-0.24,-39.78,-8.88
65.305,82780.7413,-0.46958651340742896,1.0747577763966756,-0.5365175723172779,0.16921,-0.68906,0.07025,-0.06,-39.96,-8.58
65.3259,82780.7623,-0.4036519840572265,1.1026361967731648,-0.20812392816629455,0.07697,-0.58399,0.1124,-0.36,-40.26,-8.46
65.3463,82780.7823,-0.2851325700328133,1.1380721866015155,0.08309546174699456,-0.21747,0.2981,0.0507,0.06,-39.84,-8.64
65.3687,82780.8023,-0.17377269393858255,1.1725636741433405,0.2865269100706449,-0.15944,0.43066,-0.11301,-0.36,-39.42,-8.34
65.3897,82780.8233,-0.13995465471404842,1.1982511897761579,0.38147339926627133,0.05009,0.20464,-0.0843,-0.3,-39.78,-8.34
65.4098,82780.8443,-0.2012837695334574,1.2251212579655495,0.37620509491023135,0.03054,0.10507,-0.02993,0.0,-39.36,-8.28
65.4367,82780.8643,-0.31260016557538467,1.2619770672467743,0.29805620356846596,-0.01527,0.39156,-0.0898,-0.12,-39.72,-7.74
65.4586,82780.8843,-0.45755234257817873,1.333054519209722,0.17570068583942344,0.09529,0.49175,-0.10751,0.18,-39.78,-7.98
65.4705,82780.9043,-0.6265743810325091,1.4580629711948117,0.030734891001502618,0.25229,0.43433,-0.07575,0.12,-39.6,-8.34
65.4911,82780.9243,-0.7761073229768619,1.5891536328927234,-0.11039774609440833,0.24312,0.48381,0.08002,0.0,-39.6,-8.64
65.5114,82780.9443,-0.9213014325785011,1.7523022037302665,-0.23563021938611328,0.56933,0.49908,0.1014,-0.06,-39.42,-9.0
65.5346,82780.9643,-1.0560304234049078,1.935453276674495,-0.32094546777452315,0.70066,0.19731,-0.06353,0.0,-39.48,-8.64
65.5493,82780.9843,-1.169520013312907,2.1738113982554186,-0.3484361533867659,0.34453,0.40561,0.1069,-0.12,-39.66,-8.16
65.5703,82781.0043,-1.2708153344439317,2.3503985877269944,-0.2738372524384509,-0.01222,0.53817,0.10629,-0.06,-39.48,-7.5
65.5887,82781.0243,-1.373932154286957,2.3989229765839433,-0.07448762444046686,-0.37874,0.70311,0.21991,0.0,-39.48,-7.44
65.6082,82781.0443,-1.477920497657827,2.263244090961359,0.24958679654564087,-0.14172,0.77885,0.281,0.0,-39.6,-7.38
65.628,82781.0643,-1.5810637666306868,1.9530239561880949,0.6533498021459785,-0.00672,0.19792,0.35919,0.24,-39.48,-7.5
65.6503,82781.0843,-1.6907764390078182,1.5406832995994928,1.0504590270763128,-0.42394,0.39645,0.5962,0.12,-39.84,-7.26
65.669,82781.1043,-1.8023424341287573,1.081200136697945,1.3429691736368934,-0.49786,0.39279,0.59193,0.0,-39.66,-6.78
65.6882,82781.1243,-1.9446782269226224,0.6580406207513992,1.4292964363732974,-0.05437,0.25107,0.5174,-0.24,-39.66,-7.14
65.7089,82781.1443,-2.1300316639203505,0.33273233803572905,1.2544634786276934,0.20342,0.39706,0.49114,-0.66,-39.36,-7.14
65.7388,82781.1643,-2.3522581233359334,0.12742261321681275,0.8376510443868437,-0.00672,0.92302,0.49175,-0.78,-39.36,-7.68
65.7537,82781.1843,-2.6662665648782617,0.08113146480800192,0.2516842590157111,-0.07575,1.18935,0.49236,-1.2,-39.48,-7.38
65.7698,82781.2053,-3.0422940002507506,0.09822484070976936,-0.37948098258216767,0.00611,1.10383,0.50763,-1.26,-39.54,-7.26
65.7904,82781.2253,-3.4374618773883876,0.08992392399991234,-0.9371995626370282,0.03604,1.12888,0.62553,-1.8,-39.42,-7.74
65.8147,82781.2453,-3.796524506002848,-0.00367453296244359,-1.3381203489239812,0.01222,1.16614,0.77213,-1.98,-39.24,-7.56
65.8313,82781.2653,-4.064440975423374,-0.16375757120546952,-1.545000344992241,-0.07269,1.29931,0.90713,-1.92,-38.82,-8.28
65.8558,82781.2853,-4.185527651037598,-0.46662732481029373,-1.556584141436689,-0.17043,1.58336,0.9334,-2.28,-39.12,-8.1
65.874,82781.3053,-4.196701287665718,-0.8274738299874834,-1.4358105171168098,-0.19364,1.98043,0.97066,-2.52,-38.94,-8.04
65.8903,82781.3253,-4.127503707081068,-1.240323978635553,-1.246430786260511,-0.15516,1.94805,0.96944,-2.88,-38.76,-8.46
65.9125,82781.3453,-3.962361404022195,-1.7027000034871136,-1.0251858867957395,-0.23457,1.89551,0.95723,-3.66,-38.7,-8.58
65.9329,82781.3653,-3.76031897036814,-2.124450056858574,-0.8166831647788406,-0.3769,1.9004,0.95906,-4.02,-37.8,-9.54
65.9498,82781.3853,-3.526820645492045,-2.4548702192997958,-0.6314211113294519,-0.4496,1.98287,0.96211,-3.96,-37.8,-9.3
65.9726,82781.4053,-3.150949638287737,-2.6578360273947474,-0.43571008927288624,-0.45387,2.24982,1.02381,-4.44,-37.56,-9.9
66.0145,82781.4253,-2.4473784136122143,-2.6672326721195545,-0.18245675900011626,-0.40012,2.51066,1.1472,-4.5,-37.26,-10.56
66.0352,82781.4463,-1.994253224038297,-2.428501531236936,-0.023650600988274206,-0.47037,2.49661,1.24189,-4.86,-37.26,-10.74
66.0441,82781.4663,-1.6804637752803597,-2.036896474689253,0.08671495412948538,-0.57177,2.24921,1.3042,-4.98,-36.96,-11.88
66.0574,82781.4863,-1.3491551545165075,-1.5455108809571514,0.1869254250377086,-0.7477,2.08794,1.44531,-5.22,-36.78,-12.42
66.0722,82781.5063,-1.01098843931147,-1.044372011771711,0.27020670865028684,-0.76908,1.68782,1.43004,-5.76,-37.08,-12.84
66.0958,82781.5263,-0.6209695576420594,-0.546322678333421,0.3505764388901884,-0.68967,1.6133,1.31641,-5.88,-37.2,-13.38
66.1159,82781.5463,-0.168866429414869,-0.11930158426254123,0.4393927434123217,-0.84055,2.12276,1.24617,-6.9,-36.9,-14.04
66.1303,82781.5673,0.3159353477921412,0.17859555184868728,0.5609527894842099,-1.08367,2.43185,1.33841,-7.14,-36.24,-15.06
66.1505,82781.5873,0.7674670229765411,0.4620654096312472,0.731681823500395,-1.2596,2.19362,1.53083,-7.32,-35.16,-16.08
66.1704,82781.6073,1.1491005560631935,0.6123079126895743,0.941645612100924,-1.16187,1.39888,1.5913,-7.74,-34.26,-16.98
66.1958,82781.6272,1.4191816195380833,0.6503990790517497,1.137531350279712,-0.67928,0.79596,1.36101,-7.92,-33.78,-18.3
66.2116,82781.6473,1.663513181727095,0.5836661570172619,1.2276122211664404,-0.08002,0.63408,1.10872,-8.4,-33.54,-18.9
66.2321,82781.6673,1.778220644879082,0.5382351163797188,1.1637235429386354,0.23213,0.92302,1.05619,-8.88,-33.96,-19.74
66.2696,82781.6873,1.7555347704591815,0.5842839047832972,0.9488839544740699,0.15516,0.98349,1.09956,-9.54,-34.02,-20.34
66.2889,82781.7073,1.5370031684920498,0.6758963583347724,0.6541603370933515,0.02566,0.84971,1.06474,-9.96,-33.78,-20.34
66.2977,82781.7283,1.2276743256794551,0.8085524794682883,0.3476688155445178,0.13928,0.58338,0.90347,-10.32,-33.24,-20.46
66.316,82781.7483,0.9119009066364062,0.947757648496581,0.10146241981899173,0.30849,0.34086,0.86621,-10.44,-32.58,-20.22
66.3373,82781.7683,0.6615670983897433,1.094708942355927,-0.036256121161752475,0.41783,0.22113,0.87048,-10.86,-32.1,-20.46
66.3576,82781.7883,0.4974669015024575,1.2712112980854264,-0.051975309638930156,0.39156,0.33292,0.82894,-11.22,-31.98,-20.22
66.3772,82781.8083,0.4106987482632117,1.4518244214030003,0.035780532423999034,0.26084,0.52168,0.80207,-11.7,-32.04,-20.28
66.3966,82781.8283,0.3872660868751254,1.5869080476228528,0.18447450858026748,0.06414,0.5455,0.69761,-11.94,-32.22,-20.34
66.4128,82781.8483,0.42137431743330583,1.6312750251580528,0.3391105005240789,-0.0843,0.4105,0.54611,-12.42,-32.16,-20.28
66.4347,82781.8683,0.48029378219375146,1.5707253691988332,0.4442565106142844,-0.03299,0.3488,0.43066,-13.02,-32.1,-20.52
66.4566,82781.8883,0.5326361512220088,1.4381835857815077,0.454364515017577,0.10201,0.3488,0.35186,-13.14,-31.86,-20.58
66.4777,82781.9083,0.5216986411630508,1.287000862979103,0.3510011417340131,0.14355,0.48381,0.27306,-13.92,-31.08,-20.22
66.4938,82781.9293,0.4089360764140023,1.1523155279387152,0.14939580461014756,-0.04154,0.56627,0.30238,-13.86,-30.78,-20.16
66.5149,82781.9493,0.20904711563334621,1.0650351768301445,-0.11083395112023275,0.01344,0.47342,0.35675,-13.8,-30.9,-19.98
66.533,82781.9693,-0.04165399795670583,1.0220665031397533,-0.3708692856820601,0.22846,0.42883,0.32559,-14.28,-30.96,-19.98
66.5569,82781.9893,-0.2786429123109538,1.018349992175364,-0.5708970542983405,0.32742,0.3653,0.30177,-14.28,-31.32,-20.46
66.5733,82782.0093,-0.49448679364215403,1.0555418357404143,-0.6713276723773127,0.2865,0.34392,0.30177,-14.64,-31.8,-20.4
66.5958,82782.0293,-0.6448876262296732,1.0987087134376166,-0.6608872911064214,0.07147,0.29322,0.36469,-14.58,-31.92,-20.4
66.6134,82782.0493,-0.7230300010727655,1.1488239942620506,-0.5684983631585094,-0.09774,0.17593,0.42944,-14.46,-32.16,-20.4
66.6351,82782.0693,-0.7431105117388016,1.1932231608122301,-0.4477119453211209,-0.12767,0.19792,0.43799,-14.64,-32.16,-20.1
66.6544,82782.0893,-0.7178947481879793,1.2458703999366436,-0.3611090671581074,-0.09591,0.44227,0.40561,-14.64,-31.86,-20.34
66.6737,82782.1093,-0.6916070617813515,1.3084300735656431,-0.3564601442553901,-0.12278,0.54367,0.32987,-14.76,-31.2,-20.16
66.6941,82782.1293,-0.7002777505471391,1.3768426455641494,-0.4479164247259142,-0.11545,0.3934,0.2865,-14.82,-31.2,-20.4
66.7152,82782.1493,-0.7587224789448068,1.445923422463692,-0.612179109718646,0.00611,0.2419,0.33475,-14.58,-31.02,-20.28
66.7329,82782.1693,-0.8576905863252613,1.523749552934706,-0.8005678135910301,0.0672,0.26267,0.39584,-14.76,-30.78,-20.16
66.7565,82782.1893,-0.9816987875595969,1.5974313887420004,-0.9529569230395936,0.02932,0.2022,0.42272,-14.82,-30.96,-20.4
66.7856,82782.2093,-1.1047676927486152,1.6567174382670424,-1.0188780994729179,-0.06231,0.20831,0.38668,-15.18,-30.6,-20.7
66.7997,82782.2293,-1.1728741566294987,1.706911536830934,-0.9687833710111224,-0.09591,0.17287,0.29932,-15.3,-30.18,-21.42
66.8213,82782.2493,-1.2045601535993067,1.707944153903899,-0.7986535964869326,-0.1014,0.06842,0.23457,-15.3,-30.36,-21.48
66.8387,82782.2693,-1.18226200348291,1.6746730500900497,-0.5332852848817353,-0.18143,0.06353,0.22724,-15.54,-30.06,-21.78
66.8546,82782.2903,-1.127751524765747,1.6277269702910142,-0.2205954597468569,-0.2926,0.14233,0.22297,-15.78,-30.12,-21.54
66.879,82782.3103,-1.0890058261866955,1.5980865615170956,0.07943955513145262,-0.18387,0.15882,0.18326,-16.14,-30.42,-21.24
66.9007,82782.3302,-1.057828485142794,1.6026252583784546,0.31970784129849683,-0.11423,0.33353,0.19792,-16.56,-30.0,-21.48
66.919,82782.3503,-1.0435553590263347,1.63351193610118,0.46919627002350595,-0.10385,0.39889,0.25595,-16.56,-29.94,-21.3
66.9563,82782.3703,-1.0338841021184182,1.6840940373352897,0.5205507459391239,0.03299,0.4612,0.24923,-16.38,-29.28,-21.42
66.9577,82782.3903,-1.0855822786512705,1.6889630020902546,0.49172118110153207,0.27245,0.34453,0.15638,-16.32,-28.92,-21.6
66.9747,82782.4103,-1.1132642390875918,1.6437548462338312,0.42302542407398214,0.40745,0.23396,0.14416,-16.44,-28.86,-21.3
66.9974,82782.4303,-1.1452126064288997,1.53910101963075,0.3524895399650845,0.34636,0.17165,0.20036,-16.62,-28.74,-21.24
67.0137,82782.4503,-1.2277713475795344,1.4154810975790406,0.30663449636792706,0.28588,0.17654,0.21991,-16.86,-29.1,-21.06
67.0362,82782.4703,-1.3165895160105794,1.290181150469418,0.3169879214153344,0.25901,0.26145,0.21258,-17.58,-28.92,-21.18
67.054,82782.4903,-1.4008816671515223,1.1975606913915275,0.3946344975569609,0.18631,0.41966,0.23335,-17.64,-29.16,-21.48
67.0738,82782.5102,-1.4252661235507214,1.1418401559538633,0.5422518727463697,0.17349,0.61636,0.38729,-17.34,-29.1,-21.66
67.0934,82782.5303,-1.3655936960428978,1.1146455119412906,0.7392129986851508,0.1857,0.63225,0.51313,-17.46,-29.1,-21.84
67.1147,82782.5503,-1.2284244192198464,1.0954675587135638,0.9431670077321215,0.06048,0.52168,0.4893,-16.86,-29.16,-21.72
67.1353,82782.5703,-1.054183001788091,1.0643661707879393,1.0960890606132434,-0.23091,0.15333,0.34758,-16.86,-28.98,-21.66
67.1554,82782.5903,-0.8884125585507383,1.00437273149834,1.139244151001952,-0.43982,-0.11484,0.23213,-17.22,-29.1,-22.02
67.1758,82782.6103,-0.7707331201618215,0.9102242059029333,1.0296850432827949,-0.38362,0.02138,0.30238,-17.1,-28.8,-22.02
67.1972,82782.6313,-0.7234433801393116,0.7882464082961674,0.7626779745498631,-0.06536,0.24862,0.34941,-17.4,-28.62,-22.14
67.2167,82782.6523,-0.7578567205040762,0.6573802320380565,0.3856010671748873,0.24557,0.3824,0.35858,-17.46,-28.44,-22.02
67.2375,82782.6723,-0.8594510363936453,0.5428731051744229,-0.011836028539434551,0.36652,0.33231,0.3879,-17.46,-28.26,-21.96
67.2592,82782.6933,-0.9813734678642045,0.48414452514894646,-0.33490011829549715,0.26695,0.28588,0.37018,-17.7,-28.32,-21.9
67.2788,82782.7133,-1.0581642630920853,0.510133310813834,-0.5225620914530662,0.01527,0.3488,0.29077,-18.06,-28.26,-21.72
67.3007,82782.7333,-1.0346523135820855,0.6152057039794351,-0.5677513262706899,-0.15272,0.42394,0.1967,-18.18,-28.44,-21.9
67.326,82782.7533,-0.9103350188147667,0.7618836191682098,-0.5186330619834614,-0.16432,0.28833,0.15027,-18.18,-28.38,-21.78
67.3377,82782.7732,-0.7065602990127285,0.8951850669888993,-0.45650438670047677,-0.10385,0.09468,0.14111,-18.36,-28.08,-22.14
67.3604,82782.7933,-0.5238557373365075,0.9763848019724796,-0.471448008810027,0.04215,-0.0452,0.06964,-18.18,-27.9,-22.32
67.3808,82782.8133,-0.4323844504611567,0.993384389182562,-0.6170346824174864,0.16005,0.10446,-0.09285,-18.48,-27.6,-22.62
67.3995,82782.8332,-0.4772922616118209,0.9392641182824943,-0.8867212687171069,0.15272,0.23824,-0.20892,-18.18,-27.54,-22.56
67.4215,82782.8533,-0.6392818322149906,0.8293914805747064,-1.216440826076603,0.10568,0.35125,-0.25595,-17.76,-27.72,-22.26
67.4379,82782.8733,-0.8719762420743961,0.6481125579949227,-1.5081721190769422,0.04887,0.41172,-0.2138,-17.22,-27.78,-22.26
67.4575,82782.8933,-1.0897491832024373,0.4607272637319208,-1.6742727399761712,0.08796,0.24251,-0.12278,-16.62,-27.96,-22.38
67.4788,82782.9133,-1.2370650095036873,0.30553961720384354,-1.6594096582702047,0.11179,0.02749,-0.08919,-16.32,-28.08,-22.62
67.4974,82782.9333,-1.293170869534514,0.21966539243108374,-1.4560011204452508,0.03176,-0.03054,-0.06964,-16.08,-28.14,-22.86
67.5174,82782.9533,-1.2676747321671507,0.22208043885906584,-1.0977921126585937,-0.06903,-0.04887,-0.02993,-15.78,-28.38,-22.98
67.5441,82782.9733,-1.2057905488803824,0.30874451109102596,-0.6473683951998908,-0.15088,0.04215,0.00061,-16.08,-28.38,-23.16
67.56,82782.9933,-1.1330553653753688,0.442592931215652,-0.1717185313005647,-0.18448,0.14355,0.00672,-16.26,-28.38,-23.16
67.5801,82783.0133,-1.1160999102462406,0.5975605649356864,0.2648758030461078,-0.10873,-0.00672,0.02382,-16.26,-28.56,-23.28
67.5979,82783.0333,-1.1799565071920544,0.7486327561452027,0.6234734388514411,-0.09774,-0.05742,0.01038,-16.86,-28.44,-23.46
67.6176,82783.0533,-1.336481036433288,0.8905550986252098,0.8891941406091188,-0.14294,-0.04765,0.03787,-16.56,-28.32,-23.46
67.6377,82783.0733,-1.5523549361432494,1.0300074538731858,1.0709991126481633,-0.17654,0.0281,0.04093,-16.62,-28.5,-23.28
67.658,82783.0933,-1.7544860324953118,1.1669493370887734,1.1951721307757133,-0.23274,0.12767,0.01833,-16.98,-28.02,-23.28
67.6804,82783.1133,-1.8519019045843168,1.2916549355981273,1.2951015258582181,-0.31032,0.13195,-0.02199,-16.5,-28.2,-23.04
67.6997,82783.1333,-1.7450588767418114,1.3831918289563172,1.402668914880902,-0.29566,0.0,-0.02016,-16.5,-28.2,-22.92
67.7244,82783.1533,-1.4309624763562103,1.433637740726431,1.5204938057119364,-0.2584,-0.25717,-0.08125,-16.32,-27.96,-23.46
67.74,82783.1733,-0.9082718722877958,1.445466952608371,1.6320414274150625,-0.30971,-0.39462,-0.18937,-16.5,-27.96,-23.76
67.7606,82783.1943,-0.3315443781898007,1.4163696331316429,1.6890357018704236,-0.47586,-0.35797,-0.24618,-16.86,-27.6,-24.18
67.7834,82783.2143,0.1919677552739589,1.3567155062476943,1.6418200724607086,-0.58765,-0.21014,-0.2474,-17.22,-27.18,-24.54
67.8031,82783.2343,0.6045607471127229,1.2665172625932244,1.4442286300309206,-0.4386,-0.05559,-0.24923,-17.58,-27.0,-24.24
67.8231,82783.2543,0.8296346546805565,1.1651451844684855,1.0761236123925482,-0.10996,-0.01955,-0.25656,-16.92,-27.0,-24.12
67.8436,82783.2743,0.8397137607397499,1.0807758183638245,0.5681833705179535,0.2193,-0.01955,-0.26939,-16.74,-27.0,-24.12
67.8599,82783.2953,0.6188042784541955,1.040354945915847,0.002203986390428625,0.47403,0.09591,-0.14294,-16.74,-27.06,-24.06
67.8796,82783.3153,0.2533037533644486,1.0610607434048878,-0.5277623527361506,0.49114,-0.00733,0.07575,-16.56,-27.18,-24.18
67.9007,82783.3353,-0.1753792146056449,1.1299218863325553,-0.9467422649429302,0.44838,-0.22113,0.2364,-16.92,-27.24,-24.06
67.9252,82783.3563,-0.562880012623319,1.213997581641805,-1.2270171498449916,0.37324,-0.45937,0.24129,-16.56,-27.12,-23.76
67.9407,82783.3763,-0.8669522234836567,1.341338461401869,-1.400189204070971,0.30299,-0.51007,0.14416,-15.9,-27.36,-23.28
67.9607,82783.3963,-1.0421824874232188,1.421930726013866,-1.5041657032225437,0.28161,-0.34453,0.02627,-15.9,-27.24,-23.16
67.9834,82783.4163,-1.1272695041664578,1.4451542253649245,-1.588752093434172,0.2981,-0.18021,-0.05742,-15.9,-27.36,-22.92
68.0026,82783.4363,-1.1799024402363232,1.3951999256820122,-1.6782303809118666,0.12156,0.08552,-0.07025,-16.14,-27.48,-22.5
68.0253,82783.4563,-1.2212150360534102,1.2713325418353663,-1.7624837694582158,-0.08308,0.1576,-0.02566,-16.74,-27.36,-22.26
68.0431,82783.4763,-1.2591107397608452,1.0918143870590584,-1.811563162663039,-0.02505,-0.07208,-0.04887,-16.8,-27.6,-22.02
68.0656,82783.4962,-1.290111305532162,0.9032576153934048,-1.7918691452515674,0.13744,-0.18326,-0.07575,-17.22,-27.36,-21.9
68.0846,82783.5173,-1.3160806892714993,0.7567613062826195,-1.6768359498779493,0.03299,-0.08491,-0.06597,-17.46,-27.24,-22.02
68.1012,82783.5373,-1.335426599592463,0.6887259903348827,-1.4526581137634214,-0.08308,0.01344,-0.00977,-17.7,-27.0,-22.02
68.1206,82783.5573,-1.347291255448662,0.7133638929151763,-1.1242186974925055,-0.06781,-0.00428,0.0672,-18.18,-26.64,-21.48
68.1409,82783.5772,-1.3502958051080998,0.8214799251980405,-0.7154020242813495,-0.03054,-0.08735,0.19242,-17.88,-26.88,-21.54
68.1629,82783.5973,-1.3461713482115618,0.9867760528100744,-0.26580554356529973,0.02077,-0.15149,0.30177,-18.12,-26.58,-21.42
68.1825,82783.6173,-1.3442566813769896,1.198074278655371,0.17281411422783677,0.13378,-0.2193,0.32803,-17.88,-26.88,-21.66
68.2042,82783.6373,-1.36505310943157,1.41248956837809,0.5513016520643923,0.26267,-0.16127,0.34453,-17.64,-26.94,-21.66
68.2249,82783.6583,-1.4439299153050607,1.6115735571890388,0.8289089161955392,0.34514,0.09041,0.34758,-17.82,-26.64,-21.42
68.2455,82783.6783,-1.5961180739884637,1.753620636953774,0.9940801818565994,0.29627,0.22907,0.27428,-18.24,-27.06,-21.24
68.2679,82783.6993,-1.79692631733209,1.8059888915174618,1.0669781859801422,0.22663,0.16493,0.16127,-18.18,-26.94,-20.82
68.2891,82783.7203,-1.9950926056827676,1.7667125098900396,1.0885717312235155,0.23396,-0.00367,-0.02016,-18.72,-26.76,-20.94
68.3189,82783.7403,-2.0845318464701488,1.658621158046249,1.1128359227893192,0.34453,-0.00855,-0.09896,-19.08,-27.06,-20.82
68.3322,82783.7603,-2.1081987395091684,1.5067598912720226,1.1529532556812345,0.3543,0.03421,-0.07941,-18.72,-27.24,-20.82
68.3476,82783.7803,-1.9624013205456734,1.3302578603583235,1.2264574486837834,0.19303,0.23885,-0.06903,-18.9,-27.96,-21.0
68.3649,82783.8003,-1.6604763497076291,1.1239106326392592,1.3080311044191522,-0.10079,0.35003,-0.10751,-18.54,-28.14,-20.82
68.3858,82783.8203,-1.2563563467380499,0.8713315768257142,1.3530113315474868,-0.36102,0.03482,-0.19975,-18.12,-28.56,-20.94
68.4096,82783.8403,-0.8100981003920554,0.5637654008873821,1.3132860580786065,-0.45265,-0.39095,-0.28955,-18.24,-28.44,-20.94
68.4267,82783.8613,-0.36028231714615006,0.21577616533435312,1.150606131786592,-0.23763,-0.18631,-0.32437,-18.36,-28.32,-21.18
68.4487,82783.8813,-0.01372432238207175,-0.08666405672604835,0.8545441396966975,0.14478,0.27611,-0.24129,-18.06,-28.2,-21.72
68.4694,82783.9013,0.1651407494997677,-0.3019471172105925,0.4699038670664102,0.24251,0.2981,-0.06292,-17.76,-27.78,-21.48
68.4885,82783.9213,0.166757736890747,-0.38973115020989885,0.07531715900263691,0.07514,0.08796,0.11545,-17.52,-27.84,-21.24
68.5128,82783.9413,0.06106679972182291,-0.335942709910479,-0.2539324235616913,0.01405,0.03604,0.24496,-16.92,-27.78,-21.24
68.5269,82783.9613,-0.07001023254348286,-0.13474710631063994,-0.4753462389130476,0.0898,0.15333,0.35308,-16.92,-28.14,-20.7
68.5471,82783.9813,-0.1585397414710889,0.13192052114726424,-0.5933572712056279,0.13134,0.04704,0.40012,-17.4,-28.14,-20.76
68.5668,82784.0013,-0.19332541817188972,0.4127125789087748,-0.6488943410957901,0.11912,-0.09407,0.33475,-17.16,-28.32,-20.88
68.585,82784.0213,-0.20444233230605868,0.6544813512970019,-0.6996221735885015,0.14905,-0.03421,0.27672,-17.52,-27.96,-20.34
68.6065,82784.0413,-0.23182673702666254,0.8193534039485617,-0.7912590518388178,0.17471,0.08125,0.23763,-17.46,-27.6,-20.4
68.6359,82784.0612,-0.307101189433214,0.9066646574219634,-0.9393995550412999,0.0843,0.33598,0.22419,-17.4,-27.42,-19.98
68.6498,82784.0813,-0.45452880750981006,0.9292131981419787,-1.124558503490782,0.10751,0.24862,0.21075,-17.88,-27.0,-19.92
68.6657,82784.1013,-0.6526144325105776,0.9141516812349635,-1.3015001147449983,0.21502,0.17043,0.19426,-17.94,-27.24,-20.16
68.6961,82784.1223,-0.8539143495448169,0.8777355803591848,-1.4138783068969154,0.31093,0.06964,0.20159,-18.54,-27.06,-19.98
68.7186,82784.1423,-1.0821638895714534,0.8789054126108389,-1.4285724163479951,0.32009,-0.04093,0.19731,-18.6,-27.48,-20.22
68.7338,82784.1623,-1.2983373353149388,0.9317515361857851,-1.3279045834132202,0.18937,0.0,0.21991,-18.42,-27.6,-19.86
68.7479,82784.1823,-1.449428072432097,1.0125897780478317,-1.1128971787302007,0.13622,0.03787,0.15577,-18.48,-27.66,-19.44
68.7686,82784.2033,-1.492834489256916,1.0873957882807832,-0.8029354452445396,0.19914,-0.02566,0.07453,-18.12,-27.66,-19.2
68.7967,82784.2243,-1.421962778567565,1.1321271623883535,-0.4351779687486328,0.27978,-0.12706,0.00305,-18.48,-27.42,-19.02
68.815,82784.2441,-1.3156562470968678,1.1449112000734825,-0.0644788528728526,0.20159,-0.23213,-0.05498,-18.42,-27.12,-19.5
68.8321,82784.2643,-1.2102024377343605,1.1122130047973944,0.2689489577398181,-0.0672,-0.21136,-0.11057,-18.42,-27.0,-19.68
68.8497,82784.2843,-1.142022914356951,1.0370442235068988,0.532248811500569,-0.22297,-0.23091,-0.14294,-18.6,-26.88,-19.86
68.8709,82784.3043,-1.1146605629286774,0.9366995536742927,0.7095131589885515,-0.13744,-0.25351,-0.16921,-18.24,-27.12,-20.04
68.8898,82784.3243,-1.0856653436879633,0.8454420468406525,0.8090271867597956,-0.00611,-0.10324,-0.17043,-18.36,-27.36,-19.38
68.9083,82784.3443,-1.0186465732303949,0.8098117560060023,0.8586132063255416,-0.00122,-0.0672,-0.18021,-18.48,-27.42,-19.26
68.9284,82784.3643,-0.8913242561005803,0.8681152108667617,0.895048562873825,-0.10568,0.02566,-0.22419,-18.42,-27.48,-19.14
68.9518,82784.3843,-0.7248300882356715,1.02094957300478,0.9454940743899822,-0.30116,0.11606,-0.19609,-18.66,-27.18,-18.72
68.9711,82784.4043,-0.5192562309474019,1.2174266427046763,1.0180597029086211,-0.59376,-0.23885,-0.11118,-18.78,-27.66,-19.38
68.9896,82784.4243,-0.3153538089777645,1.4292036450563095,1.0809694821062976,-0.77152,-0.71654,0.06597,-18.36,-27.36,-19.32
69.0117,82784.4453,-0.16847548680730165,1.6206269068537953,1.0777690548647776,-0.46242,-0.66951,0.135,-18.24,-27.54,-19.5
69.0346,82784.4653,-0.07983966413899,1.7993197653419712,0.9563437912886332,0.05986,-0.3146,0.05253,-17.88,-27.12,-20.28
69.0526,82784.4853,-0.09608052019091963,1.946222137745124,0.7142662907036215,0.38546,0.08369,-0.01405,-17.64,-26.46,-19.98
69.0739,82784.5053,-0.19616729332078056,1.997588588466545,0.4109103357752186,0.26512,0.02871,-0.05864,-17.94,-26.16,-20.16
69.0895,82784.5253,-0.3410159239961561,1.9196009381845553,0.11937685304882883,0.03726,-0.13806,-0.06353,-17.76,-25.92,-19.98
69.1088,82784.5453,-0.43831200060365694,1.718298618638966,-0.11812539723685767,-0.0733,-0.3824,-0.05315,-18.06,-26.16,-19.44
69.13,82784.5653,-0.45612889695296244,1.4356551929695731,-0.3119717239621185,-0.08247,-0.48869,-0.04276,-18.24,-26.22,-19.62
69.149,82784.5853,-0.4178447935506829,1.1399899129287199,-0.5122716222217569,0.0,-0.41905,-0.12278,-18.66,-26.46,-19.8
69.1698,82784.6053,-0.39312083711861706,0.8767086825243976,-0.7689840564322523,0.12339,-0.18021,-0.16554,-19.14,-26.52,-20.34
69.1889,82784.6253,-0.4559285464270624,0.6769039601720306,-1.0998613808840343,0.13744,0.00977,-0.20281,-19.14,-26.34,-20.34
69.2086,82784.6453,-0.6322428045933555,0.5498241488277082,-1.474023052802286,0.09774,0.11423,-0.21502,-19.08,-26.1,-20.34
69.2308,82784.6653,-0.8966942209304439,0.4943349279787668,-1.8232928433818918,0.08735,0.08552,-0.18204,-18.78,-25.8,-19.86
69.2499,82784.6853,-1.1926672827660705,0.4965942343578038,-2.068365514626314,0.06658,0.00428,-0.10385,-18.54,-25.8,-19.08
69.2697,82784.7053,-1.4466134188758324,0.5514863340154627,-2.146553693729878,0.04643,-0.06048,-0.03238,-18.6,-25.62,-19.2
69.2916,82784.7253,-1.606242832282598,0.644127994917233,-2.0317795685858506,0.01344,-0.12523,-0.03604,-18.78,-25.86,-18.84
69.3168,82784.7453,-1.6549507086061173,0.7586664766992582,-1.740562080025935,-0.02688,-0.06048,-0.1295,-18.66,-25.8,-19.44
69.3374,82784.7663,-1.6091170403800557,0.8683559709279542,-1.3192882210456638,-0.07391,0.01955,-0.20342,-18.84,-25.62,-20.04
69.3603,82784.7863,-1.5092135931031438,0.9636077172479927,-0.8288324748175526,-0.2303,-0.01466,-0.19487,-18.72,-26.04,-20.04
69.3746,82784.8073,-1.379269047984268,1.0214183607423954,-0.32274708578124667,-0.26878,-0.11179,-0.14478,-18.36,-25.86,-20.64
69.395,82784.8273,-1.2769216227233804,1.0719054434570674,0.1448639875728226,-0.09468,-0.04459,-0.11606,-18.72,-25.74,-20.4
69.4145,82784.8473,-1.2286503067587715,1.1179340163989628,0.5445064846030956,0.08308,0.14783,-0.04093,-18.66,-25.56,-20.52
69.4324,82784.8673,-1.260500536284839,1.1663573882727265,0.8653287292995735,0.08735,0.21808,0.05315,-19.2,-25.08,-20.52
69.4538,82784.8873,-1.3593603903257239,1.2201445931208854,1.117277706390599,0.0672,0.05315,0.01038,-19.2,-24.9,-20.34
69.4716,82784.9073,-1.4806596788255781,1.2745722322089341,1.322586965983474,0.04398,-0.05315,-0.10385,-19.02,-25.02,-20.7
69.4938,82784.9273,-1.53865567824178,1.3299601247264536,1.5059117967209996,0.15638,0.05437,-0.1014,-19.02,-25.38,-21.0
69.5136,82784.9473,-1.4842037227055993,1.374439155460882,1.6750143012476428,0.23824,0.11912,0.02993,-18.6,-25.26,-21.42
69.5375,82784.9672,-1.2860476051882297,1.3945189515628547,1.81469132608869,0.12217,0.16616,0.12645,-18.78,-25.02,-21.48
69.5585,82784.9883,-0.9709126049111132,1.3784419851724483,1.8847597808867853,-0.15577,-0.03971,0.13073,-18.36,-25.02,-21.18
69.5741,82785.0083,-0.5638551939795453,1.3116350169024837,1.8392070567481724,-0.30971,-0.10934,0.1069,-18.06,-24.54,-21.18
69.5949,82785.0283,-0.1712116240463909,1.173460376282908,1.6374381137374439,-0.31582,-0.09224,0.0226,-17.88,-24.42,-20.94
