AppTimestamp(s),SensorTimestamp(s),gyro_x,gyro_y,gyro_z
0.0434,67164.1565,-0.13806,-0.11118,-0.0391
0.0444,67164.1674,-0.27794,-0.13928,-0.02077
0.0459,67164.1775,-0.31215,-0.16982,-0.02443
0.0469,67164.1874,-0.28161,-0.19792,-0.011
0.0482,67164.1975,-0.23396,-0.24374,-0.00916
0.0497,67164.2075,-0.14844,-0.28588,-0.02199
0.056,67164.2175,-0.08002,-0.30727,-0.03543
0.0674,67164.2274,-0.01588,-0.33598,-0.0562
0.0854,67164.2374,0.02505,-0.35613,-0.07758
0.0866,67164.2474,0.06842,-0.44227,-0.09774
0.1197,67164.2575,0.10201,-0.52595,-0.10324
0.1207,67164.2675,0.14661,-0.48991,-0.0562
0.1227,67164.2775,0.15699,-0.4667,0.02199
0.129,67164.2875,0.14844,-0.51252,0.11851
0.1344,67164.2974,0.13378,-0.57116,0.18326
0.1473,67164.3074,0.22907,-0.55039,0.21258
0.1544,67164.3175,0.28711,-0.6182,0.23579
0.1661,67164.3274,0.27672,-0.65118,0.19364
0.1742,67164.3373,0.28772,-0.52657,0.21502
0.1872,67164.3485,0.35736,-0.38485,0.34147
0.196,67164.3585,0.44593,-0.30482,0.43188
0.2072,67164.3685,0.57482,-0.17776,0.48503
0.2155,67164.3785,0.67806,-0.01772,0.47037
0.2284,67164.3884,0.70127,0.0507,0.41783
0.2353,67164.3984,0.68356,0.18082,0.40806
0.2473,67164.4084,0.59926,0.48564,0.45082
0.2554,67164.4185,0.65363,0.74953,0.51374
0.2688,67164.4285,0.7367,0.67562,0.61514
0.2779,67164.4385,0.80512,0.54795,0.64385
0.2881,67164.4484,0.97128,0.81551,0.6915
0.2957,67164.4584,0.98533,0.99449,0.74342
0.3079,67164.4684,0.90347,0.87415,0.76419
0.3158,67164.4785,0.73609,0.89614,0.70494
0.3297,67164.4885,0.50702,1.12644,0.65607
0.3374,67164.4985,0.29322,1.30298,0.6805
0.3509,67164.5084,0.07025,1.34268,0.79779
0.3591,67164.5184,0.03238,1.13987,0.86926
0.3702,67164.5294,0.12217,1.1075,0.76419
0.3784,67164.5405,0.15516,1.31214,0.65118
0.3934,67164.5505,0.12767,1.57298,0.57238
0.404,67164.5604,0.06781,1.83993,0.54917
0.4104,67164.5704,-0.06231,2.2321,0.56566
0.4178,67164.5805,-0.20708,2.53265,0.57421
0.4312,67164.5905,-0.49052,2.83503,0.5962
0.4385,67164.6005,-0.80207,2.82892,0.60231
0.4506,67164.6105,-1.14843,2.57602,0.60964
0.4578,67164.6204,-1.33718,2.40681,0.63652
0.4709,67164.6304,-1.4282,2.23577,0.67562
0.4782,67164.6405,-1.37261,2.01463,0.65607
0.4953,67164.6505,-1.23089,1.77029,0.60353
0.4987,67164.6605,-1.08978,1.53388,0.56627
0.513,67164.6705,-0.9615,1.26938,0.57238
0.5199,67164.6804,-0.84544,1.01098,0.62736
0.542,67164.6915,-0.75014,0.76847,0.72632
0.5472,67164.7015,-0.70677,0.63774,0.81184
0.5543,67164.7114,-0.66706,0.44349,0.90591
0.5615,67164.7214,-0.61942,0.3146,0.95539
0.5711,67164.7315,-0.54184,0.19975,0.9841
0.5787,67164.7415,-0.46914,0.13622,0.93951
0.5917,67164.7515,-0.50335,0.10629,0.76786
0.5988,67164.7615,-0.68356,0.12523,0.50396
0.6109,67164.7714,-1.02381,0.17715,0.19181
0.6187,67164.7814,-1.36712,0.24129,-0.00428
0.6338,67164.7915,-1.66827,0.30238,-0.08063
0.6403,67164.8015,-1.77334,0.23824,-0.0562
0.6527,67164.8115,-1.73364,-0.1014,-0.00367
0.6591,67164.8215,-1.54732,-0.50213,0.03482
0.7026,67164.8314,-1.23883,-0.95906,0.04581
0.7047,67164.8414,-1.00304,-1.15209,0.00489
0.7124,67164.8515,-0.76053,-1.08429,-0.10201
0.7143,67164.8615,-0.63163,-0.91935,-0.23885
0.7154,67164.8715,-0.58704,-0.79901,-0.44593
0.7219,67164.8815,-0.55467,-0.74587,-0.60109
0.7378,67164.8914,-0.44043,-0.78863,-0.76786
0.7408,67164.9014,-0.24618,-0.89736,-0.86926
0.7504,67164.9114,0.01955,-1.03481,-0.90103
0.7629,67164.9215,0.26817,-1.16797,-0.87354
0.7709,67164.9315,0.49908,-1.32619,-0.80084
0.7787,67164.9415,0.67623,-1.55099,-0.74037
0.7931,67164.9523,0.80207,-1.82649,-0.72326
0.7996,67164.9624,0.8882,-1.90162,-0.73243
0.8121,67164.9725,1.00976,-1.97676,-0.79412
0.8197,67164.9824,1.09284,-2.01219,-0.86743
0.8317,67164.9924,1.15515,-1.99631,-0.98838
0.8413,67165.0025,1.16248,-1.92484,-1.07879
0.8552,67165.0134,1.13865,-1.81427,-1.12888
0.8622,67165.0234,1.12399,-1.69088,-1.14049
0.8754,67165.0335,1.13254,-1.57298,-1.1301
0.8822,67165.0435,1.16797,-1.51189,-1.13315
0.8959,67165.0535,1.17592,-1.4954,-1.19546
0.9074,67165.0635,1.13621,-1.47707,-1.26693
0.9162,67165.0734,1.07451,-1.45203,-1.34574
0.9238,67165.0834,1.01159,-1.4563,-1.41476
0.937,67165.0935,0.98288,-1.44592,-1.50578
0.9472,67165.1035,0.97433,-1.40438,-1.58397
0.9537,67165.1135,0.95539,-1.30725,-1.64873
0.9611,67165.1235,0.90958,-1.21073,-1.65972
0.9772,67165.1334,0.85094,-1.11422,-1.62857
0.9813,67165.1434,0.80268,-1.02381,-1.58397
1.0002,67165.1535,0.73182,-0.91813,-1.5235
1.0046,67165.1635,0.65912,-0.86071,-1.4728
1.0153,67165.1744,0.54917,-0.90164,-1.42515
1.03,67165.1844,0.48258,-0.95051,-1.41354
1.0387,67165.1945,0.405,-0.98838,-1.42942
1.0459,67165.2045,0.32376,-1.02809,-1.45691
1.0543,67165.2145,0.21808,-1.06718,-1.47463
1.0664,67165.2244,0.12462,-1.08123,-1.46058
1.0733,67165.2344,-0.00428,-1.08306,-1.42026
1.0814,67165.2444,-0.12462,-1.07512,-1.37445
1.093,67165.2544,-0.25901,-1.02137,-1.32375
1.1015,67165.2645,-0.37385,-0.96395,-1.30298
1.1133,67165.2745,-0.57849,-0.90042,-1.33413
1.1233,67165.2844,-0.7703,-0.82284,-1.40804
1.1367,67165.2944,-0.97066,-0.72265,-1.52961
1.1452,67165.3054,-1.13743,-0.6524,-1.66583
1.1572,67165.3154,-1.30114,-0.58643,-1.79228
1.1657,67165.3265,-1.41537,-0.50457,-1.82954
1.1786,67165.3364,-1.52716,-0.42822,-1.78128
1.1865,67165.3464,-1.6359,-0.40317,-1.72203
1.2062,67165.3565,-1.788,-0.40134,-1.59558
1.2092,67165.3665,-1.88941,-0.42272,-1.4166
1.2181,67165.3765,-1.94011,-0.49541,-1.19607
1.2261,67165.3865,-1.94133,-0.59743,-1.06657
1.238,67165.3964,-1.91628,-0.66645,-1.00426
1.2517,67165.4064,-1.90773,-0.63591,-1.05985
1.2579,67165.4165,-1.94255,-0.53145,-1.19241
1.266,67165.4274,-1.99325,-0.33292,-1.26327
1.2792,67165.4374,-2.06961,-0.03604,-1.21623
1.2864,67165.4475,-2.10199,0.17959,-1.02259
1.3,67165.4575,-2.05739,0.31093,-0.68417
1.3137,67165.4684,-1.90712,0.33048,-0.35186
1.3238,67165.4785,-1.6475,0.28283,-0.06536
1.332,67165.4884,-1.39888,0.20464,0.10324
1.34,67165.4995,-1.13804,0.17165,0.24923
1.3474,67165.5095,-0.99693,0.17898,0.34453
1.3602,67165.5195,-0.83322,0.14478,0.4722
1.3671,67165.5294,-0.72021,0.09468,0.56261
1.381,67165.5394,-0.55222,0.0452,0.66584
1.3883,67165.5494,-0.40928,0.01894,0.72449
1.4016,67165.5595,-0.22969,0.06658,0.78496
1.4089,67165.5695,-0.12217,0.15272,0.81612
1.4213,67165.5795,0.02077,0.32926,0.86254
1.4288,67165.5895,0.146,0.48503,0.89675
1.4412,67165.5994,0.32315,0.66157,0.94501
1.4496,67165.6105,0.49908,0.79535,1.00426
1.4622,67165.6204,0.65851,0.8436,1.06291
1.4695,67165.6304,0.78313,0.81795,1.09528
1.4834,67165.6414,0.90836,0.76664,1.10506
1.4908,67165.6514,0.99632,0.74281,1.11605
1.5033,67165.6614,1.10139,0.76236,1.14598
1.5115,67165.6724,1.1808,0.82406,1.19058
1.5246,67165.6824,1.23212,0.89064,1.26816
1.5315,67165.6925,1.22295,0.93401,1.32191
1.5451,67165.7025,1.15698,0.9951,1.37811
1.555,67165.7125,1.0739,0.99082,1.40194
1.5683,67165.7235,0.94684,0.9725,1.43065
1.575,67165.7335,0.86621,0.99632,1.4618
1.587,67165.7435,0.821,1.03725,1.52655
1.6001,67165.7534,0.80084,1.03908,1.58581
1.6111,67165.7634,0.79657,0.99632,1.69943
1.6128,67165.7734,0.82894,0.94745,1.81183
1.6293,67165.7835,0.87965,0.89492,1.94805
1.6336,67165.7935,0.91141,0.86315,2.0464
1.6432,67165.8035,0.93401,0.82772,2.16491
1.6518,67165.8135,0.9444,0.78985,2.26203
1.6631,67165.8234,0.9499,0.78435,2.30907
1.6713,67165.8334,0.96639,0.82528,2.30479
1.6838,67165.8435,1.01953,0.90591,2.28708
1.6912,67165.8535,1.06229,1.0568,2.26264
1.7032,67165.8635,1.03419,1.21135,2.20217
1.7116,67165.8735,0.95723,1.27121,2.15086
1.7235,67165.8834,0.81551,1.24861,2.1026
1.7314,67165.8934,0.70738,1.2651,2.06778
1.7482,67165.9035,0.53573,1.32619,2.01586
1.7539,67165.9135,0.30727,1.39155,1.95538
1.7711,67165.9235,-0.01772,1.507,1.92178
1.7735,67165.9335,-0.29322,1.64689,1.93339
1.7835,67165.9434,-0.60292,1.82343,1.98287
1.795,67165.9534,-0.79351,1.95416,2.03113
1.8031,67165.9634,-0.87476,2.05801,2.069
1.8128,67165.9735,-0.85155,2.09466,2.04334
1.8351,67165.9844,-0.82528,2.04579,1.8949
1.8502,67165.9945,-0.85582,1.9004,1.75257
1.8542,67166.0045,-0.8937,1.65972,1.65056
1.8568,67166.0145,-0.92241,1.37078,1.61818
1.8645,67166.0245,-0.95967,1.0739,1.58458
1.872,67166.0344,-0.97066,0.81551,1.55771
1.8843,67166.0444,-0.97066,0.59559,1.47463
1.8921,67166.0545,-0.9725,0.43127,1.33902
1.9045,67166.0645,-1.03542,0.3708,1.08306
1.9121,67166.0745,-1.13865,0.43982,0.85949
1.9247,67166.0845,-1.30298,0.57421,0.64996
1.9332,67166.0955,-1.48807,0.63958,0.53206
1.9452,67166.1055,-1.65178,0.57055,0.47403
1.955,67166.1155,-1.70554,0.41172,0.44532
1.9684,67166.1254,-1.67011,0.16799,0.36285
1.9753,67166.1354,-1.60963,0.00061,0.25473
1.9906,67166.1455,-1.5009,-0.18021,0.0843
1.9981,67166.1555,-1.39033,-0.2865,-0.09591
2.0073,67166.1665,-1.27854,-0.44593,-0.26878
2.0149,67166.1765,-1.22723,-0.59071,-0.31154
2.027,67166.1864,-1.16797,-0.76847,-0.27917
2.034,67166.1965,-1.12644,-0.85521,-0.24129
2.0662,67166.2064,-1.06474,-0.81673,-0.26145
2.0696,67166.2164,-1.01404,-0.74648,-0.32132
2.0702,67166.2264,-0.91141,-0.7251,-0.42333
2.0797,67166.2365,-0.75198,-0.79168,-0.51129
2.0859,67166.2465,-0.49847,-0.92241,-0.64202
2.0961,67166.2564,-0.3598,-1.0568,-0.74892
2.1069,67166.2664,-0.18815,-1.18447,-0.90103
2.12,67166.2764,-0.05009,-1.2932,-0.98777
2.1251,67166.2864,0.07758,-1.45508,-1.01159
2.1338,67166.2965,0.19914,-1.6023,-0.97189
2.145,67166.3065,0.32681,-1.7483,-0.91813
2.1536,67166.3164,0.47037,-1.86253,-0.87109
2.1649,67166.3264,0.67623,-1.87475,-0.85765
2.1776,67166.3364,0.86865,-1.78617,-0.88881
2.1849,67166.3464,1.05496,-1.66827,-0.93829
2.1944,67166.3565,1.20035,-1.55465,-1.01098
2.2049,67166.3664,1.30847,-1.47707,-1.08978
2.2133,67166.3764,1.32802,-1.46547,-1.15454
2.2268,67166.3864,1.32802,-1.44897,-1.21868
2.2345,67166.3964,1.3213,-1.45203,-1.27426
2.2484,67166.4064,1.33841,-1.49357,-1.35795
2.2545,67166.4164,1.38056,-1.54915,-1.40927
2.276,67166.4264,1.45814,-1.5852,-1.44653
2.2814,67166.4364,1.52411,-1.58581,-1.44958
2.2941,67166.4464,1.62124,-1.53572,-1.44897
2.2975,67166.4564,1.70431,-1.43614,-1.47219
2.3084,67166.4663,1.7599,-1.30725,-1.53327
2.3204,67166.4774,1.77212,-1.24189,-1.61696
2.3269,67166.4874,1.7428,-1.2034,-1.69821
2.3347,67166.4974,1.70004,-1.1692,-1.75318
2.3467,67166.5074,1.6359,-1.14782,-1.78861
2.3547,67166.5174,1.57359,-1.14904,-1.81427
2.3713,67166.5274,1.48624,-1.13743,-1.83382
2.3795,67166.5375,1.42454,-1.11727,-1.84481
2.387,67166.5474,1.31886,-1.06963,-1.86192
2.3947,67166.5574,1.19546,-1.00732,-1.87597
2.4087,67166.5674,1.01404,-0.90836,-1.8888
2.4148,67166.5774,0.78741,-0.78252,-1.9004
2.4267,67166.5874,0.5058,-0.65363,-1.89918
2.435,67166.5974,0.2419,-0.57299,-1.91751
2.4509,67166.6074,-0.03665,-0.46609,-1.94133
2.4558,67166.6174,-0.1967,-0.37385,-1.9511
2.467,67166.6274,-0.31582,-0.31154,-1.97432
2.4751,67166.6374,-0.37202,-0.30604,-2.02319
2.4894,67166.6474,-0.43005,-0.35064,-2.13375
2.4958,67166.6574,-0.50519,-0.39645,-2.21439
2.5086,67166.6674,-0.6579,-0.4441,-2.30602
2.5159,67166.6774,-0.85094,-0.46487,-2.35183
2.529,67166.6874,-1.16859,-0.42699,-2.35427
2.5454,67166.6974,-1.40438,-0.30177,-2.31884
2.5582,67166.7074,-1.66583,-0.14905,-2.22905
2.5607,67166.7174,-1.82649,-0.08186,-2.12398
2.5673,67166.7275,-1.94927,-0.05131,-2.02991
2.5752,67166.7374,-2.05067,-0.0452,-1.98409
2.5873,67166.7474,-2.14414,-0.03176,-1.98409
2.5964,67166.7574,-2.24798,-0.0336,-2.04579
2.6071,67166.7674,-2.37321,-0.06353,-2.18323
2.6149,67166.7773,-2.47217,-0.09468,-2.32434
2.6292,67166.7875,-2.58579,-0.15699,-2.46423
2.6347,67166.7974,-2.67681,-0.17959,-2.53081
2.65,67166.8074,-2.78005,-0.20647,-2.5076
2.6547,67166.8174,-2.83869,-0.2981,-2.40375
2.6707,67166.8274,-2.84175,-0.43494,-2.21378
2.6753,67166.8374,-2.76783,-0.53145,-2.04579
2.6877,67166.8474,-2.5919,-0.60415,-1.82282
2.6953,67166.8574,-2.38176,-0.61392,-1.59497
2.714,67166.8674,-2.07877,-0.6182,-1.30359
2.716,67166.8784,-1.79045,-0.59804,-1.02014
2.7369,67166.8884,-1.49051,-0.57482,-0.65668
2.7384,67166.8984,-1.26388,-0.58826,-0.281
2.7483,67166.9084,-1.0568,-0.56933,0.17471
2.7558,67166.9184,-0.92424,-0.50335,0.49419
2.77,67166.9284,-0.79962,-0.33231,0.82284
2.7766,67166.9385,-0.76297,-0.17837,1.04397
2.7898,67166.9484,-0.78191,-0.08063,1.26693
2.7958,67166.9584,-0.81489,-0.04765,1.4282
2.8145,67166.9684,-0.82833,-0.04459,1.63712
2.8196,67166.9784,-0.79596,-0.03421,1.75746
2.8301,67166.9884,-0.69272,0.04826,1.83993
2.8386,67166.9984,-0.53939,0.21136,1.83565
2.8566,67167.0084,-0.34636,0.43433,1.77945
2.8604,67167.0184,-0.16493,0.5901,1.69943
2.8725,67167.0284,0.05376,0.61087,1.5968
2.8797,67167.0384,0.26695,0.5736,1.52716
2.9001,67167.0484,0.53451,0.50091,1.4844
2.91,67167.0584,0.73487,0.47586,1.46913
2.9125,67167.0694,0.92057,0.50457,1.48929
2.9209,67167.0794,0.9951,0.56383,1.54366
2.9292,67167.0895,1.02442,0.61881,1.62612
2.9377,67167.0994,1.05802,0.6298,1.71653
2.9497,67167.1094,1.12216,0.62553,1.82465
2.9573,67167.1194,1.20463,0.58765,1.91995
2.9716,67167.1294,1.33291,0.53267,2.03296
2.9846,67167.1394,1.43553,0.5058,2.11848
2.9972,67167.1494,1.58214,0.49358,2.19728
3.0001,67167.1594,1.67805,0.49236,2.22477
3.0118,67167.1694,1.72142,0.48991,2.27364
3.018,67167.1794,1.74219,0.48075,2.34084
3.0291,67167.1894,1.79717,0.52901,2.46484
3.0375,67167.1994,1.86558,0.6353,2.5974
3.0538,67167.2094,1.90712,0.77519,2.7379
3.0661,67167.2194,1.9004,0.85094,2.87229
3.0713,67167.2293,1.84848,0.91935,3.01095
3.0905,67167.2405,1.72386,0.99449,3.15023
3.0933,67167.2504,1.49418,1.07085,3.22231
3.0994,67167.2604,1.24311,1.0739,3.22109
3.11,67167.2704,0.77885,1.00182,3.15145
3.1179,67167.2804,0.27428,0.96761,3.06838
3.1297,67167.2904,-0.25351,1.07634,3.01279
3.1378,67167.3004,-0.62797,1.34268,3.00179
3.1512,67167.3104,-0.92729,1.75868,3.00118
3.1604,67167.3204,-1.17225,2.27731,2.96331
3.1715,67167.3304,-1.37872,2.84846,2.86007
3.1788,67167.3414,-1.49601,3.19299,2.7098
3.1907,67167.3514,-1.58642,3.29623,2.49844
3.1987,67167.3614,-1.65178,3.16673,2.33106
3.211,67167.3714,-1.70187,2.84297,2.1759
3.2187,67167.3814,-1.72508,2.45934,2.04945
3.2332,67167.3913,-1.72447,2.05739,1.92117
3.2401,67167.4014,-1.67194,1.73608,1.76968
3.2642,67167.4114,-1.55404,1.53205,1.56809
3.2721,67167.4213,-1.40132,1.44103,1.37872
3.2826,67167.4314,-1.26877,1.41293,1.23273
3.2851,67167.4414,-1.19791,1.36406,1.15026
3.2989,67167.4515,-1.14476,1.19852,1.0849
3.3079,67167.4614,-1.10689,0.9951,0.99815
3.3135,67167.4714,-1.08734,0.84788,0.78007
3.3191,67167.4814,-1.08123,0.79229,0.53206
3.3311,67167.4914,-1.05985,0.74709,0.1857
3.3392,67167.5014,-1.02381,0.6579,-0.08247
3.3517,67167.5115,-0.93279,0.45143,-0.29993
3.3656,67167.5224,-0.81673,0.1631,-0.40623
3.3742,67167.5334,-0.61392,-0.45815,-0.41111
3.3812,67167.5434,-0.42272,-1.17347,-0.32742
3.3964,67167.5534,-0.16249,-2.07083,-0.1912
3.4053,67167.5635,0.08858,-2.67254,-0.10507
3.4171,67167.5734,0.48197,-3.25591,-0.09041
3.4228,67167.5834,0.85704,-3.62487,-0.17959
3.4334,67167.5934,1.26571,-3.92175,-0.33353
3.4448,67167.6034,1.52228,-4.03293,-0.47159
3.4534,67167.6134,1.66155,-3.91381,-0.70188
3.461,67167.6234,1.55404,-3.55401,-0.94195
3.4733,67167.6334,1.2034,-2.96514,-1.20646
3.4811,67167.6434,0.82711,-2.40864,-1.38056
3.4937,67167.6534,0.30727,-1.59863,-1.58397
3.5012,67167.6634,0.01955,-1.11055,-1.69637
3.5132,67167.6734,-0.22724,-0.70005,-1.83076
3.5213,67167.6834,-0.32193,-0.58521,-1.92484
3.5337,67167.6934,-0.27978,-0.69333,-1.97309
3.5412,67167.7034,-0.15088,-0.87904,-1.96515
3.5551,67167.7134,0.14416,-1.11605,-1.93033
3.5624,67167.7234,0.47892,-1.30603,-1.89674
3.5753,67167.7334,0.89064,-1.45264,-1.86192
3.5837,67167.7444,1.23761,-1.49967,-1.84298
3.5977,67167.7544,1.53388,-1.44409,-1.84298
3.6042,67167.7644,1.69026,-1.38666,-1.87047
3.6211,67167.7744,1.73669,-1.33902,-1.95538
3.6264,67167.7844,1.69698,-1.31214,-2.05006
3.6348,67167.7944,1.56626,-1.27915,-2.18751
3.6431,67167.8054,1.4337,-1.24067,-2.28464
3.6552,67167.8154,1.31275,-1.15698,-2.33839
3.6631,67167.8254,1.22906,-1.01465,-2.3897
3.6811,67167.8354,1.12155,-0.77763,-2.44652
3.6978,67167.8454,1.02259,-0.50763,-2.49722
3.7,67167.8554,0.90591,-0.25229,-2.52593
3.7133,67167.8655,0.78802,-0.10507,-2.55891
3.7321,67167.8754,0.66279,-0.02016,-2.62794
3.734,67167.8854,0.55589,0.0452,-2.72629
3.7355,67167.8954,0.42761,0.09957,-2.85335
3.7454,67167.9054,0.30177,0.09896,-2.93887
3.7551,67167.9154,0.13867,0.07636,-3.03722
3.7631,67167.9255,-0.01649,0.05192,-3.11969
3.7757,67167.9354,-0.15455,0.01161,-3.2101
3.7832,67167.9454,-0.23702,-0.05253,-3.29501
3.795,67167.9554,-0.27489,-0.11362,-3.41718
3.8031,67167.9654,-0.25045,-0.14294,-3.52653
3.8172,67167.9754,-0.20831,-0.1686,-3.65358
3.8244,67167.9854,-0.22541,-0.19731,-3.75865
3.8383,67167.9954,-0.32254,-0.3879,-3.85456
3.8489,67168.0054,-0.45632,-0.63408,-3.89121
3.8588,67168.0154,-0.65179,-0.99938,-3.83562
3.8679,67168.0254,-0.83933,-1.26327,-3.71284
3.8779,67168.0354,-1.05496,-1.40194,-3.53752
3.8871,67168.0454,-1.29198,-1.44164,-3.34571
3.8999,67168.0554,-1.57542,-1.39277,-3.12885
3.9041,67168.0654,-1.81671,-1.29565,-2.94315
3.9156,67168.0754,-2.02563,-1.22112,-2.7214
3.9236,67168.0854,-2.18568,-1.1808,-2.53631
3.9405,67168.0954,-2.32373,-1.15026,-2.26448
3.9537,67168.1054,-2.46179,-1.11483,-1.99631
3.956,67168.1155,-2.64993,-1.04641,-1.6304
3.9661,67168.1264,-2.81303,-0.956,-1.25227
3.9791,67168.1364,-2.94254,-0.85277,-0.76541
3.984,67168.1464,-2.92666,-0.8265,-0.36896
3.9965,67168.1564,-2.75439,-0.74526,0.01527
4.0044,67168.1664,-2.50699,-0.64935,0.26695
4.0175,67168.1764,-2.11665,-0.54734,0.55894
4.0307,67168.1864,-1.7935,-0.51435,0.79901
4.0456,67168.1964,-1.48501,-0.51435,1.04824
4.048,67168.2064,-1.2932,-0.46853,1.23456
4.056,67168.2164,-1.08734,-0.32376,1.45264
4.0726,67168.2264,-0.92363,-0.12889,1.59802
4.079,67168.2364,-0.76664,0.12523,1.68538
4.0833,67168.2464,-0.62553,0.2755,1.70859
4.0954,67168.2564,-0.36102,0.48075,1.70492
4.1034,67168.2664,-0.16127,0.58032,1.70554
4.1148,67168.2764,0.0452,0.64324,1.7147
4.1247,67168.2864,0.17776,0.69578,1.71409
4.1368,67168.2964,0.28344,0.78802,1.69454
4.1444,67168.3064,0.36408,0.85827,1.67316
4.1616,67168.3164,0.43616,0.91996,1.65056
4.1675,67168.3264,0.48747,0.9725,1.65789
4.1787,67168.3364,0.53145,0.99327,1.67683
4.1848,67168.3464,0.56994,0.96456,1.69332
4.2013,67168.3564,0.63286,0.88942,1.71164
4.2135,67168.3664,0.71349,0.84422,1.73974
4.2231,67168.3764,0.80512,0.821,1.7654
4.2269,67168.3864,0.84727,0.83811,1.78678
4.2412,67168.3974,0.86315,0.90225,1.80694
4.2501,67168.4074,0.83811,0.9389,1.82343
4.2581,67168.4174,0.80756,0.97433,1.86436
4.265,67168.4274,0.80695,0.99754,1.90773
4.2782,67168.4374,0.85155,0.99388,1.99264
4.2853,67168.4474,0.92668,0.97922,2.09649
4.2973,67168.4574,1.04519,0.97738,2.26875
4.305,67168.4674,1.13987,1.00365,2.42697
4.3194,67168.4774,1.23517,1.0513,2.65849
4.3259,67168.4874,1.27182,1.08917,2.86801
4.3398,67168.4984,1.20585,1.04886,3.12213
4.3474,67168.5084,1.0849,1.00182,3.28035
4.3601,67168.5184,0.85582,0.92974,3.54058
4.3811,67168.5284,0.63897,0.87476,3.7611
4.3896,67168.5384,0.29505,0.89675,4.06103
4.3929,67168.5484,0.00916,0.97494,4.29744
4.4061,67168.5584,-0.32376,1.09834,4.52529
4.4106,67168.5683,-0.55467,1.26938,4.62853
4.4183,67168.5784,-0.73731,1.51678,4.63219
4.426,67168.5884,-0.90591,1.799,4.49169
4.4388,67168.5984,-1.17775,2.09405,4.21069
4.4472,67168.6094,-1.48501,2.16002,3.95596
4.4623,67168.6194,-1.85642,1.97737,3.73605
4.4744,67168.6294,-2.1307,1.70309,3.64992
4.4854,67168.6394,-2.23821,1.30298,3.61877
4.4878,67168.6494,-2.17285,1.04091,3.54241
4.4997,67168.6594,-1.94011,0.98777,3.31272
4.5074,67168.6694,-1.66216,1.14415,3.0415
4.5192,67168.6794,-1.36895,1.34696,2.75989
4.5273,67168.6894,-1.12521,1.49173,2.54059
4.5417,67168.6994,-0.95234,1.49906,2.32007
4.5475,67168.7094,-0.96883,1.36528,2.11665
4.5664,67168.7194,-1.14659,1.03542,1.91812
4.5702,67168.7294,-1.31397,0.63347,1.79961
4.5834,67168.7404,-1.49173,0.281,1.61146
4.5884,67168.7504,-1.49784,0.15088,1.43676
4.6008,67168.7604,-1.38727,0.06964,1.22234
4.6086,67168.7704,-1.18691,-0.01283,0.99327
4.6238,67168.7804,-0.9163,-0.18509,0.75931
4.6291,67168.7904,-0.69455,-0.42089,0.60659
4.642,67168.8004,-0.4948,-0.79779,0.51068
4.6518,67168.8104,-0.35919,-1.13804,0.43921
4.6646,67168.8204,-0.25412,-1.52533,0.28527
4.6718,67168.8304,-0.2022,-1.86803,0.07697
4.712,67168.8404,-0.18204,-2.35611,-0.18448
4.7134,67168.8504,-0.13928,-2.75134,-0.39706
4.7142,67168.8604,-0.04826,-3.1093,-0.65179
4.7207,67168.8704,0.04826,-3.23636,-0.82406
4.7225,67168.8804,0.1686,-3.26446,-0.94379
4.7416,67168.8904,0.33598,-3.31944,-0.99632
4.7433,67168.9004,0.55222,-3.44711,-1.01526
4.7502,67168.9104,0.79596,-3.56196,-1.03236
4.7595,67168.9204,1.04153,-3.6487,-1.12399
4.7677,67168.9304,1.15087,-3.67863,-1.2816
4.7796,67168.9404,1.1582,-3.60349,-1.44653
4.7876,67168.9504,1.1075,-3.36342,-1.59375
4.8002,67168.9604,1.02931,-2.98041,-1.74707
4.8104,67168.9704,0.99571,-2.74034,-1.82343
4.8216,67168.9804,1.01587,-2.37993,-1.89368
4.8298,67168.9904,1.05802,-2.02563,-1.96332
4.8424,67169.0004,1.06779,-1.59253,-2.10565
4.8491,67169.0104,1.03053,-1.2987,-2.23088
4.8633,67169.0204,0.92913,-1.03847,-2.40437
4.8709,67169.0314,0.81673,-0.81551,-2.58274
4.8837,67169.0414,0.70433,-0.55161,-2.81731
4.8914,67169.0524,0.62186,-0.2529,-3.08059
4.9041,67169.0624,0.55405,-0.03604,-3.2779
4.9179,67169.0724,0.50396,0.0898,-3.42085
4.9221,67169.0824,0.48319,0.16738,-3.52164
4.9312,67169.0924,0.45448,0.16738,-3.5699
4.9424,67169.1024,0.38485,0.09652,-3.63404
4.9502,67169.1124,0.32193,-0.01649,-3.722
4.9657,67169.1224,0.25412,-0.18998,-3.90709
4.9733,67169.1324,0.24312,-0.32009,-4.12823
4.9853,67169.1424,0.22419,-0.36346,-4.38051
4.9934,67169.1524,0.1741,-0.28344,-4.55889
5.0023,67169.1624,0.11179,-0.09774,-4.77147
5.0144,67169.1724,0.03665,0.01283,-4.89547
5.0248,67169.1823,-0.12339,-0.0733,-4.94007
5.0347,67169.1924,-0.32193,-0.21075,-4.8857
5.047,67169.2024,-0.61148,-0.29871,-4.7397
5.0501,67169.2124,-0.79474,-0.25107,-4.60409
5.0664,67169.2224,-0.94257,-0.19609,-4.54239
5.0752,67169.2324,-1.08123,-0.25901,-4.56866
5.0819,67169.2424,-1.22234,-0.42211,-4.62853
5.0897,67169.2524,-1.28831,-0.60292,-4.69694
5.1011,67169.2624,-1.26877,-0.73976,-4.69022
5.1096,67169.2724,-1.26449,-0.81306,-4.65235
5.1239,67169.2824,-1.34146,-1.05863,-4.58271
5.1308,67169.2924,-1.42087,-1.42393,-4.44099
5.1444,67169.3024,-1.44714,-1.91567,-4.09768
5.1511,67169.3124,-1.37078,-2.21561,-3.71773
5.1639,67169.3224,-1.18691,-2.24859,-3.28523
5.1738,67169.3324,-0.9841,-2.01586,-2.95353
5.1877,67169.3424,-0.57605,-1.83993,-2.42575
5.1927,67169.3524,-0.2193,-1.99692,-1.81977
5.204,67169.3624,-0.01222,-2.3952,-1.11911
5.2156,67169.3724,-0.08613,-2.94193,-0.64446
5.2256,67169.3824,-0.3488,-3.59311,-0.25779
5.2324,67169.3924,-0.51557,-3.63831,-0.18143
5.2424,67169.4024,-0.84849,-3.2217,-0.14661
5.2501,67169.4124,-0.80329,-1.89368,-0.26328
5.262,67169.4224,-0.88087,-1.49295,-0.14172
5.2725,67169.4324,-0.97494,-1.60291,0.14111
5.2819,67169.4424,-0.93585,-1.26083,0.48625
5.2903,67169.4524,-0.86071,-0.88392,0.85338
5.3027,67169.4624,-0.80756,-0.41172,1.32985
5.3106,67169.4724,-0.79779,0.3769,1.65606
5.3232,67169.4824,-0.87598,1.30114,1.88452
5.3338,67169.4923,-0.978,1.88024,1.99386
5.3487,67169.5024,-0.9389,2.41597,2.18507
5.3519,67169.5124,-0.78741,2.75622,2.39215
5.373,67169.5224,-0.51007,2.99202,2.71102
5.3765,67169.5324,-0.25168,2.83197,2.96636
5.3852,67169.5434,-0.01405,1.59802,3.01645
5.3929,67169.5534,0.15455,0.50091,2.92788
5.4054,67169.5634,0.36896,-0.54489,2.8448
5.412,67169.5734,0.47403,-0.82039,2.93582
5.425,67169.5834,0.51374,-0.59926,3.17222
5.4355,67169.5944,0.48258,-0.09957,3.38542
5.458,67169.6044,0.28833,0.69639,3.55462
5.4629,67169.6144,-0.0336,1.30298,3.70978
5.4657,67169.6244,-0.55833,1.83565,3.9804
5.4735,67169.6354,-1.09406,2.1478,4.30538
5.4878,67169.6454,-1.6359,2.25287,4.67556
5.4954,67169.6554,-1.95904,2.35,4.94068
5.506,67169.6654,-1.9059,2.83747,5.04025
5.5134,67169.6754,-1.65361,2.36283,4.95656
5.5251,67169.6854,-1.06657,1.92117,4.75436
5.5329,67169.6954,-0.45143,1.75013,4.62486
5.5461,67169.7054,0.27122,1.52961,4.53079
5.5529,67169.7154,0.81062,1.44897,4.39212
5.565,67169.7254,1.36956,1.29076,4.11418
5.5741,67169.7354,1.75013,0.94257,3.87289
5.5872,67169.7454,2.07389,0.3146,3.77026
5.5943,67169.7554,2.26814,-0.10079,3.72933
5.6073,67169.7654,2.22844,-0.86987,3.58639
5.614,67169.7754,1.47219,-1.93522,3.32616
5.6283,67169.7854,0.53878,-2.17773,3.22598
5.6346,67169.7954,0.10324,-1.57909,3.38297
5.6479,67169.8064,-0.37018,-1.3158,3.6432
5.6552,67169.8164,-0.86682,-0.58521,3.84967
5.6688,67169.8264,-1.48196,1.53999,4.06225
5.676,67169.8364,-1.76112,2.46118,4.35669
5.689,67169.8464,-1.90223,2.95414,4.4807
5.7011,67169.8564,-1.83748,2.7153,4.40739
5.724,67169.8674,-1.44286,1.98104,4.11662
5.7304,67169.8774,-1.1356,2.03174,3.95413
5.7345,67169.8874,-0.51313,1.49906,3.64625
5.7361,67169.8974,-0.25656,1.58397,3.36526
5.7502,67169.9074,-0.10996,1.35918,3.39702
5.7571,67169.9174,0.05253,0.82222,3.61327
5.7701,67169.9274,0.20281,0.56077,3.50148
5.775,67169.9374,0.0336,0.76847,3.09159
5.7911,67169.9474,-0.40867,0.28161,2.91261
5.797,67169.9584,-0.86376,-0.01894,3.26691
5.8081,67169.9684,-1.29626,-0.28161,3.81608
5.816,67169.9784,-1.45325,-0.86071,4.24185
5.8281,67169.9884,-1.41843,-1.95477,4.51674
5.8368,67169.9984,-1.27365,-2.86129,4.42694
5.8529,67170.0094,-0.99082,-3.868,3.95047
5.8571,67170.0194,-0.78191,-4.4245,3.74399
5.8692,67170.0294,-0.54,-4.77758,3.45261
5.8773,67170.0394,-0.39645,-4.59004,3.29928
5.8904,67170.0494,-0.28772,-2.62733,3.43245
5.8971,67170.0594,-0.27794,-1.02076,3.5308
5.9092,67170.0694,-0.80879,-0.76725,3.58334
5.919,67170.0794,-1.22845,-0.9615,3.84784
5.9311,67170.0894,-1.54366,-1.30603,4.0366
5.9407,67170.1004,-1.69759,-1.80266,4.09707
5.9546,67170.1104,-1.69026,-2.14597,4.18504
5.9604,67170.1204,-1.62734,-2.45629,4.24063
5.9732,67170.1304,-1.56748,-2.78616,4.15266
5.984,67170.1404,-1.57053,-2.89245,3.97062
5.9918,67170.1504,-1.57298,-3.22231,3.53508
5.9996,67170.1604,-1.38605,-3.40496,3.16978
6.0172,67170.1714,-1.08734,-3.24247,3.01829
6.0261,67170.1814,-0.93157,-2.93948,3.03661
6.0342,67170.1914,-0.96333,-2.71285,3.07265
6.044,67170.2014,-1.08306,-2.68536,3.0696
6.061,67170.2114,-1.24494,-2.56869,3.11663
6.0628,67170.2214,-1.40988,-2.52348,3.28768
6.0755,67170.2314,-1.49295,-2.6817,3.55707
6.082,67170.2414,-1.48318,-2.72263,3.76415
6.0901,67170.2514,-1.51678,-2.70919,3.76415
6.0986,67170.2614,-1.65239,-2.62977,3.59189
6.11,67170.2714,-1.91079,-2.27547,3.29256
6.1184,67170.2814,-2.12154,-1.79228,3.02928
6.1307,67170.2913,-2.27364,-1.47402,2.72202
6.1398,67170.3024,-2.40009,-1.62918,2.41109
6.1518,67170.3124,-2.58213,-1.76296,2.1142
6.1604,67170.3224,-2.7269,-1.76418,1.90773
6.1718,67170.3324,-2.76539,-1.54488,1.88269
6.181,67170.3424,-2.72263,-1.2089,1.9792
6.1924,67170.3524,-2.56808,-0.84788,2.18018
6.2009,67170.3634,-2.31946,-0.82284,2.26998
6.2149,67170.3734,-1.83565,-0.82772,2.09038
6.2209,67170.3834,-1.35429,-0.70799,1.65606
6.2334,67170.3934,-0.76419,-0.58093,0.92241
6.2419,67170.4044,-0.30665,-0.89003,0.44838
6.2561,67170.4144,-0.04276,-1.42271,0.27428
6.281,67170.4244,0.03482,-1.67927,0.19548
6.2854,67170.4344,0.0226,-1.77151,0.17959
6.2942,67170.4444,-0.04398,-1.69454,0.27428
6.2954,67170.4544,-0.17715,-1.28709,0.51862
6.3023,67170.4644,-0.39156,-0.76908,0.73304
6.318,67170.4744,-0.78496,-0.19426,0.92668
6.3227,67170.4844,-1.10444,0.02688,0.96639
6.3341,67170.4944,-1.27304,-0.06414,0.92363
6.3424,67170.5044,-1.25166,-0.28466,0.86254
6.3545,67170.5144,-1.02748,-0.73243,0.70799
6.3624,67170.5244,-0.6408,-1.12521,0.51129
6.3753,67170.5344,-0.14111,-1.65056,0.45815
6.3825,67170.5444,0.19609,-2.1704,0.59682
6.3949,67170.5544,0.55955,-2.92116,0.81123
6.4026,67170.5644,0.81734,-3.42451,0.86315
6.4149,67170.5744,0.98166,-3.88327,0.77519
6.4225,67170.5844,0.99266,-4.07325,0.66829
6.435,67170.5944,0.8772,-3.97246,0.63591
6.4427,67170.6044,0.71044,-3.72811,0.68417
6.4607,67170.6144,0.50213,-3.40374,0.80084
6.4644,67170.6244,0.36224,-3.1313,0.94195
6.476,67170.6344,0.29871,-2.87534,0.96211
6.4837,67170.6444,0.31032,-2.75439,0.81306
6.4957,67170.6544,0.35675,-2.8674,0.65546
6.5022,67170.6643,0.38179,-3.20093,0.65729
6.5157,67170.6744,0.34758,-3.62732,0.74526
6.5222,67170.6844,0.33414,-3.98162,0.81917
6.5384,67170.6944,0.30727,-4.33959,0.90469
6.5515,67170.7044,0.2645,-4.51429,0.95295
6.563,67170.7144,0.21014,-4.47764,1.13315
6.5752,67170.7244,0.18082,-4.34142,1.3213
6.5765,67170.7344,0.18143,-4.06225,1.40194
6.5851,67170.7444,0.2022,-3.75743,1.25227
6.598,67170.7544,0.21441,-3.45505,0.92729
6.6016,67170.7644,0.1857,-3.30784,0.69516
6.6147,67170.7744,0.06964,-3.44345,0.62064
6.6217,67170.7844,-0.06414,-3.72506,0.64691
6.6334,67170.7944,-0.25962,-4.21925,0.83566
6.642,67170.8044,-0.43799,-4.65724,1.16125
6.6568,67170.8144,-0.51679,-4.9755,1.65422
6.663,67170.8244,-0.43799,-5.16303,1.94622
6.6753,67170.8344,-0.11057,-5.30842,2.11237
6.683,67170.8444,0.3488,-5.63768,2.01463
6.7009,67170.8544,1.00121,-5.99381,1.62185
6.7097,67170.8654,1.58886,-6.13981,1.20646
6.7186,67170.8764,2.0745,-6.10926,1.03236
6.7258,67170.8864,2.17346,-6.02435,1.28037
6.736,67170.8964,2.06106,-5.70304,1.69149
6.7441,67170.9064,1.84176,-5.31575,1.96576
6.7564,67170.9164,1.60535,-5.04819,2.05251
6.7651,67170.9274,1.44347,-4.99016,2.03296
6.7769,67170.9374,1.31214,-4.95167,2.04518
6.7849,67170.9474,1.2932,-5.04086,2.06839
6.803,67170.9574,1.35979,-5.3805,2.16307
6.819,67170.9674,1.38972,-5.79589,2.21683
6.8285,67170.9774,1.41965,-6.00297,1.97798
6.8304,67170.9874,1.46119,-5.96327,1.61879
6.8377,67170.9974,1.54121,-5.86431,1.383
6.8517,67171.0074,1.63773,-5.6951,1.3323
6.8576,67171.0174,1.78312,-5.52344,1.31031
6.8658,67171.0284,1.87719,-5.52711,1.33841
6.8787,67171.0384,1.91506,-5.64623,1.28954
6.8873,67171.0494,1.94622,-5.77573,1.20279
6.9005,67171.0594,2.1026,-5.55643,1.06107
6.9083,67171.0694,2.29869,-4.94801,0.85765
6.9215,67171.0794,2.31151,-4.24246,0.63835
6.9285,67171.0894,2.15758,-3.36526,0.42089
6.9408,67171.0994,2.13131,-3.01951,0.12034
6.9483,67171.1094,2.34206,-3.21254,-0.33353
6.9608,67171.1194,2.32007,-2.51066,-0.32193
6.9703,67171.1294,2.07267,-1.30359,0.31765
6.9906,67171.1394,2.07694,-0.53878,0.7367
7.0041,67171.1494,2.15574,-0.53939,0.70677
7.0238,67171.1594,2.34206,-0.49663,0.35736
7.0271,67171.1692,2.64138,-0.00977,-0.08919
7.0295,67171.1794,2.71163,0.14661,-0.17165
7.0365,67171.1904,2.71957,0.30665,-0.25717
7.0594,67171.2004,2.40925,0.04459,-0.27855
7.0619,67171.2104,1.98226,-0.22541,-0.40073
7.0627,67171.2204,1.51495,-0.28283,-0.67989
7.0712,67171.2304,1.23578,-0.30116,-0.94257
7.0837,67171.2404,0.97311,-0.21197,-1.21379
7.089,67171.2504,0.77336,0.03604,-1.30359
7.0992,67171.2604,0.64996,0.36896,-1.22723
7.109,67171.2704,0.63652,0.75808,-1.10628
7.1199,67171.2804,0.66645,1.08306,-0.95112
7.1292,67171.2904,0.70127,1.05802,-0.92057
7.1404,67171.3004,0.73976,0.98288,-1.1863
7.148,67171.3104,0.76358,1.12033,-1.51067
7.1617,67171.3204,0.69272,1.28343,-1.70248
7.1709,67171.3314,0.551,1.248,-1.47768
7.1835,67171.3414,0.34453,1.2535,-1.12277
7.1901,67171.3514,0.14539,1.36528,-0.95417
7.2033,67171.3614,-0.15577,1.50334,-0.87842
7.2101,67171.3714,-0.29138,1.40804,-0.97555
7.2228,67171.3814,-0.28039,1.57176,-1.29381
7.2328,67171.3914,-0.12706,1.93461,-1.72508
7.2432,67171.4014,0.09896,2.3897,-2.17224
7.2702,67171.4114,0.30055,2.37993,-2.60168
7.2727,67171.4214,0.36346,1.97126,-3.01645
7.2746,67171.4314,0.25779,1.64078,-3.18933
7.2851,67171.4414,-0.01527,1.60719,-3.13007
7.2937,67171.4512,-0.48197,2.08366,-3.01218
7.3012,67171.4614,-1.16553,2.75806,-2.81548
7.3095,67171.4713,-1.81183,3.3286,-2.71407
7.3258,67171.4814,-2.42697,3.83746,-2.74462
7.3346,67171.4914,-2.77944,4.02927,-2.83441
7.3419,67171.5014,-3.03905,4.19237,-3.04333
7.3487,67171.5114,-3.10869,4.45015,-3.3903
7.361,67171.5214,-3.0977,4.77025,-3.8961
7.3696,67171.5324,-2.96514,4.84294,-4.22719
7.3827,67171.5424,-2.69697,4.83866,-4.41778
7.3958,67171.5524,-2.36771,4.82706,-4.52224
7.4023,67171.5624,-1.83076,4.97611,-4.64685
7.4095,67171.5724,-1.41354,4.97916,-4.79774
7.4216,67171.5824,-1.05924,4.99505,-5.05552
7.4305,67171.5924,-0.978,5.06957,-5.18197
7.4409,67171.6024,-1.09101,5.0091,-5.22962
7.4499,67171.6124,-1.27121,4.83011,-5.21557
7.4617,67171.6224,-1.59253,4.42633,-5.25711
7.4693,67171.6324,-1.8106,4.20886,-5.3408
7.4815,67171.6424,-1.96882,3.77515,-5.41593
7.4894,67171.6524,-1.95599,3.37992,-5.41043
7.5013,67171.6624,-1.89918,2.9853,-5.31514
7.5105,67171.6724,-1.86436,2.81059,-5.24855
7.5237,67171.6824,-1.93522,2.69941,-5.31941
7.5304,67171.6924,-2.07633,2.5864,-5.44647
7.5428,67171.7024,-2.30113,2.53081,-5.64989
7.5519,67171.7134,-2.63649,2.42452,-5.7794
7.5686,67171.7234,-2.95476,2.33289,-5.791
7.5738,67171.7334,-3.13618,2.24615,-5.71403
7.5869,67171.7434,-3.2382,2.19178,-5.60958
7.5955,67171.7534,-3.29379,1.9957,-5.59125
7.6039,67171.7634,-3.33532,1.58458,-5.72381
7.6132,67171.7734,-3.30722,1.21623,-5.92478
7.6238,67171.7834,-3.22659,0.9334,-6.15813
7.6318,67171.7934,-3.13801,0.75136,-6.3139
7.6437,67171.8034,-2.98469,0.64324,-6.51243
7.6522,67171.8134,-2.85274,0.49297,-6.73662
7.6655,67171.8234,-2.83319,0.3372,-6.97242
7.6726,67171.8334,-2.95476,0.35186,-7.01151
7.6888,67171.8434,-3.19849,0.34453,-6.90033
7.6923,67171.8534,-3.44772,0.30116,-6.83131
7.7286,67171.8634,-3.75377,-0.08491,-6.85269
7.7347,67171.8734,-3.96024,-0.67623,-6.93271
7.741,67171.8834,-3.93336,-1.28526,-6.99746
7.7455,67171.8934,-3.70795,-1.50945,-7.02006
7.748,67171.9034,-3.39275,-1.47585,-7.01395
7.7709,67171.9134,-3.16673,-1.03175,-7.11597
7.7737,67171.9234,-3.17283,-0.3708,-7.29251
7.7751,67171.9334,-3.39275,-0.17226,-7.34871
7.7853,67171.9433,-3.64076,-0.10873,-7.25708
7.7916,67171.9534,-3.82951,-0.0898,-7.14834
7.8037,67171.9634,-3.93947,-0.02321,-7.00662
7.8109,67171.9734,-3.94008,0.15944,-6.86796
7.8241,67171.9834,-3.86128,0.57238,-6.72074
7.8381,67171.9934,-3.99567,0.82222,-6.70913
7.8507,67172.0034,-4.17343,0.81062,-6.74701
7.858,67172.0134,-4.20764,0.97311,-6.73112
7.8646,67172.0244,-4.19787,1.48746,-6.44463
7.8722,67172.0344,-4.19787,2.02624,-6.06039
7.8861,67172.0444,-4.27728,2.57724,-5.60652
7.8923,67172.0544,-4.42022,2.92238,-5.2626
7.9051,67172.0644,-4.70305,2.98286,-4.87532
7.9125,67172.0744,-4.87287,2.74767,-4.67373
7.9258,67172.0844,-4.97794,2.36527,-4.40373
7.9336,67172.0944,-4.93762,2.04273,-4.13495
7.9473,67172.1043,-4.71527,1.65361,-3.62426
7.9541,67172.1144,-4.4526,1.4392,-3.182
7.9705,67172.1244,-4.03354,1.19974,-2.58946
7.9748,67172.1354,-3.6261,1.03725,-2.10565
7.9878,67172.1454,-3.19055,0.88698,-1.61268
8.0029,67172.1554,-3.01218,0.71349,-1.37933
8.0091,67172.1654,-2.88206,0.39095,-1.23028
8.0147,67172.1754,-2.81731,0.1014,-1.1527
8.0251,67172.1854,-2.74523,-0.22235,-1.10261
8.0331,67172.1954,-2.69758,-0.36652,-1.20402
8.0452,67172.2054,-2.62733,-0.45143,-1.37384
8.0546,67172.2154,-2.55464,-0.47403,-1.41843
8.0682,67172.2264,-2.39765,-0.53145,-1.27793
8.0799,67172.2364,-2.28158,-0.58338,-1.08001
8.0904,67172.2464,-2.16185,-0.71532,-0.92974
8.0939,67172.2564,-2.06167,-0.87415,-0.97616
8.1097,67172.2664,-1.89063,-1.19363,-1.17714
8.1134,67172.2764,-1.71775,-1.51556,-1.38056
8.125,67172.2864,-1.50395,-1.67683,-1.57115
8.1334,67172.2964,-1.34451,-1.77395,-1.63406
8.145,67172.3064,-1.18325,-2.01463,-1.57115
8.1535,67172.3164,-1.01159,-2.22294,-1.4392
8.1651,67172.3264,-0.6353,-2.42758,-1.30175
8.1735,67172.3364,-0.20525,-2.44163,-1.22112
8.185,67172.3464,0.16493,-2.55708,-1.19668
8.1935,67172.3564,0.57849,-2.73057,-1.2034
8.205,67172.3664,1.28404,-3.07754,-1.18569
8.2152,67172.3764,2.05434,-3.6041,-1.16431
8.2295,67172.3864,2.94804,-4.46604,-1.16309
8.2434,67172.3964,3.68291,-5.14654,-1.21318
8.2518,67172.4064,4.71588,-5.46541,-1.55343
8.2729,67172.4164,5.61996,-5.33652,-2.30052
8.2767,67172.4264,6.48311,-5.01215,-3.42634
8.2792,67172.4364,6.94004,-5.06285,-4.22597
8.2908,67172.4464,7.22898,-5.35973,-4.94862
8.2941,67172.4564,7.30228,-5.52894,-5.23817
8.3062,67172.4663,7.33405,-5.5436,-5.13371
8.3142,67172.4764,7.4098,-5.51917,-4.82584
8.3259,67172.4864,7.601,-5.47763,-4.46604
8.3344,67172.4964,7.75738,-5.49473,-4.38907
8.346,67172.5064,7.79953,-5.62118,-4.63647
8.3551,67172.5164,7.73294,-5.74824,-5.04575
8.3796,67172.5264,7.71706,-5.68838,-5.52772
8.3856,67172.5364,7.83984,-5.38111,-6.03413
8.3869,67172.5464,8.0848,-4.73848,-6.67859
8.3964,67172.5564,8.3487,-4.36402,-7.2754
8.406,67172.5664,8.5796,-4.46176,-7.88627
8.4147,67172.5764,8.703,-4.66762,-8.33098
8.4293,67172.5874,8.91741,-4.9364,-9.06035
8.4444,67172.5974,9.23384,-5.07934,-9.70726
8.4522,67172.6073,9.63334,-5.34996,-10.40304
8.455,67172.6174,9.94366,-5.46602,-11.08598
8.4688,67172.6274,10.20878,-4.90464,-11.82207
8.4755,67172.6374,10.2045,-4.554,-12.20325
8.4871,67172.6474,9.83921,-4.4416,-12.43722
8.4951,67172.6574,9.37556,-4.32065,-12.36086
8.5105,67172.6674,8.40795,-4.00361,-11.86484
8.5208,67172.6774,7.61199,-3.57234,-11.14951
8.5295,67172.6873,6.57596,-3.00179,-9.79156
8.5379,67172.6974,5.70976,-2.65665,-8.64619
8.5508,67172.7074,4.48925,-2.27181,-7.28823
8.5567,67172.7174,3.40618,-1.83198,-6.14225
8.575,67172.7274,2.215,-1.29565,-4.89731
8.58,67172.7384,1.22173,-0.78557,-3.9975
8.6009,67172.7484,0.31337,-0.17349,-3.36342
8.6031,67172.7594,-0.25045,0.22052,-3.11114
8.612,67172.7704,-0.52962,0.30421,-3.12396
8.6192,67172.7804,-0.57421,0.40989,-3.18139
8.6429,67172.7904,-0.47281,0.68234,-3.16856
8.6623,67172.8014,-0.3543,0.93707,-2.99141
8.6635,67172.8114,-0.33781,1.5571,-2.631
8.6655,67172.8212,-0.3653,2.45629,-2.24126
8.6761,67172.8314,-0.47647,3.51614,-1.71714
8.6858,67172.8414,-0.61758,4.37685,-1.15576
8.6958,67172.8514,-0.77274,5.21312,-0.59193
8.7177,67172.8614,-1.04824,5.75374,-0.2419
8.7189,67172.8714,-1.56748,5.98465,-0.23457
8.7201,67172.8814,-2.16246,5.97609,-0.43494
8.7368,67172.8914,-2.77822,5.9651,-0.64019
8.7392,67172.9014,-3.38542,6.04757,-0.63835
8.752,67172.9114,-3.89793,6.3304,-0.39095
8.7587,67172.9214,-4.07142,6.97181,0.08063
8.7713,67172.9314,-4.13311,7.81663,0.79046
8.7786,67172.9414,-4.0647,8.40978,1.31031
8.7908,67172.9514,-3.94619,8.40428,1.52411
8.8004,67172.9614,-3.7727,8.02372,1.24861
8.8118,67172.9724,-3.34876,7.67308,0.47037
8.8197,67172.9824,-3.02439,7.57778,-0.20036
8.8317,67172.9924,-2.76355,7.30534,-1.02931
8.8398,67173.0024,-2.73973,6.91805,-1.51433
8.854,67173.0124,-2.91871,6.67126,-1.62368
8.8613,67173.0224,-3.16306,6.54237,-1.44409
8.8753,67173.0324,-3.75255,6.0665,-1.06779
8.887,67173.0424,-4.16182,5.54299,-1.05069
8.8933,67173.0524,-4.3237,5.21984,-1.44531
8.9055,67173.0624,-4.2052,5.02559,-1.90712
8.9115,67173.0724,-3.98223,4.36952,-2.37627
8.9205,67173.0824,-3.76415,3.61205,-2.55891
8.9324,67173.0924,-3.58944,2.91077,-2.56441
8.9396,67173.1024,-3.65969,2.63039,-2.52959
8.9515,67173.1124,-3.81119,2.50638,-2.474
8.9596,67173.1224,-3.90282,2.32617,-2.48317
8.972,67173.1324,-3.8344,2.09649,-2.63405
8.9797,67173.1424,-3.74827,1.64506,-2.93215
8.9936,67173.1524,-3.86556,0.8094,-3.39824
9.0001,67173.1624,-4.04576,0.55894,-3.75804
9.0158,67173.1724,-4.41595,0.56139,-4.09829
9.0218,67173.1824,-4.84477,0.49358,-4.17649
9.0326,67173.1934,-5.16181,0.62675,-4.06775
9.0426,67173.2034,-5.25527,0.76908,-3.92237
9.0526,67173.2134,-5.20091,0.3769,-4.04332
9.0639,67173.2234,-4.79346,-0.04154,-4.3854
9.0763,67173.2334,-4.13434,-0.64935,-5.0488
9.0808,67173.2434,-3.67741,-1.3494,-5.69265
9.0925,67173.2534,-3.32494,-2.3781,-6.36644
9.1006,67173.2634,-3.19238,-2.84846,-6.64133
9.1125,67173.2734,-3.24797,-2.56197,-6.61567
9.1206,67173.2834,-3.30295,-1.74891,-6.47639
9.1325,67173.2934,-3.51981,-1.41782,-6.32123
9.1411,67173.3034,-3.9242,-1.50029,-6.11904
9.1557,67173.3134,-4.44099,-1.83015,-5.84537
9.1611,67173.3234,-4.65357,-1.89124,-5.70854
9.1733,67173.3334,-4.64624,-1.88513,-5.62118
9.1891,67173.3434,-4.59004,-1.91445,-5.52833
9.1948,67173.3534,-4.75864,-1.82221,-5.37745
9.201,67173.3634,-5.12638,-2.07694,-5.18258
9.2131,67173.3734,-5.73236,-2.1197,-5.08606
9.2214,67173.3834,-6.40859,-1.48379,-5.18502
9.2401,67173.3934,-6.95104,-0.79107,-5.43792
9.2424,67173.4034,-7.14224,-0.65301,-5.57048
9.2529,67173.4134,-7.02495,-0.60537,-5.50695
9.261,67173.4234,-6.71341,-0.2981,-5.36034
9.2746,67173.4334,-6.36216,0.13989,-5.28337
9.2844,67173.4434,-5.92356,-0.10996,-5.13799
9.2968,67173.4534,-5.25161,-0.90103,-4.72199
9.3017,67173.4632,-4.68534,-1.57359,-4.17465
9.3142,67173.4744,-4.02682,-1.50639,-3.5418
9.3219,67173.4844,-3.58517,-0.92363,-3.43795
9.3345,67173.4944,-3.1429,-0.54734,-3.6487
9.343,67173.5054,-2.89917,-1.10139,-3.83135
9.3571,67173.5154,-2.69697,-1.98165,-3.82585
9.3643,67173.5254,-2.5919,-2.43185,-3.63098
9.3769,67173.5354,-2.52654,-2.86984,-3.16123
9.3845,67173.5454,-2.45323,-3.14351,-2.57113
9.3972,67173.5554,-2.35855,-3.36159,-1.66583
9.4071,67173.5654,-2.25776,-3.42634,-1.02625
9.4211,67173.5754,-2.02441,-2.95414,-0.73548
9.4244,67173.5864,-1.66705,-2.37016,-0.9218
9.4392,67173.5964,-0.96089,-1.55282,-1.80144
9.4472,67173.6064,-0.2584,-0.85949,-2.68353
9.4605,67173.6164,0.81673,-0.45265,-3.69635
9.4638,67173.6264,1.62979,-0.7703,-4.25345
9.4755,67173.6364,2.52837,-1.53938,-4.72382
9.4846,67173.6464,3.18078,-2.08366,-4.99199
9.4956,67173.6564,3.80325,-2.5693,-5.19174
9.5036,67173.6664,4.30049,-2.50271,-5.29376
9.5161,67173.6764,4.82339,-2.04457,-5.21984
9.525,67173.6864,4.86493,-1.65728,-5.0433
9.5413,67173.6964,4.67251,-1.15881,-4.65846
9.5461,67173.7064,4.48742,-0.80207,-4.33165
9.556,67173.7164,4.38357,-0.23091,-4.04454
9.564,67173.7264,4.48253,0.21686,-3.97673
9.5761,67173.7364,4.80568,0.45754,-4.07569
9.5839,67173.7464,5.31147,0.59071,-4.32248
9.5958,67173.7564,5.99198,0.68295,-4.73787
9.6049,67173.7664,6.79221,0.89003,-5.15143
9.618,67173.7764,7.77082,1.41293,-5.84232
9.6261,67173.7874,8.65352,1.78189,-6.58085
9.641,67173.7974,9.3047,1.8949,-7.16911
9.6459,67173.8073,9.63945,1.96576,-7.45256
9.6592,67173.8174,9.82455,1.95904,-7.6798
9.6665,67173.8274,9.76651,2.00669,-7.78548
9.6948,67173.8384,9.45925,2.7043,-7.87283
9.7041,67173.8494,9.16298,3.182,-7.91498
9.7049,67173.8594,8.77936,3.16184,-7.85939
9.7081,67173.8694,8.46781,2.99324,-7.76715
9.7209,67173.8794,7.97424,2.73057,-7.65292
9.727,67173.8894,7.61688,2.70064,-7.61199
9.7391,67173.8994,7.24364,2.64688,-7.68224
9.7485,67173.9094,6.91438,2.5302,-7.96996
9.761,67173.9194,6.47761,2.4178,-8.48675
9.7677,67173.9294,6.00175,2.1252,-8.79524
9.7814,67173.9394,5.50512,1.76662,-8.85999
9.7893,67173.9494,5.08301,1.5852,-8.62664
9.8068,67173.9594,4.63525,1.61268,-8.17582
9.8107,67173.9694,4.21802,1.69576,-7.72683
9.821,67173.9794,3.81119,1.85214,-7.03045
9.829,67173.9894,3.38786,1.84726,-6.35055
9.8407,67173.9994,2.71591,1.65667,-5.66639
9.8493,67174.0104,1.93583,1.3549,-5.22473
9.8617,67174.0203,0.93768,0.99449,-4.79774
9.873,67174.0304,0.0733,0.70921,-4.33348
9.8835,67174.0404,-0.91019,0.22297,-3.587
9.8961,67174.0504,-1.41476,-0.11057,-3.10136
9.9059,67174.0604,-2.05801,-0.31276,-2.44835
9.9113,67174.0704,-2.66948,-0.55283,-1.85764
9.9224,67174.0803,-3.23575,-0.83627,-1.10383
9.929,67174.0903,-3.62182,-0.92607,-0.42272
9.9456,67174.1004,-3.6658,-0.75014,0.49786
9.9558,67174.1104,-3.27241,-0.70372,1.2315
9.9662,67174.1203,-2.65787,-0.85765,1.81793
9.9743,67174.1314,-2.36466,-1.17653,2.00181
9.9819,67174.1414,-2.51371,-2.08061,2.01524
9.9908,67174.1514,-3.00729,-2.72568,2.00791
10.0017,67174.1614,-3.52103,-2.755,2.14292
10.013,67174.1714,-3.81852,-2.90711,2.50882
10.0212,67174.1814,-3.9358,-3.06593,3.23331
10.0314,67174.1914,-3.85639,-3.15512,4.014
10.0427,67174.2014,-3.86678,-3.38419,4.78613
10.0545,67174.2114,-3.99384,-3.57784,5.14715
10.0784,67174.2214,-4.26445,-3.91992,5.24672
10.0804,67174.2313,-4.51735,-4.3237,5.12821
10.082,67174.2414,-4.73787,-4.52712,5.10683
10.0908,67174.2514,-5.01948,-4.6212,5.22473
10.1061,67174.2624,-5.21068,-4.37013,5.46175
10.1098,67174.2724,-5.31941,-4.15511,5.5998
10.1221,67174.2824,-5.39455,-4.02743,5.5381
10.1299,67174.2924,-5.43487,-3.90282,5.38722
10.1441,67174.3024,-5.49962,-3.82402,5.14226
10.1523,67174.3124,-5.5717,-3.81363,5.0036
10.164,67174.3224,-5.64073,-3.6487,4.88937
10.1746,67174.3324,-5.5943,-3.21437,4.8747
10.1841,67174.3424,-5.41166,-2.71163,5.0769
10.1942,67174.3524,-5.24245,-2.31579,5.27971
10.2084,67174.3624,-5.15692,-2.04396,5.37989
10.2197,67174.3724,-5.19785,-1.77395,5.37989
10.234,67174.3824,-5.36767,-1.45325,5.36156
10.237,67174.3934,-5.56987,-1.26022,5.35668
10.2541,67174.4033,-5.89118,-1.17225,5.38661
10.2565,67174.4133,-6.28153,-1.0006,5.4929
10.2633,67174.4234,-6.6737,-0.62858,5.73969
10.2712,67174.4334,-6.87651,0.06292,6.05245
10.2861,67174.4434,-6.94065,0.88087,6.67554
10.2913,67174.4533,-6.89911,1.06963,7.01273
10.303,67174.4634,-6.80809,1.28343,6.5442
10.3119,67174.4734,-6.4263,1.90468,6.23816
10.3246,67174.4834,-6.05673,2.00852,5.97243
10.3328,67174.4934,-5.85575,1.80083,5.6786
10.3444,67174.5034,-5.59369,1.73241,5.21679
10.354,67174.5134,-5.29987,1.68049,4.89181
10.3647,67174.5234,-4.85577,1.7202,4.72993
10.3747,67174.5344,-4.41533,2.24126,4.93274
10.3868,67174.5444,-4.1435,3.06532,5.52161
10.392,67174.5543,-4.15205,3.7165,6.17035
10.4041,67174.5644,-4.47642,4.38723,7.1404
10.4122,67174.5744,-4.99138,4.32432,7.85878
10.4246,67174.5844,-5.45503,3.43367,7.77082
10.4324,67174.5944,-5.54849,3.23148,7.35237
10.4443,67174.6044,-5.30353,3.04028,6.64744
10.4588,67174.6144,-4.86188,2.92666,5.97304
10.4737,67174.6244,-4.2223,2.73423,5.41532
10.4845,67174.6344,-3.59067,2.49416,5.29987
10.4856,67174.6454,-2.88389,2.23149,5.59064
10.4931,67174.6554,-2.31579,1.8387,5.96693
10.505,67174.6654,-1.75379,1.34757,6.21067
10.5134,67174.6754,-1.29748,0.98716,6.26809
10.525,67174.6854,-0.62125,0.38607,6.14164
10.5331,67174.6954,0.03543,-0.09346,5.78184
10.545,67174.7054,0.72754,-0.64324,5.20946
10.5543,67174.7154,1.19791,-1.26632,4.72626
10.5731,67174.7254,1.50273,-1.97493,4.33226
10.5784,67174.7364,1.62734,-2.78249,3.94375
10.6026,67174.7464,1.67988,-3.43917,3.53874
10.6086,67174.7564,1.82404,-3.7501,3.2217
10.6101,67174.7664,2.13925,-4.41961,2.81426
10.614,67174.7764,2.47034,-5.1783,2.25531
10.6281,67174.7864,2.88878,-6.06223,1.29137
10.6366,67174.7964,2.97858,-6.45257,0.63163
10.6458,67174.8064,2.71285,-6.41897,0.36591
10.6544,67174.8164,2.43613,-5.74946,0.46792
10.6762,67174.8264,2.33595,-4.73604,1.00182
10.6782,67174.8364,2.45262,-3.96574,1.73364
10.6975,67174.8474,2.62,-3.77881,2.68659
10.699,67174.8574,2.82159,-4.29438,3.3732
10.7072,67174.8674,3.23148,-5.14532,3.78553
10.7153,67174.8774,3.79592,-5.74641,3.92359
10.7296,67174.8874,4.46054,-5.86492,3.90099
10.7398,67174.8974,4.92174,-5.37622,3.79653
10.7465,67174.9074,5.27055,-5.02681,3.7611
10.7547,67174.9174,5.27116,-5.37439,3.73422
10.7667,67174.9274,5.12577,-6.15569,3.60044
10.7747,67174.9374,5.09889,-6.50266,3.41168
10.7878,67174.9474,5.16242,-6.21616,3.0586
10.7969,67174.9574,5.16487,-5.48496,2.7886
10.8081,67174.9684,5.09584,-4.89425,2.5919
10.8162,67174.9784,5.08362,-5.05491,2.62
10.8284,67174.9884,5.2003,-5.62118,2.70002
10.8366,67174.9984,5.52344,-6.06223,2.6029
10.8482,67175.0084,6.09033,-6.24671,2.28158
10.856,67175.0184,6.59551,-6.17524,1.88696
10.8702,67175.0284,7.17767,-6.06467,1.29687
10.8851,67175.0384,7.58328,-6.19051,0.91385
10.8921,67175.0484,7.76654,-6.30718,0.60903
10.8994,67175.0594,7.60833,-6.39209,0.39706
10.9161,67175.0694,7.31694,-6.35666,0.24984
10.9209,67175.0794,7.0842,-6.11049,0.21136
10.935,67175.0894,6.93027,-5.59125,0.25473
10.9404,67175.0994,6.81298,-5.27727,0.47647
10.9523,67175.1094,6.56558,-5.25405,0.90286
10.9596,67175.1194,6.4037,-5.20213,1.07024
10.9715,67175.1294,6.18745,-5.1667,1.00732
10.9787,67175.1394,5.97304,-5.39699,0.7477
10.9976,67175.1494,5.74458,-5.91867,0.37568
11.0365,67175.1604,5.50573,-6.33712,0
11.0605,67175.1704,5.00665,-6.7971,-0.50091
11.0641,67175.1814,4.28766,-7.51486,-0.81184
11.0649,67175.1914,3.18261,-7.21554,-0.78741
11.0661,67175.2014,2.22355,-4.82217,-0.83689
11.067,67175.2114,0.63774,-3.47949,-0.85216
11.0683,67175.2214,-0.54428,-3.46483,-0.67989
11.0742,67175.2314,-1.49662,-3.52347,-0.26878
11.0822,67175.2414,-1.81183,-3.28279,0.20769
11.0914,67175.2514,-1.86008,-2.95109,0.85277
11.1006,67175.2614,-1.76845,-3.03478,1.40316
11.115,67175.2714,-1.55954,-3.50637,1.74219
11.1187,67175.2814,-1.32741,-4.01155,1.78678
11.1304,67175.2914,-0.96456,-3.3506,1.39827
11.1386,67175.3014,-0.91385,-2.70858,0.88637
11.1511,67175.3114,-1.66766,-2.42636,0.50091
11.1599,67175.3214,-2.55525,-2.30724,0.42638
11.1717,67175.3314,-3.43001,-2.30724,0.6127
11.1795,67175.3414,-3.722,-2.34817,0.99143
11.1923,67175.3514,-3.62671,-2.29624,1.53999
11.1994,67175.3614,-3.35304,-2.37016,1.81366
11.2131,67175.3714,-2.99813,-2.78616,1.8216
11.2358,67175.3814,-2.73851,-3.48438,1.57115
11.2384,67175.3914,-2.5919,-4.30355,1.34024
11.2403,67175.4014,-2.5864,-4.84844,1.29198
11.2533,67175.4114,-2.48317,-4.1771,1.22601
11.2616,67175.4214,-2.34694,-2.20095,0.92546
11.273,67175.4314,-2.94804,-1.40927,0.8491
11.2793,67175.4414,-3.64076,-1.7092,1.14782
11.292,67175.4514,-4.37196,-1.91873,1.92789
11.2988,67175.4614,-4.77147,-1.49601,2.82464
11.3117,67175.4713,-5.17708,-1.05619,4.02377
11.3206,67175.4814,-5.4593,-0.94928,4.84477
11.3313,67175.4914,-5.82093,-0.86132,5.81544
11.3403,67175.5024,-6.06589,-0.6408,6.5668
11.3533,67175.5124,-6.32856,-0.61209,7.23936
11.3604,67175.5224,-6.47639,-0.17715,7.49959
11.373,67175.5324,-6.49411,1.68904,7.24731
11.3808,67175.5424,-6.89667,2.18262,6.72013
11.3939,67175.5534,-7.62604,1.56381,5.94616
11.4023,67175.5634,-7.93575,1.28465,5.386
11.416,67175.5734,-8.06281,1.44592,4.84722
11.4232,67175.5834,-8.04693,1.64995,4.79896
11.4359,67175.5944,-8.00661,1.91445,5.05674
11.4432,67175.6044,-7.99928,2.17529,5.32552
11.4571,67175.6144,-8.02982,2.47278,5.69449
11.4632,67175.6244,-8.03715,2.57174,5.85148
11.4759,67175.6344,-7.90826,2.69941,5.87164
11.4841,67175.6444,-7.64254,3.20216,5.66761
11.4962,67175.6544,-7.20638,4.003,5.16975
11.5033,67175.6644,-6.90033,4.36341,4.824
11.5219,67175.6744,-6.6682,4.689,4.71344
11.5346,67175.6844,-6.69081,4.5711,4.55828
11.5406,67175.6944,-6.84841,4.39884,4.12456
11.5431,67175.7044,-6.85574,4.2675,3.70368
11.5553,67175.7144,-6.5332,3.91626,3.23942
11.5621,67175.7244,-6.05734,3.39947,2.87901
11.5743,67175.7344,-5.27116,2.80754,2.46606
11.5821,67175.7444,-4.35608,2.40559,2.26814
11.5942,67175.7544,-3.44833,2.24188,2.24126
11.6037,67175.7644,-2.85152,2.42452,2.48928
11.616,67175.7744,-2.35061,3.25041,3.00362
11.6231,67175.7844,-2.09832,4.19298,3.48987
11.6359,67175.7944,-2.01097,5.40005,4.18504
11.6444,67175.8044,-2.04762,6.23266,4.7843
11.6639,67175.8144,-2.16063,6.50633,5.16425
11.669,67175.8244,-2.29074,5.33285,4.88326
11.68,67175.8344,-2.28891,3.3225,3.73727
11.6822,67175.8444,-2.06289,1.88818,2.31823
11.7018,67175.8544,-1.6194,0.92118,0.63958
11.7043,67175.8644,-1.35856,0.6463,-0.19914
11.7141,67175.8744,-1.19791,0.58521,-0.65057
11.7222,67175.8844,-1.18691,0.80451,-0.49175
11.7343,67175.8944,-1.20035,1.18141,0.38973
11.7421,67175.9044,-1.10933,1.68416,1.53144
11.7542,67175.9144,-0.88514,2.38115,2.64932
11.762,67175.9244,-0.57299,3.37137,3.45444
11.7771,67175.9344,-0.26512,4.43855,3.97307
11.7838,67175.9444,-0.07697,5.08057,4.12334
11.7942,67175.9544,0.04826,5.36584,4.02194
11.8025,67175.9644,0.03971,4.9309,3.68657
11.8203,67175.9744,-0.06597,3.8344,2.93154
11.8246,67175.9844,-0.13928,2.65482,2.05678
11.8347,67175.9944,-0.0788,1.63834,1.08978
11.8423,67176.0044,0.10507,1.2651,0.46059
11.8555,67176.0144,0.39401,1.09345,-0.04887
11.8621,67176.0242,0.57727,1.08306,-0.14783
11.875,67176.0344,0.73365,1.06963,0.02321
11.8834,67176.0454,0.87537,1.11483,0.29322
11.8956,67176.0554,1.02076,1.35918,0.66096
11.9041,67176.0654,1.11972,1.78495,1.03236
11.9171,67176.0754,1.17653,2.41414,1.36589
11.9242,67176.0854,1.1863,2.96697,1.49295
11.9372,67176.0954,1.19852,3.54791,1.53083
11.9442,67176.1054,1.06718,3.51919,1.48685
11.9571,67176.1154,0.54367,2.7153,1.28893
11.9656,67176.1264,-0.01649,1.89307,0.94318
11.9791,67176.1364,-0.30971,1.41354,0.48381
11.9856,67176.1464,-0.27794,1.23334,0.19242
11.9985,67176.1564,-0.12095,0.91874,0.07758
12.0154,67176.1674,-0.00428,0.42638,0.04581
12.0177,67176.1774,0.12828,-0.02871,0.00916
12.0251,67176.1874,0.27122,-0.3372,-0.01038
12.05,67176.1974,0.4215,-0.63774,-0.03482
12.0588,67176.2074,0.50519,-0.67684,-0.03299
12.0633,67176.2174,0.49786,-0.69761,0.00489
12.0768,67176.2284,0.37996,-0.7025,0.01161
12.0794,67176.2384,0.19242,-0.76664,-0.06903
12.0962,67176.2484,0.04337,-1.03419,-0.20281
12.0978,67176.2584,-0.09713,-1.62307,-0.44715
12.1078,67176.2684,-0.14416,-2.26448,-0.63225
12.1168,67176.2783,-0.135,-3.01218,-0.75381
12.1256,67176.2883,-0.10446,-3.56196,-0.78313
12.1368,67176.2984,-0.01833,-4.25773,-0.72204
12.1453,67176.3084,0.10568,-4.82767,-0.58826
12.1598,67176.3184,0.26939,-5.26688,-0.40134
12.1668,67176.3282,0.39584,-5.45869,-0.36346
12.1798,67176.3384,0.48319,-5.55765,-0.4386
12.1875,67176.3484,0.49663,-5.59919,-0.5229
12.1997,67176.3583,0.48808,-5.65539,-0.60476
12.208,67176.3694,0.46426,-5.66761,-0.67745
12.225,67176.3794,0.39095,-5.80689,-0.67745
12.2307,67176.3894,0.24557,-5.90829,-0.65057
12.2418,67176.3994,0.05986,-5.83621,-0.64263
12.2483,67176.4104,-0.08247,-5.46724,-0.59804
12.2609,67176.4204,-0.20586,-4.79224,-0.42028
12.27,67176.4304,-0.26573,-4.0311,-0.25962
12.2847,67176.4404,-0.25962,-3.15084,-0.19975
12.2918,67176.4504,-0.15699,-2.62794,-0.21686
12.3021,67176.4604,0.02382,-2.4795,-0.22969
12.3092,67176.4703,0.20769,-2.53753,-0.21869
12.3218,67176.4804,0.36957,-2.61206,-0.22052
12.3284,67176.4904,0.48625,-2.77455,-0.24557
12.3422,67176.5004,0.56077,-2.9572,-0.23274
12.348,67176.5104,0.6072,-3.21865,-0.14416
12.3621,67176.5204,0.65485,-3.57845,-0.01344
12.3754,67176.5304,0.71166,-4.00117,0.06109
12.3811,67176.5414,0.80879,-4.6383,-0.0055
12.3908,67176.5514,0.9279,-5.1722,-0.21808
12.401,67176.5614,1.12033,-5.8246,-0.53145
12.4091,67176.5714,1.2877,-6.38782,-0.77213
12.4223,67176.5814,1.41782,-7.09153,-0.93646
12.4305,67176.5914,1.4056,-7.53808,-0.93035
12.4438,67176.6024,1.30847,-8.26745,-0.79168
12.4514,67176.6124,1.27549,-8.57594,-0.66645
12.4638,67176.6223,1.26388,-8.38596,-0.62003
12.4724,67176.6324,1.26571,-7.79953,-0.62919
12.4838,67176.6424,1.2987,-6.79893,-0.68295
12.491,67176.6524,1.31947,-6.03718,-0.69028
12.5038,67176.6624,1.25472,-6.02496,-0.61942
12.5112,67176.6724,1.18386,-6.50205,-0.63591
12.5237,67176.6824,1.13071,-7.45561,-0.9053
12.5313,67176.6924,1.06229,-8.54478,-1.37628
12.5466,67176.7024,0.95417,-9.40183,-1.95355
12.5525,67176.7134,0.85277,-9.54233,-2.35366
12.5773,67176.7244,0.74648,-9.13427,-2.66887
12.5879,67176.7344,0.70616,-8.65413,-2.82647
12.5939,67176.7442,0.69516,-8.17949,-3.01462
12.596,67176.7544,0.64568,-7.59672,-3.27118
12.6062,67176.7644,0.53756,-6.68225,-3.54791
12.6187,67176.7744,0.40256,-5.33224,-3.64137
12.6303,67176.7844,0.25656,-3.4184,-3.38725
12.638,67176.7943,0.12889,-1.7935,-2.83197
12.6691,67176.8044,0.00977,0.24496,-1.62246
12.6705,67176.8144,-0.06109,1.81488,-0.2529
12.6712,67176.8244,-0.2248,3.13679,1.12644
12.6724,67176.8344,-0.45815,3.90526,1.79594
12.6833,67176.8444,-0.8491,4.4807,2.0354
12.6915,67176.8544,-1.18691,4.90097,1.85398
12.7033,67176.8644,-1.45691,5.3072,1.51128
12.7117,67176.8744,-1.57603,5.68105,1.2987
12.7233,67176.8844,-1.65239,6.13736,1.31153
12.7316,67176.8944,-1.70737,6.39087,1.50945
12.7434,67176.9044,-1.76357,6.50205,1.82954
12.7518,67176.9144,-1.78373,6.56986,2.03052
12.778,67176.9244,-1.7709,6.82336,2.1081
12.7803,67176.9344,-1.75257,7.33771,2.17712
12.7851,67176.9444,-1.78067,8.15444,2.33595
12.7923,67176.9544,-1.88513,8.82578,2.50943
12.8069,67176.9644,-2.10932,9.02859,2.55647
12.8156,67176.9744,-2.29869,8.94307,2.45629
12.8351,67176.9844,-2.44835,8.71033,2.24921
12.8455,67176.9944,-2.46179,8.42444,2.03662
12.8505,67177.0043,-2.28769,7.98645,1.83198
12.86,67177.0154,-1.95477,7.5283,1.70554
12.8652,67177.0254,-1.44775,7.13063,1.5742
12.873,67177.0354,-0.95112,6.98341,1.38483
12.885,67177.0454,-0.48564,6.88689,1.17775
12.8932,67177.0554,-0.23213,6.84841,1.04641
12.9071,67177.0654,-0.07758,6.78549,0.94501
12.9155,67177.0754,-0.11362,6.64194,0.80695
12.9282,67177.0854,-0.30238,6.4654,0.61697
12.9346,67177.0954,-0.45571,6.32979,0.42699
12.9513,67177.1054,-0.54306,6.25404,0.02321
12.9581,67177.1164,-0.51129,5.96693,-0.34636
12.971,67177.1264,-0.38851,5.48313,-0.49114
12.9804,67177.1364,-0.23702,4.97672,-0.47159
12.9882,67177.1464,-0.0336,4.32737,-0.43494
12.999,67177.1564,0.14661,3.85028,-0.3934
13.0102,67177.1664,0.24923,3.56318,-0.25534
13.0163,67177.1774,0.20647,3.52836,-0.18082
13.0294,67177.1874,-0.05925,3.60227,-0.26145
13.0508,67177.1974,-0.33292,3.60838,-0.32742
13.052,67177.2074,-0.71838,3.5644,-0.34392
13.0605,67177.2174,-1.00854,3.47094,-0.31643
13.0712,67177.2274,-1.30603,3.16123,-0.31154
13.0774,67177.2384,-1.44225,2.85457,-0.33109
13.0905,67177.2484,-1.40499,2.5583,-0.31276
13.097,67177.2584,-1.27243,2.34939,-0.33659
13.108,67177.2684,-1.01281,2.10199,-0.40806
13.1155,67177.2784,-0.72021,1.79839,-0.43982
13.1285,67177.2884,-0.40012,1.36834,-0.3488
13.1354,67177.2984,-0.18692,0.98166,-0.19181
13.1513,67177.3084,0.0336,0.32742,0.01283
13.1569,67177.3184,0.16799,-0.20403,0.07269
13.1717,67177.3284,0.34575,-0.63652,0.01772
13.1782,67177.3384,0.4441,-0.73426,-0.0617
13.1906,67177.3484,0.48747,-0.72265,-0.09468
13.1972,67177.3584,0.44043,-0.6127,-0.04948
13.2186,67177.3684,0.31704,-0.43799,0.08125
13.2213,67177.3784,0.2022,-0.30543,0.26817
13.2301,67177.3883,0.12462,-0.27306,0.52657
13.237,67177.3994,0.0672,-0.36285,0.96211
13.2489,67177.4094,0.04826,-0.5455,1.53388
13.2576,67177.4194,0.09041,-0.6744,1.99814
13.2691,67177.4294,0.20953,-0.84666,2.31396
13.2807,67177.4394,0.36408,-1.0458,2.55708
13.291,67177.4494,0.52657,-1.23273,2.8503
13.2975,67177.4594,0.59682,-1.29931,3.20949
13.3095,67177.4693,0.59193,-1.36223,3.64809
13.3175,67177.4794,0.53329,-1.51067,4.05248
13.3301,67177.4894,0.46059,-1.73608,4.41411
13.3375,67177.4993,0.41417,-1.9004,4.68228
13.3578,67177.5094,0.35369,-1.92178,5.02803
13.3742,67177.5194,0.27855,-1.86436,5.38478
13.375,67177.5294,0.19242,-1.68538,5.94066
13.3831,67177.5404,0.09041,-1.34513,6.5216
13.3903,67177.5504,-0.11973,-0.89247,6.91377
13.3978,67177.5602,-0.35064,-0.5846,7.01457
13.4105,67177.5704,-0.70066,-0.31643,6.91438
13.4187,67177.5802,-1.0287,-0.14905,6.71219
13.4323,67177.5904,-1.36651,-0.14478,6.43913
13.4396,67177.6004,-1.50029,-0.2981,6.22838
13.4522,67177.6103,-1.48257,-0.5736,6.02741
13.4598,67177.6204,-1.36223,-0.79535,5.8136
13.4829,67177.6304,-1.23395,-0.91202,5.40616
13.4859,67177.6404,-1.18447,-0.91874,4.94984
13.4962,67177.6504,-1.19119,-0.81734,4.26628
13.5005,67177.6604,-1.21562,-0.63897,3.71834
13.5122,67177.6704,-1.22723,-0.39095,3.28768
13.5191,67177.6804,-1.23883,-0.0617,3.02989
13.5329,67177.6904,-1.27182,0.30238,2.77577
13.5395,67177.7004,-1.31092,0.54917,2.47523
13.5518,67177.7104,-1.34818,0.62003,2.10687
13.5592,67177.7204,-1.32008,0.52046,1.78617
13.5723,67177.7304,-1.20279,0.40317,1.40866
13.5798,67177.7404,-1.06168,0.34941,1.09467
13.5969,67177.7504,-0.86743,0.24679,0.74526
13.602,67177.7614,-0.63347,0.09529,0.44654
13.6182,67177.7724,-0.34514,-0.09835,0.12034
13.6393,67177.7824,-0.03176,-0.24129,-0.21747
13.6415,67177.7924,0.3653,-0.36163,-0.60476
13.6435,67177.8024,0.70311,-0.3934,-0.89553
13.653,67177.8124,0.97066,-0.32803,-1.08184
13.6618,67177.8224,1.14171,-0.19426,-1.1918
13.6756,67177.8334,1.26144,0.05315,-1.29259
13.6821,67177.8434,1.30847,0.18326,-1.372
13.6939,67177.8534,1.33963,0.21686,-1.61207
13.702,67177.8644,1.3439,0.08063,-1.91812
13.7157,67177.8744,1.33657,-0.10507,-2.2993
13.7232,67177.8843,1.29687,-0.21502,-2.5974
13.7356,67177.8944,1.17103,-0.44838,-3.03905
13.7436,67177.9044,1.10139,-0.81917,-3.48376
13.7658,67177.9143,1.15026,-1.32985,-3.96024
13.7682,67177.9244,1.26205,-1.68538,-4.35242
13.7788,67177.9344,1.43859,-1.76907,-4.67984
13.7832,67177.9444,1.54915,-1.49723,-4.94679
13.7957,67177.9542,1.52167,-1.09895,-5.19907
13.803,67177.9644,1.33963,-0.76114,-5.3127
13.8154,67177.9744,1.03297,-0.46609,-5.30842
13.8232,67177.9844,0.74587,-0.28344,-5.2284
13.8375,67177.9954,0.57055,-0.18937,-5.07934
13.8442,67178.0054,0.61025,-0.12339,-4.95839
13.857,67178.0154,0.74831,-0.04215,-4.86982
13.864,67178.0254,0.85888,0.23824,-4.84172
13.8818,67178.0354,0.83933,0.82284,-4.80751
13.8985,67178.0454,0.64385,1.31031,-4.65357
13.9002,67178.0554,0.31826,1.62063,-4.4019
13.9129,67178.0654,0.01649,1.78312,-4.2168
13.9191,67178.0754,-0.17349,1.78739,-4.04393
13.9246,67178.0854,-0.23213,1.6585,-3.80325
13.9353,67178.0954,-0.25473,1.39338,-3.45566
13.943,67178.1054,-0.27489,1.13315,-3.16367
13.9554,67178.1154,-0.29749,0.80634,-2.92727
13.9634,67178.1254,-0.30177,0.51191,-2.9181
13.9756,67178.1354,-0.21564,0.135,-3.07143
13.9834,67178.1454,-0.0843,-0.13317,-3.22109
14.0005,67178.1554,0.06597,-0.23763,-3.32799
14.0058,67178.1654,0.10263,-0.11973,-3.33777
14.0156,67178.1754,0.06964,0.07514,-3.28035
14.0323,67178.1854,0.02443,0.1631,-3.1936
14.0371,67178.1954,-0.0055,0.2248,-3.10075
14.0449,67178.2054,0.01222,0.26878,-3.00362
14.0643,67178.2154,0.08919,0.19609,-2.89794
14.0656,67178.2254,0.18326,-0.21075,-2.82586
14.081,67178.2354,0.28955,-0.7703,-2.81059
14.0834,67178.2454,0.4105,-1.26266,-2.87168
14.0942,67178.2554,0.56077,-1.62796,-2.9236
14.1026,67178.2654,0.69394,-1.77945,-2.8729
14.1142,67178.2754,0.77702,-1.78128,-2.65238
14.1226,67178.2854,0.78007,-1.75502,-2.4233
14.1357,67178.2954,0.72143,-1.80083,-2.1533
14.1447,67178.3054,0.62919,-1.77151,-1.92789
14.1543,67178.3154,0.50702,-1.48196,-1.77579
14.1626,67178.3254,0.40317,-1.21501,-1.68171
14.1755,67178.3354,0.25779,-0.93829,-1.52655
14.1826,67178.3454,0.15272,-0.83933,-1.34696
14.217,67178.3554,0.11484,-0.9279,-1.1527
14.2194,67178.3654,0.15516,-1.10811,-1.05069
14.2204,67178.3754,0.23702,-1.26693,-1.01648
14.2307,67178.3854,0.34941,-1.34818,-0.95478
14.2393,67178.3954,0.45754,-1.35001,-0.77641
14.2445,67178.4064,0.49236,-1.2535,-0.53023
14.2562,67178.4164,0.42699,-1.05619,-0.23396
14.2641,67178.4264,0.281,-0.86804,-0.00061
14.2787,67178.4364,0.07025,-0.67928,0.23335
14.2841,67178.4464,-0.10018,-0.51985,0.41294
14.2984,67178.4564,-0.22297,-0.3317,0.6072
14.3125,67178.4661,-0.29627,-0.12217,0.81978
14.3178,67178.4764,-0.35369,0.13011,1.13621
14.3338,67178.4864,-0.42883,0.32865,1.44653
14.339,67178.4964,-0.57666,0.44654,1.72631
14.3457,67178.5074,-0.73731,0.40989,1.89124
14.359,67178.5174,-0.89614,0.26206,1.98714
14.368,67178.5284,-0.99754,0.04337,2.02502
14.3797,67178.5384,-1.04702,-0.19487,2.05129
14.3882,67178.5484,-1.03175,-0.36774,2.07267
14.4042,67178.5584,-1.0006,-0.53756,2.12887
14.4149,67178.5683,-0.97372,-0.64385,2.17102
14.4255,67178.5784,-0.94806,-0.80023,2.19545
14.4367,67178.5884,-0.94623,-0.88026,2.08733
14.4396,67178.5984,-0.93707,-0.95845,1.80266
14.4458,67178.6084,-0.86437,-1.10506,1.53999
14.4575,67178.6182,-0.67012,-1.1692,1.3323
14.4664,67178.6284,-0.37751,-1.15087,1.22967
14.4775,67178.6384,-0.05192,-1.03175,1.24678
14.4853,67178.6484,0.10629,-0.87109,1.37078
14.4976,67178.6584,0.10385,-0.71716,1.55893
14.5052,67178.6684,0.02443,-0.62492,1.61207
14.517,67178.6784,-0.01894,-0.46304,1.42881
14.5253,67178.6884,0.08186,-0.44838,1.17836
14.5369,67178.6983,0.30543,-0.51801,0.88698
14.5455,67178.7083,0.48747,-0.56749,0.68478
14.5584,67178.7183,0.64813,-0.56505,0.52229
14.5652,67178.7283,0.67745,-0.43188,0.4948
14.579,67178.7383,0.57727,-0.14661,0.57788
14.5852,67178.7483,0.36408,0.10324,0.72082
14.5972,67178.7582,0.05986,0.41356,0.96822
14.6053,67178.7683,-0.17532,0.5791,1.19058
14.6169,67178.7782,-0.42699,0.71227,1.48685
14.6252,67178.7883,-0.58338,0.70005,1.71959
14.6369,67178.7983,-0.70738,0.56688,1.79228
14.6452,67178.8083,-0.76908,0.31337,1.63529
14.6578,67178.8182,-0.75869,-0.03299,1.32252
14.6651,67178.8282,-0.70921,-0.20342,1.0739
14.6768,67178.8383,-0.64202,-0.20525,0.96822
14.6853,67178.8483,-0.58765,-0.09896,1.02564
14.6968,67178.8583,-0.54367,0.08796,1.2315
14.7057,67178.8683,-0.55589,0.27978,1.50212
14.7169,67178.8783,-0.64324,0.53817,1.85092
14.7252,67178.8883,-0.76603,0.66218,2.10015
14.7373,67178.8983,-0.95723,0.63347,2.40803
14.7472,67178.9083,-1.11055,0.48014,2.67376
14.7571,67178.9182,-1.17286,0.2193,2.91505
14.7652,67178.9282,-1.17225,-0.03787,3.04028
14.7778,67178.9383,-1.11177,-0.47586,2.99935
14.7853,67178.9483,-1.05435,-0.75198,2.80754
14.797,67178.9583,-1.01281,-0.94501,2.50638
14.8052,67178.9683,-0.98105,-0.97066,2.25287
14.8169,67178.9782,-0.94073,-0.86743,2.05801
14.8254,67178.9883,-0.91935,-0.5962,1.96393
14.8371,67178.9983,-0.93035,-0.11912,1.95904
14.8452,67179.0083,-0.98227,0.31765,2.01708
14.8568,67179.0182,-1.05374,0.67623,2.10015
14.8655,67179.0282,-1.10689,0.92118,2.17224
14.8791,67179.0383,-1.12338,1.09772,2.23271
14.8853,67179.0483,-1.10017,1.14598,2.27181
14.8968,67179.0583,-1.04702,1.07696,2.25715
14.9052,67179.0682,-0.967,0.94257,2.14902
14.9178,67179.0782,-0.79535,0.60476,1.92117
14.9251,67179.0883,-0.58948,0.2364,1.63651
14.9367,67179.0982,-0.31948,-0.15455,1.27304
14.9451,67179.1082,-0.10629,-0.39462,0.99143
14.9573,67179.1183,0.17959,-0.67928,0.64202
14.9654,67179.1283,0.36957,-0.81489,0.45754
14.9768,67179.1383,0.58215,-0.89919,0.28833
14.9852,67179.1483,0.72449,-0.92302,0.16677
14.9985,67179.1582,0.82528,-0.90897,0.03971
15.0085,67179.1683,0.88881,-0.86865,-0.07697
15.0178,67179.1783,0.93218,-0.7703,-0.16738
15.0328,67179.1883,0.92485,-0.64446,-0.24068
15.0382,67179.1993,0.87598,-0.48808,-0.39889
15.0464,67179.2093,0.81489,-0.39889,-0.59926
15.0597,67179.2192,0.76114,-0.33353,-0.82467
15.0661,67179.2293,0.76358,-0.28833,-0.98899
15.0779,67179.2393,0.80756,-0.2022,-1.07818
15.0865,67179.2493,0.87293,-0.02505,-1.09162
15.0978,67179.2593,0.94745,0.19181,-1.06352
15.1061,67179.2692,0.99693,0.25534,-1.04947
15.1178,67179.2792,1.04214,0.19609,-1.10628
15.1269,67179.2892,1.11239,0.0226,-1.22234
15.1382,67179.2992,1.22662,-0.18265,-1.37506
15.1462,67179.3093,1.35551,-0.27245,-1.51006
15.1602,67179.3192,1.49601,-0.28039,-1.6023
15.1757,67179.3293,1.55832,-0.27367,-1.63345
15.1908,67179.3403,1.53327,-0.28527,-1.65667
15.2016,67179.3503,1.43981,-0.29871,-1.65667
15.2043,67179.3603,1.33841,-0.27367,-1.67499
15.222,67179.3702,1.29442,-0.29505,-1.71714
15.2239,67179.3803,1.2761,-0.32437,-1.72081
15.228,67179.3903,1.31092,-0.31887,-1.69271
15.24,67179.4001,1.35856,-0.33231,-1.62673
15.2496,67179.4103,1.38056,-0.35064,-1.54915
15.2605,67179.4203,1.36162,-0.32009,-1.46058
15.2693,67179.4302,1.28709,-0.21747,-1.42393
15.2812,67179.4403,1.15331,-0.04826,-1.39766
15.2883,67179.4503,1.04397,0.06536,-1.36223
15.3005,67179.4603,0.9218,0.11301,-1.38178
15.3107,67179.4702,0.84971,0.1014,-1.45508
15.3206,67179.4803,0.8375,0.04948,-1.57786
15.3281,67179.4902,0.82772,-0.01894,-1.70187
15.3402,67179.5003,0.75564,-0.20769,-1.83137
15.3484,67179.5103,0.63469,-0.55833,-1.97126
15.3602,67179.5203,0.46914,-1.11605,-2.09099
15.3734,67179.5303,0.34819,-1.55587,-2.1814
15.3822,67179.5403,0.20281,-1.90651,-2.36894
15.3894,67179.5503,0.08002,-2.1081,-2.54609
15.4027,67179.5603,-0.10201,-2.19117,-2.76905
15.4139,67179.5703,-0.24557,-2.09832,-2.84297
15.4219,67179.5803,-0.49419,-2.2712,-2.86007
15.4332,67179.5903,-0.97738,-2.86251,-2.9572
15.4479,67179.6003,-1.75624,-3.43734,-3.20399
15.4549,67179.6103,-2.29013,-3.76598,-3.45139
15.4644,67179.6203,-2.67315,-4.21619,-3.79897
15.4687,67179.6303,-2.81365,-4.64685,-4.1606
15.4819,67179.6412,-2.6481,-5.18625,-4.84233
15.492,67179.6513,-2.11237,-5.29193,-5.53627
15.5031,67179.6613,-1.10811,-4.70488,-6.33651
15.5112,67179.6713,-0.16249,-3.87777,-6.76717
15.5227,67179.6813,0.87904,-2.79532,-6.8985
15.5352,67179.6913,1.42271,-2.14658,-6.47823
15.5444,67179.7013,1.68599,-1.77701,-5.45197
15.5512,67179.7113,1.7654,-1.63223,-4.30355
15.5698,67179.7213,1.79594,-1.35429,-3.20032
15.5722,67179.7313,1.78434,-1.24983,-2.28097
15.5815,67179.7413,1.70676,-1.38911,-1.70126
15.5919,67179.7513,1.64384,-1.41293,-1.68538
15.6025,67179.7613,1.59191,-1.36284,-1.94866
15.6098,67179.7713,1.52472,-1.35368,-2.15697
15.6224,67179.7813,1.45386,-1.37872,-2.27731
15.6299,67179.7913,1.41049,-1.4282,-2.1759
15.6426,67179.8013,1.41476,-1.56687,-1.88757
15.6507,67179.8113,1.47035,-1.71103,-1.60108
15.6626,67179.8213,1.6023,-1.86131,-1.15331
15.6704,67179.8312,1.7654,-1.89796,-0.61148
15.6838,67179.8412,2.02502,-1.89674,0.27611
15.6899,67179.8513,2.20522,-1.87841,0.85521
15.7064,67179.8613,2.48683,-1.77517,1.65667
15.719,67179.8713,2.65482,-1.54732,2.18995
15.7289,67179.8813,2.65421,-1.47157,2.59496
15.7335,67179.8912,2.58091,-1.91995,2.74034
15.7433,67179.9013,2.41414,-2.95109,2.7098
15.7529,67179.9113,2.22294,-3.9413,2.52348
15.7625,67179.9213,2.01036,-4.90464,2.23577
15.77,67179.9323,1.91873,-5.31086,1.96943
15.7822,67179.9423,2.07939,-4.9755,1.52533
15.7901,67179.9523,2.41109,-3.87716,0.77091
15.8036,67179.9623,2.67987,-2.91871,-0.1741
15.8127,67179.9723,2.78432,-2.86862,-0.76541
15.8251,67179.9833,2.74889,-3.20338,-1.03969
15.8359,67179.9933,2.69941,-3.68596,-1.06779
15.8461,67180.0032,2.74034,-4.27911,-0.9896
15.8543,67180.0133,2.93154,-4.68595,-0.86621
15.8714,67180.0232,3.4013,-4.93213,-0.70921
15.8731,67180.0333,3.78614,-4.91013,-0.63591
15.8833,67180.0433,4.23452,-4.72199,-0.56933
15.8913,67180.0533,4.54789,-4.46726,-0.46304
15.9034,67180.0633,4.83194,-3.98712,-0.34514
15.9132,67180.0733,5.24061,-3.05494,-0.30849
15.9238,67180.0833,5.76474,-2.18751,-0.15699
15.9331,67180.0933,6.13492,-1.97248,0.0507
15.9517,67180.1033,6.35361,-2.13742,0.20525
15.9554,67180.1133,6.36033,-2.15269,0.17532
15.971,67180.1232,6.13858,-1.77334,0.06658
15.995,67180.1333,5.7458,-1.19485,0.12278
15.9965,67180.1443,5.21862,-0.43188,0.46914
15.9992,67180.1542,4.70244,0.46976,0.88575
16.009,67180.1643,4.20947,1.56748,1.49662
16.013,67180.1743,4.07447,2.49722,1.82771
16.0245,67180.1843,4.20642,3.58761,1.57725
16.0319,67180.1943,4.27728,4.42022,1.10628
16.0462,67180.2043,4.11662,4.97733,0.69761
16.0682,67180.2143,3.72078,5.24611,0.67012
16.0699,67180.2243,3.11541,5.77023,0.92057
16.0744,67180.2343,2.67437,6.44952,1.22967
16.0847,67180.2443,2.25348,7.35726,1.76845
16.0946,67180.2543,2.16491,7.58389,2.16124
16.1035,67180.2643,2.30602,7.40063,2.52165
16.1113,67180.2743,2.56869,7.07321,2.60473
16.1239,67180.2843,3.0134,6.42508,2.48805
16.1312,67180.2943,3.28707,5.9089,2.29869
16.144,67180.3042,3.52103,5.33591,1.92667
16.1517,67180.3142,3.54607,5.12333,1.62979
16.163,67180.3243,3.44223,5.04391,1.26144
16.1733,67180.3343,3.19666,5.0036,0.90042
16.1994,67180.3453,2.7495,4.86065,0.49175
16.2053,67180.3553,2.36955,4.67434,0.16371
16.2102,67180.3663,1.96027,4.32126,-0.19975
16.217,67180.3762,1.69026,4.15022,-0.49175
16.2324,67180.3863,1.47952,4.19909,-0.7648
16.2368,67180.3963,1.36589,4.38113,-0.92302
16.2462,67180.4063,1.21562,4.75681,-1.06535
16.2539,67180.4163,1.00304,5.13799,-1.19913
16.2715,67180.4263,0.68906,5.46541,-1.41232
16.2741,67180.4363,0.45937,5.35729,-1.68965
16.2887,67180.4463,0.35186,4.84172,-2.02196
16.2939,67180.4562,0.30238,4.17221,-2.25837
16.3056,67180.4662,0.25107,3.50698,-2.37565
16.3145,67180.4763,0.16982,3.0586,-2.40375
16.3257,67180.4863,-0.01649,2.82159,-2.3952
16.3338,67180.4963,-0.20342,2.90039,-2.39948
16.3459,67180.5063,-0.44104,3.16489,-2.47767
16.3552,67180.5162,-0.59743,3.3286,-2.57174
16.3678,67180.5263,-0.65912,3.38297,-2.64138
16.3753,67180.5363,-0.61025,3.34388,-2.70613
16.388,67180.5463,-0.4496,3.22048,-2.82159
16.3951,67180.5563,-0.26084,3.047,-2.98102
16.4083,67180.5663,-0.17715,2.88939,-3.22598
16.4152,67180.5763,-0.27672,2.83991,-3.51125
16.4299,67180.5873,-0.66096,2.86374,-4.08791
16.4372,67180.5983,-0.99876,2.94376,-4.49352
16.4508,67180.6083,-1.30175,3.09403,-4.81789
16.4624,67180.6183,-1.51311,3.26935,-4.94801
16.4724,67180.6282,-1.62124,3.49598,-4.93213
16.4767,67180.6383,-1.653,3.7556,-4.72077
16.4913,67180.6483,-1.64384,4.23452,-4.32615
16.4984,67180.6583,-1.58275,4.57416,-3.97857
16.5083,67180.6683,-1.44225,4.92907,-3.48315
16.5159,67180.6783,-1.26449,5.13249,-3.06471
16.5317,67180.6883,-1.10383,4.98894,-2.81548
16.5366,67180.6983,-0.98044,4.54117,-2.85274
16.5481,67180.7083,-0.84422,3.99017,-3.07876
16.5559,67180.7183,-0.74709,3.81302,-3.31089
16.5704,67180.7283,-0.61514,3.72872,-3.48743
16.5767,67180.7383,-0.49908,3.51797,-3.48926
16.5895,67180.7483,-0.41539,3.04211,-3.29195
16.5962,67180.7583,-0.36713,2.74401,-3.04822
16.6076,67180.7683,-0.33353,2.53265,-2.63039
16.6155,67180.7783,-0.34147,2.47339,-2.1533
16.6289,67180.7883,-0.3036,2.5974,-1.55282
16.6584,67180.7993,-0.13073,2.95781,-1.07512
16.6598,67180.8093,0.09468,3.15756,-0.6634
16.6606,67180.8193,0.1405,2.96392,-0.42516
16.6745,67180.8303,-0.01222,2.34267,-0.30788
16.6808,67180.8403,-0.19914,1.82832,-0.32559
16.6898,67180.8502,-0.31582,1.36834,-0.50763
16.6973,67180.8603,-0.31032,1.02503,-0.75014
16.7098,67180.8703,-0.1741,0.49419,-1.02076
16.7184,67180.8813,0.01222,-0.02016,-1.25288
16.7335,67180.8912,0.18631,-0.34331,-1.39949
16.7383,67180.9013,0.31093,-0.49114,-1.48013
16.7517,67180.9113,0.50519,-0.56627,-1.518
16.7584,67180.9213,0.76541,-0.55222,-1.50151
16.7703,67180.9313,1.12155,-0.62797,-1.44531
16.7788,67180.9413,1.33779,-0.81551,-1.31641
16.7901,67180.9513,1.38117,-1.16675,-1.07757
16.7986,67180.9613,1.22845,-1.57481,-0.76236
16.8113,67180.9713,0.8772,-2.03907,-0.36835
16.8197,67180.9813,0.61942,-2.34389,-0.01344
16.8343,67180.9923,0.57177,-2.50943,0.37874
16.8398,67181.0022,0.74648,-2.45323,0.63469
16.852,67181.0123,1.13743,-2.3219,0.83383
16.8599,67181.0223,1.57359,-2.55525,0.91385
16.872,67181.0323,1.96271,-3.32433,0.93707
16.8801,67181.0422,2.22477,-4.22169,0.89553
16.8937,67181.0523,2.36649,-4.6719,0.77274
16.9009,67181.0623,2.24676,-4.54239,0.69211
16.9139,67181.0723,1.88085,-4.16427,0.68967
16.9221,67181.0833,1.57786,-3.84295,0.84422
16.9358,67181.0933,1.41354,-3.5644,1.28465
16.9421,67181.1033,1.42881,-3.46422,1.72875
16.9584,67181.1133,1.55221,-3.39213,2.2376
16.9655,67181.1233,1.69698,-3.33044,2.37871
16.9778,67181.1333,1.8949,-3.23759,2.05984
16.9845,67181.1433,1.93889,-3.16001,1.4447
16.9972,67181.1533,1.79228,-3.21254,0.83139
17.0019,67181.1643,1.68477,-3.48743,0.5901
17.0182,67181.1743,1.69698,-3.89121,0.59193
17.025,67181.1841,1.77334,-4.23146,0.6182
17.037,67181.1943,1.93033,-4.67556,0.48503
17.0684,67181.2043,2.14108,-4.78063,0.41294
17.0698,67181.2143,2.4679,-4.93885,0.46976
17.0718,67181.2243,2.80631,-5.19358,0.58826
17.0765,67181.2343,3.06654,-5.48985,0.65424
17.0864,67181.2443,3.13252,-5.58514,0.55161
17.1005,67181.2543,3.18811,-5.21374,0.16738
17.1023,67181.2643,3.18444,-4.80446,-0.19914
17.1135,67181.2743,3.11969,-4.74703,-0.3543
17.1222,67181.2843,3.06105,-4.89303,-0.27917
17.1346,67181.2943,2.98286,-5.11722,-0.05864
17.1416,67181.3043,2.94193,-5.23512,0.07514
17.1532,67181.3143,2.91261,-5.46785,0.11301
17.1616,67181.3243,2.96514,-5.77512,-0.12523
17.179,67181.3343,3.07021,-6.27236,-0.5791
17.1818,67181.3442,3.24369,-6.41103,-1.13132
17.1937,67181.3543,3.51614,-6.40614,-1.67866
17.2024,67181.3643,3.77637,-6.31696,-1.96638
17.2145,67181.3753,4.01522,-5.9199,-2.14902
17.2227,67181.3853,4.06592,-5.42693,-2.24554
17.2366,67181.3953,3.94008,-4.95595,-2.25776
17.2441,67181.4053,3.71528,-4.72565,-2.17773
17.2615,67181.4153,3.51125,-4.7678,-2.0073
17.2651,67181.4253,3.39458,-4.8967,-1.81671
17.2838,67181.4353,3.40557,-4.82278,-1.71592
17.2985,67181.4453,3.55646,-4.47581,-1.81549
17.3,67181.4562,3.88388,-3.84662,-2.16613
17.309,67181.4672,4.38846,-3.5253,-2.65116
17.3179,67181.4772,4.67801,-3.94008,-3.07204
17.3248,67181.4873,4.85149,-4.07508,-3.4239
17.3373,67181.4973,5.06041,-4.17282,-3.9187
17.3449,67181.5073,5.27116,-4.39762,-4.24551
17.3605,67181.5173,5.5998,-4.85394,-4.37257
17.3668,67181.5273,5.83437,-5.22107,-4.26995
17.3792,67181.5373,6.07933,-5.72259,-4.05553
17.3875,67181.5483,6.19662,-6.19784,-3.84418
17.4003,67181.5583,6.16058,-6.1508,-3.82707
17.4085,67181.5693,5.99992,-5.48618,-4.11051
17.4212,67181.5793,5.4758,-4.94373,-4.48986
17.4286,67181.5893,4.8069,-4.55339,-4.66823
17.441,67181.5993,4.1044,-3.88938,-4.58393
17.4503,67181.6103,3.62243,-3.02378,-4.28644
17.4622,67181.6203,3.11297,-2.16796,-3.80019
17.4825,67181.6313,2.55708,-1.83504,-3.30784
17.4946,67181.6423,2.0409,-1.48929,-2.99263
17.4998,67181.6523,1.62429,-1.21135,-2.88817
17.5049,67181.6623,1.19424,-0.92057,-2.88573
17.5105,67181.6723,0.87476,-0.61942,-2.9065
17.5229,67181.6823,0.49847,-0.12095,-2.94071
17.5298,67181.6923,0.23091,0.17287,-2.94865
17.5443,67181.7023,-0.15455,0.36469,-2.89794
17.5517,67181.7123,-0.51252,0.40806,-2.8393
17.5694,67181.7222,-0.89675,0.41539,-2.7605
17.5732,67181.7323,-1.2254,0.697,-2.60351
17.5829,67181.7433,-1.48746,1.33474,-2.28097
17.591,67181.7532,-1.64873,1.67438,-1.9004
17.603,67181.7633,-1.78984,2.13864,-1.56076
17.6115,67181.7733,-2.0073,2.59496,-1.23517
17.6241,67181.7833,-2.48805,2.92971,-0.81306
17.6318,67181.7933,-3.11297,3.14596,-0.34697
17.6447,67181.8033,-3.96024,3.69329,0.27733
17.6529,67181.8133,-4.67068,4.30477,0.81795
17.665,67181.8233,-5.63462,4.92113,1.55832
17.6722,67181.8333,-6.44402,5.0714,2.21683
17.6868,67181.8433,-7.34443,5.09584,2.89733
17.6925,67181.8533,-7.83129,5.13554,3.22598
17.7049,67181.8632,-8.40306,5.43731,3.51248
17.7123,67181.8733,-8.74331,5.60225,3.61693
17.7394,67181.8843,-8.98766,5.35912,3.65114
17.7494,67181.8943,-8.97056,5.10744,3.6322
17.7503,67181.9042,-8.7537,4.84355,3.59372
17.7527,67181.9143,-8.57594,4.60348,3.46971
17.7641,67181.9243,-8.44338,4.4807,3.24369
17.7727,67181.9343,-8.33709,4.44771,3.0641
17.7851,67181.9443,-8.16421,4.43916,2.84724
17.792,67181.9543,-8.04693,4.16732,2.64566
17.8073,67181.9643,-7.87955,3.71284,2.37627
17.8195,67181.9743,-7.6969,3.35121,2.21194
17.8283,67181.9853,-7.42079,2.74462,1.94316
17.8339,67181.9952,-7.19966,2.73118,1.60902
17.8472,67182.0053,-6.82764,3.24675,0.89492
17.8535,67182.0153,-6.54725,3.5308,0.2755
17.8659,67182.0253,-6.26198,3.23759,-0.42822
17.8734,67182.0353,-6.08483,2.92666,-0.77397
17.8855,67182.0453,-5.83743,2.72812,-1.07146
17.8935,67182.0552,-5.65783,2.74217,-1.17775
17.9057,67182.0653,-5.46602,2.90772,-1.10567
17.9151,67182.0753,-5.27055,3.30112,-0.83627
17.9267,67182.0853,-4.92663,3.53141,-0.38423
17.9348,67182.0953,-4.6212,3.54913,-0.02871
17.9469,67182.1053,-4.41533,3.63831,0.13744
17.9542,67182.1153,-4.34936,3.82585,0.06231
17.968,67182.1253,-4.3854,4.14228,-0.23152
17.9742,67182.1353,-4.42511,4.46726,-0.54489
17.991,67182.1463,-4.38785,4.87409,-0.74159
18.0004,67182.1563,-4.26079,5.12027,-0.75503
18.0123,67182.1663,-4.10013,5.3805,-0.64202
18.023,67182.1763,-3.95841,5.58453,-0.45571
18.0273,67182.1862,-3.84418,5.5882,-0.24129
18.0339,67182.1963,-3.7165,5.6279,-0.13439
18.05,67182.2062,-3.39763,5.56865,-0.25412
18.0546,67182.2163,-3.17039,5.30903,-0.37568
18.0701,67182.2263,-2.89917,5.06957,-0.47342
18.0828,67182.2363,-2.69086,4.98588,-0.4893
18.1021,67182.2463,-2.43674,5.00421,-0.44227
18.1034,67182.2563,-2.19301,5.15204,-0.29871
18.1081,67182.2673,-1.91628,5.26505,-0.00977
18.117,67182.2773,-1.74952,5.31147,0.18754
18.1272,67182.2872,-1.55954,5.36706,0.34086
18.1341,67182.2972,-1.5516,5.2229,0.32559
18.1458,67182.3072,-1.63712,4.92663,0.16493
18.1542,67182.3173,-1.69026,4.57721,-0.02382
18.1683,67182.3273,-1.65606,3.97368,-0.26328
18.1743,67182.3372,-1.57848,3.03417,-0.46181
18.1862,67182.3472,-1.56626,1.62246,-0.69455
18.1952,67182.3572,-1.51861,0.66279,-0.81062
18.2082,67182.3672,-1.33657,-0.12584,-0.80023
18.215,67182.3772,-1.05802,-0.47037,-0.65912
18.2307,67182.3873,-0.63286,-0.71777,-0.41294
18.2357,67182.3973,-0.34147,-0.81978,-0.28894
18.2484,67182.4073,-0.0733,-0.98105,-0.23152
18.258,67182.4172,0.09346,-1.29076,-0.27184
18.2686,67182.4272,0.11729,-1.82832,-0.47098
18.2764,67182.4372,0.02321,-2.42575,-0.73609
18.2901,67182.4473,-0.08247,-3.24553,-0.92302
18.2956,67182.4572,-0.0672,-4.37929,-0.92241
18.3085,67182.4672,0.12767,-5.95899,-0.85155
18.316,67182.4772,0.50091,-7.35115,-0.81978
18.3396,67182.4872,1.08367,-8.63397,-0.78924
18.3536,67182.4972,1.55832,-9.40855,-0.71593
18.3568,67182.5071,2.13375,-10.06095,-0.56872
18.3596,67182.5173,2.57235,-10.4348,-0.46914
18.3846,67182.5272,2.91261,-10.94121,-0.3934
18.3891,67182.5373,3.05982,-11.54596,-0.33659
18.3904,67182.5472,3.15878,-12.28694,-0.30665
18.4015,67182.5572,3.1765,-12.45249,-0.2981
18.4077,67182.5673,3.02134,-12.01816,-0.18265
18.4165,67182.5782,2.76294,-11.22098,-0.13928
18.429,67182.5882,2.40986,-9.91129,0.04032
18.4359,67182.5983,2.12948,-9.10495,0.25473
18.452,67182.6083,1.70737,-8.37374,0.4441
18.4583,67182.6183,1.37261,-8.05548,0.38118
18.4753,67182.6282,0.91508,-7.94858,0.10018
18.4804,67182.6382,0.54917,-8.18132,-0.37874
18.4886,67182.6482,0.23702,-8.54967,-0.98533
18.4961,67182.6583,-0.04093,-8.55089,-1.46119
18.5088,67182.6683,-0.33781,-8.2027,-1.82099
18.5166,67182.6783,-0.64691,-7.86733,-2.04762
18.531,67182.6883,-0.93646,-7.85695,-2.24737
18.5392,67182.6982,-1.01648,-8.08541,-2.37749
18.5489,67182.7082,-0.97738,-8.32732,-2.57541
18.5564,67182.7183,-0.87415,-8.22225,-2.77455
18.5731,67182.7283,-0.72571,-7.41774,-3.06105
18.5782,67182.7383,-0.66035,-6.21739,-3.26507
18.5943,67182.7483,-0.61148,-4.80384,-3.32799
18.6017,67182.7582,-0.53451,-4.01827,-3.17833
18.6113,67182.7682,-0.48808,-3.17406,-2.70186
18.6186,67182.7783,-0.54245,-2.204,-2.30296
18.6313,67182.7883,-0.60537,-0.12156,-1.68965
18.6361,67182.7981,-0.59743,1.82038,-0.98533
18.6499,67182.8083,-0.57177,4.41656,-0.13256
18.6562,67182.8182,-0.60292,6.54542,0.77397
18.6687,67182.8282,-0.81001,8.35175,1.68049
18.6766,67182.8382,-1.14415,9.5295,2.29746
18.6906,67182.8483,-1.54671,10.47756,2.75134
18.6975,67182.8583,-1.9792,11.21243,3.08304
18.7119,67182.8683,-2.4459,11.78481,3.29562
18.7323,67182.8782,-2.70552,12.23563,3.36281
18.7336,67182.8882,-2.7996,12.63636,3.2944
18.7372,67182.8982,-2.75134,12.73593,3.14168
18.754,67182.9092,-2.66887,12.31871,2.78066
18.7583,67182.9192,-2.65971,11.88927,2.51127
18.7723,67182.9302,-2.52043,11.74266,2.25104
18.7868,67182.9413,-2.36832,11.93142,2.19423
18.7922,67182.9513,-2.20339,12.07864,2.21316
18.7997,67182.9612,-2.03724,12.11529,2.27364
18.8118,67182.9712,-1.76601,12.18676,2.31396
18.8194,67182.9813,-1.45875,12.25457,2.24982
18.8327,67182.9913,-1.12705,12.09574,2.03296
18.8407,67183.0013,-0.93585,11.68769,1.83015
18.8613,67183.0113,-0.72571,10.81659,1.37689
18.8749,67183.0212,-0.48869,9.95038,0.90103
18.8779,67183.0312,-0.32681,8.88809,0.4105
18.8839,67183.0422,-0.55039,7.46111,-0.07514
18.8943,67183.0522,-0.84788,5.38172,-0.79596
18.9046,67183.0633,-0.54184,3.36403,-1.38911
18.9131,67183.0732,0.09896,1.66766,-1.65117
18.921,67183.0832,0.47953,0.65668,-1.53266
18.9342,67183.0933,0.63774,-0.21991,-1.09772
18.941,67183.1033,0.6127,-0.52473,-0.67867
18.9535,67183.1133,0.51435,-0.50152,-0.37996
18.963,67183.1243,0.45204,-0.48014,-0.25045
18.9759,67183.1343,0.50885,-0.46487,-0.12095
18.9861,67183.1453,0.65973,-0.3708,-0.02688
18.999,67183.1553,0.77885,-0.281,-0.00367
19.0036,67183.1653,0.73365,-0.26206,-0.02566
19.0244,67183.1763,0.44593,-0.43249,-0.02627
19.0301,67183.1863,0.18815,-0.7532,-0.0336
19.0602,67183.1963,0.0336,-1.23395,-0.19609
19.0611,67183.2062,0.04337,-1.88024,-0.44654
19.0616,67183.2161,0.34758,-2.96942,-0.77885
19.067,67183.2262,0.55283,-3.38297,-0.82711
19.0836,67183.2363,0.94257,-4.01094,-0.76236
19.0846,67183.2463,1.23578,-4.3909,-0.62003
19.0951,67183.2563,1.57481,-4.63952,-0.43005
19.1033,67183.2663,1.76845,-4.58577,-0.23152
19.116,67183.2762,1.8271,-4.5088,0.11301
19.1233,67183.2862,1.75379,-4.59798,0.41966
19.1362,67183.2963,1.59802,-5.00971,0.63958
19.1443,67183.3063,1.5742,-5.43914,0.57238
19.1655,67183.3163,1.61207,-5.791,0.31704
19.1673,67183.3263,1.65606,-5.71526,0.1014
19.1794,67183.3362,1.71042,-5.21923,-0.01466
19.1869,67183.3462,1.7318,-4.38662,0.04032
19.198,67183.3563,1.69759,-3.2944,0.40745
19.204,67183.3663,1.59619,-2.36466,1.01281
19.2159,67183.3763,1.45447,-1.58581,1.80511
19.2246,67183.3863,1.24372,-0.88148,2.65116
19.237,67183.3973,0.94012,-0.14661,3.6377
19.2451,67183.4073,0.73854,0.27122,4.42205
19.2613,67183.4172,0.50457,0.686,5.1722
19.266,67183.4272,0.36041,1.00548,5.8246
19.283,67183.4372,0.36713,1.2315,6.30046
19.2954,67183.4482,0.53573,1.22051,6.48739
19.3044,67183.4593,0.90836,0.70555,6.49533
19.3093,67183.4692,1.28343,0.26756,6.33712
19.3284,67183.4792,1.66155,0.27733,6.21922
19.3319,67183.4893,1.85092,0.66096,6.33773
19.3406,67183.4993,1.82465,1.53999,6.76778
19.3501,67183.5092,1.51067,2.37627,7.27235
19.3589,67183.5193,1.0061,3.22231,7.7867
19.3681,67183.5292,0.53267,3.70001,8.08602
19.3818,67183.5392,-0.14722,3.68107,8.28211
19.3892,67183.5492,-0.69944,3.16795,8.23813
19.4041,67183.5593,-1.16003,2.24737,8.0286
19.4134,67183.5693,-1.48074,1.2254,7.80564
19.4208,67183.5803,-1.74158,0.49419,7.5167
19.4287,67183.5903,-1.80572,0.14233,7.13796
19.4471,67183.6012,-2.04396,-0.30421,6.40492
19.4501,67183.6113,-2.16246,-0.4777,5.8075
19.4614,67183.6213,-1.97737,-0.7141,5.00299
19.4693,67183.6313,-1.50578,-0.96395,4.41839
19.4818,67183.6412,-0.84666,-1.00304,3.89304
19.4893,67183.6512,-0.38301,-0.77885,3.55218
19.502,67183.6612,0.12095,-0.24007,3.16734
19.5103,67183.6722,0.36041,0.23579,2.88451
19.5225,67183.6822,0.4331,0.64507,2.50943
19.5318,67183.6923,0.36469,0.77213,2.18445
19.5439,67183.7023,0.19975,0.63713,1.69149
19.5568,67183.7123,0.08674,0.25351,1.17225
19.5647,67183.7223,0.08002,-0.21991,0.5003
19.5811,67183.7322,0.10629,-0.55222,-0.06842
19.5829,67183.7421,0.1576,-0.81978,-0.79168
19.59,67183.7523,0.20769,-0.96944,-1.34635
19.6019,67183.7623,0.2529,-1.10078,-1.90773
19.61,67183.7723,0.28833,-1.14782,-2.42025
19.6221,67183.7823,0.34575,-1.07085,-3.03905
19.6301,67183.7922,0.38912,-0.98166,-3.49109
19.6438,67183.8022,0.5284,-0.8937,-3.96268
19.6524,67183.8122,0.7141,-0.81123,-4.24857
19.6619,67183.8223,0.9108,-0.81856,-4.50024
19.6702,67183.8323,1.03114,-0.90713,-4.75009
19.6884,67183.8423,1.12216,-1.0287,-5.20335
19.6956,67183.8533,1.1411,-1.03236,-5.72686
19.7045,67183.8631,1.07757,-0.8827,-6.14592
19.7287,67183.8733,0.92363,-0.62003,-6.47151
19.734,67183.8832,0.73976,-0.38607,-6.70669
19.7353,67183.8943,0.46181,-0.45876,-6.97486
19.7458,67183.9042,0.21319,-0.67745,-7.30534
19.7528,67183.9142,-0.0788,-0.9108,-7.65659
19.7664,67183.9242,-0.6182,-1.14598,-7.91193
19.7719,67183.9343,-0.99388,-1.22662,-7.95713
19.7838,67183.9443,-1.33352,-1.21318,-7.83801
19.7927,67183.9543,-1.44714,-1.06718,-7.55152
19.8053,67183.9643,-1.35184,-0.60537,-7.00296
19.8145,67183.9742,-1.09956,0.09468,-6.42691
19.8254,67183.9842,-0.76969,0.88148,-5.76535
19.8334,67183.9943,-0.58826,1.29809,-5.31025
19.8447,67184.0042,-0.52962,1.36773,-4.92907
19.853,67184.0143,-0.54,1.1973,-4.80568
19.8677,67184.0253,-0.52901,0.77458,-5.08179
19.8733,67184.0353,-0.45571,0.45998,-5.16914
19.8849,67184.0453,-0.31032,0.17959,-5.11966
19.8929,67184.0552,-0.29688,-0.08002,-5.18869
19.908,67184.0652,-0.36163,-0.53695,-5.32675
19.9152,67184.0752,-0.38912,-0.73854,-5.36034
19.9267,67184.0853,-0.405,-0.7141,-5.24733
19.9378,67184.0953,-0.43677,-0.56994,-4.94923
19.9471,67184.1053,-0.47831,-0.34575,-4.35486
19.9532,67184.1153,-0.5058,-0.10263,-3.8735
19.9668,67184.1252,-0.55161,0.31154,-3.38908
19.9731,67184.1352,-0.54978,0.58826,-3.05555
19.9849,67184.1453,-0.50641,0.6634,-2.99629
19.996,67184.1553,-0.45143,0.42699,-3.20521
20.0056,67184.1653,-0.34208,-0.13683,-3.48438
20.0156,67184.1753,-0.18143,-0.92852,-3.68046
20.0261,67184.1863,-0.04154,-1.87475,-3.90343
20.0343,67184.1963,-0.05192,-2.52776,-4.21192
20.0464,67184.2062,-0.20647,-2.70552,-4.53262
20.0571,67184.2162,-0.35919,-2.40925,-4.60043
20.0653,67184.2262,-0.56994,-1.69026,-4.3121
20.092,67184.2363,-0.7141,-1.00426,-3.73727
20.0932,67184.2461,-0.85094,-0.5565,-2.78127
20.0945,67184.2563,-0.88637,-0.40378,-2.39337
20.1078,67184.2663,-0.90408,-0.1014,-1.87902
20.1132,67184.2762,-0.8601,0.07758,-1.65361
20.1273,67184.2862,-0.73915,0.32865,-1.69149
20.1333,67184.2963,-0.55283,0.5058,-1.87169
20.1449,67184.3063,-0.35675,0.40073,-2.11359
20.1534,67184.3163,-0.15027,0.10568,-2.26326
20.1661,67184.3263,0.10079,-0.25473,-2.46362
20.1751,67184.3362,0.28894,-0.41905,-2.67254
20.187,67184.3473,0.5174,-0.63408,-3.06715
20.1953,67184.3572,0.64507,-0.52473,-3.40557
20.2071,67184.3672,0.83322,-0.31887,-3.59922
20.2149,67184.3772,1.0122,-0.35858,-3.57295
20.2274,67184.3873,1.24372,-0.47281,-3.34632
20.2348,67184.3973,1.4508,-0.30177,-3.20521
20.2473,67184.4073,1.65239,0.01588,-3.14473
20.2549,67184.4172,1.73852,0.18387,-3.11053
20.2727,67184.4272,1.74952,0.17959,-2.9572
20.275,67184.4372,1.65789,0.01161,-2.74156
20.2871,67184.4473,1.47096,-0.10201,-2.46851
20.2951,67184.4573,1.23883,-0.05986,-2.17285
20.3081,67184.4672,1.00243,0.0672,-1.86192
20.32,67184.4772,0.82039,0.21747,-1.74585
20.3277,67184.4872,0.69272,0.31826,-1.8668
20.3353,67184.4972,0.6524,0.34331,-2.10321
20.3476,67184.5073,0.63347,0.38668,-2.35061
20.3556,67184.5173,0.62675,0.42272,-2.38421
20.3735,67184.5283,0.62919,0.44227,-2.16918
20.3774,67184.5383,0.6524,0.40867,-1.90895
20.3899,67184.5483,0.70188,0.38912,-1.68416
20.3991,67184.5593,0.71105,0.37018,-1.41232
20.4216,67184.5693,0.64935,0.26939,-1.06901
20.4266,67184.5793,0.49541,0.17593,-0.73059
20.4307,67184.5892,0.28405,0.01283,-0.38423
20.442,67184.5992,0.02932,-0.17532,-0.03238
20.4508,67184.6092,-0.2419,-0.43982,0.37018
20.4594,67184.6202,-0.41722,-0.47159,0.6463
20.474,67184.6302,-0.51068,-0.30849,0.85399
20.4792,67184.6403,-0.49602,-0.18204,1.00182
20.4913,67184.6503,-0.38546,-0.08674,1.10078
20.4989,67184.6603,-0.23335,-0.0843,1.17836
20.5114,67184.6703,-0.04887,-0.10751,1.29259
20.5193,67184.6802,0.12156,-0.16127,1.46424
20.5316,67184.6902,0.26023,-0.28283,1.75502
20.5389,67184.7002,0.31704,-0.44471,2.16307
20.553,67184.7103,0.35186,-0.63591,2.83075
20.5602,67184.7212,0.36346,-0.83383,3.59067
20.5735,67184.7322,0.37813,-0.87965,4.66212
20.5807,67184.7422,0.39828,-0.78618,5.37378
20.6023,67184.7523,0.39156,-0.99327,6.07383
20.6043,67184.7623,0.34819,-1.11727,6.19417
20.6138,67184.7723,0.29322,-1.15026,5.926
20.6214,67184.7833,0.34392,-1.09956,5.54238
20.6389,67184.7933,0.44166,-1.01159,4.90036
20.6425,67184.8033,0.56322,-0.80084,4.27361
20.673,67184.8133,0.71838,-0.40439,3.6377
20.6751,67184.8232,0.85521,-0.14233,3.26935
20.6761,67184.8331,1.04397,0.146,3.01462
20.681,67184.8433,1.11116,0.5901,3.13496
20.6976,67184.8533,0.88148,0.79474,3.31822
20.7016,67184.8633,0.86132,0.68845,3.55707
20.7124,67184.8733,0.85643,0.44227,3.84906
20.7206,67184.8832,0.79351,0.13195,4.05737
20.7325,67184.8932,0.78435,-0.02443,4.09158
20.7405,67184.9033,0.86621,-0.09652,3.9358
20.7522,67184.9133,1.04275,-0.09774,3.69268
20.7605,67184.9233,1.19485,-0.08491,3.54058
20.7727,67184.9333,1.35307,-0.14661,3.43184
20.782,67184.9432,1.4618,-0.30299,3.38175
20.795,67184.9532,1.57481,-0.52595,3.32738
20.8031,67184.9643,1.67011,-0.44532,3.18444
20.8217,67184.9753,1.78067,0.18448,2.77883
20.8286,67184.9853,1.79106,0.64874,2.4062
20.8401,67184.9952,1.7373,0.90347,2.15147
20.8448,67185.0052,1.67255,0.7929,2.08549
20.8569,67185.0153,1.63223,0.42333,2.25837
20.8649,67185.0262,1.5571,0.04337,2.38054
20.8798,67185.0373,1.36956,-0.21075,2.45507
20.8858,67185.0472,1.21868,-0.00428,2.40986
20.9004,67185.0572,0.96883,0.95356,2.18995
20.9072,67185.0682,0.72998,1.88024,1.94377
20.9199,67185.0782,0.54672,2.36038,1.81183
20.9273,67185.0882,0.50946,2.01341,1.86131
20.9437,67185.0983,0.56933,1.13682,1.95355
20.953,67185.1092,0.75931,0.42699,1.96699
20.9627,67185.1193,1.11788,0.02382,1.80572
20.9751,67185.1293,1.50639,-0.15516,1.51922
20.9864,67185.1393,1.89857,-0.49969,1.11788
20.9907,67185.1493,2.18568,-1.02931,0.81795
21.0027,67185.1603,2.55586,-2.069,0.48258
21.0098,67185.1703,2.84602,-2.85213,0.27245
21.0254,67185.1802,3.16184,-3.036,0.00855
21.0314,67185.1913,3.41962,-2.35183,-0.45448
21.0425,67185.2013,3.49048,-1.60413,-0.88453
21.0547,67185.2112,3.46177,-1.68965,-0.98166
21.0612,67185.2211,3.452,-2.60229,-0.81612
21.0779,67185.2313,3.57051,-3.64503,-0.51985
21.0815,67185.2413,3.9413,-4.37807,-0.14783
21.0906,67185.2513,4.4978,-4.46604,0.05559
21.1028,67185.2613,5.28093,-4.05859,-0.04154
21.1085,67185.2712,5.86003,-3.83684,-0.30116
21.1201,67185.2811,6.4709,-4.15633,-0.61697
21.1298,67185.2913,6.91622,-4.60715,-0.8937
21.1405,67185.3013,7.00296,-4.51185,-1.18874
21.1493,67185.3113,6.68287,-3.91809,-1.23761
21.1601,67185.3213,6.16119,-3.13374,-0.92913
21.17,67185.3312,5.83437,-2.8338,-0.41966
21.1826,67185.3412,5.76779,-2.73912,0.05559
21.1938,67185.3512,5.83315,-2.75622,0.22907
21.2106,67185.3613,5.87652,-2.7434,0.22174
21.2168,67185.3713,5.67616,-2.74889,0.09285
21.2235,67185.3813,5.17097,-2.55647,-0.15455
21.2322,67185.3913,4.60592,-1.97126,-0.51252
21.2458,67185.4012,3.92359,-1.55648,-0.82345
21.255,67185.4112,3.16489,-1.3549,-0.978
21.2681,67185.4213,2.09344,-1.15087,-0.9279
21.2731,67185.4313,1.23273,-1.3097,-0.67928
21.2809,67185.4413,0.281,-1.46241,-0.2022
21.2907,67185.4513,-0.16066,-1.36101,0.10385
21.3009,67185.4612,-0.26634,-1.32985,0.2755
21.3117,67185.4712,0.03482,-1.55526,0.19731
21.3205,67185.4812,0.73182,-2.13864,-0.08613
21.3302,67185.4913,1.42209,-2.60778,-0.39767
21.3401,67185.5013,2.33412,-3.24064,-0.84299
21.3499,67185.5113,3.07265,-3.69146,-1.17347
21.3612,67185.5212,3.78736,-4.11845,-1.29931
21.3701,67185.5312,4.2394,-4.37318,-1.25044
21.3813,67185.5422,4.60776,-4.66335,-0.98594
21.3907,67185.5522,4.62853,-5.08667,-0.64996
21.4041,67185.5622,4.54972,-5.76596,-0.30849
21.4132,67185.5723,4.49047,-5.72625,-0.26817
21.4224,67185.5823,4.5485,-4.47398,-0.72998
21.4333,67185.5923,4.51552,-3.90893,-1.24189
21.4424,67185.6022,4.4245,-4.05431,-1.69088
21.4518,67185.6122,4.39762,-4.17404,-1.91812
21.4671,67185.6222,4.34142,-3.95413,-2.07633
21.4836,67185.6323,4.16305,-3.5644,-2.09954
21.4851,67185.6423,3.76354,-3.41779,-1.96088
21.4961,67185.6523,3.26263,-3.41535,-1.71836
21.5028,67185.6623,2.63039,-3.60349,-1.2761
21.5114,67185.6733,1.96699,-4.09341,-0.62858
21.5229,67185.6833,1.16125,-4.08852,0.22113
21.5313,67185.6932,0.60598,-2.8277,0.67928
21.5439,67185.7032,-0.13989,-0.48747,1.01648
21.5534,67185.7132,-0.76541,0.40134,1.20768
21.5641,67185.7233,-1.71348,0.74464,1.78922
21.5737,67185.7333,-2.67742,1.09162,2.6933
21.585,67185.7443,-3.88327,1.80327,3.92725
21.5931,67185.7543,-5.06285,2.40986,4.98588
21.6053,67185.7642,-6.36033,3.14962,5.95227
21.6122,67185.7743,-7.34382,3.52836,6.55703
21.6257,67185.7842,-8.19903,3.55524,6.94676
21.637,67185.7942,-8.91924,3.45689,7.13552
21.6536,67185.8043,-9.47269,3.61327,7.01701
21.6584,67185.8143,-9.75735,4.10746,6.5894
21.6654,67185.8243,-9.95649,4.52101,6.02435
21.6754,67185.8353,-9.97237,4.45993,5.60347
21.6873,67185.8453,-9.7488,3.91748,5.18991
21.695,67185.8553,-9.43542,3.47705,4.95412
21.7101,67185.8663,-8.79585,2.95842,4.7562
21.714,67185.8763,-8.24851,3.07143,4.65174
21.7303,67185.8863,-7.48432,4.01461,4.33775
21.7378,67185.8962,-6.95653,4.69816,3.97307
21.7473,67185.9062,-6.3139,5.02314,3.51186
21.7539,67185.9163,-5.89607,4.70916,3.24492
21.766,67185.9263,-5.37561,4.09341,2.85702
21.774,67185.9363,-4.91502,3.54485,2.33228
21.7859,67185.9463,-4.43733,3.02562,1.55221
21.7939,67185.9562,-3.89671,2.62244,0.94318
21.8058,67185.9662,-3.31028,2.3109,0.40012
21.8154,67185.9762,-2.87168,2.17224,0.19975
21.8278,67185.9862,-2.53937,2.13009,0.29871
21.8349,67185.9963,-2.39642,2.24371,0.53206
21.8479,67186.0063,-2.34022,2.57113,0.86315
21.8572,67186.0162,-2.38176,2.81548,1.15392
21.8684,67186.0262,-2.45446,2.82708,1.42148
21.8782,67186.0362,-2.51188,2.82036,1.50029
21.8897,67186.0463,-2.5638,2.76783,1.41904
21.896,67186.0563,-2.5748,2.61145,1.26266
21.9085,67186.0673,-2.17346,2.81426,0.85827
21.9158,67186.0773,-1.95966,2.4117,0.57605
21.9282,67186.0873,-1.69637,2.38176,0.41661
21.936,67186.0973,-1.43248,2.38909,0.50213
21.9495,67186.1072,-1.18691,2.35794,0.81184
21.9562,67186.1172,-1.02076,2.44163,1.14476
21.9698,67186.1272,-0.81795,2.84846,1.42087
21.9801,67186.1382,-0.68539,3.24492,1.52533
22.0013,67186.1482,-0.69028,3.60349,1.59436
22.0206,67186.1583,-0.75686,3.97918,1.70065
22.0229,67186.1683,-0.85888,4.5369,1.84115
22.0277,67186.1783,-0.9841,4.70794,1.90712
22.0295,67186.1883,-1.15881,4.27789,1.75257
22.0417,67186.1982,-1.28404,3.6713,1.4844
22.0626,67186.2082,-1.33413,2.7715,1.03236
22.0648,67186.2183,-1.23517,2.21133,0.76297
22.0686,67186.2282,-0.96456,1.5632,0.48136
22.082,67186.2383,-0.64691,1.10444,0.3146
22.0895,67186.2493,-0.34086,0.84177,0.27
22.0964,67186.2593,-0.14355,0.92424,0.35186
22.1082,67186.2693,0.0171,1.25166,0.60231
22.1163,67186.2792,0.1179,1.56687,0.95845
22.1292,67186.2892,0.28955,2.24126,1.47585
22.137,67186.2992,0.44776,2.86129,1.92239
22.1482,67186.3093,0.54184,3.02439,2.29074
22.1563,67186.3193,0.41783,2.52898,2.34022
22.1682,67186.3293,0.18754,1.7599,2.13742
22.1766,67186.3393,-0.09529,0.93768,1.87658
22.1883,67186.3492,-0.35919,0.2755,1.43981
22.1981,67186.3592,-0.4893,0.03726,1.04763
22.2084,67186.3693,-0.49052,0.11057,0.68234
22.2165,67186.3793,-0.38546,0.3427,0.47709
22.2286,67186.3893,-0.15149,0.63835,0.37507
22.2365,67186.3993,0.05986,0.85155,0.46609
22.2504,67186.4092,0.27672,1.18935,0.7086
22.2575,67186.4192,0.40012,1.5571,0.93096
22.2691,67186.4293,0.47831,2.1307,1.26022
22.2781,67186.4393,0.45265,2.73301,1.61268
22.2916,67186.4493,0.25595,3.29989,1.97248
22.2983,67186.4603,-0.41844,3.06777,1.93828
22.3123,67186.4702,-1.5235,2.2883,1.37139
22.3188,67186.4803,-1.98409,1.98409,0.80512
22.3327,67186.4913,-1.84542,1.86803,0.32132
22.3396,67186.5013,-1.52289,1.8045,0.21747
22.3569,67186.5113,-1.14537,1.82832,0.33231
22.3611,67186.5212,-0.99388,1.99509,0.50335
22.3754,67186.5312,-1.09589,2.32617,0.70738
22.3794,67186.5413,-1.30298,2.60901,0.85949
22.3914,67186.5513,-1.61024,2.98286,1.08306
22.3995,67186.5613,-1.87108,3.20643,1.2816
22.417,67186.5713,-2.17285,3.5082,1.45936
22.4228,67186.5812,-2.43674,3.88694,1.50517
22.4348,67186.5923,-2.89123,4.57294,1.30298
22.4407,67186.6022,-3.45505,4.83317,0.91813
22.4524,67186.6122,-4.17038,4.54972,0.3207
22.4605,67186.6222,-4.42389,4.06409,-0.15272
22.4723,67186.6323,-4.15877,3.18139,-0.6127
22.48,67186.6423,-3.5534,2.24982,-0.84116
22.4958,67186.6523,-2.7941,1.41599,-0.86987
22.5018,67186.6623,-2.25165,0.967,-0.80817
22.52,67186.6722,-1.76051,0.47647,-0.80695
22.5264,67186.6822,-1.64201,0.24679,-0.86376
22.5335,67186.6923,-1.79533,0.26756,-1.13621
22.5411,67186.7023,-2.05251,0.50152,-1.73913
22.5528,67186.7123,-2.31212,0.7422,-2.56502
22.56,67186.7223,-2.51738,0.87537,-3.07448
22.5724,67186.7322,-2.67987,0.75014,-3.28462
22.5799,67186.7422,-2.74034,0.28588,-3.06593
22.5972,67186.7523,-2.7715,-0.18387,-2.55158
22.6016,67186.7623,-2.74584,-0.20281,-2.08733
22.6125,67186.7723,-2.69514,-0.00977,-1.56748
22.6226,67186.7823,-2.64138,0.12339,-1.27976
22.6324,67186.7922,-2.55097,0.14294,-1.09406
22.6409,67186.8022,-2.44346,0.32132,-0.96333
22.6522,67186.8122,-2.26326,0.64935,-0.78069
22.6597,67186.8223,-2.09649,0.88942,-0.46487
22.6718,67186.8323,-1.90529,1.05558,-0.14844
22.6797,67186.8423,-1.76968,1.02381,0.00794
22.6955,67186.8523,-1.64567,0.74037,0.03543
22.7003,67186.8622,-1.66216,0.31826,-0.02016
22.7135,67186.8722,-1.74097,-0.50885,-0.1179
22.7245,67186.8823,-1.82282,-1.41599,-0.24129
22.7334,67186.8932,-1.90285,-2.13864,-0.46914
22.7408,67186.9033,-1.94744,-2.32068,-0.70005
22.7529,67186.9133,-1.8271,-1.90712,-0.9389
22.7609,67186.9233,-1.58153,-1.40743,-1.02014
22.7757,67186.9333,-1.22234,-1.05313,-0.9279
22.7944,67186.9432,-1.02014,-1.23761,-0.76541
22.7979,67186.9532,-0.77336,-1.12582,-0.56994
22.8019,67186.9632,-0.49175,-0.93951,-0.43433
22.8157,67186.9733,-0.18815,-0.81367,-0.40256
22.8213,67186.9833,0.1405,-0.65424,-0.47464
22.8337,67186.9933,0.54428,-0.60476,-0.61636
22.8413,67187.0032,0.86315,-0.74403,-0.74587
22.8537,67187.0132,1.16553,-0.95661,-0.87415
22.8612,67187.0232,1.43309,-1.09162,-0.97555
22.8741,67187.0333,1.79167,-1.1075,-1.03236
22.8817,67187.0433,2.06228,-0.88087,-0.98655
22.9032,67187.0543,2.30174,-0.51374,-0.82894
22.9051,67187.0643,2.40375,-0.53756,-0.71777
22.9145,67187.0743,2.49844,-0.68967,-0.67317
22.9266,67187.0843,2.56686,-0.67562,-0.69089
22.9344,67187.0942,2.74767,-0.50335,-0.77519
22.9421,67187.1042,3.03295,-0.25779,-0.90225
22.9578,67187.1142,3.6377,-0.0336,-0.97433
22.963,67187.1252,4.40495,0.00489,-0.84544
22.9749,67187.1352,5.14715,-0.18204,-0.562
22.9828,67187.1453,5.69449,-0.32254,-0.31521
22.9949,67187.1553,6.42691,-0.45204,-0.05192
23.0036,67187.1653,7.17706,-0.75014,0.15333
23.0172,67187.1753,8.17704,-1.35123,0.45082
23.0239,67187.1852,8.96078,-1.86558,0.66523
23.0384,67187.1952,9.74147,-2.40742,0.76175
23.0467,67187.2053,10.10127,-2.60717,0.66401
23.0598,67187.2153,10.22527,-2.24737,0.25412
23.0693,67187.2253,10.25215,-1.7147,-0.1967
23.075,67187.2353,10.05362,-0.86682,-0.63591
23.0825,67187.2452,9.75613,-0.52657,-0.71654
23.0944,67187.2552,9.33952,-1.02198,-0.33659
23.1032,67187.2652,8.90825,-1.71653,0.37263
23.115,67187.2753,8.41467,-1.82527,1.19424
23.1225,67187.2853,8.05243,-1.29381,1.74219
23.1349,67187.2953,7.5448,-0.72143,2.14719
23.1425,67187.3052,7.11963,-0.66829,2.18201
23.1564,67187.3152,6.74762,-0.88881,2.00425
23.1655,67187.3252,6.37621,-1.0232,1.87108
23.1797,67187.3353,5.89302,-0.91996,1.96882
23.1849,67187.3453,5.49229,-0.69639,2.15269
23.1954,67187.3553,5.15692,-0.36591,2.30357
23.2032,67187.3653,4.97733,-0.31398,2.46057
23.2149,67187.3752,4.80751,-0.55161,2.72751
23.2228,67187.3852,4.73237,-0.83566,3.01218
23.236,67187.3953,4.7678,-1.04275,3.27363
23.2454,67187.4053,4.88326,-1.02381,3.37259
23.2586,67187.4153,5.13554,-0.95661,3.34143
23.2642,67187.4253,5.42448,-0.87354,3.16123
23.2811,67187.4352,5.73053,-0.96028,2.9743
23.286,67187.4452,5.96021,-1.08734,2.95598
23.298,67187.4553,6.12881,-1.19485,3.06654
23.3061,67187.4652,6.23693,-0.99082,3.29562
23.3178,67187.4753,6.26442,-0.7758,3.74949
23.3243,67187.4863,6.21739,-0.85888,4.12395
23.336,67187.4963,6.14225,-1.32497,4.52285
23.3439,67187.5063,6.10438,-1.8271,4.72321
23.3558,67187.5162,6.0494,-2.27181,4.76414
23.3638,67187.5262,6.01214,-2.5693,4.54667
23.3771,67187.5362,5.95349,-2.94804,4.24979
23.384,67187.5463,5.91501,-3.33716,4.05187
23.3964,67187.5563,5.99137,-3.7782,3.79164
23.4038,67187.5663,6.18012,-4.20825,3.52225
23.416,67187.5763,6.49105,-4.51552,3.1991
23.4247,67187.5862,6.79099,-4.4978,2.9291
23.4381,67187.5962,7.21737,-4.0702,2.41414
23.4493,67187.6063,7.36398,-3.76293,2.00303
23.4595,67187.6163,7.19172,-3.53447,1.61085
23.4643,67187.6263,6.7299,-3.36648,1.42332
23.4768,67187.6363,5.71892,-3.23881,1.38727
23.4843,67187.6462,4.66029,-2.97736,1.5852
23.5002,67187.6562,3.463,-2.41414,1.67927
23.5058,67187.6672,2.78921,-2.11543,1.47829
23.5186,67187.6772,2.1643,-2.07083,1.00304
23.5258,67187.6872,1.76479,-2.15086,0.58704
23.54,67187.6973,1.44103,-2.26081,0.33353
23.5459,67187.7073,1.25288,-2.48011,0.35064
23.5626,67187.7173,1.03236,-3.37503,0.72754
23.5733,67187.7273,0.93157,-3.46788,0.95723
23.5846,67187.7372,0.89736,-2.80509,0.69822
23.5976,67187.7472,0.79962,-2.75928,0.45143
23.6008,67187.7573,0.56383,-3.30356,0.3769
23.6083,67187.7673,0.3372,-3.78187,0.44043
23.6178,67187.7773,0.01955,-4.04454,0.551
23.6248,67187.7873,-0.24496,-4.41839,0.66768
23.6371,67187.7972,-0.39462,-4.7171,0.67378
23.6449,67187.8072,-0.35491,-4.08974,0.38362
23.6602,67187.8173,-0.39584,-3.25591,0.12706
23.676,67187.8273,-0.64568,-3.08487,0.31215
23.6788,67187.8373,-0.99571,-3.06105,0.85032
23.6908,67187.8473,-1.33291,-3.14901,1.27304
23.6977,67187.8572,-1.71531,-3.20338,1.70065
23.7081,67187.8672,-1.9059,-3.56684,1.91323
23.7178,67187.8772,-2.0354,-4.44282,2.01586
23.7271,67187.8873,-2.14047,-5.23817,2.01219
23.7376,67187.8973,-2.26509,-5.71159,1.85459
23.7455,67187.9073,-2.28647,-4.10624,1.22234
23.7587,67187.9183,-2.55708,-1.63162,-0.20342
23.7658,67187.9283,-2.94498,-1.49418,-0.94684
23.7809,67187.9383,-3.16184,-2.16796,-1.2315
23.7868,67187.9482,-2.91016,-2.67681,-1.02137
23.7999,67187.9582,-2.41536,-3.07754,-0.60353
23.807,67187.9682,-2.05678,-3.47582,-0.22969
23.8248,67187.9781,-1.83076,-3.96268,0.3653
23.8352,67187.9883,-1.92178,-4.26873,0.96639
23.8499,67187.9993,-2.27731,-4.4526,1.69149
23.852,67188.0102,-2.62183,-4.83439,2.27853
23.8608,67188.0203,-2.93704,-5.74763,2.88878
23.8679,67188.0303,-3.10808,-6.53137,3.27302
23.8809,67188.0403,-3.07326,-5.64989,3.26752
23.888,67188.0503,-2.86251,-2.91505,2.66582
23.9046,67188.0602,-2.74706,-1.82832,1.70126
23.9109,67188.0702,-2.7495,-2.73423,1.18569
23.9225,67188.0803,-2.67254,-3.29684,1.08917
23.9297,67188.0903,-2.64016,-2.93154,1.13071
23.9408,67188.1003,-2.55708,-3.16611,1.18752
23.948,67188.1103,-2.49416,-3.69818,1.17469
23.9609,67188.1202,-2.43308,-4.08791,1.17714
23.968,67188.1302,-2.37443,-3.87472,1.29015
23.9841,67188.1402,-2.28097,-3.02623,1.5968
23.9943,67188.1503,-2.26387,-2.38237,1.98776
24.0029,67188.1603,-2.23332,-2.23821,2.49966
24.0129,67188.1703,-2.20461,-2.51493,2.80021
24.0219,67188.1802,-2.18201,-2.68903,2.88023
24.0283,67188.1902,-2.14841,-2.57602,2.87168
24.0424,67188.2002,-2.12887,-2.64566,2.87534
24.0643,67188.2103,-2.15269,-2.85274,2.92055
24.0659,67188.2203,-2.20217,-2.92421,2.94804
24.0688,67188.2303,-2.2547,-2.94009,3.0134
24.0826,67188.2403,-2.31151,-2.93765,3.17711
24.0892,67188.2502,-2.33473,-2.90039,3.38603
24.0988,67188.2602,-2.33839,-2.8448,3.62549
24.1071,67188.2702,-2.29991,-2.73851,3.84479
24.1188,67188.2801,-2.24371,-2.42575,4.17221
24.1275,67188.2902,-2.18995,-2.25287,4.45687
24.1439,67188.3002,-2.13009,-2.35977,4.45993
24.15,67188.3112,-2.16491,-2.51982,4.11968
24.1624,67188.3212,-2.31457,-2.7715,3.76843
24.1719,67188.3311,-2.55769,-2.84175,3.77881
24.1822,67188.3412,-2.96453,-3.00485,4.29499
24.1905,67188.3512,-3.36281,-3.1374,4.98955
24.202,67188.3611,-4.01155,-3.16306,6.19295
24.2089,67188.3712,-4.44527,-3.01462,6.96814
24.2236,67188.3812,-4.90219,-2.66582,7.6853
24.2442,67188.3912,-5.13371,-2.53937,8.12634
24.2494,67188.4012,-5.2345,-2.19484,8.49775
24.251,67188.4112,-5.18258,-1.67499,8.85877
24.2628,67188.4212,-5.03109,-1.01343,9.40427
24.2708,67188.4312,-4.99688,-0.46304,9.93511
24.2836,67188.4412,-5.14837,0.11851,10.62478
24.2941,67188.4512,-5.53383,0.697,11.38592
24.3006,67188.4611,-6.15691,1.00671,12.09574
24.3086,67188.4711,-6.80321,1.31825,12.2454
24.3237,67188.4812,-7.45317,1.85031,12.0481
24.3301,67188.4912,-7.72867,2.0635,11.69868
24.3529,67188.5022,-7.57656,1.80938,10.83919
24.3677,67188.5122,-7.03534,1.68599,10.10615
24.3724,67188.5222,-5.88996,1.82649,9.02859
24.3751,67188.5322,-4.91136,2.1759,8.27478
24.3854,67188.5421,-3.62671,2.24859,7.62238
24.3902,67188.5522,-2.58396,2.28525,7.35176
24.4025,67188.5622,-1.52777,2.51188,7.31572
24.4109,67188.5731,-0.78374,2.79226,7.40185
24.4231,67188.5832,-0.16188,2.70552,7.42079
24.4319,67188.5932,0.24068,2.33167,7.2412
24.4436,67188.6032,0.58704,1.6078,6.78244
24.4514,67188.6132,0.80084,1.01098,6.2687
24.4636,67188.6232,1.02381,0.85094,5.50756
24.4714,67188.6331,1.16003,0.70311,4.79529
24.4835,67188.6432,1.22173,0.33109,4.02927
24.4918,67188.6532,1.19241,0.03726,3.57173
24.5049,67188.6632,1.15759,-0.27917,3.12824
24.5119,67188.6732,1.16064,-0.23824,2.89611
24.5247,67188.6832,1.01953,0.16921,2.98469
24.5326,67188.6931,0.70921,0.62186,3.30722
24.5448,67188.7032,0.47892,0.40439,3.50087
24.5605,67188.7132,0.70433,-0.18387,3.71284
24.5716,67188.7232,1.28404,-0.88148,3.91198
24.5731,67188.7332,1.8778,-1.1582,3.93397
24.5851,67188.7432,2.33351,-1.17225,3.88755
24.5957,67188.7542,2.4007,-1.16431,3.98895
24.6059,67188.7642,2.18079,-1.26938,4.24124
24.6136,67188.7742,1.87597,-1.58153,4.45076
24.6254,67188.7841,1.62124,-2.17163,4.52468
24.6315,67188.7942,1.61085,-2.6481,4.42083
24.6653,67188.8042,1.93033,-3.1032,3.94558
24.6664,67188.8142,2.31151,-3.182,3.22842
24.667,67188.8242,2.46667,-2.94865,2.62183
24.6716,67188.8342,2.29136,-2.62794,2.53387
24.6865,67188.8441,1.94622,-2.54548,2.85091
24.6916,67188.8542,1.73302,-2.87412,3.34021
24.7032,67188.8642,1.80327,-3.55951,3.74827
24.7126,67188.8742,2.11665,-4.23696,3.86556
24.7244,67188.8842,2.47217,-4.40495,3.78675
24.7323,67188.8942,2.54792,-4.13983,3.55768
24.7446,67188.9041,2.45873,-3.97062,3.34021
24.7524,67188.9142,2.39581,-4.17099,3.30234
24.7659,67188.9242,2.51615,-4.49963,3.27302
24.7727,67188.9341,2.75928,-4.63341,3.17222
24.795,67188.9442,3.02317,-4.68534,3.05066
24.7973,67188.9542,3.0977,-4.65174,3.06105
24.8056,67188.9642,3.13985,-4.39762,3.21132
24.815,67188.9741,3.22415,-3.88327,3.35304
24.8249,67188.9842,3.38175,-3.43184,3.39275
24.8321,67188.9942,3.40435,-3.29928,3.32616
24.8469,67189.0042,3.13924,-3.48499,3.22903
24.8568,67189.0142,2.72079,-3.76721,3.17528
24.8699,67189.0242,2.38848,-3.71101,3.03539
24.8861,67189.0341,2.33595,-3.06532,2.8277
24.8938,67189.0442,2.50821,-2.15635,2.71163
24.8958,67189.0542,2.70797,-1.94377,2.87534
24.9073,67189.0642,2.89489,-2.48378,3.26202
24.9131,67189.0742,3.0189,-3.39213,3.54241
24.9264,67189.0852,3.2498,-4.39212,3.52836
24.9339,67189.0952,3.60044,-4.92357,3.15023
24.9468,67189.105,4.00605,-4.94007,2.58335
24.955,67189.1162,4.05981,-4.82522,2.21133
24.9775,67189.1261,3.66275,-4.97,2.19667
24.9798,67189.1362,3.26996,-5.13799,2.32923
24.9876,67189.1461,2.91749,-5.31758,2.53387
24.996,67189.1561,2.86618,-5.29498,2.61023
25.0075,67189.1662,3.00607,-4.98222,2.51066
25.0141,67189.1762,3.19666,-4.85638,2.45079
25.0355,67189.1862,3.44772,-5.10439,2.48256
25.0528,67189.1961,3.71406,-5.43914,2.53265
25.0565,67189.2061,3.96879,-5.62729,2.5021
25.0586,67189.2162,4.04637,-5.68593,2.31274
25.068,67189.2262,3.94558,-5.8356,1.85275
25.0794,67189.2362,3.7104,-5.7739,1.48929
25.085,67189.2462,3.20521,-5.4422,1.11483
25.0934,67189.2562,2.75439,-5.26688,1.00548
25.106,67189.2662,2.24432,-5.26566,1.10872
25.1173,67189.2762,2.05434,-5.2345,1.16859
25.1353,67189.2862,1.9285,-5.06224,1.09834
25.1436,67189.2962,1.86436,-4.82522,1.03175
25.15,67189.3062,1.81916,-4.69633,1.0849
25.156,67189.3162,1.78312,-4.63219,1.23395
25.1662,67189.3262,1.68232,-4.47703,1.41965
25.1753,67189.3361,1.53999,-4.31271,1.529
25.1897,67189.3472,1.34818,-3.93458,1.46485
25.1952,67189.3571,1.12827,-3.83623,1.2425
25.215,67189.3672,0.79535,-4.08486,0.73731
25.2347,67189.3772,0.52534,-4.44282,0.22602
25.2365,67189.3872,0.32681,-4.87409,-0.23457
25.2394,67189.3972,0.20708,-5.11539,-0.51252
25.2489,67189.4072,0.06292,-5.41104,-0.50702
25.2615,67189.4171,-0.10751,-5.18136,-0.37935
25.2709,67189.4272,-0.3262,-4.44038,-0.27
25.28,67189.4372,-0.50457,-3.96329,-0.12706
25.2889,67189.4481,-0.73304,-3.75682,0.25962
25.296,67189.4582,-0.88881,-3.52653,0.47709
25.3084,67189.4681,-1.05863,-3.11236,0.44899
25.3159,67189.4782,-1.18508,-3.07998,0.32009
25.3279,67189.4882,-1.36406,-3.41474,0.146
25.3359,67189.4982,-1.5461,-4.0592,0.02443
25.3481,67189.5081,-1.71897,-4.8747,-0.03299
25.3574,67189.5182,-1.97554,-5.86308,0.14722
25.37,67189.5282,-2.4514,-6.56375,0.73915
25.3772,67189.5382,-2.8955,-5.15265,1.09406
25.3952,67189.5482,-3.28523,-2.60656,0.97616
25.4096,67189.5582,-3.44772,-1.67988,0.79351
25.4112,67189.5681,-3.45078,-2.02135,0.69516
25.4219,67189.5782,-3.31578,-2.67987,0.58032
25.4284,67189.5881,-3.09342,-3.35915,0.25351
25.4361,67189.5982,-2.90039,-4.00117,-0.01588
25.4479,67189.6082,-2.70491,-5.09401,-0.12584
25.456,67189.6182,-2.72507,-6.02008,0.10079
25.4678,67189.6281,-2.89672,-6.86918,0.70677
25.4764,67189.6382,-3.15878,-7.3652,1.29687
25.4905,67189.6492,-3.52469,-7.76165,1.8271
25.4985,67189.6602,-3.59739,-5.61874,1.65606
25.5209,67189.6702,-3.51553,-2.56075,0.79107
25.5225,67189.6801,-3.50392,-1.54793,0.23824
25.5332,67189.6902,-3.42329,-1.99264,-0.32376
25.5396,67189.7002,-3.23392,-2.95842,-0.64813
25.5516,67189.7102,-2.86129,-3.6713,-0.81367
25.559,67189.7202,-2.50516,-3.81913,-0.80695
25.5712,67189.7302,-2.01769,-3.86311,-0.56383
25.5783,67189.7401,-1.58886,-3.83257,-0.04032
25.5906,67189.7502,-1.1692,-3.95413,0.78496
25.5984,67189.7602,-0.95539,-4.24674,1.52716
25.6128,67189.7702,-0.97433,-4.58332,2.29319
25.6194,67189.7802,-1.07696,-4.52712,2.75989
25.6318,67189.7902,-1.11055,-2.7996,2.88878
25.6392,67189.8002,-1.06229,-1.43065,2.7098
25.6579,67189.8112,-0.98533,-1.28037,2.53937
25.6698,67189.8222,-0.81978,-1.23395,2.22721
25.6751,67189.8322,-0.47098,-1.01098,1.7825
25.6844,67189.8422,-0.14844,-0.76603,1.4618
25.6923,67189.8522,0.21075,-0.76053,1.07085
25.7009,67189.8632,0.45082,-0.81612,0.64691
25.713,67189.8732,0.44471,-0.97738,0.25473
25.721,67189.8831,0.25229,-1.08123,0.13195
25.7331,67189.8929,-0.00367,-1.34207,0.30055
25.7475,67189.9032,-0.06353,-1.48685,0.61697
25.7551,67189.9132,0.14783,-0.83627,0.80756
25.7627,67189.9231,0.61453,0.13683,0.72082
25.7992,67189.9332,1.48807,0.89492,0.48808
25.8008,67189.9431,2.33595,0.85949,0.26756
25.8023,67189.9532,3.31272,0.56016,-0.00855
25.8037,67189.9642,4.23391,0.3543,-0.31643
25.8142,67189.9741,5.13188,0.31948,-0.68234
25.8218,67189.9842,5.78184,0.2529,-0.87781
25.8341,67189.9942,6.30535,0.22724,-0.94928
25.8425,67190.0042,6.49961,0.08735,-0.978
25.8568,67190.0142,6.42813,-0.06536,-0.99693
25.8673,67190.0242,6.16852,-0.17226,-0.97861
25.8769,67190.0341,5.64745,-0.18265,-0.88942
25.884,67190.0452,5.02192,0.04948,-0.64752
25.8974,67190.0551,4.01461,0.35858,-0.21441
25.9045,67190.0652,3.42268,0.24801,-0.05315
25.9202,67190.0752,3.16184,0.19242,-0.07208
25.9324,67190.0852,3.32799,0.27489,-0.13561
25.9438,67190.0952,3.72017,0.53084,-0.10568
25.948,67190.1062,4.15755,0.59804,0.03604
25.9589,67190.1161,4.42144,0.49724,0.23396
25.9658,67190.1262,4.43305,0.3769,0.36102
25.9803,67190.1372,4.15572,0.23579,0.45937
25.9905,67190.1472,3.8344,0.10629,0.45632
26.0072,67190.1572,3.4691,0.17349,0.42272
26.0139,67190.1671,3.2498,0.5003,0.42699
26.0195,67190.177,3.10625,1.0232,0.42211
26.0271,67190.1872,2.99507,1.22906,0.38851
26.0434,67190.1972,2.76661,1.43614,0.33353
26.0511,67190.2072,2.52898,1.69637,0.32437
26.057,67190.2172,2.19056,1.94011,0.46792
26.0743,67190.2272,1.94499,2.08,0.79657
26.079,67190.2371,1.77579,2.30418,1.19241
26.0878,67190.2472,1.67011,2.42269,1.32436
26.0957,67190.2572,1.56015,2.48622,1.22234
26.1042,67190.2672,1.47219,2.57174,1.1527
26.1159,67190.2772,1.37323,2.73301,1.28098
26.1242,67190.2872,1.22845,2.94315,1.45264
26.1358,67190.2971,0.8717,3.13068,1.45325
26.1442,67190.3072,0.4496,3.1991,1.2877
26.1558,67190.3171,-0.09163,3.14718,1.05191
26.1647,67190.3272,-0.38729,3.04333,0.91263
26.1773,67190.3372,-0.52534,2.79349,0.83078
26.1842,67190.3472,-0.53939,2.70308,0.78435
26.1959,67190.3571,-0.4948,2.87046,0.71227
26.2042,67190.3672,-0.52718,2.75256,0.69516
26.2232,67190.3772,-0.6689,2.51432,0.67684
26.2258,67190.3872,-0.80817,2.32617,0.59498
26.2375,67190.3972,-0.99327,2.0635,0.47525
26.2453,67190.4072,-1.17592,1.66888,0.40012
26.2595,67190.4171,-1.37139,1.20524,0.49541
26.2649,67190.4272,-1.46791,0.97005,0.66829
26.2777,67190.4372,-1.45691,0.75808,0.75992
26.2846,67190.4472,-1.37933,0.562,0.70311
26.2969,67190.4572,-1.24372,0.29932,0.49052
26.3047,67190.4671,-1.14049,0.01527,0.27794
26.3166,67190.4771,-1.10933,-0.29993,0.06597
26.325,67190.4872,-1.15454,-0.49541,-0.10934
26.3417,67190.4972,-1.24494,-0.62492,-0.24801
26.3561,67190.5072,-1.34024,-0.77152,-0.31948
26.3687,67190.5172,-1.42087,-0.91813,-0.40195
26.3708,67190.5272,-1.44042,-1.01709,-0.51068
26.3799,67190.5372,-1.43676,-1.11361,-0.69761
26.385,67190.5471,-1.4618,-1.1411,-0.87842
26.3977,67190.5572,-1.53083,-1.17042,-1.03786
26.4059,67190.5681,-1.61757,-1.1753,-1.09834
26.4182,67190.5782,-1.71959,-1.1246,-0.98899
26.4259,67190.5882,-1.81977,-0.99815,-0.78679
26.4453,67190.5982,-1.94377,-0.90347,-0.56688
26.4608,67190.6082,-2.05617,-0.90958,-0.4777
26.4626,67190.6182,-2.14902,-0.87659,-0.54184
26.4761,67190.6281,-2.13436,-0.82772,-0.73976
26.4779,67190.6382,-1.97371,-0.70433,-1.03114
26.4862,67190.6482,-1.76418,-0.51252,-1.25411
26.5032,67190.6582,-1.4166,-0.21625,-1.37078
26.508,67190.6682,-1.07207,0.06536,-1.30664
26.5184,67190.6782,-0.74037,0.30727,-1.06229
26.5266,67190.6892,-0.57238,0.43127,-0.82955
26.5386,67190.6992,-0.56139,0.46181,-0.77763
26.5467,67190.7092,-0.72693,0.45693,-0.92852
26.5584,67190.7191,-0.98288,0.37385,-1.16736
26.5671,67190.7292,-1.14843,0.38118,-1.32436
26.582,67190.7392,-1.16309,0.72693,-1.41782
26.5881,67190.7492,-1.01526,1.02748,-1.4673
26.6016,67190.7592,-0.69944,1.28465,-1.47585
26.6084,67190.7692,-0.38301,1.45142,-1.40804
26.6211,67190.7791,-0.05681,1.60841,-1.25899
26.6293,67190.7902,0.24251,1.71409,-1.07268
26.6421,67190.8001,0.45571,1.77273,-0.91324
26.6501,67190.8101,0.57666,1.8161,-0.80573
26.6621,67190.8202,0.62369,1.82832,-0.70066
26.6691,67190.8302,0.61025,1.75318,-0.59682
26.6821,67190.8402,0.56505,1.49723,-0.45754
26.6894,67190.8502,0.5736,1.26449,-0.3036
26.7085,67190.8602,0.65973,1.0061,-0.15638
26.7229,67190.8701,0.77763,0.87537,-0.11912
26.7253,67190.8802,0.98594,0.82711,-0.18326
26.7364,67190.8902,1.18997,0.75014,-0.26206
26.7399,67190.9002,1.39705,0.54306,-0.29199
26.7479,67190.9102,1.51922,0.31154,-0.29444
26.7639,67190.9202,1.56015,-0.05376,-0.29322
26.7762,67190.9312,1.45814,-0.35919,-0.28405
26.7807,67190.9412,1.22478,-0.68661,-0.18631
26.7886,67190.9512,1.03114,-0.95295,-0.02016
26.8002,67190.9611,0.84605,-1.32008,0.24496
26.8088,67190.9712,0.76358,-1.63345,0.42272
26.8203,67190.9812,0.73609,-1.923,0.53206
26.8286,67190.9912,0.75259,-2.15391,0.57666
26.8459,67191.0012,0.81978,-2.44896,0.64385
26.8529,67191.0112,0.92057,-2.59984,0.74464
26.8624,67191.0211,1.11544,-2.43308,0.87354
26.87,67191.0312,1.33169,-2.15086,0.98655
26.8826,67191.0412,1.65239,-1.87169,1.19974
26.8902,67191.0512,1.8833,-1.67133,1.41537
26.904,67191.0612,1.99631,-1.44164,1.64323
26.9118,67191.0712,1.96149,-1.29992,1.76235
26.9231,67191.0811,1.85886,-1.17714,1.86619
26.9321,67191.0922,1.71836,-1.08062,1.93278
26.9446,67191.1022,1.63834,-1.06291,1.98776
26.9558,67191.1121,1.64445,-1.00365,2.0073
26.9721,67191.1222,1.66033,-0.85155,1.94805
26.9905,67191.1331,1.6023,-0.71716,1.88574
26.9935,67191.1442,1.48257,-0.58154,1.96515
26.9949,67191.1541,1.4673,-0.49052,2.21561
27.0043,67191.1642,1.61757,-0.29627,2.73118
27.013,67191.1752,1.9114,-0.0843,3.03295
27.0249,67191.1851,2.13742,0.13378,2.96086
27.0332,67191.1952,2.23699,0.37507,2.78493
27.0503,67191.2052,2.21622,0.72021,2.69025
27.0771,67191.2152,2.11909,1.14232,2.79532
27.0779,67191.2252,1.81305,1.7318,3.0079
27.0788,67191.2352,1.47035,2.18507,3.13374
27.086,67191.2451,1.02931,2.5241,3.11236
27.1005,67191.2552,0.63958,2.66582,2.91933
27.1037,67191.2652,0.29383,2.89184,2.61817
27.1122,67191.2752,0.12584,3.11175,2.39581
27.1242,67191.2852,0.02566,3.31028,2.08427
27.1327,67191.2952,-0.01161,3.23575,1.87902
27.1453,67191.3051,-0.02871,3.05433,1.63223
27.1532,67191.3162,-0.02138,2.9908,1.49295
27.1688,67191.3262,-0.01161,3.09525,1.51311
27.1797,67191.3361,-0.07514,3.24247,1.59558
27.1864,67191.3462,-0.2865,3.43856,1.69271
27.198,67191.3562,-0.52901,3.64564,1.78739
27.2185,67191.3662,-0.90286,3.69451,1.84054
27.2204,67191.3762,-1.22906,3.34388,1.57176
27.2271,67191.3862,-1.48807,2.82098,0.9389
27.2378,67191.3961,-1.58336,2.3836,0.31826
27.247,67191.4062,-1.54915,2.03601,-0.21625
27.2547,67191.4171,-1.45203,1.79411,-0.71227
27.2681,67191.4272,-1.32558,1.64078,-1.1973
27.2749,67191.4372,-1.31336,1.42881,-1.54671
27.2869,67191.4472,-1.42209,1.08856,-1.95538
27.296,67191.4572,-1.6023,0.76786,-2.26142
27.3075,67191.4671,-1.83687,0.40439,-2.39032
27.3164,67191.4782,-1.99875,0.1069,-2.38726
27.333,67191.4882,-2.09099,-0.19975,-2.45018
27.3364,67191.4982,-2.09588,-0.35064,-2.57846
27.3489,67191.5081,-1.98226,-0.37874,-2.69941
27.3573,67191.5182,-1.7825,-0.43127,-2.70735
27.3691,67191.5291,-1.49234,-0.62858,-2.65604
27.3768,67191.5392,-1.1973,-0.79657,-2.56686
27.3927,67191.5492,-0.82467,-0.94195,-2.37321
27.3972,67191.5592,-0.53329,-1.08612,-2.11359
27.4085,67191.5692,-0.25717,-1.3885,-1.86131
27.4174,67191.5792,-0.135,-1.62246,-1.70248
27.4338,67191.5892,-0.08063,-1.73486,-1.65789
27.4371,67191.5992,-0.09591,-1.86314,-1.6866
27.4501,67191.6102,-0.11545,-2.11726,-1.66094
27.4575,67191.6201,-0.08552,-2.28647,-1.61146
27.4699,67191.6302,0.05192,-2.44835,-1.52472
27.4776,67191.6402,0.25779,-2.53387,-1.4673
27.4892,67191.6502,0.51313,-2.58029,-1.4563
27.4984,67191.6602,0.65485,-2.58763,-1.45325
27.5112,67191.6702,0.71716,-2.50394,-1.39338
27.5195,67191.6812,0.67317,-2.41353,-1.33718
27.5333,67191.6912,0.56872,-2.37199,-1.29503
27.5398,67191.7012,0.49724,-2.37077,-1.24617
27.5518,67191.7111,0.43921,-2.29563,-1.29076
27.56,67191.7212,0.36957,-2.14658,-1.518
27.5773,67191.7312,0.26145,-1.99203,-1.82588
27.5835,67191.7422,0.09041,-1.90346,-2.05556
27.5997,67191.7522,-0.15638,-1.80877,-2.10932
27.6037,67191.7632,-0.33903,-1.73547,-2.04945
27.616,67191.7732,-0.52107,-1.60963,-1.92545
27.6222,67191.7832,-0.63652,-1.46485,-1.79594
