AppTimestamp(s),SensorTimestamp(s),acc_x,acc_y,acc_z,gyro_x,gyro_y,gyro_z,mag_x,mag_y,mag_z
40.0038,67204.1531,0.32254141009582993,-0.30615460352144774,0.05862169677930466,0.007978108651911469,0.013155251509054326,-0.0032986720321931586,0.3025352112676057,0.8416901408450705,-0.9475653923541287
40.0155,67204.173,0.2835695804929469,-0.3003156469229877,-0.010033175394087039,0.008588108651911468,-0.005774748490945674,-0.017958672032193156,0.12253521126760569,0.7216901408450713,-1.1275653923541284
40.0343,67204.1931,0.25220472786441406,-0.2859574050013905,-0.07324892552749965,0.012248108651911466,-0.04426474849094567,-0.028948672032193156,0.3025352112676057,0.8416901408450705,-1.3075653923541282
40.0594,67204.2131,0.23432183009229962,-0.26013843061261377,-0.12567702918267565,-0.0005818913480885321,-0.06259474849094566,-0.01306867203219316,0.7225352112676058,0.5416901408450716,-1.1875653923541272
40.0799,67204.2329,0.23660384333849213,-0.22418947129874878,-0.16243255421387226,0.018968108651911467,-0.04426474849094567,0.010751327967806841,0.9025352112676057,0.9616901408450715,-0.7075653923541267
40.094,67204.2531,0.25523240938315606,-0.18759553037588358,-0.17896231122115414,0.018968108651911467,0.031485251509054325,0.006481327967806841,0.7225352112676058,0.901690140845071,-0.2875653923541286
40.1185,67204.2731,0.2787940876126154,-0.1647555251055061,-0.17157847271156984,-0.014631891348088531,0.033315251509054324,0.0015913279678068412,0.5425352112676056,0.7816901408450718,-0.2875653923541286
40.1333,67204.2931,0.29169775999600356,-0.17584951739407048,-0.13906506610016772,-0.045171891348088536,-0.015554748490945675,-0.017348672032193157,0.3025352112676057,1.0816901408450708,0.07243460764587084
40.1515,67204.3131,0.28394145333916165,-0.22676646669250758,-0.08456755426922964,-0.050671891348088534,-0.13406474849094566,-0.012458672032193158,-0.4774647887323943,0.8416901408450705,-0.1675653923541276
40.1726,67204.3331,0.25704023767723283,-0.3126377348193089,-0.016342261973074437,-0.02929189134808853,-0.13528474849094566,-0.02283867203219316,-0.4774647887323943,0.9616901408450715,-0.40756539235412603
40.1935,67204.3531,0.22160846496182993,-0.41630841881768477,0.054265069503848656,-0.05433189134808853,-0.039374748490945674,-0.04238867203219316,-0.5974647887323943,1.2616901408450705,-0.1675653923541276
40.213,67204.3731,0.18379730414731263,-0.5156313082090827,0.11625764026306996,-0.08793189134808853,0.04003525150905433,-0.06743867203219316,-0.5374647887323942,0.7816901408450718,-0.4675653923541283
40.2393,67204.3931,0.15104528046854432,-0.5850031369235965,0.16178477180529577,-0.09893189134808852,0.03514525150905433,-0.06865867203219315,0.002535211267605697,0.12169014084507168,-0.7075653923541267
40.2564,67204.4131,0.12340344648747832,-0.6273472279481043,0.18579543527786746,-0.05678189134808853,-0.06747474849094567,-0.017958672032193156,0.0625352112676057,0.061690140845071184,-0.8875653923541265
40.2722,67204.4331,0.11566650478146763,-0.6320348753256579,0.18817408834773608,-0.0005818913480885321,-0.07175474849094567,0.004651327967806841,0.12253521126760569,-0.41830985915492924,-0.647565392354128
40.2922,67204.4531,0.13192385611242413,-0.6034795322931055,0.17170240769211254,0.014688108651911468,0.010105251509054326,-0.005128672032193159,0.36253521126760574,-0.11830985915492853,-0.4675653923541283
40.3148,67204.4731,0.16559458461976384,-0.5541904612571983,0.14108323323561017,0.029968108651911466,0.04003525150905433,0.0022013279678068415,0.12253521126760569,0.3616901408450701,-0.2875653923541286
40.3327,67204.4931,0.20432117868119382,-0.4949718786456485,0.10202547140708136,0.04340810865191147,-0.03571474849094568,0.018701327967806842,0.12253521126760569,0.6616901408450708,-0.10756539235412887
40.3523,67204.5131,0.23609377511547333,-0.4405375785788589,0.059726216722219866,0.036068108651911464,-0.061974748490945676,0.032131327967806836,0.36253521126760574,1.0216901408450703,-0.10756539235412887
40.374,67204.5331,0.2571859450239008,-0.39854899445169545,0.018853931312434957,0.025078108651911468,-0.021664748490945678,0.0015913279678068412,0.0625352112676057,1.2016901408450718,0.01243460764587212
40.3972,67204.5541,0.26589487904437803,-0.3736609009697125,-0.01626629640913734,-0.03051189134808853,0.04797525150905432,-0.03444867203219316,0.24253521126760574,1.1416901408450713,-0.1675653923541276
40.4153,67204.5741,0.2562098508951913,-0.36788328940906534,-0.04121007672708494,-0.007911891348088531,0.05775525150905433,-0.015508672032193157,0.3025352112676057,0.7216901408450713,-0.22756539235412632
40.4331,67204.5941,0.23096475324236462,-0.3763973125815303,-0.05207057810027424,0.05989810865191147,-0.03143474849094568,0.006481327967806841,0.12253521126760569,0.7816901408450718,-0.40756539235412603
40.4531,67204.6141,0.19957769969428074,-0.39169203062990454,-0.04684001315819614,0.07088810865191147,-0.06930474849094567,0.017471327967806843,0.12253521126760569,0.1816901408450704,-0.4675653923541283
40.4734,67204.6341,0.17755269440768603,-0.40462014443051886,-0.02657459758594904,0.021408108651911468,-0.03143474849094568,0.02297132796780684,-0.1174647887323943,0.5416901408450716,0.07243460764587084
40.4951,67204.6541,0.1746746466236732,-0.4110463574408991,0.004110259236707263,-0.010351891348088532,0.002165251509054326,0.011981327967806842,-0.0574647887323943,0.9616901408450715,0.37243460764587155
40.5187,67204.6751,0.1897767505547711,-0.40929467384300133,0.037864526344733654,0.009808108651911469,0.046755251509054324,-0.007568672032193158,0.12253521126760569,1.1416901408450713,0.31243460764587283
40.538,67204.6951,0.21485813023295763,-0.39876405052360486,0.06631040056696566,0.025078108651911468,0.02109525150905433,0.026641327967806844,-0.0574647887323943,1.5616901408450712,0.5524346076458713
40.5595,67204.7161,0.24250307023983453,-0.3792898086405555,0.08195050117332216,-0.01829189134808853,-0.029604748490945673,0.05718132796780684,0.002535211267605697,1.2616901408450705,0.19243460764587184
40.577,67204.7361,0.2698500990041555,-0.35595318635411133,0.07968656698723976,-0.016461891348088533,-0.022274748490945677,0.023581327967806844,0.1825352112676057,1.1416901408450713,-0.3475653923541273
40.6031,67204.7561,0.28895466699742045,-0.3382592339425383,0.058392250656772865,0.047678108651911466,0.05103525150905432,-0.011848672032193159,-0.0574647887323943,1.2016901408450718,-0.22756539235412632
40.623,67204.7761,0.2925527939693915,-0.3227102725625025,0.021841382683589664,0.10387810865191148,0.031485251509054325,-0.021008672032193157,0.12253521126760569,0.9616901408450715,-0.4675653923541283
40.6363,67204.7961,0.2750013919621269,-0.3055687873571858,-0.02282001892999854,0.08249810865191147,-0.002724748490945674,-0.007568672032193158,0.12253521126760569,1.0816901408450708,-0.22756539235412632
40.6562,67204.8161,0.24376025518625655,-0.29288907113954366,-0.06781386103451954,0.0018681086519114682,0.003995251509054326,-0.03749867203219316,-0.0574647887323943,1.2016901408450718,0.19243460764587184
40.6792,67204.8361,0.20599884369386223,-0.2829303048490288,-0.10632825927649334,-0.034791891348088536,0.018045251509054325,-0.08087867203219316,-0.4174647887323943,0.9616901408450715,-0.22756539235412632
40.6955,67204.8561,0.16030010481102824,-0.2836047025787405,-0.13422611312431715,-0.013411891348088532,0.03392525150905432,-0.07964867203219315,-0.4774647887323943,1.1416901408450713,-0.22756539235412632
40.7146,67204.8761,0.11518240617179433,-0.29434689950791126,-0.14987253591846914,0.03240810865191147,0.03453525150905432,-0.015508672032193157,-0.2974647887323943,0.9616901408450715,-0.40756539235412603
40.7351,67204.8961,0.07302855517766194,-0.31023356391173096,-0.15340820975999334,0.07211810865191147,0.014985251509054326,0.02297132796780684,-0.2974647887323943,0.7816901408450718,-0.8275653923541277
40.7547,67204.9161,0.041191968945024124,-0.32153818925118716,-0.14600070456905473,0.036688108651911466,-0.001504748490945674,-0.0026786720321931587,0.002535211267605697,0.7216901408450713,-0.647565392354128
40.7787,67204.9361,0.028089710554754233,-0.3236262771735037,-0.12963835143579433,-0.036621891348088534,-0.019824748490945676,-0.03566867203219316,-0.1174647887323943,0.8416901408450705,-0.8875653923541265
40.7991,67204.9569,0.036061877321513225,-0.32036021228062084,-0.10709880980185654,-0.05800189134808853,0.014985251509054326,-0.017958672032193156,-0.4774647887323943,0.7216901408450713,-0.7075653923541267
40.8154,67204.9771,0.06098389706514733,-0.31704492982246524,-0.08139191798737334,-0.014631891348088531,0.07424525150905432,0.013811327967806842,-0.4774647887323943,0.901690140845071,-0.527565392354127
40.8354,67204.9971,0.09663914358249343,-0.3119570047315451,-0.05502885059747364,0.0018681086519114682,0.044925251509054326,0.049241327967806836,-0.4174647887323943,1.321690140845071,-0.527565392354127
40.8591,67205.0171,0.13275027044569712,-0.3048653169452979,-0.03015063070286164,0.022028108651911467,-0.05464474849094567,0.07306132796780684,0.12253521126760569,1.1416901408450713,-0.527565392354127
40.8946,67205.0371,0.15859530330854033,-0.294269034709694,-0.008636032950534243,0.03301810865191147,-0.07908474849094567,0.06695132796780684,0.5425352112676056,1.2616901408450705,-0.7075653923541267
40.9007,67205.0581,0.20218738994595864,-0.277854576367223,0.007724301828835059,-0.0011918913480885316,-0.014944748490945675,0.05107132796780684,0.8425352112676057,1.0216901408450703,-0.7075653923541267
40.9218,67205.0791,0.23017050005010392,-0.2614394234188594,0.01833379981259116,-0.04028189134808853,0.056525251509054325,0.0015913279678068412,0.7225352112676058,0.7816901408450718,-0.5875653923541293
40.9385,67205.0991,0.23598892080790723,-0.256332431717271,0.02449662375152936,-0.04273189134808853,0.06630525150905432,-0.03322867203219316,0.5425352112676056,1.0816901408450708,-0.4675653923541283
40.96,67205.1191,0.21847767462022294,-0.263050412597883,0.029222476918611753,-0.015241891348088534,0.018045251509054325,-0.017958672032193156,-0.0574647887323943,1.0816901408450708,-0.5875653923541293
40.9812,67205.1391,0.18425717506751962,-0.2810086417726166,0.03538040795478076,-0.0018018913480885319,-0.036934748490945676,0.025421327967806842,-0.6574647887323943,1.5616901408450712,-0.8875653923541265
41.0006,67205.1591,0.15062619817744824,-0.30316163512542715,0.04444298573327436,-0.0018018913480885319,-0.010054748490945674,0.024191327967806844,-0.5974647887323943,1.6816901408450704,-0.7075653923541267
41.0244,67205.1791,0.13007369036015823,-0.32270661283642255,0.056170314772996555,-0.007301891348088532,0.03942525150905432,-0.027728672032193157,-1.0174647887323942,1.741690140845071,-0.4675653923541283
41.043,67205.2001,0.12159565119436663,-0.3378266137019523,0.06885687170581155,-0.007911891348088531,0.04370525150905433,-0.04055867203219316,-0.7174647887323943,1.5616901408450712,-0.2875653923541286
41.0587,67205.2201,0.11961177716287592,-0.34834381439184303,0.07994262696960035,-0.003631891348088531,-0.012494748490945675,-0.01306867203219316,-0.7174647887323943,1.2016901408450718,0.19243460764587184
41.0784,67205.2401,0.12002587585731173,-0.3548817852136479,0.08651386665872145,0.0030881086519114684,-0.00028474849094567434,0.016861327967806844,-0.8974647887323943,0.9616901408450715,0.19243460764587184
41.1025,67205.2601,0.11946293560043472,-0.35825291452413977,0.08583574425493247,0.01591810865191147,0.042475251509054325,0.01320132796780684,-0.6574647887323943,0.6616901408450708,-0.2875653923541286
41.122,67205.2801,0.11379830629870732,-0.3597780307419125,0.07609109741163926,-0.003631891348088531,0.06569525150905432,-0.008788672032193159,-0.5974647887323943,0.7216901408450713,-0.2875653923541286
41.1476,67205.3001,0.10148055315989724,-0.3602378017335256,0.05715927350306216,-0.015851891348088534,0.009495251509054326,-0.03138867203219316,-0.8374647887323943,0.4816901408450711,-0.22756539235412632
41.1598,67205.3201,0.07850410338986794,-0.3582559267539862,0.030995934737070463,0.006138108651911468,-0.001504748490945674,-0.03383867203219316,-0.7774647887323942,0.4216901408450706,-0.22756539235412632
41.1816,67205.3401,0.059299115082257825,-0.35038474598605274,0.001528835583790758,0.04156810865191147,-0.008834748490945675,-0.006958672032193159,-0.6574647887323943,0.6616901408450708,0.19243460764587184
41.2011,67205.3611,0.05285798152867152,-0.33058947992654464,-0.02603415375127784,0.029358108651911467,0.028425251509054325,0.004651327967806841,-0.4774647887323943,0.4216901408450706,0.01243460764587212
41.2249,67205.3811,0.06538628932968912,-0.3004170967921954,-0.04672213366282944,-0.012791891348088533,0.055305251509054326,0.013811327967806842,0.002535211267605697,0.6016901408450703,-0.10756539235412887
41.2407,67205.4011,0.09534047203780832,-0.2653979300719441,-0.05721093114216394,0.02385810865191147,0.014375251509054325,0.023581327967806844,0.1825352112676057,0.5416901408450716,-0.2875653923541286
41.262,67205.4211,0.13261960744051832,-0.2362671579069367,-0.05704614204696074,0.04523810865191147,-0.030214748490945673,0.06818132796780683,0.3025352112676057,0.2416901408450709,-0.527565392354127
41.2817,67205.4411,0.17343271234118884,-0.2160180220442139,-0.04871747448191884,0.047678108651911466,-0.03326474849094568,0.07673132796780684,0.36253521126760574,0.5416901408450716,-0.4675653923541283
41.3035,67205.4611,0.20911138671268473,-0.20571618491756088,-0.03696188608751984,0.020188108651911466,0.0009352515090543258,0.03336132796780684,0.1825352112676057,0.4816901408450711,-0.4675653923541283
41.3212,67205.4811,0.2332731852920084,-0.2035327525457234,-0.02677653405720394,-0.009131891348088533,0.003385251509054326,0.01014132796780684,0.12253521126760569,1.0216901408450703,-0.647565392354128
41.3412,67205.5011,0.23685760135733283,-0.20948813299817498,-0.021389945209174442,0.0018681086519114682,0.018045251509054325,0.0015913279678068412,0.1825352112676057,0.8416901408450705,-0.22756539235412632
41.3607,67205.5211,0.21845368316375832,-0.2236954399768272,-0.02116067826183994,0.007978108651911469,-0.003944748490945674,0.006481327967806841,0.12253521126760569,1.0216901408450703,0.07243460764587084
41.3802,67205.5411,0.18568978244093923,-0.24387824767760788,-0.023521215343496743,0.001258108651911468,-0.026544748490945673,0.029081327967806842,0.12253521126760569,1.321690140845071,-0.1675653923541276
41.4121,67205.5611,0.14933030608660253,-0.2664417035865142,-0.023843296111200937,0.02751810865191147,-0.03265474849094568,0.00831132796780684,0.12253521126760569,0.6616901408450708,0.31243460764587283
41.4228,67205.5811,0.12289103308429933,-0.2853835424724651,-0.01715444716800564,0.008588108651911468,0.015605251509054325,-0.01306867203219316,-0.0574647887323943,0.9616901408450715,-0.40756539235412603
41.4404,67205.6011,0.10744585012102773,-0.2989484656525776,-0.0004516967235679431,-0.059221891348088536,0.016825251509054326,-0.017958672032193156,-0.2374647887323943,1.0816901408450708,-0.527565392354127
41.464,67205.6221,0.10003612580525413,-0.3087628858941388,0.025657684046302753,-0.061051891348088534,-0.021664748490945678,-0.003908672032193159,0.0625352112676057,0.6616901408450708,-0.647565392354128
41.4832,67205.6421,0.09897553682384792,-0.3215821289679408,0.05692103858706306,0.008588108651911468,-0.05464474849094567,0.01931132796780684,0.12253521126760569,0.4816901408450711,-1.1275653923541284
41.5032,67205.662,0.10345114777434462,-0.3325498781632279,0.08735984008915816,0.06783810865191148,-0.024714748490945675,0.027251327967806844,0.002535211267605697,0.3616901408450701,-0.9475653923541287
41.5247,67205.6831,0.11268930656021703,-0.3346567838950446,0.11091622808863176,0.028738108651911468,0.015605251509054325,0.01931132796780684,-0.0574647887323943,-0.11830985915492853,-0.8875653923541265
41.5451,67205.7041,0.12306531185270572,-0.321678769513976,0.12254554149583695,-0.0011918913480885316,-0.0021147484909456744,-0.007568672032193158,-0.4174647887323943,0.2416901408450709,-0.8275653923541277
41.5695,67205.7241,0.12890410256875773,-0.2949027409969045,0.11847319684671805,0.00919810865191147,-0.015554748490945675,-0.03261867203219316,-0.4174647887323943,0.3616901408450701,-0.527565392354127
41.5958,67205.7441,0.12611177044452093,-0.26100500936505966,0.09675006343986305,-0.00852189134808853,0.00032525150905432596,-0.005738672032193159,-0.2974647887323943,0.7816901408450718,-0.2875653923541286
41.6086,67205.7651,0.11787682659932262,-0.22358656668111399,0.05840109217718285,0.02079810865191147,0.008885251509054327,0.01320132796780684,0.12253521126760569,1.2616901408450705,0.01243460764587212
41.6279,67205.7861,0.10879990673570553,-0.1889024406366229,0.00824113225365486,0.06294810865191147,-0.001504748490945674,0.014421327967806841,0.1825352112676057,1.0816901408450708,-0.10756539235412887
41.6541,67205.8061,0.10335399845279764,-0.1619068121483153,-0.04512063782335064,0.07150810865191147,0.0009352515090543258,-0.005128672032193159,0.1825352112676057,1.5016901408450707,-0.4675653923541283
41.6828,67205.826,0.10070536701583313,-0.14630983686731558,-0.09102611649668743,0.02079810865191147,0.030875251509054326,0.0022013279678068415,0.24253521126760574,0.8416901408450705,-0.7075653923541267
41.6973,67205.8461,0.09912437992018062,-0.1498651943019424,-0.11972731963597044,-0.004851891348088532,0.00032525150905432596,0.01503132796780684,-0.3574647887323943,0.4216901408450706,-1.247565392354126
41.7166,67205.867,0.09683082278661923,-0.1801612120829774,-0.12536882571675556,0.009808108651911469,-0.04731474849094568,0.020531327967806844,-0.0574647887323943,0.4216901408450706,-0.767565392354129
41.7261,67205.8871,0.10204427091991143,-0.22772429834412938,-0.10776922817886024,0.04584810865191147,-0.050984748490945676,0.016861327967806844,0.002535211267605697,0.2416901408450709,-0.767565392354129
41.7493,67205.9071,0.11198470966037152,-0.2761044949117812,-0.07259861293230165,0.0018681086519114682,-0.016774748490945672,0.0015913279678068412,0.12253521126760569,0.7216901408450713,-0.527565392354127
41.7775,67205.9271,0.13086729192735191,-0.3083133884011916,-0.02968079180220174,-0.05617189134808853,0.010715251509054325,0.005261327967806841,0.3025352112676057,0.8416901408450705,-0.0475653923541266
41.787,67205.9471,0.15509836942388372,-0.3212197776872874,0.009560577625508562,-0.023181891348088533,0.010105251509054326,0.0009813279678068413,0.0625352112676057,1.0816901408450708,-0.22756539235412632
41.8068,67205.9671,0.17650023382685312,-0.3092693700941819,0.03588859442341685,0.06355810865191147,-0.06259474849094566,0.024801327967806843,0.002535211267605697,1.1416901408450713,0.13243460764587311
41.8302,67205.9871,0.19402608842289754,-0.2752749458336979,0.04441542597048426,0.09349810865191148,-0.07175474849094567,0.03763132796780684,0.1825352112676057,0.7816901408450718,0.19243460764587184
41.8488,67206.0071,0.2119334796068023,-0.2224188489552092,0.035360767523000255,0.028738108651911468,0.018045251509054325,0.04313132796780684,0.12253521126760569,0.7216901408450713,0.49243460764587255
41.8686,67206.0271,0.2215747935919986,-0.17090132006905148,0.01295289114277566,-0.024401891348088532,0.06569525150905432,0.011981327967806842,0.002535211267605697,0.4216901408450706,0.19243460764587184
41.8918,67206.0471,0.21387921659509462,-0.13936547087020068,-0.015924752834547043,-0.009741891348088533,0.04370525150905433,-0.05399867203219316,0.002535211267605697,0.061690140845071184,0.31243460764587283
41.9082,67206.0671,0.1792581752859143,-0.1366188746248811,-0.044096582236209436,0.014688108651911468,-0.04976474849094568,-0.05338867203219316,-0.1774647887323943,0.4216901408450706,0.01243460764587212
41.9321,67206.087,0.12656267181406183,-0.15372134972938928,-0.06653609739535343,0.010418108651911468,-0.07969474849094567,-0.014288672032193158,-0.0574647887323943,0.5416901408450716,-0.2875653923541286
41.9462,67206.1071,0.07426921954034693,-0.18174256180164328,-0.08109517334647454,-0.04273189134808853,-0.018604748490945677,0.022361327967806842,0.002535211267605697,0.4816901408450711,-0.10756539235412887
41.9709,67206.1271,0.03663986880765693,-0.20770117601700558,-0.08728439569064345,-0.04395189134808853,0.044315251509054326,0.007701327967806841,-0.0574647887323943,0.3616901408450701,-0.10756539235412887
41.9861,67206.1471,0.01886215133810913,-0.22632933818984038,-0.08468446481197683,0.048898108651911465,0.03453525150905432,-0.03138867203219316,0.12253521126760569,0.3616901408450701,0.13243460764587311
42.0069,67206.1671,0.01978035052776543,-0.2341586836973596,-0.07228878251740074,0.08860810865191147,-0.024104748490945675,0.0040413279678068416,-0.0574647887323943,0.3616901408450701,-0.22756539235412632
42.032,67206.1871,0.03377756731088982,-0.2247385792685118,-0.04997324600344504,0.01285810865191147,-0.047924748490945676,0.04313132796780684,0.002535211267605697,-0.23830985915492953,-0.1675653923541276
42.0532,67206.2071,0.062420482312742526,-0.2035549344734631,-0.020994396514476543,-0.08671189134808853,-0.03449474849094568,0.05107132796780684,-0.3574647887323943,-0.05830985915492981,-0.1675653923541276
42.0691,67206.2281,0.09869920053815112,-0.1880498990690171,0.007616505359686762,-0.061051891348088534,0.016825251509054326,0.0022013279678068415,-0.5974647887323943,-0.35830985915492874,-0.10756539235412887
42.0871,67206.248,0.12853852112753103,-0.18484114251134448,0.028233563371379666,0.022028108651911467,0.020485251509054322,-0.011848672032193159,-0.7774647887323942,-0.29830985915492825,0.2524346076458741
42.1057,67206.268,0.14173373856342292,-0.1940802864178469,0.036254096519511655,0.05622810865191147,0.006435251509054326,-0.015508672032193157,-0.9574647887323944,0.4216901408450706,0.31243460764587283
42.1257,67206.2881,0.13659130833695854,-0.2067580636604102,0.03195872999771486,0.01957810865191147,-0.039984748490945674,0.005261327967806841,-0.7174647887323943,0.901690140845071,0.13243460764587311
42.1473,67206.3081,0.12026475783121574,-0.2147487046397563,0.019515499846288753,-0.045171891348088536,0.010715251509054325,-0.007568672032193158,-0.8974647887323943,1.0216901408450703,-0.0475653923541266
42.1775,67206.3281,0.10365136107728604,-0.2148341061954951,0.00448587107034696,-0.04395189134808853,0.05408525150905433,-0.03627867203219316,-0.7774647887323942,0.7216901408450713,-0.2875653923541286
42.1982,67206.3481,0.08567493331167614,-0.2209455270065712,-0.00870900508310004,-0.020121891348088533,0.03881525150905432,-0.020398672032193157,-0.7774647887323942,0.6616901408450708,-0.5875653923541293
42.2117,67206.3681,0.07274725532865173,-0.22659087331175648,-0.01726894786001614,0.02385810865191147,-0.010054748490945674,0.006481327967806841,-0.7174647887323943,0.4216901408450706,-0.5875653923541293
42.2316,67206.3881,0.07029607875189273,-0.22845190910101879,-0.020357511250116943,0.06050810865191147,-0.025934748490945674,0.018091327967806842,-0.6574647887323943,0.3616901408450701,-0.40756539235412603
42.2525,67206.4081,0.08167970557517013,-0.2203975784101821,-0.018595611270051243,0.04584810865191147,0.017435251509054325,0.005261327967806841,-0.4774647887323943,0.4216901408450706,-0.1675653923541276
42.2764,67206.4281,0.10422036489987073,-0.20445817780644818,-0.01400237594617184,-0.0018018913480885319,0.03759525150905432,0.007701327967806841,0.12253521126760569,0.3016901408450714,0.01243460764587212
42.2881,67206.4481,0.12705006097231172,-0.19206286156998148,-0.009720470125000241,-0.031121891348088536,0.011325251509054326,0.01503132796780684,0.12253521126760569,0.0016901408450706867,0.01243460764587212
42.3099,67206.4681,0.14022795941954733,-0.18987176765780509,-0.009161515180235343,0.018968108651911467,0.016825251509054326,0.0009813279678068413,0.12253521126760569,0.061690140845071184,-0.1675653923541276
42.3346,67206.4881,0.13880452263442303,-0.19959635784422838,-0.01507348642696394,0.03240810865191147,-0.038764748490945675,0.005261327967806841,-0.1774647887323943,0.4816901408450711,-0.22756539235412632
42.3507,67206.5091,0.13014181049973222,-0.2097270593594268,-0.02824662355577374,0.0036981086519114682,-0.025324748490945674,-0.00023867203219315862,-0.5374647887323942,0.3616901408450701,-0.0475653923541266
42.3688,67206.5291,0.12028189623479443,-0.2115626531942583,-0.04676637279358454,-0.010961891348088532,0.016215251509054326,-0.011848672032193159,-0.3574647887323943,0.7216901408450713,-0.0475653923541266
42.3881,67206.5491,0.11422391738310533,-0.20067711099399668,-0.06604582205147494,-0.023791891348088533,0.07974525150905433,-0.03200867203219316,-0.3574647887323943,0.7816901408450718,0.01243460764587212
42.4106,67206.5691,0.11159290392218353,-0.1807490646992082,-0.08000335074205024,-0.03906189134808853,0.08707525150905433,-0.016728672032193158,0.002535211267605697,0.4816901408450711,0.13243460764587311
42.4354,67206.5891,0.10957502457601433,-0.1600282619311137,-0.08294313866660394,0.007978108651911469,-0.019214748490945677,0.01503132796780684,-0.1174647887323943,0.6616901408450708,0.13243460764587311
42.4485,67206.6091,0.11945698701201753,-0.1363498225543515,-0.07157989647105203,0.05622810865191147,-0.09007474849094567,0.03458132796780684,-0.2974647887323943,0.6616901408450708,0.13243460764587311
42.4683,67206.6291,0.13826824905417154,-0.11313592517699028,-0.04687656895371034,0.025078108651911468,-0.041824748490945675,0.018701327967806842,-0.1174647887323943,0.6616901408450708,0.01243460764587212
42.4897,67206.6491,0.16330992044221243,-0.0905924193862121,-0.01402496501835264,-0.04395189134808853,0.08462525150905433,-0.013678672032193159,-0.1774647887323943,0.4816901408450711,-0.2875653923541286
42.5089,67206.6691,0.17796689687799494,-0.08077590827058528,0.019152948496712063,-0.07083189134808852,0.09684525150905433,-0.005128672032193159,0.002535211267605697,0.4816901408450711,-0.7075653923541267
42.5319,67206.6891,0.16946033188524762,-0.09192766330055759,0.044920013283696866,-0.04395189134808853,-0.03326474849094568,0.01137132796780684,0.002535211267605697,0.4816901408450711,-0.4675653923541283
42.5516,67206.7091,0.13681332778662234,-0.1256852217831741,0.05810646374917966,0.04278810865191147,-0.09007474849094567,-0.02589867203219316,0.002535211267605697,0.4816901408450711,-0.2875653923541286
42.5704,67206.7301,0.09012328934926303,-0.1687076151698561,0.057964424317359764,0.025078108651911468,-0.04059474849094567,-0.04666867203219316,0.1825352112676057,0.7216901408450713,-0.1675653923541276
42.5933,67206.7511,0.04153859452418783,-0.20662018893990608,0.04825241484980196,-0.047611891348088534,0.06446525150905433,-0.028338672032193157,0.0625352112676057,0.6016901408450703,0.31243460764587283
42.6203,67206.7721,-0.0025511421340613794,-0.2317492341016677,0.034931589892534864,-0.08060189134808853,0.059585251509054325,-0.025288672032193156,0.0625352112676057,0.7216901408450713,0.2524346076458741
42.6392,67206.7921,-0.04101525129679298,-0.2523100899921393,0.022887973111849355,-0.04089189134808853,-0.039984748490945674,-0.021008672032193157,0.1825352112676057,0.5416901408450716,0.2524346076458741
42.6538,67206.8121,-0.06066628123305118,-0.2620183098978611,0.014911323453181857,0.02079810865191147,-0.07602474849094566,-0.004518672032193159,0.3025352112676057,0.2416901408450709,0.2524346076458741
42.6729,67206.8321,-0.05656164998129337,-0.2552729444337158,0.011081831043581153,0.025688108651911467,-0.03510474849094568,0.03947132796780684,0.36253521126760574,0.12169014084507168,0.37243460764587155
42.6984,67206.8521,-0.03050897898479718,-0.2308913619504868,0.009505795839695061,-0.005461891348088531,0.08707525150905433,0.05352132796780684,0.1825352112676057,0.061690140845071184,0.01243460764587212
42.7168,67206.8721,0.011122409120556828,-0.192522553527204,0.007459973284582366,-0.0018018913480885319,0.058365251509054326,0.03336132796780684,0.1825352112676057,0.12169014084507168,-0.2875653923541286
42.7375,67206.8921,0.05449391378531823,-0.14991067246123319,0.0023965655034634617,0.000638108651911468,-0.07175474849094567,0.03152132796780684,-0.2374647887323943,0.12169014084507168,-0.647565392354128
42.7658,67206.9121,0.09172197197132523,-0.11024948063727429,-0.006887886873304744,2.8108651911468163e-05,-0.05464474849094567,0.026641327967806844,-0.1774647887323943,0.12169014084507168,-0.9475653923541287
42.7749,67206.9321,0.12448429654953602,-0.08048572985354138,-0.01977765864712594,-0.0005818913480885321,0.031485251509054325,0.01137132796780684,-0.1774647887323943,0.061690140845071184,-0.647565392354128
42.7929,67206.9521,0.14241693292813473,-0.061130124948681086,-0.033767116309382936,-0.006071891348088532,0.07180525150905433,0.014421327967806841,-0.2974647887323943,0.061690140845071184,-0.7075653923541267
42.8128,67206.9721,0.14260498754124332,-0.05650255390183779,-0.04515812385902714,-0.016461891348088533,-0.012494748490945675,0.026641327967806844,-0.2374647887323943,0.3616901408450701,-0.7075653923541267
42.8333,67206.9921,0.12785154546546543,-0.06762507385486369,-0.05047811448078074,0.0036981086519114682,-0.06869474849094567,0.008921327967806841,-0.2374647887323943,0.4216901408450706,-0.647565392354128
42.8543,67207.0121,0.10717664443468743,-0.09026837052261329,-0.047736975323122544,-0.004241891348088532,-0.002724748490945674,-0.009398672032193158,0.3025352112676057,0.4816901408450711,-0.647565392354128
42.8868,67207.0331,0.09244497725386783,-0.1110424447707592,-0.03691105264508664,-0.061661891348088534,0.03453525150905432,-0.027118672032193158,0.36253521126760574,0.4216901408450706,-0.0475653923541266
42.8949,67207.0531,0.07076693954078322,-0.15167066599760579,-0.02026672721431514,-0.08732189134808853,0.05103525150905432,-0.04238867203219316,0.6025352112676057,0.12169014084507168,0.31243460764587283
42.9181,67207.0731,0.05515208931303833,-0.1829331166084336,-0.0011526721523423406,-0.061051891348088534,-0.019214748490945677,-0.012458672032193158,0.7225352112676058,0.061690140845071184,0.31243460764587283
42.944,67207.0931,0.03837803405556123,-0.21372609216929608,0.016288086125155962,0.0018681086519114682,-0.03082474849094568,0.012591327967806841,0.7825352112676058,0.0016901408450706867,0.4324346076458738
42.9609,67207.1131,0.031500315311468824,-0.23200789410344408,0.029100485023425257,0.04645810865191147,-0.023494748490945676,0.04680132796780684,0.9625352112676058,0.12169014084507168,0.37243460764587155
42.9784,67207.1331,0.036215358835488626,-0.2297090124402379,0.03598473750942126,0.03240810865191147,0.017435251509054325,0.030911327967806844,0.8425352112676057,0.3616901408450701,0.31243460764587283
42.9938,67207.1531,0.05248596632692713,-0.2080789686187384,0.03726064789840296,-0.05189189134808853,0.03759525150905432,-0.005128672032193159,0.6625352112676057,0.4816901408450711,0.07243460764587084
43.0126,67207.1741,0.07650324600999163,-0.17549849322080718,0.03437999468811956,-0.06411189134808852,0.022935251509054323,-0.019788672032193158,0.6025352112676057,0.4216901408450706,-0.22756539235412632
43.0421,67207.1941,0.10162944380930583,-0.1454224845701947,0.029304303886842353,0.01652810865191147,0.027815251509054326,-0.0032986720321931586,0.0625352112676057,0.5416901408450716,-0.2875653923541286
43.0535,67207.2141,0.12803957289821072,-0.11625983110654539,0.023887452831635264,0.08982810865191147,-0.051594748490945676,0.03030132796780684,0.002535211267605697,0.4816901408450711,0.01243460764587212
43.0725,67207.2341,0.15000786564628493,-0.09256390425822239,0.018762625317238366,0.04523810865191147,-0.003944748490945674,0.03947132796780684,0.24253521126760574,0.6016901408450703,0.19243460764587184
43.0923,67207.2541,0.16615399083653642,-0.0718302358631128,0.013199390238483266,-0.031121891348088536,0.022935251509054323,0.014421327967806841,-0.4174647887323943,0.5416901408450716,0.2524346076458741
43.1135,67207.2741,0.16804853156645982,-0.06172844315923759,0.0057680882118195595,-0.02745189134808853,0.04064525150905433,-0.029558672032193156,0.12253521126760569,0.4816901408450711,-0.3475653923541273
43.134,67207.2941,0.14579619998335813,-0.07139150640480128,-0.0041620457679186415,0.007358108651911468,0.015605251509054325,-0.03810867203219316,0.4225352112676057,0.4816901408450711,-0.647565392354128
43.1621,67207.3151,0.10148436668101013,-0.10099354980166649,-0.015417370378946638,0.01957810865191147,-0.013724748490945673,-0.05643867203219316,0.4225352112676057,0.3616901408450701,-0.767565392354129
43.1777,67207.3351,0.039465023610081224,-0.13869797743600248,-0.024984369726606843,0.008588108651911468,-0.008224748490945673,-0.04360867203219316,1.0225352112676058,0.1816901408450704,-0.8275653923541277
43.2034,67207.3561,-0.014138986440021567,-0.17284999093869058,-0.028972923317889542,-0.018901891348088534,-0.012494748490945675,-0.03016867203219316,0.7225352112676058,0.1816901408450704,-0.8275653923541277
43.22,67207.3761,-0.04953055774604126,-0.19736675048316119,-0.02464712551351434,-0.02929189134808853,0.027205251509054326,-0.028948672032193156,0.4225352112676057,-0.17830985915492903,-0.8875653923541265
43.2355,67207.3961,-0.057021817461443164,-0.2083710219401141,-0.011873534716313743,-0.026231891348088534,0.042475251509054325,-0.011848672032193159,0.0625352112676057,-0.23830985915492953,-0.8875653923541265
43.2553,67207.4161,-0.03895916594234697,-0.2053431537313113,0.006271569905120053,-0.011571891348088531,-0.008834748490945675,0.02297132796780684,-0.2974647887323943,-0.11830985915492853,-1.247565392354126
43.2781,67207.4361,-0.0038123457892885737,-0.19286088688449318,0.024335766342667958,0.028738108651911468,-0.04120474849094567,0.05046132796780684,-0.1174647887323943,-0.47830985915492974,-0.8875653923541265
43.2954,67207.4561,0.044015259717491234,-0.1698431636682387,0.03642092478751706,0.048898108651911465,-0.047924748490945676,0.02969132796780684,-0.2974647887323943,0.061690140845071184,-0.8275653923541277
43.3149,67207.4761,0.08890647177792903,-0.139765431733065,0.037831460218636856,0.03484810865191147,-0.00028474849094567434,-0.009398672032193158,0.0625352112676057,0.061690140845071184,-0.8275653923541277
43.3348,67207.4961,0.11772841632172343,-0.10464375457988619,0.027046190036384962,0.004918108651911468,0.045535251509054325,-0.006348672032193159,0.002535211267605697,-0.23830985915492953,0.01243460764587212
43.3608,67207.5161,0.12183329857490303,-0.06946963451022128,0.006184158843122553,-0.022571891348088534,0.041865251509054326,0.005261327967806841,-0.0574647887323943,-0.05830985915492981,-0.0475653923541266
43.3834,67207.5361,0.10001232788930883,-0.046968616764854684,-0.01967411132875284,-0.049451891348088535,-0.010054748490945674,-0.006958672032193159,0.1825352112676057,-0.05830985915492981,-0.10756539235412887
43.3971,67207.5571,0.06249998479807193,-0.04275150870844849,-0.04382848250122634,-0.01829189134808853,-0.016774748490945672,-0.01917867203219316,0.002535211267605697,0.12169014084507168,0.19243460764587184
43.42,67207.5771,0.024265528905329126,-0.05305421086537839,-0.05954503179509294,0.048288108651911466,-0.003944748490945674,-0.029558672032193156,0.1825352112676057,0.4216901408450706,-0.3475653923541273
43.4544,67207.5981,-0.005836709066520479,-0.07169629166470369,-0.06173019770541204,0.03057810865191147,0.03575525150905433,-0.015508672032193157,0.3025352112676057,0.6016901408450703,-0.2875653923541286
43.4613,67207.6181,-0.024189466753165273,-0.0942945436295421,-0.04847562244514084,-0.045171891348088536,0.005825251509054326,0.028471327967806843,0.3025352112676057,0.3016901408450714,-0.527565392354127
43.4778,67207.6381,-0.028218762249282964,-0.11949552627572708,-0.021738992649059243,-0.03417189134808853,-0.022274748490945677,0.025421327967806842,0.3025352112676057,0.5416901408450716,-0.647565392354128
43.4979,67207.6581,-0.01709636722971017,-0.1481119961544851,0.013277458454891963,0.012248108651911466,-0.04059474849094567,0.012591327967806841,-0.0574647887323943,0.8416901408450705,-0.767565392354129
43.5176,67207.6781,0.008305278748940131,-0.17710362269272328,0.04993135654145646,0.01957810865191147,-0.029604748490945673,-0.0026786720321931587,-0.1774647887323943,0.901690140845071,-0.767565392354129
43.5397,67207.6981,0.04094625153603833,-0.1987745274454088,0.08208420241863805,-0.013411891348088532,0.03820525150905432,0.019921327967806844,-0.5974647887323943,0.901690140845071,-0.40756539235412603
43.558,67207.7181,0.07291094917604263,-0.2060031368118638,0.10533821632719735,-0.002411891348088532,0.028425251509054325,0.026641327967806844,-0.4774647887323943,0.6016901408450703,-0.2875653923541286
43.5782,67207.7381,0.09827597302524613,-0.1964757475076047,0.11718032747158326,0.01713810865191147,-0.03449474849094568,0.01137132796780684,0.0625352112676057,0.2416901408450709,0.01243460764587212
43.5998,67207.7591,0.11638021579645563,-0.1731001699771104,0.11673691659802517,-0.007301891348088532,-0.03326474849094568,0.012591327967806841,0.0625352112676057,0.061690140845071184,0.13243460764587311
43.6188,67207.7791,0.12831287629100882,-0.143005624061269,0.10470814956518885,0.000638108651911468,0.010105251509054326,0.01014132796780684,0.6025352112676057,0.1816901408450704,0.13243460764587311
43.6394,67207.7991,0.13116500878610823,-0.11406234954571198,0.08342925366352076,0.04278810865191147,0.032095251509054325,-0.00023867203219315862,0.5425352112676056,0.4216901408450706,0.13243460764587311
43.6585,67207.8191,0.12072710616179923,-0.08943197038990888,0.056395547457958065,0.08005810865191147,0.009495251509054326,-0.006348672032193159,0.3025352112676057,0.4216901408450706,0.13243460764587311
43.6817,67207.8391,0.09535498874898253,-0.07230634103951869,0.027040705209781357,0.048288108651911466,-0.03510474849094568,0.0022013279678068415,0.4225352112676057,0.4816901408450711,0.13243460764587311
43.7036,67207.8601,0.05994073883195712,-0.05980878768608579,-0.002277568451321238,-0.007301891348088532,-0.012494748490945675,0.01320132796780684,0.3025352112676057,0.1816901408450704,0.13243460764587311
43.7217,67207.8801,0.021676281199545427,-0.05492734656163379,-0.03022622165481814,-0.017071891348088532,0.02476525150905433,-0.006958672032193159,0.24253521126760574,0.12169014084507168,-0.1675653923541276
43.7393,67207.9001,-0.013275641317639059,-0.05850548244517989,-0.05534982583956904,-0.002411891348088532,0.023545251509054323,-0.027118672032193158,0.24253521126760574,0.12169014084507168,-0.3475653923541273
43.7662,67207.9201,-0.037436218998029264,-0.07007964473501359,-0.07491505989146514,0.028128108651911468,0.0015552515090543257,-0.030778672032193158,0.36253521126760574,0.3016901408450714,-0.7075653923541267
43.7827,67207.9411,-0.05028363150397416,-0.07977226072447029,-0.08512192192982773,0.052568108651911465,-0.00028474849094567434,0.0028113279678068414,0.24253521126760574,0.3016901408450714,-0.647565392354128
43.8038,67207.962,-0.04633397665479716,-0.08638757879438679,-0.08259122798291164,0.03545810865191147,-0.014334748490945673,0.028471327967806843,0.24253521126760574,-0.17830985915492903,-0.2875653923541286
43.8225,67207.9821,-0.02206577059548026,-0.08409942543472398,-0.06678714456223764,0.03240810865191147,-0.023494748490945676,0.02969132796780684,0.4225352112676057,0.0016901408450706867,-0.2875653923541286
43.8422,67208.0021,0.018732508540035234,-0.07530567019782469,-0.04156951646259294,-0.020741891348088532,-0.0063947484909456734,0.023581327967806844,0.3025352112676057,-0.17830985915492903,-0.2875653923541286
43.8638,67208.0221,0.06848431476630623,-0.06436505860495019,-0.014301927230338643,-0.03723189134808853,0.014375251509054325,0.00953132796780684,0.3025352112676057,-0.23830985915492953,-0.5875653923541293
43.8838,67208.0431,0.11560665241329303,-0.05703263035283539,0.007114030681863559,-0.004851891348088532,0.02415525150905433,0.0028113279678068414,0.5425352112676056,-0.23830985915492953,-0.767565392354129
43.9035,67208.063,0.14766445966088074,-0.05427237190684259,0.017809999816295066,0.029968108651911466,0.060805251509054324,-0.006348672032193159,0.48253521126760573,-0.35830985915492874,-0.2875653923541286
43.9276,67208.0831,0.15720510237785623,-0.054913805965397786,0.018027983699226757,0.008588108651911468,0.03575525150905433,-0.01489867203219316,0.6625352112676057,-0.29830985915492825,-0.0475653923541266
43.9451,67208.1031,0.14340673756097733,-0.054166006312266986,0.012787360469807857,0.007978108651911469,-0.009444748490945674,-0.008788672032193159,1.0225352112676058,-0.23830985915492953,-0.0475653923541266
43.9631,67208.1231,0.11495569202823613,-0.05144085926288169,0.00981524504193286,-0.010351891348088532,-0.06075474849094568,-0.00023867203219315862,1.0225352112676058,0.2416901408450709,0.2524346076458741
43.983,67208.1431,0.08196700986869873,-0.04742259735095889,0.017031999015083066,-0.02562189134808853,0.021705251509054328,-0.02650867203219316,1.0825352112676057,0.12169014084507168,0.01243460764587212
44.0018,67208.1629,0.04925215149676283,-0.04904089877231079,0.040186235758847166,-0.023181891348088533,0.04797525150905432,-0.03261867203219316,0.6025352112676057,0.1816901408450704,-0.0475653923541266
44.0386,67208.1831,0.017646371736940725,-0.06632212465678508,0.08079897654125977,-0.0018018913480885319,0.002775251509054326,-0.0014586720321931586,0.1825352112676057,-0.05830985915492981,0.13243460764587311
44.0502,67208.2031,-0.008177432879924174,-0.10276737439379668,0.13478062981367045,0.04584810865191147,-0.05892474849094568,0.032131327967806836,-0.1174647887323943,0.12169014084507168,-0.1675653923541276
44.0653,67208.2241,-0.029149429475424482,-0.1641544850855708,0.19208510151865504,0.06844810865191148,-0.04365474849094567,0.04252132796780684,-0.2974647887323943,0.4816901408450711,0.01243460764587212
44.0818,67208.2441,-0.04342638917585928,-0.2420323836722931,0.23843091387849896,0.050738108651911466,0.013765251509054326,0.02603132796780684,-0.0574647887323943,0.4816901408450711,0.19243460764587184
44.102,67208.2641,-0.05217338682510536,-0.32036759596635844,0.2586084718234695,2.8108651911468163e-05,0.033315251509054324,-0.021618672032193156,0.002535211267605697,0.9616901408450715,-0.10756539235412887
44.1252,67208.284,-0.058080060008378065,-0.38083780093125386,0.24066865056289344,-0.021961891348088534,0.02415525150905433,-0.05521867203219316,-0.0574647887323943,0.3016901408450714,-0.10756539235412887
44.1457,67208.3041,-0.06816064170739858,-0.40705042368713307,0.17999048485629715,0.028738108651911468,-0.00028474849094567434,-0.06743867203219316,0.4225352112676057,0.0016901408450706867,-0.1675653923541276
44.168,67208.3261,-0.07859355326619458,-0.38458045858490586,0.08271505447669696,0.12403810865191148,0.06874525150905433,-0.04360867203219316,0.12253521126760569,0.061690140845071184,-0.40756539235412603
44.19,67208.346,-0.08649504783472567,-0.3028679287567291,-0.03436035195246164,0.17656810865191147,0.12616525150905433,0.0009813279678068413,0.12253521126760569,-0.11830985915492853,0.01243460764587212
44.2212,67208.3661,-0.08292980656495516,-0.1816185016238105,-0.14839547949820203,0.11059810865191147,0.07668525150905434,0.014421327967806841,0.36253521126760574,-0.05830985915492981,-0.0475653923541266
44.2348,67208.3871,-0.07085807815789016,-0.01995370886726009,-0.23655248493427034,0.06111810865191147,0.07668525150905434,0.0028113279678068414,-0.1174647887323943,-0.23830985915492953,-0.1675653923541276
44.246,67208.4071,-0.04125706766899556,0.1253167134176355,-0.28226641854921314,0.07027810865191148,0.08890525150905433,-0.016728672032193158,0.12253521126760569,-0.7783098591549287,-0.10756539235412887
44.2667,67208.4271,0.012975418649505827,0.2202675648240787,-0.2774238591373505,0.07272810865191147,0.08279525150905433,-0.0032986720321931586,0.12253521126760569,-0.9583098591549284,-0.3475653923541273
44.2855,67208.4471,0.08332642244187552,0.2582360321474121,-0.22524444099333985,0.02079810865191147,0.08951525150905433,0.014421327967806841,0.36253521126760574,-0.9583098591549284,-0.1675653923541276
44.3059,67208.467,0.16328037541916082,0.24114162379377072,-0.13898634496259824,-0.013411891348088532,0.058975251509054326,0.03763132796780684,0.48253521126760573,-0.7783098591549287,-0.2875653923541286
44.3261,67208.4871,0.2440662994974963,0.18271203944080722,-0.03921927514621814,-0.005461891348088531,0.006435251509054326,0.060231327967806836,0.5425352112676056,-0.5383098591549285,-0.22756539235412632
44.3465,67208.5071,0.31782205291538934,0.10467928858558401,0.051092338620502664,0.03545810865191147,-0.07969474849094567,0.05229132796780684,0.6025352112676057,-0.5383098591549285,0.01243460764587212
44.3733,67208.5281,0.37522656709583,0.03067609659218032,0.11291905226811295,0.04523810865191147,-0.038764748490945675,-0.005738672032193159,0.5425352112676056,-0.41830985915492924,-0.22756539235412632
44.391,67208.5491,0.40717814981129524,-0.01916769739727199,0.13654708755246475,-0.002411891348088532,0.03698525150905432,-0.027118672032193158,0.7225352112676058,-0.5383098591549285,-0.40756539235412603
44.4107,67208.5691,0.4022743891140022,-0.042728748442900186,0.12356406982406985,-0.014631891348088531,0.031485251509054325,-0.03444867203219316,0.7225352112676058,-0.5383098591549285,-0.22756539235412632
44.4318,67208.5901,0.3569382877726017,-0.04725153350615199,0.08415010301855096,0.03545810865191147,-0.039374748490945674,-0.03138867203219316,0.8425352112676057,-0.17830985915492903,-0.22756539235412632
44.4587,67208.6121,0.2792009460845151,-0.043725086077064684,0.03225798759641636,0.05989810865191147,-0.11695474849094567,-0.04605867203219316,0.8425352112676057,-0.23830985915492953,0.07243460764587084
44.4842,67208.6321,0.18783880771442002,-0.03511383043717228,-0.01883599347276494,0.03179810865191147,-0.11817474849094567,-0.06010867203219316,0.6025352112676057,-0.23830985915492953,0.37243460764587155
44.4982,67208.6521,0.09922475490405963,-0.024566305652199687,-0.05908221171559644,-0.005461891348088531,-0.06075474849094568,-0.06010867203219316,0.4225352112676057,-0.11830985915492853,-0.10756539235412887
44.5149,67208.6721,0.022762508125619835,-0.01968687281497159,-0.08275682514515574,-0.007301891348088532,-0.04120474849094567,-0.06498867203219316,0.36253521126760574,-0.41830985915492924,-0.22756539235412632
44.5329,67208.6921,-0.038364262917845976,-0.021915857727998887,-0.08844114424394624,0.01957810865191147,-0.06136474849094568,-0.06498867203219316,0.3025352112676057,-0.41830985915492924,-0.4675653923541283
44.553,67208.7131,-0.08488030485228368,-0.03039289061820779,-0.07834707401956655,0.0018681086519114682,-0.08030474849094567,-0.04727867203219316,0.5425352112676056,-0.11830985915492853,-0.2875653923541286
44.5734,67208.7331,-0.11816932442851247,-0.04215607220018799,-0.05732817851294504,-0.0011918913480885316,-0.08763474849094567,-0.038728672032193164,0.48253521126760573,-0.23830985915492953,0.2524346076458741
44.5951,67208.7531,-0.13870553328558688,-0.05278855450736699,-0.03157317255773174,0.01591810865191147,-0.08824474849094567,-0.020398672032193157,0.4225352112676057,-0.35830985915492874,0.49243460764587255
44.6139,67208.7731,-0.14690100382413906,-0.05715776390162739,-0.007037639058847342,0.028738108651911468,-0.07297474849094567,-0.02283867203219316,0.4225352112676057,-0.47830985915492974,0.49243460764587255
44.6451,67208.7931,-0.14589338949086145,-0.05202346650427629,0.011975974464424957,-0.003631891348088531,-0.03632474849094568,-0.04666867203219316,0.24253521126760574,-0.7783098591549287,0.6124346076458735
44.6533,67208.8131,-0.14593468018413835,-0.04428409653617869,0.023510707915260262,-0.031731891348088535,-0.03326474849094568,-0.04727867203219316,0.002535211267605697,-0.7783098591549287,0.31243460764587283
44.6892,67208.8331,-0.1448044821217382,-0.03203309334023679,0.028269108448854857,-0.016461891348088533,-0.03510474849094568,-0.024678672032193157,-0.1774647887323943,-0.7783098591549287,0.31243460764587283
44.6984,67208.8531,-0.14519500962583237,-0.021808441463073487,0.028101705075455063,0.029358108651911467,-0.025934748490945674,0.0022013279678068415,-0.4174647887323943,-0.6583098591549295,0.6124346076458735
44.7119,67208.873,-0.14462953370928677,-0.012880181199787191,0.025009696041290858,0.03179810865191147,-0.028384748490945674,-0.005128672032193159,-0.2374647887323943,-0.6583098591549295,0.6724346076458723
44.7371,67208.8931,-0.14157646439521238,-0.005140078983984692,0.02016365106843286,-0.01829189134808853,-0.05464474849094567,-0.023448672032193158,0.002535211267605697,-0.6583098591549295,0.6724346076458723
44.7538,67208.9131,-0.13546987372101665,-0.0015923028487915894,0.013816387691036658,-0.007911891348088531,-0.008834748490945675,-0.01611867203219316,0.1825352112676057,-0.41830985915492924,0.49243460764587255
44.7713,67208.9331,-0.12946186969528656,-0.004866437009434288,0.005681296271981856,0.03484810865191147,0.00032525150905432596,-0.019788672032193158,0.0625352112676057,-0.47830985915492974,0.31243460764587283
44.7915,67208.9531,-0.12577312110282146,-0.014621995447569092,-0.004409432927087238,0.050118108651911464,-0.0063947484909456734,0.0040413279678068416,-0.4174647887323943,-0.23830985915492953,-0.1675653923541276
44.8123,67208.9731,-0.12401718104116768,-0.024004123183311188,-0.01625060685685604,0.037908108651911465,-0.014334748490945673,0.00037132796780684136,-0.5974647887323943,-0.17830985915492903,-0.1675653923541276
44.8323,67208.9931,-0.12162597621245366,-0.02734756348746309,-0.02930907565882484,-0.003631891348088531,0.010715251509054325,-0.00023867203219315862,-0.9574647887323944,-0.17830985915492903,0.13243460764587311
44.8551,67209.0131,-0.11604647536869786,-0.024602978135250288,-0.04275391452601724,-0.03784189134808853,0.027205251509054326,-0.00817867203219316,-1.0174647887323942,-0.23830985915492953,0.19243460764587184
44.8724,67209.0331,-0.10711866494498756,-0.022360484390012786,-0.05508047212800654,-0.014631891348088531,0.022325251509054324,-0.00023867203219315862,-0.8374647887323943,-0.29830985915492825,0.31243460764587283
44.8921,67209.0531,-0.09310904205555157,-0.021854196845971487,-0.06351430210168393,0.039128108651911464,0.015605251509054325,0.00953132796780684,-0.8374647887323943,-0.7183098591549282,0.01243460764587212
44.9133,67209.0731,-0.07360440674304727,-0.02145376859273499,-0.06428366862408214,0.06539810865191147,0.019875251509054326,0.00831132796780684,-0.4774647887323943,-0.47830985915492974,-0.3475653923541273
44.933,67209.0931,-0.04690394447141527,-0.01517215123268769,-0.05403418760318624,0.03057810865191147,0.010715251509054325,0.03152132796780684,-0.1774647887323943,-0.35830985915492874,-0.1675653923541276
44.9554,67209.1131,-0.012953567948262273,-0.0022166459354489854,-0.03201861413186104,-0.020741891348088532,-0.009444748490945674,0.03702132796780684,-0.1774647887323943,-0.35830985915492874,-0.3475653923541273
44.974,67209.1341,0.029332867931202433,0.012437445284500317,-0.0014040539086439402,-0.02929189134808853,-0.016164748490945673,0.032131327967806836,0.002535211267605697,0.2416901408450709,-0.2875653923541286
45.0008,67209.1541,0.07254375637391493,0.026063877305843405,0.031219785186928653,-0.007301891348088532,0.005215251509054326,0.008921327967806841,0.002535211267605697,0.0016901408450706867,-0.1675653923541276
45.0203,67209.1741,0.11181240182660873,0.033758521079704215,0.05842579479105196,0.015308108651911467,0.011935251509054326,0.021751327967806842,-0.1174647887323943,0.12169014084507168,-0.40756539235412603
45.0441,67209.194,0.13650784622221943,0.03703669336115212,0.07450240975072626,0.04706810865191147,-0.022274748490945677,0.03152132796780684,-0.2974647887323943,0.1816901408450704,0.31243460764587283
45.0541,67209.2141,0.14765534861604834,0.04326908062346012,0.07689917830364097,0.03545810865191147,-0.042434748490945674,0.011981327967806842,-0.4774647887323943,0.061690140845071184,0.4324346076458738
45.0747,67209.2341,0.13601098840004403,0.045354951558336506,0.06624205995231205,-0.010351891348088532,-0.03082474849094568,0.0040413279678068416,-0.4174647887323943,-0.23830985915492953,0.49243460764587255
45.0927,67209.2541,0.10513698771559563,0.040418853508995115,0.045046782294212454,-0.02745189134808853,0.010715251509054325,-0.013678672032193159,-0.2974647887323943,-0.41830985915492924,0.37243460764587155
45.1121,67209.2741,0.057502610758971534,0.02625265830284071,0.01680527322019086,-0.017681891348088532,0.007045251509054325,-0.02650867203219316,-0.5374647887323942,-0.35830985915492874,0.37243460764587155
45.1385,67209.2941,0.001250814905127129,0.005678566814250614,-0.014398904670972941,0.002478108651911468,-0.005774748490945674,-0.028948672032193156,-0.6574647887323943,-0.41830985915492924,0.6124346076458735
45.154,67209.3141,-0.05588568680762648,-0.011035188851633786,-0.043844930852753344,0.026298108651911466,-0.033874748490945676,-0.03566867203219316,-0.8374647887323943,-0.23830985915492953,0.6124346076458735
45.1742,67209.3341,-0.09806481417819288,-0.015417751528684388,-0.06606706655039764,0.013468108651911469,-0.029604748490945673,-0.02283867203219316,-0.7774647887323942,-0.23830985915492953,0.852434607645872
45.1938,67209.3541,-0.11717127809853717,-0.004194446512185791,-0.07590365166795385,-0.023181891348088533,0.019875251509054326,-0.005738672032193159,-0.2974647887323943,-0.41830985915492924,0.5524346076458713
45.2138,67209.3741,-0.11165064856411477,0.017007244868267712,-0.06996529777667794,-0.015241891348088534,0.0076552515090543265,0.01320132796780684,0.0625352112676057,-0.7783098591549287,0.37243460764587155
45.234,67209.3941,-0.08684639830410318,0.03847916238929901,-0.04806140311220044,0.004308108651911468,-0.03082474849094568,0.028471327967806843,0.48253521126760573,-0.7183098591549282,0.37243460764587155
45.266,67209.4141,-0.05647186379617947,0.052309273007800416,-0.014036853420810638,0.014688108651911468,-0.008834748490945675,0.032131327967806836,0.24253521126760574,-0.35830985915492874,0.49243460764587255
45.2758,67209.4351,-0.02075928616905587,0.05165885683258471,0.024966076144687654,-0.009741891348088533,0.010715251509054325,0.030911327967806844,0.36253521126760574,-0.35830985915492874,0.4324346076458738
45.3021,67209.4551,-0.0013136989460942744,0.03968893964814181,0.059481916778487465,-0.036011891348088534,-0.014944748490945675,0.013811327967806842,0.3025352112676057,0.12169014084507168,0.6724346076458723
45.3144,67209.4751,0.002818111812179322,0.010827398982413305,0.08139542431217857,-0.02990189134808853,-0.023494748490945676,-0.003908672032193159,0.002535211267605697,-0.17830985915492903,0.9124346076458707
45.3349,67209.4951,-0.007457688545622565,-0.02066018743717029,0.08605563743118845,-0.017071891348088532,-0.005164748490945673,-0.017958672032193156,0.002535211267605697,-0.35830985915492874,0.732434607645871
45.3545,67209.5151,-0.02249484972082777,-0.04692081579839779,0.07434445960631007,-0.006071891348088532,0.008275251509054326,-0.01611867203219316,-0.4174647887323943,-0.11830985915492853,0.31243460764587283
45.3757,67209.5361,-0.030133372617859783,-0.05743156472619009,0.052277276519244756,-0.005461891348088531,0.009495251509054326,-0.01917867203219316,-0.4774647887323943,-0.41830985915492924,0.2524346076458741
45.3958,67209.556,-0.02185238598803166,-0.04710182251884999,0.028756295860293754,0.005528108651911468,0.025985251509054327,-0.006348672032193159,-0.6574647887323943,-0.598309859154929,0.13243460764587311
45.4157,67209.5761,0.006211587657143233,-0.017273332192017085,0.012237286442631862,0.02385810865191147,0.011935251509054326,0.01320132796780684,-0.5374647887323942,-0.598309859154929,0.19243460764587184
45.4381,67209.5961,0.05038141046876762,0.024775667075062208,0.007580302969571753,0.025688108651911467,-0.02044474849094567,0.03702132796780684,-0.4774647887323943,-0.8983098591549297,0.6124346076458735
45.4589,67209.6171,0.10225833952670323,0.06924673388727132,0.014434249367569554,0.007358108651911468,-0.022274748490945677,0.020531327967806844,-0.2374647887323943,-0.7183098591549282,0.13243460764587311
45.4798,67209.6371,0.14685544047817703,0.1049948052136018,0.027797561045415753,0.014078108651911468,-0.004554748490945674,0.01320132796780684,0.002535211267605697,-0.11830985915492853,-0.1675653923541276
45.4986,67209.6571,0.16967772856024432,0.1244326472473595,0.04047277995135956,0.017748108651911468,-0.028994748490945674,-0.011848672032193159,0.3025352112676057,-0.23830985915492953,-0.40756539235412603
45.5335,67209.6771,0.16199942176605442,0.1229680184687314,0.04612191159113235,0.013468108651911469,-0.022884748490945676,-0.013678672032193159,0.36253521126760574,-0.41830985915492924,-0.2875653923541286
45.549,67209.6971,0.12429376995918383,0.1104581988900303,0.04138846020586916,0.023248108651911466,-0.03143474849094568,-0.028948672032193156,0.1825352112676057,-0.35830985915492874,-0.10756539235412887
45.5584,67209.7171,0.06420874144350833,0.0898386500821815,0.027116080865867864,-0.005461891348088531,-0.002724748490945674,-0.05460867203219316,0.24253521126760574,-0.7783098591549287,0.2524346076458741
45.5776,67209.7371,0.001444378039818131,0.06866900579411202,0.007292136595317564,-0.02929189134808853,-0.00028474849094567434,-0.05948867203219316,-0.0574647887323943,-0.6583098591549295,0.6124346076458735
45.596,67209.7571,-0.056510818089908876,0.04911619661128781,-0.013080372840560843,-0.009131891348088533,-0.016774748490945672,-0.05399867203219316,0.002535211267605697,-0.29830985915492825,0.5524346076458713
45.616,67209.7771,-0.10066924396937846,0.033615398473846314,-0.030276119904385942,0.005528108651911468,-0.03082474849094568,-0.021618672032193156,-0.2374647887323943,-0.35830985915492874,0.6724346076458723
45.6405,67209.7971,-0.12785836603383915,0.024346988679295814,-0.04306231183814574,0.02751810865191147,-0.04487474849094568,-0.0020686720321931584,-0.2974647887323943,-0.17830985915492903,0.49243460764587255
45.6583,67209.8171,-0.13526585152641207,0.025671092557182917,-0.05237691095523034,0.017748108651911468,-0.03632474849094568,0.0028113279678068414,-0.6574647887323943,-0.29830985915492825,0.19243460764587184
45.6756,67209.8371,-0.12866368396921768,0.03633742436281341,-0.06020324887691704,-0.014631891348088531,-0.03571474849094568,0.0015913279678068412,-0.4774647887323943,-0.47830985915492974,0.07243460764587084
45.6956,67209.8571,-0.11592676913590397,0.053310478104059505,-0.06776156454699864,-0.020121891348088533,-0.010664748490945675,-0.008788672032193159,-0.2974647887323943,-0.41830985915492924,0.2524346076458741
45.7158,67209.8771,-0.10521529579958447,0.0707230525919347,-0.07421119504086723,-0.011571891348088531,-0.0008947484909456738,-0.010628672032193158,-0.2974647887323943,-0.41830985915492924,0.31243460764587283
45.7476,67209.8971,-0.10271979275168608,0.08484532150813842,-0.07666166082138325,-0.004241891348088532,-0.0063947484909456734,-0.01489867203219316,-0.2974647887323943,-0.47830985915492974,0.2524346076458741
45.7618,67209.9181,-0.10820388200880407,0.091829690215595,-0.07142153248496914,0.0030881086519114684,-0.016774748490945672,0.011981327967806842,-0.2374647887323943,-0.41830985915492924,0.19243460764587184
45.7848,67209.9381,-0.11981549198972097,0.09273097744520531,-0.05614591759647454,0.0036981086519114682,-0.026544748490945673,0.018701327967806842,-0.1774647887323943,-0.7183098591549282,0.01243460764587212
45.7998,67209.9591,-0.1271157865317138,0.08628226484117832,-0.03095420734271164,-0.026231891348088534,-0.02044474849094567,0.01503132796780684,-0.1174647887323943,-0.598309859154929,0.01243460764587212
45.8215,67209.9801,-0.128285974504671,0.07662095643801631,0.0009206445410502584,-0.032341891348088535,0.016215251509054326,0.008921327967806841,0.0625352112676057,-0.5383098591549285,0.01243460764587212
45.8404,67210.0001,-0.12235647156180457,0.06282742388755712,0.034518263607793365,-0.023181891348088533,0.019875251509054326,-0.00023867203219315862,-0.2974647887323943,-0.47830985915492974,0.19243460764587184
45.8594,67210.0201,-0.11148204462499406,0.04914103726625621,0.06446495863483447,-0.021961891348088534,-0.009444748490945674,0.007701327967806841,-0.2974647887323943,0.0016901408450706867,0.19243460764587184
45.8828,67210.0401,-0.09775412513863738,0.03997222278210791,0.08639739673731815,-0.007301891348088532,0.0009352515090543258,0.03336132796780684,-0.0574647887323943,-0.11830985915492853,0.19243460764587184
45.8995,67210.0601,-0.07801565575538189,0.038603527005696706,0.09782799609534516,0.0018681086519114682,0.019265251509054324,0.03824132796780684,0.002535211267605697,-0.11830985915492853,0.49243460764587255
45.921,67210.0801,-0.05524073738912047,0.047243098931531405,0.09819456928041227,0.01713810865191147,0.03392525150905432,0.03030132796780684,-0.0574647887323943,-0.35830985915492874,0.5524346076458713
45.9395,67210.1001,-0.032028954107416185,0.06247621346691211,0.08902287638339397,-0.014631891348088531,0.019265251509054324,-0.006348672032193159,0.002535211267605697,-0.6583098591549295,0.7924346076458733
45.9597,67210.1201,-0.011788201231357959,0.0782394389514951,0.07344659235139135,-0.024401891348088532,0.03636525150905432,0.01320132796780684,-0.4774647887323943,-0.6583098591549295,0.972434607645873
45.9796,67210.1401,0.006893272103574724,0.08897127915807321,0.055418087159521554,0.020188108651911466,0.003385251509054326,0.03397132796780684,-0.2374647887323943,-0.8383098591549292,1.092434607645874
45.999,67210.1601,0.030043824915182232,0.09536995352605351,0.038551683653769764,0.05561810865191147,0.00032525150905432596,0.02969132796780684,0.4225352112676057,-0.6583098591549295,0.7924346076458733
46.0198,67210.1801,0.061586987276712926,0.10164651286301432,0.025122723938062655,0.022028108651911467,0.022325251509054324,0.0009813279678068413,0.4225352112676057,-0.598309859154929,0.37243460764587155
46.0507,67210.2011,0.09884861919759533,0.11186068180362571,0.015491136894364863,-0.026231891348088534,0.04064525150905433,-0.01000867203219316,0.6025352112676057,-0.8383098591549292,0.19243460764587184
46.0592,67210.2211,0.12865660137641793,0.11770913066055552,0.00830844691823146,-0.02868189134808853,0.008275251509054326,-0.0008486720321931586,0.36253521126760574,-0.23830985915492953,-0.5875653923541293
46.0787,67210.2411,0.14142813258366854,0.1198515351398868,0.0008955645418510585,0.022638108651911466,-0.029604748490945673,0.016861327967806844,-0.1774647887323943,-0.6583098591549295,-0.40756539235412603
46.0989,67210.261,0.13188976316525822,0.11511131239681321,-0.009326572924410144,0.06111810865191147,-0.027154748490945672,0.00953132796780684,-0.3574647887323943,-0.7783098591549287,-0.40756539235412603
46.1189,67210.2811,0.09933724633721683,0.10649313507256841,-0.02355860942830134,0.028128108651911468,0.0076552515090543265,-0.02283867203219316,-0.2974647887323943,-0.5383098591549285,-0.1675653923541276
46.1388,67210.3011,0.04527005514970363,0.0970678357042504,-0.04075698866998704,-0.0005818913480885321,0.03942525150905432,-0.06620867203219316,-0.4174647887323943,-0.6583098591549295,0.13243460764587311
46.1587,67210.321,-0.02425584749510737,0.0880597170224871,-0.05823976468586534,-0.014631891348088531,0.015605251509054325,-0.06010867203219316,-0.4174647887323943,-0.47830985915492974,-0.0475653923541266
46.1808,67210.3411,-0.09489830624802356,0.0806199872574963,-0.07315817479232414,-0.032341891348088535,-0.028994748490945674,-0.03566867203219316,-0.4174647887323943,-0.35830985915492874,0.01243460764587212
46.2004,67210.3611,-0.14957111031595655,0.07380424706612862,-0.08353645056099714,-0.031731891348088535,-0.028994748490945674,-0.014288672032193158,-0.5974647887323943,-0.5383098591549285,-0.22756539235412632
46.2201,67210.381,-0.17259197966763756,0.07084587487142352,-0.08832091193936284,-0.007911891348088531,0.019265251509054324,-0.0008486720321931586,-0.7174647887323943,-0.7183098591549282,-0.0475653923541266
46.245,67210.4011,-0.16021154304863827,0.0741770567741753,-0.08693186985028253,0.021408108651911468,0.027815251509054326,-0.0026786720321931587,-0.7174647887323943,-0.8383098591549292,-0.10756539235412887
46.2642,67210.422,-0.11750564997332097,0.08746114044410641,-0.07901737976454744,0.02079810865191147,-0.007004748490945675,0.021751327967806842,-0.2974647887323943,-0.7183098591549282,0.13243460764587311
46.2851,67210.443,-0.05724258062439777,0.1091398752467376,-0.06495372622825904,-0.018901891348088534,-0.03571474849094568,0.008921327967806841,-0.2374647887323943,-0.598309859154929,0.5524346076458713
46.3133,67210.4631,0.0060435653419173285,0.13688420786661662,-0.04655534690959964,-0.04089189134808853,-0.010054748490945674,-0.016728672032193158,0.5425352112676056,-0.598309859154929,0.732434607645871
46.3262,67210.483,0.05414771210447843,0.15320647457040892,-0.02679360071623574,-0.04089189134808853,0.015605251509054325,-0.022228672032193156,0.6025352112676057,-0.5383098591549285,0.852434607645872
46.342,67210.503,0.07588512766542874,0.16104567490990482,-0.009367968751478543,-0.014631891348088531,-0.0063947484909456734,-0.006958672032193159,0.36253521126760574,-0.7183098591549282,0.6124346076458735
46.3643,67210.5231,0.06630273905022863,0.1592412668606582,0.0030904062121643594,0.013468108651911469,-0.04120474849094567,0.00953132796780684,0.5425352112676056,-0.8383098591549292,0.31243460764587283
46.3831,67210.543,0.03260111446873623,0.15290942949803082,0.010068223309893362,-0.0011918913480885316,-0.042434748490945674,-0.019788672032193158,-0.0574647887323943,-0.7783098591549287,0.31243460764587283
46.4035,67210.563,-0.01437640678288396,0.14798188042835,0.013610443174957756,-0.04150189134808853,-0.0021147484909456744,-0.049108672032193164,-0.1774647887323943,-0.7183098591549282,0.2524346076458741
46.4247,67210.5831,-0.06532034567375908,0.14571890253750622,0.017349540066303654,-0.09404189134808853,0.027205251509054326,-0.05338867203219316,-0.2974647887323943,-0.5383098591549285,0.31243460764587283
46.4435,67210.6041,-0.11604381559475127,0.13959771304820062,0.024468123052938856,-0.08976189134808853,0.029655251509054327,-0.038728672032193164,-0.4774647887323943,-0.6583098591549295,0.07243460764587084
46.4631,67210.624,-0.15889453592586505,0.129629557798235,0.03592748986163996,-0.04395189134808853,-0.043044748490945674,-0.020398672032193157,-0.4774647887323943,-0.6583098591549295,-0.1675653923541276
46.4847,67210.6451,-0.18781048926553556,0.11757669205235491,0.050261731352831254,0.002478108651911468,-0.04731474849094568,0.02603132796780684,-0.0574647887323943,-0.23830985915492953,-0.10756539235412887
46.5097,67210.665,-0.19902679638474396,0.10869409680812481,0.06456361488161706,0.0067481086519114684,-0.013724748490945673,0.013811327967806842,0.002535211267605697,-0.41830985915492924,0.13243460764587311
46.5248,67210.6851,-0.19091578166538625,0.1049378200038247,0.07603094581672716,-0.012791891348088533,0.011325251509054326,0.0040413279678068416,0.36253521126760574,0.0016901408450706867,0.49243460764587255
46.5447,67210.7051,-0.17292448559046775,0.1053137167304764,0.08265372543084816,-0.05494189134808853,0.0015552515090543257,-0.0014586720321931586,0.48253521126760573,0.061690140845071184,0.37243460764587155
46.5686,67210.725,-0.1504617143872632,0.10346361223049722,0.08404035338590866,-0.046391891348088535,0.019875251509054326,0.0022013279678068415,0.36253521126760574,-0.41830985915492924,0.6124346076458735
46.584,67210.745,-0.13051835588174449,0.0920619131719077,0.08080376063476337,-0.004851891348088532,0.023545251509054323,-0.014288672032193158,0.0625352112676057,-0.29830985915492825,0.6124346076458735
46.6046,67210.7651,-0.11179086709043987,0.0783739594455311,0.07378648279081167,0.025078108651911468,0.013155251509054326,-0.02589867203219316,-0.5374647887323942,-0.47830985915492974,0.07243460764587084
46.6286,67210.785,-0.09566457023413577,0.06988728426532873,0.06323885759821986,0.001258108651911468,-0.015554748490945675,0.0040413279678068416,-0.7774647887323942,-0.7183098591549282,-0.0475653923541266
46.6467,67210.805,-0.07895522085073928,0.07387949507574162,0.04884296252038546,-0.007301891348088532,0.0009352515090543258,0.03275132796780684,-0.8974647887323943,-0.5383098591549285,-0.10756539235412887
46.6685,67210.8251,-0.06058071772754017,0.09220768441144081,0.030451998359170465,0.0036981086519114682,0.031485251509054325,0.03580132796780684,-0.6574647887323943,-0.5383098591549285,0.01243460764587212
46.6888,67210.845,-0.03853288505803257,0.12239563004958681,0.009584411625833858,0.004918108651911468,0.023545251509054323,0.005261327967806841,-0.4774647887323943,-0.598309859154929,0.19243460764587184
46.7091,67210.8661,-0.015382143260994463,0.1593355198167023,-0.009924740348829439,0.0036981086519114682,0.013765251509054326,-0.03200867203219316,-0.3574647887323943,-0.23830985915492953,0.6124346076458735
46.7432,67210.8871,0.0067190257228920275,0.1950047116718078,-0.02284994863162404,-0.004241891348088532,0.022325251509054324,-0.008788672032193159,-0.2974647887323943,-0.598309859154929,0.31243460764587283
46.7491,67210.9081,0.017993216256893735,0.2217920230895797,-0.02536744944834294,0.010418108651911468,0.04064525150905433,0.026641327967806844,-0.0574647887323943,-0.598309859154929,-0.1675653923541276
46.7681,67210.9291,0.017907966285690732,0.2314702173293576,-0.01742845016299404,0.0067481086519114684,0.02476525150905433,0.032131327967806836,-0.1774647887323943,-0.41830985915492924,0.07243460764587084
46.7884,67210.949,0.0059149974401439265,0.22272866517684078,-0.003799878462411442,-0.002411891348088532,-0.011884748490945675,0.020531327967806844,0.48253521126760573,-0.6583098591549295,-0.1675653923541276
46.8081,67210.969,-0.01741791018349237,0.1986277588533167,0.007940295204718659,-0.017681891348088532,-0.04548474849094568,-0.027728672032193157,1.0225352112676058,-0.41830985915492924,-0.0475653923541266
46.8316,67210.9891,-0.05078540610156276,0.1667937609484704,0.010878442295407062,-0.033561891348088534,-0.004554748490945674,-0.052778672032193163,0.8425352112676057,-0.17830985915492903,0.01243460764587212
46.8502,67211.009,-0.09679830600569056,0.1329022290498672,0.0018334880058714573,-0.02562189134808853,0.05225525150905432,-0.04421867203219316,1.3825352112676057,-0.17830985915492903,-0.1675653923541276
46.8682,67211.029,-0.14870346175654908,0.10700422161623291,-0.017522320966733944,0.007358108651911468,0.017435251509054325,-0.025288672032193156,1.0225352112676058,0.2416901408450709,0.4324346076458738
46.8884,67211.0491,-0.19640430057956576,0.09591342469425451,-0.04165444532673334,0.028128108651911468,0.00032525150905432596,-0.003908672032193159,0.5425352112676056,0.5416901408450716,0.5524346076458713
46.9109,67211.069,-0.22989017727423589,0.10173150100524572,-0.06371942121239214,-0.016461891348088533,-0.0033347484909456732,0.0022013279678068415,0.7825352112676058,0.3616901408450701,0.7924346076458733
46.9299,67211.089,-0.24198881681884649,0.11872264571528252,-0.07806610824131274,-0.04334189134808853,0.016215251509054326,0.011981327967806842,0.4225352112676057,-0.05830985915492981,0.49243460764587255
46.9581,67211.1091,-0.23323067163050548,0.1417994613745716,-0.08182719866821504,-0.015851891348088534,0.029035251509054325,0.014421327967806841,0.3025352112676057,-0.35830985915492874,0.01243460764587212
46.9728,67211.1291,-0.20650558565271399,0.1580193489759763,-0.07442854895369085,-0.0011918913480885316,0.015605251509054325,0.027861327967806843,0.36253521126760574,-0.598309859154929,-0.4675653923541283
47.0247,67211.149,-0.17768222387930416,0.17520431235453612,-0.05769077573360824,-0.022571891348088534,-0.0021147484909456744,0.03947132796780684,0.24253521126760574,-0.8383098591549292,-0.8275653923541277
47.0307,67211.1589,-0.13221888339944549,0.1776754591958822,-0.03278359831991324,-0.018901891348088534,-0.004554748490945674,0.029081327967806842,0.12253521126760569,-0.598309859154929,-0.5875653923541293
47.0334,67211.189,-0.08489051330643888,0.1751187570525269,-0.0029390949631873386,-0.0030218913480885316,-0.004554748490945674,0.03397132796780684,0.12253521126760569,-0.7783098591549287,-0.2875653923541286
47.054,67211.209,-0.04962376602330068,0.172354057128656,0.028548910641624764,0.009808108651911469,-0.013724748490945673,0.05657132796780684,-0.1774647887323943,-0.9583098591549284,0.13243460764587311
47.0683,67211.2291,-0.01734090913739106,0.17045604708404571,0.058760904225035354,-0.006071891348088532,-0.011274748490945672,0.05046132796780684,-0.3574647887323943,-0.8983098591549297,0.37243460764587155
47.0954,67211.2491,0.0035453109121152265,0.17400265656161992,0.08447156710312577,-0.020741891348088532,0.015605251509054325,0.028471327967806843,-0.0574647887323943,-0.6583098591549295,0.4324346076458738
47.1075,67211.269,0.01810547347228593,0.17742865946511782,0.10338137867766557,-0.017681891348088532,0.010105251509054326,0.01931132796780684,-0.1174647887323943,-0.41830985915492924,0.31243460764587283
47.1278,67211.2891,0.017784390961191124,0.18209914148367481,0.11360968787512936,0.015308108651911467,-0.014944748490945675,0.03152132796780684,0.12253521126760569,0.0016901408450706867,0.2524346076458741
47.1472,67211.3091,0.004350005588127731,0.18629101273799822,0.11426399863120705,0.025078108651911468,-0.028994748490945674,0.019921327967806844,0.12253521126760569,0.0016901408450706867,0.13243460764587311
47.1696,67211.329,-0.02211105530121807,0.1886952830898258,0.10522574856023835,-0.007911891348088531,-0.015554748490945675,0.012591327967806841,-0.1774647887323943,-0.41830985915492924,0.07243460764587084
47.1895,67211.3491,-0.059844425934198864,0.1860444251529858,0.08741985223777575,-0.021961891348088534,0.016215251509054326,0.01014132796780684,-0.1774647887323943,-0.23830985915492953,0.19243460764587184
47.2105,67211.3691,-0.10816174604661347,0.1752943999316826,0.06302495865016745,0.0036981086519114682,0.014375251509054325,0.0034213279678068417,-0.2974647887323943,-0.05830985915492981,0.13243460764587311
47.2389,67211.389,-0.16286866552274648,0.15571237295042542,0.03561391508122626,0.029968108651911466,-0.011274748490945672,0.0022013279678068415,-0.2374647887323943,-0.17830985915492903,0.4324346076458738
47.249,67211.409,-0.21078338825577297,0.1308709841247169,0.009892170204464257,-0.0030218913480885316,-0.01799474849094567,0.022361327967806842,-0.0574647887323943,-0.41830985915492924,0.6124346076458735
47.2713,67211.4291,-0.2440408237893636,0.1043914831277262,-0.009701404439891342,0.001258108651911468,0.0009352515090543258,0.013811327967806842,-0.0574647887323943,-0.8983098591549297,0.49243460764587255
47.2936,67211.4501,-0.25262928462141415,0.08524214935102181,-0.020391254447892443,0.037908108651911465,0.02109525150905433,0.012591327967806841,0.002535211267605697,-1.1383098591549299,0.7924346076458733
47.3101,67211.47,-0.23238319643018995,0.0824768589261039,-0.02243685591630594,0.02079810865191147,0.011325251509054326,0.045571327967806836,0.24253521126760574,-0.8983098591549297,0.07243460764587084
47.3307,67211.49,-0.18956356134510727,0.09989832716426841,-0.01944454697568454,-0.003631891348088531,0.011935251509054326,0.07978132796780683,0.24253521126760574,-0.5383098591549285,0.01243460764587212
47.3547,67211.5101,-0.1322062624780896,0.134400677783297,-0.01669594178150674,-0.012181891348088534,0.0009352515090543258,0.08528132796780684,0.6025352112676057,-0.29830985915492825,0.01243460764587212
47.3696,67211.53,-0.06419935954868877,0.17610204720418102,-0.01855652648708024,0.02385810865191147,0.018045251509054325,0.07612132796780684,0.7225352112676058,-0.6583098591549295,-0.4675653923541283
47.3906,67211.55,-0.00969719469586866,0.21156773428554712,-0.02659880759822844,0.06844810865191148,0.03698525150905432,0.06451132796780684,0.4225352112676057,-0.7783098591549287,-0.10756539235412887
47.4131,67211.571,0.022201231630279025,0.2338585741472102,-0.03818148518168684,0.06111810865191147,0.002775251509054326,0.05168132796780684,0.0625352112676057,-0.9583098591549284,-0.2875653923541286
47.4295,67211.5911,0.03139612855800973,0.24412231419908634,-0.04827443156113124,0.02751810865191147,-0.011274748490945672,0.04680132796780684,-0.6574647887323943,-1.0183098591549289,-0.3475653923541273
47.4496,67211.6111,0.019272022420224633,0.24118256770522092,-0.05175667537210614,-0.009131891348088533,-0.010054748490945674,0.02603132796780684,-0.7774647887323942,-0.7783098591549287,0.4324346076458738
47.4699,67211.631,-0.0033188088264092808,0.2303575404367277,-0.045833165106959436,-0.03845189134808853,0.02109525150905433,-0.005128672032193159,-0.8374647887323943,-0.6583098591549295,0.5524346076458713
47.4899,67211.6511,-0.02878576152325446,0.2167763058053452,-0.03091300610138984,-0.03967189134808853,0.04919525150905432,-0.0020686720321931584,-0.2974647887323943,-0.23830985915492953,1.0324346076458717
47.5109,67211.6711,-0.052303696862541466,0.2071056616373799,-0.010124020434404038,-0.015241891348088534,0.027815251509054326,0.029081327967806842,0.12253521126760569,-0.23830985915492953,1.0324346076458717
47.5298,67211.691,-0.06930145133798798,0.20833850410677843,0.012262021940553758,0.03057810865191147,-0.022884748490945676,0.03030132796780684,0.002535211267605697,-0.11830985915492853,0.6124346076458735
47.5524,67211.7111,-0.07866864043045166,0.22406144590936852,0.03235926954718926,0.039128108651911464,-0.025934748490945674,0.03458132796780684,0.12253521126760569,-0.35830985915492874,0.37243460764587155
47.5716,67211.7311,-0.07902290773686826,0.2516590487508936,0.04769184326062946,-0.014021891348088532,-0.025324748490945674,0.010751327967806841,0.0625352112676057,-0.5383098591549285,0.01243460764587212
47.5923,67211.751,-0.07895084780554829,0.27828931260519174,0.057492340755419966,-0.03784189134808853,0.033315251509054324,0.005261327967806841,0.0625352112676057,-0.5383098591549285,0.07243460764587084
47.6141,67211.772,-0.08755884420274726,0.2877509309764379,0.06272137173208116,-0.020741891348088532,0.005215251509054326,0.00037132796780684136,0.12253521126760569,-0.598309859154929,0.13243460764587311
47.6343,67211.793,-0.10890655550094278,0.27130655194972575,0.06522475705576426,0.018358108651911467,-0.038154748490945675,-0.006348672032193159,0.002535211267605697,-0.17830985915492903,0.37243460764587155
47.6537,67211.8141,-0.13825947820491397,0.23418372313401128,0.06659034293881456,0.036688108651911466,-0.04548474849094568,0.010751327967806841,-0.2374647887323943,-0.35830985915492874,0.31243460764587283
47.6778,67211.834,-0.1668184449291309,0.189578785494878,0.06748668319670666,-0.007911891348088531,0.0009352515090543258,0.008921327967806841,-0.2974647887323943,-0.17830985915492903,0.13243460764587311
47.6955,67211.8541,-0.18697668529603195,0.14639801880209752,0.06750647474256485,-0.05372189134808853,0.031485251509054325,-0.005738672032193159,-0.1174647887323943,-0.47830985915492974,0.31243460764587283
47.7138,67211.8741,-0.19633622255467637,0.11195458744117942,0.06513696175099576,-0.05678189134808853,0.022935251509054323,-0.0026786720321931587,0.002535211267605697,-0.8983098591549297,0.13243460764587311
47.7394,67211.894,-0.19538573077810417,0.0901101721500005,0.058812061896259954,-0.0005818913480885321,-0.003944748490945674,0.018701327967806842,0.24253521126760574,-0.8983098591549297,0.732434607645871
47.7557,67211.915,-0.17965792349115828,0.08502949763766632,0.04833344829792606,0.05928810865191147,-0.02044474849094567,0.04191132796780684,0.5425352112676056,-1.1383098591549299,0.7924346076458733
47.7814,67211.9351,-0.15341737135785477,0.09598910504915042,0.03517750985354495,0.051958108651911465,0.011325251509054326,0.03763132796780684,0.4225352112676057,-0.7783098591549287,0.7924346076458733
47.8003,67211.9551,-0.11430552748068817,0.12471184929383072,0.022484348552998162,0.009808108651911469,0.033315251509054324,0.030911327967806844,0.36253521126760574,-0.47830985915492974,0.852434607645872
47.8147,67211.975,-0.07023979798317967,0.15826642413457342,0.013731712031681262,0.008588108651911468,0.016825251509054326,0.024191327967806844,0.1825352112676057,-0.29830985915492825,0.4324346076458738
47.835,67211.996,-0.029766110548606367,0.1841542753866876,0.011533489259176966,0.04095810865191147,-0.01738474849094567,0.029081327967806842,-0.1174647887323943,-0.17830985915492903,0.5524346076458713
47.8561,67212.016,0.004589122772051923,0.19975519156139224,0.01622898961318746,0.05683810865191147,-0.013114748490945674,0.027251327967806844,0.1825352112676057,-0.11830985915492853,0.31243460764587283
47.879,67212.0361,0.030425936865266526,0.20805771043235063,0.02512197643757276,0.01957810865191147,0.019265251509054324,0.03641132796780684,0.002535211267605697,-0.5383098591549285,0.2524346076458741
47.8959,67212.056,0.04563999131330562,0.21399738712390623,0.03312102450402116,0.0036981086519114682,0.02109525150905433,0.012591327967806841,-0.1174647887323943,-0.598309859154929,0.19243460764587184
47.9156,67212.076,0.04433447214253293,0.2182870293767031,0.034719285324839866,0.007978108651911469,-0.003944748490945674,0.008921327967806841,0.1825352112676057,-0.7183098591549282,0.01243460764587212
47.9356,67212.0961,0.025238170072491933,0.2229131057284041,0.02637683074695446,0.03973810865191147,-0.04059474849094567,0.0034213279678068417,0.0625352112676057,-0.9583098591549284,0.01243460764587212
47.9602,67212.1171,-0.009090176235712982,0.2287335287485273,0.008449379754217765,0.05378810865191147,-0.010664748490945675,-0.005128672032193159,0.0625352112676057,-0.598309859154929,0.31243460764587283
47.9782,67212.1371,-0.05215186759517276,0.2390630687633358,-0.014651814107260741,0.022028108651911467,-0.007004748490945675,-0.020398672032193157,0.0625352112676057,-0.9583098591549284,0.2524346076458741
48.0007,67212.157,-0.09717329547603928,0.2464238219917889,-0.035670472777052945,0.0018681086519114682,0.003385251509054326,-0.012458672032193158,0.0625352112676057,-1.0183098591549289,0.5524346076458713
48.0174,67212.178,-0.13883408835098565,0.2476375406624957,-0.04760112031286414,0.038518108651911465,-0.023494748490945676,-0.006958672032193159,0.002535211267605697,-0.7183098591549282,0.37243460764587155
48.0397,67212.1981,-0.17158294757463538,0.23781939613183609,-0.04602351396311754,0.04156810865191147,-0.014334748490945673,-0.011848672032193159,0.4225352112676057,-0.8983098591549297,-0.1675653923541276
48.0647,67212.22,-0.19158210972296108,0.21922307195411653,-0.03099122557210014,-0.0005818913480885321,-0.01799474849094567,0.01503132796780684,0.6625352112676057,-0.5383098591549285,0.01243460764587212
48.0836,67212.2411,-0.1929111944109952,0.19525117545499662,-0.006817013489877739,-0.014021891348088532,-0.04548474849094568,0.03030132796780684,0.36253521126760574,-0.29830985915492825,0.19243460764587184
48.1025,67212.2621,-0.17841400653109685,0.1706182650062517,0.019039501805460254,0.022638108651911466,-0.022884748490945676,0.01014132796780684,0.36253521126760574,-0.5383098591549285,0.5524346076458713
48.1197,67212.282,-0.1539386129143704,0.15226299174500751,0.03862298671959656,0.048288108651911466,0.029655251509054327,-0.0026786720321931587,-0.1774647887323943,-0.6583098591549295,0.6124346076458735
48.1413,67212.302,-0.12860099785210277,0.1446905118090404,0.04587628185458366,0.03118810865191147,0.007045251509054325,0.020531327967806844,-0.3574647887323943,-0.8383098591549292,0.6124346076458735
48.1612,67212.3221,-0.10757874430699518,0.15218026756644762,0.037836664261019656,0.00919810865191147,-0.033874748490945676,0.024801327967806843,-0.4774647887323943,-0.7183098591549282,0.31243460764587283
48.1832,67212.3431,-0.09323888252033247,0.1726408384994981,0.014644188013622758,0.03973810865191147,-0.04609474849094568,0.0022013279678068415,-0.5374647887323942,-0.598309859154929,0.49243460764587255
48.2026,67212.363,-0.08409568305629428,0.2044251818564046,-0.020962672472105738,0.05867810865191147,0.006435251509054326,-0.0032986720321931586,-0.3574647887323943,-0.5383098591549285,0.49243460764587255
48.2242,67212.384,-0.08128846078179888,0.24189999455569713,-0.06401663864861375,0.01957810865191147,0.008275251509054326,-0.005738672032193159,-0.4174647887323943,-0.47830985915492974,0.6724346076458723
48.2447,67212.405,-0.08637759810091347,0.2802048460898656,-0.10791398585292294,0.014688108651911468,0.019265251509054324,0.005871327967806841,-0.2974647887323943,-0.5383098591549285,0.6724346076458723
48.2641,67212.425,-0.09944678235416968,0.31212403911694275,-0.14529560733126184,0.036068108651911464,0.007045251509054325,-0.024058672032193158,-0.2374647887323943,-0.5383098591549285,0.37243460764587155
48.2862,67212.445,-0.11720243160253876,0.3308184363267862,-0.16947752954833306,0.010418108651911468,-0.005164748490945673,-0.009398672032193158,-0.1174647887323943,-0.23830985915492953,0.37243460764587155
48.3045,67212.465,-0.1358015990237333,0.3321337812542975,-0.17601925867413665,-0.02135189134808853,-0.007614748490945674,-0.017348672032193157,-0.2374647887323943,-0.29830985915492825,0.13243460764587311
48.3337,67212.485,-0.14906789344243787,0.3182037347038821,-0.16377766128512955,-0.020741891348088532,-0.0021147484909456744,-0.024058672032193158,0.12253521126760569,-0.8383098591549292,0.07243460764587084
48.3456,67212.505,-0.16058683350145686,0.2885790902060682,-0.13506626533104274,-0.012181891348088534,0.007045251509054325,-0.029558672032193156,0.0625352112676057,-0.7183098591549282,-0.2875653923541286
48.3659,67212.5251,-0.16641364260568509,0.2576994625309402,-0.09519076323104883,-0.02135189134808853,-0.013114748490945674,0.006481327967806841,0.1825352112676057,-0.9583098591549284,-0.10756539235412887
48.386,67212.545,-0.16649148518836876,0.2321163357396415,-0.05063151203039264,-0.03967189134808853,-0.0033347484909456732,0.032131327967806836,0.1825352112676057,-0.9583098591549284,-0.2875653923541286
48.4134,67212.565,-0.16088507298137555,0.21980013090578912,-0.007693738201086042,-0.04212189134808853,-0.001504748490945674,0.017471327967806843,-0.1774647887323943,-0.5383098591549285,-0.2875653923541286
48.4324,67212.586,-0.14917355530918658,0.21519756739598841,0.029483140501591357,-0.020121891348088533,0.017435251509054325,-0.006958672032193159,-0.5974647887323943,-1.1383098591549299,-0.3475653923541273
48.4535,67212.6061,-0.1363891075168861,0.2206463447612563,0.05896837877167346,-0.026231891348088534,-0.013724748490945673,-0.01306867203219316,-0.8374647887323943,-1.0183098591549289,-0.2875653923541286
48.4686,67212.626,-0.1269227514674568,0.23221548473675122,0.08114794514571215,-0.006071891348088532,0.006435251509054326,-0.006348672032193159,-0.5974647887323943,-1.0183098591549289,0.01243460764587212
48.4856,67212.646,-0.12118148599145387,0.2477955590296523,0.09702641339139155,0.000638108651911468,-0.007004748490945675,0.01137132796780684,-0.4174647887323943,-1.258309859154929,0.2524346076458741
48.5056,67212.6661,-0.11814979987400037,0.2629848634778711,0.10674100981771396,-0.017681891348088532,-0.019824748490945676,0.024191327967806844,0.3025352112676057,-1.1983098591549286,0.7924346076458733
48.5367,67212.686,-0.11716799573185768,0.2739514994146919,0.10896721297827995,-0.005461891348088531,-0.007004748490945675,-0.007568672032193158,0.4225352112676057,-1.3783098591549283,0.972434607645873
48.5518,67212.706,-0.11746654453445027,0.2761983976761595,0.10169021483186545,0.0018681086519114682,-0.011884748490945675,-0.013678672032193159,0.36253521126760574,-1.4383098591549288,0.852434607645872
48.5655,67212.726,-0.12334851479327957,0.27163975101117854,0.08304668590852925,0.0018681086519114682,0.010105251509054326,0.0028113279678068414,0.4225352112676057,-1.3783098591549283,0.07243460764587084
48.5917,67212.746,-0.13575281108487475,0.2643536198802703,0.052622796597889154,-0.0030218913480885316,0.003995251509054326,0.0028113279678068414,0.12253521126760569,-1.1383098591549299,-0.10756539235412887
48.606,67212.766,-0.15455288244385856,0.25549923874543357,0.012059853371722162,-0.017071891348088532,-0.02105474849094567,-0.016728672032193158,0.1825352112676057,-0.9583098591549284,-0.2875653923541286
48.6309,67212.786,-0.17533250293678826,0.25171609440645437,-0.03498944133021304,-0.012791891348088533,-0.005164748490945673,-0.016728672032193158,0.0625352112676057,-0.7783098591549287,-0.22756539235412632
48.6462,67212.807,-0.19547028263757887,0.2572653753372113,-0.08304209057063104,0.026298108651911466,0.003385251509054326,-0.02283867203219316,-0.2974647887323943,-0.6583098591549295,0.49243460764587255
48.6824,67212.8271,-0.20797467698715755,0.2769033371196584,-0.12558168098240344,0.005528108651911468,0.023545251509054323,0.005261327967806841,-0.5374647887323942,-0.598309859154929,0.37243460764587155
48.6889,67212.847,-0.21120099662749076,0.3076323481522746,-0.15653224826817802,-0.03417189134808853,0.032095251509054325,0.035191327967806836,-0.7774647887323942,-0.8383098591549292,0.13243460764587311
48.7069,67212.867,-0.20084252041881745,0.3482246913327678,-0.17179766644789596,-0.031731891348088535,0.06202525150905432,0.005261327967806841,-0.9574647887323944,-0.9583098591549284,0.31243460764587283
48.7362,67212.8871,-0.17949325708614045,0.3933852132790264,-0.17038518183304613,-0.024401891348088532,0.04919525150905432,-0.027118672032193158,-1.1974647887323944,-0.8383098591549292,0.13243460764587311
48.7465,67212.907,-0.15789082230671975,0.4162577978260311,-0.15372997367937213,-0.061051891348088534,-0.009444748490945674,0.01320132796780684,-1.2574647887323942,-0.8383098591549292,0.31243460764587283
48.7658,67212.927,-0.13888412688877116,0.42191466683059986,-0.12720053215035435,-0.07449189134808852,0.002165251509054326,0.02297132796780684,-0.9574647887323944,-0.6583098591549295,0.852434607645872
48.7859,67212.9471,-0.12606146075091737,0.39900536257673114,-0.09705257340294093,-0.046391891348088535,0.03942525150905432,-0.003908672032193159,-0.9574647887323944,-0.7183098591549282,0.4324346076458738
48.8057,67212.967,-0.11891881973675808,0.347795177670585,-0.06996689652297244,-0.03784189134808853,0.04858525150905432,-0.01611867203219316,-0.4774647887323943,-0.6583098591549295,0.6724346076458723
48.8256,67212.987,-0.11395652785407026,0.2759104984753651,-0.05142962697638634,-0.08182189134808852,0.027205251509054326,-0.03749867203219316,-0.2374647887323943,-0.6583098591549295,0.5524346076458713
48.8484,67213.0071,-0.10442488894527166,0.19661639988030769,-0.04511786581234414,-0.12825189134808854,0.016215251509054326,-0.06987867203219317,-0.5974647887323943,-0.35830985915492874,0.13243460764587311
48.8666,67213.0279,-0.09439510219135117,0.11360594268579921,-0.05329463050043364,-0.10015189134808852,0.05775525150905433,-0.06804867203219316,-0.1774647887323943,0.0016901408450706867,0.4324346076458738
48.8884,67213.048,-0.07821302390944476,0.049418428393839114,-0.07736507524709973,-0.050061891348088534,0.05408525150905433,-0.021008672032193157,-0.2974647887323943,0.3016901408450714,0.2524346076458741
48.9091,67213.068,-0.05679376386403967,0.019608025213585317,-0.11681666712157064,-0.009131891348088533,-0.007614748490945674,0.04313132796780684,-0.5374647887323942,0.6016901408450703,0.13243460764587311
48.9301,67213.0901,-0.02609315398103576,0.04179412031253431,-0.16785730841008845,2.8108651911468163e-05,-0.037544748490945676,0.06879132796780683,-0.3574647887323943,0.1816901408450704,-0.0475653923541266
48.958,67213.11,0.01342788397241483,0.1230204812890959,-0.22263093980788734,-0.03845189134808853,-0.00028474849094567434,0.029081327967806842,-0.7174647887323943,0.12169014084507168,-0.4675653923541283
48.97,67213.13,0.05291694771878533,0.23803501869595192,-0.26905861838419315,-0.07449189134808852,0.10784525150905433,-0.005128672032193159,-0.6574647887323943,-0.11830985915492853,-0.527565392354127
48.9909,67213.1501,0.07930188371062143,0.37229022954942814,-0.29332952246447536,-0.05189189134808853,0.021705251509054328,0.00831132796780684,-0.4174647887323943,-0.35830985915492874,-0.10756539235412887
49.0098,67213.17,0.08227183734990423,0.48952267062318966,-0.28320390385319194,-0.015851891348088534,0.00032525150905432596,0.03702132796780684,-0.5974647887323943,-0.35830985915492874,-0.0475653923541266
49.0319,67213.19,0.062328632526791126,0.569006646760863,-0.23406116624992473,-0.05189189134808853,-0.06564474849094568,0.05840132796780684,-0.3574647887323943,-0.29830985915492825,0.13243460764587311
49.0498,67213.2101,0.030027943245009334,0.5935831583996637,-0.15103186852689826,-0.09587189134808853,0.010715251509054325,0.04191132796780684,-0.4774647887323943,0.0016901408450706867,0.31243460764587283
49.0677,67213.23,-0.014898217460728558,0.5624469661028944,-0.04827901188165234,-0.15818189134808852,0.043085251509054324,-0.04177867203219316,-0.5374647887323942,0.1816901408450704,0.31243460764587283
49.0882,67213.25,-0.07445004191263327,0.48804329019209947,0.05594903871322976,-0.21377189134808852,0.04797525150905432,-0.09369867203219316,-0.2974647887323943,0.2416901408450709,0.6724346076458723
49.1096,67213.27,-0.15233511404784467,0.38356954239954266,0.14563080543889106,-0.21010189134808852,-0.04670474849094568,-0.08636867203219316,-0.7174647887323943,0.5416901408450716,0.972434607645873
49.1341,67213.29,-0.24023829145061948,0.27502338162976514,0.21116194431198715,-0.15329189134808852,-0.07541474849094566,-0.08331867203219316,-0.6574647887323943,0.12169014084507168,0.5524346076458713
49.1536,67213.31,-0.3265216308775756,0.1744983005522665,0.25279858957236606,-0.10687189134808853,-0.03632474849094568,-0.08820867203219317,-0.6574647887323943,0.3616901408450701,0.37243460764587155
49.1737,67213.3301,-0.3895894761630203,0.10693158974081471,0.27898005271967974,-0.09221189134808852,-0.005164748490945673,-0.06498867203219316,-0.6574647887323943,0.6016901408450703,-0.0475653923541266
49.1961,67213.352,-0.41626941685826124,0.0765809292464201,0.3015729799182744,-0.10137189134808852,-0.03082474849094568,0.01931132796780684,-0.2374647887323943,0.3016901408450714,-0.1675653923541276
49.2133,67213.372,-0.39374331740531854,0.06850729316172652,0.3288729669131649,-0.07816189134808853,-0.07847474849094567,0.05596132796780684,-0.1174647887323943,0.4816901408450711,-0.0475653923541266
49.2368,67213.3921,-0.3259006061094808,0.0829137159116895,0.3594204919139192,-0.058611891348088536,-0.11451474849094567,0.05229132796780684,-0.0574647887323943,0.3616901408450701,-0.0475653923541266
49.2526,67213.412,-0.20465723132586539,0.10533348988213082,0.38324209000935183,-0.04089189134808853,-0.14505474849094566,0.04496132796780684,-0.0574647887323943,0.3616901408450701,0.5524346076458713
49.2718,67213.432,-0.06373790736973287,0.14478674571528702,0.38314184310065585,-0.010351891348088532,-0.08946474849094567,0.07062132796780685,-0.1774647887323943,0.3616901408450701,0.4324346076458738
49.2908,67213.4521,0.07001980947681183,0.2022760877003035,0.34433559935097663,0.036068108651911464,-0.03326474849094568,0.10238132796780684,-0.2974647887323943,0.4216901408450706,0.4324346076458738
49.3125,67213.472,0.16241163138990364,0.2744893655460592,0.2606469522793444,0.07516810865191148,-0.051594748490945676,0.08223132796780684,-0.4774647887323943,0.5416901408450716,0.19243460764587184
49.3319,67213.492,0.19541560631451432,0.3589720561906442,0.13865858369891249,0.10326810865191148,-0.06625474849094568,-0.005128672032193159,-0.1774647887323943,0.7216901408450713,-0.10756539235412887
49.3591,67213.5121,0.16162702240750462,0.43803401589720237,-0.0017425318387441421,0.09776810865191148,-0.005774748490945674,-0.08636867203219316,-0.1174647887323943,0.9616901408450715,0.01243460764587212
49.373,67213.532,0.052546970723149525,0.5151973993112832,-0.13340304897662503,0.047678108651911466,0.05225525150905432,-0.12668867203219317,0.002535211267605697,1.2016901408450718,-0.10756539235412887
49.3949,67213.552,-0.08967513431026988,0.5634811562694738,-0.22720931279884143,-0.03417189134808853,0.04064525150905433,-0.13951867203219315,0.4225352112676057,0.9616901408450715,0.19243460764587184
49.413,67213.573,-0.24862100835762607,0.5690637465038992,-0.262401893903956,-0.06838189134808853,0.029035251509054325,-0.14806867203219315,0.3025352112676057,0.6616901408450708,0.01243460764587212
49.4336,67213.5931,-0.38062576577685936,0.52844639513244,-0.23156449078212854,-0.023181891348088533,0.011325251509054326,-0.13523867203219317,0.48253521126760573,0.7216901408450713,0.19243460764587184
49.4526,67213.613,-0.4632055862333815,0.4485367475679193,-0.14265169584892604,0.000638108651911468,-0.027774748490945675,-0.08025867203219315,0.4225352112676057,0.7216901408450713,0.5524346076458713
49.4792,67213.634,-0.48110318875199476,0.35006903170282233,-0.01600568657285554,-0.02929189134808853,0.0015552515090543257,-0.01917867203219316,0.36253521126760574,0.4216901408450706,0.31243460764587283
49.5024,67213.654,-0.44501710375416614,0.2502451600855148,0.12024988349032716,-0.060441891348088535,0.021705251509054328,-0.017958672032193156,0.5425352112676056,0.4216901408450706,0.2524346076458741
49.5186,67213.675,-0.376348955474148,0.16132384712675862,0.23643697750690662,-0.059831891348088535,0.004605251509054326,-0.017348672032193157,0.6025352112676057,0.0016901408450706867,0.2524346076458741
49.5356,67213.695,-0.30139240711779747,0.1000778610879974,0.307414493911535,-0.015241891348088534,-0.014944748490945675,-0.02283867203219316,0.8425352112676057,-0.23830985915492953,-0.1675653923541276
49.5558,67213.7151,-0.24287992876017556,0.0758085807485884,0.31888580936247357,0.029968108651911466,-0.014944748490945675,-0.027118672032193158,0.9625352112676058,-0.29830985915492825,-0.0475653923541266
49.576,67213.735,-0.21414804175674246,0.09324945025498202,0.2707482436686807,0.04340810865191147,0.04003525150905433,-0.01917867203219316,0.48253521126760573,-0.41830985915492924,-0.10756539235412887
49.5969,67213.755,-0.21636186227589188,0.1488057925901067,0.17671837015628156,0.049508108651911464,0.06263525150905433,0.0015913279678068412,0.24253521126760574,-0.41830985915492924,-0.40756539235412603
49.6148,67213.7751,-0.2424372402719286,0.23137732351007304,0.05990829053537336,0.047678108651911466,0.057135251509054324,-0.0026786720321931587,-0.0574647887323943,-0.41830985915492924,-0.10756539235412887
49.637,67213.795,-0.27609219880775016,0.3193774661736003,-0.05339048181855184,0.04034810865191147,0.07302525150905433,-0.0026786720321931587,-0.1774647887323943,0.061690140845071184,0.13243460764587311
49.657,67213.815,-0.3047878402353886,0.39701902449616955,-0.14090147075218004,0.025078108651911468,0.047365251509054324,-0.0032986720321931586,-0.1774647887323943,0.061690140845071184,0.4324346076458738
49.678,67213.8351,-0.317565521948671,0.45003098515666196,-0.18867844863990701,0.010418108651911468,0.044315251509054326,0.01503132796780684,0.002535211267605697,0.3016901408450714,0.852434607645872
49.6966,67213.855,-0.3112066957652578,0.47332822934487073,-0.19341378696525363,0.01652810865191147,0.032095251509054325,0.03152132796780684,0.12253521126760569,-0.05830985915492981,0.732434607645871
49.719,67213.875,-0.29004887971357146,0.46843054430379794,-0.16154645630884285,0.05683810865191147,0.044925251509054326,0.04741132796780684,0.12253521126760569,-0.05830985915492981,0.37243460764587155
49.7397,67213.8951,-0.2593207886780747,0.4476329524728745,-0.10661947825838264,0.06111810865191147,0.013765251509054326,0.06512132796780684,0.5425352112676056,-0.05830985915492981,-0.0475653923541266
49.7542,67213.915,-0.22794829345343187,0.42109605997524857,-0.04518980967295884,0.014688108651911468,0.019265251509054324,0.01931132796780684,0.6625352112676057,-0.17830985915492903,-0.767565392354129
49.7746,67213.935,-0.2067578041078308,0.39297384223293375,0.00718867911846896,-0.02990189134808853,0.04370525150905433,-0.005738672032193159,1.0225352112676058,0.12169014084507168,-0.7075653923541267
49.7941,67213.9551,-0.2028793748428765,0.36598545912957614,0.03925948590192946,0.001258108651911468,0.06813525150905433,-0.01917867203219316,1.2025352112676058,0.061690140845071184,-0.647565392354128
49.8145,67213.975,-0.21542453885979979,0.34504960403347884,0.046171418725188665,0.05500810865191147,0.016215251509054326,-0.02650867203219316,1.1425352112676057,0.3016901408450714,-0.40756539235412603
49.8344,67213.995,-0.23500334978564769,0.3389707047449809,0.02979202755238196,0.048898108651911465,0.011935251509054326,-0.004518672032193159,1.1425352112676057,0.4216901408450706,-0.1675653923541276
49.8567,67214.0151,-0.24688148628911516,0.3524517609629437,-0.0024559376796012417,0.0036981086519114682,0.06874525150905433,0.011981327967806842,0.9025352112676057,0.061690140845071184,0.19243460764587184
49.8746,67214.035,-0.24374896942953805,0.3826549533715553,-0.04040531914322394,-0.0018018913480885319,0.09012525150905433,-0.010628672032193158,0.7825352112676058,-0.11830985915492853,0.2524346076458741
49.8987,67214.055,-0.22174630235516768,0.41856343726502454,-0.07359034766199654,0.0030881086519114684,0.07302525150905433,-0.0020686720321931584,0.5425352112676056,-0.41830985915492924,0.2524346076458741
49.9141,67214.075,-0.18935247961117035,0.4521925427796243,-0.09430017724366394,0.03484810865191147,0.03392525150905432,0.032131327967806836,0.6025352112676057,-0.47830985915492974,0.5524346076458713
49.9342,67214.095,-0.1516461274068855,0.4763364133260536,-0.09854355994866834,0.036068108651911464,0.030265251509054326,0.04130132796780684,0.5425352112676056,-0.05830985915492981,0.6124346076458735
49.9542,67214.115,-0.11354091173548736,0.48915809845876734,-0.08701192121509414,-0.0011918913480885316,0.025985251509054327,0.04008132796780684,0.8425352112676057,0.3016901408450714,0.49243460764587255
49.9745,67214.135,-0.07944246285280687,0.48769593146813506,-0.06392390340350594,-0.026231891348088534,0.0009352515090543258,0.03030132796780684,0.9025352112676057,0.3016901408450714,0.49243460764587255
49.9964,67214.155,-0.05417118955168798,0.4707128472281783,-0.03545821128775394,0.007978108651911469,-0.0008947484909456738,0.006481327967806841,0.6025352112676057,0.3016901408450714,0.13243460764587311
50.0148,67214.175,-0.041301591661238674,0.44328337480390945,-0.00833963668624834,0.03545810865191147,-0.024714748490945675,-0.007568672032193158,0.24253521126760574,0.1816901408450704,-0.3475653923541273
50.0363,67214.196,-0.04283438883820867,0.415188324298141,0.011141883207803863,0.028738108651911468,-0.04426474849094567,0.013811327967806842,0.002535211267605697,0.061690140845071184,-0.1675653923541276
50.0571,67214.216,-0.05359730986402336,0.3980651763282942,0.017818209791252662,0.015308108651911467,-0.06014474849094568,0.03641132796780684,0.24253521126760574,0.3016901408450714,0.19243460764587184
50.075,67214.2361,-0.06730791349716228,0.39554423626855717,0.008851051135092255,-0.007911891348088531,-0.026544748490945673,0.04069132796780684,0.3025352112676057,0.6616901408450708,0.19243460764587184
50.0946,67214.256,-0.08493257853395747,0.40423103203192123,-0.01498039009822194,-0.013411891348088532,0.014375251509054325,0.007091327967806841,0.5425352112676056,1.0216901408450703,0.07243460764587084
50.1178,67214.276,-0.10950412149291947,0.41713418299068294,-0.04815023956977374,0.001258108651911468,0.046755251509054324,-0.018568672032193156,0.48253521126760573,0.7216901408450713,0.07243460764587084
50.1358,67214.2961,-0.14525024135163306,0.42938196759877134,-0.08127813912562953,0.010418108651911468,-0.016774748490945672,-0.018568672032193156,0.12253521126760569,0.6616901408450708,-0.40756539235412603
50.1562,67214.316,-0.18719733571200886,0.44005365017372644,-0.10386944411160234,0.011028108651911468,-0.06136474849094568,0.0015913279678068412,-0.1774647887323943,0.6616901408450708,-0.2875653923541286
50.179,67214.336,-0.22490129664941205,0.45052494779414853,-0.10813623485652374,-0.026841891348088533,-0.03632474849094568,0.006481327967806841,-0.0574647887323943,0.4816901408450711,-0.5875653923541293
50.1977,67214.3561,-0.24819154293588447,0.4578073488715375,-0.09174176756688024,-0.032341891348088535,0.028425251509054325,-0.006348672032193159,0.0625352112676057,0.4216901408450706,-0.5875653923541293
50.2189,67214.376,-0.255501768766648,0.4610006140522236,-0.05924335156619534,-0.032951891348088534,0.018045251509054325,-0.0014586720321931586,0.36253521126760574,0.1816901408450704,-0.5875653923541293
50.2389,67214.396,-0.25151819044093066,0.45681389299310016,-0.02030003401424124,-0.015851891348088534,-0.019824748490945676,0.01564132796780684,0.7225352112676058,0.0016901408450706867,-0.7075653923541267
50.2748,67214.417,-0.24734814191074028,0.4461530299184068,0.013030963435429463,0.028128108651911468,-0.043044748490945674,0.012591327967806841,0.8425352112676057,-0.23830985915492953,-0.5875653923541293
50.283,67214.438,-0.23779484891788588,0.4328765512925229,0.03075043615060806,0.014078108651911468,-0.03571474849094568,-0.005128672032193159,1.2025352112676058,-0.35830985915492874,-0.5875653923541293
50.298,67214.458,-0.23806878928834035,0.41753889289906443,0.027018734352145066,-0.031121891348088536,-0.024714748490945675,-0.006958672032193159,0.9025352112676057,0.061690140845071184,-0.527565392354127
50.3181,67214.478,-0.24887063329349585,0.4008644068129775,0.003366294112490356,-0.023181891348088533,-0.014334748490945673,-0.015508672032193157,0.8425352112676057,-0.23830985915492953,-0.3475653923541273
50.3377,67214.498,-0.2695470236426439,0.38256413016597957,-0.03151435093804114,0.002478108651911468,0.032095251509054325,-0.02650867203219316,0.5425352112676056,-0.05830985915492981,0.2524346076458741
50.3611,67214.518,-0.2943708730094118,0.36694325226221824,-0.06417012940136164,0.004308108651911468,0.020485251509054322,-0.03688867203219316,0.12253521126760569,0.5416901408450716,0.49243460764587255
50.3817,67214.539,-0.31816551443143226,0.35834203843157253,-0.08101591890125644,-0.01829189134808853,-0.011274748490945672,-0.03322867203219316,0.3025352112676057,0.3016901408450714,0.6724346076458723
50.3988,67214.5591,-0.330770192599839,0.35755706280109256,-0.07323670542071004,-0.04150189134808853,-0.0021147484909456744,0.01320132796780684,0.3025352112676057,0.5416901408450716,0.852434607645872
50.4183,67214.579,-0.32633879122893755,0.36389669981917716,-0.040754219627233745,-0.021961891348088534,-0.0008947484909456738,0.03641132796780684,0.3025352112676057,0.4816901408450711,0.732434607645871
50.4415,67214.599,-0.3064251614991474,0.37367173707741697,0.007701125140351955,-0.006071891348088532,0.05103525150905432,0.046181327967806836,0.24253521126760574,0.061690140845071184,0.2524346076458741
50.4613,67214.6191,-0.2782612285911922,0.38325357002870497,0.057956817670781355,-0.006691891348088531,0.03636525150905432,0.023581327967806844,0.24253521126760574,-0.17830985915492903,0.5524346076458713
50.483,67214.641,-0.2545396874262065,0.3930211044512444,0.09544012525801347,-0.004851891348088532,0.0009352515090543258,-0.0020686720321931584,0.3025352112676057,-0.23830985915492953,-0.10756539235412887
50.5046,67214.6631,-0.24407351229071655,0.40274861304278764,0.11075731185940337,-0.0018018913480885319,-0.003944748490945674,0.007701327967806841,0.48253521126760573,-0.41830985915492924,-0.2875653923541286
50.5279,67214.683,-0.24899722001550717,0.41070338891620806,0.10315305851357136,-0.0030218913480885316,0.059585251509054325,0.01320132796780684,0.6025352112676057,-0.41830985915492924,-0.1675653923541276
50.5547,67214.704,-0.2643952257342196,0.4127423676569941,0.08134487700504577,0.008588108651911468,0.07729525150905434,0.013811327967806842,0.7825352112676058,-0.29830985915492825,-0.1675653923541276
50.5707,67214.724,-0.2826068815266888,0.40900806740392326,0.06067739867993516,0.021408108651911468,0.027205251509054326,-0.018568672032193156,0.8425352112676057,-0.41830985915492924,0.07243460764587084
50.5842,67214.745,-0.28683327649330126,0.40158110836343464,0.058122540828475955,0.04278810865191147,-0.019824748490945676,0.0009813279678068413,0.7225352112676058,-0.35830985915492874,-0.10756539235412887
50.604,67214.7651,-0.26284812806051455,0.3932240359657191,0.08500184856378086,0.04401810865191147,-0.005774748490945674,0.011981327967806842,0.6625352112676057,-0.23830985915492953,-0.2875653923541286
50.6299,67214.785,-0.20489949658856765,0.3916477470642966,0.14079936310714714,0.02079810865191147,0.014985251509054326,0.014421327967806841,0.6025352112676057,-0.05830985915492981,-0.527565392354127
50.6481,67214.805,-0.11232561530474366,0.3988067643803397,0.21187049817113546,-0.0030218913480885316,-0.008224748490945673,0.03763132796780684,0.5425352112676056,-0.05830985915492981,-0.3475653923541273
50.6657,67214.826,-0.0025000189748412838,0.41159688638866543,0.2743289877963073,0.04706810865191147,-0.008834748490945675,0.06940132796780683,0.4225352112676057,-0.35830985915492874,-0.40756539235412603
50.6923,67214.846,0.09722421367962153,0.4188868233490256,0.3023107259159176,0.11670810865191147,0.011325251509054326,0.018701327967806842,0.9025352112676057,-0.41830985915492924,-0.10756539235412887
50.7094,67214.8661,0.16216300306679113,0.4379153838734726,0.27543027417948424,0.11975810865191147,0.02476525150905433,-0.029558672032193156,0.5425352112676056,-0.41830985915492924,0.01243460764587212
50.7262,67214.886,0.16511657292509094,0.457502153203483,0.18835268783250725,0.07821810865191148,0.008885251509054327,-0.06926867203219315,0.3025352112676057,-0.35830985915492874,0.07243460764587084
50.7459,67214.907,0.09781313441320473,0.4690963126306248,0.05209514733335546,0.01957810865191147,-0.014334748490945673,-0.11202867203219316,0.5425352112676056,0.1816901408450704,-0.0475653923541266
50.767,67214.927,-0.03218778903338196,0.4661189788266433,-0.10807758039044144,0.025078108651911468,0.05041525150905432,-0.14378867203219317,0.12253521126760569,0.3016901408450714,-0.22756539235412632
50.7951,67214.9471,-0.19068241153442395,0.4444385883339045,-0.2586410572039811,0.07760810865191148,0.08340525150905433,-0.14440867203219315,0.4225352112676057,0.061690140845071184,-0.1675653923541276
50.8073,67214.967,-0.37172502091027987,0.4255857692996661,-0.369617689855435,0.06966810865191148,0.032095251509054325,-0.11385867203219316,0.48253521126760573,-0.11830985915492853,-0.4675653923541283
50.8276,67214.987,-0.5048709017321078,0.408155793202028,-0.417542410560259,0.004918108651911468,0.007045251509054325,-0.09247867203219316,0.6025352112676057,-0.05830985915492981,0.19243460764587184
50.849,67215.008,-0.5715570377151219,0.4002001627787456,-0.39686785453518625,-0.02745189134808853,0.007045251509054325,-0.01000867203219316,0.7825352112676058,-0.41830985915492924,0.2524346076458741
50.871,67215.0281,-0.5617075418588606,0.39916215072686234,-0.31828751413940126,-0.002411891348088532,-0.022884748490945676,0.09322132796780684,0.9025352112676057,0.3616901408450701,0.37243460764587155
50.8897,67215.049,-0.47895766283644303,0.4042668362466918,-0.20506926433717093,0.06478810865191147,-0.07664474849094567,0.15553132796780683,1.1425352112676057,0.6616901408450708,0.732434607645871
50.91,67215.069,-0.35701673887840935,0.41692676567403986,-0.08738572682218064,0.07760810865191148,-0.06503474849094566,0.13965132796780683,1.1425352112676057,0.061690140845071184,0.4324346076458738
50.9307,67215.089,-0.23303304925828017,0.43880285855693624,0.007006613066772763,0.01957810865191147,-0.03449474849094568,0.12621132796780685,0.9025352112676057,0.061690140845071184,0.49243460764587255
50.9492,67215.109,-0.14028058344892996,0.4631830489666645,0.05954061544224286,-0.024401891348088532,-0.011884748490945675,0.10971132796780685,0.6025352112676057,-0.23830985915492953,0.19243460764587184
50.9734,67215.1291,-0.10626750653632547,0.4802239802355104,0.06453430202954076,-0.020121891348088533,-0.047924748490945676,0.08162132796780684,0.3025352112676057,-0.35830985915492874,0.19243460764587184
50.9889,67215.149,-0.12273437776586427,0.48429688130435955,0.029798388539988854,0.022028108651911467,-0.033874748490945676,0.00953132796780684,0.12253521126760569,-0.23830985915492953,0.31243460764587283
51.0085,67215.169,-0.1775853198146396,0.482199650702374,-0.028278259701849842,0.036068108651911464,0.025375251509054328,-0.04788867203219316,0.1825352112676057,-0.05830985915492981,0.07243460764587084
51.0354,67215.19,-0.24599221485206585,0.4853205864695034,-0.09059531599504404,-0.015851891348088534,0.023545251509054323,-0.01917867203219316,0.12253521126760569,-0.47830985915492974,0.07243460764587084
51.0511,67215.2101,-0.30261559849988806,0.492827709813198,-0.14136924727962905,-0.06777189134808853,-0.013114748490945674,0.05596132796780684,0.002535211267605697,-0.598309859154929,-0.1675653923541276
51.069,67215.23,-0.3270022355195454,0.505761520620881,-0.17259684937354636,-0.031731891348088535,-0.027154748490945672,0.07978132796780683,0.002535211267605697,-0.6583098591549295,-0.10756539235412887
51.0881,67215.25,-0.3113700788913142,0.5210345060574426,-0.18352528846863703,0.03973810865191147,-0.007614748490945674,0.06451132796780684,-0.1174647887323943,-0.6583098591549295,-0.22756539235412632
51.1077,67215.27,-0.26411983892382507,0.5383982759834047,-0.17823856441826552,0.018358108651911467,-0.013724748490945673,0.03580132796780684,-0.1174647887323943,-0.5383098591549285,-0.0475653923541266
51.1277,67215.2898,-0.20588686423727676,0.5553606058965426,-0.16182540372979326,-0.049451891348088535,-0.027154748490945672,0.05168132796780684,0.002535211267605697,-0.5383098591549285,0.49243460764587255
51.1488,67215.3109,-0.15760994356013658,0.5635517036790159,-0.13748099865951444,-0.07571189134808852,-0.04609474849094568,0.06818132796780683,0.002535211267605697,-0.5383098591549285,0.01243460764587212
51.1727,67215.3309,-0.13080117572800387,0.5539762951003772,-0.10617680727581394,-0.031731891348088535,-0.04365474849094567,0.06329132796780684,0.002535211267605697,-0.41830985915492924,0.49243460764587255
51.1903,67215.351,-0.11770164963350127,0.5207016349504284,-0.06779628843049164,-0.009741891348088533,-0.02044474849094567,0.05901132796780684,0.3025352112676057,-0.47830985915492974,0.49243460764587255
51.2115,67215.3709,-0.11781274696574717,0.4767395313007069,-0.024462910979180137,-0.07144189134808852,0.010715251509054325,0.05290132796780684,0.12253521126760569,-0.29830985915492825,0.5524346076458713
51.2302,67215.391,-0.12237517134150946,0.4291865876072275,0.019904202414733965,-0.10626189134808853,0.00032525150905432596,0.022361327967806842,-0.0574647887323943,-0.41830985915492924,0.9124346076458707
51.2551,67215.411,-0.13043424737444165,0.3947477987982172,0.057962037855130155,-0.10931189134808852,-0.05953474849094568,0.007091327967806841,0.3025352112676057,-0.598309859154929,0.31243460764587283
51.2718,67215.4309,-0.13407681782634168,0.3615839557506121,0.08286045773422025,-0.08549189134808853,-0.08091474849094567,0.03336132796780684,0.0625352112676057,-0.23830985915492953,0.49243460764587255
51.2908,67215.451,-0.13679464866998997,0.34463595888276255,0.08874578786246416,-0.02745189134808853,-0.04120474849094567,0.06085132796780684,0.6025352112676057,0.061690140845071184,-0.10756539235412887
51.3121,67215.4709,-0.13966950011812218,0.34731076092322843,0.07614761229643975,0.04462810865191147,-0.03082474849094568,0.02297132796780684,0.6025352112676057,0.1816901408450704,0.01243460764587212
51.3337,67215.4909,-0.14472451388555296,0.37195900415509964,0.051848905746774754,0.004308108651911468,-0.06014474849094568,-0.016728672032193158,0.7825352112676058,0.4216901408450706,0.19243460764587184
51.3525,67215.512,-0.15721287614687807,0.4107585395712283,0.026453764308102853,-0.10259189134808852,-0.04059474849094567,-0.017348672032193157,0.8425352112676057,0.4816901408450711,-0.40756539235412603
51.3775,67215.5319,-0.17972803230050555,0.45595938806094616,0.009877490465772062,-0.07327189134808852,0.0009352515090543258,-0.028338672032193157,0.36253521126760574,0.12169014084507168,-0.527565392354127
51.3924,67215.5519,-0.21516710106418085,0.48429113468019436,0.008593916410615854,-0.02562189134808853,0.007045251509054325,-0.028948672032193156,0.6025352112676057,0.0016901408450706867,-0.767565392354129
51.4113,67215.572,-0.25719606441709886,0.5010638151512267,0.022277375131789262,-0.02990189134808853,-0.036934748490945676,0.011981327967806842,0.1825352112676057,0.12169014084507168,-0.647565392354128
51.4337,67215.5919,-0.30046730211946476,0.5053393404490469,0.046259374858699465,-0.00852189134808853,-0.04426474849094567,0.01564132796780684,0.0625352112676057,-0.05830985915492981,-0.4675653923541283
51.4523,67215.612,-0.33853105207207407,0.5007994306759368,0.07364473657561256,0.026908108651911466,-0.007614748490945674,-0.01123867203219316,0.3025352112676057,-0.23830985915492953,-0.1675653923541276
51.4714,67215.632,-0.3706089664478623,0.4892344263618673,0.09804983936585797,0.00919810865191147,-0.014334748490945673,-0.021618672032193156,0.002535211267605697,-0.05830985915492981,-0.2875653923541286
51.4912,67215.6519,-0.3963177393912727,0.4706115772777216,0.11540039866154546,-0.03417189134808853,0.013765251509054326,-0.003908672032193159,0.0625352112676057,-0.41830985915492924,-0.22756539235412632
51.512,67215.672,-0.41407739704401814,0.44404427854112083,0.12425272955978507,-0.026841891348088533,-0.002724748490945674,0.0022013279678068415,0.0625352112676057,-0.7183098591549282,-0.0475653923541266
51.5314,67215.692,-0.4217887636122053,0.40987979957277143,0.12511993297422896,-0.006071891348088532,0.005215251509054326,-0.01306867203219316,-0.0574647887323943,-0.5383098591549285,-0.1675653923541276
51.555,67215.713,-0.4175500871116208,0.3736572673932088,0.11941667653042896,0.01285810865191147,0.026595251509054327,-0.005128672032193159,0.4225352112676057,-0.5383098591549285,-0.0475653923541266
51.5793,67215.734,-0.4007335139120961,0.343870108305096,0.10861086909915206,0.029358108651911467,0.013765251509054326,0.025421327967806842,0.3025352112676057,-0.6583098591549295,-0.1675653923541276
51.5971,67215.7539,-0.36708987361403855,0.332300776418351,0.09364607897247955,0.037908108651911465,-0.014944748490945675,0.04130132796780684,0.48253521126760573,-0.5383098591549285,-0.2875653923541286
51.6179,67215.774,-0.31956413104141695,0.34094035055964345,0.07452966737267606,0.03240810865191147,0.0015552515090543257,0.035191327967806836,0.1825352112676057,-0.7183098591549282,-0.2875653923541286
51.6343,67215.795,-0.2644694348158826,0.36933212799255266,0.05073738083466296,0.03545810865191147,0.06874525150905433,0.011981327967806842,0.12253521126760569,-0.598309859154929,0.13243460764587311
51.654,67215.815,-0.2141981924721449,0.40737982821419416,0.022414514412751663,0.034238108651911466,0.058975251509054326,0.01931132796780684,-0.1174647887323943,-0.598309859154929,0.01243460764587212
51.6799,67215.835,-0.18036606379851727,0.4418774159563674,-0.008876417307872843,0.08005810865191147,-0.002724748490945674,0.05474132796780684,0.1825352112676057,-0.23830985915492953,-0.10756539235412887
51.7021,67215.856,-0.15839779759927686,0.47446617449571926,-0.04070674158243144,0.11914810865191147,-0.03510474849094568,0.059621327967806836,0.0625352112676057,-0.05830985915492981,0.01243460764587212
51.7153,67215.8759,-0.1418678986181784,0.5096242158271764,-0.07018020493241484,0.09104810865191147,0.012545251509054325,0.01320132796780684,-0.0574647887323943,0.061690140845071184,0.07243460764587084
51.735,67215.896,-0.131067030314379,0.5343813011953928,-0.09328845183437565,0.04217810865191147,0.06385525150905433,-0.01000867203219316,0.4225352112676057,-0.11830985915492853,0.732434607645871
51.7552,67215.916,-0.1268156272289398,0.5513111203615602,-0.10730643753969124,0.018358108651911467,0.07485525150905434,-0.018568672032193156,0.12253521126760569,-0.17830985915492903,0.49243460764587255
51.7782,67215.9359,-0.12968577220918526,0.5566214323947803,-0.11069043535947304,0.021408108651911468,-0.019214748490945677,0.0040413279678068416,0.48253521126760573,-0.11830985915492853,0.19243460764587184
51.7993,67215.956,-0.13341055758549425,0.5515436039727244,-0.10440430622814224,0.036688108651911466,-0.07969474849094567,0.03702132796780684,0.1825352112676057,-0.23830985915492953,-0.1675653923541276
51.8161,67215.976,-0.129252864855065,0.5445365267982144,-0.09202133936757324,0.06294810865191147,-0.019214748490945677,0.01014132796780684,-0.1174647887323943,-0.05830985915492981,-0.40756539235412603
51.8395,67215.997,-0.11971676840749168,0.5406628483393726,-0.07845530269533554,0.03545810865191147,0.041255251509054326,-0.006348672032193159,0.002535211267605697,-0.11830985915492853,0.13243460764587311
51.8576,67216.018,-0.11029629805083108,0.5467848048706417,-0.06892630068179365,-0.026841891348088533,-0.00028474849094567434,0.004651327967806841,-0.1174647887323943,-0.17830985915492903,0.49243460764587255
51.8781,67216.038,-0.10918878291782097,0.5599795007524152,-0.06717668717623775,-0.035401891348088535,-0.07175474849094567,0.014421327967806841,0.1825352112676057,-0.35830985915492874,0.6124346076458735
