AppTimestamp(s),SensorTimestamp(s),acc_x,acc_y,acc_z,gyro_x,gyro_y,gyro_z,mag_x,mag_y,mag_z,yaw_deg_ori,yaw_deg_ori_cal,yaw_deg,yaw_error,Quat_w,Quat_x,Quat_y,Quat_z,q_w,q_x,q_y,q_z,quat_angle_error_deg
0.0448,67164.1685,-0.506698850234981,0.7293058713288012,-0.3546058065026525,-0.2726660034510509,-0.0988850756187587,-0.09752837758684114,1.7929094122195377,13.793654042047777,-21.432391728738466,0.737865,0.4887375597169208,0.0,0.7378649999999993,0.909019750704958,0.41266751,0.05111048,0.02786284,1.0,0.0,0.0,0.0,49.2595242073944
0.0473,67164.1885,-0.7035315530861759,0.7368255772912402,0.15127177241190282,-0.19966769625562258,-0.1324569935967955,-0.17085828467710745,1.410761225785524,13.982106981479937,-21.377373379547237,0.63622,0.42322895813169986,0.0,0.6362200000000087,0.909882764849982,0.41091156,0.05045576,0.02681903,1.0,0.0,0.0,0.0,49.02168894826701
0.05,67164.2086,-1.0056857523237446,0.7983927072255614,0.6085979219718602,-0.12302057869519091,-0.17083355373912604,-0.242710777377543,1.1554290853512492,14.079068524891074,-21.32371805505326,0.638,0.42646281722377166,0.0,0.6380000000000052,0.910945922740425,0.40883482,0.04860223,0.02587352,1.0,0.0,0.0,0.0,48.72719984744831
0.068,67164.2285,-1.4205519918270701,0.8638358061995062,1.0023890584242388,-0.04379553478734228,-0.21703151861013265,-0.30724715929242463,1.0183200499172909,14.109675251417356,-21.21712640902964,0.544201,0.36413258932582865,0.0,0.5442009999999868,0.9113497233714104,0.40828469,0.04643522,0.02427064,1.0,0.0,0.0,0.0,48.614910458865445
0.087,67164.2485,-1.8941622825668303,0.8686597937977734,1.3515227939325882,0.03351420499359233,-0.27391349120140057,-0.35540708010122346,0.9610062709484933,14.049394645021788,-21.065218828476326,0.276446,0.18449349513561103,0.0,0.27644599999999286,0.9110705074063143,0.4092477,0.04462552,0.02180398,1.0,0.0,0.0,0.0,48.69258112714463
0.1212,67164.2686,-2.3405664463472404,0.7549553050088669,1.6887953399500475,0.1063568727970681,-0.3399538711165144,-0.37762782555438495,0.9740706758498138,13.890333246386838,-20.89473646503742,-0.204004,-0.13545934559709014,0.0,0.20400399999999763,0.910360301681055,0.41121644,0.04268083,0.01798631,1.0,0.0,0.0,0.0,48.88961974880548
0.1296,67164.2886,-2.6602171356840385,0.47361045481073827,2.0394335948908857,0.17829688532117302,-0.4047321905870886,-0.367332271952389,0.9335410481788814,13.684463681272856,-20.72039945472745,-0.734058,-0.48393199562700384,0.0,0.7340580000000045,0.9091742080419444,0.41407499,0.04168884,0.01435976,1.0,0.0,0.0,0.0,49.21703701274564
0.1479,67164.3085,-2.8533517606515324,0.06685296000895935,2.3736743700474,0.257727242032633,-0.4524406815265546,-0.3169018483004268,0.8713343970186991,13.43474512557924,-20.591217635188325,-1.027834,-0.673380444995756,0.0,1.0278340000000128,0.9082069850615092,0.41645756,0.0397983,0.0118012,1.0,0.0,0.0,0.0,49.48253130735399
0.1667,67164.3285,-2.913397858678098,-0.4285015584505407,2.6207663840275295,0.34988488444731597,-0.4663646196552169,-0.22034429812238912,0.7483083634796136,13.248380174237091,-20.48924521621523,-1.233273,-0.8014773169007472,0.0,1.233272999999997,0.906945426045042,0.41948062,0.03733917,0.00958071,1.0,0.0,0.0,0.0,49.826825587221116
0.1892,67164.3495,-2.8455499394802883,-0.8795084167681102,2.673429249130308,0.45539037342389577,-0.4393104369482983,-0.07393567057137151,0.5318397447607252,13.104127990105503,-20.47441937182283,-1.522447,-0.9832974119358008,0.0,1.5224469999999997,0.9059863616780638,0.42177826,0.03526,0.00696737,1.0,0.0,0.0,0.0,50.0870824839555
0.2076,67164.3695,-2.694263451453104,-1.262660354850377,2.422719153807476,0.5703419374050593,-0.37086938719688467,0.11421985633526333,0.20828156706576023,13.084154282725066,-20.525024853586398,-1.468865,-0.9413894305974185,0.0,1.4688649999999939,0.904681045934915,0.42465097,0.03426934,0.00702646,1.0,0.0,0.0,0.0,50.43928097223452
0.2288,67164.3895,-2.477011361858051,-1.5760901143312074,1.8455496757240155,0.6808622460917872,-0.2759446031401876,0.32713752422162623,-0.19613154742467293,13.212338292282293,-20.621888606976047,-1.267261,-0.8025975175523157,0.0,1.2672609999999906,0.9025389398822454,0.42908505,0.0350673,0.0089312,1.0,0.0,0.0,0.0,51.01233437579146
0.2477,67164.4095,-2.212973024036888,-1.7941424552326994,1.0393405019110027,0.7735607799826423,-0.1762839408635253,0.5457162715693904,-0.6421226519331852,13.364374882690313,-20.79080023575592,-1.177891,-0.7372147064816978,0.0,1.1778909999999883,0.9002751222938659,0.43352306,0.03792603,0.01113898,1.0,0.0,0.0,0.0,51.611491138066356
0.2693,67164.4295,-1.865038945350367,-1.9362801994223382,0.16638774985374027,0.836435078533325,-0.08007626632605713,0.7501801591501174,-1.2260830098649445,13.411250856424132,-21.01489981854959,-0.945307,-0.5869050358866782,0.0,0.9453070000000139,0.8983222871518166,0.43673706,0.04490822,0.01615737,1.0,0.0,0.0,0.0,52.12318355787492
0.2901,67164.4495,-1.454268142787441,-2.049942086075391,-0.6643296724216938,0.843458792878186,0.002542531894882849,0.9359946163250301,-1.6969841424168326,13.381077358736816,-21.19122439422253,-0.501538,-0.3082382854741569,0.0,0.5015380000000107,0.8959527790801167,0.44061309,0.05131765,0.02225357,1.0,0.0,0.0,0.0,52.73785057213044
0.3086,67164.4695,-0.8743234840265355,-2.1808058363401512,-1.3907646763261532,0.7808516629977195,0.07940958937871867,1.1051557504491545,-2.1704940848972467,13.301321946211267,-21.243834202909188,0.10122,0.061296399684814304,0.0,0.10122000000001208,0.8924813728644395,0.44609183,0.05962492,0.0303965,1.0,0.0,0.0,0.0,53.62653900158204
0.3308,67164.4895,-0.1560586813997038,-2.2672635148149807,-1.9918131686533158,0.6472979965941588,0.1655160083605357,1.2743085410875938,-2.475992724458399,13.052470730211763,-21.27052524819849,0.878638,0.5269451092413785,0.0,0.8786379999999951,0.8898107127315118,0.44970322,0.06697959,0.03895695,1.0,0.0,0.0,0.0,54.30105847107928
0.3524,67164.5095,0.7100158442440802,-2.241930288849687,-2.4824198774321875,0.46845531315216693,0.28470263144657637,1.4535265927879306,-2.7844458179745213,12.579898285008941,-21.329569745780507,1.710975,1.0306230298260566,0.0,1.7109749999999906,0.8889287020991916,0.44888464,0.07697359,0.04882017,1.0,0.0,0.0,0.0,54.52212947119169
0.371,67164.5305,1.5336446232510246,-2.0543658603086996,-2.9230185268670583,0.24288610461759197,0.43990015953251593,1.6584185342776645,-2.8457002747326277,12.025624698859996,-21.418298145068007,3.306965,2.020027510776774,0.0,3.306964999999991,0.8896522621125782,0.4445771,0.084209,0.06147275,1.0,0.0,0.0,0.0,54.34083444178513
0.3941,67164.5516,2.2314923235494417,-1.7135805197904577,-3.3758464495366454,-0.023057294293140282,0.6023283072341256,1.8840658395323842,-2.800670450559335,11.626040487436018,-21.43386485460227,5.067873,3.135007325753665,0.0,5.067872999999992,0.8899532292169706,0.44061518,0.09076331,0.07485676,1.0,0.0,0.0,0.0,54.26525944612046
0.4111,67164.5715,2.784265347270207,-1.2126826537744164,-3.8211201600650258,-0.31762297361672753,0.731828866561996,2.096497237371392,-2.844554577264822,11.307845716286295,-21.42258353324388,6.644993,4.180459786542728,0.0,6.6449929999999995,0.8902005648302884,0.43550727,0.10014857,0.08858124,1.0,0.0,0.0,0.0,54.2030788155607
0.4318,67164.5915,3.223911443237605,-0.6203507881107471,-4.170081598494809,-0.6149746595963022,0.7688541694299142,2.2392748243352503,-3.058463823733226,11.010702337417666,-21.401014145830878,8.510543,5.483136912116086,0.0,8.510543000000013,0.8900438713630264,0.4284274,0.11400366,0.10618397,1.0,0.0,0.0,0.0,54.2424794903538
0.4512,67164.6115,3.5757873593950333,-0.03775136693704928,-4.324227380398237,-0.8605470101318411,0.6862626919882955,2.2573453963097223,-3.264340444314958,10.665330775302834,-21.397158065409688,10.849695,7.231717099546187,0.0,10.849694999999997,0.8902052393793068,0.41782337,0.12941748,0.12731606,1.0,0.0,0.0,0.0,54.201902990525056
0.4722,67164.6315,3.8150600993677317,0.4587207813525267,-4.24029374252024,-1.0016622794636139,0.511788217945099,2.127831890813238,-3.0860119366392196,10.29813768828588,-21.424163236911664,13.589314,9.442962819694456,0.0,13.589314000000002,0.892239793101423,0.40306845,0.13933632,0.14842293,1.0,0.0,0.0,0.0,53.68787643927694
0.4961,67164.6515,3.9425265901884985,0.8856828371199503,-3.983374636848035,-1.0025475145382048,0.2754159183081868,1.889397970422131,-2.5944701065751286,10.108302255476737,-21.366270741235766,16.49477,11.915510489054588,0.0,16.49476999999999,0.8945740589264233,0.38775855,0.1444162,0.16889204,1.0,0.0,0.0,0.0,53.09245735453693
0.5164,67164.6715,3.9652244011845506,1.3055227887781464,-3.621167398573645,-0.8820259264466481,0.018773276405323558,1.6050414856189534,-1.9062939238719183,10.239916221669834,-21.158304509333025,19.100697,14.195662336130363,0.0,19.100696999999997,0.8962414808889816,0.37533492,0.14550568,0.18628742,1.0,0.0,0.0,0.0,52.66331592976616
0.5426,67164.6925,3.8861312792194456,1.8032835960469704,-3.150808320896969,-0.7166944174022405,-0.2217499088045618,1.3230999682243212,-1.0800144336409998,10.67029424386141,-20.830257814707426,21.543194,16.295863543854942,0.0,21.543194,0.897222281832303,0.36638153,0.14233372,0.20124081,1.0,0.0,0.0,0.0,52.409365716546894
0.5549,67164.7125,3.699962858302679,2.410866261227998,-2.542099834971456,-0.5913110169722067,-0.4229046037005432,1.065064465492803,-0.19770645647945528,11.298501127062174,-20.435364753182586,24.174551,18.460233589412617,0.0,24.174551000000008,0.897307255416559,0.36028439,0.13532306,0.21615392,1.0,0.0,0.0,0.0,52.38731041998307
0.5718,67164.7325,3.4046829725660723,3.0270882679655697,-1.7989903302320087,-0.5655445161273412,-0.574208474038673,0.8250132960557601,0.668143262173154,12.011619731281172,-20.016338665294743,26.849234,20.56408228064581,0.0,26.849233999999996,0.8966085230055678,0.35685879,0.12529774,0.23031595,1.0,0.0,0.0,0.0,52.56841436125883
0.5922,67164.7525,3.0086083394415812,3.448433088446895,-0.9462318922680559,-0.6497399520578557,-0.6874254445370662,0.5814736021821866,1.402590085617422,12.739214804838296,-19.580494190794266,29.468445,22.504296534130486,0.0,29.468445000000003,0.8947430169941435,0.35653833,0.11410829,0.24350493,1.0,0.0,0.0,0.0,53.04911959560891
0.6114,67164.7725,2.5781338144152923,3.5283225199279884,-0.00010022068844861565,-0.7952950825514571,-0.7766395641187822,0.32291876510843515,1.951667099946051,13.30699221972877,-19.20603009645582,31.527617,24.00813759539402,0.0,31.527616999999992,0.8932125682585903,0.35666287,0.10375392,0.2533733,1.0,0.0,0.0,0.0,53.440490273144654
0.6352,67164.7925,2.1820695614097603,3.3674140653872797,1.0551015772888057,-0.9120736324868901,-0.8483360906459966,0.057064062415374,2.3374308268031014,13.473237298664714,-19.042192092781356,32.587055,25.042609490692577,0.0,32.58705499999999,0.8948345276030545,0.35097322,0.0954901,0.2587868,1.0,0.0,0.0,0.0,53.025633401947566
0.654,67164.8125,1.8298350457091446,3.137668046193788,2.264023490207716,-0.9164978563949087,-0.8990353221263232,-0.2099156298694831,2.574316891358038,13.358272964823035,-19.008508705998537,33.15099,25.9651435201581,0.0,33.15099000000001,0.8987335762076682,0.3398082,0.08831055,0.26269677,1.0,0.0,0.0,0.0,52.015804832304035
0.7032,67164.8325,1.4765660638291305,2.8716623854881824,3.5662910710066686,-0.7905506779750956,-0.8932362202305713,-0.4781474761834017,2.861241003990786,13.312899667586045,-18.8618945798395,33.604588,26.714341042804698,0.0,33.60458800000001,0.9028629883400778,0.32994473,0.0772567,0.26458704,1.0,0.0,0.0,0.0,50.926031911812274
0.713,67164.8525,1.075171718743305,2.518113432047973,4.738104221160125,-0.5660991803144366,-0.8030269287871776,-0.7349985343130971,3.2822021748150476,13.525941428941643,-18.50430435663296,33.944752,27.087688883136924,0.0,33.944751999999994,0.9058885388609768,0.32606333,0.0614948,0.26318634,1.0,0.0,0.0,0.0,50.11355712694892
0.7159,67164.8725,0.6953051827181271,2.1341045993135914,5.525511281612673,-0.2788877004103077,-0.6541821849610839,-0.9572053311725184,3.621888071553646,13.837403085089344,-18.121433481646875,33.959808,27.071296642826173,0.0,33.95980800000001,0.907848768974688,0.32571277,0.04835537,0.25958344,1.0,0.0,0.0,0.0,49.58052033533494
0.739,67164.8925,0.37395093002042756,1.8328809632033725,5.829646969956597,0.05109678623465863,-0.5060066641048259,-1.1437638716519039,3.8845206988565724,13.983916371696528,-17.93203089991998,33.249897,26.561708067333797,0.0,33.249897000000004,0.9108328060140348,0.32374433,0.04052219,0.25284612,1.0,0.0,0.0,0.0,48.75861194482288
0.7508,67164.9125,0.08424193369234967,1.5105007097869496,5.7316399705799945,0.4149513775350765,-0.3999066837142906,-1.310241534874124,4.1552733264666175,14.051122649203926,-17.844290819916264,32.052326,25.618586920743613,0.0,32.052325999999994,0.9141424140255022,0.32276607,0.03439847,0.24286304,1.0,0.0,0.0,0.0,47.831538883043926
0.7736,67164.9325,-0.15907148314554576,1.0829390768633358,5.364159138816701,0.7853309310770712,-0.3407856674347248,-1.462039079904471,4.379311218009571,14.189508486574294,-17.721467613250507,30.819733,24.45772244147374,0.0,30.819732999999985,0.9160466428562124,0.32662097,0.02742594,0.23113872,1.0,0.0,0.0,0.0,47.290391632888806
0.7934,67164.9533,-0.3502969666508218,0.579303888394624,4.828084472545484,1.1187498856202398,-0.3051029146691413,-1.5930871693833155,4.5126530623902426,14.403925605748979,-17.547814688874308,29.833088,23.324578104019544,0.0,29.833088000000004,0.9161025631036152,0.33524683,0.01806443,0.21917877,1.0,0.0,0.0,0.0,47.27441192600979
0.8128,67164.9735,-0.505074460115829,0.020039545034586936,4.174134834847404,1.3757188499842887,-0.262885039557763,-1.6907955447775358,4.638853829359088,14.631186860750155,-17.363396779632204,28.933714,22.147348083204342,0.0,28.93371400000001,0.9148948263716972,0.34747666,0.0046981,0.20543942,1.0,0.0,0.0,0.0,47.6184091679396
0.8321,67164.9935,-0.5765147030836921,-0.5313194320547892,3.427363042223636,1.5300788239623768,-0.19095111780903795,-1.752778771484191,4.642459066160381,14.795999592931587,-17.30925555339106,28.001436,20.91949445932237,0.0,28.001436000000012,0.9127700193556998,0.36108929,-0.00846583,0.19077145,1.0,0.0,0.0,0.0,48.21800174415816
0.8567,67165.0145,-0.5909544996311684,-1.0312459977836053,2.6196223091678306,1.5863899324916626,-0.08772966051893594,-1.7827392074607706,4.5908995714112475,14.881036350233302,-17.43945563174579,26.796526,19.495726278585337,0.0,26.796526,0.910232620526983,0.37512979,-0.02015443,0.17420682,1.0,0.0,0.0,0.0,48.92496444722006
0.8768,67165.0345,-0.5861786610580089,-1.4137818725775633,1.7924760879329185,1.570036970895679,0.03560979173302581,-1.7913666396574646,4.540936781355871,14.873590479431412,-17.774506786819554,25.300613,17.927933560385398,0.0,25.300613,0.9077251910848212,0.38816175,-0.0296852,0.15647435,1.0,0.0,0.0,0.0,49.61428266172263
0.8971,67165.0545,-0.5890236785366338,-1.6621124087773742,0.9719802308031724,1.508921309671743,0.1718616511544777,-1.7913647172599894,4.469062229292756,14.784791730458238,-18.28032899022387,23.811769,16.466843272767363,0.0,23.811768999999998,0.9052593668857104,0.39936319,-0.03651056,0.14029077,1.0,0.0,0.0,0.0,50.28352379994088
0.9175,67165.0745,-0.6361502874111868,-1.8399108317150166,0.14743074323797956,1.4226579301082025,0.30677920460589114,-1.7875420384086875,4.44647009267851,14.643360182241029,-18.841361111527974,22.105747,14.916828498400234,0.0,22.105747000000008,0.9027707514983118,0.40988633,-0.04227041,0.12333442,1.0,0.0,0.0,0.0,50.95061085049122
0.9379,67165.0945,-0.7602742439663803,-1.9473713786786182,-0.6969263015832166,1.3228397613016698,0.4238258679810729,-1.7744679948674353,4.443574358292438,14.395281398294692,-19.424101730689873,20.046394,13.238046201805554,0.0,20.046393999999992,0.900865192179112,0.41851333,-0.04724715,0.10514849,1.0,0.0,0.0,0.0,51.45594608188421
0.9548,67165.1145,-0.9645111351288356,-1.977572894521919,-1.5641821027020573,1.2125101655596775,0.5130725978364793,-1.7449859144038562,4.397396836134474,14.07305551984191,-19.960659115795067,17.589865,11.387897341854446,0.0,17.589865000000003,0.8992887717531066,0.42584386,-0.05130973,0.08546358,1.0,0.0,0.0,0.0,51.87052725931058
0.9779,67165.1345,-1.1974061459872398,-1.8821933821761165,-2.412717182788432,1.0860467009091432,0.566177638913364,-1.7035612139476992,4.205593699526766,13.707783623004492,-20.43535156163047,14.770483,9.392035830166549,0.0,14.770483000000013,0.8980055702727768,0.4318662,-0.05309125,0.06526025,1.0,0.0,0.0,0.0,52.205731507019145
1.0015,67165.1545,-1.4079096973316614,-1.638337062303353,-3.1768902363715608,0.9413771354333773,0.5795217457167364,-1.6633586699150409,3.884801007270696,13.318860906445803,-20.846730955137676,11.819186,7.410419705926471,0.0,11.819186000000002,0.8971606942073637,0.43609336,-0.05299069,0.04601366,1.0,0.0,0.0,0.0,52.4253456868792
1.0158,67165.1755,-1.5494743586237356,-1.2967415187569409,-3.808082050941266,0.7743531289061963,0.5626219044762406,-1.6397458068774102,3.4803611620684927,12.956297272942003,-21.18755361456893,8.846693,5.48823365172503,0.0,8.846692999999988,0.8966062152739667,0.43894026,-0.05139964,0.02805031,1.0,0.0,0.0,0.0,52.56901154010494
1.0393,67165.1955,-1.6290998971122639,-0.9396679783312472,-4.297715994832092,0.5847386105260755,0.5325122814998099,-1.6354893615570991,3.1389809801371538,12.653328719868798,-21.454275163031802,5.753175,3.542568039183261,0.0,5.753174999999999,0.8961423791793207,0.44078675,-0.05044536,0.00954688,1.0,0.0,0.0,0.0,52.68891222327933
1.0545,67165.2156,-1.6625724774480164,-0.6377532095006724,-4.6547690418428385,0.36464406889992895,0.5145015393941977,-1.6419496135790683,2.865638757697333,12.413517652533889,-21.68027061486461,2.576056,1.5805175490046235,0.0,2.576055999999994,0.8958782658273402,0.44141036,-0.04974518,-0.00918934,1.0,0.0,0.0,0.0,52.75707191309672
1.0742,67165.2354,-1.6790321117661016,-0.41391213511056346,-4.8831922513598345,0.11006290527799564,0.5324685578959937,-1.6447319634028716,2.6548612050075278,12.208349723529386,-21.902147124936377,-0.790111,-0.48538529990857215,0.0,0.790110999999996,0.895975261930541,0.4404577,-0.04896631,-0.02876882,1.0,0.0,0.0,0.0,52.7320496481538
1.0933,67165.2555,-1.7242047242164689,-0.2533672136165661,-4.979417800152622,-0.1736069714175006,0.6031495896784013,-1.6348974494108286,2.491264968488889,11.983974260503487,-22.158590148262356,-4.138339,-2.5629681975969585,0.0,4.138339000000002,0.8967539851407763,0.43727848,-0.04799313,-0.04812983,1.0,0.0,0.0,0.0,52.53075994898838
1.1138,67165.2755,-1.8641914731437932,-0.1489465154409091,-4.940580311262612,-0.47234420871427696,0.730221135619357,-1.611521001234031,2.3714547705807343,11.749358906648421,-22.448456480746447,-7.265067,-4.558757831182696,0.0,7.265066999999988,0.897990971482146,0.43243837,-0.0469095,-0.06639857,1.0,0.0,0.0,0.0,52.20953355711917
1.1382,67165.2955,-2.1543672868628176,-0.09256463261519299,-4.756422139323169,-0.7721400418485039,0.8898054789052676,-1.5760694039754495,2.252050798193988,11.480993866644729,-22.795874008833415,-10.327196,-6.6078740923272585,0.0,10.327196000000015,0.9000335565723903,0.42522898,-0.04479059,-0.08434284,1.0,0.0,0.0,0.0,51.67504310200787
1.1582,67165.3165,-2.577100960786159,-0.06901840231493717,-4.387484338095689,-1.0645454968135146,1.043142794471943,-1.518500854964774,2.0087212818283433,11.175316352670315,-23.219358640766252,-13.915105,-9.15762642947501,0.0,13.915105000000011,0.9031375032480458,0.41450191,-0.03902091,-0.1049199,1.0,0.0,0.0,0.0,50.85281457485907
1.1821,67165.3375,-3.0562024130776617,-0.07003435883641673,-3.7763320522057278,-1.337177124293401,1.1566411064327289,-1.4224085850499928,1.601862425664362,10.92000874956883,-23.663102211824977,-17.890289,-12.182896193726666,0.0,17.890288999999996,0.9067079557780684,0.40093279,-0.02876699,-0.12769511,1.0,0.0,0.0,0.0,49.89138515035861
1.2074,67165.3575,-3.5097642191218292,-0.08869617396816754,-2.8953199009282677,-1.5712176888874148,1.2122790395145873,-1.2859539458339624,1.1498826633368884,10.78525293636828,-24.044289816552737,-21.398598,-15.104629009034777,0.0,21.398597999999993,0.9103423190059045,0.38591281,-0.01643639,-0.14858671,1.0,0.0,0.0,0.0,48.894599163931666
1.219,67165.3775,-3.8562681564793078,-0.05651052801184919,-1.768817464009043,-1.7468558560242775,1.219599518978093,-1.116742486340578,0.723126955885038,10.667961992956485,-24.35632722078803,-24.226755,-17.788204889432922,0.0,24.226754999999997,0.9146294251958316,0.36808527,-0.00397982,-0.16718376,1.0,0.0,0.0,0.0,47.69368956123871
1.245,67165.3975,-4.129119748907441,0.060265557959222615,-0.5218621112070512,-1.8419112065594017,1.2065171820452878,-0.9231403175841536,0.46646761930532854,10.585614603017902,-24.549766895944447,-26.16046,-19.952101555111653,0.0,26.16046,0.9192016191345403,0.34904799,0.00559895,-0.18221563,1.0,0.0,0.0,0.0,46.380716430835335
1.2586,67165.4175,-4.353052751371418,0.28419184210867376,0.7240167916438391,-1.844870317641458,1.1901708474898003,-0.693389204873301,0.3565250317619224,10.592002386084761,-24.59109353187838,-27.699404,-21.85142778212275,0.0,27.699404000000015,0.9232150341965072,0.33037427,0.01280987,-0.19586411,1.0,0.0,0.0,0.0,45.19856359057707
1.2809,67165.4385,-4.375248810201516,0.6595657108918171,1.9417051864076011,-1.7574543843218435,1.1470364815104883,-0.40765745753475213,0.10098888701754927,10.645340242376376,-24.518468067028063,-29.410053,-23.988385479716175,0.0,29.410053000000005,0.9266456378118708,0.3104167,0.02298847,-0.21081002,1.0,0.0,0.0,0.0,44.164348002519574
1.3006,67165.4585,-4.060191703007829,1.086076890682202,3.09927268510876,-1.5875501058271217,1.0266528208979,-0.08482062081959733,-0.3900528620008592,10.857487690974162,-24.315101837521198,-30.760202,-25.85699998733375,0.0,30.760201999999992,0.92968002634298,0.29130366,0.03798654,-0.22224817,1.0,0.0,0.0,0.0,43.230016456362016
1.3243,67165.4795,-3.419590463345215,1.5196572289048134,4.111998464874011,-1.3461309962825738,0.8158659162152989,0.21660810363435945,-0.9126322613547878,11.160403914948297,-24.045189018752406,-31.197674,-26.92384060948004,0.0,31.197674000000006,0.9332259070554214,0.27342337,0.05335869,-0.22689627,1.0,0.0,0.0,0.0,42.113215283690266
1.3406,67165.5005,-2.6207865273832645,1.8157953400823548,4.91985239992813,-1.053743771627973,0.5541253101796233,0.4577689122810248,-1.172299441806167,11.657592517049201,-23.701994336687953,-30.993917,-27.206725990951192,0.0,30.99391700000001,0.9361798004215728,0.2612431,0.06414444,-0.22628503,1.0,0.0,0.0,0.0,41.160813082354466
1.3609,67165.5205,-1.747956001653733,1.9286274010215805,5.539955502699316,-0.7335991111756469,0.2925081011741243,0.6346889338501891,-1.260915219528784,12.220448634327765,-23.35921608768297,-30.492662,-27.05674297669723,0.0,30.492661999999996,0.938605171056686,0.25336286,0.07177701,-0.22288036,1.0,0.0,0.0,0.0,40.36276573213527
1.3819,67165.5405,-0.9700656059588231,1.860296970202687,5.9744547513871815,-0.4004756921066212,0.07608743083513006,0.7573123700396919,-1.1689961019699013,12.696013882781212,-23.098864583067627,-29.737803,-26.554446599651378,0.0,29.737802999999985,0.9409248158814976,0.24830158,0.07556898,-0.21747677,1.0,0.0,0.0,0.0,39.58509668502693
1.4026,67165.5605,-0.4066092512403139,1.6727796421393517,6.19125054024936,-0.06093364442866597,-0.06859286702422629,0.8473694741360871,-0.9090281955307987,12.962632334857693,-22.98237997928507,-28.72875,-25.74542604885671,0.0,28.72874999999999,0.9435304869790698,0.24447973,0.07531943,-0.21049196,1.0,0.0,0.0,0.0,38.69366259964655
1.4224,67165.5805,-0.031979805797591965,1.3512578821490742,6.137750033209503,0.28219953842017115,-0.14650885419167609,0.9227801554334701,-0.6363679004506045,13.136365846228502,-22.926213798396706,-27.68899,-24.82195864758141,0.0,27.68898999999999,0.9455328436179506,0.24364324,0.07476673,-0.20252296,1.0,0.0,0.0,0.0,37.99497770731124
1.4424,67165.6004,0.17864330699081865,0.97064910874197,5.7624991993057275,0.6167493846152465,-0.17938764301617616,0.9870503930472061,-0.47211558555762345,13.279934561846973,-22.87909608948499,-26.6381,-23.825994485636578,0.0,26.63810000000001,0.9467634794797396,0.24590197,0.07630556,-0.19325785,1.0,0.0,0.0,0.0,37.559364598978796
1.4631,67165.6214,0.21461511320188587,0.5688408806563654,5.081897886112692,0.9196193396007838,-0.19327037915025858,1.039560745665212,-0.43147167139935133,13.500368760311812,-22.767902417700707,-25.527519,-22.69599134833238,0.0,25.527519000000012,0.9469963392070824,0.25228232,0.08021714,-0.18198015,1.0,0.0,0.0,0.0,37.47638940365393
1.4842,67165.6425,0.05904156795785376,0.21608667128254666,4.175264945442365,1.1637389769845592,-0.20301578751145855,1.0892555424362054,-0.38231992610405496,13.761499938704668,-22.598913237260128,-24.450809,-21.535305578625717,0.0,24.450808999999992,0.946362040995942,0.26144359,0.0840335,-0.17024837,1.0,0.0,0.0,0.0,37.7019963357222
1.5044,67165.6625,-0.24386505108099144,-0.10846586317750884,3.147243309677613,1.3311378369621967,-0.21440109803143026,1.1508083254045522,-0.27488488916264614,14.061669335242755,-22.346359568928595,-23.365221,-20.30582775978992,0.0,23.36522099999999,0.9449255638288616,0.27317026,0.08682401,-0.1579724,1.0,0.0,0.0,0.0,38.20817573180938
1.5258,67165.6835,-0.5762282665215688,-0.4306320563117412,2.0946860700590157,1.4188244700359918,-0.23063078213560484,1.2315482715368007,-0.17193618219999088,14.345353997135673,-22.00717761332489,-22.283195,-19.051570070893177,0.0,22.283195000000006,0.9427412084381008,0.2865392,0.08969698,-0.14521967,1.0,0.0,0.0,0.0,38.96575387905817
1.5521,67165.7035,-0.8473409523120699,-0.7709221214143867,1.1009430993761509,1.437596415133903,-0.25815789527229593,1.3306909396316975,-0.1325538869133733,14.503034699993377,-21.62699764272834,-21.130733,-17.757455590529112,0.0,21.130732999999992,0.9402310931600352,0.29987815,0.0932532,-0.13169065,1.0,0.0,0.0,0.0,39.819196470428594
1.5695,67165.7245,-0.9994817807434442,-1.1614119556402471,0.21758755360814774,1.414689798072671,-0.3075095477011158,1.4413706981878522,-0.19274328906344737,14.458901861765078,-21.275787447127346,-19.810831,-16.382055097267127,0.0,19.810831000000007,0.9378515324426075,0.3118023,0.09758565,-0.11700799,1.0,0.0,0.0,0.0,40.61235199815026
1.5875,67165.7445,-0.9883802571847147,-1.6002770668269202,-0.5498680228880239,1.3865713382038842,-0.3850663866535936,1.5555387789207282,-0.3550987638449445,14.198573486486081,-21.03429083847919,-18.248487,-14.892178315172199,0.0,18.24848700000001,0.936013902920301,0.32124162,0.10230893,-0.10106769,1.0,0.0,0.0,0.0,41.21485962227173
1.6117,67165.7645,-0.7529987151539403,-2.037678476025056,-1.2286312154489032,1.3852203596076609,-0.48701341829200995,1.6639194708708835,-0.6142539995082608,13.786551934927981,-20.946799105874465,-16.576336,-13.400957540526564,0.0,16.576335999999998,0.9346806408833218,0.32803032,0.1074828,-0.08494502,1.0,0.0,0.0,0.0,41.646777232079806
1.6299,67165.7845,-0.28407391971679996,-2.416108380896723,-1.8648174816133354,1.4156307028325448,-0.5929720160611104,1.765323667076041,-0.8948313722762476,13.373283173994002,-20.97460999189911,-14.608624,-11.703171534936304,0.0,14.608623999999992,0.9335255001551452,0.33402106,0.111499,-0.06729075,1.0,0.0,0.0,0.0,42.017559715255764
1.6436,67165.8045,0.3918520185873538,-2.641986538347797,-2.482770289290867,1.4621378012905952,-0.6687140034779737,1.8608063568220272,-1.1537770042252413,13.02339668714377,-21.07948272734808,-12.28262,-9.73928581173656,0.0,12.282620000000009,0.9323605911717148,0.33986878,0.11359722,-0.04783944,1.0,0.0,0.0,0.0,42.38834047290904
1.6636,67165.8244,1.1624829795611824,-2.6300989255403184,-3.0837703854976777,1.4909312756756523,-0.6804217554939986,1.9578393680403967,-1.361458529572976,12.707100954578117,-21.22221012274513,-9.509508,-7.455931826459729,0.0,9.509508000000011,0.931247492618856,0.34532434,0.11329008,-0.02635461,1.0,0.0,0.0,0.0,42.73976245868975
1.6844,67165.8445,1.8678065256658813,-2.354942376737125,-3.6645763118748746,1.461488813592668,-0.617085161637892,2.0638493555615187,-1.5144287923011808,12.350756907814581,-21.365671404593094,-6.374101,-4.941601102283734,0.0,6.374100999999996,0.9300977859368712,0.35008723,0.11110677,-0.00351079,1.0,0.0,0.0,0.0,43.09987369872198
1.7036,67165.8645,2.3892036668315075,-1.896348965048985,-4.2206801867797745,1.3418624471326532,-0.501479367350728,2.1794256073640303,-1.6641577671774204,11.955756873202137,-21.45619944036039,-3.031667,-2.3212964195467003,0.0,3.031666999999999,0.9281146849309514,0.35539138,0.10900608,0.0204395,1.0,0.0,0.0,0.0,43.714379158254225
1.724,67165.8845,2.704463228837657,-1.3746067671375886,-4.69545745085382,1.1165918769445509,-0.366724622577272,2.3071640055084526,-1.8207988981192111,11.478859764969755,-21.52639151624799,0.434989,0.32927030125585793,0.0,0.4349890000000016,0.9253761755702402,0.3604221,0.10831118,0.04520544,1.0,0.0,0.0,0.0,44.54970485948522
1.749,67165.9045,2.880938803558233,-0.9055554317870327,-4.988786145894455,0.7871960584637113,-0.24609208553174988,2.4494276559541577,-1.8347246486774147,10.915236834861686,-21.640846477303995,4.021785,3.020317219359622,0.0,4.021784999999994,0.9227380981263864,0.36356425,0.10719535,0.06988988,1.0,0.0,0.0,0.0,45.340572263895986
1.772,67165.9245,3.0661881566663873,-0.511699758273676,-5.035568978575721,0.3998622960955128,-0.16003498635896363,2.5863009640234473,-1.7325340637246875,10.33422144169492,-21.808416371040867,7.683103,5.761316706144029,0.0,7.6831029999999885,0.9204898465296668,0.36375421,0.10677476,0.09476533,1.0,0.0,0.0,0.0,46.00440095185546
1.784,67165.9445,3.334098585463587,-0.09539186271202382,-4.82701732481833,0.01833998282656024,-0.11258655323572442,2.680901058064315,-1.5593011103223944,9.755792814779102,-22.01752904929691,11.435427,8.654821160487572,0.0,11.435427000000004,0.9191751323017844,0.35904938,0.10793781,0.12062358,1.0,0.0,0.0,0.0,46.388423458866406
1.8101,67165.9645,3.60438909482687,0.4664385561609232,-4.412856222333684,-0.31186577647356356,-0.11034993032628382,2.6860446620764744,-1.264271180956455,9.225607611236493,-22.205875902146325,15.580264,12.030679135906153,0.0,15.580264,0.9187427250519572,0.34881827,0.10908722,0.14945768,1.0,0.0,0.0,0.0,46.51407289513842
1.8385,67165.9855,3.7599743892133217,1.1549395316750217,-3.8961708227221505,-0.5506632354837232,-0.18219264361727983,2.5688299103434153,-0.9200385897121932,8.972803782228748,-22.226964788564352,19.874716,15.666518358550737,0.0,19.874716000000006,0.917158006671452,0.33804312,0.11032405,0.17993511,1.0,0.0,0.0,0.0,46.97184849942536
1.8549,67166.0055,3.7362708759922505,1.8692261570966437,-3.3390033994642794,-0.6937287353596048,-0.3180449826406617,2.334257182146745,-0.561600601188879,9.00876182407006,-22.06195616012753,23.919992,19.198053696738192,0.0,23.919992000000008,0.9143499379448528,0.32839516,0.11142822,0.20905636,1.0,0.0,0.0,0.0,47.772844678060316
1.865,67166.0255,3.532349658897725,2.46759401608058,-2.725305572749173,-0.7872120372808835,-0.48156048322358047,2.0119806474163613,-0.012774171719725391,9.293907584484487,-21.741323497037435,27.450979,22.32395654585979,0.0,27.45097899999999,0.9116526806985574,0.32037887,0.10837838,0.23345427,1.0,0.0,0.0,0.0,48.53050349684451
1.8847,67166.0455,3.182748504816874,2.8891569060919915,-2.0560831987768147,-0.8755187129794095,-0.6380036845793888,1.6416072213385946,0.714269913038633,9.779146103080313,-21.3019305845438,30.733925,25.219427550159693,0.0,30.733925,0.9090594862094864,0.31379697,0.10080498,0.25491306,1.0,0.0,0.0,0.0,49.24859728761029
1.905,67166.0655,2.7548845553661456,3.103948513574875,-1.380150178084536,-0.9787649422222708,-0.7637060404195999,1.258328774885536,1.4946926411675867,10.400949900476416,-20.789888601897644,33.62405,27.752501278853604,0.0,33.62405000000001,0.9066268042159668,0.3087123,0.09052785,0.27300048,1.0,0.0,0.0,0.0,49.913429400230655
1.9255,67166.0855,2.3340124552940242,3.1643707274201516,-0.7436145821107214,-1.084295528498469,-0.8516727963825644,0.8882416055178446,2.1722676418673212,10.970993415548701,-20.320415507705736,35.737297,29.70755041090832,0.0,35.73729700000001,0.9053717219743964,0.3028954,0.08093219,0.2863676,1.0,0.0,0.0,0.0,50.25321124137889
1.9456,67166.1065,1.94709648274284,3.195015450935492,-0.12463818294168938,-1.15271152465274,-0.9173722142705321,0.5421093744938753,2.652255275940492,11.305999199211351,-20.016027694463133,37.186611,31.328380297306513,0.0,37.186611,0.9058032903115956,0.29294541,0.07412665,0.29699937,1.0,0.0,0.0,0.0,50.13661802199062
1.9696,67166.1265,1.571071422724236,3.1904629970316782,0.5569307129157153,-1.15063974259477,-0.9724230139455466,0.20938108177219603,3.0368290151936725,11.510088474070923,-19.803156364736637,38.258305,32.69833095702764,0.0,38.25830500000001,0.9072295632046732,0.28151032,0.06665849,0.30535734,1.0,0.0,0.0,0.0,49.74947593038758
1.9919,67166.1465,1.197306201070126,3.1161345262821905,1.3202153714065474,-1.0674999959430982,-1.007650793122198,-0.10811037760283448,3.3806746852134784,11.690710074049102,-19.59417213797446,39.001438,33.70065434126458,0.0,39.00143800000001,0.9090828162551844,0.2717579,0.05677272,0.31063312,1.0,0.0,0.0,0.0,49.24218066769804
2.008,67166.1675,0.8564166829532702,2.9900448332636036,2.134008858270647,-0.9198587346137037,-1.011350484281259,-0.38973018304434126,3.6470493483219153,11.857693105120253,-19.390155329137087,39.234409,34.15251770958304,0.0,39.234409,0.9114889022640617,0.26447082,0.04608303,0.31164005,1.0,0.0,0.0,0.0,48.57615092638005
2.0275,67166.1875,0.534186217155713,2.8683610007592373,2.9717630794113603,-0.7312484627629201,-0.9800994854678013,-0.6247289582377855,3.870358198357645,12.014628419216109,-19.209802266056254,38.973175,34.10743885369939,0.0,38.973175,0.9146677943505288,0.25871599,0.03471101,0.30861628,1.0,0.0,0.0,0.0,47.682813164972416
2.0686,67166.2075,0.18447614260744416,2.749695374862883,3.787141474588994,-0.5062059559173742,-0.916295181454854,-0.8232913026390938,4.044887978456578,12.26361902087228,-19.02643271469991,38.693428,33.97462541446502,0.0,38.69342799999998,0.917379341000906,0.25496975,0.02214401,0.30481997,1.0,0.0,0.0,0.0,46.90816527852032
2.0705,67166.2275,-0.14353110958274584,2.6550998394826317,4.465886812469655,-0.24372882897032727,-0.8295925526574286,-0.9955681826788233,4.109094084430026,12.54654864836531,-18.909740041105326,38.323093,33.747569475702214,0.0,38.323093,0.919835975526188,0.2519708,0.01090592,0.30048886,1.0,0.0,0.0,0.0,46.195771106721175
2.0862,67166.2475,-0.40895370453859936,2.499347353971266,4.919405466403667,0.05600797670675295,-0.7351647698550566,-1.1529195498158247,4.094236610919932,12.854969693080264,-18.84810927651069,37.720211,33.26209792167471,0.0,37.720211000000006,0.9222520047956144,0.25061649,0.00131461,0.29434824,1.0,0.0,0.0,0.0,45.48487530363591
2.1092,67166.2675,-0.6059544838921846,2.197425408454052,5.134627052857557,0.38425194497281545,-0.6476674108511817,-1.2920411030828338,4.089279517952779,13.186371585134326,-18.791651108724036,36.82502,32.427301433775455,0.0,36.825019999999995,0.924663346987954,0.25197396,-0.00784843,0.28538609,1.0,0.0,0.0,0.0,44.76470954505678
2.1253,67166.2875,-0.7287122127916623,1.7491811600487939,5.168554333374207,0.7208980394206498,-0.570349509711491,-1.3982966822116851,4.150574563616411,13.52827164016611,-18.709592463592347,35.648277,31.245956726841232,0.0,35.64827700000001,0.9269343756272332,0.2564635,-0.01745184,0.27333966,1.0,0.0,0.0,0.0,44.0762524214934
2.1452,67166.3075,-0.8130839676123092,1.2369603982313642,5.079847507742073,1.0455794001833258,-0.48981425257938993,-1.458943770870031,4.297056097253214,13.870173214036779,-18.60304891813357,34.442154,29.97888679736559,0.0,34.442154000000016,0.9285507329814322,0.26338059,-0.0285466,0.26001787,1.0,0.0,0.0,0.0,43.57996779389275
2.1653,67166.3275,-0.8973183706040979,0.745513060592792,4.864779120200755,1.3387509125043056,-0.38586488978591926,-1.4741990911979999,4.516507581122142,14.219946688374623,-18.488946192954995,33.424557,28.842288221541697,0.0,33.42455699999999,0.9290443688615224,0.27228898,-0.04173538,0.24696848,1.0,0.0,0.0,0.0,43.42732749937185
2.1851,67166.3474,-0.9330835107608495,0.3000076058986787,4.477371474927915,1.5781905668254712,-0.24946206690744122,-1.4669386574068746,4.677177939517704,14.605302557676929,-18.39139545815832,32.573002,27.76018519500224,0.0,32.573002,0.928106299277577,0.28432927,-0.0544316,0.23412126,1.0,0.0,0.0,0.0,43.71696017498975
2.2051,67166.3675,-0.8851523984186165,-0.08254819239196731,3.9060077418437587,1.7550778112703287,-0.09449654594831558,-1.4656384454500393,4.674566428681614,14.977618416779713,-18.35900285644635,31.741825,26.587362358525958,0.0,31.741825000000006,0.9260839068842632,0.29908437,-0.06383255,0.22100349,1.0,0.0,0.0,0.0,44.335258860339
2.23,67166.3875,-0.802809124543717,-0.42011040267422217,3.2085863583022327,1.8826249860166007,0.05588510773044497,-1.480306695660472,4.581416047294372,15.259325006460752,-18.400970318670478,30.801834,25.261611568953143,0.0,30.801833999999985,0.9235351530959708,0.3150669,-0.07069896,0.20692348,1.0,0.0,0.0,0.0,45.103009958009416
2.2494,67166.4075,-0.7372110636586422,-0.7362584576440518,2.460582194595604,1.9819268082947286,0.1880819310312738,-1.5031281491575754,4.516918794352637,15.386895349766728,-18.519654823906528,29.694225,23.806244812088373,0.0,29.69422499999999,0.9208581962609628,0.33079994,-0.07679427,0.19155736,1.0,0.0,0.0,0.0,45.896262855473395
2.2783,67166.4275,-0.6884143088096093,-1.036470578625746,1.686502395146313,2.063738088915216,0.30428641272161805,-1.5233235516903822,4.531188862674414,15.36549553084625,-18.718728042775464,28.381001,22.20628309543329,0.0,28.381000999999998,0.918027002306298,0.34629551,-0.08265536,0.17456785,1.0,0.0,0.0,0.0,46.72134709086198
2.2949,67166.4475,-0.6531332069731062,-1.2777028814426297,0.8504587122200356,2.124873448582341,0.41483062161861406,-1.5339295313912458,4.610871215858871,15.237866754817942,-19.018679668214006,26.968109,20.54777309788549,0.0,26.968109,0.9147293083047118,0.36183304,-0.08817986,0.15675285,1.0,0.0,0.0,0.0,47.66537110112131
2.3091,67166.4674,-0.6272780455797746,-1.4077046666439563,-0.09029669191616918,2.149092717055857,0.5272994322445638,-1.5394562894483204,4.677226654997375,15.0481282351758,-19.441490746851358,25.580168,18.920416531514455,0.0,25.580168000000015,0.9107591194942048,0.37757528,-0.09236614,0.13936725,1.0,0.0,0.0,0.0,48.77906420316749
2.3275,67166.4885,-0.6093127125682262,-1.4230213227202992,-1.129208442875278,2.115990690800273,0.6359689356621493,-1.5511920590311055,4.667358844893059,14.839520867029439,-19.953270151041185,23.982141,17.119333569790616,0.0,23.982141000000013,0.9060912061058666,0.39430517,-0.0943571,0.12090863,1.0,0.0,0.0,0.0,50.05869297916132
2.3471,67166.5085,-0.6360871718344924,-1.2892907027890548,-2.1876627320180937,2.0148050434223608,0.7295810000915073,-1.5685061844423855,4.583295745478827,14.498756323744171,-20.56620283634074,22.124426,15.248984753191118,0.0,22.124426,0.9017815906041726,0.4090611,-0.09493844,0.10220407,1.0,0.0,0.0,0.0,51.21350679812055
2.3718,67166.5285,-0.6982040383624846,-1.0543222696656676,-3.1697608392370658,1.8382033922020027,0.8129650352388366,-1.5837348569002523,4.4348290333937985,14.039782047102669,-21.16913367214532,19.958946,13.288800433679432,0.0,19.958945999999997,0.8976951792871961,0.4222419,-0.09492712,0.08272838,1.0,0.0,0.0,0.0,52.286513111601934
2.3875,67166.5485,-0.7639987223146311,-0.7563595557344573,-3.9945986936090785,1.5851915881299206,0.899085836822487,-1.5889075040430471,4.22908133011377,13.472845362466982,-21.68826564931451,17.477955,11.259978302231634,0.0,17.47795500000001,0.8939156569226897,0.43365681,-0.0945072,0.06264949,1.0,0.0,0.0,0.0,53.26102548688196
2.4092,67166.5685,-0.8066486401323425,-0.44360743193192054,-4.616732513692386,1.2654887094813145,1.0020958266192315,-1.581805063654684,3.966253665964305,12.851405012115865,-22.091572494200836,14.674891,9.170909834999897,0.0,14.674891000000002,0.8905573027954659,0.44319871,-0.09321418,0.04235222,1.0,0.0,0.0,0.0,54.11327792322916
2.4271,67166.5885,-0.8249879067795587,-0.15773177157820317,-5.030959257153566,0.9034609847871684,1.1245288586172089,-1.5701492869647664,3.647584234981118,12.214094750039587,-22.41102639115104,11.453629,6.985132859588414,0.0,11.453629000000006,0.888255698468747,0.44985867,-0.0902301,0.02207986,1.0,0.0,0.0,0.0,54.69025885378387
2.4514,67166.6085,-0.8479380622966946,0.08037584526420583,-5.278129774387001,0.5325952843411216,1.2578953812584186,-1.5665147438407847,3.2988154728114454,11.590807660497335,-22.69987259168922,7.797738,4.691311010728524,0.0,7.79773800000001,0.8876853652700296,0.45247674,-0.08529476,0.00207267,1.0,0.0,0.0,0.0,54.832366640891955
2.4676,67166.6285,-0.9238697738212146,0.2708061280425629,-5.42568684869747,0.17756842014230037,1.3940041436023762,-1.5766539141967857,2.972065674937131,11.069747550100715,-22.96967796709133,3.875138,2.3238234253193513,0.0,3.8751379999999926,0.8884634892649951,0.45174491,-0.07904173,-0.01765133,1.0,0.0,0.0,0.0,54.638399640122486
2.4922,67166.6485,-1.1006766591293737,0.42603919861842265,-5.5163382200348945,-0.16089061360536033,1.5307305141080514,-1.5914177307837938,2.702234474397585,10.753852199249739,-23.19835806461125,-0.144193,-0.08663048103158644,0.0,0.14419300000000135,0.8895087436858151,0.44963744,-0.07216498,-0.03731733,1.0,0.0,0.0,0.0,54.37683877175339
2.5095,67166.6685,-1.3888746192774348,0.5631756867101825,-5.525754090546991,-0.49369596384349457,1.6696011724484119,-1.5909535532558252,2.499350827471192,10.638589467139525,-23.3804564844134,-4.461204,-2.6947572273610394,0.0,4.461204000000009,0.8903442474738633,0.44673011,-0.06529574,-0.05878602,1.0,0.0,0.0,0.0,54.16692644040064
2.5298,67166.6885,-1.7420971998030073,0.6954694579584917,-5.379628082202735,-0.8267476776703433,1.8097194253733409,-1.5641341336767427,2.3360300366464024,10.590839696150589,-23.551695854122038,-8.999603,-5.515703213303614,0.0,8.999603000000008,0.8917721428404178,0.44113836,-0.05847931,-0.08197294,1.0,0.0,0.0,0.0,53.80642954229612
2.5594,67166.7085,-2.066657565013786,0.8214389524344416,-5.018410292038244,-1.1562694164859517,1.9452219958864228,-1.5215392359555948,2.122043598687025,10.47789261916904,-23.754182777912092,-13.423317,-8.471384339217789,0.0,13.423316999999997,0.8949951613268122,0.43057331,-0.05032382,-0.10515607,1.0,0.0,0.0,0.0,52.98438341160773
2.5708,67166.7286,-2.2997791671208114,0.8975816223062387,-4.454778145096585,-1.4733841000501695,2.0728109584809835,-1.4820041614639379,1.7880354050433938,10.355495661586227,-23.95275576743122,-17.413158,-11.427812824643068,0.0,17.41315800000001,0.8996889237299833,0.41598275,-0.03905793,-0.12646213,1.0,0.0,0.0,0.0,51.76558454254372
2.5904,67166.7485,-2.4766594573276617,0.8548535266245803,-3.763541771386592,-1.7628396065119347,2.1935713678292412,-1.4546398428262408,1.3665071613930122,10.36834162857433,-24.074079365580978,-21.22249,-14.503636056474692,0.0,21.222489999999993,0.9042425708854538,0.40007931,-0.02407463,-0.14731711,1.0,0.0,0.0,0.0,50.55707496656541
2.6096,67166.7685,-2.7718789583058467,0.660152548009683,-3.0228647779668396,-2.0066920033590216,2.2854852380605304,-1.451004406152631,1.0504633100828418,10.47908965621918,-24.120096708502196,-24.698374,-17.591484628680647,0.0,24.698374,0.9083582662319336,0.38286367,-0.0080489,-0.16803537,1.0,0.0,0.0,0.0,49.441094108934074
2.6297,67166.7886,-3.3277764459027317,0.3390048063646631,-2.2037031049481683,-2.1905133004382833,2.3104867541364116,-1.44956360488196,0.8959671869128449,10.600517140760479,-24.130761412157675,-28.004578,-20.83662598950416,0.0,28.00457800000001,0.9120395325184012,0.36322305,0.0082892,-0.19022144,1.0,0.0,0.0,0.0,48.42252175924748
2.6503,67166.8085,-4.11467564011833,-0.018380531413057177,-1.185601758866273,-2.299206491970586,2.225652812142612,-1.3992133246405158,0.8186163413632244,10.669349166576652,-24.15492320508014,-31.311132,-24.415400504623413,0.0,31.311131999999986,0.9151168454849758,0.34005526,0.02613894,-0.21503566,1.0,0.0,0.0,0.0,47.555347786896576
2.6713,67166.8285,-4.973798473413885,-0.3089264008913566,0.09017140665922163,-2.313799503449221,1.9966353954277554,-1.2604884729047514,0.7947660956884688,10.680076340339998,-24.22676907216234,-34.170208,-27.932179471660135,0.0,34.170208,0.9177262418431362,0.31384417,0.04463813,-0.23934874,1.0,0.0,0.0,0.0,46.8081890905356
2.6884,67166.8485,-5.717331782858212,-0.4166169081113853,1.5138590586446536,-2.208940255803592,1.6324531699660565,-1.020094988765849,0.8951072269805693,10.626708166508616,-24.369264330595225,-36.301289,-30.99510625713947,0.0,36.301289,0.9201079009557176,0.28583053,0.06043919,-0.26086292,1.0,0.0,0.0,0.0,46.11627716831562
2.7145,67166.8685,-6.17081912514875,-0.3288719040931707,2.8785868092685245,-1.988658906387862,1.1864418754361656,-0.665758615479378,1.0754649908400158,10.643614894087655,-24.515628248833227,-37.816936,-33.45393990853411,0.0,37.816936,0.9218276893049316,0.25957367,0.07310469,-0.27840784,1.0,0.0,0.0,0.0,45.61048534891778
2.7374,67166.8895,-6.213471789213518,-0.0940153295847419,4.004822841333478,-1.6866171673711885,0.728350456089274,-0.2133288981662332,1.2599210214075125,10.80674691972589,-24.593559505757305,-38.804218,-35.257526073334475,0.0,38.80421799999999,0.9230282213858124,0.23718077,0.0830789,-0.29131097,1.0,0.0,0.0,0.0,45.25423777904226
2.749,67166.9095,-5.8255219450821665,0.13375679665450702,4.802516819802497,-1.3513531641899346,0.3205737422022049,0.28935264911904146,1.4454166407669444,11.21039628438705,-24.50754418166853,-39.113445,-36.1592023296304,0.0,39.11344500000001,0.9243937884260456,0.22122243,0.09009176,-0.29738903,1.0,0.0,0.0,0.0,44.845759438940796
2.7705,67166.9295,-5.0585251221052365,0.3135176984050312,5.303095461932024,-1.0272564376797404,0.007210637714960666,0.776720151437494,1.6642595393168165,11.717367887954579,-24.2807318544654,-38.540344,-35.99986273994544,0.0,38.540344000000005,0.9273400377461216,0.20998427,0.09253808,-0.29560745,1.0,0.0,0.0,0.0,43.95219913707814
2.7902,67166.9495,-3.9168418782134893,0.3940678965927731,5.655230129744179,-0.7322246785975284,-0.19660237496786584,1.1957042533557107,1.7924031509902592,12.279164282471182,-23.942304012211057,-37.264328,-35.016159275703494,0.0,37.264328000000006,0.9315629692072872,0.20252244,0.09313943,-0.28722838,1.0,0.0,0.0,0.0,42.64044219965746
2.8156,67166.9695,-2.520741499455562,0.4532699775618738,5.966046350143094,-0.453850726169329,-0.3006133277690947,1.5008145852014205,1.7886614332363435,12.72781993412873,-23.604246993234316,-35.455917,-33.470897370981326,0.0,35.455917,0.9368612579933632,0.19606958,0.09302323,-0.27421594,1.0,0.0,0.0,0.0,40.938089973712856
2.8351,67166.9895,-1.1570625287892375,0.5603801739138028,6.2259059072194916,-0.17170853930453522,-0.3310884746329821,1.6687573550225738,1.734276805445158,12.986652591921796,-23.33017418155021,-33.209011,-31.466652472658662,0.0,33.209011000000004,0.942983413710982,0.18989217,0.09153926,-0.25757292,1.0,0.0,0.0,0.0,38.882452131187485
2.8588,67167.0095,-0.06697461164291774,0.6548699822913653,6.345829702257685,0.13225808350929635,-0.3305271503592267,1.7081307250171482,1.6261536566811385,13.168401168792323,-23.063025532408396,-30.87229,-29.316591178454278,0.0,30.872289999999992,0.9485950540925596,0.18605459,0.09085151,-0.23936816,1.0,0.0,0.0,0.0,36.90186126450444
2.8739,67167.0295,0.6095967832421372,0.6150768849032913,6.221087481254333,0.45778062690176236,-0.339707535120267,1.6551197867012746,1.436711086066218,13.387867121238411,-22.72239618836314,-28.775295,-27.329918453960243,0.0,28.775295,0.9526005153837778,0.18640114,0.09307713,-0.22168338,1.0,0.0,0.0,0.0,35.42297112255237
2.9006,67167.0495,0.7751535537246628,0.3949929996962851,5.817284287608924,0.7770442246639534,-0.37719657431199277,1.5668184364728859,1.3049853612310558,13.61534862589033,-22.313416989167692,-27.011139,-25.585293099087504,0.0,27.011139000000014,0.9550794538675068,0.19067509,0.09544954,-0.20580484,1.0,0.0,0.0,0.0,34.47699654360661
2.913,67167.0705,0.5102432904791203,-0.0389951635861161,5.172437987506431,1.0659166318691453,-0.4506262624069372,1.4990319393888625,1.2867967808660743,13.86060001139424,-21.861533013135645,-25.497452,-23.986942767091566,0.0,25.49745200000001,0.9563070881911836,0.19913404,0.09598666,-0.19133465,1.0,0.0,0.0,0.0,33.99908589941578
2.93,67167.0906,0.07071389027035502,-0.6660073202036556,4.335891066451699,1.3229074450566047,-0.5562068395146211,1.4784556728209737,1.220787177235997,14.13628814894448,-21.42434455419303,-23.96418,-22.307119468689475,0.0,23.96418,0.9566310416377766,0.21128897,0.09623116,-0.17593631,1.0,0.0,0.0,0.0,33.87188198295885
2.9505,67167.1105,-0.30966133746589564,-1.341603863395454,3.3492636754788023,1.5580501717909163,-0.6803857958891257,1.5057845025974943,1.0104039475572149,14.302986509486454,-21.149275369827116,-22.340754,-20.560370256321132,0.0,22.340754000000004,0.9566043761095944,0.22361241,0.0969639,-0.15969834,1.0,0.0,0.0,0.0,33.88237000500105
2.9721,67167.1305,-0.5462180844917086,-1.9924290187324214,2.2266903259341877,1.7793069267270138,-0.8092257436359204,1.5738141496723306,0.6767963623809214,14.341462662823055,-21.060858289073956,-20.504881,-18.644666299342415,0.0,20.50488100000001,0.9564884335042144,0.23557296,0.0974247,-0.14192845,1.0,0.0,0.0,0.0,33.92793568387088
2.9981,67167.1505,-0.6477646596219018,-2.571816548448042,0.9460228773642907,1.9815758009207018,-0.9281627901594983,1.6813997247082273,0.31693031180170517,14.281208690018014,-21.099455906097145,-18.459021,-16.548404257225,0.0,18.459021000000007,0.9560807371953728,0.24806756,0.09638638,-0.12280788,1.0,0.0,0.0,0.0,34.08769171162561
3.0127,67167.1705,-0.6195503578478353,-3.0274318400386244,-0.5161066512206798,2.147522386580982,-1.023421660108247,1.8304724687255018,-0.038815208797350564,14.15213652079958,-21.19533408210257,-16.273718,-14.344198050130283,0.0,16.273718000000002,0.9549972558903632,0.26173121,0.09438762,-0.10280074,1.0,0.0,0.0,0.0,34.50876638633374
3.0297,67167.1905,-0.4581823660152879,-3.2687912005205746,-2.1285648648194924,2.2438009766812974,-1.0778356880115,2.0288300975426536,-0.37544207063773116,13.892708511473783,-21.356120989906728,-13.912112,-12.04530051785398,0.0,13.912112000000008,0.953526311545083,0.27498502,0.09191629,-0.08198907,1.0,0.0,0.0,0.0,35.072575010134166
3.0543,67167.2105,-0.1283102969353022,-3.2721097334369036,-3.7941532851021442,2.22598598328327,-1.0813589302270752,2.273102746014444,-0.7001889806597767,13.52383304476098,-21.54704706455598,-11.198419,-9.517178202275595,0.0,11.198419000000001,0.9516336528066532,0.2878775,0.0897148,-0.05891681,1.0,0.0,0.0,0.0,35.78536395525099
3.0717,67167.2304,0.4184992603666661,-3.062598029391673,-5.326647945401385,2.052049701683602,-1.0305005263215625,2.5448341507950016,-1.0442362060552322,13.07485914502126,-21.73042550980908,-8.054456,-6.719297717963203,0.0,8.054455999999988,0.9491312501755595,0.30024332,0.08904731,-0.03277797,1.0,0.0,0.0,0.0,36.707226648313934
3.0936,67167.2515,1.169583002342703,-2.717702650954715,-6.481884648871787,1.687349487077971,-0.9223681306929296,2.8343628089815445,-1.3347462183405283,12.572637160250519,-21.87604654566098,-4.121037,-3.3767511871848215,0.0,4.121037000000001,0.9461658008604702,0.31135687,0.08845716,-0.00158355,1.0,0.0,0.0,0.0,37.7715318686919
3.1104,67167.2715,2.0508447550194604,-2.327649631184536,-7.042193916796199,1.1395388112683797,-0.7563191249449195,3.128216411919991,-1.4851746139668216,11.94369341561734,-22.02081833749155,0.17978,0.14559979118329702,0.0,0.17977999999999383,0.9436311713348176,0.31785026,0.0871249,0.03067045,1.0,0.0,0.0,0.0,38.658820845415214
3.1301,67167.2915,2.957402837415499,-1.9743837756627132,-6.990805255105274,0.4787094549149847,-0.5671149840192344,3.396329153889927,-1.5573108696729554,11.470959450807179,-22.011185078278707,4.547335,3.643204543137744,0.0,4.547335000000004,0.9400895745495736,0.32383698,0.08614578,0.06277027,1.0,0.0,0.0,0.0,39.86679054279401
3.1514,67167.3115,3.737597328797445,-1.5168252915878664,-6.404105275234466,-0.2217192906209019,-0.29084704548554074,3.6145271139667257,-1.4930105390245507,10.685597502122018,-22.109529101517808,9.224263,7.462609845005387,0.0,9.224263000000008,0.9396186046363872,0.31735611,0.08473108,0.09603448,1.0,0.0,0.0,0.0,40.024791247538346
3.1718,67167.3315,4.234223499860646,-0.805877322935715,-5.519117355765026,-0.8842559715742735,0.00689557952267239,3.697001693218514,-1.2863206807971481,9.715870164584317,-22.248069212980603,14.445279,12.010806219550417,0.0,14.445279,0.94096006157234,0.29945716,0.0834756,0.13398282,1.0,0.0,0.0,0.0,39.57316739553976
3.1911,67167.3525,4.441539299036615,0.17574128737713246,-4.619845682473041,-1.3675546692829221,0.1966261968037899,3.601768941628582,-1.3347581914843296,8.885518013905786,-22.280534976594218,19.581959,16.84479445716277,0.0,19.581959000000012,0.9402343215849184,0.27735326,0.09110442,0.17531279,1.0,0.0,0.0,0.0,39.81811008329942
3.2115,67167.3725,4.394691754207714,1.2439937196245927,-3.7216189728180247,-1.6496874547876794,0.24486272731907954,3.3356160498371725,-1.2531130618529611,8.40848505915515,-22.19928666232836,23.908216,21.2179706360859,0.0,23.90821600000001,0.938036157077768,0.25559133,0.10006062,0.21153986,1.0,0.0,0.0,0.0,40.551345040296425
3.2341,67167.3924,4.1822232218826905,2.307055772914774,-2.7445046286078316,-1.762406575103237,0.1853714129475399,2.9349072350910346,-0.8112173715722952,8.364355319074527,-22.039058813878636,27.702715,25.198594161972075,0.0,27.702715000000012,0.9351965636359314,0.23575294,0.10439624,0.24275371,1.0,0.0,0.0,0.0,41.480151198903386
3.2654,67167.4125,3.8643683636265505,3.3198988853708595,-1.6955295374948811,-1.7485762584869278,0.0811765250572749,2.460155888093497,-0.019736825078370268,8.741204551552089,-21.810703615536575,30.990225,28.666632573222152,0.0,30.99022500000001,0.9322831439276342,0.21911764,0.10283834,0.26881197,1.0,0.0,0.0,0.0,42.412881610838156
3.2834,67167.4325,3.4902937932644673,4.255787762894861,-0.6827738429965304,-1.6417339052637356,-0.022802238306278255,1.9694257502097101,0.8725558768728328,9.407070612276964,-21.523943110594296,33.649246,31.467712677455655,0.0,33.649246000000005,0.9293221394005268,0.20640033,0.09940548,0.28961667,1.0,0.0,0.0,0.0,43.341211412210285
3.3048,67167.4526,3.066465864601988,5.0789856419523876,0.20290076312628713,-1.4687791314478522,-0.12594031750493728,1.4812791193598238,1.6681450323258173,10.185340417091558,-21.2069373219457,35.858013,33.79217513100348,0.0,35.858013,0.9260301162738516,0.19689587,0.09707119,0.30704629,1.0,0.0,0.0,0.0,44.35159223932946
3.314,67167.4725,2.5473200072983806,5.667285305925754,0.9479111707487604,-1.2275382340229477,-0.25214631604040283,0.9798471176837023,2.4197195997141274,11.000368426761806,-20.830647644270773,37.791004,35.763274545803455,0.0,37.79100399999999,0.9227262196942896,0.19047576,0.0932312,0.32187459,1.0,0.0,0.0,0.0,45.34410371309911
3.3315,67167.4925,1.9858519150635647,5.956752758914013,1.5104035761005008,-0.8652328589571283,-0.4210432418303194,0.46416544996804854,3.1142743004231006,11.693165798514118,-20.418718523377997,39.188068,37.16857327337152,0.0,39.18806799999999,0.9204966072802112,0.18573987,0.0881877,0.33227944,1.0,0.0,0.0,0.0,46.00241833366551
3.3549,67167.5126,1.508401842939219,6.0050512420978155,1.8877926343555487,-0.32980621405799604,-0.6537737859780703,-0.047486697475355694,3.6777654716555137,12.128485041626995,-20.036776645223522,39.766285,37.789355510108365,0.0,39.76628500000001,0.9201611373848338,0.18160392,0.08408109,0.33653212,1.0,0.0,0.0,0.0,46.10069900802864
3.375,67167.5345,1.1571299874335557,5.897784600991653,2.222287907971854,0.37154098261638974,-0.9503582994586175,-0.5381600949213505,4.147939237692325,12.393906025419628,-19.64591316154141,39.746292,37.76202746276831,0.0,39.74629199999998,0.9213177923756436,0.1796608,0.07856485,0.33574259,1.0,0.0,0.0,0.0,45.76099822346999
3.397,67167.5545,0.8636674295679256,5.619336408720509,2.714052711155592,1.1499251185739419,-1.2463696858074413,-0.9924835138087569,4.6832014241025455,12.76293210237032,-19.075799296295436,39.619183,37.36883952211775,0.0,39.61918299999999,0.9227545003573484,0.18457992,0.06479315,0.33204854,1.0,0.0,0.0,0.0,45.33569546425833
3.4177,67167.5745,0.5279972569842428,5.102377452487861,3.3955682178915723,1.8501635708426465,-1.4313264805344856,-1.3813198101356547,5.348793234676238,13.346559825215103,-18.255772961740636,39.717892,36.8854214327482,0.0,39.717892000000006,0.9231652408951254,0.19852397,0.03931409,0.32681581,1.0,0.0,0.0,0.0,45.21340940235409
3.4339,67167.5945,0.19167676598920824,4.255371098971407,4.0870794579274925,2.286782049888045,-1.4207676223116867,-1.6886020727532096,5.972669272400339,14.037169511350722,-17.326355166685858,39.863815,36.225578252165455,0.0,39.86381499999999,0.9217004001611756,0.2212701,0.00745998,0.31851572,1.0,0.0,0.0,0.0,45.64810292443497
3.4543,67167.6145,-0.11204892388331356,3.049499227771741,4.537246792381318,2.342700885578691,-1.199855481710641,-1.9075936860046978,6.4568636558493075,14.652907341901356,-16.526927837782754,39.781883,35.24312954529352,0.0,39.78188299999999,0.9186538119483536,0.24918896,-0.0247581,0.30556026,1.0,0.0,0.0,0.0,46.53986965581315
3.4737,67167.6345,-0.3993105376580841,1.6024690668940025,4.593823169306475,2.050536931714846,-0.8154069845510759,-2.032849803957921,6.756762794599828,15.065068618915577,-16.095606101268512,39.336796,33.95707299436536,0.0,39.33679599999999,0.9150586627857704,0.27667427,-0.05239715,0.28874475,1.0,0.0,0.0,0.0,47.57188137050428
3.4942,67167.6545,-0.6820704057121354,0.25495538410451957,4.298456877892033,1.5815193449078508,-0.37967215930986775,-2.071730007339383,6.843088414061894,15.079967206224747,-16.302250689387705,38.16637,32.34368551969925,0.0,38.16637,0.9139016883996816,0.29498488,-0.07048031,0.26981503,1.0,0.0,0.0,0.0,47.899538747586135
3.5137,67167.6745,-0.9449704389204321,-0.7891532328802766,3.8659436315205618,1.1607925308731797,0.0008944427997279458,-2.062718646455415,6.680114868815771,14.679645198868041,-17.11081874729441,36.192062,30.4325380903351,0.0,36.19206199999999,0.9165783364229484,0.30162725,-0.07751366,0.25079232,1.0,0.0,0.0,0.0,47.13824894752041
3.5343,67167.6945,-1.17285209602968,-1.5592493160401437,3.455082712958763,0.9604075593556121,0.2746847177501587,-2.038176036071028,6.369123740267918,14.071795218660593,-18.119431180131038,33.685478,28.262758003825578,0.0,33.68547799999999,0.9214556473254596,0.30217218,-0.0781965,0.23129369,1.0,0.0,0.0,0.0,45.72035204852406
3.5559,67167.7145,-1.3531281674890456,-2.0923573179635246,3.0364575750925944,1.0304607611894814,0.4435669828347326,-2.007594086227517,6.094895552498777,13.51297343118421,-18.950935636435606,31.0187,25.960514414489726,0.0,31.018699999999995,0.9261091282004243,0.30296624,-0.07910399,0.21041839,1.0,0.0,0.0,0.0,44.32759850525634
3.5762,67167.7345,-1.412210047945914,-2.377749380840261,2.466283571102929,1.2866326202617275,0.5437005127889759,-1.97504721025433,5.879211120257116,13.183139907121502,-19.491404481840693,28.518175,23.68733743709069,0.0,28.518174999999985,0.9288236758271984,0.30800235,-0.08202867,0.1889244,1.0,0.0,0.0,0.0,43.49563239431021
3.5987,67167.7555,-1.3092133082120847,-2.450346239636488,1.6325662675417938,1.5813801359442783,0.6265804838303952,-1.9476154457764312,5.688607150752434,13.179908392329303,-19.774873534338774,26.244574,21.426238181044315,0.0,26.244574,0.9287197035837488,0.31978208,-0.08614407,0.16672832,1.0,0.0,0.0,0.0,43.52777664740314
3.622,67167.7755,-1.0750861343795424,-2.3083498598813206,0.5838997507613222,1.7831639000969042,0.731533495231174,-1.9358171522197085,5.442650501344954,13.368056794535097,-19.99874340432229,24.257555,19.3258137964398,0.0,24.257554999999996,0.9265688839550792,0.33504564,-0.0886583,0.14613086,1.0,0.0,0.0,0.0,44.18773797471088
3.6353,67167.7955,-0.8193777030554222,-2.033322097510301,-0.5307781539032952,1.8341291745792565,0.8747406546670295,-1.931746608961964,5.2492408275330575,13.575795397292229,-20.276227088227333,22.082418,17.11041781552231,0.0,22.08241799999999,0.9237827227283132,0.35072383,-0.08998097,0.12458612,1.0,0.0,0.0,0.0,45.02898008528284
3.6556,67167.8165,-0.6048068615516583,-1.7106300038057811,-1.5644260238251082,1.7419776220654606,1.0581197607777326,-1.9185788923568787,5.1712391654301495,13.661764359126451,-20.643484923555377,19.25458,14.512233806271455,0.0,19.254580000000004,0.9213761154397772,0.36465365,-0.09040264,0.09960488,1.0,0.0,0.0,0.0,45.74380599015019
3.6824,67167.8365,-0.44332888326925857,-1.355741329830419,-2.4453747525353826,1.5484822837903713,1.2858700841985238,-1.8889203896445224,5.114768582234463,13.53631698934822,-21.093033593633663,16.138563,11.886644488426127,0.0,16.138563000000005,0.9197291797277236,0.3748762,-0.08910798,0.07500559,1.0,0.0,0.0,0.0,46.226956156688175
3.7007,67167.8565,-0.2972428714444578,-0.9857845945668555,-3.181843443831238,1.2970348419701243,1.544715744708568,-1.8633482429925856,4.921599621881414,13.243122769745362,-21.55193269583541,12.648747,9.127157140042074,0.0,12.648747000000014,0.9187195537831864,0.38255176,-0.08379263,0.05086578,1.0,0.0,0.0,0.0,46.520796981714426
3.7326,67167.8765,-0.18983606532588798,-0.6199953152016153,-3.8136306596016993,1.030711503996538,1.8066026798577477,-1.8698051211218436,4.582137571561256,12.834918099039214,-21.96393526967276,8.880932,6.297776079668248,0.0,8.880932000000001,0.9181834470776052,0.3880434,-0.07478392,0.02772801,1.0,0.0,0.0,0.0,46.67611471322245
3.736,67167.8965,-0.17599106221851257,-0.31096421083331016,-4.378351969072118,0.7871768662214313,2.042289266989071,-1.93108919410421,4.222514303368648,12.380348653982363,-22.3059249595871,4.775175,3.340822173613642,0.0,4.77517499999999,0.917797539814702,0.39177918,-0.06434424,0.00407048,1.0,0.0,0.0,0.0,46.78761617173376
3.7556,67167.9165,-0.28186917332545086,-0.10867420447625875,-4.897390628850026,0.5787859989397868,2.2346006444271747,-2.059731340130531,3.8557365977246776,11.95496277926296,-22.617538558114262,0.145769,0.10100084835265868,0.0,0.14576900000000137,0.917311201277442,0.39410836,-0.05246682,-0.02158688,1.0,0.0,0.0,0.0,46.92777940572976
3.7777,67167.9365,-0.5404548230572309,-0.01676014261193437,-5.3908375734821306,0.40450119086285036,2.3700977478580385,-2.2542724726053307,3.5226843394995426,11.58266706397999,-22.94973591888113,-4.932013,-3.404517757264304,0.0,4.932013000000012,0.9166866211827528,0.39452088,-0.03998707,-0.04939583,1.0,0.0,0.0,0.0,47.10720677402251
3.7955,67167.9565,-0.9881528064843884,0.0055537547673512044,-5.885460424161163,0.24072779215817589,2.4376278945616856,-2.4992357673187824,3.2403133238335156,11.277062673145117,-23.31700884681985,-10.330963,-7.1530358100392135,0.0,10.330962999999997,0.9157738491249652,0.39284983,-0.02728871,-0.07926282,1.0,0.0,0.0,0.0,47.36827200754328
3.8183,67167.9765,-1.6684941631930907,0.010243456231137094,-6.369381745808029,0.04333017366659042,2.435747908804907,-2.755005071880836,3.02672273018696,11.086659653363672,-23.67445717397469,-16.05184,-11.19599115533438,0.0,16.05184,0.913797512402382,0.39023945,-0.01441778,-0.11171126,1.0,0.0,0.0,0.0,47.928938099924125
3.8392,67167.9965,-2.6102641419606756,0.015933189281837068,-6.732185641290367,-0.23735801034016654,2.38115316762744,-2.957087008317044,2.909069212549884,11.06830186066532,-23.953632374658376,-22.01532,-15.480015683482053,0.0,22.015320000000003,0.9098439077426138,0.38831487,-0.00136564,-0.14626606,1.0,0.0,0.0,0.0,49.03242071471008
3.8643,67168.0165,-3.7952385670930675,0.03400720902092802,-6.790780915506797,-0.609629337980055,2.2805972138233463,-3.0522020992413177,2.9828693686027736,11.003378350404175,-24.204798092360832,-27.981567,-19.981268864429545,0.0,27.981566999999984,0.9050064031793632,0.38376775,0.00957978,-0.18328653,1.0,0.0,0.0,0.0,50.3517090525748
3.8786,67168.0365,-5.157771391606398,0.07231622522251556,-6.407290712528736,-1.032701752758893,2.1580006425713956,-2.994896231426428,3.3437629645947533,10.726995566137425,-24.45827712966709,-33.429283,-24.47963308872138,0.0,33.429283,0.9003380520422589,0.37424925,0.01521091,-0.2215796,1.0,0.0,0.0,0.0,51.59492338702295
3.9005,67168.0565,-6.555099123081663,0.12982703401330706,-5.477793399723823,-1.4897287391438572,2.042999984027201,-2.7467750845076937,3.6309257315536945,10.317303912534966,-24.69963484713505,-38.208988,-28.955142720456752,0.0,38.208988000000005,0.8964733177598111,0.35914338,0.0208073,-0.25868645,1.0,0.0,0.0,0.0,52.60339121800392
3.9162,67168.0765,-7.706024642703832,0.2075956145676724,-3.833911073825009,-1.9703432498364877,1.9385564462668685,-2.266228117586258,3.1826409734398324,9.963161118863365,-24.930244343073497,-42.695576,-33.889781929854294,0.0,42.69557600000002,0.8933858354340842,0.3366541,0.03784263,-0.29511642,1.0,0.0,0.0,0.0,53.39631538093112
3.9413,67168.0965,-8.472935431369473,0.3356349201463054,-1.676791678541111,-2.3284482201381937,1.8189044617244863,-1.6229220945694964,2.588514442690132,9.740977874738483,-25.02925092409982,-45.988949,-38.2684186823498,0.0,45.98894899999999,0.8913270737725391,0.30988103,0.05588297,-0.32617003,1.0,0.0,0.0,0.0,53.919034064043366
3.9568,67168.1166,-8.66421019171011,0.500787280991325,0.8140829807277878,-2.5051602430169266,1.6538827849972124,-0.8908921451270749,1.9795068866675711,9.701728584793134,-24.982230321363108,-48.184532,-41.89384045433306,0.0,48.18453199999999,0.89028601809566,0.28066653,0.07364673,-0.35098898,1.0,0.0,0.0,0.0,54.18158037746092
3.9795,67168.1375,-8.1202453036099,0.7004470916485027,3.388833237918231,-2.4783810990632014,1.410765981877554,-0.15567547623208372,1.3380103071051415,9.723104448206062,-24.876786550757156,-49.158688,-44.54197369367001,0.0,49.158687999999984,0.8915190671641757,0.24797344,0.09112867,-0.36796534,1.0,0.0,0.0,0.0,53.87048556241113
3.9973,67168.1575,-6.935574627306889,0.8607465891563963,5.651799590698113,-2.2516101443090903,1.0892713790002833,0.4968305515577471,0.8081056277783218,9.887922500749118,-24.716837617261362,-48.840385,-45.77014895215625,0.0,48.840385,0.895431093727307,0.21641134,0.10619704,-0.37428796,1.0,0.0,0.0,0.0,52.87228756100003
4.019,67168.1775,-5.533017373487521,1.0596174892042904,7.218790007330615,-1.8693344495305553,0.739820896184832,0.9903667468995737,0.7756770204819449,10.130921040542542,-24.549471345690264,-47.598427,-45.58771228141758,0.0,47.598427000000015,0.9017603029535554,0.19004445,0.11136324,-0.37190011,1.0,0.0,0.0,0.0,51.21915072370833
4.0461,67168.1975,-3.9996977067877317,1.1854462194367648,8.062465042244213,-1.3897408147453045,0.41519603809000183,1.3505395063044061,0.9696275763581823,10.577711104687308,-24.324395517566415,-46.043682,-44.66805539669161,0.0,46.04368199999999,0.9083917111201292,0.17113949,0.11254891,-0.36451134,1.0,0.0,0.0,0.0,49.43192887615607
4.0563,67168.2175,-2.493223611100562,1.2550092171215281,8.240272036923326,-0.8697508095597205,0.16109760403317436,1.5900624090052846,1.2668211754998115,11.099981215335625,-24.058378066982197,-44.243046,-43.230995187480005,0.0,44.24304599999999,0.9153091466208424,0.15801132,0.11119115,-0.35338098,1.0,0.0,0.0,0.0,47.50066365012868
4.0793,67168.2375,-1.13267532602443,1.2663150696907688,7.890354236482803,-0.3527526930947348,-0.004612069527752449,1.726576081950576,1.499780736477257,11.648244243061972,-23.744838295704046,-42.173923,-41.381678446058494,0.0,42.173923,0.9223898389213808,0.14966533,0.11025546,-0.33858678,1.0,0.0,0.0,0.0,45.44400155705754
4.0958,67168.2575,-0.03139470013087564,1.2358547036973344,7.155374608643211,0.12633033473934005,-0.09100343140648265,1.7753396872557765,1.5969795467664978,12.194315342061731,-23.38589781025899,-40.034912,-39.38765338659029,0.0,40.03491199999999,0.928798018163064,0.14576429,0.11190978,-0.32181239,1.0,0.0,0.0,0.0,43.50356686596213
4.1167,67168.2775,0.6741642508046501,1.1587703933327251,6.1841653943207575,0.5313669467640691,-0.12635856383752792,1.7581819235410918,1.6644850345643407,12.727344637086158,-22.985091058449964,-38.041874,-37.449492913494616,0.0,38.04187400000001,0.933923236544718,0.14693682,0.11518756,-0.30484223,1.0,0.0,0.0,0.0,41.890246287668006
4.1378,67168.2975,0.9614767795298595,1.0529862724867698,5.137510324853594,0.8426415209779641,-0.13546794318424626,1.7063865752326812,1.762393074764816,13.190393550787935,-22.584440032763037,-36.179501,-35.56267329471355,0.0,36.179501000000016,0.93804561932291,0.15195933,0.11856083,-0.28796199,1.0,0.0,0.0,0.0,40.548215988413496
4.165,67168.3175,0.9562967457632503,0.9045824829942823,4.150290024749173,1.067351664422281,-0.1396099154284136,1.6444538464084741,1.8175813954450275,13.563646709023788,-22.2113282962304,-34.425594,-33.7502535936019,0.0,34.42559399999999,0.9412594005069342,0.15933996,0.12277807,-0.27123249,1.0,0.0,0.0,0.0,39.47171335028339
4.1796,67168.3375,0.7708525520436693,0.6932804124851701,3.3009676670730634,1.224214012596905,-0.15442725712660976,1.5880436681271832,1.7948641418966749,13.837596578984336,-21.87507001293518,-32.763382,-32.01086562611605,0.0,32.76338200000001,0.9436597781642432,0.16829228,0.12781055,-0.25465348,1.0,0.0,0.0,0.0,38.6489159604872
4.2024,67168.3575,0.46953108401005794,0.4124164602912339,2.5960801342644437,1.3370547026241515,-0.18348400899954787,1.5488705225645045,1.697833039918483,13.992968353176366,-21.59340309173756,-31.113659,-30.267791811644177,0.0,31.113658999999984,0.9455640827023812,0.17811137,0.13281007,-0.23779485,1.0,0.0,0.0,0.0,37.98397942579818
4.2243,67168.3775,0.06579729378755794,0.04713910367729479,1.9758310530790641,1.4271276071048793,-0.22503401634156495,1.5402610444796114,1.6018704061246907,14.037273467332689,-21.37799322554917,-29.467327,-28.491395840933173,0.0,29.46732700000001,0.9471210264971536,0.18876545,0.13633566,-0.2207758,1.0,0.0,0.0,0.0,37.43188653600734
4.2416,67168.3985,-0.40743097431235564,-0.42947825610972457,1.3420249056705806,1.5152007510425862,-0.2807137654579156,1.5726273606629795,1.5124098610142869,14.030794065801125,-21.215339934687506,-27.829241,-26.691422710595262,0.0,27.829240999999996,0.9481619750882464,0.20061284,0.1390425,-0.2034958,1.0,0.0,0.0,0.0,37.05834484773072
4.2596,67168.4185,-0.8957142525107311,-1.0052972545596996,0.6004567222569417,1.6184080788382704,-0.35434136551679096,1.6548172970010369,1.3597868661713122,14.002237572196984,-21.098634705840773,-26.073204,-24.790442533218204,0.0,26.073204000000004,0.948752856157126,0.21294931,0.14266786,-0.1848418,1.0,0.0,0.0,0.0,36.84468352982184
4.2786,67168.4385,-1.3514084032975853,-1.5828478510850923,-0.30534450507910904,1.738923515098975,-0.4523901083192654,1.801249961296201,1.1843072959184295,13.843488036244597,-21.07422331339191,-24.299911,-22.937745767230997,0.0,24.29991100000001,0.9491484625936538,0.22326742,0.14688502,-0.16641408,1.0,0.0,0.0,0.0,36.70096217989561
4.2981,67168.4585,-1.7147609166444666,-2.1296869844669937,-1.3937174373011416,1.8576423467916932,-0.5790493114082442,2.0280533716964677,1.009238050913077,13.591346208597654,-21.077050654847486,-22.382524,-20.983076946606406,0.0,22.38252399999999,0.949416210054911,0.23270464,0.15119326,-0.14696261,1.0,0.0,0.0,0.0,36.6033820553234
4.32,67168.4785,-1.8856338727922284,-2.619157119614389,-2.625453845069905,1.9346892939478981,-0.7314759954765888,2.3442214213009347,0.8507605788175011,13.301502132873757,-21.045457772067678,-20.228542,-18.80145539494097,0.0,20.228542000000004,0.9492920690508182,0.24305463,0.15510486,-0.12534551,1.0,0.0,0.0,0.0,36.648656237361635
4.3407,67168.4995,-1.725254375322899,-3.0094217790647186,-3.8741262598423294,1.9292845024921625,-0.8900639293825993,2.7421034935622672,0.6430956424944836,12.972610635828833,-20.98870438134166,-17.663685,-16.252611989195888,0.0,17.663684999999987,0.9487104208020368,0.25416315,0.1591213,-0.1001501,1.0,0.0,0.0,0.0,36.860067900685536
4.3608,67168.5195,-1.124236943597479,-3.240753246011864,-4.954176822545371,1.80878039569316,-1.0178548585105953,3.2035332879783764,0.36313271731056207,12.539789028891452,-20.974034392345843,-14.366531,-13.088909200520476,0.0,14.366531000000009,0.9482210143626576,0.26387525,0.16243038,-0.06973616,1.0,0.0,0.0,0.0,37.03704986442381
4.3906,67168.5395,-0.055056758427677516,-3.2111499098095306,-5.672697965941835,1.5609158118990536,-1.0652124412442272,3.690770287898424,0.04550301470877824,11.840991053321117,-21.12627191998701,-10.452617,-9.482969098722618,0.0,10.452617000000004,0.948699202691404,0.26760769,0.1643481,-0.03668309,1.0,0.0,0.0,0.0,36.86413384105128
4.4078,67168.5594,1.3657612882424235,-2.8675756554010814,-5.9543615752538415,1.1829547561178844,-1.00918946818625,4.137787111530995,-0.27183299631707986,10.96989228100978,-21.40422000580715,-5.44039,-4.9434651223132615,0.0,5.440390000000008,0.9501553346114427,0.26517725,0.16394708,0.00268722,1.0,0.0,0.0,0.0,36.332695734398584
4.4189,67168.5795,2.840548467750114,-2.182617536289357,-5.8113587947915235,0.6899679061314026,-0.888647346381142,4.455958346643779,-0.5017179566380198,10.071343064253968,-21.73734356197485,0.663785,0.6068527581896562,0.0,0.6637849999999901,0.9515119481908452,0.2575908,0.16090232,0.0488102,1.0,0.0,0.0,0.0,35.83072914235069
4.4392,67168.5995,4.057283945906213,-1.2589109290135818,-5.327822480366106,0.15843012409772056,-0.789743094027747,4.571125412023618,-0.649796208947097,9.332951107977296,-22.03803557816382,7.289394,6.7246423380535205,0.0,7.289393999999987,0.9509575530881752,0.24734586,0.15737741,0.09865145,1.0,0.0,0.0,0.0,36.036680070555995
4.4629,67168.6205,4.924265372203841,-0.2253630335273613,-4.636948722755699,-0.27086358003103717,-0.7326537056724574,4.478014834693393,-0.8896543468464542,8.714350261198865,-22.299683205827336,13.750136,12.892251947680586,0.0,13.750135999999998,0.9478263236562348,0.2333061,0.15865399,0.14839958,1.0,0.0,0.0,0.0,37.17918792106705
4.4859,67168.6405,5.388077721407032,0.8197459942456717,-3.7844448159141297,-0.622046520449156,-0.6701434706578038,4.2136203491220074,-0.6317944871759735,8.141220834679999,-22.53206053463117,19.696848,18.79428123161936,0.0,19.69684799999999,0.945324650504216,0.21314311,0.15412274,0.19281468,1.0,0.0,0.0,0.0,38.06819767881265
4.5002,67168.6605,5.4806029795960445,1.8401071875928343,-2.949121902977356,-0.8699730870594626,-0.6201211599914798,3.8125247969986433,0.08261805314747694,7.953811265689758,-22.572426961946807,25.386383,24.48997525977055,0.0,25.386382999999995,0.941911161123837,0.19336316,0.14270194,0.23462781,1.0,0.0,0.0,0.0,39.24994323740312
4.5196,67168.6805,5.29026926719623,2.7904516154947663,-2.368256187284956,-0.9809818832906287,-0.5827852115144283,3.335900410460768,0.8381147571750132,8.20690616712553,-22.38706735620903,30.308506,29.417863445424274,0.0,30.308505999999994,0.9367454999841662,0.17803696,0.1312556,0.27126127,1.0,0.0,0.0,0.0,40.976005232602944
4.5422,67168.7005,4.9070165753882655,3.6431934183751995,-2.0529931379136457,-0.9695397574840686,-0.5848613869130047,2.833086934545158,1.3429416364550293,8.743921254838035,-22.058905123043193,34.404255,33.54626195324657,0.0,34.404255000000006,0.929932814426885,0.16755797,0.12483506,0.30259791,1.0,0.0,0.0,0.0,43.1513111834092
4.5673,67168.7205,4.360176548805258,4.364095641309475,-1.7050965334863406,-0.8826055714830001,-0.6579713017531271,2.3140826678395596,1.7593236972325128,9.426380952364799,-21.65374675362128,37.883259,37.02516759171997,0.0,37.88325900000001,0.9227604311603516,0.1606981,0.11957345,0.32922864,1.0,0.0,0.0,0.0,45.333931963638044
4.5839,67168.7415,3.628023181227855,4.982843255264111,-1.0458618179345454,-0.7367631275226286,-0.7838632307284792,1.775351703603934,2.4083059357293135,10.080945343497831,-21.215119476577588,40.895699,39.9694619474235,0.0,40.89569900000001,0.9170582292711924,0.1536357,0.10889077,0.35148695,1.0,0.0,0.0,0.0,47.00053024163179
4.6014,67168.7615,2.720009380946889,5.525779522779564,-0.10125963384522052,-0.4922085050914603,-0.9291913129649827,1.2275266758561476,3.2359638581747423,10.64390691767156,-20.75357827008987,43.493359,42.4556601766187,0.0,43.493359,0.9127242540496788,0.14594686,0.09307236,0.37009659,1.0,0.0,0.0,0.0,48.23083894625296
4.6245,67168.7815,1.8074328497972214,5.941723245456832,0.9052429685186176,-0.11685217862286257,-1.0765587739971827,0.685913587534945,3.9072281477150934,11.127108602111957,-20.304708426977516,45.32547,44.1561210915955,0.0,45.325469999999996,0.9094796121901692,0.14162055,0.07853577,0.38291329,1.0,0.0,0.0,0.0,49.13292687297989
4.6482,67168.8015,0.9888793514269834,6.134404763075313,1.855412299216411,0.3643766227940808,-1.2317211484486759,0.1445137134763924,4.365650717961722,11.604172279112245,-19.857283837430053,46.516602,45.13010337881577,0.0,46.516602000000006,0.9071391470699413,0.14297412,0.06490117,0.39044181,1.0,0.0,0.0,0.0,49.77410180402915
4.665,67168.8215,0.2868078050199854,5.989175523661946,2.758331355512194,0.9066724085800418,-1.3869292116352314,-0.40040769034016094,4.706020454147062,12.152524586685503,-19.358297660380895,47.381695,45.62918109770514,0.0,47.38169500000001,0.9052345271417848,0.15057713,0.04838649,0.39438018,1.0,0.0,0.0,0.0,50.290223070228755
4.7124,67168.8415,-0.26061199234680377,5.4621586800937205,3.6210713696882877,1.4587687049818432,-1.5106014487233044,-0.9255011084064799,5.020876253034615,12.705929790279647,-18.82789460412186,47.847561,45.62343519758244,0.0,47.847560999999985,0.9041860843714166,0.16285606,0.02771704,0.39389998,1.0,0.0,0.0,0.0,50.57223112778009
4.7145,67168.8615,-0.6808065308136166,4.56635384765327,4.393222681556846,1.9707867653593067,-1.5723873746453858,-1.384346647874896,5.432421555847646,13.188121301551364,-18.27677030255474,47.68684,44.96809720160397,0.0,47.68683999999999,0.9046884056902508,0.17819804,0.00170095,0.38701609,1.0,0.0,0.0,0.0,50.43730161945659
4.7229,67168.8815,-1.0113071059480596,3.448843754775391,4.946999258488102,2.4029185090728973,-1.553881493594365,-1.7353091050141112,5.860292787208451,13.518338628108319,-17.772600419855713,46.931763,43.79775831977885,0.0,46.93176299999999,0.9062135397256816,0.19484296,-0.02687598,0.37428722,1.0,0.0,0.0,0.0,50.025548742452685
4.7437,67168.9015,-1.2605614444562643,2.322949593612251,5.180692940974101,2.7203272627033592,-1.4427231826590854,-1.9694506547724615,6.132159987750252,13.668767842645739,-17.39822931974639,45.896481,42.44725747930422,0.0,45.896480999999994,0.9075615151675424,0.21153916,-0.05401213,0.35870039,1.0,0.0,0.0,0.0,49.65896694358589
4.7599,67168.9215,-1.4574093357914473,1.214237763474844,5.088071599065941,2.8927316230398477,-1.215094026162518,-2.1052817030023756,6.258625700627836,13.801632912465292,-17.05634272520861,44.948727,41.15048431614555,0.0,44.94872699999999,0.90720402674795,0.23119195,-0.08105268,0.34199649,1.0,0.0,0.0,0.0,49.756432234336515
4.7799,67168.9415,-1.5533663593076028,0.1753774505870176,4.694463170632561,2.889813803399118,-0.8686101345919155,-2.1650063011449774,6.282769944722475,13.961027142612478,-16.75898229893188,44.043346,39.78618229040481,0.0,44.043345999999985,0.9050783527666932,0.25472221,-0.10731839,0.32316023,1.0,0.0,0.0,0.0,50.332324146221275
4.8005,67168.9615,-1.5235675711648593,-0.6052284470012941,4.047482194247454,2.7169756037493555,-0.43369555084609956,-2.1572494952644803,6.2663743405027725,14.020076598587675,-16.678745463572657,42.868748,38.160948981913826,0.0,42.86874799999998,0.9027922978220272,0.27783537,-0.13043132,0.30126607,1.0,0.0,0.0,0.0,50.94487025502968
4.8239,67168.9815,-1.3323599231619196,-0.9881604401558635,3.218048553700001,2.418259607578136,0.0657851919218404,-2.110325602624678,6.140811751822505,13.91289588520513,-16.962674912029076,41.35775,36.262635431584094,0.0,41.35775000000001,0.901548148316162,0.29729202,-0.14666623,0.27806008,1.0,0.0,0.0,0.0,51.27536693721245
4.8431,67169.0015,-0.9994433202517139,-1.0282484808219503,2.2567152379902566,2.0576508772783244,0.611957715873596,-2.0589731514568093,5.872362135747261,13.715793336873286,-17.541160460777128,39.662472,34.17106816958018,0.0,39.66247200000001,0.9011702918502096,0.31399038,-0.15544966,0.25522059,1.0,0.0,0.0,0.0,51.37534836697627
4.864,67169.0215,-0.5680436673105818,-0.8479374861583837,1.20177722419308,1.692199037576485,1.1669748597202934,-2.0352046367250303,5.461230337978436,13.460837945242544,-18.29685792920844,37.724102,31.81443934625028,0.0,37.724102000000016,0.9017697963065164,0.32874206,-0.1570065,0.2325701,1.0,0.0,0.0,0.0,51.21663385355609
4.8846,67169.0425,-0.12970563950435343,-0.5978634007531363,0.08001114938827136,1.3795013624144623,1.6820477283418607,-2.055267342760119,5.021556611968127,13.152240875295567,-19.08634296916734,35.166592,28.950425460469194,0.0,35.16659200000001,0.903670990704998,0.34176007,-0.15388414,0.20711945,1.0,0.0,0.0,0.0,50.71024307813068
4.9117,67169.0635,0.2675532725174512,-0.3471235321558259,-1.0768558148763425,1.1444603557813238,2.1178107875735273,-2.1399955803195208,4.49369890161201,12.764963491292638,-19.867553409157978,31.816576,25.529895784511815,0.0,31.816575999999998,0.907145888157274,0.35209921,-0.14528829,0.17889605,1.0,0.0,0.0,0.0,49.77226618498295
4.9226,67169.0835,0.5455736569348879,-0.13708449627771335,-2.213228321561166,0.9855858934271716,2.4550442168752125,-2.297147617973474,3.9039019084114286,12.345897227306097,-20.566323737971306,27.889296,21.83211268395381,0.0,27.889296,0.9113521616893188,0.35969952,-0.13270172,0.14981237,1.0,0.0,0.0,0.0,48.6142316684871
4.9432,67169.1035,0.6750005746995438,-0.018525749469979758,-3.25517259690014,0.884112359930457,2.704951240753411,-2.515328232182741,3.37263741374998,12.007579060106536,-21.100335029087052,23.491579,17.955393569139584,0.0,23.491579,0.9151465675924632,0.36621493,-0.11886749,0.11943159,1.0,0.0,0.0,0.0,47.54689966498843
4.9662,67169.1235,0.6513110137425009,-0.018712563729905707,-4.168880347641012,0.8139639638835492,2.8957799554453607,-2.7703810961212167,3.0511255097194647,11.778821917737599,-21.469952185979597,18.698374,13.991466150941708,0.0,18.698374,0.9180200149409004,0.371811,-0.10657889,0.08738863,1.0,0.0,0.0,0.0,46.72336636115867
4.9859,67169.1435,0.4798206288961968,-0.14654769945784496,-4.989412138644583,0.7479192256841354,3.051781742110754,-3.0269200800463922,2.992275196122586,11.640136280235128,-21.720919380832072,13.192261,9.693926576748044,0.0,13.192261000000002,0.9199777765218,0.37643924,-0.09654576,0.0511205,1.0,0.0,0.0,0.0,46.15433353943555
5.0028,67169.1635,0.15096575753429742,-0.3559933582541017,-5.750417698262597,0.6358328363082998,3.1826277554180904,-3.2514045696866956,3.038728607948873,11.57728217751667,-21.907351100479044,6.816954,4.928706217756915,0.0,6.81695400000001,0.9208132719671164,0.38027292,-0.08591972,0.01064078,1.0,0.0,0.0,0.0,45.90946438295041
5.0301,67169.1834,-0.32876572607065485,-0.5691728341983708,-6.392060258946246,0.42275924117599045,3.2802447136848394,-3.4278113146922933,2.9228767872138826,11.573561438098466,-22.084773034281163,-0.593914,-0.4236589443270034,0.0,0.5939140000000123,0.9206094083859288,0.3827635,-0.0698605,-0.0330141,1.0,0.0,0.0,0.0,45.96932701052744
5.0475,67169.2035,-0.980626702550058,-0.7420819080284318,-6.789228696012357,0.15200818626746018,3.334489971338584,-3.5461160257635376,2.8155487728078676,11.638924442162924,-22.23241221272398,-8.608382,-6.099304732922452,0.0,8.608382000000006,0.9186349511364964,0.38361481,-0.05218012,-0.07890969,1.0,0.0,0.0,0.0,46.545340092463185
5.0668,67169.2235,-1.8257971611028732,-0.859368255240068,-6.860614171653886,-0.13257427183923587,3.2991420442964032,-3.6516386073301663,2.839653199367432,11.5981229604044,-22.44260671626806,-16.20825,-11.592649334996116,0.0,16.208249999999992,0.9164707852897712,0.37895086,-0.03614059,-0.12317225,1.0,0.0,0.0,0.0,47.16906174217564
5.0821,67169.2435,-2.9073230693756655,-0.958468661600115,-6.571663743262764,-0.4270477668868456,3.157779531093517,-3.745077694940714,2.8913164116834125,11.568678796075758,-22.688105203896928,-23.292356,-16.99224830733203,0.0,23.292356000000012,0.913624013156398,0.37064993,-0.01970573,-0.16589598,1.0,0.0,0.0,0.0,47.97786343497417
5.1014,67169.2635,-4.265944793103605,-0.9734985066913416,-5.8551187646010945,-0.7002230593956077,2.873618747503147,-3.812241696437772,3.0840590494354165,11.52920178201514,-22.978358286937215,-30.107056,-22.59073397787128,0.0,30.107056,0.9093690332466584,0.35878965,-0.00498734,-0.2104592,1.0,0.0,0.0,0.0,49.16339656494477
5.1246,67169.2835,-5.783445094133617,-0.8120583529307892,-4.617442141510965,-0.9618448753205548,2.4333986763941886,-3.8010031957057935,3.438694880287842,11.526068109186395,-23.273047907486067,-36.492188,-28.22532320661841,0.0,36.492188,0.9029517578508494,0.34542581,0.00739007,-0.25554749,1.0,0.0,0.0,0.0,50.902366475526584
5.1456,67169.3035,-7.0458894935622896,-0.34285840695802094,-2.7407891989437942,-1.2830681378456665,1.8240918854223638,-3.653380202672191,3.5453423997073727,11.35757187821028,-23.684192628101172,-42.717644,-34.3779783192937,0.0,42.71764400000001,0.8952596165814015,0.32579026,0.02328712,-0.3030324,1.0,0.0,0.0,0.0,52.916407558377145
5.1704,67169.3235,-7.762419587796895,0.5057528020559894,-0.5785903822590814,-1.5957147952849065,1.0968108193778594,-3.347257082853901,3.7791777531156123,10.920075094439456,-24.13077584747371,-47.87162,-40.124702189964694,0.0,47.87162000000001,0.8871314629430972,0.30151471,0.03288512,-0.34785804,1.0,0.0,0.0,0.0,54.97005595060648
5.1889,67169.3435,-7.7398891985840494,1.4724853085896945,1.4598169434028438,-1.8984051453902517,0.38854089988786433,-2.8736775374964885,4.045234946581575,10.567712626329023,-24.394766553264102,-51.847244,-44.84493206189264,0.0,51.84724399999999,0.8789148596985332,0.27949333,0.03814733,-0.3846257,1.0,0.0,0.0,0.0,56.97652123332037
5.2047,67169.3635,-7.074388220856095,2.168307126749723,3.173050958898207,-2.150910919026524,-0.16040870659644435,-2.2897817935696905,4.335894933513361,10.60238038247259,-24.322700179120197,-54.804394,-48.28929500104805,0.0,54.804394,0.8710554429109598,0.2651155,0.0403271,-0.41152146,1.0,0.0,0.0,0.0,58.836957281518686
5.2264,67169.3835,-6.246521435745098,2.617588038849462,4.509167476388688,-2.257133845424351,-0.4942964835927295,-1.6714019384949816,4.869264317855162,10.583997321636778,-24.081088141101546,-56.35667,-50.280898482306185,0.0,56.35667000000001,0.8669339571396597,0.25235304,0.03097139,-0.42870063,1.0,0.0,0.0,0.0,59.791446082736456
5.243,67169.4035,-5.551531227085641,3.0033589673206196,5.591534787113805,-2.1643222094200496,-0.5644828895487249,-1.0023100435549241,5.393330098697516,10.20507161255802,-23.911254420150758,-56.9258,-51.602157978220845,0.0,56.92580000000001,0.8663781199780947,0.23351678,0.01160767,-0.44127557,1.0,0.0,0.0,0.0,59.9191139509091
5.2624,67169.4235,-4.986723314978002,2.951643777206212,6.540042321742156,-1.852640600968014,-0.3906267006114699,-0.2613706068178665,5.387649849078027,10.149886502918763,-23.73992768810546,-57.16214,-52.58255873136594,0.0,57.162139999999994,0.8667490601911574,0.21583277,-0.00184642,-0.44962081,1.0,0.0,0.0,0.0,59.83394170954757
5.2824,67169.4435,-4.639507866904497,2.5397300517786956,7.155828152497254,-1.3470633069350981,-0.08997966676974234,0.5174885831805385,5.077573304654551,10.38209165182052,-23.627605760575992,-56.944885,-52.99967302978446,0.0,56.944885,0.8685811662536115,0.20081879,-0.01106134,-0.45289758,1.0,0.0,0.0,0.0,59.41164368189693
5.3036,67169.4635,-4.394272766068671,1.9442132642211725,7.258444760795477,-0.7458110627284463,0.230528910022864,1.2848856983915287,4.643891014823576,10.73836109250194,-23.628205446766092,-55.958481,-52.56005857999943,0.0,55.958481000000006,0.8732000327623451,0.18804055,-0.01764018,-0.44927862,1.0,0.0,0.0,0.0,58.33467874177444
5.3311,67169.4835,-4.019414508332201,1.148024902985091,6.768541893582384,-0.1773108231444892,0.46387883801967916,1.9754491611433833,4.031789140131825,11.324493724736877,-23.645253864734336,-54.019611,-50.96507242469162,0.0,54.019611,0.8812951391926067,0.1806331,-0.01696745,-0.43635154,1.0,0.0,0.0,0.0,56.40201580327833
5.3495,67169.5035,-3.28938639489607,0.20248897599138127,5.656682468045831,0.2667315597213866,0.4959001165287815,2.517048228131475,3.0516138327997555,12.159275353410045,-23.575651521020653,-51.544193,-48.633852709190684,0.0,51.54419300000001,0.8913346589422516,0.17899829,-0.00246768,-0.41650456,1.0,0.0,0.0,0.0,53.91711680377285
5.3742,67169.5235,-2.4835528390074115,-0.6789144292307134,3.929507683555144,0.5220694378851036,0.27895519742664643,2.862299327965068,1.9740578075582005,12.99513787229341,-23.39319365993604,-48.633221,-45.80526576310951,0.0,48.63322099999999,0.9019408064545992,0.18191229,0.02018053,-0.39115655,1.0,0.0,0.0,0.0,51.17127601066169
5.3878,67169.5445,-1.9544602513695368,-1.4468802440459707,1.8567851319968618,0.5929583873368078,-0.12180696436318061,3.0518389957082666,1.0928585032336284,13.742127343371605,-23.1039918320175,-45.20961,-42.428638183372115,0.0,45.20961,0.912373395202794,0.18982483,0.04366258,-0.36004847,1.0,0.0,0.0,0.0,48.3291486033159
5.407,67169.5645,-1.997542234056885,-1.8827970521518682,-0.11602060520399249,0.507988063717983,-0.4589808318498432,3.223082518766649,1.0805714913899505,13.813671209204163,-23.08946214344627,-41.618484,-38.96355476272776,0.0,41.618483999999995,0.9225741945398984,0.19338673,0.05047726,-0.33001587,1.0,0.0,0.0,0.0,45.38927769933625
5.4329,67169.5845,-2.431843267974189,-2.2214625965768917,-1.6795440032603661,0.3277036672085165,-0.5554635181884758,3.5123711995181948,1.9276553506112084,13.389613775030842,-23.262330958737074,-38.402653,-35.86478027131392,0.0,38.40265299999999,0.9314328246260803,0.19306922,0.04081477,-0.30576351,1.0,0.0,0.0,0.0,42.6814418066641
5.4594,67169.6055,-2.750446606167814,-2.7476904474889965,-2.7091585289889446,0.16176435538188727,-0.4046821263097319,3.9348950412436072,2.4918000507689904,13.077043787128108,-23.29189589271117,-34.507896,-32.15128392625285,0.0,34.50789600000002,0.9410306313822429,0.19335862,0.03362537,-0.27557781,1.0,0.0,0.0,0.0,39.549271890422645
5.472,67169.6255,-2.622062425487144,-3.369438329981949,-3.1055386999039136,0.09847180574242997,-0.12456820074798935,4.414501317211349,2.170345672664517,12.919098893756404,-23.204890190780855,-30.272804,-28.24313957207439,0.0,30.272804000000008,0.950614106102323,0.19171154,0.04037247,-0.24072717,1.0,0.0,0.0,0.0,36.16369743795367
5.4885,67169.6465,-1.9301284414003144,-3.844262424426556,-2.90274877710978,0.1801352918436161,0.16197664241381693,4.807999937652043,0.9991956045358308,12.523087723798264,-23.164134331600025,-24.957268,-23.526165349905025,0.0,24.957268,0.961783632792748,0.1816991,0.05869489,-0.19624625,1.0,0.0,0.0,0.0,31.78229224648525
5.5082,67169.6665,-0.8453891798851766,-3.9082632329907985,-2.3954243443091796,0.4058771908155941,0.34377760192249385,4.961282472190975,-0.2887717976825033,11.696603388600304,-23.172944857506995,-18.876255,-18.11154047641514,0.0,18.876255000000015,0.9725828160136526,0.1633298,0.07851356,-0.1457452,1.0,0.0,0.0,0.0,26.89529645717158
5.5255,67169.6865,0.3663455487964984,-3.5593617799308497,-2.0218439888520505,0.809291346876217,0.3025343485483407,4.813883197271975,-1.3750060064291845,10.871683192277889,-23.056391431510153,-12.553366,-12.260181782367544,0.0,12.553366000000011,0.980031687821529,0.14604092,0.09859297,-0.09213776,1.0,0.0,0.0,0.0,22.938427498842536
5.5469,67169.7065,1.2307427141331915,-2.956543468016543,-2.0025006307296893,1.2722318844157852,0.02973977311321252,4.43705122651427,-1.6492418645075064,10.40606803122881,-22.827159652417237,-6.871364,-6.772641634365292,0.0,6.871364,0.9834976188349912,0.13765261,0.10907204,-0.04344517,1.0,0.0,0.0,0.0,20.846828287806265
5.5653,67169.7265,1.7068423673780135,-2.3066559846942347,-2.25675345919654,1.7044361667863348,-0.4007285810718485,3.952360761371535,-1.501940055694518,10.459293972986782,-22.51831937783653,-1.75165,-1.72745683905697,0.0,1.7516500000000121,0.9833780803535024,0.14087929,0.11453557,0.00147646,1.0,0.0,0.0,0.0,20.922405941549535
5.5881,67169.7465,1.872634597420681,-1.7214286408647612,-2.5284050011853543,1.9454184385960205,-0.8675184556901834,3.497812569001378,-1.1289471021924224,10.84634332975152,-22.227043106438302,2.629131,2.5749296029671216,0.0,2.629131000000001,0.9805698266573496,0.15308121,0.11585605,0.04032783,1.0,0.0,0.0,0.0,22.626203211764697
5.6085,67169.7665,1.8828782347915791,-1.330726932520996,-2.5551192514126804,1.839564122409093,-1.258030840083443,3.2220887363917696,-0.4760386223011955,11.424373336125965,-21.966289384519367,6.648678,6.405053244951461,0.0,6.64867799999999,0.9762529873686508,0.17204648,0.10845632,0.07461461,1.0,0.0,0.0,0.0,25.022766130569398
5.6297,67169.7865,1.9122133774943029,-1.1336795638131458,-2.165504211027491,1.333861309696231,-1.4372077236150471,3.2338100948860617,0.624329687259892,11.814280431702485,-21.816248911542427,10.540949,9.942477967228218,0.0,10.540949000000012,0.9725667588589936,0.18873979,0.08781334,0.10382682,1.0,0.0,0.0,0.0,26.90320742253428
5.6487,67169.8075,2.1442762620393956,-0.8984094413101016,-1.3805484694691668,0.5631506172461412,-1.2882325073391125,3.501350108987794,1.7882916034312948,11.567601517069319,-21.899614444844143,14.622236,13.659942714694106,0.0,14.622235999999987,0.9705772769944396,0.19143029,0.06224551,0.13213512,1.0,0.0,0.0,0.0,27.86632464301486
5.6697,67169.8275,2.594715862479629,-0.4353680138486493,-0.44073803825322955,-0.22668290139420388,-0.9122319324854331,3.842130315324924,2.4744892938078067,10.978366069810376,-22.032090757801694,19.556257,18.31373373300001,0.0,19.556256999999988,0.9673930386714442,0.18400192,0.04248654,0.16878654,1.0,0.0,0.0,0.0,29.34337027934664
5.6899,67169.8475,3.297526301181568,0.5919042514960071,0.20978310586385085,-0.7116727227850419,-0.4383957519123223,4.109997147436944,1.9975626032245732,9.857514501490899,-22.360674446121905,24.880348,23.688011421143596,0.0,24.880347999999998,0.961893453133584,0.16325775,0.04739762,0.21415265,1.0,0.0,0.0,0.0,31.736299280098507
5.7249,67169.8685,3.637410131777388,1.7790051548565307,0.3346007453143187,-0.9085151403814192,-0.09697708949647255,4.183036120074509,1.4259654522246341,8.834405000027806,-22.476033688507215,30.555216,29.575222188592075,0.0,30.555216,0.9527724043698668,0.14063871,0.05692012,0.26306957,1.0,0.0,0.0,0.0,35.358168605549835
5.7351,67169.8885,3.454285446849619,2.5275702820899926,-0.037759308601033936,-0.8567230129183211,-0.011749342618468495,4.067710182055141,1.2430882809799466,8.451624310909978,-22.237726656361563,35.922058,35.085462787893555,0.0,35.92205799999999,0.9411073974115376,0.12602763,0.06058084,0.3078374,1.0,0.0,0.0,0.0,39.523262547104835
5.7508,67169.9085,3.1025604975584353,2.6794916539150817,-0.7920030717157811,-0.5720392285463624,-0.1896194264793145,3.8627775113238902,1.2329094858115321,8.703161613534258,-21.768742388007713,40.362957,39.53231991279964,0.0,40.362956999999994,0.9290273706715168,0.12174689,0.06208065,0.34384856,1.0,0.0,0.0,0.0,43.432592103434146
5.7709,67169.9285,2.7798193066872567,2.5277053608412348,-1.7082816781660668,-0.1373525589202671,-0.6116023068034693,3.6368027032843213,1.3116753385730902,9.326051668807908,-21.202771561387845,44.772274,43.82931041018716,0.0,44.77227400000001,0.9153895835732068,0.12304212,0.060852,0.37844363,1.0,0.0,0.0,0.0,47.47777241973003
5.7925,67169.9485,2.670811136007557,2.448721575928973,-2.5286453249518646,0.4158362703461855,-1.2027176531813788,3.427262845823367,1.5149276104675518,9.999885659553952,-20.668388305255718,48.929672,47.82141370109176,0.0,48.92967199999998,0.9015847972781884,0.12549378,0.05650708,0.41012573,1.0,0.0,0.0,0.0,51.265659892516325
5.8086,67169.9695,2.7220017166239803,2.7728559812140876,-2.9735860758024595,1.032791806309804,-1.8161505148781703,3.2705876022520632,2.076520727500358,10.398959522377554,-20.29897406914975,52.961529,51.78361196334797,0.0,52.961528999999985,0.8884087124561973,0.121028,0.04467567,0.44055223,1.0,0.0,0.0,0.0,54.65207492459807
5.8286,67169.9895,2.7941240697553633,3.3806738096646862,-2.850956444459407,1.6682999187322747,-2.3205498580889734,3.16850800700186,2.8534145532306687,10.814796377328166,-19.93327263053307,57.836414,56.57916127005679,0.0,57.83641399999999,0.8712567516676869,0.11526828,0.02165961,0.4766086,1.0,0.0,0.0,0.0,58.789975618952106
5.8535,67170.0105,2.8237325440762824,3.6684184752354883,-2.1273953807527874,2.1524674119544107,-2.683964290524658,3.0612968788799217,3.818370431753573,11.771904727534928,-19.206032408246656,63.089397,61.60743479654431,0.0,63.08939699999999,0.8496696960862893,0.12157767,-0.018515,0.51277429,1.0,0.0,0.0,0.0,63.64847626504799
5.8699,67170.0305,2.91590026323636,3.2264724843920884,-1.16005982673434,2.300001137120959,-2.946155602325798,2.9230060608523925,4.860593133320235,13.134274837007345,-18.054946592409834,67.635773,66.06367700900272,0.0,67.635773,0.8262873247932846,0.14139408,-0.07188761,0.54045272,1.0,0.0,0.0,0.0,68.56155172344302
5.8909,67170.0505,3.1911119238942134,2.513351661693708,-0.5719366251853426,2.134819226938792,-3.1212512942879034,2.8014980385403754,5.6592788846716395,14.149169152358978,-17.034796326158034,71.198196,69.96109780262071,0.0,71.198196,0.8033027473245073,0.16130179,-0.12089641,0.56041992,1.0,0.0,0.0,0.0,73.10668185196968
5.9098,67170.0705,3.5546663700905423,2.505484626302064,-0.5310610634609283,1.9096252920097765,-3.169088279070047,2.7912027841349785,5.874471389146683,14.209611563201891,-16.94493784867264,74.785934,74.18788143407961,0.0,74.785934,0.7803451407220056,0.16494685,-0.14765792,0.58485138,1.0,0.0,0.0,0.0,77.41562593812844
5.938,67170.0905,3.5846667695943806,3.0654434514654634,-0.48143289575221004,1.7429834568530984,-3.233104245431433,2.8225609905162012,6.176114623051978,13.86532773652913,-17.19635717970429,78.139717,78.71202187335635,0.0,78.13971700000002,0.7570004215501239,0.15679537,-0.17226644,0.61048329,1.0,0.0,0.0,0.0,81.59905896817347
5.9555,67170.1115,3.025216181701362,3.709854547055646,0.02519901744419606,1.7349433044007623,-3.3225306504129524,2.8041323872424195,6.682014506474395,13.750091593579794,-17.201056935763162,81.5299,83.98316484369593,0.0,81.5299,0.7282797554880054,0.14720525,-0.20775791,0.63621998,1.0,0.0,0.0,0.0,86.51525382322107
5.9742,67170.1315,2.0836098135848613,4.085924098195761,0.8950439165187358,1.8935657546397726,-3.3554262870233647,2.724879004625235,7.040825588812705,13.87301790890816,-17.04606896180879,84.642265,89.29981175923707,0.0,84.64226500000001,0.6968087065537737,0.14315656,-0.24653253,0.65816832,1.0,0.0,0.0,0.0,91.6569529059716
5.9929,67170.1515,0.9798169794372624,3.9591591480828585,1.8172975535216125,2.099809364507561,-3.3059622476851303,2.620754503662617,7.2112083406200504,14.16126956300784,-16.778565835452138,87.400894,94.56033584152536,0.0,87.400894,0.663317192779169,0.14470978,-0.28678492,0.67588741,1.0,0.0,0.0,0.0,96.89329166846125
6.019,67170.1725,0.10136208853387974,3.3791114359790946,2.4598650245738956,2.237831349576787,-3.2457689324073846,2.498901698336981,7.239775744286474,14.465710752960662,-16.51678273734427,89.3293,99.08479076675575,0.0,89.32929999999999,0.6322688133544734,0.15146106,-0.32541525,0.6865862,1.0,0.0,0.0,0.0,101.56457892896928
6.0347,67170.1925,-0.48850501767915944,2.7658810053687413,2.7085953048095224,2.3033697128842623,-3.2131098683611343,2.376210396353711,7.087821316082659,14.683459206654575,-16.428178646514127,91.20594,103.35507074951735,0.0,91.20594,0.6011378868032423,0.16022079,-0.35863191,0.69594949,1.0,0.0,0.0,0.0,106.09712734540524
6.0618,67170.2125,-0.9987645330120829,2.491495910270722,2.7281565977277715,2.2868441338854066,-3.249055944620201,2.249525803238734,7.04055992107284,14.672020057690924,-16.57412946861648,92.884598,107.39056715390197,0.0,92.88459799999998,0.5716871721295702,0.16455662,-0.3868717,0.70457447,1.0,0.0,0.0,0.0,110.26407721914362
6.0759,67170.2325,-1.7534450194523008,2.5016904732671077,2.7623252548875126,2.221106584083569,-3.347691287814479,2.0565301057474006,7.23078797970165,14.614107780941481,-16.747798137833975,94.284142,111.59841239267631,0.0,94.28414199999997,0.5415529895403228,0.16437158,-0.41559213,0.71202916,1.0,0.0,0.0,0.0,114.42115945201215
6.0904,67170.2525,-2.7965917597348353,2.5404628179168456,2.878821449840874,2.177911614759987,-3.4296825872846064,1.7365392603773342,7.453875886477674,14.688581538968892,-16.856372913440204,95.722725,116.18723286315536,0.0,95.72272499999997,0.5076621903545974,0.16389318,-0.44540101,0.7190522,1.0,0.0,0.0,0.0,118.98353099515896
6.1103,67170.2725,-3.8216306520988033,2.381365196027999,2.991891753791805,2.16926692339341,-3.4294258262119115,1.295235465736513,7.605263727170958,14.824065615611064,-16.974523003220703,96.837227,120.561812396507,0.0,96.83722699999998,0.4740260021189549,0.16390282,-0.47418791,0.723589,1.0,0.0,0.0,0.0,123.4080958962481
6.131,67170.2924,-4.471005647899215,1.968388127058997,3.015992876203896,2.1341308094481803,-3.3366193486233375,0.817836906585208,7.804089105507912,14.815174293721878,-17.19799019587967,96.786499,124.08070174987489,0.0,96.78649899999999,0.4480464615478832,0.16048774,-0.50114596,0.72273839,1.0,0.0,0.0,0.0,126.76316826456954
6.1522,67170.3135,-4.647662987868542,1.2355549207700594,2.935766668742062,2.0478785503053865,-3.145651990744976,0.3951651856472381,7.975562699177889,14.750674490875934,-17.460750360088706,95.566521,126.97830270163148,0.0,95.56652099999997,0.4282327913149424,0.15474243,-0.52795279,0.71689421,1.0,0.0,0.0,0.0,129.28907836622056
6.1723,67170.3335,-4.356266379692663,0.2681944063581009,2.766591684892056,1.8945394853179176,-2.8471577275423154,0.08632301855469071,7.884783501686923,14.762344150535094,-17.745707806491648,93.40699,129.19262706519865,0.0,93.40699000000001,0.4129849401097545,0.15160301,-0.55413669,0.70667708,1.0,0.0,0.0,0.0,131.2150349741363
6.1976,67170.3535,-3.865701084308407,-0.4893471755592536,2.4317926327568564,1.6544303308637942,-2.447411625352113,-0.016285942402333276,7.751139187802751,14.6302677998292,-18.13129247232083,90.915764,131.28830384285723,0.0,90.91576399999997,0.4007530351830173,0.14471933,-0.57758152,0.6963138,1.0,0.0,0.0,0.0,132.74947442731215
6.2154,67170.3745,-3.3769996084758667,-0.7509074589884229,1.916951051463407,1.373337919623265,-1.9639181526114695,0.08600430802577042,7.712806921696999,14.271125608233197,-18.622648360515775,88.795189,133.81003297582515,0.0,88.795189,0.3880238397547518,0.13168776,-0.59725881,0.68947643,1.0,0.0,0.0,0.0,134.33681460014395
6.2338,67170.3945,-2.6687601586037264,-0.5454865354429962,1.3273054486215337,1.1219696462030617,-1.4542510423003274,0.27328691322817444,7.288483502910996,13.792616496252725,-19.331307855091428,87.727615,135.61452934283787,0.0,87.72761500000001,0.3776137043716483,0.12403581,-0.60884464,0.68653566,1.0,0.0,0.0,0.0,135.62810374383366
6.2571,67170.4155,-1.6738794060793643,-0.1080213794551563,0.7342456419594008,0.9375593194072374,-1.032482906195567,0.4213202222659697,6.311393017988278,13.325571738648707,-20.19677690120387,87.456223,135.908458383452,0.0,87.45622300000002,0.3732608733880578,0.12742117,-0.61278123,0.68479145,1.0,0.0,0.0,0.0,136.16627017555982
6.2859,67170.4355,-0.7103216428109684,0.2282004709394597,0.18605832097974861,0.8275997233413941,-0.7802938906621891,0.45976049948281916,5.1080683910162925,13.17229560323613,-20.87571232678273,87.689117,135.8875210033326,0.0,87.68911700000001,0.3655883262457183,0.14010438,-0.61636823,0.68323213,1.0,0.0,0.0,0.0,137.11241242807412
6.2958,67170.4555,0.0033842108804389426,0.43398059711532355,-0.21458465497458512,0.7712541629215898,-0.7047686926724734,0.4012766227244438,4.162643075593113,13.164439649081034,-21.358823158717275,87.934479,136.1002660980331,0.0,87.93447900000001,0.3556233874929171,0.1524657,-0.62103885,0.6816135,1.0,0.0,0.0,0.0,138.3366896196927
6.3185,67170.4755,0.40051217082447366,0.5578994356948654,-0.39942419681811003,0.7710287275561536,-0.7349966940408024,0.3579730388782916,3.793029313874742,13.085715196021127,-21.73628301320099,87.814812,136.8120725635782,0.0,87.81481200000002,0.3468245813327745,0.15585308,-0.62645257,0.68042612,1.0,0.0,0.0,0.0,139.4135702990075
6.3345,67170.4955,0.569821978961131,0.574680740525646,-0.3626340564049766,0.8273956861984666,-0.7912308742676798,0.48298679934137123,3.985585956209672,12.960355720332455,-21.985560486815324,86.599335,137.85701510417655,0.0,86.599335,0.3425824489172721,0.14869486,-0.63405365,0.67712855,1.0,0.0,0.0,0.0,139.9314217274063
6.3553,67170.5155,0.6021205257431079,0.4826666481976462,-0.17107838946382614,0.9314196389235294,-0.8224098045937548,0.8648190358038058,4.266508407789415,12.999018884103203,-22.03633027987035,84.767349,139.0285079014649,0.0,84.76734899999997,0.3380971836943104,0.14076091,-0.644041,0.67163074,1.0,0.0,0.0,0.0,140.47802689767167
6.3759,67170.5355,0.518485846457625,0.4287775186988553,0.07697842650879494,1.0652227260837597,-0.8253000303399101,1.4644766458744696,4.231158525856186,13.190218437405063,-21.968197569577004,83.539711,140.06737230400407,0.0,83.53971100000001,0.3293018080988457,0.14023885,-0.65330786,0.66714483,1.0,0.0,0.0,0.0,141.54719285283363
6.3955,67170.5555,0.2840094436205467,0.5237787915970492,0.32713677615123515,1.2096437629515653,-0.8109289183778152,2.1317486989229053,3.8275235775534995,13.42591337103193,-21.865529746390024,83.780426,141.00629941273726,0.0,83.78042600000003,0.3131877380755543,0.14940697,-0.65985227,0.66647279,1.0,0.0,0.0,0.0,143.49711238040206
6.4154,67170.5755,-0.10576980240224199,0.6496781807391998,0.5609996348852473,1.3320089990792838,-0.7943024255441695,2.6894467556832424,3.273472939958067,13.76144567913119,-21.66079198598757,85.256004,142.25831811336735,0.0,85.25600400000002,0.2855657543940313,0.16719535,-0.66598547,0.66855162,1.0,0.0,0.0,0.0,146.81466118877594
6.4366,67170.5955,-0.3774310554417477,0.6858986555584358,0.7424194018677479,1.4395339871213584,-0.7904043671031328,3.0156929592459787,2.590687532761242,14.123448631017386,-21.402064516748744,87.257355,143.20905192503002,0.0,87.25735500000002,0.2529463063022272,0.19222802,-0.67105508,0.66988927,1.0,0.0,0.0,0.0,150.6961436706977
6.462,67170.6155,-0.3971392990415952,0.6570574051211273,0.8214524561794168,1.5298148596474024,-0.8061090724235129,3.1272500108070855,2.1062652825232835,14.364873972384148,-21.163934625371738,88.831673,143.91511594158135,0.0,88.83167300000002,0.2218755347428649,0.21615301,-0.6758526,0.66878426,1.0,0.0,0.0,0.0,154.36156781297524
6.4771,67170.6355,-0.24368655333410683,0.6396309123896183,0.7645783806358324,1.6048385869155464,-0.8355768029595714,3.1382379269074914,2.037359103459421,14.429831457470875,-21.003644923827764,89.652489,144.78127772442454,0.0,89.652489,0.1935389295129977,0.23350005,-0.68138802,0.6661312,1.0,0.0,0.0,0.0,157.68123090192245
6.4961,67170.6555,-0.01699757174489136,0.6779720101533363,0.5964541957643483,1.7036569133336075,-0.8660935911895821,3.1507481053972346,2.173463083091585,14.313025772768572,-20.978059016500303,90.135765,145.62561819162957,0.0,90.13576499999999,0.1680430017808478,0.24702379,-0.68636417,0.66305733,1.0,0.0,0.0,0.0,160.65189100978958
6.5161,67170.6755,0.1653126331307666,0.7209503270904569,0.38983644342631685,1.8504184792422163,-0.8940405612779523,3.192701942996586,2.185066138982231,14.154880225082819,-21.044372976134817,90.698303,146.16893421962274,0.0,90.69830300000001,0.1420531875781361,0.26308867,-0.69026566,0.65889192,1.0,0.0,0.0,0.0,163.66665434376324
6.5408,67170.6955,0.16397536585549233,0.678598707216987,0.20751002047220268,2.0081712263578186,-0.92422691091029,3.236378910271453,2.060747624346007,14.175940449663205,-21.06267901468721,91.074425,146.67827093827498,0.0,91.07442500000002,0.1095149257438671,0.28310582,-0.69496602,0.65182805,1.0,0.0,0.0,0.0,167.42529214325575
6.5642,67170.7155,0.05028898402661497,0.6078054760682069,0.05062028899291704,2.1467782214855644,-0.9368726823899288,3.241259075635873,1.852696580722375,14.33969960737169,-21.037895943474805,91.157021,147.0869141765682,0.0,91.15702099999999,0.0718277259023978,0.3055172,-0.6997087,0.6418004,1.0,0.0,0.0,0.0,171.7620549605474
6.5769,67170.7355,-0.021913515494612845,0.6452141448022766,-0.0877337359939645,2.2480490673553515,-0.9236547143997402,3.2225456279356974,1.7762158247855595,14.500592148970496,-21.02197523504595,90.762283,147.5422418326031,0.0,90.76228300000002,0.0332715372462324,0.32532811,-0.70396507,0.63046634,1.0,0.0,0.0,0.0,176.18665889658433
6.5984,67170.7554,0.1266280234635886,0.8851338331207043,-0.15991559819481793,2.347536030839254,-0.8943803979884792,3.24053782522816,1.8516407472792107,14.50238535286516,-21.101035243994875,90.206947,147.91007134292656,0.0,90.20694700000001,0.0013502147905181,-0.34147143,0.70649129,-0.61989152,1.0,0.0,0.0,0.0,179.84527673512216
6.6151,67170.7755,0.5610414205736234,1.1911690995728585,-0.09651215156304715,2.500113145190819,-0.8949739990268509,3.3524421184448654,1.8943168876190555,14.352546649339164,-21.27840094841382,89.703453,147.7918580778082,0.0,89.70345299999997,0.0302738200453378,-0.35703492,0.70731544,-0.60935575,1.0,0.0,0.0,0.0,176.53034563351423
6.6337,67170.7955,1.1013795628411485,1.2302903695101917,0.10154158993906748,2.6947593471315976,-0.9953671349133165,3.586388517931926,1.8116753720899599,14.305250735288341,-21.39111557877319,88.629807,147.22252969046795,0.0,88.62980700000003,0.0596428885947004,-0.37411612,0.70847231,-0.59543836,1.0,0.0,0.0,0.0,173.1613698367379
6.6576,67170.8155,1.5071006176159853,0.8240018924045034,0.3210117317339929,2.8563011813097803,-1.250240798216727,3.9154042469334183,1.619867213260573,14.60613718272392,-21.268169601102578,86.041138,146.41175162412952,0.0,86.04113799999999,0.0969395951430952,-0.39250788,0.71138591,-0.57486552,1.0,0.0,0.0,0.0,168.8740684471698
6.6765,67170.8355,1.67289901149219,0.24135278815568395,0.43446824621220514,2.8973646892775324,-1.6640497528129208,4.266411615458326,1.505040819466739,15.107661746958875,-20.9687571745878,81.793846,145.74827467197338,0.0,81.79384600000003,0.1420737889541729,-0.40800336,0.71455216,-0.5502395,1.0,0.0,0.0,0.0,163.6642694108979
6.7069,67170.8555,1.62703705459935,0.032386890900295895,0.4906397009104424,2.828223749013409,-2.10643253368372,4.552618225937389,1.4283078635948412,15.368251181487036,-20.80035237101829,77.975983,145.00728865543965,0.0,77.97598299999999,0.1917431585498262,-0.422611,0.71110731,-0.52816749,1.0,0.0,0.0,0.0,157.89093911100582
6.719,67170.8775,1.2964367214140164,0.39456329466592466,0.6447074708378153,2.751096291750112,-2.4080884523138035,4.7274001662278895,1.2548756932036085,15.276864990150028,-20.883396373566786,76.043198,143.40533821594764,0.0,76.04319800000002,0.249973378748769,-0.44221926,0.69437957,-0.50969839,1.0,0.0,0.0,0.0,151.04812623281006
6.7383,67170.8975,0.6570333540858857,0.9991269967948838,0.8878298178849189,2.71561994346305,-2.5591443867033483,4.786740743434164,1.2936756929785265,14.96017147235026,-21.139669078449806,73.843315,141.19459256043265,0.0,73.84331500000002,0.3094291793650156,-0.45957696,0.67024457,-0.49377608,1.0,0.0,0.0,0.0,143.95033286938428
6.757,67170.9175,-0.01724881320434335,1.314476380184178,1.117569505843683,2.7254740005067575,-2.6584208596118257,4.751988333621113,1.568156983231619,14.83079157210668,-21.293469684265,67.29277,138.49800158509197,0.0,67.29277000000002,0.3632946343899272,-0.46801174,0.6505205,-0.47518954,1.0,0.0,0.0,0.0,137.3946615707697
6.7773,67170.9385,-0.44131357806735894,1.1617194323807105,1.261784759000955,2.766822757234123,-2.7011625366886647,4.725971210018246,1.7064477317610312,14.924390009690988,-21.335152433192125,57.327759,133.05512448768891,0.0,57.327759000000015,0.4138796693399824,-0.47297022,0.63306904,-0.45191413,1.0,0.0,0.0,0.0,131.10243255912312
6.8068,67170.9585,-0.383416111314566,0.6495458543287753,1.2438823331523867,2.7828291850973708,-2.7254119405344284,4.763851448473533,1.5816694720612228,15.024088144062242,-21.38028747159622,47.311756,122.01230436861931,0.0,47.311756,0.4592449869499161,-0.47713822,0.61622602,-0.42626125,1.0,0.0,0.0,0.0,125.3232027693719
6.8293,67170.9785,0.06776644250218422,-0.0005904307238284723,1.0208337203107796,2.7256523155729924,-2.770430620570521,4.836287020599357,1.2188777605995185,15.117986716400807,-21.375164102883232,37.886829,97.40574926442758,0.0,37.886829000000006,0.5064204816848753,-0.48210821,0.59446418,-0.39714268,1.0,0.0,0.0,0.0,119.14861484328249
6.8384,67170.9985,0.7402293217826744,-0.3512551605753269,0.6588244749152903,2.592710441710087,-2.8219535767228203,4.874431920766795,0.7516123629306235,14.931293075332924,-21.465081950809513,30.274431,58.63746367389455,0.0,30.274430999999993,0.5526376457490726,-0.48904976,0.56557995,-0.36815932,1.0,0.0,0.0,0.0,112.90368930883581
6.8581,67171.0185,1.370222558377245,-0.288173424212808,0.2810982129202646,2.3915728135436902,-2.9013212701543862,4.782294994458838,0.4285621438336009,14.502176730951575,-21.6181286269006,23.228188,30.973312419412473,0.0,23.22818799999999,0.5959652420190233,-0.49419799,0.53277415,-0.34168038,1.0,0.0,0.0,0.0,106.83705471484855
6.8807,67171.0395,1.785311900866175,0.05989026109366913,-0.02271615934389004,2.1620640964885722,-2.9875414161755334,4.478527589624315,0.2767211390166615,14.039923259508981,-21.735821148399992,16.150728,16.21374517256829,0.0,16.150728000000015,0.6385277076769821,-0.49596503,0.49660259,-0.31573236,1.0,0.0,0.0,0.0,100.63575645134227
6.9012,67171.0605,1.9820639544972598,0.5922044029395139,-0.18241262103339828,1.961328951073491,-3.005949064116386,3.928674636127459,0.17934931034166013,13.597214729996574,-21.841982178108776,9.976756,8.195631740410574,0.0,9.976755999999995,0.680151579819187,-0.4959594,0.45625561,-0.28852889,1.0,0.0,0.0,0.0,94.28902167814296
6.9231,67171.0805,2.071866460557599,1.1613419260284021,-0.1563898929153904,1.7888052450603735,-2.9300973160320645,3.1574163118303606,0.2525568686983427,13.163973785368933,-21.987346342613403,4.566718,3.3659208861436714,0.0,4.566718000000009,0.7161600152245099,-0.49168485,0.41787028,-0.26597983,1.0,0.0,0.0,0.0,88.52330509981178
6.9416,67171.1005,2.199845174941521,1.6155757429269242,0.027125491526208023,1.656550492408352,-2.7492173527805397,2.259269591475319,0.48838913618010465,12.70316480817806,-22.21091160304488,-0.275094,-0.1943729479901981,0.0,0.27509399999999573,0.7435745716279877,-0.48337999,0.38674593,-0.25272164,1.0,0.0,0.0,0.0,83.92637781051005
6.9656,67171.1205,2.276931192500755,1.8624846154877575,0.25090846768060615,1.5934801740324105,-2.46699518497729,1.3810001945152566,0.8498564825168018,12.183915089571734,-22.512772770679465,-5.254426,-3.6134866126070477,0.0,5.254425999999995,0.7657359400055227,-0.47447065,0.35711786,-0.24696742,1.0,0.0,0.0,0.0,80.05498200200884
6.9917,67171.1405,2.359310133809277,1.683703224277624,0.3072536857092665,1.5692001021354922,-2.1777304924568557,0.5882513386391719,1.100582316571405,11.881761892867129,-22.723421191234795,-9.330066,-6.511251990835681,0.0,9.330065999999988,0.7832995043979891,-0.46136451,0.33645219,-0.24573278,1.0,0.0,0.0,0.0,76.87264879148408
7.0254,67171.1605,2.4469778200970005,1.0243012096477382,0.07627797684440019,1.4997446732190265,-1.9342263313480643,-0.07052583272928314,1.0278651399727583,11.98365729812271,-22.743103999746232,-11.721767,-8.681736728257803,0.0,11.721767,0.7977597916925524,-0.44212317,0.32837436,-0.24551313,1.0,0.0,0.0,0.0,74.16658484861225
7.0301,67171.1805,2.278968661160126,0.215419714179236,-0.34052094078748496,1.3221796659762728,-1.7370242531649516,-0.5045137914655063,1.1574317282448194,12.09911656060128,-22.744563895669568,-15.160691,-11.842184346522156,0.0,15.160690999999986,0.810764630116062,-0.42115951,0.31887063,-0.25220409,1.0,0.0,0.0,0.0,71.65858949149938
7.0598,67171.2015,2.048544782038515,-0.5567309854961686,-0.8070296707800484,1.0183798750784967,-1.563167409019243,-0.7730530086322097,1.383078357634445,12.242185116616563,-22.738194623333378,-18.966702,-15.654983098565035,0.0,18.966701999999998,0.82114129034597,-0.39818048,0.31163105,-0.26469865,1.0,0.0,0.0,0.0,69.60158996951495
7.0629,67171.2215,1.9012271091974176,-0.9466570881689083,-1.1885081158476876,0.6656158736208099,-1.3630377923349606,-0.9352683370651482,1.4139311861759731,12.09281762171096,-22.94183860416038,-22.131664,-18.688873784266654,0.0,22.131664,0.8284812840312484,-0.38327748,0.30136213,-0.27549592,1.0,0.0,0.0,0.0,68.11391246255754
7.084,67171.2415,1.8425202157857439,-0.9492647195061683,-1.4370178567519538,0.338737093759386,-1.1390225444934412,-1.0691917788199747,1.366654513887787,11.601874154951087,-23.38115421191418,-25.215117,-21.24739016148665,0.0,25.215116999999992,0.8320259505290992,-0.3765642,0.28910807,-0.28696471,1.0,0.0,0.0,0.0,67.38516390034212
7.0995,67171.2615,1.838662354044929,-0.7930026217378519,-1.6404717571924774,0.09784222016463762,-0.902609058460402,-1.2252488203133884,1.298103419121765,10.98230696323606,-23.911830809490397,-28.343351,-23.72244894010356,0.0,28.343350999999984,0.8319862040297951,-0.37346244,0.27927881,-0.30054635,1.0,0.0,0.0,0.0,67.39337386470835
7.1203,67171.2814,1.8932823221767638,-0.7026823701227713,-1.89443328720394,-0.04781113854159874,-0.6704947914611452,-1.4017955061386451,1.1441313904530315,10.493262285291534,-24.377403084454166,-31.133692,-26.145246600042363,0.0,31.133691999999996,0.8293509890542318,-0.36992425,0.27571368,-0.31514275,1.0,0.0,0.0,0.0,67.93574700071568
7.141,67171.3015,1.9299272861875163,-0.739816895364724,-2.1803612944023314,-0.11773768561405851,-0.45717969541697023,-1.5728350095102597,1.0784422660312458,10.204777449208407,-24.710408834201303,-33.894382,-28.82724035782432,0.0,33.89438200000001,0.8262022326829979,-0.36391318,0.27473301,-0.33087587,1.0,0.0,0.0,0.0,68.57886158123259
7.1622,67171.3215,1.934722400564203,-0.8437311563113274,-2.4482446740898443,-0.1460996917705007,-0.27783561516415534,-1.7248603729735983,1.224514739453003,9.86241889080176,-24.987397525550875,-37.281223,-32.00738853655187,0.0,37.28122300000001,0.8216657512532557,-0.35840145,0.27225986,-0.34969753,1.0,0.0,0.0,0.0,69.49621770143594
7.1844,67171.3425,2.0319710375762634,-1.0926240527188942,-2.7478055762966784,-0.18935257861891452,-0.12623283374877636,-1.8795926409917414,1.339370474731135,9.539556496277296,-25.17823451723743,-40.711861,-35.450972854952774,0.0,40.711861,0.8144040777574021,-0.35302883,0.27377036,-0.37035987,1.0,0.0,0.0,0.0,70.94303800497234
7.2041,67171.3625,2.172459867615717,-1.4674960569944782,-3.1401433629259294,-0.284788919229517,-0.01281217715706029,-2.0785514367054647,1.239048186701309,9.278814664256723,-25.29204540127387,-43.172115,-37.997672668283734,0.0,43.17211499999999,0.8075308551312372,-0.35006174,0.27677035,-0.38567975,1.0,0.0,0.0,0.0,72.28922790819374
7.2286,67171.3825,2.061941463115867,-1.8755206901838088,-3.6136847887893166,-0.45224576793930127,0.06269804631612741,-2.3503049476409017,1.1397096096426047,8.977215241435736,-25.39157587662263,-45.641338,-40.42925348830656,0.0,45.64133799999999,0.7994002643146757,-0.34931651,0.28008372,-0.40061241,1.0,0.0,0.0,0.0,73.85426016382105
7.245,67171.4025,1.3940648402978773,-2.2040782402495442,-4.0801367258140475,-0.6665940961748433,0.15417960895104577,-2.6885218829904645,1.3727937576649687,8.537743355916046,-25.53532467135362,-49.532742,-44.021301065346975,0.0,49.532741999999985,0.7877939011920365,-0.34906715,0.28156567,-0.42220098,1.0,0.0,0.0,0.0,76.04035311429202
7.2733,67171.4225,0.2162790050325909,-2.419324705323522,-4.4762378223160715,-0.875235512466618,0.3832130794724519,-3.0723796348093257,1.9647092718385224,8.06167477655909,-25.70687044294359,-55.180298,-49.5540142651254,0.0,55.18029799999999,0.7706347218982067,-0.34644148,0.28398252,-0.45327073,1.0,0.0,0.0,0.0,79.1781588297087
7.2858,67171.4425,-1.0625868910557474,-2.517442160373044,-4.704600157826565,-1.009033196570742,0.7760197403354107,-3.51739661217775,2.598849709391544,7.403673495069198,-25.969877328978818,-61.672565,-55.28019798795158,0.0,61.67256499999999,0.7504037011921856,-0.34793964,0.28313237,-0.48545685,1.0,0.0,0.0,0.0,82.74928031777404
7.3016,67171.4625,-2.0449166647221357,-2.676674903625612,-4.641504852950491,-1.0822383187601488,1.3006933954263526,-4.042517113884479,2.793413468350993,6.834808227080153,-26.27957311770911,-67.84066,-60.52436230910719,0.0,67.84066,0.72656231673088,-0.354285,0.287485,-0.51375258,1.0,0.0,0.0,0.0,86.80206040446421
7.3265,67171.4825,-2.631806507822702,-2.8793637827320993,-4.146436394405088,-1.1723440545603299,1.841437764486621,-4.626628024145144,2.3086578373497293,6.530492776882187,-26.59055040995272,-73.990211,-66.58284871842552,0.0,73.990211,0.6936719813686985,-0.36426488,0.30701679,-0.54025084,1.0,0.0,0.0,0.0,92.15702893104395
7.3424,67171.5025,-2.939698719229412,-2.9423215716736664,-3.2393529804901586,-1.3472733450037384,2.2111880994624706,-5.224297478161402,1.4203083811461905,6.405620374894894,-26.83169580928613,-81.097771,-74.62414071996555,0.0,81.097771,0.651159810693513,-0.37721387,0.33727583,-0.56563735,1.0,0.0,0.0,0.0,98.74179238143854
