AppTimestamp(s),SensorTimestamp(s),acc_x,acc_y,acc_z,gyro_x,gyro_y,gyro_z,mag_x,mag_y,mag_z
40.0038,67204.1531,0.19933906844961283,-0.2500140716398014,0.11532113411294809,0.00367,0.00855,-0.00367,0.6,-10.98,-23.28
40.0155,67204.173,0.1603672388467298,-0.24417511504134132,0.046666261939556364,0.00428,-0.01038,-0.01833,0.42,-11.1,-23.46
40.0343,67204.1931,0.12900238621819696,-0.2298168731197441,-0.016549488193856376,0.00794,-0.04887,-0.02932,0.6,-10.98,-23.64
40.0594,67204.2131,0.11111948844608259,-0.2039978987309674,-0.0689775918490323,-0.00489,-0.0672,-0.01344,1.02,-11.28,-23.52
40.0799,67204.2329,0.11340150169227502,-0.16804893941710247,-0.1057331168802289,0.01466,-0.04887,0.01038,1.2,-10.86,-23.04
40.094,67204.2531,0.13203006773693896,-0.13145499849423722,-0.12226287388751089,0.01466,0.02688,0.00611,1.02,-10.92,-22.62
40.1185,67204.2731,0.15559174596639833,-0.10861499322385974,-0.11487903537792654,-0.01894,0.02871,0.00122,0.84,-11.04,-22.62
40.1333,67204.2931,0.16849541834978643,-0.11970898551242413,-0.08236562876652442,-0.04948,-0.02016,-0.01772,0.6,-10.74,-22.26
40.1515,67204.3131,0.16073911169294453,-0.17062593481086127,-0.02786811693558633,-0.05498,-0.13867,-0.01283,-0.18,-10.98,-22.5
40.1726,67204.3331,0.13383789603101576,-0.2564972029376625,0.04035717536056893,-0.0336,-0.13989,-0.02321,-0.18,-10.86,-22.74
40.1935,67204.3531,0.09840612331561283,-0.36016788693603846,0.11096450683749204,-0.05864,-0.04398,-0.04276,-0.3,-10.56,-22.5
40.213,67204.3731,0.06059496250109552,-0.45949077632743635,0.1729570775967133,-0.09224,0.03543,-0.06781,-0.24,-11.04,-22.8
40.2393,67204.3931,0.027842938822327246,-0.5288626050419502,0.21848420913893918,-0.10324,0.03054,-0.06903,0.3,-11.7,-23.04
40.2564,67204.4131,0.00020110484126129215,-0.5712066960664579,0.24249487261151081,-0.06109,-0.07208,-0.01833,0.36,-11.76,-23.22
40.2722,67204.4331,-0.007535836864749501,-0.5758943434440116,0.24487352568137943,-0.00489,-0.07636,0.00428,0.42,-12.24,-22.98
40.2922,67204.4531,0.008721514466207057,-0.5473390004114591,0.2284018450257559,0.01038,0.0055,-0.0055,0.66,-11.94,-22.8
40.3148,67204.4731,0.04239224297354671,-0.4980499293755519,0.19778267056925358,0.02566,0.03543,0.00183,0.42,-11.46,-22.62
40.3327,67204.4931,0.08111883703497674,-0.4388313467640021,0.15872490874072476,0.0391,-0.04032,0.01833,0.42,-11.16,-22.44
40.3523,67204.5131,0.11289143346925623,-0.3843970466972125,0.11642565405586325,0.03176,-0.06658,0.03176,0.66,-10.8,-22.44
40.374,67204.5331,0.13398360337768375,-0.3424084625700491,0.07555336864607831,0.02077,-0.02627,0.00122,0.36,-10.62,-22.32
40.3972,67204.5541,0.1426925373981609,-0.3175203690880661,0.040433140924506006,-0.03482,0.04337,-0.03482,0.54,-10.68,-22.5
40.4153,67204.5741,0.13300750924897428,-0.31174275752741903,0.015489360606558478,-0.01222,0.05315,-0.01588,0.6,-11.1,-22.56
40.4331,67204.5941,0.10776241159614755,-0.32025678069988395,0.004628859233369198,0.05559,-0.03604,0.00611,0.42,-11.04,-22.74
40.4531,67204.6141,0.07637535804806367,-0.33555149874825824,0.009859424175447273,0.06658,-0.07391,0.0171,0.42,-11.64,-22.8
40.4734,67204.6341,0.05435035276146898,-0.34847961254887255,0.03012483974769431,0.0171,-0.03604,0.0226,0.18,-11.28,-22.26
40.4951,67204.6541,0.05147230497745619,-0.3549058255592527,0.060809696570350624,-0.01466,-0.00244,0.01161,0.24,-10.86,-21.96
40.5187,67204.6751,0.066574408908554,-0.353154141961355,0.09456396367837705,0.0055,0.04215,-0.00794,0.42,-10.68,-22.02
40.538,67204.6951,0.09165578858674059,-0.3426235186419585,0.12300983790060904,0.02077,0.01649,0.02627,0.24,-10.26,-21.78
40.5595,67204.7161,0.11930072859361741,-0.3231492767589091,0.1386499385069655,-0.0226,-0.03421,0.05681,0.3,-10.56,-22.14
40.577,67204.7361,0.14664775735793847,-0.2998126544724649,0.1363860043208831,-0.02077,-0.02688,0.02321,0.48,-10.68,-22.68
40.6031,67204.7561,0.1657523253512033,-0.2821187020608919,0.11509168799041625,0.04337,0.04643,-0.01222,0.24,-10.62,-22.56
40.623,67204.7761,0.16935045232317442,-0.26656974068085615,0.07854082001723306,0.09957,0.02688,-0.02138,0.42,-10.86,-22.8
40.6363,67204.7961,0.15179905031590987,-0.24942825547553943,0.033879418403644834,0.07819,-0.00733,-0.00794,0.42,-10.74,-22.56
40.6562,67204.8161,0.12055791354003949,-0.23674853925789732,-0.01111442370087623,-0.00244,-0.00061,-0.03787,0.24,-10.62,-22.14
40.6792,67204.8361,0.08279650204764513,-0.22678977296738248,-0.04962882194285001,-0.0391,0.01344,-0.08125,-0.12,-10.86,-22.56
40.6955,67204.8561,0.03709776316481113,-0.22746417069709418,-0.07752667579067385,-0.01772,0.02932,-0.08002,-0.18,-10.68,-22.56
40.7146,67204.8761,-0.008019935474422833,-0.23820636762626493,-0.09317309858482581,0.0281,0.02993,-0.01588,0.0,-10.86,-22.74
40.7351,67204.8961,-0.050173786468555207,-0.2540930320300846,-0.09670877242635001,0.06781,0.01038,0.0226,0.0,-11.04,-23.16
40.7547,67204.9161,-0.08201037270119309,-0.26539765736954085,-0.08930126723541143,0.03238,-0.00611,-0.00305,0.3,-11.1,-22.98
40.7787,67204.9361,-0.0951126310914629,-0.26748574529185737,-0.07293891410215103,-0.04093,-0.02443,-0.03604,0.18,-10.98,-23.22
40.7991,67204.9569,-0.08714046432470397,-0.26421968039897453,-0.050399372468213244,-0.06231,0.01038,-0.01833,-0.18,-11.1,-23.04
40.8154,67204.9771,-0.06221844458106985,-0.26090439794081893,-0.024692480653730087,-0.01894,0.06964,0.01344,-0.18,-10.92,-22.86
40.8354,67204.9971,-0.026563198063723724,-0.2558164728498987,0.0016705867361697102,-0.00244,0.04032,0.04887,-0.12,-10.5,-22.86
40.8591,67205.0171,0.00954792879948009,-0.2487247850636515,0.02654880663078174,0.01772,-0.05925,0.07269,0.42,-10.68,-22.86
40.8946,67205.0371,0.03539296166232322,-0.23812850282804768,0.04806340438310919,0.02871,-0.08369,0.06658,0.84,-10.56,-23.04
40.9007,67205.0581,0.07898504829974155,-0.22171404448557666,0.06442373916247846,-0.0055,-0.01955,0.0507,1.14,-10.8,-23.04
40.9218,67205.0791,0.10696815840388688,-0.20529889153721306,0.07503323714623455,-0.04459,0.05192,0.00122,1.02,-11.04,-22.92
40.9385,67205.0991,0.11278657916169016,-0.20019189983562466,0.08119606108517274,-0.04704,0.0617,-0.0336,0.84,-10.74,-22.8
40.96,67205.1191,0.09527533297400581,-0.2069098807162366,0.08592191425225515,-0.01955,0.01344,-0.01833,0.24,-10.74,-22.92
40.9812,67205.1391,0.061054833421302544,-0.2248681098909702,0.09207984528842417,-0.00611,-0.04154,0.02505,-0.36,-10.26,-23.22
41.0006,67205.1591,0.027423856531231125,-0.24702110324378088,0.10114242306691779,-0.00611,-0.01466,0.02382,-0.3,-10.14,-23.04
41.0244,67205.1791,0.006871348713941165,-0.2665660809547762,0.11286975210663996,-0.01161,0.03482,-0.0281,-0.72,-10.08,-22.8
41.043,67205.2001,-0.0016066904518505288,-0.28168608182030597,0.12555630903945492,-0.01222,0.0391,-0.04093,-0.42,-10.26,-22.62
41.0587,67205.2201,-0.00359056448334122,-0.2922032825101966,0.13664206430324377,-0.00794,-0.0171,-0.01344,-0.42,-10.62,-22.14
41.0784,67205.2401,-0.0031764657889054014,-0.2987412533320015,0.14321330399236487,-0.00122,-0.00489,0.01649,-0.6,-10.86,-22.14
41.1025,67205.2601,-0.003739406045782423,-0.30211238264249346,0.1425351815885758,0.01161,0.03787,0.01283,-0.36,-11.16,-22.62
41.122,67205.2801,-0.009404035347509864,-0.3036374988602661,0.13279053474528268,-0.00794,0.06109,-0.00916,-0.3,-11.1,-22.62
41.1476,67205.3001,-0.02172178848631997,-0.30409726985187924,0.11385871083670551,-0.02016,0.00489,-0.03176,-0.54,-11.34,-22.56
41.1598,67205.3201,-0.04469823825634926,-0.3021153948723398,0.08769537207071387,0.00183,-0.00611,-0.03421,-0.48,-11.4,-22.56
41.1816,67205.3401,-0.06390322656395936,-0.2942442141044064,0.058228272917434154,0.03726,-0.01344,-0.00733,-0.36,-11.16,-22.14
41.2011,67205.3611,-0.07034436011754563,-0.2744489480448983,0.030665283582365532,0.02505,0.02382,0.00428,-0.18,-11.4,-22.32
41.2249,67205.3811,-0.05781605231652801,-0.24427656491054908,0.009977303670813953,-0.0171,0.0507,0.01344,0.3,-11.22,-22.44
41.2407,67205.4011,-0.027861869608408803,-0.2092573981902977,-0.0005114938085206688,0.01955,0.00977,0.02321,0.48,-11.28,-22.62
41.262,67205.4211,0.00941726579430126,-0.18012662602529034,-0.00034670471331743613,0.04093,-0.03482,0.06781,0.6,-11.58,-22.86
41.2817,67205.4411,0.05023037069497175,-0.15987749016256758,0.007981962851724589,0.04337,-0.03787,0.07636,0.66,-11.28,-22.8
41.3035,67205.4611,0.08590904506646761,-0.14957565303591455,0.01973755124612353,0.01588,-0.00367,0.03299,0.48,-11.34,-22.8
41.3212,67205.4811,0.11007084364579132,-0.147392220664077,0.029922903276439428,-0.01344,-0.00122,0.00977,0.42,-10.8,-22.98
41.3412,67205.5011,0.11365525971111572,-0.1533476011165286,0.03530949212446899,-0.00244,0.01344,0.00122,0.48,-10.98,-22.56
41.3607,67205.5211,0.09525134151754129,-0.16755490809518087,0.03553875907180348,0.00367,-0.00855,0.00611,0.42,-10.8,-22.26
41.3802,67205.5411,0.062487440794722134,-0.18773771579596155,0.03317822199014664,-0.00305,-0.03115,0.02871,0.42,-10.5,-22.5
41.4121,67205.5611,0.02612796444038541,-0.2103011717048678,0.0328561412224424,0.02321,-0.03726,0.00794,0.42,-11.16,-22.02
41.4228,67205.5811,-0.00031130856191782563,-0.22924301059081875,0.03954499016563773,0.00428,0.011,-0.01344,0.24,-10.86,-22.74
41.4404,67205.6011,-0.01575649152518947,-0.2428079337709312,0.056247740610075425,-0.06353,0.01222,-0.01833,0.06,-10.74,-22.86
41.464,67205.6221,-0.02316621584096306,-0.2526223540124924,0.08235712137994611,-0.06536,-0.02627,-0.00428,0.36,-11.16,-22.98
41.4832,67205.6421,-0.02422680482236921,-0.26544159708629445,0.11362047592070645,0.00428,-0.05925,0.01894,0.42,-11.34,-23.46
41.5032,67205.662,-0.019751193871872564,-0.2764093462815815,0.14405927742280156,0.06353,-0.02932,0.02688,0.3,-11.46,-23.28
41.5247,67205.6831,-0.010513035086000176,-0.2785162520133982,0.16761566542227513,0.02443,0.011,0.01894,0.24,-11.94,-23.22
41.5451,67205.7041,-0.00013702979351142843,-0.26553823763232964,0.17924497882948032,-0.0055,-0.00672,-0.00794,-0.12,-11.58,-23.16
41.5695,67205.7241,0.005701760922540681,-0.2387622091152581,0.17517263418036144,0.00489,-0.02016,-0.03299,-0.12,-11.46,-22.86
41.5958,67205.7441,0.0029094287983038674,-0.2048644774834133,0.1534495007735064,-0.01283,-0.00428,-0.00611,0.0,-11.04,-22.62
41.6086,67205.7651,-0.005325515046894538,-0.1674460347994676,0.11510052951082628,0.01649,0.00428,0.01283,0.42,-10.56,-22.32
41.6279,67205.7861,-0.014402434910511663,-0.13276190875497654,0.06494056958729821,0.05864,-0.00611,0.01405,0.48,-10.74,-22.44
41.6541,67205.8061,-0.01984834319341958,-0.10576628026666891,0.011578799510292725,0.0672,-0.00367,-0.0055,0.48,-10.32,-22.8
41.6828,67205.826,-0.022496974630384053,-0.09016930498566922,-0.034326679163044105,0.01649,0.02627,0.00183,0.54,-10.98,-23.04
41.6973,67205.8461,-0.024077961726036518,-0.09372466242029603,-0.06302788230232714,-0.00916,-0.00428,0.01466,-0.06,-11.4,-23.58
41.7166,67205.867,-0.026371518859597945,-0.12402068020133103,-0.0686693883831122,0.0055,-0.05192,0.02016,0.24,-11.4,-23.1
41.7261,67205.8871,-0.02115807072630577,-0.17158376646248305,-0.0510697908452169,0.04154,-0.05559,0.01649,0.3,-11.58,-23.1
41.7493,67205.9071,-0.011217631985845678,-0.21996396303013488,-0.015899175598658388,-0.00244,-0.02138,0.00122,0.42,-11.1,-22.86
41.7775,67205.9271,0.0076649502811348925,-0.2521728565195452,0.02701864553144162,-0.06048,0.00611,0.00489,0.6,-10.98,-22.38
41.787,67205.9471,0.03189602777766664,-0.265079245805641,0.0662600149591519,-0.02749,0.0055,0.00061,0.36,-10.74,-22.56
41.8068,67205.9671,0.05329789218063608,-0.2531288382125355,0.09258803175706021,0.05925,-0.0672,0.02443,0.3,-10.68,-22.2
41.8302,67205.9871,0.07082374677668046,-0.21913441395205158,0.10111486330412767,0.08919,-0.07636,0.03726,0.48,-11.04,-22.14
41.8488,67206.0071,0.08873113796058525,-0.16627831707356286,0.09206020485664368,0.02443,0.01344,0.04276,0.42,-11.1,-21.84
41.8686,67206.0271,0.09837245194578154,-0.11476078818740518,0.069652328476419,-0.02871,0.06109,0.01161,0.3,-11.4,-22.14
41.8918,67206.0471,0.0906768749488775,-0.08322493898855436,0.04077468449909638,-0.01405,0.0391,-0.05437,0.3,-11.76,-22.02
41.9082,67206.0671,0.05605583363969723,-0.08047834274323479,0.012602855097433974,0.01038,-0.05437,-0.05376,0.12,-11.4,-22.32
41.9321,67206.087,0.0033603301678447415,-0.09758081784774295,-0.009836660061710134,0.00611,-0.0843,-0.01466,0.24,-11.28,-22.62
41.9462,67206.1071,-0.04893312210587026,-0.12560202991999692,-0.024395736012831293,-0.04704,-0.02321,0.02199,0.3,-11.34,-22.44
41.9709,67206.1271,-0.08656247283856022,-0.1515606441353592,-0.030584958357000147,-0.04826,0.03971,0.00733,0.24,-11.46,-22.44
41.9861,67206.1471,-0.10434019030810802,-0.17018880630819405,-0.027985027478333535,0.04459,0.02993,-0.03176,0.42,-11.46,-22.2
42.0069,67206.1671,-0.10342199111845173,-0.17801815181571323,-0.01558934518375743,0.0843,-0.02871,0.00367,0.24,-11.46,-22.56
42.032,67206.1871,-0.08942477433532733,-0.16859804738686546,0.006726191330198361,0.00855,-0.05253,0.04276,0.3,-12.06,-22.5
42.0532,67206.2071,-0.060781859333474686,-0.14741440259181673,0.03570504081916681,-0.09102,-0.0391,0.0507,-0.06,-11.88,-22.5
42.0691,67206.2281,-0.024503141108066083,-0.13190936718737079,0.06431594269333019,-0.06536,0.01222,0.00183,-0.3,-12.18,-22.44
42.0871,67206.248,0.005336179481313971,-0.12870061062969815,0.08493300070502308,0.01772,0.01588,-0.01222,-0.48,-12.12,-22.08
42.1057,67206.268,0.018531396917205827,-0.13793975453620055,0.09295353385315508,0.05192,0.00183,-0.01588,-0.66,-11.4,-22.02
42.1257,67206.2881,0.013388966690741431,-0.15061753177876389,0.08865816733135823,0.01527,-0.04459,0.00489,-0.42,-10.92,-22.2
42.1473,67206.3081,-0.002937583815001445,-0.15860817275810993,0.07621493717993211,-0.04948,0.00611,-0.00794,-0.6,-10.8,-22.38
42.1775,67206.3281,-0.019550980568931155,-0.15869357431384876,0.06118530840399039,-0.04826,0.04948,-0.03665,-0.48,-11.1,-22.62
42.1982,67206.3481,-0.03752740833454102,-0.16480499512492483,0.047990432250543336,-0.02443,0.03421,-0.02077,-0.48,-11.16,-22.92
42.2117,67206.3681,-0.05045508631756541,-0.17045034143011017,0.03943048947362726,0.01955,-0.01466,0.00611,-0.42,-11.4,-22.92
42.2316,67206.3881,-0.05290626289432443,-0.17231137721937242,0.03634192608352649,0.0562,-0.03054,0.01772,-0.36,-11.46,-22.74
42.2525,67206.4081,-0.041522636071047066,-0.1642570465285357,0.038103826063592194,0.04154,0.01283,0.00489,-0.18,-11.4,-22.5
42.2764,67206.4281,-0.018981976746346434,-0.14831764592480187,0.042697061387471535,-0.00611,0.03299,0.00733,0.42,-11.52,-22.32
42.2881,67206.4481,0.0038477193260946577,-0.13592232968833515,0.04697896720864314,-0.03543,0.00672,0.01466,0.42,-11.82,-22.32
42.3099,67206.4681,0.017025617773330292,-0.13373123577615878,0.04753792215340802,0.01466,0.01222,0.00061,0.42,-11.76,-22.5
42.3346,67206.4881,0.015602180988205953,-0.14345582596258205,0.04162595090667942,0.0281,-0.04337,0.00489,0.12,-11.34,-22.56
42.3507,67206.5091,0.00693946885351513,-0.15358652747778043,0.02845281377786968,-0.00061,-0.02993,-0.00061,-0.24,-11.46,-22.38
42.3688,67206.5291,-0.0029204454114227117,-0.15542212131261193,0.009933064540058822,-0.01527,0.01161,-0.01222,-0.06,-11.1,-22.38
42.3881,67206.5491,-0.00897842426311181,-0.14453657911235035,-0.009346384717831668,-0.0281,0.07514,-0.03238,-0.06,-11.04,-22.32
42.4106,67206.5691,-0.011609437724033602,-0.12460853281756182,-0.023303913408406984,-0.04337,0.08247,-0.0171,0.3,-11.34,-22.2
42.4354,67206.5891,-0.013627317070202875,-0.10388773004946733,-0.02624370133296061,0.00367,-0.02382,0.01466,0.18,-11.16,-22.2
42.4485,67206.6091,-0.003745354634199668,-0.08020929067270516,-0.014880459137408764,0.05192,-0.09468,0.03421,0.0,-11.16,-22.2
42.4683,67206.6291,0.015065907407954406,-0.056995393295343984,0.00982286837993307,0.02077,-0.04643,0.01833,0.18,-11.16,-22.32
42.4897,67206.6491,0.04010757879599536,-0.034451887504565785,0.04267447231529076,-0.04826,0.08002,-0.01405,0.12,-11.34,-22.62
42.5089,67206.6691,0.05476455523177782,-0.024635376388938937,0.07585238583035547,-0.07514,0.09224,-0.0055,0.3,-11.34,-23.04
42.5319,67206.6891,0.0462579902390305,-0.03578713141891128,0.10161945061734023,-0.04826,-0.03787,0.011,0.3,-11.34,-22.8
42.5516,67206.7091,0.013610986140405226,-0.06954468990152779,0.11480590108282307,0.03848,-0.09468,-0.02627,0.3,-11.34,-22.62
42.5704,67206.7301,-0.03307905229695418,-0.11256708328820979,0.11466386165100317,0.02077,-0.0452,-0.04704,0.48,-11.1,-22.5
42.5933,67206.7511,-0.08166374712202931,-0.15047965705825977,0.10495185218344538,-0.05192,0.05986,-0.02871,0.36,-11.22,-22.02
42.6203,67206.7721,-0.12575348378027856,-0.17560870222002134,0.09163102722617822,-0.08491,0.05498,-0.02566,0.36,-11.1,-22.08
42.6392,67206.7921,-0.16421759294301017,-0.19616955811049291,0.07958741044549278,-0.0452,-0.04459,-0.02138,0.48,-11.28,-22.08
42.6538,67206.8121,-0.18386862287926836,-0.20587777801621474,0.07161076078682527,0.01649,-0.08063,-0.00489,0.6,-11.58,-22.08
42.6729,67206.8321,-0.1797639916275105,-0.19913241255206945,0.06778126837722454,0.02138,-0.03971,0.0391,0.66,-11.7,-21.96
42.6984,67206.8521,-0.15371132063101434,-0.17475083006884043,0.06620523317333848,-0.00977,0.08247,0.05315,0.48,-11.76,-22.32
42.7168,67206.8721,-0.11207993252566034,-0.1363820216455576,0.06415941061822572,-0.00611,0.05376,0.03299,0.48,-11.7,-22.62
42.7375,67206.8921,-0.06870842786089892,-0.09377014057958688,0.05909600283710681,-0.00367,-0.07636,0.03115,0.06,-11.7,-22.98
42.7658,67206.9121,-0.03148036967489193,-0.0541089487556279,0.049811550460338694,-0.00428,-0.05925,0.02627,0.12,-11.7,-23.28
42.7749,67206.9321,0.0012819549033189256,-0.024345197971895008,0.03692177868651747,-0.00489,0.02688,0.011,0.12,-11.76,-22.98
42.7929,67206.9521,0.019214591281917645,-0.004989593067034769,0.02293232102426046,-0.01038,0.0672,0.01405,0.0,-11.76,-23.04
42.8128,67206.9721,0.019402645895026226,-0.00036202202019149874,0.011541313474616288,-0.02077,-0.0171,0.02627,0.06,-11.46,-23.04
42.8333,67206.9921,0.004649203819248324,-0.01148454197321733,0.0062213228528626985,-0.00061,-0.0733,0.00855,0.06,-11.4,-22.98
42.8543,67207.0121,-0.016025697211529782,-0.03412783864096694,0.008962462010520866,-0.00855,-0.00733,-0.00977,0.6,-11.34,-22.98
42.8868,67207.0331,-0.03075736439234931,-0.05490191288911281,0.019788384688556704,-0.06597,0.02993,-0.02749,0.66,-11.4,-22.38
42.8949,67207.0531,-0.05243540210543399,-0.09553013411595941,0.03643271011932825,-0.09163,0.04643,-0.04276,0.9,-11.7,-22.02
42.9181,67207.0731,-0.06805025233317889,-0.12679258472678723,0.05554676518130108,-0.06536,-0.02382,-0.01283,1.02,-11.76,-22.02
42.944,67207.0931,-0.08482430759065593,-0.15758556028764978,0.07298752345879933,-0.00244,-0.03543,0.01222,1.08,-11.82,-21.9
42.9609,67207.1131,-0.09170202633474837,-0.17586736222179775,0.08579992235706868,0.04215,-0.0281,0.04643,1.26,-11.7,-21.96
42.9784,67207.1331,-0.08698698281072856,-0.17356848055859156,0.09268417484306468,0.0281,0.01283,0.03054,1.14,-11.46,-22.02
42.9938,67207.1531,-0.07071637531929002,-0.151938436737092,0.09396008523204635,-0.0562,0.03299,-0.0055,0.96,-11.34,-22.26
43.0126,67207.1741,-0.04669909563622556,-0.11935796133916084,0.09107943202176294,-0.06842,0.01833,-0.02016,0.9,-11.4,-22.56
43.0421,67207.1941,-0.02157289783691133,-0.08928195268854833,0.08600374122048571,0.01222,0.02321,-0.00367,0.36,-11.28,-22.62
43.0535,67207.2141,0.004837231251993664,-0.06011929922489904,0.08058689016527865,0.08552,-0.0562,0.02993,0.3,-11.34,-22.32
43.0725,67207.2341,0.02680552400006784,-0.03642337237657604,0.07546206265088173,0.04093,-0.00855,0.0391,0.54,-11.22,-22.14
43.0923,67207.2541,0.04295164919031937,-0.015689703981466418,0.06989882757212662,-0.03543,0.01833,0.01405,-0.12,-11.28,-22.08
43.1135,67207.2741,0.044846189920242786,-0.0055879112775912565,0.062467525545462976,-0.03176,0.03604,-0.02993,0.42,-11.34,-22.68
43.134,67207.2941,0.02259385833714108,-0.015250974523154964,0.05253739156572479,0.00305,0.011,-0.03848,0.72,-11.34,-22.98
43.1621,67207.3151,-0.02171797496520704,-0.04485301792002018,0.04128206695469672,0.01527,-0.01833,-0.05681,0.72,-11.46,-23.1
43.1777,67207.3351,-0.08373731803613599,-0.08255744555435619,0.03171506760703657,0.00428,-0.01283,-0.04398,1.32,-11.64,-23.16
43.2034,67207.3561,-0.13734132808623875,-0.11670945905704425,0.027726514015753878,-0.02321,-0.0171,-0.03054,1.02,-11.64,-23.16
43.22,67207.3761,-0.1727328993922584,-0.1412262186015148,0.03205231182012902,-0.0336,0.0226,-0.02932,0.72,-12.0,-23.22
43.2355,67207.3961,-0.18022415910766038,-0.15223049005846778,0.04482590261732966,-0.03054,0.03787,-0.01222,0.36,-12.06,-23.22
43.2553,67207.4161,-0.16216150758856412,-0.14920262184966496,0.06297100723876348,-0.01588,-0.01344,0.0226,0.0,-11.94,-23.58
43.2781,67207.4361,-0.12701468743550576,-0.13672035500284682,0.08103520367631134,0.02443,-0.04581,0.05009,0.18,-12.3,-23.22
43.2954,67207.4561,-0.07918708192872595,-0.11370263178659237,0.09312036212116048,0.04459,-0.05253,0.02932,0.0,-11.76,-23.16
43.3149,67207.4761,-0.03429586986828816,-0.08362489985141867,0.09453089755228028,0.03054,-0.00489,-0.00977,0.36,-11.76,-23.16
43.3348,67207.4961,-0.0054739253244937645,-0.048503222698239874,0.08374562737002833,0.00061,0.04093,-0.00672,0.3,-12.06,-22.32
43.3608,67207.5161,-0.0013690430713141734,-0.013329102628574997,0.06288359617676598,-0.02688,0.03726,0.00489,0.24,-11.88,-22.38
43.3834,67207.5361,-0.023190013756908327,0.009171915116791744,0.0370253260048905,-0.05376,-0.01466,-0.00733,0.48,-11.88,-22.44
43.3971,67207.5571,-0.06070235684814529,0.013389023173197982,0.01287095483241707,-0.0226,-0.02138,-0.01955,0.3,-11.7,-22.14
43.42,67207.5771,-0.09893681274088807,0.003086321016268054,-0.0028455944614496076,0.04398,-0.00855,-0.02993,0.48,-11.4,-22.68
43.4544,67207.5981,-0.12903905071273766,-0.015555759783057389,-0.00503076037176875,0.02627,0.03115,-0.01588,0.6,-11.22,-22.62
43.4613,67207.6181,-0.14739180839938246,-0.03815401174789576,0.008223814888502545,-0.04948,0.00122,0.0281,0.6,-11.52,-22.86
43.4778,67207.6381,-0.15142110389550015,-0.06335499439408071,0.03496044468458415,-0.03848,-0.02688,0.02505,0.6,-11.28,-22.98
43.4979,67207.6581,-0.14029870887592732,-0.09197146427283874,0.06997689578853539,0.00794,-0.0452,0.01222,0.24,-10.98,-23.1
43.5176,67207.6781,-0.114897062897277,-0.1209630908110769,0.10663079387509988,0.01527,-0.03421,-0.00305,0.12,-10.92,-23.1
43.5397,67207.6981,-0.08225609011017888,-0.14263399556376244,0.13878363975228147,-0.01772,0.0336,0.01955,-0.3,-10.92,-22.74
43.558,67207.7181,-0.05029139247017452,-0.14986260493021744,0.16203765366084077,-0.00672,0.02382,0.02627,-0.18,-11.22,-22.62
43.5782,67207.7381,-0.024926368620971015,-0.14033521562595833,0.1738797648052266,0.01283,-0.0391,0.011,0.36,-11.58,-22.32
43.5998,67207.7591,-0.006822125849761542,-0.11695963809546404,0.17343635393166856,-0.01161,-0.03787,0.01222,0.36,-11.76,-22.2
43.6188,67207.7791,0.005110534644791728,-0.08686509217962267,0.16140758689883228,-0.00367,0.0055,0.00977,0.9,-11.64,-22.2
43.6394,67207.7991,0.007962667139891102,-0.05792181766406565,0.14012869099716418,0.03848,0.02749,-0.00061,0.84,-11.4,-22.2
43.6585,67207.8191,-0.0024752354844179325,-0.0332914385082625,0.1130949847916014,0.07575,0.00489,-0.00672,0.6,-11.4,-22.2
43.6817,67207.8391,-0.02784735289723461,-0.016165809157872385,0.08374014254342477,0.04398,-0.03971,0.00183,0.72,-11.34,-22.2
43.7036,67207.8601,-0.06326160281426002,-0.0036682558044394157,0.054421868882322144,-0.01161,-0.0171,0.01283,0.6,-11.64,-22.2
43.7217,67207.8801,-0.10152606044667178,0.0012131853200126213,0.026473215678825213,-0.02138,0.02016,-0.00733,0.54,-11.7,-22.5
43.7393,67207.9001,-0.13647798296385627,-0.0023649505635335278,0.0013496114940743098,-0.00672,0.01894,-0.02749,0.54,-11.7,-22.68
43.7662,67207.9201,-0.1606385606442464,-0.013939112853367245,-0.01821562255782183,0.02382,-0.00305,-0.03115,0.66,-11.52,-23.04
43.7827,67207.9411,-0.17348597315019132,-0.023631728842823926,-0.02842248459618446,0.04826,-0.00489,0.00244,0.54,-11.52,-22.98
43.8038,67207.962,-0.16953631830101437,-0.03024704691274041,-0.025891790649268387,0.03115,-0.01894,0.0281,0.54,-12.0,-22.62
43.8225,67207.9821,-0.14526811224169742,-0.027958893553077683,-0.010087707228594311,0.0281,-0.0281,0.02932,0.72,-11.82,-22.62
43.8422,67208.0021,-0.10446983310618199,-0.019165138316178325,0.015129920871050473,-0.02505,-0.011,0.02321,0.6,-12.0,-22.62
43.8638,67208.0221,-0.05471802687991099,-0.008224526723303843,0.042397510103304725,-0.04154,0.00977,0.00916,0.6,-12.06,-22.92
43.8838,67208.0431,-0.0075956892329241965,-0.0008920984711890122,0.06381346801550691,-0.00916,0.01955,0.00244,0.84,-12.06,-23.1
43.9035,67208.063,0.02446211801466363,0.0018681599748038512,0.0745094371499384,0.02566,0.0562,-0.00672,0.78,-12.18,-22.62
43.9276,67208.0831,0.034002760731639124,0.001226725916248622,0.07472742103287011,0.00428,0.03115,-0.01527,0.96,-12.12,-22.38
43.9451,67208.1031,0.020204395914760292,0.001974525569379454,0.06948679780345124,0.00367,-0.01405,-0.00916,1.32,-12.06,-22.38
43.9631,67208.1231,-0.00824664961798101,0.004699672618764744,0.06651468237557623,-0.01466,-0.06536,-0.00061,1.32,-11.58,-22.08
43.983,67208.1431,-0.04123533177751848,0.008717934530687544,0.07373143634872648,-0.02993,0.0171,-0.02688,1.38,-11.7,-22.32
44.0018,67208.1629,-0.07395019014945434,0.007099633109335673,0.09688567309249052,-0.02749,0.04337,-0.03299,0.9,-11.64,-22.38
44.0386,67208.1831,-0.10555596990927643,-0.0101815927751387,0.13749841387490314,-0.00611,-0.00183,-0.00183,0.48,-11.88,-22.2
44.0502,67208.2031,-0.13137977452614136,-0.04662684251215036,0.1914800671473138,0.04154,-0.06353,0.03176,0.18,-11.7,-22.5
44.0653,67208.2241,-0.1523517711216416,-0.10801395320392446,0.24878453885229845,0.06414,-0.04826,0.04215,0.0,-11.34,-22.32
44.0818,67208.2441,-0.16662873082207647,-0.18589185179064674,0.29513035121214237,0.04643,0.00916,0.02566,0.24,-11.34,-22.14
44.102,67208.2641,-0.17537572847132252,-0.26422706408471214,0.31530790915711293,-0.00428,0.02871,-0.02199,0.3,-10.86,-22.44
44.1252,67208.284,-0.1812824016545952,-0.3246972690496075,0.2973680878965368,-0.02627,0.01955,-0.05559,0.24,-11.52,-22.44
44.1457,67208.3041,-0.1913629833536157,-0.3509098918054867,0.23668992218994056,0.02443,-0.00489,-0.06781,0.72,-11.82,-22.5
44.168,67208.3261,-0.20179589491241173,-0.32843992670325955,0.13941449181034038,0.11973,0.06414,-0.04398,0.42,-11.76,-22.74
44.19,67208.346,-0.2096973894809428,-0.24672739687508272,0.02233908538118179,0.17226,0.12156,0.00061,0.42,-11.94,-22.32
44.2212,67208.3661,-0.20613214821117232,-0.12547796974216419,-0.09169604216455873,0.10629,0.07208,0.01405,0.66,-11.88,-22.38
44.2348,67208.3871,-0.19406041980410732,0.03618682301438639,-0.17985304760062704,0.05681,0.07208,0.00244,0.18,-12.06,-22.5
44.246,67208.4071,-0.16445940931521275,0.18145724529928198,-0.22556698121556984,0.06597,0.0843,-0.0171,0.42,-12.6,-22.44
44.2667,67208.4271,-0.11022692299671134,0.27640809670572514,-0.22072442180370722,0.06842,0.07819,-0.00367,0.42,-12.78,-22.68
44.2855,67208.4471,-0.039875919204341616,0.3143765640290585,-0.1685450036596965,0.01649,0.08491,0.01405,0.66,-12.78,-22.5
44.3059,67208.467,0.04007803377294375,0.2972821556754171,-0.08228690762895496,-0.01772,0.05437,0.03726,0.78,-12.6,-22.62
44.3261,67208.4871,0.12086395785127926,0.2388525713224536,0.017480162187425208,-0.00977,0.00183,0.05986,0.84,-12.36,-22.56
44.3465,67208.5071,0.1946197112691722,0.16081982046723048,0.10779177595414602,0.03115,-0.0843,0.05192,0.9,-12.36,-22.32
44.3733,67208.5281,0.25202422544961295,0.08681662847382675,0.1696184896017563,0.04093,-0.04337,-0.00611,0.84,-12.24,-22.56
44.391,67208.5491,0.2839758081650781,0.03697283448437443,0.19324652488610816,-0.00672,0.03238,-0.02749,1.02,-12.36,-22.74
44.4107,67208.5691,0.2790720474677851,0.013411783438746232,0.18026350715771322,-0.01894,0.02688,-0.03482,1.02,-12.36,-22.56
44.4318,67208.5901,0.23373594612638462,0.008888998375494402,0.14084954035219432,0.03115,-0.04398,-0.03176,1.14,-12.0,-22.56
44.4587,67208.6121,0.15599860443829805,0.01241544580458172,0.08895742493005976,0.05559,-0.12156,-0.04643,1.14,-12.06,-22.26
44.4842,67208.6321,0.06463646606820292,0.021026701444474195,0.037863443860878476,0.02749,-0.12278,-0.06048,0.9,-12.06,-21.96
44.4982,67208.6521,-0.02397758674215755,0.031574226229446715,-0.002382774381953112,-0.00977,-0.06536,-0.06048,0.72,-11.94,-22.44
44.5149,67208.6721,-0.10043983352059735,0.036453659066674804,-0.026057387811512456,-0.01161,-0.04581,-0.06536,0.66,-12.24,-22.56
44.5329,67208.6921,-0.1615666045640631,0.034224674153647563,-0.03174170691030298,0.01527,-0.06597,-0.06536,0.6,-12.24,-22.8
44.553,67208.7131,-0.20808264649850083,0.025747641263438644,-0.02164763668592329,-0.00244,-0.08491,-0.04765,0.84,-11.94,-22.62
44.5734,67208.7331,-0.24137166607472962,0.013984459681458481,-0.0006287411793017839,-0.0055,-0.09224,-0.0391,0.78,-12.06,-22.08
44.5951,67208.7531,-0.261907874931804,0.0033519773742794884,0.025126264775911622,0.01161,-0.09285,-0.02077,0.72,-12.18,-21.84
44.6139,67208.7731,-0.2701033454703562,-0.0010172320199810358,0.049661798274796,0.02443,-0.07758,-0.02321,0.72,-12.3,-21.84
44.6451,67208.7931,-0.2690957311370786,0.0041170653773701365,0.06867541179806835,-0.00794,-0.04093,-0.04704,0.54,-12.6,-21.72
44.6533,67208.8131,-0.26913702183035554,0.011856435345467705,0.08021014524890369,-0.03604,-0.03787,-0.04765,0.3,-12.6,-22.02
44.6892,67208.8331,-0.26800682376795537,0.024107438541409624,0.08496854578249824,-0.02077,-0.03971,-0.02505,0.12,-12.6,-22.02
44.6984,67208.8531,-0.26839735127204956,0.034332090418572964,0.08480114240909842,0.02505,-0.03054,0.00183,-0.12,-12.48,-21.72
44.7119,67208.873,-0.2678318753555039,0.043260350681859204,0.08170913337493424,0.02749,-0.03299,-0.0055,0.06,-12.48,-21.66
44.7371,67208.8931,-0.26477880604142956,0.05100045289766173,0.07686308840207623,-0.0226,-0.05925,-0.02382,0.3,-12.48,-21.66
44.7538,67208.9131,-0.2586722153672338,0.054548229032854806,0.07051582502468001,-0.01222,-0.01344,-0.01649,0.48,-12.24,-21.84
44.7713,67208.9331,-0.2526642113415037,0.05127409487221214,0.06238073360562524,0.03054,-0.00428,-0.02016,0.36,-12.3,-22.02
44.7915,67208.9531,-0.24897546274903862,0.04151853643407736,0.05229000440655618,0.04581,-0.011,0.00367,-0.12,-12.06,-22.5
44.8123,67208.9731,-0.24721952268738484,0.03213640869833523,0.04044883047678738,0.0336,-0.01894,0.0,-0.3,-12.0,-22.5
44.8323,67208.9931,-0.24482831785867082,0.02879296839418334,0.027390361674818564,-0.00794,0.00611,-0.00061,-0.66,-12.0,-22.2
44.8551,67209.0131,-0.239248817014915,0.03153755374639614,0.013945522807626176,-0.04215,0.0226,-0.00855,-0.72,-12.06,-22.14
44.8724,67209.0331,-0.23032100659120472,0.033780047491633686,0.0016189652056368686,-0.01894,0.01772,-0.00061,-0.54,-12.12,-22.02
44.8921,67209.0531,-0.21631138370176878,0.034286335035674964,-0.006814864768040607,0.03482,0.011,0.00916,-0.54,-12.54,-22.32
44.9133,67209.0731,-0.19680674838926446,0.034686763288911425,-0.0075842312904388365,0.06109,0.01527,0.00794,-0.18,-12.3,-22.68
44.933,67209.0931,-0.17010628611763243,0.0409683806489587,0.00266524973045712,0.02627,0.00611,0.03115,0.12,-12.18,-22.5
44.9554,67209.1131,-0.13615590959447949,0.05392388594619745,0.02468082320178233,-0.02505,-0.01405,0.03665,0.12,-12.18,-22.68
44.974,67209.1341,-0.09386947371501478,0.0685779771661467,0.0552953834249994,-0.0336,-0.02077,0.03176,0.3,-11.58,-22.62
45.0008,67209.1541,-0.05065858527230228,0.08220440918748981,0.08791922252057205,-0.01161,0.00061,0.00855,0.3,-11.82,-22.5
45.0203,67209.1741,-0.011389939819608464,0.08989905296135065,0.11512523212469539,0.011,0.00733,0.02138,0.18,-11.7,-22.74
45.0441,67209.194,0.013305504576002308,0.09317722524279859,0.13120184708436966,0.04276,-0.02688,0.03115,0.0,-11.64,-22.02
45.0541,67209.2141,0.02445300696983127,0.09940961250510658,0.13359861563728437,0.03115,-0.04704,0.01161,-0.18,-11.76,-21.9
45.0747,67209.2341,0.012808646753826992,0.10149548343998295,0.12294149728595549,-0.01466,-0.03543,0.00367,-0.12,-12.06,-21.84
45.0927,67209.2541,-0.01806535393062152,0.09655938539064153,0.1017462196278558,-0.03176,0.00611,-0.01405,0.0,-12.24,-21.96
45.1121,67209.2741,-0.06569973088724561,0.08239319018448711,0.07350471055383423,-0.02199,0.00244,-0.02688,-0.24,-12.18,-21.96
45.1385,67209.2941,-0.12195152674109005,0.061819098695897,0.04230053266267042,-0.00183,-0.01038,-0.02932,-0.36,-12.24,-21.72
45.154,67209.3141,-0.17908802845384364,0.04510534303001261,0.012854506480890038,0.02199,-0.03848,-0.03604,-0.54,-12.06,-21.72
45.1742,67209.3341,-0.22126715582441003,0.04072278035296206,-0.00936762921675438,0.00916,-0.03421,-0.02321,-0.48,-12.06,-21.48
45.1938,67209.3541,-0.24037361974475435,0.05194608536946068,-0.01920421433431052,-0.02749,0.01527,-0.00611,0.0,-12.24,-21.78
45.2138,67209.3741,-0.23485299021033193,0.07314777674991417,-0.013265860443034683,-0.01955,0.00305,0.01283,0.36,-12.6,-21.96
45.234,67209.3941,-0.21004873995032036,0.09461969427094541,0.008638034221442936,0.0,-0.03543,0.0281,0.78,-12.54,-21.96
45.266,67209.4141,-0.1796742054423966,0.10844980488944682,0.04266258391283273,0.01038,-0.01344,0.03176,0.54,-12.18,-21.84
45.2758,67209.4351,-0.143961627815273,0.10779938871423114,0.08166551347833106,-0.01405,0.00611,0.03054,0.66,-12.18,-21.9
45.3021,67209.4551,-0.1245160405923114,0.09582947152978825,0.11618135411213082,-0.04032,-0.01955,0.01344,0.6,-11.7,-21.66
45.3144,67209.4751,-0.12038422983403788,0.06696793086405971,0.13809486164582196,-0.03421,-0.0281,-0.00428,0.3,-12.0,-21.42
45.3349,67209.4951,-0.13066003019183975,0.03548034444447613,0.14275507476483185,-0.02138,-0.00977,-0.01833,0.3,-12.18,-21.6
45.3545,67209.5151,-0.14569719136704493,0.009219716083248626,0.13104389693995344,-0.01038,0.00367,-0.01649,-0.12,-11.94,-22.02
45.3757,67209.5361,-0.15333571426407694,-0.001291032844543726,0.1089767138528881,-0.00977,0.00489,-0.01955,-0.18,-12.24,-22.08
45.3958,67209.556,-0.14505472763424881,0.009038709362796472,0.08545573319393718,0.00122,0.02138,-0.00672,-0.36,-12.42,-22.2
45.4157,67209.5761,-0.11699075398907392,0.0388671996896293,0.06893672377627524,0.01955,0.00733,0.01283,-0.24,-12.42,-22.14
45.4381,67209.5961,-0.07282093117744953,0.08091619895670867,0.06427974030321515,0.02138,-0.02505,0.03665,-0.18,-12.72,-21.72
45.4589,67209.6171,-0.020944002119513985,0.12538726576891773,0.0711336867012129,0.00305,-0.02688,0.02016,0.06,-12.54,-22.2
45.4798,67209.6371,0.023653098831959995,0.16113533709524827,0.08449699837905911,0.00977,-0.00916,0.01283,0.3,-11.94,-22.5
45.4986,67209.6571,0.046475386914027285,0.1805731791290059,0.09717221728500292,0.01344,-0.0336,-0.01222,0.6,-12.06,-22.74
45.5335,67209.6771,0.03879708011983737,0.17910855035037787,0.10282134892477579,0.00916,-0.02749,-0.01405,0.66,-12.24,-22.62
45.549,67209.6971,0.0010914283129667202,0.16659873077167672,0.09808789753951253,0.01894,-0.03604,-0.02932,0.48,-12.18,-22.44
45.5584,67209.7171,-0.05899360020270889,0.14597918196382795,0.08381551819951127,-0.00977,-0.00733,-0.05498,0.54,-12.6,-22.08
45.5776,67209.7371,-0.12175796360639901,0.12480953767575843,0.06399157392896093,-0.0336,-0.00489,-0.05986,0.24,-12.48,-21.72
45.596,67209.7571,-0.17971315973612606,0.10525672849293424,0.043619064493082504,-0.01344,-0.02138,-0.05437,0.3,-12.12,-21.78
45.616,67209.7771,-0.22387158561559567,0.08975593035549273,0.02642331742925741,0.00122,-0.03543,-0.02199,0.06,-12.18,-21.66
45.6405,67209.7971,-0.25106070768005634,0.08048752056094222,0.01363712549549767,0.02321,-0.04948,-0.00244,0.0,-12.0,-21.84
45.6583,67209.8171,-0.25846819317262926,0.08181162443882939,0.004322526378413016,0.01344,-0.04093,0.00244,-0.36,-12.12,-22.14
45.6756,67209.8371,-0.2518660256154348,0.09247795624445987,-0.003503811543273727,-0.01894,-0.04032,0.00122,-0.18,-12.3,-22.26
45.6956,67209.8571,-0.23912911078212115,0.10945100998570599,-0.01106212721335531,-0.02443,-0.01527,-0.00916,0.0,-12.24,-22.08
45.7158,67209.8771,-0.22841763744580165,0.12686358447358115,-0.017511757707223907,-0.01588,-0.0055,-0.011,0.0,-12.24,-22.02
45.7476,67209.8971,-0.22592213439790326,0.14098585338978487,-0.019962223487739905,-0.00855,-0.011,-0.01527,0.0,-12.3,-22.08
45.7618,67209.9181,-0.2314062236550212,0.14797022209724148,-0.014722095151325831,-0.00122,-0.02138,0.01161,0.06,-12.24,-22.14
45.7848,67209.9381,-0.24301783363593812,0.14887150932685173,0.0005535197371688838,-0.00061,-0.03115,0.01833,0.12,-12.54,-22.32
45.7998,67209.9591,-0.2503181281779309,0.14242279672282473,0.02574522999093176,-0.03054,-0.02505,0.01466,0.18,-12.42,-22.32
45.8215,67209.9801,-0.2514883161508881,0.13276148831966278,0.057620081874693696,-0.03665,0.01161,0.00855,0.36,-12.36,-22.32
45.8404,67210.0001,-0.2455588132080217,0.11896795576920355,0.09121770094143677,-0.02749,0.01527,-0.00061,0.0,-12.3,-22.14
45.8594,67210.0201,-0.23468438627121124,0.10528156914790261,0.12116439596847783,-0.02627,-0.01405,0.00733,0.0,-11.82,-22.14
45.8828,67210.0401,-0.22095646678485456,0.09611275466375437,0.14309683407096152,-0.01161,-0.00367,0.03299,0.24,-11.94,-22.14
45.8995,67210.0601,-0.201217997401599,0.09474405888734318,0.15452743342898856,-0.00244,0.01466,0.03787,0.3,-11.94,-21.84
45.921,67210.0801,-0.17844307903533765,0.10338363081317782,0.1548940066140556,0.01283,0.02932,0.02993,0.24,-12.18,-21.78
45.9395,67210.1001,-0.15523129575363337,0.11861674534855855,0.14572231371703737,-0.01894,0.01466,-0.00672,0.3,-12.48,-21.54
45.9597,67210.1201,-0.13499054287757511,0.13437997083314154,0.13014602968503475,-0.02871,0.03176,0.01283,-0.18,-12.48,-21.36
45.9796,67210.1401,-0.11630906954264243,0.1451118110397196,0.11211752449316492,0.01588,-0.00122,0.0336,0.06,-12.66,-21.24
45.999,67210.1601,-0.09315851673103495,0.15151048540769993,0.09525112098741317,0.05131,-0.00428,0.02932,0.72,-12.48,-21.54
46.0198,67210.1801,-0.061615354369504216,0.1577870447446607,0.08182216127170605,0.01772,0.01772,0.00061,0.72,-12.42,-21.96
46.0507,67210.2011,-0.0243537224486218,0.1680012136852721,0.07219057422800823,-0.03054,0.03604,-0.01038,0.9,-12.66,-22.14
46.0592,67210.2211,0.005454259730200841,0.17384966254220197,0.06500788425187487,-0.03299,0.00367,-0.00122,0.66,-12.06,-22.92
46.0787,67210.2411,0.018225790937451455,0.17599206702153328,0.05759500187549449,0.01833,-0.03421,0.01649,0.12,-12.48,-22.74
46.0989,67210.261,0.008687421519041172,0.17125184427845966,0.04737286440923327,0.05681,-0.03176,0.00916,-0.06,-12.6,-22.74
46.1189,67210.2811,-0.023865095309000356,0.1626336669542148,0.03314082790534201,0.02382,0.00305,-0.02321,0.0,-12.36,-22.5
46.1388,67210.3011,-0.0779322864965135,0.15320836758589687,0.01594244866365635,-0.00489,0.03482,-0.06658,-0.12,-12.48,-22.2
46.1587,67210.321,-0.14745818914132458,0.1442002489041335,-0.0015403273522220928,-0.01894,0.011,-0.06048,-0.12,-12.3,-22.38
46.1808,67210.3411,-0.2181006478942407,0.13676051913914278,-0.016458737458680872,-0.03665,-0.0336,-0.03604,-0.12,-12.18,-22.32
46.2004,67210.3611,-0.2727734519621737,0.12994477894777506,-0.02683701322735388,-0.03604,-0.0336,-0.01466,-0.3,-12.36,-22.56
46.2201,67210.381,-0.29579432131385475,0.12698640675306994,-0.03162147460571951,-0.01222,0.01466,-0.00122,-0.42,-12.54,-22.38
46.245,67210.4011,-0.28341388469485546,0.13031758865582171,-0.030232432516639207,0.0171,0.02321,-0.00305,-0.42,-12.66,-22.44
46.2642,67210.422,-0.24070799161953813,0.1436016723257528,-0.022317942430904125,0.01649,-0.01161,0.02138,0.0,-12.54,-22.2
46.2851,67210.443,-0.1804449222706149,0.16528040712838404,-0.008254288894615769,-0.02321,-0.04032,0.00855,0.06,-12.42,-21.78
46.3133,67210.4631,-0.11715877630429984,0.193024739748263,0.010144090424043739,-0.0452,-0.01466,-0.0171,0.84,-12.42,-21.6
46.3262,67210.483,-0.0690546295417387,0.20934700645205537,0.029905836617407644,-0.0452,0.011,-0.0226,0.9,-12.36,-21.48
46.342,67210.503,-0.04731721398078841,0.21718620679155123,0.04733146858216486,-0.01894,-0.011,-0.00733,0.66,-12.54,-21.72
46.3643,67210.5231,-0.056899602595988544,0.2153817987423046,0.05978984354580774,0.00916,-0.04581,0.00916,0.84,-12.66,-22.02
46.3831,67210.543,-0.09060122717748093,0.20904996137967727,0.06676766064353679,-0.0055,-0.04704,-0.02016,0.24,-12.6,-22.02
46.4035,67210.563,-0.13757874842910117,0.20412241230999642,0.0703098805086011,-0.04581,-0.00672,-0.04948,0.12,-12.54,-22.08
46.4247,67210.5831,-0.1885226873199762,0.2018594344191526,0.07404897739994709,-0.09835,0.0226,-0.05376,0.0,-12.36,-22.02
46.4435,67210.6041,-0.23924615724096843,0.19573824492984707,0.08116756038658224,-0.09407,0.02505,-0.0391,-0.18,-12.48,-22.26
46.4631,67210.624,-0.28209687757208224,0.1857700896798814,0.09262692719528332,-0.04826,-0.04765,-0.02077,-0.18,-12.48,-22.5
46.4847,67210.6451,-0.31101283091175275,0.1737172239340013,0.10696116868647465,-0.00183,-0.05192,0.02566,0.24,-12.06,-22.44
46.5097,67210.665,-0.3222291380309611,0.1648346286897712,0.12126305221526046,0.00244,-0.01833,0.01344,0.3,-12.24,-22.2
46.5248,67210.6851,-0.31411812331160344,0.16107835188547112,0.13273038315037056,-0.0171,0.00672,0.00367,0.66,-11.82,-21.84
46.5447,67210.7051,-0.29612682723668493,0.16145424861212282,0.1393531627644915,-0.05925,-0.00305,-0.00183,0.78,-11.76,-21.96
46.5686,67210.725,-0.2736640560334803,0.1596041441121436,0.140739790719552,-0.0507,0.01527,0.00183,0.66,-12.24,-21.72
46.584,67210.745,-0.25372069752796167,0.14820244505355415,0.1375031979684067,-0.00916,0.01894,-0.01466,0.36,-12.12,-21.72
46.6046,67210.7651,-0.23499320873665702,0.13451449132717755,0.13048592012445503,0.02077,0.00855,-0.02627,-0.24,-12.3,-22.26
46.6286,67210.785,-0.21886691188035295,0.12602781614697514,0.11993829493186325,-0.00305,-0.02016,0.00367,-0.48,-12.54,-22.38
46.6467,67210.805,-0.20215756249695646,0.13002002695738807,0.1055423998540288,-0.01161,-0.00367,0.03238,-0.6,-12.36,-22.44
46.6685,67210.8251,-0.1837830593737573,0.1483482162930872,0.0871514356928138,-0.00061,0.02688,0.03543,-0.36,-12.36,-22.32
46.6888,67210.845,-0.1617352267042497,0.1785361619312332,0.06628384895947725,0.00061,0.01894,0.00489,-0.18,-12.42,-22.14
46.7091,67210.8661,-0.13858448490721165,0.21547605169834877,0.04677469698481396,-0.00061,0.00916,-0.03238,-0.06,-12.06,-21.72
46.7432,67210.8871,-0.11648331592332514,0.2511452435534542,0.033849488702019315,-0.00855,0.01772,-0.00916,0.0,-12.42,-22.02
46.7491,67210.9081,-0.10520912538932349,0.2779325549712261,0.03133198788530045,0.00611,0.03604,0.02627,0.24,-12.42,-22.5
46.7681,67210.9291,-0.10529437536052641,0.28761074921100405,0.03927098717064936,0.00244,0.02016,0.03176,0.12,-12.24,-22.26
46.7884,67210.949,-0.11728734420607329,0.27886919705848723,0.05289955887123199,-0.00672,-0.01649,0.02016,0.78,-12.48,-22.5
46.8081,67210.969,-0.14062025182970952,0.2547682907349631,0.06463973253836208,-0.02199,-0.05009,-0.0281,1.32,-12.24,-22.38
46.8316,67210.9891,-0.17398774774777992,0.2229342928301168,0.06757787962905049,-0.03787,-0.00916,-0.05315,1.14,-12.0,-22.32
46.8502,67211.009,-0.2200006476519077,0.18904276093151368,0.05853292533951482,-0.02993,0.04765,-0.04459,1.68,-12.0,-22.5
46.8682,67211.029,-0.27190580340276627,0.16314475349787932,0.03917711636690946,0.00305,0.01283,-0.02566,1.32,-11.58,-21.9
46.8884,67211.0491,-0.3196066422257829,0.1520539565759009,0.015044992006910007,0.02382,-0.00428,-0.00428,0.84,-11.28,-21.78
46.9109,67211.069,-0.35309251892045307,0.15787203288689217,-0.007019983878748803,-0.02077,-0.00794,0.00183,1.08,-11.46,-21.54
46.9299,67211.089,-0.36519115846506367,0.17486317759692893,-0.021366670907669416,-0.04765,0.01161,0.01161,0.72,-11.88,-21.84
46.9581,67211.1091,-0.3564330132767226,0.19793999325621808,-0.02512776133457173,-0.02016,0.02443,0.01405,0.6,-12.18,-22.32
46.9728,67211.1291,-0.3297079272989311,0.21415988085762278,-0.017729111620047533,-0.0055,0.011,0.02749,0.66,-12.42,-22.8
47.0247,67211.149,-0.30088456552552134,0.23134484423618254,-0.0009913383999649028,-0.02688,-0.00672,0.0391,0.54,-12.66,-23.16
47.0307,67211.1589,-0.25542122504566267,0.23381599107752862,0.023915839013730178,-0.02321,-0.00916,0.02871,0.42,-12.42,-22.92
47.0334,67211.189,-0.20809285495265606,0.23125928893417336,0.053760342370456016,-0.00733,-0.00916,0.0336,0.42,-12.6,-22.62
47.054,67211.209,-0.17282610766951786,0.22849458901030242,0.08524834797526815,0.0055,-0.01833,0.0562,0.12,-12.78,-22.2
47.0683,67211.2291,-0.1405432507836082,0.22659657896569213,0.11546034155867879,-0.01038,-0.01588,0.05009,-0.06,-12.72,-21.96
47.0954,67211.2491,-0.11965703073410192,0.23014318844326634,0.1411710044367691,-0.02505,0.011,0.0281,0.24,-12.48,-21.9
47.1075,67211.269,-0.1050968681739312,0.2335691913467642,0.16008081601130897,-0.02199,0.0055,0.01894,0.18,-12.24,-22.02
47.1278,67211.2891,-0.10541795068502609,0.23823967336532123,0.17030912520877273,0.011,-0.01955,0.03115,0.42,-11.82,-22.08
47.1472,67211.3091,-0.1188523360580894,0.24243154461964467,0.17096343596485042,0.02077,-0.0336,0.01955,0.42,-11.82,-22.2
47.1696,67211.329,-0.14531339694743525,0.24483581497147228,0.16192518589388172,-0.01222,-0.02016,0.01222,0.12,-12.24,-22.26
47.1895,67211.3491,-0.18304676758041602,0.2421849570346322,0.14411928957141917,-0.02627,0.01161,0.00977,0.12,-12.06,-22.14
47.2105,67211.3691,-0.23136408769283062,0.23143493181332903,0.1197243959838108,-0.00061,0.00977,0.00305,0.0,-11.88,-22.2
47.2389,67211.389,-0.2860710071689636,0.2118529048320718,0.0923133524148696,0.02566,-0.01588,0.00183,0.06,-12.0,-21.9
47.249,67211.409,-0.3339857299019901,0.18701151600636337,0.06659160753810767,-0.00733,-0.0226,0.02199,0.24,-12.24,-21.72
47.2713,67211.4291,-0.3672431654355807,0.16053201500937261,0.04699803289375204,-0.00305,-0.00367,0.01344,0.24,-12.72,-21.84
47.2936,67211.4501,-0.37583162626763134,0.1413826812326682,0.036308182885750995,0.0336,0.01649,0.01222,0.3,-12.96,-21.54
47.3101,67211.47,-0.3555855380764071,0.13861739080775037,0.0342625814173374,0.01649,0.00672,0.0452,0.54,-12.72,-22.26
47.3307,67211.49,-0.31276590299132445,0.15603885904591488,0.037254890357958814,-0.00794,0.00733,0.07941,0.54,-12.36,-22.32
47.3547,67211.5101,-0.2554086041243067,0.19054120966494348,0.04000349555213667,-0.01649,-0.00367,0.08491,0.9,-12.12,-22.32
47.3696,67211.53,-0.1874017011949059,0.23224257908582746,0.03814291084656318,0.01955,0.01344,0.07575,1.02,-12.48,-22.8
47.3906,67211.55,-0.13289953634208587,0.26770826616719356,0.03010062973541494,0.06414,0.03238,0.06414,0.72,-12.6,-22.44
47.4131,67211.571,-0.10100111001593816,0.28999910602885665,0.018517952151956507,0.05681,-0.00183,0.05131,0.36,-12.78,-22.62
47.4295,67211.5911,-0.09180621308820748,0.3002628460807327,0.00842500577251215,0.02321,-0.01588,0.04643,-0.36,-12.84,-22.68
47.4496,67211.6111,-0.10393031922599257,0.29732309958686737,0.004942761961537201,-0.01344,-0.01466,0.02566,-0.48,-12.6,-21.9
47.4699,67211.631,-0.12652115047262646,0.2864980723183741,0.010866272226683904,-0.04276,0.01649,-0.0055,-0.54,-12.48,-21.78
47.4899,67211.6511,-0.1519881031694716,0.27291683768699165,0.02578643123225355,-0.04398,0.04459,-0.00244,0.0,-12.06,-21.3
47.5109,67211.6711,-0.17550603850875868,0.26324619351902634,0.046575416899239386,-0.01955,0.02321,0.02871,0.42,-12.06,-21.3
47.5298,67211.691,-0.19250379298420514,0.26447903598842487,0.06896145927419717,0.02627,-0.02749,0.02993,0.3,-11.94,-21.72
47.5524,67211.7111,-0.2018709820766688,0.28020197779101497,0.08905870688083262,0.03482,-0.03054,0.03421,0.42,-12.18,-21.96
47.5716,67211.7311,-0.20222524938308542,0.30779958063254004,0.10439128059427283,-0.01833,-0.02993,0.01038,0.36,-12.36,-22.32
47.5923,67211.751,-0.20215318945176547,0.3344298444868381,0.11419177808906333,-0.04215,0.02871,0.00489,0.36,-12.36,-22.26
47.6141,67211.772,-0.2107611858489644,0.3438914628580843,0.1194208090657245,-0.02505,0.00061,0.0,0.42,-12.42,-22.2
47.6343,67211.793,-0.2321088971471599,0.32744708383137217,0.1219241943894076,0.01405,-0.04276,-0.00672,0.3,-12.0,-21.96
47.6537,67211.8141,-0.2614618198511311,0.29032425501565773,0.12328978027245796,0.03238,-0.05009,0.01038,0.06,-12.18,-22.02
47.6778,67211.834,-0.290020786575348,0.24571931737652442,0.12418612053035005,-0.01222,-0.00367,0.00855,0.0,-12.0,-22.2
47.6955,67211.8541,-0.31017902694224914,0.20253855068374396,0.12420591207620824,-0.05803,0.02688,-0.00611,0.18,-12.3,-22.02
47.7138,67211.8741,-0.31953856420089355,0.16809511932282586,0.12183639908463917,-0.06109,0.01833,-0.00305,0.3,-12.72,-22.2
47.7394,67211.894,-0.3185880724243213,0.14625070403164694,0.11551149922990334,-0.00489,-0.00855,0.01833,0.54,-12.72,-21.6
47.7557,67211.915,-0.3028602651373754,0.14117002951931276,0.10503288563156943,0.05498,-0.02505,0.04154,0.84,-12.96,-21.54
47.7814,67211.9351,-0.27661971300407195,0.1521296369307968,0.09187694718718831,0.04765,0.00672,0.03726,0.72,-12.6,-21.54
47.8003,67211.9551,-0.23750786912690536,0.18085238117547717,0.07918378588664154,0.0055,0.02871,0.03054,0.66,-12.3,-21.48
47.8147,67211.975,-0.19344213962939683,0.2144069560162198,0.07043114936532469,0.00428,0.01222,0.02382,0.48,-12.12,-21.9
47.835,67211.996,-0.15296845219482352,0.24029480726833408,0.06823292659282032,0.03665,-0.02199,0.02871,0.18,-12.0,-21.78
47.8561,67212.016,-0.11861321887416522,0.2558957234430386,0.07292842694683088,0.05253,-0.01772,0.02688,0.48,-11.94,-22.02
47.879,67212.0361,-0.09277640478095063,0.264198242313997,0.0818214137712161,0.01527,0.01466,0.03604,0.3,-12.36,-22.08
47.8959,67212.056,-0.07756235033291152,0.2701379190055526,0.08982046183766457,-0.00061,0.01649,0.01222,0.18,-12.42,-22.14
47.9156,67212.076,-0.07886786950368424,0.2744275612583495,0.09141872265848328,0.00367,-0.00855,0.00855,0.48,-12.54,-22.32
47.9356,67212.0961,-0.09796417157372524,0.27905363761005053,0.08307626808059787,0.03543,-0.0452,0.00305,0.36,-12.78,-22.32
47.9602,67212.1171,-0.13229251788193014,0.28487406063017373,0.06514881708786113,0.04948,-0.01527,-0.0055,0.36,-12.42,-22.02
47.9782,67212.1371,-0.17535420924138992,0.2952036006449822,0.04204762322638267,0.01772,-0.01161,-0.02077,0.36,-12.78,-22.08
48.0007,67212.157,-0.22037563712225644,0.30256435387343533,0.021028964556590424,-0.00244,-0.00122,-0.01283,0.36,-12.84,-21.78
48.0174,67212.178,-0.26203642999720284,0.30377807254414213,0.009098317020779234,0.03421,-0.0281,-0.00733,0.3,-12.54,-21.96
48.0397,67212.1981,-0.29478528922085256,0.2939599280134825,0.010675923370525808,0.03726,-0.01894,-0.01222,0.72,-12.72,-22.5
48.0647,67212.22,-0.3147844513691782,0.2753636038357629,0.025708211761543254,-0.00489,-0.0226,0.01466,0.96,-12.36,-22.32
48.0836,67212.2411,-0.3161135360572123,0.251391707336643,0.04988242384376562,-0.01833,-0.05009,0.02993,0.66,-12.12,-22.14
48.1025,67212.2621,-0.301616348177314,0.22675879688789813,0.07573893913910368,0.01833,-0.02749,0.00977,0.66,-12.36,-21.78
48.1197,67212.282,-0.27714095456058757,0.2084035236266539,0.09532242405323998,0.04398,0.02505,-0.00305,0.12,-12.48,-21.72
48.1413,67212.302,-0.25180333949831996,0.20083104369068683,0.10257571918822705,0.02688,0.00244,0.02016,-0.06,-12.66,-21.72
48.1612,67212.3221,-0.23078108595321234,0.20832079944809406,0.09453610159466308,0.00489,-0.03848,0.02443,-0.18,-12.54,-22.02
48.1832,67212.3431,-0.21644122416654968,0.22878137038114454,0.07134362534726613,0.03543,-0.0507,0.00183,-0.24,-12.42,-21.84
48.2026,67212.363,-0.20729802470251144,0.26056571373805104,0.03573676486153765,0.05437,0.00183,-0.00367,-0.06,-12.36,-21.84
48.2242,67212.384,-0.20449080242801604,0.2980405264373435,-0.0073172013149704895,0.01527,0.00367,-0.00611,-0.12,-12.3,-21.66
48.2447,67212.405,-0.2095799397471306,0.33634537797151204,-0.051214548519279646,0.01038,0.01466,0.0055,0.0,-12.36,-21.66
48.2641,67212.425,-0.22264912400038683,0.36826457099858917,-0.08859616999761855,0.03176,0.00244,-0.02443,0.06,-12.36,-21.96
48.2862,67212.445,-0.24040477324875592,0.3869589682084326,-0.1127780922146897,0.00611,-0.00977,-0.00977,0.18,-12.06,-21.96
48.3045,67212.465,-0.2590039406699504,0.38827431313594396,-0.11931982134049335,-0.02566,-0.01222,-0.01772,0.06,-12.12,-22.2
48.3337,67212.485,-0.27227023508865505,0.3743442665855285,-0.10707822395148625,-0.02505,-0.00672,-0.02443,0.42,-12.66,-22.26
48.3456,67212.505,-0.283789175147674,0.34471962208771467,-0.07836682799739947,-0.01649,0.00244,-0.02993,0.36,-12.54,-22.62
48.3659,67212.5251,-0.28961598425190227,0.3138399944125866,-0.03849132589740556,-0.02566,-0.01772,0.00611,0.48,-12.78,-22.44
48.386,67212.545,-0.2896938268345859,0.2882568676212879,0.006067925303250732,-0.04398,-0.00794,0.03176,0.48,-12.78,-22.62
48.4134,67212.565,-0.2840874146275927,0.2759406627874355,0.04900569913255737,-0.04643,-0.00611,0.0171,0.12,-12.36,-22.62
48.4324,67212.586,-0.27237589695540376,0.2713380992776348,0.08618257783523475,-0.02443,0.01283,-0.00733,-0.3,-12.96,-22.68
48.4535,67212.6061,-0.2595914491631032,0.27678687664290275,0.11566781610531685,-0.03054,-0.01833,-0.01344,-0.54,-12.84,-22.62
48.4686,67212.626,-0.2501250931136739,0.2883560166183976,0.13784738247935557,-0.01038,0.00183,-0.00672,-0.3,-12.84,-22.32
48.4856,67212.646,-0.24438382763767103,0.3039360909112987,0.15372585072503497,-0.00367,-0.01161,0.011,-0.12,-13.08,-22.08
48.5056,67212.6661,-0.2413521415202175,0.31912539535951756,0.1634404471513573,-0.02199,-0.02443,0.02382,0.6,-13.02,-21.54
48.5367,67212.686,-0.2403703373780748,0.3300920312963383,0.1656666503119233,-0.00977,-0.01161,-0.00794,0.72,-13.2,-21.36
48.5518,67212.706,-0.2406688861806674,0.3323389295578059,0.15838965216550882,-0.00244,-0.01649,-0.01405,0.66,-13.26,-21.48
48.5655,67212.726,-0.24655085643949673,0.32778028289282496,0.13974612324217262,-0.00244,0.0055,0.00244,0.72,-13.2,-22.26
48.5917,67212.746,-0.25895515273109193,0.32049415176191676,0.10932223393153251,-0.00733,-0.00061,0.00244,0.42,-12.96,-22.44
48.606,67212.766,-0.27775522409007575,0.3116397706270799,0.06875929070536557,-0.02138,-0.02566,-0.0171,0.48,-12.78,-22.62
48.6309,67212.786,-0.2985348445830054,0.30785662628810084,0.021709996003430376,-0.0171,-0.00977,-0.0171,0.36,-12.6,-22.56
48.6462,67212.807,-0.31867262428379606,0.3134059072188577,-0.0263426532369877,0.02199,-0.00122,-0.02321,0.0,-12.48,-21.84
48.6824,67212.8271,-0.3311770186333747,0.33304386900130484,-0.06888224364876017,0.00122,0.01894,0.00489,-0.24,-12.42,-21.96
48.6889,67212.847,-0.3344033382737079,0.363772880033921,-0.09983281093453478,-0.03848,0.02749,0.03482,-0.48,-12.66,-22.2
48.7069,67212.867,-0.32404486206503463,0.4043652232144142,-0.1150982291142526,-0.03604,0.05742,0.00489,-0.66,-12.78,-22.02
48.7362,67212.8871,-0.3026955987323576,0.4495257451606728,-0.11368574449940283,-0.02871,0.04459,-0.02749,-0.9,-12.66,-22.2
48.7465,67212.907,-0.2810931639529369,0.47239832970767753,-0.09703053634572889,-0.06536,-0.01405,0.01283,-0.96,-12.66,-22.02
48.7658,67212.927,-0.26208646853498835,0.4780551987122463,-0.07050109481671107,-0.0788,-0.00244,0.0226,-0.66,-12.48,-21.48
48.7859,67212.9471,-0.2492638023971345,0.45514589445837755,-0.04035313606929769,-0.0507,0.03482,-0.00428,-0.66,-12.54,-21.9
48.8057,67212.967,-0.24212116138297526,0.40393570955223146,-0.013267459189329145,-0.04215,0.04398,-0.01649,-0.18,-12.48,-21.66
48.8256,67212.987,-0.23715886950028747,0.3320510303570115,0.005269810357257043,-0.08613,0.0226,-0.03787,0.06,-12.48,-21.78
48.8484,67213.0071,-0.22762723059148887,0.25275693176195413,0.011581571521299239,-0.13256,0.01161,-0.07025,-0.3,-12.18,-22.2
48.8666,67213.0279,-0.21759744383756838,0.16974647456744565,0.0034048068332097614,-0.10446,0.05315,-0.06842,0.12,-11.82,-21.9
48.8884,67213.048,-0.2014153655556619,0.10555896027548553,-0.020665637913456436,-0.05437,0.04948,-0.02138,0.0,-11.52,-22.08
48.9091,67213.068,-0.17999610551025685,0.0757485570952317,-0.06011722978792733,-0.01344,-0.01222,0.04276,-0.24,-11.22,-22.2
48.9301,67213.0901,-0.14929549562725292,0.09793465219418078,-0.11115787107644515,-0.00428,-0.04215,0.06842,-0.06,-11.64,-22.38
48.958,67213.11,-0.10977445767380237,0.17916101317074237,-0.16593150247424404,-0.04276,-0.00489,0.02871,-0.42,-11.7,-22.8
48.97,67213.13,-0.07028539392743186,0.2941755505775983,-0.21235918105054985,-0.0788,0.10324,-0.0055,-0.36,-11.94,-22.86
48.9909,67213.1501,-0.043900457935595744,0.42843076143107456,-0.23663008513083206,-0.0562,0.0171,0.00794,-0.12,-12.18,-22.44
49.0098,67213.17,-0.040930504296312946,0.545663202504836,-0.2265044665195486,-0.02016,-0.00428,0.03665,-0.3,-12.18,-22.38
49.0319,67213.19,-0.060873709119426016,0.6251471786425093,-0.17736172891628144,-0.0562,-0.07025,0.05803,-0.06,-12.12,-22.2
49.0498,67213.2101,-0.0931743984012078,0.64972369028131,-0.09433243119325496,-0.10018,0.00611,0.04154,-0.18,-11.82,-22.02
49.0677,67213.23,-0.13810055910694571,0.6185874979845407,0.008420425451991065,-0.16249,0.03848,-0.04215,-0.24,-11.64,-22.02
49.0882,67213.25,-0.19765238355885043,0.5441838220737458,0.11264847604687311,-0.21808,0.04337,-0.09407,0.0,-11.58,-21.66
49.1096,67213.27,-0.2755374556940618,0.43971007428118913,0.20233024277253442,-0.21441,-0.05131,-0.08674,-0.42,-11.28,-21.36
49.1341,67213.29,-0.36344063309683666,0.3311639135114115,0.26786138164563056,-0.1576,-0.08002,-0.08369,-0.36,-11.7,-21.78
49.1536,67213.31,-0.4497239725237927,0.23063883243391295,0.30949802690600947,-0.11118,-0.04093,-0.08858,-0.36,-11.46,-21.96
49.1737,67213.3301,-0.5127918178092374,0.16307212162246115,0.3356794900533231,-0.09652,-0.00977,-0.06536,-0.36,-11.22,-22.38
49.1961,67213.352,-0.5394717585044784,0.13272146112806657,0.35827241725191783,-0.10568,-0.03543,0.01894,0.06,-11.52,-22.5
49.2133,67213.372,-0.5169456590515357,0.12464782504337293,0.3855724042468083,-0.08247,-0.08308,0.05559,0.18,-11.34,-22.38
49.2368,67213.3921,-0.4491029477556979,0.13905424779333592,0.4161199292475626,-0.06292,-0.11912,0.05192,0.24,-11.46,-22.38
49.2526,67213.412,-0.3278595729720825,0.16147402176377726,0.4399415273429952,-0.0452,-0.14966,0.04459,0.24,-11.46,-21.78
49.2718,67213.432,-0.18694024901595002,0.2009272775969334,0.43984128043429926,-0.01466,-0.09407,0.07025,0.12,-11.46,-21.9
49.2908,67213.4521,-0.05318253216940535,0.25841661958194995,0.40103503668462004,0.03176,-0.03787,0.10201,0.0,-11.4,-21.9
49.3125,67213.472,0.03920928974368653,0.33062989742770565,0.3173463896129878,0.07086,-0.0562,0.08186,-0.18,-11.28,-22.14
49.3319,67213.492,0.0722132646682972,0.4151125880722906,0.19535802103255584,0.09896,-0.07086,-0.0055,0.12,-11.1,-22.44
49.3591,67213.5121,0.038424680761287536,0.4941745477788488,0.05495690549489929,0.09346,-0.01038,-0.08674,0.18,-10.86,-22.32
49.373,67213.532,-0.07065537092306765,0.5713379311929295,-0.07670361164298178,0.04337,0.04765,-0.12706,0.3,-10.62,-22.44
49.3949,67213.552,-0.21287747595648707,0.6196216881511202,-0.17050987546519814,-0.03848,0.03604,-0.13989,0.72,-10.86,-22.14
49.413,67213.573,-0.37182335000384326,0.6252042783855456,-0.20570245657031272,-0.07269,0.02443,-0.14844,0.6,-11.16,-22.32
49.4336,67213.5931,-0.5038281074230765,0.5845869270140863,-0.17486505344848524,-0.02749,0.00672,-0.13561,0.78,-11.1,-22.14
49.4526,67213.613,-0.5864079278795986,0.5046772794495656,-0.08595225851528276,-0.00367,-0.03238,-0.08063,0.72,-11.1,-21.78
49.4792,67213.634,-0.6043055303982119,0.4062095635844687,0.04069375076078785,-0.0336,-0.00305,-0.01955,0.66,-11.4,-22.02
49.5024,67213.654,-0.5682194454003833,0.3063856919671612,0.17694932082397052,-0.06475,0.0171,-0.01833,0.84,-11.4,-22.08
49.5186,67213.675,-0.49955129712036517,0.21746437900840504,0.29313641484055,-0.06414,0.0,-0.01772,0.9,-11.82,-22.08
49.5356,67213.695,-0.4245947487640146,0.15621839296964385,0.36411393124517843,-0.01955,-0.01955,-0.02321,1.14,-12.06,-22.5
49.5558,67213.7151,-0.3660822704063927,0.13194911263023482,0.3755852466961169,0.02566,-0.01955,-0.02749,1.26,-12.12,-22.38
49.576,67213.735,-0.3373503834029596,0.14938998213662844,0.32744768100232413,0.0391,0.03543,-0.01955,0.78,-12.24,-22.44
49.5969,67213.755,-0.33956420392210906,0.20494632447175318,0.2334178074899249,0.0452,0.05803,0.00122,0.54,-12.24,-22.74
49.6148,67213.7751,-0.3656395819181457,0.2875178553917194,0.11660772786901674,0.04337,0.05253,-0.00305,0.24,-12.24,-22.44
49.637,67213.795,-0.3992945404539673,0.37551799805524677,0.003308955515091583,0.03604,0.06842,-0.00305,0.12,-11.76,-22.2
49.657,67213.815,-0.4279901818816057,0.45315955637781596,-0.08420203341853671,0.02077,0.04276,-0.00367,0.12,-11.76,-21.9
49.678,67213.8351,-0.4407678635948881,0.5061715170383083,-0.13197901130626377,0.00611,0.03971,0.01466,0.3,-11.52,-21.48
49.6966,67213.855,-0.43440903741147496,0.5294687612265171,-0.13671434963161033,0.01222,0.02749,0.03115,0.42,-11.88,-21.6
49.719,67213.875,-0.4132512213597886,0.5245710761854443,-0.10484701897519955,0.05253,0.04032,0.04704,0.42,-11.88,-21.96
49.7397,67213.8951,-0.3825231303242918,0.5037734843545209,-0.04992004092473934,0.05681,0.00916,0.06475,0.84,-11.88,-22.38
49.7542,67213.915,-0.35115063509964906,0.47723659185689504,0.01150962766068453,0.01038,0.01466,0.01894,0.96,-12.0,-23.1
49.7746,67213.935,-0.3299601457540479,0.4491143741145801,0.06388811645211234,-0.03421,0.0391,-0.00611,1.32,-11.7,-23.04
49.7941,67213.9551,-0.3260817164890936,0.42212599101122256,0.09595892323557287,-0.00305,0.06353,-0.01955,1.5,-11.76,-22.98
49.8145,67213.975,-0.33862688050601697,0.4011901359151252,0.10287085605883206,0.0507,0.01161,-0.02688,1.44,-11.52,-22.74
49.8344,67213.995,-0.35820569143186487,0.3951112366266273,0.08649146488602533,0.04459,0.00733,-0.00489,1.44,-11.4,-22.5
49.8567,67214.0151,-0.37008382793533234,0.40859229284459014,0.05424349965404218,-0.00061,0.06414,0.01161,1.2,-11.76,-22.14
49.8746,67214.035,-0.3669513110757552,0.4387954852532017,0.016294118190419482,-0.00611,0.08552,-0.011,1.08,-11.94,-22.08
49.8987,67214.055,-0.34494864400138486,0.4747039691466709,-0.016890910328353215,-0.00122,0.06842,-0.00244,0.84,-12.24,-22.08
49.9141,67214.075,-0.31255482125738754,0.5083330746612706,-0.037600739910020664,0.03054,0.02932,0.03176,0.9,-12.3,-21.78
49.9342,67214.095,-0.2748484690531026,0.5324769452077,-0.041844122615025015,0.03176,0.02566,0.04093,0.84,-11.88,-21.72
49.9542,67214.115,-0.23674325338170454,0.5452986303404137,-0.030312483881450802,-0.0055,0.02138,0.03971,1.14,-11.52,-21.84
49.9745,67214.135,-0.20264480449902406,0.5438364633497814,-0.007224466069862601,-0.03054,-0.00367,0.02993,1.2,-11.52,-21.84
49.9964,67214.155,-0.17737353119790514,0.5268533791098247,0.021241226045889405,0.00367,-0.0055,0.00611,0.9,-11.52,-22.2
50.0148,67214.175,-0.16450393330745583,0.49942390668555586,0.04835980064739509,0.03115,-0.02932,-0.00794,0.54,-11.64,-22.68
50.0363,67214.196,-0.16603673048442588,0.4713288561797874,0.0678413205414472,0.02443,-0.04887,0.01344,0.3,-11.76,-22.5
50.0571,67214.216,-0.17679965151024057,0.4542057082099406,0.07451764712489606,0.011,-0.06475,0.03604,0.54,-11.52,-22.14
50.075,67214.2361,-0.19051025514337944,0.4516847681502036,0.06555048846873568,-0.01222,-0.03115,0.04032,0.6,-11.16,-22.14
50.0946,67214.256,-0.20813492018017465,0.4603715639135676,0.041719047235421414,-0.01772,0.00977,0.00672,0.84,-10.8,-22.26
50.1178,67214.276,-0.23270646313913665,0.47327471487232936,0.008549197763869643,-0.00305,0.04215,-0.01894,0.78,-11.1,-22.26
50.1358,67214.2961,-0.2684525829978502,0.4855224994804177,-0.02457870179198629,0.00611,-0.02138,-0.01894,0.42,-11.16,-22.74
50.1562,67214.316,-0.31039967735822604,0.49619418205537286,-0.04717000677795902,0.00672,-0.06597,0.00122,0.12,-11.16,-22.62
50.179,67214.336,-0.34810363829562924,0.5066654796757949,-0.05143679752288044,-0.03115,-0.04093,0.00611,0.24,-11.34,-22.92
50.1977,67214.3561,-0.37139388458210165,0.5139478807531839,-0.035042330233236996,-0.03665,0.02382,-0.00672,0.36,-11.4,-22.92
50.2189,67214.376,-0.3787041104128651,0.51714114593387,-0.002543914232552069,-0.03726,0.01344,-0.00183,0.66,-11.64,-22.92
50.2389,67214.396,-0.3747205320871478,0.5129544248747465,0.03639940331940217,-0.02016,-0.02443,0.01527,1.02,-11.82,-23.04
50.2748,67214.417,-0.3705504835569574,0.5022935618000531,0.06973040076907289,0.02382,-0.04765,0.01222,1.14,-12.06,-22.92
50.283,67214.438,-0.36099719056410307,0.48901708317416936,0.08744987348425148,0.00977,-0.04032,-0.0055,1.5,-12.18,-22.92
50.298,67214.458,-0.3612711309345575,0.47367942478071084,0.08371817168578843,-0.03543,-0.02932,-0.00733,1.2,-11.76,-22.86
50.3181,67214.478,-0.37207297493971303,0.4570049386946239,0.0600657314461337,-0.02749,-0.01894,-0.01588,1.14,-12.06,-22.68
50.3377,67214.498,-0.392749365288861,0.43870466204762604,0.02518508639560224,-0.00183,0.02749,-0.02688,0.84,-11.88,-22.08
50.3611,67214.518,-0.4175732146556289,0.42308378414386466,-0.007470692067718332,0.0,0.01588,-0.03726,0.42,-11.28,-21.84
50.3817,67214.539,-0.4413678560776494,0.41448257031321895,-0.024316481567613124,-0.0226,-0.01588,-0.0336,0.6,-11.52,-21.66
50.3988,67214.5591,-0.4539725342460561,0.4136975946827389,-0.016537268087066792,-0.04581,-0.00672,0.01283,0.6,-11.28,-21.48
50.4183,67214.579,-0.44954113287515474,0.4200372317008235,0.015945217706409665,-0.02627,-0.0055,0.03604,0.6,-11.34,-21.6
50.4415,67214.599,-0.4296275031453645,0.4298122689590634,0.06440056247399539,-0.01038,0.04643,0.04581,0.54,-11.76,-22.08
50.4613,67214.6191,-0.4014635702374093,0.4393941019103514,0.11465625500442478,-0.011,0.03176,0.02321,0.54,-12.0,-21.78
50.483,67214.641,-0.3777420290724236,0.44916163633289086,0.15213956259165684,-0.00916,-0.00367,-0.00244,0.6,-12.06,-22.44
50.5046,67214.6631,-0.36727585393693374,0.458889144924434,0.16745674919304676,-0.00611,-0.00855,0.00733,0.78,-12.24,-22.62
50.5279,67214.683,-0.37219956166172435,0.46684392079785453,0.15985249584721473,-0.00733,0.05498,0.01283,0.9,-12.24,-22.5
50.5547,67214.704,-0.38759756738043677,0.4688828995386405,0.13804431433868913,0.00428,0.07269,0.01344,1.08,-12.12,-22.5
50.5707,67214.724,-0.4058092231729059,0.4651485992855697,0.11737683601357851,0.0171,0.0226,-0.01894,1.14,-12.24,-22.26
50.5842,67214.745,-0.41003561813951844,0.45772164024508105,0.11482197816211936,0.03848,-0.02443,0.00061,1.02,-12.18,-22.44
50.604,67214.7651,-0.38605046970673174,0.44936456784736556,0.14170128589742426,0.03971,-0.01038,0.01161,0.96,-12.06,-22.62
50.6299,67214.785,-0.32810183823478484,0.44778827894594303,0.1974988004407905,0.01649,0.01038,0.01405,0.9,-11.88,-22.86
50.6481,67214.805,-0.2355279569509608,0.4549472962619861,0.2685699355047788,-0.00733,-0.01283,0.03726,0.84,-11.88,-22.68
50.6657,67214.826,-0.1257023606210584,0.4677374182703118,0.3310284251299507,0.04276,-0.01344,0.06903,0.72,-12.18,-22.74
50.6923,67214.846,-0.025978127966595634,0.475027355230672,0.35901016324956103,0.1124,0.00672,0.01833,1.2,-12.24,-22.44
50.7094,67214.8661,0.038960661420574035,0.49405591575511904,0.33212971151312765,0.11545,0.02016,-0.02993,0.84,-12.24,-22.32
50.7262,67214.886,0.041914231278873865,0.5136426850851293,0.2450521251661506,0.07391,0.00428,-0.06964,0.6,-12.18,-22.26
50.7459,67214.907,-0.025389207233012412,0.5252368445122712,0.10879458466699887,0.01527,-0.01894,-0.1124,0.84,-11.64,-22.38
50.767,67214.927,-0.15539013067959917,0.5222595107082897,-0.05137814305679811,0.02077,0.04581,-0.14416,0.42,-11.52,-22.56
50.7951,67214.9471,-0.3138847531806411,0.5005791202155508,-0.20194161987033787,0.0733,0.0788,-0.14478,0.72,-11.76,-22.5
50.8073,67214.967,-0.494927362556497,0.4817263011813125,-0.31291825252179173,0.06536,0.02749,-0.11423,0.78,-11.94,-22.8
50.8276,67214.987,-0.6280732433783249,0.4642963250836744,-0.3608429732266156,0.00061,0.00244,-0.09285,0.9,-11.88,-22.14
50.849,67215.008,-0.694759379361339,0.456340694660392,-0.3401684172015429,-0.03176,0.00244,-0.01038,1.08,-12.24,-22.08
50.871,67215.0281,-0.6849098835050778,0.4553026826085087,-0.2615880768057579,-0.00672,-0.02749,0.09285,1.2,-11.46,-21.96
50.8897,67215.049,-0.6021600044826602,0.4604073681283382,-0.14836982700352763,0.06048,-0.08125,0.15516,1.44,-11.16,-21.6
50.91,67215.069,-0.4802190805246265,0.47306729755568633,-0.030686289488537355,0.0733,-0.06964,0.13928,1.44,-11.76,-21.9
50.9307,67215.089,-0.35623539090449735,0.49494339043858265,0.0637060504004161,0.01527,-0.0391,0.12584,1.2,-11.76,-21.84
50.9492,67215.109,-0.26348292509514715,0.5193235808483109,0.11624005277588623,-0.02871,-0.01649,0.10934,0.9,-12.06,-22.14
50.9734,67215.1291,-0.22946984818254262,0.5363645121171567,0.12123373936318416,-0.02443,-0.05253,0.08125,0.6,-12.18,-22.14
50.9889,67215.149,-0.24593671941208145,0.5404374131860059,0.0864978258736322,0.01772,-0.03848,0.00916,0.42,-12.06,-22.02
51.0085,67215.169,-0.3007876614608567,0.5383401825840204,0.028421177631793526,0.03176,0.02077,-0.04826,0.48,-11.88,-22.26
51.0354,67215.19,-0.369194556498283,0.5414611183511497,-0.03389587866140076,-0.02016,0.01894,-0.01955,0.42,-12.3,-22.26
51.0511,67215.2101,-0.4258179401461052,0.5489682416948444,-0.08466980994598572,-0.07208,-0.01772,0.05559,0.3,-12.42,-22.5
51.069,67215.23,-0.4502045771657625,0.5619020525025273,-0.115897412039903,-0.03604,-0.03176,0.07941,0.3,-12.48,-22.44
51.0881,67215.25,-0.4345724205375313,0.577175037939089,-0.12682585113499378,0.03543,-0.01222,0.06414,0.18,-12.48,-22.56
51.1077,67215.27,-0.38732218057004225,0.5945388078650511,-0.12153912708462222,0.01405,-0.01833,0.03543,0.18,-12.36,-22.38
51.1277,67215.2898,-0.3290892058834939,0.6115011377781889,-0.1051259663961499,-0.05376,-0.03176,0.05131,0.3,-12.36,-21.84
51.1488,67215.3109,-0.28081228520635376,0.6196922355606622,-0.08078156132587111,-0.08002,-0.0507,0.06781,0.3,-12.36,-22.32
51.1727,67215.3309,-0.254003517374221,0.6101168269820235,-0.04947736994217067,-0.03604,-0.04826,0.06292,0.3,-12.24,-21.84
51.1903,67215.351,-0.2409039912797184,0.5768421668320748,-0.011096851096848326,-0.01405,-0.02505,0.05864,0.6,-12.3,-21.84
51.2115,67215.3709,-0.24101508861196436,0.5328800631823533,0.03223652635446328,-0.07575,0.00611,0.05253,0.42,-12.12,-21.78
51.2302,67215.391,-0.24557751298772668,0.48532711948887397,0.07660363974837736,-0.11057,-0.00428,0.02199,0.24,-12.24,-21.42
51.2551,67215.411,-0.25363658902065883,0.4508883306798636,0.11466147518877357,-0.11362,-0.06414,0.00672,0.6,-12.42,-22.02
51.2718,67215.4309,-0.2572791594725588,0.41772448763225856,0.1395598950678636,-0.0898,-0.08552,0.03299,0.36,-12.06,-21.84
51.2908,67215.451,-0.25999699031620715,0.40077649076440897,0.14544522519610759,-0.03176,-0.04581,0.06048,0.9,-11.76,-22.44
51.3121,67215.4709,-0.26287184176433936,0.40345129280487485,0.1328470496300831,0.04032,-0.03543,0.0226,0.9,-11.64,-22.32
51.3337,67215.4909,-0.26792685553177015,0.428099536036746,0.10854834308041816,0.0,-0.06475,-0.0171,1.08,-11.4,-22.14
51.3525,67215.512,-0.2804152177930952,0.4668990714528747,0.08315320164174622,-0.1069,-0.0452,-0.01772,1.14,-11.34,-22.74
51.3775,67215.5319,-0.30293037394672273,0.5120999199425925,0.06657692779941549,-0.07758,-0.00367,-0.02871,0.66,-11.7,-22.86
51.3924,67215.5519,-0.33836944271039804,0.5404316665618407,0.06529335374425926,-0.02993,0.00244,-0.02932,0.9,-11.82,-23.1
51.4113,67215.572,-0.380398406063316,0.557204347032873,0.07897681246543264,-0.03421,-0.04154,0.01161,0.48,-11.7,-22.98
51.4337,67215.5919,-0.42366964376568195,0.5614798723306933,0.10295881219234282,-0.01283,-0.04887,0.01527,0.36,-11.88,-22.8
51.4523,67215.612,-0.4617333937182912,0.5569399625575832,0.1303441739092559,0.0226,-0.01222,-0.01161,0.6,-12.06,-22.5
51.4714,67215.632,-0.49381130809407947,0.5453749582435137,0.15474927669950134,0.00489,-0.01894,-0.02199,0.3,-11.88,-22.62
51.4912,67215.6519,-0.5195200810374898,0.526752109159368,0.17209983599518885,-0.03848,0.00916,-0.00428,0.36,-12.24,-22.56
51.512,67215.672,-0.5372797386902353,0.5001848104227672,0.1809521668934284,-0.03115,-0.00733,0.00183,0.36,-12.54,-22.38
51.5314,67215.692,-0.5449911052584224,0.46602033145441785,0.18181937030787232,-0.01038,0.00061,-0.01344,0.24,-12.36,-22.5
51.555,67215.713,-0.5407524287578379,0.4297977992748552,0.17611611386407233,0.00855,0.02199,-0.0055,0.72,-12.36,-22.38
51.5793,67215.734,-0.5239358555583132,0.4000106401867424,0.16531030643279543,0.02505,0.00916,0.02505,0.6,-12.48,-22.5
51.5971,67215.7539,-0.49029221526025574,0.38844130829999746,0.15034551630612292,0.0336,-0.01955,0.04093,0.78,-12.36,-22.62
51.6179,67215.774,-0.44276647268763414,0.3970808824412898,0.13122910470631943,0.0281,-0.00305,0.03482,0.48,-12.54,-22.62
51.6343,67215.795,-0.3876717764620997,0.42547265987419913,0.1074368181683063,0.03115,0.06414,0.01161,0.42,-12.42,-22.2
51.654,67215.815,-0.33740053411836207,0.4635203600958405,0.07911395174639502,0.02993,0.05437,0.01894,0.18,-12.42,-22.32
51.6799,67215.835,-0.30356840544473446,0.49801794783801384,0.047823020025770546,0.07575,-0.00733,0.05437,0.48,-12.06,-22.44
51.7021,67215.856,-0.281600139245494,0.5306067063773656,0.015992695751211983,0.11484,-0.03971,0.05925,0.36,-11.88,-22.32
51.7153,67215.8759,-0.2650702402643955,0.5657647477088228,-0.013480767598771592,0.08674,0.00794,0.01283,0.24,-11.76,-22.26
51.735,67215.896,-0.2542693719605961,0.5905218330770392,-0.036589014500732375,0.03787,0.05925,-0.01038,0.72,-11.94,-21.6
51.7552,67215.916,-0.2500179688751569,0.6074516522432065,-0.050607000206047914,0.01405,0.07025,-0.01894,0.42,-12.0,-21.84
51.7782,67215.9359,-0.2528881138554024,0.6127619642764267,-0.05399099802582974,0.0171,-0.02382,0.00367,0.78,-11.94,-22.14
51.7993,67215.956,-0.25661289923171143,0.6076841358543708,-0.047704868894498986,0.03238,-0.0843,0.03665,0.48,-12.06,-22.5
51.8161,67215.976,-0.25245520650128217,0.6006770586798608,-0.03532190203392993,0.05864,-0.02382,0.00977,0.18,-11.88,-22.74
51.8395,67215.997,-0.2429191100537088,0.596803380221019,-0.021755865361692273,0.03115,0.03665,-0.00672,0.3,-11.94,-22.2
51.8576,67216.018,-0.23349863969704826,0.6029253367522881,-0.012226863348150374,-0.03115,-0.00489,0.00428,0.18,-12.0,-21.84
51.8781,67216.038,-0.2323911245640381,0.6161200326340616,-0.01047724984259446,-0.03971,-0.07636,0.01405,0.48,-12.18,-21.72
51.9013,67216.058,-0.24188087392205532,0.6295909965979687,-0.017735470298699596,0.00244,-0.06292,-0.01283,0.54,-12.06,-22.14
51.9197,67216.078,-0.2597583301143117,0.6387319816100938,-0.03203377712736355,0.01588,-0.03787,-0.02505,0.66,-12.48,-22.26
51.9385,67216.099,-0.2867893432590802,0.6436257587879793,-0.048513768168902516,0.0226,0.00428,-0.02993,0.96,-12.66,-22.62
51.9589,67216.119,-0.3232027991139122,0.6451953386118557,-0.0607751247888384,0.02138,-0.02993,-0.02077,0.96,-12.48,-22.56
51.9797,67216.1389,-0.36703526169928996,0.6424224226595076,-0.06338219596997163,-0.02871,-0.05498,-0.02688,0.84,-12.72,-22.32
52.0029,67216.1599,-0.41257121074698866,0.6309047002436341,-0.05390493243088912,-0.08552,-0.0452,-0.0336,0.78,-12.18,-21.96
52.0271,67216.18,-0.4537575613164824,0.6048787447211917,-0.03364387451995654,-0.07453,-0.02138,-0.04459,0.48,-12.06,-21.78
52.0554,67216.1998,-0.4862479680049543,0.5685527658170765,-0.007235974905935194,0.02749,-0.05253,-0.04948,0.3,-12.06,-21.66
52.07,67216.2198,-0.5107373077306351,0.5379723774520713,0.019059094430426526,0.0391,-0.03543,-0.03054,0.24,-11.7,-21.42
52.0839,67216.24,-0.5228797467008433,0.5239082327726513,0.04030516807302931,-0.03482,-0.02077,-0.00428,0.3,-11.88,-21.72
52.1018,67216.262,-0.5227307716021635,0.5293964706497766,0.05297875115389772,-0.06048,-0.01894,0.00916,0.24,-11.76,-21.54
52.12,67216.2819,-0.511031151804929,0.5474266719010324,0.05553926973343337,-0.02016,-0.03604,-0.00672,0.54,-11.52,-21.72
52.1451,67216.302,-0.49108508035797627,0.5714953823921821,0.04830655507798731,0.01222,-0.02749,-0.02382,0.48,-11.94,-22.02
52.1656,67216.323,-0.46852200009427053,0.5981663517901692,0.03360020014314813,0.00428,-0.02077,-0.02566,0.3,-12.06,-21.9
52.1864,67216.343,-0.44724579169252454,0.6279070615116105,0.01529566853407438,-0.01955,-0.03482,0.01222,0.42,-12.36,-22.08
52.2035,67216.3629,-0.42703539940612306,0.6573809830119879,-0.0018418934335606707,-0.01038,-0.05009,0.0281,0.3,-12.18,-22.2
52.2257,67216.383,-0.4110272720589428,0.6820321905764795,-0.013719618633025732,-0.00977,-0.02932,0.0281,0.3,-12.36,-22.44
52.2526,67216.403,-0.4005804824936829,0.6944340835877052,-0.017008407430486372,-0.03665,0.01649,0.0336,0.06,-12.72,-22.62
52.2622,67216.4229,-0.392131939282844,0.6907836946269748,-0.009568713172644294,-0.00489,-0.02138,0.01588,-0.06,-12.78,-22.44
52.2824,67216.443,-0.3944695145764146,0.6761169267469314,0.008176396336731173,0.01649,-0.05253,0.00611,0.0,-12.96,-22.32
52.3021,67216.463,-0.4020101789359198,0.6549170308185092,0.03437188667248492,-0.03482,-0.03115,0.02566,0.24,-12.78,-21.96
52.3221,67216.4829,-0.41200610664794785,0.6289906957388051,0.06476412400022902,-0.0733,0.02688,0.01527,0.48,-12.72,-21.84
52.343,67216.503,-0.423554462587533,0.5981268151893133,0.0932542975806463,-0.05559,0.01894,0.00061,0.42,-12.42,-21.84
52.3641,67216.5229,-0.4360809347077066,0.5661598669515998,0.11330869256592457,0.01894,-0.01772,0.00061,0.12,-12.42,-21.84
52.3831,67216.5429,-0.4456905739695281,0.5443545730839126,0.12011048883363706,0.03054,-0.03238,0.01038,-0.06,-12.24,-22.08
52.4021,67216.563,-0.44708972835416516,0.5419921110994527,0.11253355513408891,-0.03054,0.01588,0.01222,-0.3,-11.94,-22.08
52.4252,67216.583,-0.4364885154039829,0.5603719869963478,0.09360638932511733,-0.08063,0.04581,-0.00183,-0.12,-11.94,-22.26
52.4428,67216.6029,-0.41729368557512553,0.5865550924566145,0.06989504071533759,-0.03176,0.01649,-0.01344,0.18,-12.3,-22.08
52.4624,67216.623,-0.39262862129427745,0.6145968725966431,0.049033214361886124,0.0507,-0.03848,-0.00061,-0.12,-12.24,-22.2
52.4823,67216.643,-0.366545498587899,0.6409037684670323,0.0373823759101235,0.0617,-0.03115,0.04581,0.12,-12.0,-22.32
52.5048,67216.663,-0.3437718591989799,0.663157898318552,0.03767963804419949,0.00305,0.00855,0.05925,-0.12,-12.06,-22.56
52.5226,67216.683,-0.32719669857095957,0.6752097576604672,0.048553306233721116,-0.04154,0.02443,0.02443,-0.54,-11.76,-22.92
52.5433,67216.703,-0.32560473690432384,0.6702997289435388,0.06524671713667018,-0.05253,-0.00428,-0.01527,-0.06,-11.76,-22.56
52.5638,67216.7229,-0.34255266362945325,0.6451365016758414,0.08203519103389212,-0.03238,-0.0055,-0.03054,0.18,-12.18,-22.8
52.5848,67216.7429,-0.3755857724283305,0.6062159492827045,0.09380259732377638,-0.0226,-0.00061,-0.03543,0.6,-12.0,-22.56
52.6022,67216.763,-0.4176957058139512,0.5634207826973153,0.09742031175896848,-0.02688,0.00977,-0.03176,0.9,-11.88,-22.32
52.6248,67216.784,-0.45654122997687413,0.5267337494306169,0.09207713598580192,-0.00672,0.00305,-0.00672,0.96,-11.76,-22.44
52.645,67216.804,-0.48342693802283604,0.5029476645716198,0.07864150223342037,0.02627,-0.011,0.02077,0.72,-11.7,-22.2
52.6752,67216.8239,-0.4939865238168622,0.49569988738866805,0.058967882577737996,0.02382,-0.01161,0.00733,0.54,-11.88,-21.78
52.6896,67216.844,-0.48379782437357965,0.5064242495742133,0.035668563101758366,-0.01833,0.00183,0.00244,0.3,-12.48,-21.78
52.7022,67216.864,-0.45793258845396123,0.5306689595017472,0.011850859875520925,-0.02443,-0.00428,0.00428,0.12,-12.6,-21.9
52.7226,67216.8839,-0.421370748073622,0.5633025979851215,-0.008442088083098653,0.00733,-0.01344,0.01038,-0.12,-12.42,-21.78
52.7425,67216.904,-0.37952948908361983,0.5984417191116084,-0.020605621149258013,0.04215,0.0055,0.02627,-0.3,-12.06,-22.14
52.7636,67216.924,-0.33933811994590135,0.6331610596528001,-0.02115438527017588,0.05376,0.01466,0.04032,-0.54,-11.76,-21.96
52.7848,67216.9439,-0.30625803399376045,0.6657644575612354,-0.009467971337761227,0.02443,0.00305,0.05376,-0.6,-11.58,-21.96
52.8058,67216.964,-0.28337399006207875,0.6917613317042924,0.011458311979897218,-0.0226,-0.04215,0.03971,-0.48,-11.7,-21.9
52.8235,67216.984,-0.27206176373660435,0.7047642040472945,0.03590866425198058,-0.02749,-0.04643,0.00428,-0.78,-11.82,-22.26
52.8432,67217.0039,-0.27604789549948355,0.7032293910842953,0.057363801582155816,-0.00122,0.00305,-0.03115,-0.48,-11.82,-22.32
52.863,67217.024,-0.2988538973817526,0.687987031663793,0.07116117916325315,0.0,0.02627,-0.04093,-0.72,-11.94,-22.14
52.8922,67217.044,-0.34071833359848436,0.6615948060054243,0.07557474581575718,0.0,-0.00611,-0.00183,-0.54,-11.46,-22.2
52.9136,67217.064,-0.3965416242809906,0.6342391516259125,0.07093162871541026,0.02627,-0.06658,-0.00672,-0.12,-11.46,-21.66
52.9229,67217.084,-0.454334307297273,0.6100484130940406,0.059500210889803284,0.01283,-0.03238,-0.02505,-0.3,-11.58,-21.78
52.943,67217.104,-0.5039144616115704,0.5939844507281683,0.04379887055899623,-0.04643,0.00733,-0.04093,-0.12,-11.82,-21.84
52.9672,67217.125,-0.5396047364914004,0.5864065753631248,0.026354163666836072,-0.06048,0.0226,-0.04887,-0.54,-12.06,-22.02
52.9885,67217.145,-0.5654765181693644,0.5831562509465594,0.009321484761219523,-0.00794,0.02321,-0.0336,-0.66,-12.18,-22.5
53.0085,67217.1649,-0.5787209622743276,0.5864387307358743,-0.005173527942057277,0.03604,-0.00794,-0.00733,-0.66,-11.76,-22.44
53.0235,67217.185,-0.5732510643357813,0.6000641575094242,-0.015072229763623213,0.02016,-0.02077,0.02016,-0.48,-11.4,-22.56
53.0429,67217.2049,-0.5489518181842525,0.6216232543773769,-0.018957921884101836,-0.00428,-0.02871,0.02321,-0.36,-11.82,-22.74
53.0692,67217.2249,-0.5110001531842627,0.6470090076476281,-0.016640798753435604,-0.00977,0.00244,0.00367,-0.42,-11.88,-22.44
53.0838,67217.2449,-0.4704155357452747,0.6644732967542023,-0.008652623948686156,-0.00183,0.03604,0.01038,-0.72,-12.24,-22.8
53.1028,67217.265,-0.4403254629410855,0.6692346390691218,0.0034708515810439877,-0.00367,0.02382,0.04093,-0.96,-12.3,-22.32
53.1228,67217.2849,-0.42345468631548455,0.6620901301900275,0.01823950225840676,0.02871,-0.0171,0.05131,-0.78,-12.18,-22.08
53.1541,67217.305,-0.41392742875367455,0.6526071814694792,0.03412656716125184,0.02199,-0.0171,-0.011,-0.78,-12.18,-22.02
53.1681,67217.326,-0.4092260179786105,0.6443499358632205,0.05004430614993716,-0.05925,0.0336,-0.04459,0.0,-12.0,-22.26
53.1874,67217.346,-0.40322686068111935,0.6441612980849873,0.06469451786862379,-0.09652,0.06842,-0.00977,0.24,-12.24,-22.56
53.205,67217.366,-0.3980587638491981,0.6432968069445402,0.07720251352577456,-0.04276,0.02627,0.03482,0.24,-12.3,-22.44
53.2258,67217.386,-0.3932112815849681,0.6389953902364658,0.08664352167553702,0.04948,-0.02505,0.03726,0.12,-12.12,-22.62
53.2555,67217.4069,-0.3902567712035968,0.6292752239425952,0.092740577799443,0.06597,-0.01833,0.01772,-0.06,-12.3,-22.32
53.2668,67217.427,-0.3828817334598312,0.6290481721250132,0.09510163262916116,0.00611,0.02321,0.00733,0.3,-12.06,-22.44
53.286,67217.447,-0.3803180567845283,0.6303237068526103,0.09406828440455861,-0.04948,0.01161,-0.01038,0.06,-12.12,-22.14
53.3064,67217.4669,-0.3847430535876084,0.6289267555588961,0.08932756795205421,-0.05559,-0.00183,-0.02932,0.18,-12.54,-22.02
53.3257,67217.487,-0.39720863922875543,0.6203353719658482,0.08021502706019845,-0.0171,0.01283,-0.02443,0.0,-12.78,-21.42
53.346,67217.507,-0.41424131061312824,0.6096026244728462,0.06613204344067114,0.04459,0.00916,-0.00672,-0.24,-12.84,-21.42
53.3735,67217.5268,-0.43256310155666744,0.6036389331637065,0.04757171301385199,0.05925,-0.00122,0.00916,-0.42,-12.54,-21.66
53.3873,67217.547,-0.44298236372542626,0.617648904831373,0.025843634451531372,0.02443,-0.00244,0.03482,-0.3,-12.36,-21.6
53.4112,67217.567,-0.4467976508494592,0.6429460003189537,0.00357629067240417,-0.03543,0.011,0.00428,0.0,-12.12,-22.02
53.427,67217.588,-0.4495466878535612,0.6681847773103893,-0.01675353186145756,-0.03726,0.02688,-0.04826,-0.06,-12.12,-22.5
53.4503,67217.6079,-0.45283648010181143,0.686548539290343,-0.03292016029423017,0.0171,0.02199,-0.03971,0.18,-11.94,-22.62
53.4679,67217.628,-0.4639368317667216,0.6927604675698754,-0.04322549477716464,0.02505,0.0,-0.00489,0.3,-11.88,-22.44
53.489,67217.648,-0.4770789356464157,0.687084013699503,-0.046084963887118136,0.0055,-0.00611,0.04154,0.0,-12.12,-22.14
53.5096,67217.6679,-0.4825202979245382,0.675806096272744,-0.04056760422792571,0.02077,-0.0055,0.03604,0.12,-11.94,-21.66
53.5285,67217.688,-0.4739796082191494,0.6648634198839579,-0.026407802603840125,0.01222,0.00183,-0.00855,0.0,-11.94,-21.42
53.5484,67217.708,-0.4528519582036283,0.6582097067561297,-0.00453479434762194,-0.04887,0.00855,-0.02321,0.0,-12.06,-21.72
53.5681,67217.728,-0.42510632747967686,0.6547997690646306,0.022713283878823987,-0.07453,-0.03176,0.0171,0.06,-11.7,-21.84
53.588,67217.748,-0.39691285419971667,0.6532658462637435,0.051396707423300825,0.00244,-0.03421,0.04337,0.0,-12.12,-21.96
53.6093,67217.768,-0.37360101729846296,0.6557343750787251,0.07652219911273583,0.08552,-0.0281,0.03543,0.48,-12.12,-22.02
53.6305,67217.789,-0.3580486659058599,0.6682738951825852,0.09326228499679523,0.04887,-0.01833,0.02443,0.3,-11.82,-21.9
53.6501,67217.81,-0.3534633118503654,0.6897465003627037,0.09861324636920976,-0.04948,-0.0055,0.01772,0.24,-11.82,-22.14
53.6794,67217.83,-0.3605240091589436,0.714318612680393,0.09214023767038704,-0.08674,-0.02993,-0.01833,0.3,-11.58,-21.84
53.7021,67217.8499,-0.3852278285103454,0.7180037851119871,0.07723283983081153,-0.02505,-0.00244,-0.07147,0.0,-11.94,-22.02
53.7098,67217.87,-0.4312676572112007,0.7023088344747372,0.05787816364406417,0.02382,0.02505,-0.06353,0.0,-12.3,-22.26
53.7299,67217.8908,-0.48083016660002187,0.673451970223186,0.03953879928911874,0.02932,0.00855,0.00611,-0.06,-12.3,-22.08
53.7581,67217.911,-0.5265319630747107,0.6480269412465706,0.025552579413766097,0.01772,-0.03726,0.01588,0.24,-12.36,-22.44
53.7791,67217.9309,-0.5532568730980659,0.6388016325103533,0.01727117652402299,-0.02871,-0.011,-0.01527,0.24,-12.36,-22.32
53.8034,67217.951,-0.5542316881447492,0.646170050395599,0.013512791530931878,-0.08002,0.00855,-0.03665,0.72,-12.42,-22.2
53.8114,67217.971,-0.5378094321323881,0.654827873350702,0.01198681746874719,-0.04704,0.02321,-0.01894,0.72,-12.06,-22.02
53.8321,67217.991,-0.504974808674408,0.6672725458230903,0.010905671994400734,0.05192,-0.011,0.00855,0.54,-12.24,-22.02
53.85,67218.011,-0.46529750687718896,0.6867330174181215,0.010340814743507565,0.1295,-0.02932,0.0281,0.3,-11.82,-22.32
53.8755,67218.031,-0.42871636106873784,0.7111678325566599,0.011830031551331999,0.06536,-0.02627,0.02627,0.0,-11.52,-22.44
53.8921,67218.051,-0.3941227537395613,0.7406091534767408,0.015818103099817904,-0.07208,-0.00367,0.03176,0.24,-11.88,-22.32
53.9123,67218.071,-0.37277228758305914,0.7611722527381336,0.020560681123034996,-0.08919,0.0,-0.00367,0.12,-11.58,-22.44
53.9466,67218.0919,-0.3666829318537525,0.7644189551837531,0.02289407184750658,0.00183,0.00122,-0.03665,0.12,-11.76,-22.02
53.9619,67218.112,-0.38598864232849983,0.7516655396994287,0.019669372242603345,0.05376,0.00122,-0.02749,-0.06,-11.94,-22.02
53.9728,67218.132,-0.4181943251295519,0.7430042034137503,0.010103825101667852,0.02321,-0.01833,0.00305,-0.18,-12.18,-22.38
53.9997,67218.1519,-0.4559657859522403,0.7461202244747657,-0.002800886542072334,-0.00367,-0.04581,0.01649,-0.24,-12.24,-22.2
54.017,67218.1729,-0.4858255320368413,0.7598769035622696,-0.013657065572363791,-0.03604,-0.01955,-0.00122,-0.3,-11.94,-22.02
54.038,67218.1939,-0.5085058834994274,0.772115756242567,-0.017310813241676826,-0.04581,0.0171,-0.00489,0.0,-11.76,-21.42
54.0521,67218.214,-0.5302160848062256,0.7681016340694241,-0.010493777928292758,0.00061,0.00733,-0.00794,-0.12,-11.64,-21.24
54.0718,67218.234,-0.5563223307705996,0.7447246135210107,0.006453998888019896,0.05498,-0.02016,0.00367,-0.12,-11.52,-21.48
54.092,67218.254,-0.5859231344211285,0.7108336176589539,0.02948400842409349,0.03299,-0.05253,0.01527,-0.06,-11.88,-21.66
54.1131,67218.274,-0.6124080508179659,0.6760078883778377,0.05232133137772266,-0.07086,-0.00611,0.00367,-0.12,-12.3,-22.32
54.1327,67218.294,-0.6301006384371043,0.6432292845499309,0.0683832236574915,-0.10018,0.04581,-0.0226,-0.18,-12.3,-22.8
54.1529,67218.314,-0.6362209252484292,0.6183450834298435,0.07273506006444741,-0.0055,0.01833,-0.03421,-0.3,-12.48,-22.62
54.1746,67218.334,-0.629897759346457,0.6115703495378996,0.06464356499210488,0.06781,-0.01222,0.01588,-0.3,-12.84,-22.56
54.2025,67218.3548,-0.6124588007520665,0.6322515861432402,0.048403198502395384,0.06475,0.00428,0.05131,-0.06,-12.54,-22.32
54.2147,67218.375,-0.5709315468643958,0.6896750716493196,0.031862573272425365,0.01894,0.0055,0.06353,-0.18,-12.36,-22.02
54.2341,67218.395,-0.5225336658817159,0.7573580299946404,0.02239120567040942,0.011,-0.00305,0.07147,0.12,-12.36,-22.02
54.2566,67218.4149,-0.4733999615693163,0.811719840107858,0.02459078405872539,0.04765,-0.0171,0.05559,0.42,-12.12,-22.26
54.2753,67218.435,-0.432334915728172,0.8410197077082016,0.03785748700709135,0.10446,0.02505,0.02505,0.0,-12.06,-22.56
54.2948,67218.455,-0.4096203074708992,0.8417837737113499,0.05751448403747794,0.05559,0.03604,0.0281,0.3,-12.12,-22.44
54.3175,67218.4749,-0.4062942008079775,0.8223050510855505,0.07652925045165304,-0.04032,-0.00183,0.04398,0.12,-12.24,-22.14
54.3354,67218.495,-0.4150761683726927,0.7877371351042591,0.08833302564249479,-0.07147,-0.00489,0.01038,-0.06,-12.0,-22.14
54.3603,67218.515,-0.4274425334686621,0.7502456180717183,0.08737774603720005,-0.03971,0.02566,-0.00855,0.12,-12.0,-21.84
54.3762,67218.5349,-0.44010765178003863,0.7142447054877297,0.07175364202349321,0.01527,0.02566,-0.02382,0.24,-11.7,-21.96
54.3961,67218.555,-0.44754103357593555,0.6940220522235152,0.043236426563153074,0.04826,-0.00916,0.01038,0.6,-11.7,-22.38
54.4166,67218.575,-0.4465840824657061,0.6987018221465244,0.007705514468257846,0.06109,-0.03543,0.03421,0.48,-11.76,-22.08
54.4376,67218.596,-0.43488455561826017,0.7272296478135257,-0.02672784638092196,0.02077,0.01649,0.04093,0.66,-12.06,-21.9
54.4687,67218.6159,-0.4164420279856772,0.7687908164701105,-0.0525592819801588,-0.02077,0.0171,0.01833,0.9,-12.48,-21.84
54.4777,67218.636,-0.3987628429765361,0.7995763997448503,-0.0639622216996294,-0.02688,-0.02871,-0.02382,0.66,-12.66,-21.72
54.5017,67218.657,-0.39396448484234536,0.8132443333099061,-0.05979975081931599,0.02749,-0.05803,-0.01405,0.84,-12.6,-21.6
54.5241,67218.677,-0.403377250736642,0.8131650939846234,-0.04264815925128573,0.0617,-0.04093,0.04826,0.72,-12.78,-21.78
54.5386,67218.697,-0.41899407565068325,0.8158872817209759,-0.018700701556456423,0.06231,0.01344,0.0733,0.12,-12.54,-21.78
54.5592,67218.7169,-0.44195135950305997,0.8261788177636922,0.004726270997386095,-0.02627,0.02566,0.00367,0.3,-12.42,-21.54
54.5771,67218.7379,-0.4691632434359338,0.8388843382319402,0.021423892634242492,-0.10934,-0.02199,-0.02871,-0.12,-12.42,-21.66
54.598,67218.758,-0.5017504384529061,0.843168242999464,0.02789209148925309,-0.0617,-0.011,-0.00977,0.0,-12.06,-21.66
54.6195,67218.778,-0.5403464651136506,0.8268396253353045,0.025056688955897854,0.05681,0.03115,0.00794,-0.3,-12.42,-21.72
54.6392,67218.7979,-0.5796595592058853,0.7961036328098128,0.017097858303346314,0.09591,0.01405,-0.00183,-0.36,-12.42,-22.02
54.6595,67218.818,-0.6109136780010623,0.7615227045973288,0.010586167345856268,0.02505,-0.01038,0.0171,0.18,-12.72,-22.32
54.6802,67218.838,-0.6263240476020273,0.7294210137356559,0.011391691899209633,-0.07514,-0.01466,0.00977,0.24,-12.72,-22.26
54.7056,67218.859,-0.623411046160326,0.700309723699733,0.021525679870572745,-0.10263,0.01283,-0.00794,0.72,-12.6,-22.32
54.7283,67218.8789,-0.6080620194258274,0.6668055228657795,0.03866128299068983,-0.02016,0.02077,-0.01466,1.02,-12.24,-22.02
54.7395,67218.8989,-0.5787532477046108,0.6475551173494457,0.05700353042569617,0.06536,-0.00305,0.03726,1.14,-12.18,-21.84
54.765,67218.919,-0.5457987900675292,0.6516265524554987,0.07141827455688343,0.07758,-0.04459,0.08125,0.84,-12.18,-22.14
54.7783,67218.939,-0.495377073909936,0.6952002440980745,0.07955360265132683,-0.01772,0.01772,0.0733,0.78,-12.06,-21.96
54.7993,67218.959,-0.4421976870627649,0.7632276514884416,0.08114121294998,-0.06475,0.10263,0.01894,0.54,-12.48,-22.14
54.8181,67218.979,-0.3983808399714467,0.828452336832855,0.0783187498757929,-0.04154,0.07941,0.00672,0.0,-12.48,-22.26
54.8376,67218.999,-0.3745018388982525,0.8723940226989301,0.07318455784543154,0.03726,-0.03238,0.04215,0.3,-12.42,-22.08
54.8576,67219.0189,-0.37072623503292523,0.890204186483519,0.06640124962049931,0.06842,-0.04765,0.05681,0.12,-12.6,-22.14
54.8818,67219.039,-0.38144738225807634,0.8864340634791186,0.05688700385227996,0.00244,0.04826,0.02688,0.24,-12.3,-22.2
54.9095,67219.059,-0.401061884022305,0.8682392182449478,0.04306580975486618,-0.03726,0.05192,-0.0281,0.3,-12.36,-22.02
54.9202,67219.0789,-0.4382849356672529,0.8327278279887242,0.02464381681133787,-0.01344,-0.00122,-0.03421,0.54,-12.36,-22.32
54.938,67219.099,-0.4849526029085725,0.7892120774135354,0.0026315648806001235,0.00367,-0.0281,-0.00183,0.84,-12.18,-22.08
54.9599,67219.119,-0.5346757843697947,0.7456991004954433,-0.020162131558857155,0.02566,0.01527,0.011,0.6,-12.42,-22.14
54.9905,67219.1389,-0.5750857438556221,0.713379412032018,-0.039834037628157404,0.01527,0.03665,0.01527,0.54,-12.24,-22.08
55.0028,67219.159,-0.5939110925598583,0.7026617416193752,-0.05246583019365758,-0.00794,0.011,0.00916,-0.06,-12.42,-22.08
55.0193,67219.179,-0.5878383281597735,0.7120398492638832,-0.05508691254256526,-0.01283,0.01344,0.01527,-0.06,-12.36,-22.44
55.0463,67219.1989,-0.5604931316845839,0.7370913660877458,-0.04692160662060019,0.00428,0.03299,0.04276,-0.06,-12.06,-22.26
55.066,67219.219,-0.5141976436520268,0.7701688536623305,-0.028933752083379005,0.02932,0.02138,0.06475,0.18,-12.18,-22.44
55.0781,67219.239,-0.45275578469721417,0.8064504325540531,-0.004335341627090372,0.02932,-0.00916,0.07086,0.24,-11.94,-22.32
55.099,67219.2589,-0.39566811935619284,0.8348848871035002,0.021916961944405955,0.03054,-0.02321,0.06048,-0.06,-11.94,-22.02
55.1171,67219.279,-0.3462664805155952,0.8548326981917949,0.04408040442646488,0.01588,-0.02199,0.02382,-0.3,-12.0,-22.26
55.137,67219.299,-0.3171207981196268,0.8643558666464356,0.056546670125870335,-0.011,0.01222,-0.011,-0.12,-11.88,-22.5
55.1602,67219.3189,-0.31510238846243965,0.8647660077744715,0.05540429225602317,-0.01649,0.01772,-0.01833,0.24,-12.06,-22.44
55.1805,67219.339,-0.34084413016561826,0.8546563086860267,0.03998904535740522,-0.03665,-0.00672,-0.00244,0.78,-12.36,-22.68
55.2016,67219.36,-0.38514634137132037,0.8370142784289925,0.0131543220594601,-0.01527,-0.04093,-0.01283,0.96,-12.54,-22.32
55.2299,67219.38,-0.43397010196142505,0.8162243777704332,-0.018430744016875167,0.04459,0.00367,-0.06109,0.42,-12.48,-21.96
55.2509,67219.4,-0.48026853623977184,0.8040659508806729,-0.046556802514295725,0.02016,0.0055,-0.04704,0.6,-12.36,-21.72
55.2609,67219.4199,-0.517162863274004,0.7990104111585353,-0.06240934635243178,-0.03421,-0.00367,0.00183,0.3,-12.36,-21.6
55.2792,67219.44,-0.5363064049860522,0.7999275724500847,-0.060708065233869846,-0.06109,0.00428,0.011,0.42,-12.42,-21.9
55.3001,67219.46,-0.5396978202063154,0.7972239901483232,-0.041194551376428024,-0.03176,0.00061,-0.01222,0.6,-12.54,-21.96
55.3208,67219.481,-0.5309971836100319,0.78689823854558,-0.00876714141253565,0.01466,-0.04276,-0.00916,0.48,-12.72,-22.08
55.3411,67219.5009,-0.5155743380535792,0.7759839488921364,0.028074563530111618,0.02688,-0.03604,0.01955,0.42,-12.3,-22.02
55.36,67219.521,-0.4995344253836205,0.7736095694588518,0.06020850330989269,-0.01344,-0.0281,0.00428,0.24,-11.94,-22.08
55.3832,67219.541,-0.48938064268921205,0.7838671921968814,0.08014569255989201,-0.06658,-0.00794,-0.02627,0.36,-12.18,-22.32
55.4027,67219.5609,-0.4894637431597836,0.7960314881757056,0.08418826124247403,-0.05437,-0.03176,-0.01894,0.3,-12.3,-22.32
55.4232,67219.5819,-0.499704703061953,0.8043129212315256,0.07208950758630372,0.01405,-0.02627,0.02443,0.36,-12.66,-22.32
55.4429,67219.602,-0.5152805443690225,0.8085773523908412,0.047625048702579775,0.07025,-0.02443,-0.00061,0.6,-12.96,-21.96
55.4624,67219.6219,-0.5307049523336037,0.8142212929640705,0.01782885102701215,0.06048,0.00611,-0.02382,0.78,-12.9,-22.08
55.4896,67219.6419,-0.5413612122047319,0.8241791052930958,-0.008639436340070361,-0.02993,0.00611,-0.01894,0.72,-12.48,-22.02
55.5086,67219.662,-0.5460507443487809,0.831119933217202,-0.024062397364318144,-0.06781,-0.01283,0.00977,0.54,-12.3,-22.02
55.5259,67219.682,-0.5419051039797776,0.8292933384911993,-0.024670136109381957,-0.04459,-0.0226,-0.01283,0.36,-11.94,-22.44
55.5521,67219.702,-0.5277101249226429,0.8224582178011228,-0.011918258931601144,0.00794,-0.01649,-0.03299,0.24,-11.7,-21.84
55.5627,67219.723,-0.506019364885153,0.8199162757484568,0.008981495556373176,0.02871,-0.00855,-0.00794,0.06,-11.7,-21.6
55.5821,67219.7429,-0.4818916217180198,0.8298574023448074,0.03146811248358894,-0.0226,-0.02077,0.0226,0.12,-11.94,-21.66
55.6021,67219.763,-0.46009898601303373,0.8528163747735413,0.04984862528809764,-0.04887,0.00733,0.02932,0.6,-12.3,-21.54
55.6224,67219.783,-0.4457967575898644,0.8792704401050411,0.06083493573542853,-0.01466,-0.00672,-0.01222,0.6,-12.66,-21.54
55.6447,67219.8029,-0.44349956377096955,0.8984076846118435,0.0639608261683513,-0.01833,-0.04765,-0.03482,0.78,-12.72,-22.02
55.6635,67219.823,-0.4566186750574679,0.9025678620743833,0.06138671107115279,-0.02749,-0.05253,-0.04337,0.6,-12.66,-22.38
55.6825,67219.843,-0.4833318044854653,0.8912683545113229,0.05665691107439841,-0.02505,-0.00977,-0.02627,0.06,-12.66,-22.5
55.7027,67219.8629,-0.5180520597962502,0.8671847893306536,0.05325133411884231,-0.0281,-0.02993,-0.02199,0.0,-12.78,-22.86
55.7231,67219.883,-0.5532048836625151,0.8347830152317146,0.05305390078958183,-0.04887,-0.03299,-0.02016,0.0,-12.96,-22.68
55.7434,67219.903,-0.5813691998354674,0.8006527457903746,0.05550754398110058,-0.05559,-0.05925,-0.04032,0.54,-12.72,-22.44
55.7674,67219.9229,-0.5973009622123796,0.774251001735089,0.05790237729003245,-0.02749,-0.08186,-0.04704,0.84,-12.6,-22.14
55.7912,67219.943,-0.5998734316542393,0.7612544968783902,0.05713451099320288,-0.00428,-0.04337,-0.02016,0.84,-12.48,-21.72
55.8039,67219.963,-0.5916595843077097,0.7636054894408069,0.051171567277476626,-0.01527,-0.01772,-0.00672,0.72,-12.24,-21.66
55.8222,67219.9829,-0.5796226591867213,0.7782576015646939,0.03988828431002567,-0.00794,0.00061,0.00916,0.42,-12.24,-21.78
55.8447,67220.003,-0.5717909408594763,0.7949876277947657,0.025217901432165846,0.01894,0.00367,0.01772,-0.24,-11.88,-21.54
55.8634,67220.024,-0.5726127536263393,0.8049240232060179,0.009910010935556102,0.0171,-0.02443,0.00672,-0.48,-11.64,-22.14
55.8902,67220.044,-0.5841518447967544,0.8024163216606192,-0.0034771982366148535,0.00122,-0.00428,-0.00061,-0.78,-11.88,-22.14
55.9034,67220.0639,-0.6020524810479697,0.790108716097347,-0.013075427698268527,-0.01222,-0.01038,-0.01772,-0.84,-11.94,-21.66
55.925,67220.085,-0.6171633018814813,0.7759544705226554,-0.017578846489049837,0.00122,-0.00061,-0.00611,-0.54,-12.54,-22.32
55.9456,67220.1058,-0.6181735581730997,0.7710711653132226,-0.016336636707187324,0.00672,0.0171,0.03665,-0.36,-12.54,-22.08
55.9726,67220.1259,-0.5974060930011208,0.784224573999955,-0.009591064429116614,0.0,0.04887,0.04215,-0.12,-12.42,-22.08
55.9948,67220.146,-0.552918675690384,0.8165965047966438,0.001475746707686909,-0.00122,0.04765,0.04093,0.0,-12.66,-22.44
56.0061,67220.1659,-0.48861937182531756,0.8649111217450154,0.014363255111653928,0.00977,0.0,0.04643,0.24,-12.54,-22.14
56.0438,67220.1859,-0.4340033194427273,0.9128782887738057,0.025451076445666132,0.05498,0.00183,0.06475,0.48,-12.48,-22.38
56.0556,67220.206,-0.381662162045811,0.959265346020534,0.03141200715517911,0.01222,-0.00977,0.04154,0.42,-12.6,-22.56
56.0764,67220.226,-0.35825288960379087,0.989115697204506,0.029868719131034283,-0.04093,0.05742,0.00672,0.12,-12.48,-22.32
56.085,67220.2459,-0.37286819182288766,0.9922628603585312,0.021567014401201234,-0.03054,0.02871,-0.01588,-0.18,-12.3,-22.2
56.104,67220.266,-0.41874415991442315,0.9752588048423051,0.009081827044168378,-0.0171,-0.03115,-0.03543,-0.06,-12.48,-22.02
56.1243,67220.286,-0.4855619626405824,0.9434360277239676,-0.002944499802946865,-0.02505,-0.02321,-0.05559,-0.24,-12.42,-22.02
56.1441,67220.3059,-0.555015619985961,0.9067327144322884,-0.00999607235145028,-0.03971,-0.01038,-0.03604,0.36,-12.24,-22.2
56.1645,67220.326,-0.6085040793740554,0.8734292786139397,-0.008792059256277795,-0.01161,0.0055,-0.01649,0.54,-12.54,-22.2
56.186,67220.346,-0.63407663430361,0.8479364681707032,0.0018585965268194116,0.01161,-0.00367,0.00367,0.12,-12.18,-21.84
56.206,67220.366,-0.6283078760646786,0.8322602879747357,0.020571963464547594,0.01894,-0.00733,0.01344,0.0,-12.48,-21.72
56.2254,67220.386,-0.5974189138516555,0.8250660205681725,0.04341323190181434,-0.0226,0.01466,0.02627,0.0,-12.6,-21.84
56.2571,67220.406,-0.5549609852284826,0.8278136809064957,0.06412664860742012,-0.0672,0.04154,0.01772,-0.06,-12.24,-21.9
56.2693,67220.426,-0.5165973773081168,0.8230129913138808,0.07777392586609722,-0.02993,-0.02016,-0.01955,0.06,-12.66,-22.14
56.2865,67220.447,-0.4911994009107776,0.8212000863962743,0.07922550919013815,-0.0171,-0.03848,-0.02749,0.6,-12.36,-22.08
56.3081,67220.4669,-0.4791586907373329,0.8230737513413177,0.06785873283654276,-0.00367,-0.01955,-0.01772,0.24,-12.36,-22.32
56.3297,67220.487,-0.4758214116060926,0.832105045815965,0.046661246937301115,0.00977,0.02566,-0.01038,0.54,-12.3,-22.08
56.3467,67220.507,-0.47821861102046087,0.8529722854109195,0.02095768933341624,0.04704,0.06475,-0.01527,0.48,-12.3,-22.08
56.3678,67220.528,-0.482142566098053,0.8823485353424594,-0.0028405832441364964,0.02138,0.02932,-0.01283,0.3,-12.18,-21.72
56.3941,67220.5479,-0.4873578717109093,0.9160288638459699,-0.02029140910322269,-0.03115,-0.04215,-0.00489,0.24,-12.18,-21.6
56.4087,67220.5689,-0.48955540545979354,0.942542052508305,-0.02886609275526908,-0.04337,-0.05742,-0.00122,0.06,-12.12,-21.72
56.4282,67220.589,-0.4892075814007501,0.9589624208607338,-0.029048412013517932,0.02077,-0.01649,-0.02321,0.06,-11.82,-21.72
56.4495,67220.609,-0.4904491267480841,0.9639268565281074,-0.02204504314221367,0.02627,0.05925,-0.03421,-0.06,-12.12,-22.44
56.4707,67220.6289,-0.5020782062156144,0.959236833957427,-0.009129894599798405,-0.01833,0.04581,-0.00305,0.42,-12.0,-22.38
56.488,67220.649,-0.5278244218370779,0.9436418041625063,0.008861755880495537,-0.04459,-0.01466,0.00733,0.42,-12.3,-22.56
56.5082,67220.6689,-0.5622939191477557,0.9180463638764201,0.030169612898482967,-0.03543,-0.06658,-0.01038,1.02,-12.54,-22.56
56.5316,67220.689,-0.594691608912797,0.8856578227175498,0.051751944826463614,-0.01588,-0.04581,-0.04581,1.32,-12.36,-22.2
56.5492,67220.71,-0.6198054573299139,0.8516471641971384,0.0695631871009077,-0.0171,0.03115,-0.04704,0.9,-12.3,-22.08
56.5711,67220.7299,-0.6322513330564551,0.8271012576465058,0.07970710622720034,-0.0171,0.02993,-0.02443,0.72,-12.3,-21.96
56.5923,67220.75,-0.6337087083717101,0.8200565614200209,0.07947081414103607,0.00855,-0.02199,-0.00916,0.24,-12.18,-21.9
56.6114,67220.77,-0.6207120370010502,0.8357704584026076,0.06807469108611919,0.0391,-0.05864,0.00977,0.06,-12.48,-21.9
56.6325,67220.7899,-0.5926819799168126,0.8719594168462415,0.04633680648385052,0.00183,-0.0281,0.01466,0.0,-12.72,-21.72
56.6544,67220.81,-0.5550691886848588,0.9175690093140675,0.01677683971661459,-0.04337,0.02993,0.01283,-0.12,-12.84,-21.54
56.692,67220.83,-0.5200669818340008,0.9551976250854656,-0.015972223831347776,-0.01283,0.06903,0.00367,-0.24,-13.02,-21.42
56.6937,67220.8499,-0.5042895095114175,0.981313219140631,-0.04691406021471778,0.05192,0.02505,0.00305,-0.54,-12.24,-21.36
56.7118,67220.87,-0.508603889789477,0.9842250421106215,-0.06886628620317303,0.03787,-0.04093,0.01222,-0.66,-12.12,-21.36
56.73,67220.89,-0.5244006519741259,0.9736140452116165,-0.0777656125687134,-0.03299,-0.03787,0.01161,-0.84,-11.88,-21.36
56.7526,67220.9099,-0.540860021836945,0.9568821318449166,-0.07205394769530038,-0.09041,0.03176,-0.02688,-0.66,-11.58,-21.36
56.773,67220.93,-0.5559548103700971,0.9325354485202841,-0.05283499954239268,-0.06414,0.04704,-0.03543,-0.54,-11.82,-21.48
56.7919,67220.951,-0.5688610921111881,0.9069054104242549,-0.024281137985820322,-0.00672,-0.01833,-0.01344,-0.3,-11.7,-21.54
56.8107,67220.971,-0.5754140695818987,0.8908417891250814,0.008353836670089265,0.04215,-0.08247,0.0391,-0.24,-11.7,-21.84
56.8358,67220.991,-0.5718773924943061,0.8918522739231326,0.040314231424996905,0.01588,-0.04276,0.03238,-0.3,-11.82,-21.72
56.8567,67221.011,-0.5550156655255368,0.9093069480442298,0.0682590914440997,-0.04398,0.05253,-0.0171,-0.18,-12.18,-21.84
56.8748,67221.031,-0.5381877920436781,0.9291722895410206,0.09009693446908962,-0.05376,0.07514,-0.04276,-0.24,-12.24,-21.84
56.8935,67221.051,-0.532794919795977,0.9392167361940338,0.10471743006910117,-0.01772,-0.02321,-0.02321,-0.12,-12.48,-21.84
56.9113,67221.071,-0.5428461326261397,0.9343569459519292,0.11124977863749841,0.01955,-0.0507,-0.00611,-0.24,-12.36,-22.32
56.9364,67221.091,-0.5622741488912504,0.9187320541489526,0.10853074626916914,0.00733,-0.01588,-0.01222,-0.3,-12.3,-22.44
56.954,67221.111,-0.5797774256633595,0.9013524398170223,0.09552273780508003,-0.02627,0.01405,-0.01344,-0.36,-12.24,-22.44
56.9759,67221.1309,-0.5878517072042586,0.8898076674096843,0.07221161836645607,-0.01038,0.0,-0.01955,-0.3,-12.12,-22.32
56.9904,67221.151,-0.587213972432421,0.8903610093794648,0.040057258616970515,0.03299,0.02199,-0.02993,-0.42,-11.94,-21.78
57.0197,67221.171,-0.5723564155852563,0.9057365689395946,0.003104086036161746,0.00122,0.03115,-0.01038,-0.6,-11.64,-21.48
57.0324,67221.1909,-0.5492061900493688,0.9348112506504669,-0.03391899752041816,-0.02443,0.00977,0.01649,-0.66,-11.76,-21.42
57.0499,67221.211,-0.520436823637389,0.9697531944403741,-0.06578762773800406,0.00977,-0.01344,0.02505,-0.96,-11.88,-21.6
57.0761,67221.231,-0.49571568853322934,1.000936107810284,-0.08880842927491805,0.02688,-0.00489,0.00183,-0.54,-12.24,-22.02
57.0919,67221.2509,-0.4830135484490756,1.0196290974111903,-0.100829374999158,0.00061,0.00428,-0.00305,-0.72,-12.42,-22.38
57.1097,67221.271,-0.49158738198403573,1.018321132223751,-0.10100592101713524,-0.02749,-0.02016,0.00916,-0.54,-12.36,-22.38
57.1326,67221.291,-0.5201427028020059,0.9954190100380976,-0.08911836642805326,-0.01894,-0.01466,-0.00244,-0.24,-12.06,-22.32
57.1524,67221.3109,-0.5606356340773399,0.9566917907409317,-0.06572323191239526,-0.00122,0.00244,-0.04948,-0.48,-11.7,-22.26
57.1722,67221.331,-0.6001276707409643,0.9155833617840023,-0.03283198509435614,-0.03176,0.01283,-0.05437,0.12,-12.3,-22.08
57.1921,67221.351,-0.6272040658435429,0.8848721954388094,0.005434290224037852,-0.08369,-0.00489,-0.01344,0.18,-12.9,-22.02
57.2151,67221.372,-0.6356602403318634,0.8725783500578975,0.04235964362126765,-0.07086,-0.02382,0.0,0.18,-13.02,-21.72
57.2336,67221.392,-0.6257286169596484,0.8753526172554122,0.07013607569608205,-0.00428,-0.00305,0.02138,0.48,-13.26,-21.84
57.252,67221.412,-0.604785531481694,0.8935046811226306,0.08101037061594418,0.03543,-0.02993,0.03299,0.3,-12.72,-21.78
57.2738,67221.4329,-0.5851267735768485,0.9218635717065984,0.07109655310984309,0.02199,-0.04215,0.03726,0.54,-11.88,-22.14
57.3002,67221.453,-0.575590013607205,0.9543632900016297,0.04252537567684911,0.00428,0.0,-0.00977,0.72,-12.06,-22.26
57.3181,67221.473,-0.5859436165813993,0.979488727505288,0.004045285740540194,-0.0281,0.03848,-0.03482,0.48,-11.76,-22.26
57.3335,67221.4929,-0.6168118283307695,0.9865413255590941,-0.03087579108794891,-0.0617,-0.00428,-0.02505,0.84,-12.06,-22.62
57.3539,67221.513,-0.6577036489858274,0.975627578550724,-0.0490276949890287,-0.02443,-0.02871,0.00244,0.42,-12.06,-22.32
57.3747,67221.533,-0.6950718002626497,0.9503007069091959,-0.04179537455972415,0.00794,-0.02382,0.02993,0.12,-12.12,-22.38
57.393,67221.5529,-0.7116539351692135,0.9213224208027827,-0.008528443178263956,-0.01161,-0.02138,0.05498,0.18,-12.06,-22.44
57.4142,67221.573,-0.7011796248574905,0.9001755442635148,0.0426435708784787,-0.0281,-0.03482,0.06597,0.18,-11.64,-22.02
57.4377,67221.593,-0.6620589688488228,0.8945733590730004,0.09789939337192344,-0.01283,-0.02443,0.05559,0.24,-11.88,-21.84
57.4557,67221.6129,-0.5990987253050372,0.9035920283927439,0.14216061576204808,-0.02138,-0.00916,0.04459,0.36,-11.64,-22.08
57.4785,67221.6329,-0.5305158131955869,0.9265806910827526,0.16257575155903936,-0.03299,0.01833,0.02993,0.6,-11.58,-21.84
57.4949,67221.653,-0.46605259079799793,0.9541539824467035,0.1542150572006875,-0.00489,-0.00916,0.04032,0.54,-11.88,-21.9
57.5139,67221.6729,-0.4184363531016654,0.9797197801114268,0.11939440909246635,0.0733,-0.05803,0.04398,0.66,-12.0,-22.14
57.5415,67221.693,-0.39339720898753266,0.9941673526986623,0.06732453480817924,0.07941,-0.03299,0.0171,0.6,-12.06,-21.78
57.5615,67221.713,-0.38814212502924117,1.0076817923817467,0.00884744554699779,0.04032,0.04032,-0.00977,0.3,-12.36,-21.96
57.5752,67221.7329,-0.40750560014267245,1.0153314773753206,-0.04434440826988428,0.00733,0.02382,-0.03176,0.12,-12.48,-22.08
57.5981,67221.7539,-0.44313495928815405,1.0156231118360002,-0.08374457886083597,-0.02077,-0.05131,-0.05864,0.12,-12.6,-22.2
57.6195,67221.774,-0.4905623708651899,1.0101470402185218,-0.10627619096126395,-0.01405,-0.05131,-0.05864,0.18,-12.84,-22.2
57.636,67221.7939,-0.5427109570985642,1.0030169441760457,-0.11358074489474745,-0.00061,0.03604,-0.04215,0.36,-13.14,-21.96
57.6581,67221.814,-0.5912306311728541,0.9976984925082195,-0.10981596332003285,0.02016,0.05376,-0.01466,0.18,-13.02,-21.96
57.6764,67221.835,-0.6365186269854687,0.9970049699617484,-0.10014747530583357,0.02749,-0.01649,-0.00061,-0.12,-12.96,-21.78
57.6967,67221.8549,-0.6764493469896629,0.9971449400645441,-0.08811618094445528,-0.01161,-0.07147,0.00061,0.0,-12.84,-22.32
57.7153,67221.875,-0.708454811359988,0.9927781756928111,-0.07551344234841828,-0.04032,-0.03176,-0.02443,-0.36,-12.54,-22.74
57.7355,67221.895,-0.7311082536925371,0.9812317044255808,-0.0625815184550298,-0.02138,0.02321,-0.02871,-0.3,-12.78,-22.62
57.7795,67221.9149,-0.7406653954372787,0.9688448349147234,-0.04848781109952682,-0.01833,0.01161,-0.01161,-0.24,-12.9,-22.92
57.7866,67221.935,-0.7407620101370198,0.9477934306098951,-0.030471586983297883,-0.03054,-0.01405,0.02138,-0.42,-12.78,-22.86
57.8011,67221.955,-0.724205407345252,0.9332917155898924,-0.007406784975723113,-0.00244,-0.01649,0.03726,-0.24,-12.66,-22.32
57.8156,67221.976,-0.6882129236407427,0.9289206144769336,0.021096014298432664,0.01038,-0.00244,0.02749,-0.06,-12.06,-22.44
57.8353,67221.9959,-0.6377858150244762,0.9362799585281846,0.05250106934490795,-0.02016,-0.01405,0.02871,0.24,-11.76,-22.26
57.855,67222.016,-0.5798090417425391,0.9507370158552955,0.08224632098859175,-0.04459,0.00672,0.04093,0.6,-11.7,-21.84
57.8793,67222.036,-0.5269501240103717,0.967337311550306,0.1042080798474263,0.01038,0.01527,0.0226,0.78,-11.7,-21.84
57.8977,67222.0559,-0.4886730074437089,0.9835141285120711,0.11287574414028434,0.01833,0.00611,0.00122,0.78,-12.06,-21.66
57.9151,67222.076,-0.4720050817372465,0.9995843212963748,0.10475265849104254,0.00061,0.00122,-0.00367,0.42,-12.18,-21.72
57.9383,67222.096,-0.4768087681933261,1.0155648035008944,0.07959266578087387,-0.02382,-0.00367,-0.01161,0.12,-12.48,-21.9
57.9707,67222.116,-0.4975216549266748,1.0290657768044564,0.04059984301890651,-0.02993,0.03543,-0.02138,0.3,-12.54,-21.84
57.9768,67222.136,-0.5443734733006722,1.0335455428062499,-0.006766463136631984,0.0055,0.02749,-0.0452,0.42,-12.42,-22.08
57.9961,67222.156,-0.5966378309826561,1.0313441700093242,-0.05450898355375955,0.02382,-0.0171,-0.03054,0.72,-12.24,-21.96
58.0192,67222.176,-0.649926024882418,1.0257334239970999,-0.0948776466548793,0.02077,-0.05559,-0.01955,0.6,-12.36,-21.78
58.0344,67222.196,-0.6915127509830373,1.0214471776339935,-0.12055414899440464,0.00428,-0.02199,0.00122,0.36,-12.72,-22.08
58.0585,67222.216,-0.7124098157908447,1.0186836330540148,-0.12599778692231922,-0.0391,0.03238,0.01833,0.06,-12.48,-21.84
58.0737,67222.236,-0.70993439353159,1.0110756878580147,-0.10838928055293806,-0.0391,0.04581,0.01527,0.06,-12.36,-21.84
58.0936,67222.2559,-0.6872405851669038,1.0012629310997758,-0.06985726714605,-0.02016,0.00305,0.00672,-0.12,-12.18,-21.9
58.1156,67222.276,-0.6527899338256016,0.9878861678262397,-0.01630086647813478,-0.0226,-0.03482,0.0391,-0.48,-11.76,-21.9
58.1399,67222.297,-0.6131098381190876,0.9731891833015999,0.042828531753599464,-0.00672,-0.05253,0.06781,-0.54,-12.36,-21.84
58.16,67222.317,-0.5652012281626861,0.9652569492856995,0.09639898450087081,0.03665,-0.05315,0.05498,-0.6,-12.54,-22.14
58.1769,67222.3369,-0.5157412021399828,0.9727361552494442,0.13359041630230983,0.03482,-0.00305,0.03971,-0.42,-12.48,-22.26
58.1971,67222.357,-0.47625479746867905,0.9986236544344954,0.147565902621686,-0.00672,0.01222,-0.00244,0.0,-12.48,-22.02
58.2178,67222.377,-0.45721127935123407,1.0382255721336742,0.1373645842009008,-0.04887,-0.00244,-0.02993,0.3,-12.36,-22.14
58.2374,67222.3969,-0.4652170240092239,1.079942722014166,0.10760534530609434,-0.011,-0.03176,0.00244,0.06,-12.54,-21.72
58.2569,67222.417,-0.4975215888993996,1.1147140996000655,0.06616182489976374,0.05986,-0.02993,0.0281,0.36,-12.66,-21.84
58.2807,67222.438,-0.5463099406739161,1.137161075566648,0.021794687531617285,0.05376,0.00305,0.01161,0.3,-12.48,-22.26
58.3052,67222.458,-0.602105383903429,1.1494484753575958,-0.018328779848994614,0.00428,0.03726,-0.02321,0.42,-12.42,-22.44
58.3227,67222.4779,-0.6626280875973555,1.1472598691210474,-0.048949311392368244,-0.03543,0.00305,-0.03054,0.6,-12.36,-22.74
58.3378,67222.498,-0.7207850191614128,1.1248206053637189,-0.06720998372194131,-0.03665,-0.03115,-0.02016,0.24,-12.24,-22.56
58.3572,67222.518,-0.7675629244256172,1.0839959482853472,-0.07343477119658282,0.01405,-0.05131,0.00916,-0.48,-12.78,-22.44
58.3797,67222.538,-0.7958844783525765,1.0310370432522524,-0.0697929964931312,0.04765,-0.0226,0.03726,-0.66,-12.6,-21.96
58.4033,67222.558,-0.7996575510996319,0.9834462035162844,-0.05973959278501262,0.06658,-0.0171,0.05559,-0.48,-12.42,-21.78
58.4201,67222.5789,-0.7732151683622176,0.9606943966896829,-0.04669017765606753,0.05253,-0.02138,0.05498,-0.18,-12.3,-21.78
58.4412,67222.599,-0.7282980448589323,0.964408571174887,-0.034226760778295784,-0.03421,0.00061,0.06353,0.42,-12.18,-21.72
58.4589,67222.619,-0.6701423010937752,0.9862923253654547,-0.025131782289044224,-0.05253,0.01894,0.04765,0.3,-12.3,-21.66
58.479,67222.6389,-0.6109417451927621,1.016203475345444,-0.02192514459245487,0.02016,0.03665,0.01405,0.12,-12.54,-21.78
58.4997,67222.659,-0.5602154723062076,1.0471734152788388,-0.025133034153306255,0.08369,0.03176,0.01894,-0.24,-12.48,-21.78
58.5223,67222.679,-0.5232152223481585,1.079095636204266,-0.033555564119636117,0.06536,-0.03543,0.0507,-0.18,-12.18,-21.66
58.5418,67222.6989,-0.4969626524296011,1.1136518053960502,-0.04498434253229533,-0.00061,-0.02382,0.0452,-0.06,-12.18,-21.84
58.5638,67222.719,-0.48152517984752796,1.142746443027055,-0.05689143143197839,-0.04887,0.01955,0.00244,-0.12,-11.94,-21.48
58.5866,67222.739,-0.47713131814823384,1.1559153966396707,-0.06718293255108243,-0.06292,0.02627,-0.02016,0.3,-12.18,-21.3
58.6077,67222.7589,-0.486624991177703,1.1475715059284435,-0.0744008263809448,-0.0171,-0.00611,-0.01038,0.3,-12.36,-21.66
58.6205,67222.7799,-0.5089367337196974,1.1243929730137496,-0.07758477480256154,0.01894,0.01161,0.00061,0.18,-12.18,-22.08
58.6394,67222.8,-0.5360249116019938,1.097482722902944,-0.07523202409155161,-0.01955,-0.02016,-0.00428,0.36,-12.24,-21.9
58.6608,67222.82,-0.5603997134805365,1.0751199004783978,-0.06587972142085086,-0.05803,-0.00367,-0.00733,0.18,-12.24,-22.02
58.6831,67222.84,-0.5753448438976791,1.0592032520705699,-0.04920616159699698,-0.04826,-0.02627,0.011,0.18,-12.42,-22.08
58.7023,67222.861,-0.5795407050922899,1.0461865997701951,-0.027211856651716104,-0.04581,0.00977,0.00977,0.24,-12.54,-21.78
58.7245,67222.882,-0.5771821144367539,1.0379276718428743,-0.004919334054996227,-0.0226,0.02871,0.00428,0.12,-12.78,-21.9
58.7412,67222.9019,-0.5752519012780714,1.0331220236801575,0.012155232665303828,-0.00733,0.01038,-0.00183,-0.36,-12.54,-21.84
58.7611,67222.922,-0.5791765171422633,1.0332525106467192,0.01925348238961888,0.00428,-0.07269,0.00428,-0.48,-12.54,-21.9
58.7814,67222.942,-0.5884491585172431,1.0389365419318943,0.014339629365249351,0.00428,-0.06781,-0.00244,-0.66,-12.66,-22.02
58.801,67222.9619,-0.6010165289657506,1.0500988756918863,-0.0014091536580380648,-0.01955,0.01588,-0.01894,-0.6,-12.36,-22.14
58.8232,67222.982,-0.6156497519549294,1.065574392612447,-0.02378646145062646,-0.0336,0.04765,-0.03115,-0.06,-11.94,-21.78
58.8466,67223.002,-0.6329405868776362,1.0802218276987767,-0.04638224598879148,-0.05131,-0.00122,-0.02627,0.12,-11.76,-21.6
58.8616,67223.0219,-0.6497492623097875,1.0875199557947626,-0.06219378420170685,-0.02077,-0.03971,-0.00367,0.24,-11.88,-21.48
58.8814,67223.0418,-0.657856017944078,1.0888983305702116,-0.0662193958429853,0.02871,-0.03115,-0.00061,0.42,-12.0,-21.6
58.901,67223.062,-0.6530650476437871,1.0867923351808513,-0.056525877776707034,0.02443,0.00733,0.00183,0.18,-12.48,-21.84
58.9226,67223.0819,-0.6390807049744684,1.0844893790069698,-0.035198289374170244,-0.02932,0.04276,0.00489,0.3,-12.06,-21.54
58.9431,67223.102,-0.6253596493368226,1.081664178573258,-0.007636345912068521,-0.0452,0.01833,-0.00183,0.06,-11.7,-21.54
58.9618,67223.122,-0.6191909611526281,1.0751464825973456,0.019052245986269867,-0.03971,-0.05315,-0.01222,0.0,-11.46,-21.36
58.9829,67223.143,-0.6219998951044707,1.0659604937044502,0.03788167833857514,-0.02688,-0.02871,-0.00672,0.3,-11.28,-21.48
59.0022,67223.163,-0.6332367976379837,1.0570907884711545,0.04479304325351485,0.01222,0.05131,-0.03238,0.0,-11.7,-21.48
59.0225,67223.1829,-0.6512628548007067,1.0548624659207437,0.03997021899337483,0.01527,0.06414,-0.0391,0.6,-11.94,-21.42
59.0415,67223.203,-0.6742779387249491,1.0632296622878596,0.027375454190600834,0.0,0.00244,-0.02932,0.48,-12.24,-21.66
59.0636,67223.224,-0.6937516346907544,1.0807213654409522,0.012687559792759373,-0.0507,-0.05315,-0.00122,0.06,-12.36,-21.84
59.0821,67223.2439,-0.6994540467097285,1.0985099976834807,0.0007570920771193812,-0.01344,-0.04337,0.00061,0.12,-12.48,-21.84
59.1018,67223.2639,-0.6868018907368166,1.1110415166402083,-0.0066710368119213825,-0.01955,0.05681,-0.00061,-0.3,-12.48,-21.84
59.1248,67223.2839,-0.6604092002148183,1.1149318060043694,-0.010176585597911014,0.00611,0.01161,-0.0171,-0.3,-12.66,-21.96
59.1456,67223.3039,-0.6306590821757796,1.1141755631155343,-0.011919090068149174,0.02688,-0.00061,0.00794,0.0,-12.66,-21.9
59.1639,67223.3239,-0.6044528664881212,1.1133025050245686,-0.013995382378215737,0.01344,-0.01955,0.02199,0.12,-13.02,-22.02
59.1871,67223.3439,-0.5854495324088964,1.1149135855072727,-0.01843980295731562,-0.04154,-0.01344,-0.011,0.12,-12.72,-21.9
59.2043,67223.3639,-0.5775647622983159,1.1124429094206594,-0.026295241372498168,-0.07697,-0.00794,-0.03238,0.06,-12.72,-22.02
59.2244,67223.3839,-0.5837059568603064,1.107154141725165,-0.03835277956934391,0.00122,0.02993,-0.02443,0.24,-12.42,-21.84
59.2454,67223.4039,-0.6065392799409327,1.101650667456437,-0.05343609307701058,0.05498,0.00367,-0.01344,0.06,-12.0,-22.26
59.2648,67223.4249,-0.6406133557220537,1.1024329195444902,-0.06823243482955199,0.00244,-0.02993,0.01161,0.06,-12.18,-22.26
59.2853,67223.4449,-0.6749512852847342,1.1101389153030907,-0.07742604842703571,-0.06536,-0.0336,0.01955,-0.06,-12.12,-21.9
59.3096,67223.4649,-0.6989536258110378,1.1201042127379317,-0.07564260027314873,-0.06048,0.011,-0.02138,-0.3,-12.48,-22.62
59.3326,67223.4849,-0.7108977355605847,1.1205932697529253,-0.05919615211149143,-0.04276,0.03054,-0.03482,0.0,-12.66,-22.08
59.3484,67223.5049,-0.7138393414344628,1.1081683157509528,-0.028635069367936694,-0.02566,-0.00122,-0.0055,0.06,-12.48,-22.44
59.3645,67223.5249,-0.7055864295581082,1.0917573535770033,0.010922593790128943,-0.00611,-0.05864,0.0336,0.12,-12.42,-22.5
59.3855,67223.5459,-0.6872898951737934,1.07994261348298,0.05086438786942615,0.01161,-0.06536,0.04032,0.36,-12.36,-21.66
59.4056,67223.5659,-0.655683388083108,1.0793600569421404,0.08130492202019823,-0.02566,-0.02443,0.01894,-0.06,-12.18,-21.66
59.4296,67223.5869,-0.617861265482032,1.0930079784009081,0.09301790760516582,-0.0281,-0.00183,-0.00977,0.12,-12.42,-21.54
59.453,67223.6079,-0.585498601980805,1.1177010596157333,0.08133960276165553,0.01161,-0.00244,-0.01038,0.3,-12.3,-21.66
59.4673,67223.6279,-0.5725425685461746,1.148073348626455,0.047866545060033516,0.00183,0.04643,-0.0055,0.12,-12.72,-22.32
59.4875,67223.6479,-0.5807266257303432,1.1751874635311201,0.0010861129118744373,0.00794,-0.02382,-0.011,0.24,-12.96,-22.5
59.5097,67223.6679,-0.6075241825583273,1.1901730754747353,-0.046889767778386826,0.011,-0.02138,-0.02566,0.24,-12.9,-22.44
59.5271,67223.6879,-0.6450925288911371,1.1889292652212193,-0.08399743004747506,0.01527,-0.00611,-0.01405,0.24,-13.02,-22.26
59.5472,67223.7079,-0.6835631295855624,1.171249921361904,-0.10119601619756757,-0.01161,-0.03115,-0.03238,0.54,-12.6,-21.78
59.567,67223.7279,-0.7152671629793822,1.141823859540463,-0.0948852718330695,-0.03299,-0.01955,-0.03482,0.42,-12.48,-22.08
59.5947,67223.7477,-0.7330825371601086,1.1095622328602692,-0.06752981705185945,-0.06475,-0.00183,-0.02138,0.54,-12.96,-21.78
59.611,67223.7678,-0.733269711235575,1.0730480787277408,-0.025609815966387117,-0.03421,-0.06353,0.01344,0.42,-12.9,-21.84
59.6271,67223.7879,-0.7167720627483621,1.0433978497603997,0.01956521274055767,0.03421,-0.0171,0.00733,0.12,-12.84,-21.9
59.6498,67223.8079,-0.6930199580081949,1.0255825252641098,0.05628883034880694,-0.00672,0.07025,0.0171,0.42,-13.08,-21.54
59.6727,67223.8279,-0.6721549628420004,1.0213554988938207,0.07495317992559158,-0.03115,-0.00855,0.02199,0.42,-12.54,-21.72
