AppTimestamp(s),SensorTimestamp(s),acc_x,acc_y,acc_z,gyro_x,gyro_y,gyro_z,mag_x,mag_y,mag_z,PitchX,RollY,YawZ,Quat_w,Quat_x,Quat_y,Quat_z
0.0646,85156.5475,-2.05422,7.34541,7.2688,-0.53512,-0.13439,-0.32498,14.22,-37.32,-16.8,47.788231,13.324556,137.778793,0.2832390913432022,0.04594598,0.41351652,0.86409992
0.0733,85156.5675,-1.84832,7.49864,7.17063,-0.33048,-0.23946,-0.3598,14.52,-37.14,-16.86,47.16349,13.419937,137.402359,0.2870666953479589,0.04454633,0.40907654,0.86502296
0.0797,85156.5875,-1.53229,7.12036,6.76841,-0.22846,-0.25045,-0.42638,14.64,-37.56,-17.1,46.737766,13.499057,136.881592,0.2916253021751088,0.04440336,0.40598738,0.86496085
0.086,85156.6075,-1.26893,6.71813,6.49307,-0.3091,-0.27122,-0.38301,14.4,-37.02,-17.34,46.359409,13.644622,136.295059,0.2963496039861875,0.04411907,0.403393,0.86458343
0.0915,85156.6275,-1.70946,6.87854,6.61997,-0.37018,-0.27611,-0.41844,14.64,-37.02,-17.58,45.896759,13.688119,135.826218,0.30073213022695394,0.04387995,0.39997622,0.86466974
0.115,85156.6486,-2.1045,6.65828,6.99107,-0.40195,-0.22358,-0.33842,14.7,-36.6,-17.88,45.341122,13.739751,135.349045,0.3053533137860141,0.04326244,0.39590758,0.8649537
0.1246,85156.6685,-2.03986,6.61997,7.47949,-0.38851,-0.09285,-0.30177,14.82,-35.94,-17.76,44.794559,13.779636,135.023514,0.30885390432756366,0.04221065,0.39193296,0.86557269
0.1511,85156.6885,-1.97043,6.4404,7.43878,-0.36652,0.05376,-0.24801,14.58,-35.82,-17.94,44.276047,13.937959,134.750366,0.3114982250423972,0.04015882,0.38850391,0.86626834
0.165,85156.7086,-1.88903,6.48589,7.54892,-0.27917,0.07575,-0.16677,15.0,-35.28,-18.3,43.791767,14.174416,134.603104,0.3128616921153271,0.03719071,0.38558474,0.86721325
0.1895,85156.7285,-1.57299,6.49068,6.4835,-0.07453,-0.16921,-0.11179,14.58,-34.8,-18.48,43.487907,14.321054,134.497147,0.31383090913469475,0.03537989,0.38374633,0.8677541
0.2048,85156.7485,-1.18513,6.76362,5.41568,-0.09713,-0.52718,-0.13806,14.82,-34.8,-18.78,43.397705,14.109291,134.418228,0.31533183982961466,0.03693314,0.38248488,0.86770219
0.2269,85156.7686,-1.06542,7.10838,5.38217,-0.26084,-0.686,-0.28527,15.0,-34.74,-18.84,43.264893,13.591645,134.253967,0.31858235316338973,0.04093625,0.38003188,0.86741298
0.2471,85156.7885,-1.2402,6.76841,5.39892,-0.52412,-0.90225,-0.45387,14.7,-34.68,-18.6,42.922768,13.03514,133.890869,0.3238870378115747,0.04515236,0.37584534,0.86706328
0.2744,85156.8085,-1.36469,6.1531,6.67982,-0.57788,-1.06779,-0.54245,15.12,-34.98,-18.54,42.267056,12.318807,133.397217,0.3313037152633009,0.04987997,0.36881188,0.86702228
0.2921,85156.8285,-1.12767,6.09564,8.38928,-0.46914,-1.05924,-0.58765,14.7,-34.68,-18.78,41.521721,11.506566,132.814163,0.3397990018947048,0.05525545,0.36071926,0.86681318
0.3044,85156.8485,-0.60573,6.1531,8.03255,-0.35003,-0.76419,-0.61758,14.88,-34.68,-19.32,40.915241,10.853347,132.16214,0.34795453144880734,0.06007567,0.35399139,0.8660304
0.3298,85156.8685,-0.03352,7.02459,5.41568,-0.61881,-0.68906,-0.87109,14.64,-34.8,-20.1,40.42395,10.535668,131.453156,0.35523136350947454,0.06288893,0.34903911,0.86488575
0.3574,85156.8885,-0.08859,6.94318,5.07331,-0.95173,-1.36712,-1.29015,14.46,-34.08,-20.58,39.651291,10.274989,130.443893,0.3651053691656735,0.06508855,0.34200308,0.86342078
0.3683,85156.9085,-0.94571,5.72454,7.50822,-0.70372,-2.1423,-1.56748,14.4,-33.54,-21.06,38.488888,9.49381,128.888855,0.3812765613260275,0.07121038,0.33003789,0.86059994
0.3847,85156.9285,-0.47405,4.8315,7.80749,-0.10018,-2.17285,-1.79167,13.68,-32.64,-21.42,37.594147,8.248622,126.946861,0.400963619918993,0.08261634,0.31795764,0.85516411
0.4041,85156.9485,-1.46765,3.91931,4.06775,-0.73854,-2.51127,-1.59986,13.68,-31.68,-21.6,37.280434,7.090985,124.615501,0.4220001931741895,0.09636712,0.30970329,0.84658909
0.424,85156.9685,-1.77889,1.42216,4.01986,-1.99081,-1.93522,-1.35368,13.56,-31.26,-22.14,35.837486,5.886412,122.664322,0.4419979765728945,0.10453662,0.29303399,0.84133285
0.444,85156.9885,-1.91776,0.44053,8.41323,-2.31212,-1.85703,-0.82345,13.5,-30.84,-23.16,33.042721,4.756716,121.284569,0.45932927732062023,0.10462112,0.26714388,0.84065759
0.4657,85157.0085,-1.69988,0.7829,9.97185,-1.83809,-1.68599,-0.46609,13.5,-29.76,-24.24,29.99139,3.457566,120.602928,0.47156605729633316,0.10282092,0.23909383,0.84254819
0.4852,85157.0285,-0.17478,1.30245,9.26795,-1.35001,-1.23089,-0.67867,13.38,-28.8,-25.38,27.531521,2.157897,120.183342,0.4803220265261063,0.1027721,0.21534614,0.84401107
0.5196,85157.0485,-0.79966,-0.76854,6.92164,-1.59741,-0.71777,-0.42699,12.96,-27.54,-27.0,25.357891,1.585551,119.505699,0.4887771562988765,0.09889116,0.19638835,0.84424466
0.5418,85157.0685,-0.27294,1.02232,9.29429,-2.16185,-0.08002,0.44288,12.72,-26.28,-28.02,22.781553,1.128774,119.456573,0.4924677911442281,0.09121539,0.17542882,0.84757298
0.5585,85157.0886,1.87705,3.68468,9.25838,-2.73912,1.19791,0.93707,12.0,-25.44,-28.86,19.974646,1.093192,120.496376,0.4872652384688297,0.07790306,0.1552247,0.85580897
0.5798,85157.1085,5.48272,3.78044,10.91517,-3.24247,1.58703,0.92424,11.52,-24.66,-29.7,16.64109,1.780062,122.199448,0.4761738449063008,0.05647274,0.13410176,0.86722893
0.5907,85157.1285,2.71742,3.1795,10.56561,-3.34937,1.49906,0.80634,11.1,-23.46,-30.3,13.082709,2.76105,123.840462,0.46507873438009373,0.03248864,0.11174839,0.87758678
0.6048,85157.1486,2.59771,3.55539,12.29662,-3.1991,0.70983,0.8265,10.92,-22.02,-30.42,9.525277,3.501938,125.49575,0.45385732361386794,0.01093138,0.08772068,0.8866787
0.629,85157.1685,2.12845,4.52504,18.48563,-2.03052,0.04581,0.67012,11.34,-20.64,-30.6,6.498098,3.386438,127.073524,0.44321367097761266,-0.00116418,0.06386165,0.89413756
0.6517,85157.1885,3.05261,5.43723,21.30121,0.19853,0.26084,0.2755,11.52,-18.9,-31.2,4.766168,3.395651,128.207764,0.4350632570424002,-0.0084782,0.05031773,0.89895284
0.666,85157.2086,1.77889,5.67426,18.8711,2.29074,0.04704,-0.41783,11.94,-18.06,-31.44,5.642379,3.694133,128.574509,0.4316791467604089,-0.00766193,0.05828958,0.90010929
0.6857,85157.2285,-1.10612,5.60961,15.6509,3.72689,-1.2987,-0.8039,12.54,-18.06,-31.74,8.662477,3.554911,128.019775,0.4346487159970904,0.00527815,0.08140566,0.89689785
0.7076,85157.2485,-2.54743,5.43484,13.80497,4.3799,-2.5412,-0.78435,13.02,-18.48,-31.68,13.116081,1.886519,127.031326,0.441292155014428,0.03628704,0.10950354,0.88991767
0.7282,85157.2695,-5.25527,3.82354,18.7466,4.29805,-1.94805,-0.39095,13.14,-19.74,-30.96,18.370958,-1.135904,126.148018,0.4484210763161115,0.08100816,0.13788757,0.87939936
0.7491,85157.2895,-3.76847,5.15711,9.46907,3.38908,-1.77273,0.06353,12.36,-21.24,-30.3,23.137951,-3.349832,126.002838,0.44977845581644366,0.11651745,0.16561569,0.86988187
0.7712,85157.3095,-3.21062,7.04614,7.18261,1.65972,-1.3097,0.07391,11.22,-23.22,-29.4,26.439495,-4.727472,126.015442,0.44987120071831427,0.13948235,0.18537864,0.8624357
0.7929,85157.3295,-1.91536,5.87298,11.25035,0.18143,-0.49847,-0.4667,10.2,-25.14,-29.22,27.781157,-5.434094,125.695892,0.4526359143947557,0.15037911,0.19237217,0.85761285
0.8061,85157.3495,-4.05578,3.304,16.74984,0.0391,0.3262,-0.43066,9.24,-26.94,-28.68,27.839096,-5.319759,124.970123,0.45783134044239465,0.15096305,0.19231024,0.8547616
0.8264,85157.3695,-6.82108,1.72383,18.15763,1.1973,0.96761,0.12523,9.6,-28.14,-28.68,28.171688,-4.575029,124.748734,0.45799847309583075,0.14706179,0.19750644,0.8541671
0.8456,85157.3895,-7.60877,0.72784,16.52478,2.57541,1.15331,0.49541,9.36,-28.32,-28.68,29.872536,-3.615426,125.367882,0.4503970880606546,0.14530037,0.21490206,0.85431105
0.8702,85157.4095,-6.92164,-0.30646,12.78025,3.74399,1.15881,0.88026,9.24,-28.74,-27.96,33.135448,-2.819015,126.529839,0.43732273371591684,0.14929615,0.24398148,0.85260338
0.8877,85157.4305,-4.2545,-0.22266,6.36618,4.1606,1.06107,1.00487,9.54,-29.22,-27.54,36.643093,-1.106025,127.475883,0.4227483134651804,0.14730282,0.27783483,0.84993738
0.9084,85157.4506,-2.35829,1.96085,1.33596,3.71101,0.34636,0.41111,9.42,-30.18,-26.28,40.173775,0.448907,127.988686,0.41057718441507524,0.14727898,0.31028199,0.84466583
0.9273,85157.4705,-3.03345,2.45166,1.8148,3.08976,-1.248,0.35736,9.78,-31.98,-24.66,43.168617,1.755211,127.26503,0.4078867015412999,0.15060097,0.33588496,0.83554119
0.9476,85157.4905,-1.13725,0.41899,4.68785,2.5748,-1.30298,-0.54367,10.2,-33.78,-22.68,45.344501,1.515686,126.335052,0.41191676383453846,0.16308425,0.34943557,0.82560456
0.966,85157.5106,-4.35984,-4.48673,5.04698,0.53634,0.3091,0.22724,10.08,-35.1,-21.24,46.046818,2.950581,124.090546,0.42239611458314946,0.16234973,0.35646519,0.8174085
0.9869,85157.5316,-2.39899,-1.63524,6.08127,-0.66462,3.28218,1.81732,9.84,-36.18,-19.86,44.428482,4.86908,124.263283,0.41815879292291697,0.14180227,0.35230419,0.82517701
1.007,85157.5514,-0.42856,-0.3304,4.68785,-0.95784,3.57662,2.14047,10.2,-36.9,-18.96,41.922478,7.663869,127.260384,0.3924223943936409,0.10262442,0.34751493,0.84540302
1.0294,85157.5715,0.03831,-0.57221,3.90494,-1.1918,3.50148,2.3781,10.26,-37.2,-19.08,39.98896,9.758714,130.873383,0.3627748768246389,0.06892694,0.34308606,0.86367553
1.05,85157.5915,0.39744,-1.88184,4.31196,-1.57725,3.42756,3.12885,10.26,-37.32,-18.9,38.518837,11.206717,135.262604,0.32776684550509405,0.03968725,0.33864796,0.88108534
1.0706,85157.6115,2.27928,-1.51792,5.7796,-1.65117,3.04089,4.06775,10.26,-37.2,-18.72,36.66959,11.613521,140.957718,0.28556676491661087,0.01405817,0.327057,0.90071511
1.0903,85157.6315,5.10683,0.4142,6.66306,-1.24678,2.76844,4.44038,9.72,-37.08,-19.14,34.46981,10.170568,148.116364,0.23604289635524892,-0.00034356,0.30702594,0.92196459
1.1136,85157.6515,7.64229,2.34632,6.15549,-1.04763,2.88145,4.20459,9.3,-37.32,-19.32,32.928017,7.983778,155.610382,0.18279894668005914,-0.00553261,0.29044798,0.93925178
1.1343,85157.6715,8.98783,3.17232,4.81235,-1.23334,2.84541,3.72261,8.7,-37.32,-19.68,31.752077,6.006687,162.634659,0.1308354936316451,-0.0085782,0.27765831,0.95169026
1.1515,85157.6915,8.0924,2.8898,4.80756,-1.50151,2.0238,3.47216,7.32,-37.44,-20.16,30.357843,4.15584,168.852814,0.08422484420089725,-0.00941445,0.26382366,0.96084058
1.1681,85157.7115,7.49385,2.44927,10.64462,-1.35123,1.53572,3.58883,6.3,-37.56,-20.82,28.48535,1.832468,174.492264,0.04263327597999569,-0.0036621,0.24645847,0.96820825
1.1904,85157.7315,11.32697,4.26168,8.89685,-0.76969,1.15576,3.29623,4.62,-37.32,-21.18,26.94136,-0.610763,179.934723,0.001768987763027548,0.00531597,0.23294142,0.97247463
1.2084,85157.7515,12.47858,7.07008,9.68455,-0.24251,0.69761,2.56136,3.36,-37.2,-21.48,26.084993,-3.108915,-175.370117,0.03321768765097073,-0.01729355,-0.22647399,-0.973297
1.2309,85157.7715,14.13297,9.1243,8.12831,-0.10324,0.10629,1.65972,2.46,-37.2,-22.5,25.819424,-4.997226,-172.01651,0.058071772683555706,-0.02685241,-0.22561954,-0.97211236
1.2484,85157.7915,13.98214,9.74679,7.96551,-0.50702,-0.47525,0.54184,1.02,-36.78,-22.86,25.468298,-5.783641,-170.489639,0.0696732997091011,-0.03079027,-0.22346853,-0.97173011
1.2686,85157.8115,12.81616,9.40921,9.76834,-0.88637,-0.77763,-0.24068,0.3,-36.6,-23.1,24.728161,-6.569379,-170.369827,0.06963253098220473,-0.03782682,-0.21771474,-0.97279018
1.2892,85157.8315,11.62385,8.75081,11.22881,-0.97494,-1.01526,-0.89064,-0.24,-36.54,-23.52,23.726999,-7.247041,-171.226105,0.06175270263626719,-0.04597521,-0.20929973,-0.97481614
1.316,85157.8516,10.1993,7.69018,12.83771,-0.68783,-1.50517,-1.30359,-0.72,-35.82,-23.46,22.819311,-7.983157,-172.828323,0.04741370842058256,-0.05575804,-0.20122392,-0.976807
1.3455,85157.8715,8.88009,7.57765,13.89834,-0.07758,-1.96149,-1.46119,-1.08,-36.0,-23.7,22.404686,-9.14441,-174.774185,0.02910378264406473,-0.06928685,-0.19701971,-0.97751498
1.3607,85157.8915,8.53054,8.011,13.51527,0.53573,-2.43247,-1.63529,-0.9,-35.16,-24.18,22.796274,-10.838292,-176.746094,0.009048434441894385,-0.08695517,-0.19929133,-0.97603273
1.3703,85157.9116,8.65025,7.65187,12.967,0.76053,-2.49294,-1.98714,-1.5,-34.74,-24.12,23.880527,-12.918911,-178.858093,0.013585506644463277,0.10801202,0.20666493,0.97233659
1.3925,85157.9315,8.06607,6.90009,12.20085,0.72571,-2.14353,-2.42636,-1.56,-35.1,-23.88,25.296375,-14.730356,178.652939,0.039440893580388575,0.12762606,0.21567197,0.96728569
1.4269,85157.9515,6.68461,5.99987,11.3126,0.70555,-1.87169,-2.85518,-2.04,-35.4,-23.52,26.851463,-15.852336,175.630615,0.06871783383962524,0.14279746,0.22468634,0.96145868
1.4304,85157.9716,5.59046,5.00388,10.88883,0.82467,-1.76418,-3.29989,-2.16,-35.7,-22.74,28.590324,-16.36618,172.061005,0.1014593495655965,0.15451758,0.23426861,0.95443624
1.4508,85157.9915,4.53701,3.89058,10.47942,1.04702,-1.65789,-3.6542,-1.74,-36.42,-22.38,30.580679,-16.560539,168.120758,0.1365504828655148,0.16517614,0.24518512,0.94549197
1.4668,85158.0115,2.98796,2.5187,9.27753,1.27976,-1.64811,-3.9297,-1.2,-36.72,-21.84,32.575054,-16.660229,163.997955,0.1724306668400023,0.17633343,0.25544143,0.93483895
1.487,85158.0316,1.62566,1.49159,8.57603,1.47157,-1.55465,-4.03599,0.3,-37.02,-21.6,34.705036,-16.300966,159.488052,0.20983465190061668,0.18572477,0.26642665,0.92222154
1.5086,85158.0514,0.85952,0.69671,6.84502,1.4954,-1.25472,-4.0647,1.86,-37.68,-21.54,36.798748,-15.393068,154.753754,0.24674746395024247,0.1923655,0.27746281,0.90836424
1.5394,85158.0715,-0.04788,0.03112,5.60722,1.35429,-1.17103,-3.96268,3.3,-37.92,-20.46,38.59354,-13.776084,149.727448,0.28292448121859276,0.19493082,0.28713804,0.89415181
1.5496,85158.0915,-0.35674,0.29688,4.7501,1.16859,-1.05008,-3.78675,5.34,-38.4,-19.8,39.942291,-11.821193,144.618393,0.3175957667229326,0.19544463,0.29425454,0.87997079
1.5737,85158.1115,0.02155,1.21625,4.74291,1.05069,-0.86621,-3.70978,6.84,-38.52,-18.36,40.877777,-9.625567,139.536331,0.35039685184802183,0.19410479,0.29931933,0.86599845
1.588,85158.1315,1.075,1.92973,3.61046,0.87842,-0.34575,-3.95963,8.52,-38.4,-17.22,41.584824,-7.151907,134.417023,0.381856618269105,0.19100195,0.30404118,0.85162359
1.6076,85158.1515,1.92494,1.89381,0.08859,0.17715,-0.3824,-4.59065,10.62,-38.34,-17.4,42.885872,-3.344081,128.419067,0.41439766762325037,0.18344036,0.31720343,0.83307034
1.6326,85158.1725,1.15161,1.21865,-0.36871,-0.72021,-1.04458,-5.37561,12.18,-37.62,-17.1,42.905499,1.38576,120.736229,0.4562936448793798,0.17103194,0.32344458,0.81112748
1.6507,85158.1924,-1.05105,-0.40701,0.94571,-1.21012,-1.92789,-6.01336,14.1,-36.36,-17.16,41.529961,5.674165,112.508751,0.5041942509356951,0.15822221,0.32014856,0.78629434
1.669,85158.2125,-5.62637,-2.58095,2.39899,-1.49845,-2.62977,-6.20517,15.9,-35.16,-17.16,39.182285,8.990788,104.005043,0.5574930962074987,0.14759834,0.30887973,0.75631309
1.6893,85158.2325,-10.72842,-4.9943,3.49314,-2.00425,-3.39152,-5.72381,17.64,-33.0,-17.34,36.147854,10.854859,95.996078,0.6114795136989372,0.13985094,0.28968441,0.72292286
1.7104,85158.2526,-15.96454,-8.0948,7.60159,-2.40986,-2.85213,-3.79103,19.56,-30.48,-18.12,30.765265,13.157486,88.42485,0.665339375663156,0.11184944,0.26293224,0.68969548
1.7378,85158.2725,-16.0627,-7.65426,8.4228,-2.83503,-2.23149,-1.53999,21.54,-27.96,-19.56,25.469118,13.942583,84.379807,0.6993866084511312,0.08261041,0.23466244,0.67005032
1.7513,85158.2925,-12.46661,-3.43807,9.83538,-3.7666,-1.41415,0.3262,22.5,-25.2,-21.36,20.346304,13.712688,83.761673,0.7135126334584242,0.05211852,0.20455322,0.66808784
1.774,85158.3126,-9.9096,-1.25456,13.52724,-4.03538,-1.18019,0.84055,22.62,-22.98,-23.04,14.967505,13.270819,85.406097,0.7135312538418469,0.01737412,0.17193295,0.67897743
1.7976,85158.3325,-4.34548,4.50828,18.83518,-2.50088,-1.36223,-0.01222,21.9,-21.24,-24.6,10.64699,11.983395,87.628471,0.7078459140803538,-0.0053735,0.13887964,0.69255883
1.8098,85158.3534,-5.87298,1.37188,14.31254,-0.84238,-2.53204,-0.73609,20.64,-19.92,-25.86,8.139229,10.259875,88.154259,0.7093081482504775,-0.01126256,0.11324371,0.69565147
1.8374,85158.3735,-7.19458,0.7829,16.44338,-0.07575,-3.08609,-1.07146,19.44,-18.72,-27.18,7.334316,7.120483,87.773125,0.7150965238107955,0.00304791,0.08891701,0.69334078
1.8498,85158.3935,-10.10832,-3.90494,20.86307,0.42028,-1.86497,0.02138,17.7,-17.34,-28.02,7.290251,3.798457,87.083305,0.7215584564394424,0.02327511,0.06774762,0.68863773
1.8694,85158.4135,-9.09078,-0.22505,16.89349,-0.26023,-0.30665,2.53998,16.74,-16.86,-28.68,7.760965,2.050854,88.2892,0.7149810096870194,0.03611949,0.05993901,0.6956327
1.8998,85158.4345,-3.74693,3.58891,16.40268,-0.81978,1.4282,2.98896,15.72,-16.08,-29.64,7.383093,1.856868,91.937386,0.6927680570903233,0.03311954,0.05752313,0.7180993
1.9174,85158.4545,-2.39181,3.92888,15.9382,-0.92668,1.76357,2.77577,14.88,-16.08,-29.94,6.508911,3.194787,96.009323,0.6665553734211138,0.01728451,0.06079637,0.74277115
1.9355,85158.4745,-3.62003,3.46441,14.11621,-1.33657,2.1643,2.77516,14.94,-17.04,-29.94,5.605431,5.009173,99.749062,0.6414439295365412,-0.00189179,0.06548168,0.76436788
1.9518,85158.4945,-5.96635,2.17872,17.674,-1.39705,2.3109,3.22659,15.24,-17.16,-30.06,4.330305,7.228273,103.701347,0.6141717116997661,-0.02624612,0.06856211,0.78575027
1.9802,85158.5145,-4.77164,0.5387,21.80639,0.00183,2.41231,4.06164,16.14,-17.94,-29.64,3.54859,9.620054,108.263237,0.5814779232441172,-0.04984061,0.07411002,0.80864519
1.9951,85158.5355,1.40061,2.2697,18.67956,1.59619,2.38054,4.0085,16.92,-18.66,-28.98,4.855092,12.068327,113.337669,0.5422223680330015,-0.06460635,0.09290273,0.83258033
2.0166,85158.5555,2.12605,2.77967,15.88074,2.57419,2.62794,3.49354,17.7,-19.32,-28.44,8.071937,14.513947,117.845573,0.5031733610976361,-0.07188102,0.12484157,0.85209405
2.0317,85158.5756,0.96965,0.58179,10.22803,2.73973,2.83258,3.62121,18.36,-20.82,-27.3,12.148294,17.160509,121.330154,0.4679481734662478,-0.07807303,0.16389646,0.8649087
2.0535,85158.5955,0.23703,-0.6201,7.79552,2.21194,2.20095,3.57539,18.66,-22.44,-26.22,15.838351,18.759521,124.843285,0.43251207429132943,-0.0801499,0.1952216,0.87658304
2.0733,85158.6155,-1.60412,-1.00317,6.65349,1.51495,2.36283,4.20947,19.02,-24.54,-24.78,18.804352,19.648886,128.663818,0.39594731075982864,-0.08200145,0.21799983,0.88824409
2.1251,85158.6356,-1.58975,-3.23457,6.63673,1.00793,2.50699,5.20946,19.62,-26.7,-23.34,21.056282,20.201504,133.603348,0.35182677723564,-0.08762589,0.23326372,0.90229023
2.1356,85158.6555,1.08218,-2.87304,6.79714,1.07818,2.93887,5.75191,19.26,-29.04,-22.38,23.052113,20.089539,139.885681,0.2981531122475883,-0.0930582,0.24342957,0.91825211
2.1379,85158.6755,3.34709,-0.34237,4.16352,1.41476,3.15329,5.39089,18.24,-31.38,-21.12,25.327017,19.84207,146.723038,0.2389998257856087,-0.09922898,0.25503728,0.9316591
2.1678,85158.6956,2.27928,0.42377,1.47962,1.25105,2.68231,4.88326,17.22,-33.6,-20.04,27.687939,19.327557,153.177277,0.1829357081260141,-0.10383412,0.26725465,0.94038713
2.1826,85158.7155,2.88501,0.67516,-0.07661,0.7141,1.69882,4.85455,15.66,-35.76,-18.66,30.771894,19.523811,158.682388,0.13153910612907066,-0.11229393,0.28720331,0.94212621
2.1977,85158.7355,3.92649,-1.33357,1.18992,0.38057,0.38057,5.06346,14.28,-37.44,-17.4,33.267593,17.913233,164.635239,0.08235932889540466,-0.11003261,0.30016664,0.94393313
2.2198,85158.7556,5.63116,-0.64165,3.37343,0.10446,-0.02321,4.93152,12.78,-38.64,-16.26,35.231045,14.447154,171.101959,0.03540757491148296,-0.09619497,0.30861813,0.9456467
2.2322,85158.7755,6.98149,0.73023,2.58095,-0.1912,1.4001,4.67556,10.2,-39.9,-15.48,36.174187,9.620879,178.454697,0.01325849995531499,0.07553647,-0.31041554,-0.94750232
2.2518,85158.7955,7.51061,1.83156,0.93613,-0.94501,1.49418,4.15816,7.8,-40.68,-15.12,36.161991,4.683804,-173.568619,0.06594183106015632,0.05617865,-0.30743468,-0.94761783
2.2718,85158.8155,9.39485,2.9736,3.10528,-1.664,0.87109,3.70307,4.86,-41.34,-14.76,34.89946,-0.30798,-166.176468,0.11400149605686137,0.03354098,-0.29799709,-0.94714117
2.2963,85158.8355,9.71806,3.93367,4.66391,-1.77151,0.77641,2.93582,2.22,-41.88,-15.12,32.692001,-4.850307,-160.089981,0.15400872684759864,0.00861723,-0.28397092,-0.94634432
2.3176,85158.8555,9.73961,4.8722,3.45244,-1.84909,0.20281,2.08488,0.12,-41.4,-15.66,30.426876,-8.363287,-155.653168,0.18423447588629052,-0.01359246,-0.27066949,-0.94478089
2.3318,85158.8755,10.12029,4.76207,5.40371,-1.85214,-1.2144,1.52044,-1.74,-40.92,-16.86,28.055393,-11.831045,-152.730927,0.2032028097701001,-0.04033674,-0.2578758,-0.94370633
2.3515,85158.8955,11.066,4.82671,6.58405,-1.65789,-1.80083,1.0568,-3.18,-40.32,-18.18,25.758877,-15.977926,-150.950912,0.21212304763865647,-0.07579597,-0.24766143,-0.94229645
2.3783,85158.9155,12.45943,5.59046,8.66462,-1.63468,-2.11909,0.74587,-4.62,-39.66,-18.9,23.694399,-20.030245,-150.082321,0.21428314152881625,-0.11224952,-0.23925638,-0.94033992
2.3931,85158.9355,13.86961,7.09402,12.23916,-1.37323,-1.84176,0.33781,-5.76,-39.12,-19.68,21.744818,-22.990139,-150.250381,0.21071345283840898,-0.14169841,-0.2288844,-0.93975174
2.4115,85158.9555,14.60942,8.41083,12.30859,-1.00487,-1.15026,-0.32865,-6.96,-38.22,-19.98,20.301769,-24.763851,-151.074707,0.2035276887929403,-0.16138996,-0.21940123,-0.94042164
2.4334,85158.9755,14.44901,9.41879,11.65258,-0.7251,-1.19852,-1.24372,-7.98,-37.32,-20.28,19.595327,-25.677618,-152.573593,0.19102850396450421,-0.1733941,-0.21309443,-0.94235522
2.4516,85158.9955,13.56794,9.05248,13.295,-0.30177,-1.65606,-2.17651,-8.58,-36.48,-20.64,19.690886,-26.518576,-154.954498,0.16965369512606218,-0.18451709,-0.21147199,-0.94469607
2.4718,85159.0155,11.77708,7.46033,14.04678,0.50946,-1.89918,-2.91749,-8.76,-36.42,-20.58,20.802456,-27.598583,-158.016068,0.13985253786219085,-0.19686766,-0.2168446,-0.94586617
2.4912,85159.0355,9.73722,6.90488,12.40436,1.21684,-2.15513,-3.32005,-8.52,-36.36,-20.28,23.139103,-28.727232,-161.270737,0.10533703690571655,-0.20818143,-0.23124458,-0.94450545
2.5153,85159.0555,8.0517,6.38534,11.74595,1.82588,-2.70797,-3.76782,-7.8,-37.02,-19.98,26.433741,-30.140795,-164.539627,0.0675338210593144,-0.22112234,-0.25281423,-0.9394834
2.5342,85159.0756,6.4021,5.16429,10.09156,2.14169,-2.76355,-4.04271,-7.26,-37.56,-18.9,30.594374,-31.865852,-167.882004,0.025879603670050582,-0.23652919,-0.28022209,-0.92997837
2.5566,85159.0966,4.78601,4.26168,8.11395,2.11482,-2.46423,-4.02805,-6.48,-38.1,-18.42,35.096287,-33.320629,-171.251083,0.016518355961260126,0.25052699,0.30885881,0.91737103
2.5781,85159.1165,3.06218,3.39498,6.90967,2.16368,-2.35061,-4.05981,-5.28,-39.24,-17.16,39.292267,-34.312641,-174.790482,0.058175238430925036,0.26292145,0.33354318,0.9034583
2.5941,85159.1365,2.38462,2.82037,5.94241,1.98837,-2.14597,-3.97124,-3.48,-39.9,-15.54,43.167236,-34.765957,-178.328522,0.0969448916061321,0.27265888,0.35507303,0.8889218
2.6132,85159.1566,1.77171,3.02388,3.41892,1.08062,-1.56015,-3.9523,-1.5,-41.04,-14.7,46.620575,-34.408123,177.728012,0.13441066430798612,0.27907398,0.37254566,0.8747921
2.6362,85159.1765,-0.44053,2.38941,4.74531,0.25168,-1.19791,-4.09096,0.9,-41.58,-13.38,49.018391,-32.070118,172.364258,0.17256291901048706,0.27732578,0.38107896,0.8649227
2.6542,85159.1975,-0.29449,1.901,3.09331,-0.11973,-0.77641,-4.19115,2.76,-41.82,-12.54,50.750839,-27.921917,165.343872,0.21438717519918274,0.26924992,0.38468757,0.85648006
2.6747,85159.2175,-0.9074,2.42772,2.93769,-0.40378,-0.7141,-4.04698,4.44,-41.58,-12.06,51.777016,-22.836466,157.799713,0.25459587854111276,0.25716677,0.38568419,0.8487013
2.6952,85159.2375,-0.17238,3.00712,2.79164,-0.44593,-1.00365,-4.33775,6.6,-41.04,-11.64,52.646748,-17.654421,150.176361,0.2936722955637847,0.24566969,0.38803372,0.83835125
2.7176,85159.2585,-1.22583,1.97761,2.40857,-0.4331,-1.64811,-4.74459,9.18,-40.56,-11.64,53.515018,-11.967028,141.338364,0.3382514408365104,0.23605174,0.39170766,0.82245404
2.7366,85159.2786,-0.73741,1.5706,3.19626,-0.70983,-2.11726,-4.90464,11.64,-39.96,-12.36,53.841728,-6.515987,132.102631,0.38486092865552884,0.2297971,0.39254296,0.80310982
2.7708,85159.2996,2.96642,2.15718,6.30393,-0.95295,-2.3781,-5.46724,13.98,-38.7,-12.72,53.240883,-1.262373,122.579918,0.4337576205724455,0.22387098,0.38823748,0.78166986
2.8173,85159.3195,2.94487,-1.45567,7.03895,-1.08551,-2.28403,-6.33589,16.02,-37.62,-13.62,51.085392,4.013142,112.094147,0.491092694398005,0.21446794,0.37509048,0.75639844
2.8186,85159.3395,-5.35583,-5.68623,6.03339,-1.54427,-1.84237,-6.21494,17.82,-35.64,-14.46,47.746407,9.789769,101.327721,0.5508136398482489,0.19525024,0.36133978,0.72657776
2.8197,85159.3596,-12.4283,-4.07972,3.98635,-2.21316,-1.1973,-5.04086,19.74,-32.94,-15.12,42.212078,15.793248,91.609344,0.6087049170834278,0.1567509,0.34507632,0.69701493
2.8505,85159.3795,-23.29558,-8.03973,6.42843,-2.44407,-0.48381,-3.14596,21.36,-30.42,-16.62,36.225651,20.326136,84.825035,0.6537129387006069,0.11281856,0.3302125,0.67148423
2.8573,85159.3995,-21.28685,-5.31752,3.60806,-2.67131,-1.93766,-0.49724,22.68,-27.24,-17.28,31.297392,22.2533,82.218323,0.6776674898586,0.07723696,0.31402975,0.6604442
2.8769,85159.4195,-13.11304,-1.85311,9.61033,-2.86313,-1.81793,0.9951,23.52,-24.84,-18.24,28.00688,19.918766,83.587563,0.684599185633476,0.06585193,0.28394839,0.66810238
2.8969,85159.4395,-8.21211,0.63446,14.62857,-2.8167,-1.04519,1.34574,23.52,-23.1,-19.92,24.942003,17.271078,86.281448,0.6822119777533309,0.05553598,0.2529628,0.68374878
2.9151,85159.4595,-7.88171,0.85234,15.57907,-2.57602,-0.32926,1.51983,23.4,-22.2,-20.94,22.336149,15.273425,89.252136,0.6739548320677744,0.04504079,0.22764307,0.70138067
2.9348,85159.4795,-10.12747,1.88663,15.62456,-2.07572,-0.1857,1.99081,22.74,-20.94,-22.14,20.067175,13.976392,92.256248,0.6620978843415751,0.03348389,0.20769459,0.7192831
2.9552,85159.4994,-10.50815,3.69425,15.56231,-1.62368,0.13867,2.40498,22.32,-20.34,-23.22,18.450758,12.836299,95.59481,0.6456341263727188,0.02528419,0.1921353,0.7386483
2.9749,85159.5195,-8.71011,5.52342,15.70836,-1.46974,0.90408,2.75439,22.08,-20.52,-24.0,17.312046,12.147701,99.248215,0.624694079648924,0.01725858,0.18177357,0.75922185
2.9966,85159.5405,-7.53216,6.66306,15.16008,-1.47463,1.68538,2.901,21.54,-20.34,-24.72,16.337677,12.366954,103.178398,0.5994210190782989,0.0042219,0.17693344,0.7806223
3.0164,85159.5605,-7.20894,7.23288,14.86081,-1.29931,1.94744,3.1258,21.78,-21.24,-25.38,15.416938,13.414251,107.465073,0.5695669578821733,-0.01451223,0.17587216,0.80277759
3.0403,85159.5805,-5.88255,7.64469,14.65491,-0.77763,1.78128,3.3286,21.0,-21.54,-25.56,14.980895,14.582447,111.754494,0.5379874403739616,-0.03162959,0.17763141,0.82341737
3.0587,85159.6016,-3.21781,9.29429,16.30212,-0.01405,1.61024,2.91444,21.24,-21.84,-25.2,15.323304,15.580666,116.183449,0.5036667049700778,-0.04422025,0.18313864,0.84310418
3.0798,85159.6226,-4.84108,6.81629,15.8544,0.967,1.8723,2.36955,21.6,-22.68,-24.66,16.500271,16.685284,119.617172,0.47442373350147854,-0.05271429,0.19492798,0.85682344
3.0996,85159.6425,-6.44998,4.31914,11.9758,1.45447,1.90285,2.5974,21.6,-23.82,-24.06,18.543938,18.185202,122.136757,0.44916108207038913,-0.05953561,0.21469165,0.86522675
3.1288,85159.6635,-7.18261,2.26731,8.89207,1.4563,1.56198,3.22964,22.2,-25.26,-23.16,21.279295,19.45767,125.01622,0.4194852854993937,-0.06332136,0.2380932,0.87368995
3.1425,85159.6835,-5.43963,1.82917,7.75003,1.38178,1.07451,3.92847,22.5,-26.82,-21.9,23.889042,20.170023,128.447922,0.3862303601379275,-0.06566294,0.25799033,0.88315088
3.1644,85159.7035,-2.04225,2.54743,9.65103,1.50273,1.04153,3.9016,22.2,-28.44,-20.88,26.525938,19.821419,132.568207,0.3494802965318089,-0.0624789,0.27428973,0.89371419
3.1804,85159.7235,-1.6496,1.59454,9.01656,1.86619,1.08856,3.66825,21.66,-29.64,-19.68,29.137133,19.241673,136.542709,0.31421637629840604,-0.05844808,0.29026261,0.90199751
3.2054,85159.7435,-2.92811,0.32561,5.04458,1.86864,1.22845,3.80447,20.64,-31.62,-18.3,31.79261,18.795656,140.1996,0.2809187593622948,-0.05568805,0.30754045,0.90741521
3.2204,85159.7635,-3.82354,-0.90261,1.68552,1.36528,0.92546,4.36585,19.02,-33.12,-17.34,34.157032,18.29361,144.179047,0.24580883863833183,-0.055423,0.32262689,0.91236955
3.2397,85159.7835,-3.11486,-1.94409,1.16837,0.81367,0.22724,5.11477,17.82,-35.16,-16.2,35.784943,16.837484,149.167053,0.20688752300871394,-0.05352024,0.33002296,0.91946614
3.2593,85159.8035,-0.57461,-2.12845,2.62405,0.59193,-0.18937,5.59675,16.38,-37.32,-15.06,37.424938,13.228741,155.746033,0.16152021008022274,-0.03971426,0.33449116,0.92760426
3.2833,85159.8235,2.67672,-1.45089,3.29203,0.33048,-0.24923,5.76901,14.52,-38.46,-14.52,39.239811,8.02046,163.536987,0.11128973579818673,-0.01723873,0.34093729,0.93331623
3.3023,85159.8435,6.00705,-0.56982,5.59285,-0.00733,0.28772,5.73786,11.94,-39.78,-14.16,40.128872,2.337964,171.907288,0.05928497561878219,0.00508848,0.34350252,0.93726486
3.331,85159.8635,9.35415,1.13485,6.77799,-0.35919,1.34696,5.14837,8.64,-41.1,-13.62,38.525379,-4.019466,-178.904068,0.002553068697390291,0.02995132,0.32999834,0.94350278
3.3479,85159.8835,9.67976,2.67672,6.60321,-0.58704,2.08244,4.2614,4.92,-41.58,-13.5,36.422497,-8.420837,-170.948578,0.051877060553618105,-0.04493112,-0.31620923,-0.94620383
3.3657,85159.9035,10.01255,4.31196,7.32386,-0.62308,2.14841,3.39702,1.38,-42.0,-13.5,34.265175,-10.963393,-164.662415,0.09905137542690998,-0.05134093,-0.3027961,-0.94650275
3.3879,85159.9235,10.90319,5.73172,7.84101,-0.35675,2.30418,2.44346,-1.38,-42.0,-13.26,32.460865,-12.515901,-159.812683,0.1372747089402819,-0.05434772,-0.29187799,-0.94499165
3.3994,85159.9435,9.20331,4.78601,4.94642,0.04887,2.16124,1.30175,-3.18,-41.04,-13.44,31.394722,-13.140155,-156.322235,0.16591349261991475,-0.05266507,-0.28566054,-0.94238907
3.4224,85159.9636,5.83946,2.51152,1.48919,-0.0788,1.58397,0.92057,-4.68,-40.62,-13.92,31.024212,-13.537281,-154.036606,0.18423293216021408,-0.0510053,-0.284302,-0.9394834
3.4422,85159.9846,4.23774,1.33118,0.25857,-0.79474,0.70677,1.26816,-5.22,-40.2,-14.4,30.45265,-14.585115,-152.046844,0.19881098397601188,-0.05593443,-0.2823776,-0.93680757
3.4625,85160.0055,5.93762,1.33118,2.63362,-1.47585,-0.05131,1.88941,-6.0,-39.78,-15.06,28.690765,-16.778238,-149.7314,0.21534081498215787,-0.07244837,-0.27351692,-0.93464863
3.4879,85160.0255,8.20493,2.69587,4.4604,-1.75929,-0.62308,2.15513,-6.6,-39.24,-15.78,26.181227,-19.676744,-147.39798,0.23222398794508195,-0.09710102,-0.26090378,-0.93197244
3.504,85160.0455,9.69652,3.632,5.93523,-1.62796,-1.19974,1.96027,-7.2,-38.94,-16.08,23.406691,-22.884323,-145.402725,0.24696355943781137,-0.12635045,-0.24758229,-0.9283036
3.5275,85160.0665,10.46745,4.34787,7.16106,-1.33718,-1.78434,1.69088,-7.98,-38.64,-16.68,20.888527,-26.325504,-143.986511,0.25676128155197453,-0.15840997,-0.23709835,-0.92345238
3.5485,85160.0886,10.53209,4.98952,7.03416,-1.16675,-2.08061,1.31641,-9.0,-37.86,-17.1,18.627005,-30.189657,-143.006363,0.26229969301039074,-0.19413756,-0.22970943,-0.91692042
3.5838,85160.1085,11.45865,5.85382,7.74764,-1.21073,-2.41475,0.99021,-10.5,-37.14,-17.58,16.864025,-33.919449,-142.71875,0.26189591879489366,-0.22857869,-0.22512929,-0.91020828
3.5886,85160.1295,13.05798,6.89051,9.84496,-1.19852,-2.45568,0.55894,-12.12,-36.3,-17.58,15.316793,-37.584099,-143.083862,0.25633854631633735,-0.26289237,-0.2207537,-0.90357399
3.6104,85160.1495,13.49372,7.81228,10.60153,-0.97861,-2.24493,-0.10934,-13.74,-34.92,-17.82,13.992514,-40.215313,-144.135971,0.24712876015928745,-0.28943315,-0.2138833,-0.89967203
3.6281,85160.1696,12.27747,7.57047,10.58716,-0.77458,-2.21011,-0.72449,-15.18,-34.14,-17.82,13.387194,-42.553204,-145.654343,0.2328443279939433,-0.3122611,-0.21018183,-0.8967163
3.6488,85160.1895,12.1003,7.34302,11.53287,-0.61148,-1.94805,-1.26755,-15.96,-33.66,-17.46,13.452811,-44.734722,-147.508118,0.21413902497815007,-0.33253098,-0.20971945,-0.89419538
3.6697,85160.2095,11.67892,7.36217,11.98777,-0.42516,-1.30847,-1.74158,-16.86,-32.82,-17.52,14.12459,-46.425873,-149.637848,0.19207591716818007,-0.34791863,-0.2114851,-0.89293534
3.6904,85160.2295,10.86968,6.94558,10.31422,-0.27,-0.76603,-2.26081,-17.22,-33.12,-17.34,15.385987,-47.282051,-151.954926,0.16788929628297444,-0.35583979,-0.2152666,-0.89378494
3.7069,85160.2495,9.45231,6.21056,8.81066,-0.18692,-0.69089,-2.66398,-16.98,-33.36,-17.28,17.188484,-47.515671,-154.530426,0.14076934837426325,-0.3583993,-0.22121903,-0.89598888
3.7286,85160.2695,8.43717,5.83228,8.7939,0.09957,-1.08306,-2.9181,-16.5,-33.66,-17.1,19.381836,-47.654102,-157.295364,0.11082175209980227,-0.36011079,-0.22935797,-0.89745957
3.7482,85160.2895,8.0517,5.9472,9.21289,0.72388,-1.63162,-3.24064,-15.12,-34.98,-17.1,22.088039,-48.242767,-159.939743,0.07892466101471439,-0.36452183,-0.24202244,-0.8957231
3.7703,85160.3105,7.06768,4.89135,7.78594,1.34085,-1.96332,-3.72078,-13.68,-36.18,-16.56,25.868013,-49.463898,-162.3703,0.04311624533067453,-0.37178889,-0.26338249,-0.88912523
3.7899,85160.3305,5.38456,3.881,5.49948,1.27732,-1.94805,-3.85517,-12.3,-37.26,-15.66,30.031506,-50.687237,-164.630249,0.006823985537550382,-0.37840548,-0.28733227,-0.879888
3.8104,85160.3505,4.50828,3.7158,5.1188,0.95723,-1.94805,-3.71956,-10.44,-38.64,-14.64,33.980278,-51.507397,-167.170288,0.02993097356071948,0.38353339,0.30796123,0.87015295
3.8343,85160.3705,4.52504,3.71101,5.58328,0.84055,-1.7825,-3.70245,-8.7,-39.42,-13.56,37.523418,-51.982395,-170.010513,0.06631361822387741,0.38820097,0.32413277,0.86013979
3.8508,85160.3906,3.55539,3.75411,4.75967,0.80451,-1.66522,-3.78798,-7.02,-40.26,-12.42,40.948784,-51.936203,-173.071381,0.10198809091083912,0.3904576,0.33868632,0.84996051
3.8708,85160.4116,2.82516,4.12521,4.27365,0.60537,-1.51433,-3.81424,-5.22,-41.64,-11.46,44.518482,-51.393555,-176.6147,0.1395440142706589,0.39103809,0.35303986,0.83843875
3.8906,85160.4315,3.27527,4.81235,3.85706,0.51924,-1.29381,-4.11051,-3.3,-42.36,-10.98,47.732151,-50.140324,179.502975,0.175030782084822,0.38908222,0.36479846,0.82758766
3.9141,85160.4515,3.17232,5.26006,3.94804,0.64507,-1.44103,-4.60653,-1.32,-42.72,-10.5,51.243748,-47.994118,174.736374,0.21350295813783543,0.38445204,0.37779889,0.814789
3.9332,85160.4725,3.2633,4.28083,2.05662,0.77763,-1.31031,-5.18441,0.54,-42.96,-10.38,55.077236,-45.279556,169.210571,0.2541260987049516,0.37992951,0.39273939,0.79801583
3.9582,85160.4926,2.63602,3.49075,0.05507,0.37751,-1.59008,-5.67433,3.12,-42.66,-10.02,59.375546,-41.012894,161.958527,0.29893433827652127,0.37329978,0.4104352,0.7764203
3.9713,85160.5125,2.07817,2.3942,0.60573,-0.2529,-1.94805,-5.98281,6.0,-42.12,-9.72,63.245613,-34.181808,151.645157,0.3487480663737432,0.36537868,0.42461285,0.75138348
3.9893,85160.5325,-1.31202,-0.48363,1.4868,-0.61331,-2.05862,-6.03535,8.88,-41.76,-9.54,66.229042,-23.13344,136.827332,0.40374834052082065,0.35307235,0.43589517,0.72271889
4.0099,85160.5525,-5.87298,-1.37188,1.65439,-1.09528,-2.4459,-5.35179,12.6,-40.74,-9.66,67.383308,-9.77256,119.644035,0.4575801942428658,0.33910519,0.44217151,0.69290143
4.0325,85160.5725,-9.165,-0.82361,3.6751,-1.72081,-2.14169,-4.11357,15.48,-39.12,-10.44,66.376076,1.336641,104.569412,0.5068651195054149,0.32711381,0.43895918,0.66588223
4.0522,85160.5935,-9.76595,0.12689,3.23696,-2.29563,-1.33902,-2.81487,17.82,-37.74,-11.58,63.202309,10.636662,92.49617,0.5513743368034404,0.30378255,0.43147266,0.64616859
4.0723,85160.6135,-9.02375,1.40779,4.22337,-2.79104,-1.10261,-1.83993,19.86,-35.94,-12.78,58.268772,17.414705,84.267014,0.59084741575766,0.2681753,0.42091313,0.63388759
4.1046,85160.6335,-7.21134,2.37984,6.14113,-2.87779,-1.05558,-1.32924,21.18,-33.96,-13.98,53.203163,20.270395,80.613884,0.6202508985134709,0.23436411,0.4051317,0.6294685
4.1138,85160.6535,-5.9065,2.78924,7.76679,-2.66643,-0.90775,-1.23456,22.14,-32.28,-15.54,48.375195,21.393942,78.945282,0.6435768390734261,0.2031447,0.38664272,0.62852883
4.1335,85160.6735,-6.78756,2.28646,8.76517,-2.339,-0.86376,-1.18141,22.56,-30.42,-17.22,43.909016,22.075539,77.840073,0.6632843104972789,0.17394207,0.36868858,0.62758809
4.151,85160.6935,-9.15064,1.48441,8.71729,-2.12092,-0.63652,-0.87109,22.68,-28.98,-18.06,39.893166,22.68013,76.97834,0.679658605651246,0.14677338,0.35284761,0.62611526
4.1769,85160.7136,-10.90559,1.24977,7.83862,-2.18568,-0.35064,-0.24312,22.5,-27.72,-19.32,36.295174,23.282181,76.713898,0.6908258841130965,0.1202272,0.33966455,0.62684369
4.1911,85160.7335,-11.09234,2.50433,7.31907,-2.51493,-0.51191,0.52718,22.8,-26.76,-20.1,33.036465,23.648638,77.541054,0.6951389458802225,0.09394907,0.32743219,0.63304311
4.2207,85160.7535,-8.7963,4.60405,11.96861,-2.51554,-0.68234,1.04702,22.5,-26.04,-20.7,29.972769,22.94183,79.659676,0.694073868685106,0.07157134,0.30984885,0.64585811
4.2327,85160.7745,-8.02536,6.14831,14.1641,-2.04457,-0.16188,1.29259,22.44,-24.72,-21.78,27.337469,21.844931,82.494064,0.6878237952091425,0.0530675,0.29140764,0.66269439
4.2525,85160.7946,-8.24324,7.40527,14.73631,-1.60535,0.43555,1.6249,22.38,-24.12,-22.56,25.820366,20.677864,85.598305,0.6763359358661882,0.04241741,0.27769193,0.68092412
4.2704,85160.8145,-6.8546,8.97826,15.03319,-1.21868,0.79962,1.89124,22.02,-23.76,-23.1,24.875551,20.149059,88.842445,0.6603266996868669,0.03189069,0.27043,0.69987088
4.2906,85160.8345,-4.5849,10.33816,15.38275,-0.78802,1.01037,1.83137,21.9,-23.4,-24.0,24.40716,19.985023,92.113022,0.6415680053928726,0.02235068,0.26758674,0.71853203
4.3105,85160.8545,-3.7158,10.73321,15.04995,-0.23946,1.13804,1.40255,21.78,-23.28,-24.36,24.383152,20.213203,94.956963,0.6230605494577915,0.01409942,0.26915669,0.73426932
4.3423,85160.8745,-5.10204,9.16979,14.53759,0.35675,1.25472,1.02137,21.48,-23.04,-24.54,24.795954,20.886011,96.980995,0.6074249469499433,0.00736632,0.27544051,0.74505919
4.3554,85160.8945,-6.50983,7.09163,13.10107,0.70677,1.56381,1.07573,21.54,-23.04,-24.36,25.701117,21.977688,98.397133,0.5932997929472317,0.0019864,0.28670934,0.75218958
4.3742,85160.9145,-7.06529,5.60722,11.49456,0.82772,1.81732,1.36162,21.54,-23.52,-23.64,26.991678,23.413916,99.775215,0.5772510024856035,-0.00366105,0.30188847,0.75870365
4.393,85160.9345,-6.91924,4.38618,10.73321,0.9108,1.923,1.65728,21.96,-24.6,-23.28,28.543665,24.959431,101.404465,0.5580755711777562,-0.00962021,0.31890687,0.76600099
4.4117,85160.9545,-6.65349,3.18908,9.73482,1.07329,1.98714,1.99448,22.5,-25.62,-22.56,30.340813,26.451698,103.269966,0.5362066736163629,-0.01502145,0.33679652,0.77383775
4.4335,85160.9745,-6.26084,2.72939,8.19296,1.08184,2.05006,2.27669,22.56,-26.4,-21.36,32.073593,27.961811,105.311234,0.5126668101870178,-0.0219842,0.35396889,0.78191781
4.4513,85160.9945,-5.43005,2.32477,7.10838,0.87048,1.99997,2.53509,23.04,-27.54,-20.28,33.821503,29.285959,107.655632,0.4869914291571753,-0.02913789,0.36993814,0.79065549
4.4737,85161.0145,-3.85945,2.76291,7.83862,0.68234,2.06228,2.55342,22.74,-28.8,-19.44,35.421646,30.156628,110.410912,0.4598861480233329,-0.03588397,0.38262859,0.80050761
4.4943,85161.0345,-3.78284,2.36547,7.41005,0.5791,2.31518,2.43613,22.74,-29.76,-18.36,36.78001,30.989771,113.280327,0.43245185776856304,-0.04456171,0.3933287,0.81011862
4.5121,85161.0545,-4.7908,1.42934,5.0781,0.31887,2.37749,2.63649,23.04,-31.26,-17.46,37.920898,32.115276,116.091766,0.40474167972982555,-0.0567083,0.40337297,0.81869322
4.5428,85161.0745,-5.9855,0.32561,3.23457,-0.07697,1.96332,3.18627,22.68,-32.28,-16.56,38.824535,33.072128,119.267876,0.3754457304536432,-0.0705443,0.41060859,0.82792789
4.5649,85161.0945,-4.5849,0.19393,4.32153,-0.30055,1.12949,3.91565,22.14,-33.48,-15.12,39.632996,32.751747,123.507347,0.3429781934673321,-0.07972551,0.41205433,0.84036958
4.5799,85161.1146,-1.11091,1.13246,5.91607,-0.14722,0.75992,4.16366,21.54,-34.5,-13.74,40.578377,30.602064,128.898788,0.30764955881168016,-0.07905281,0.40851384,0.85569787
4.5937,85161.1356,0.96007,2.09493,5.42287,0.03054,0.66768,3.99811,19.8,-35.34,-13.44,41.783424,27.38496,135.006973,0.26932418722525797,-0.07175143,0.40472037,0.87092918
4.611,85161.1555,1.01035,2.15478,4.63996,0.00428,0.60537,3.7782,18.06,-36.36,-12.84,42.753258,23.968004,140.83667,0.2339847614979543,-0.06267253,0.40073422,0.88359231
4.6309,85161.1755,1.69509,2.15239,5.33189,-0.17287,0.78374,3.70612,16.62,-37.2,-12.66,43.486877,20.235605,146.781906,0.19901115643775072,-0.05212295,0.39611584,0.89485753
4.651,85161.1956,3.6751,2.59531,5.99508,-0.45509,1.42515,3.58761,14.28,-38.4,-12.78,43.736786,16.131771,153.241699,0.1617740650331894,-0.04134503,0.38891318,0.90601671
4.6707,85161.2154,3.94564,3.01909,4.69982,-0.89125,2.09649,3.30173,12.48,-39.42,-12.48,43.496273,12.600135,159.812668,0.12176918843155278,-0.03580147,0.38045248,0.91604936
4.6913,85161.2355,2.43969,2.37505,3.83791,-1.32436,1.95477,3.3115,11.04,-40.62,-12.78,42.68195,10.083461,165.896439,0.08216547893198128,-0.03673222,0.36981627,0.92473537
4.7166,85161.2555,2.67432,1.54905,4.79798,-1.46913,1.49051,3.61754,9.06,-41.58,-13.26,41.25769,7.319243,172.02977,0.04247544323094195,-0.03515719,0.35489583,0.9332785
4.7413,85161.2755,4.71179,1.90578,5.99029,-1.40255,1.11849,3.89121,7.56,-42.66,-13.98,39.43074,3.534881,178.71936,0.0,-0.02526478,0.33749068,0.94098985
4.7558,85161.2965,7.37175,2.54982,6.47871,-1.37811,1.03725,3.9132,6.06,-43.02,-14.4,37.458858,-0.603961,-174.564545,0.04321397001159704,0.01023909,-0.32097054,-0.94604737
4.7789,85161.3165,9.13148,3.45723,6.58884,-1.30725,0.8546,3.67252,4.14,-42.96,-15.18,35.217766,-4.646817,-167.975784,0.08755134732784385,-0.00676869,-0.30465356,-0.94840664
4.7947,85161.3365,9.39485,4.39575,6.18901,-0.95906,0.49236,3.19605,2.04,-42.54,-15.84,33.109241,-8.271173,-162.483017,0.1252692143715171,-0.02504832,-0.29139951,-0.94803298
4.818,85161.3565,8.31985,4.14436,4.18267,-0.75136,-0.11851,2.82098,-0.24,-41.88,-16.56,31.385321,-11.74629,-157.916901,0.15624942664516048,-0.04515855,-0.28294381,-0.9452458
4.8328,85161.3765,9.36612,4.30956,5.54018,-0.8717,-0.84422,2.74828,-2.58,-41.4,-17.28,29.709707,-15.559258,-154.024307,0.1814181072194743,-0.07040439,-0.27691883,-0.94098175
4.8553,85161.3965,11.71483,5.87298,6.1531,-1.02625,-0.69578,2.47462,-4.68,-40.5,-17.64,27.80117,-19.601065,-150.585266,0.20329703263077273,-0.0997177,-0.27092537,-0.93558866
4.8731,85161.4163,11.8082,6.73728,5.33428,-1.22784,-1.12033,1.80022,-6.36,-39.6,-17.82,25.850111,-22.984173,-148.018219,0.22028250889106318,-0.12628679,-0.26420552,-0.93044221
4.8937,85161.4365,11.69807,6.90248,7.36935,-1.28404,-1.64567,1.23089,-7.98,-38.4,-17.82,23.945129,-26.34815,-146.638596,0.22811477911449732,-0.15559354,-0.25748003,-0.92599046
4.9157,85161.4565,12.1817,7.05811,9.01417,-1.25105,-1.81366,0.78252,-9.48,-37.68,-18.3,22.186239,-29.233749,-146.288376,0.22886893988972692,-0.18301548,-0.24998486,-0.92283905
4.9332,85161.4765,11.39879,7.05571,9.90721,-0.87354,-2.03785,0.38362,-10.86,-36.6,-18.18,20.61874,-31.355064,-146.75795,0.22461288959793263,-0.20546585,-0.24115266,-0.92150867
4.9574,85161.4965,10.33337,6.6463,8.99023,-0.39951,-2.65665,0.08369,-12.36,-36.06,-18.48,19.690075,-33.748257,-147.399048,0.21699813647600996,-0.22857472,-0.23731682,-0.91888309
4.9728,85161.5165,10.43633,6.66546,9.3326,-0.06109,-3.3115,-0.05681,-13.2,-35.28,-18.6,19.377872,-36.952789,-148.021667,0.20625744103995639,-0.25633886,-0.23949918,-0.91344863
5.0037,85161.5366,11.40837,7.40527,10.34056,0.10568,-3.27057,-0.29688,-14.52,-34.2,-18.12,19.440947,-40.749542,-148.605042,0.19339818397098996,-0.2875388,-0.24521984,-0.90542024
5.0129,85161.5565,11.58554,7.46273,10.5273,0.16921,-2.5522,-0.78191,-15.3,-34.26,-17.82,19.86622,-44.249054,-149.333511,0.17863568126169865,-0.31551453,-0.25220668,-0.89717984
5.0376,85161.5765,10.69969,6.7732,9.30387,0.04643,-1.6585,-1.22478,-15.9,-33.9,-16.86,20.717003,-46.69466,-150.459946,0.16134691362202197,-0.33487687,-0.25901622,-0.89147925
5.0566,85161.5966,9.82102,6.53856,7.78355,-0.16127,-1.05191,-1.55587,-16.62,-34.26,-16.08,21.806498,-48.004429,-152.020706,0.1421961975207865,-0.34580895,-0.26423052,-0.88903242
5.0741,85161.6165,8.97107,6.32548,6.79714,-0.21991,-0.95173,-1.89918,-16.2,-34.68,-15.24,23.064705,-48.557053,-153.983948,0.12094448523010036,-0.3515138,-0.26824462,-0.88873804
5.0932,85161.6365,8.31506,6.11958,6.5673,-0.09224,-1.18386,-2.21561,-16.08,-34.62,-14.4,24.637136,-48.989395,-156.201431,0.0967589230542778,-0.35632777,-0.2734946,-0.88818294
5.1142,85161.6566,7.37893,5.76284,6.13394,0.07025,-1.42515,-2.57174,-15.3,-35.46,-13.8,26.620916,-49.584133,-158.517654,0.06980059909549295,-0.36195877,-0.28139818,-0.88596207
5.1363,85161.6765,6.5649,5.23612,5.36301,0.07269,-1.49051,-2.8674,-14.7,-36.12,-13.56,28.992661,-50.258209,-160.972687,0.04003726619929287,-0.36802769,-0.29146352,-0.88204402
5.1561,85161.6963,6.02142,4.98473,5.31273,-0.11545,-1.50517,-3.11114,-13.38,-37.02,-13.5,31.586046,-50.729355,-163.73439,0.007574770777441666,-0.37327099,-0.30176723,-0.87723881
5.1734,85161.7165,5.54976,4.42688,6.03099,-0.17898,-1.28037,-3.30478,-11.94,-38.46,-13.62,34.187473,-50.809639,-166.95932,0.02724243562531083,0.37725672,0.31035924,0.87213093
5.1952,85161.7365,4.31675,3.71101,5.6144,-0.15821,-1.01831,-3.4184,-10.62,-39.24,-13.32,36.746254,-50.16222,-170.544312,0.06231526959748343,0.37739295,0.31766963,0.86762744
5.2173,85161.7575,4.07493,3.77566,5.2864,-0.10018,-0.80207,-3.42146,-8.82,-40.08,-12.9,39.356743,-48.920246,-174.507355,0.09820300649262977,0.37474343,0.32484594,0.8627854
5.2368,85161.7773,4.15155,4.1276,4.69264,-0.08063,-0.49175,-3.55585,-7.2,-40.92,-12.36,41.738487,-47.237972,-178.424545,0.13094321774990667,0.36984548,0.33151051,0.8580029
5.2615,85161.7975,4.33111,4.42688,4.00789,0.00122,-0.16554,-3.92603,-5.7,-41.16,-11.76,44.182743,-44.955273,177.345932,0.16357595300052577,0.3622078,0.33921573,0.85263187
5.2746,85161.8175,4.52025,4.6232,2.19309,-0.12828,0.23335,-4.49414,-3.54,-41.58,-11.76,46.860741,-41.889091,172.571823,0.1973501302749816,0.35135609,0.34933501,0.84591186
5.2938,85161.8375,4.78362,4.24971,0.67516,-0.53573,0.42577,-5.17708,-1.68,-42.18,-11.94,49.594509,-37.638588,166.70108,0.23388285396530215,0.33684048,0.36040735,0.83782089
5.3134,85161.8575,5.73411,3.57454,0.93374,-1.06596,0.36285,-6.0158,0.42,-42.42,-12.36,51.963535,-31.980677,159.152374,0.2750393337188784,0.31974214,0.36938059,0.82805574
5.3333,85161.8776,4.34069,0.56743,1.10612,-1.36101,0.29138,-6.90828,3.6,-42.24,-13.26,53.526569,-24.679708,149.490845,0.3223394631067849,0.29983494,0.37419745,0.81619394
5.3533,85161.8975,0.5794,-2.55701,1.38385,-1.56687,-0.29627,-7.20027,7.32,-41.4,-13.92,54.621056,-13.235396,135.687134,0.38183653939294954,0.26671898,0.38348371,0.79749739
5.3777,85161.9175,-3.95283,-4.10845,3.56975,-1.74769,-1.47585,-6.74762,11.46,-39.9,-14.7,53.858395,-2.197058,121.530807,0.44292593643911965,0.23606007,0.3867828,0.77362221
5.3979,85161.9376,-10.43393,-3.29203,8.77714,-1.40132,-2.62367,-6.18684,15.06,-37.62,-15.48,51.631569,5.726507,109.21981,0.502956709323807,0.21523018,0.38061374,0.74554926
5.4147,85161.9575,-18.11932,-3.7565,13.04601,-0.34758,-3.00301,-4.51674,18.3,-35.58,-15.96,47.268047,12.55774,97.558739,0.5670895595187025,0.1872239,0.36575818,0.71384704
5.4387,85161.9785,-16.28775,-4.02705,12.4714,0.34453,-1.92972,-1.51922,20.4,-33.78,-17.04,44.098751,15.932588,89.912216,0.6128009418837028,0.17233025,0.35358891,0.68538469
5.4571,85161.9985,-13.68047,-0.54588,9.83538,0.01405,-0.65851,0.51252,21.84,-31.8,-17.58,42.346077,17.245529,87.127533,0.6307355405594345,0.16241017,0.34740713,0.67461389
5.4783,85162.0185,-10.5297,3.91691,8.06367,-0.80817,0.29688,1.51678,22.8,-30.72,-18.48,40.964607,17.857056,87.382813,0.631636125059706,0.14951776,0.34391293,0.67853087
5.5029,85162.0385,-8.38689,5.89452,8.03015,-1.79839,1.09162,1.64995,22.98,-29.94,-19.08,39.211735,18.35289,89.287926,0.6240568914342417,0.13011655,0.33965802,0.69155991
5.5192,85162.0585,-8.95192,6.14592,7.67581,-2.49661,1.5913,1.57603,22.8,-29.7,-19.32,36.773136,19.361576,91.760323,0.6131371116977485,0.10190481,0.33430508,0.708462
5.5389,85162.0785,-9.62708,5.78679,8.47308,-2.72935,1.3885,1.91323,22.44,-29.76,-20.16,33.981373,20.615633,94.629425,0.5994781806257975,0.06912372,0.32735667,0.72710758
5.5554,85162.0985,-7.17063,7.65426,12.16973,-2.339,1.01709,2.44957,22.32,-29.64,-20.7,31.538815,20.984356,98.328125,0.5813203375250637,0.0421458,0.31677008,0.74829614
5.5753,85162.1185,-3.2633,10.67335,13.82173,-1.4673,1.26938,2.31579,22.2,-29.52,-21.42,30.19595,20.295769,102.671494,0.5579205577147489,0.02736105,0.30647469,0.77074593
5.5983,85162.1385,-2.11887,11.79623,11.11149,-0.96944,1.53755,1.58031,22.08,-29.1,-22.2,29.650219,20.286383,106.270699,0.5348404852328079,0.01489732,0.30364549,0.78836739
5.6241,85162.1585,-5.284,10.73081,10.37647,-0.8094,0.98349,1.19058,22.08,-29.22,-21.9,29.223486,20.856152,108.822098,0.5167105041044071,0.00195452,0.30368856,0.80048716
5.6407,85162.1785,-6.96713,9.05248,12.18888,-0.25717,0.60353,1.60841,21.78,-29.4,-21.48,28.987473,20.964588,111.027496,0.5015092413299977,-0.00584447,0.30258161,0.81049287
5.674,85162.1985,-5.03022,8.26718,12.95503,0.51496,0.26084,2.06228,21.12,-29.82,-21.36,29.588507,20.499376,113.52478,0.4834817278950853,-0.0061682,0.30446351,0.82067615
5.6774,85162.2183,-2.38941,7.9296,11.67413,1.16248,0.27184,2.24615,20.64,-30.18,-20.76,31.168892,19.614525,116.189857,0.4627950012512188,0.00062963,0.31145215,0.82995057
5.7017,85162.2385,-1.78607,7.53455,9.86651,1.55221,0.19731,2.11848,19.74,-30.78,-20.58,33.364136,18.702391,118.741051,0.4414200153291741,0.01037829,0.3230271,0.83707476
5.7148,85162.2585,-1.71904,7.63511,8.7125,1.79106,0.33475,1.86864,18.78,-31.8,-20.28,35.881725,17.782597,120.978577,0.42156953293367017,0.02194282,0.33728278,0.84144992
5.7343,85162.2786,-1.14922,6.82108,7.19458,1.58092,0.66218,1.51372,18.3,-32.58,-19.56,38.424053,17.241144,122.85125,0.4032429183639924,0.03131108,0.35341871,0.84351051
5.7541,85162.2985,-2.33674,5.65989,7.09402,1.14415,0.88637,1.3775,17.46,-33.78,-18.78,40.485283,17.159597,124.467178,0.3865279590578901,0.03552976,0.36793891,0.84495842
5.7764,85162.3185,-3.58891,4.2545,7.77397,1.08795,1.03725,1.61268,17.16,-34.68,-18.36,41.955788,17.229397,126.180611,0.37000088553988164,0.03548435,0.37894028,0.84749305
5.7957,85162.3386,-3.94804,2.86107,6.97431,1.28221,1.08734,2.15147,17.16,-35.34,-17.4,43.282246,17.264851,128.234451,0.351363377977332,0.03364529,0.38894188,0.8509618
5.8144,85162.3585,-2.89459,2.35589,5.78439,1.43859,0.82039,2.65543,16.26,-36.24,-16.62,44.841171,16.755455,130.988892,0.32877189394630507,0.03395789,0.39920765,0.85521293
5.8401,85162.3795,-0.88825,2.63123,4.80516,1.44653,0.55405,2.94437,16.08,-37.26,-15.42,46.585896,15.249558,134.561371,0.3032049291509372,0.0389581,0.40859345,0.86000025
5.8587,85162.3995,-0.21787,2.55222,4.31196,1.36101,0.45754,3.07204,15.18,-38.04,-14.34,48.33823,12.732154,138.958374,0.2753294067201806,0.04789851,0.41654798,0.86509377
5.8856,85162.4195,-0.16041,2.14281,3.50272,1.19424,0.5736,3.23697,13.92,-39.0,-13.86,49.72176,9.811257,143.627884,0.24798810215314332,0.05701846,0.42216885,0.87007141
5.8991,85162.4395,1.07021,2.03747,2.68629,0.75564,0.78191,3.40618,13.2,-39.9,-12.78,51.007511,6.291537,149.05246,0.21766495137395653,0.06696805,0.42755216,0.87483507
5.9156,85162.4595,2.20267,1.84114,2.0638,0.1686,1.11666,3.49048,11.22,-40.8,-12.3,52.027409,2.40477,155.092621,0.18477324131056705,0.07614603,0.43223894,0.87933505
5.9356,85162.4795,2.97839,1.4054,2.17872,-0.38485,1.25472,3.67924,9.3,-41.88,-11.4,52.09037,-1.438568,161.525452,0.14965089641323803,0.08160947,0.43154117,0.88584238
5.956,85162.4995,4.69982,2.24576,3.14598,-0.67745,1.34268,3.81852,7.14,-42.66,-10.86,51.309906,-5.350395,168.196121,0.1126886456928762,0.08631998,0.42586005,0.89358455
5.9786,85162.5195,5.36541,2.67672,3.5099,-0.74464,1.2596,3.64564,4.74,-43.62,-10.8,49.870178,-9.205955,174.873474,0.07422087374054048,0.0914912,0.41655648,0.90144402
6.0046,85162.5395,6.91206,2.95205,4.04859,-0.86193,1.2987,3.49659,2.7,-43.92,-10.92,47.599499,-14.152995,-177.945511,0.03342720512446002,0.10552051,0.40242377,0.90873712
6.0312,85162.5595,8.85136,3.78044,4.30477,-1.10933,1.37384,3.33838,0.9,-43.74,-11.46,44.954418,-18.351954,-171.57872,0.006166325651874469,-0.11924334,-0.38722387,-0.91422135
6.0423,85162.5805,10.19212,5.5761,3.89297,-1.3323,1.38056,2.8338,-1.02,-43.44,-12.0,41.969334,-21.627089,-166.110931,0.04418962835307237,-0.13135459,-0.37035793,-0.91849238
6.0652,85162.6005,9.99579,6.91206,3.86903,-1.29137,0.65973,1.98653,-3.0,-42.66,-13.14,39.258106,-23.970049,-162.290878,0.07289407157282593,-0.14267622,-0.35479665,-0.92111307
6.0831,85162.6215,9.48583,5.9448,4.36463,-1.17469,-0.00977,1.29809,-4.8,-41.64,-14.22,36.924099,-26.101391,-159.867096,0.09110252945391412,-0.15697168,-0.34118634,-0.92230803
6.098,85162.6415,9.71806,6.08606,6.07888,-1.05374,-0.58765,0.95051,-6.3,-40.74,-14.94,35.044651,-28.263365,-158.520767,0.10010017318962368,-0.1743378,-0.33023745,-0.92224157
6.1173,85162.6616,10.1993,6.41167,6.14352,-0.81795,-0.63102,0.38729,-7.62,-39.72,-15.48,33.544212,-30.495157,-157.765701,0.10364799986801913,-0.19339634,-0.32173494,-0.9210546
6.1424,85162.6815,8.75081,5.26246,4.42927,-0.99876,-0.69822,-0.00672,-8.22,-38.58,-15.42,32.547615,-32.323971,-157.684082,0.10189127833666219,-0.21006542,-0.3157725,-0.91966212
6.1572,85162.7015,7.52498,4.25928,4.10606,-1.44164,-0.95478,0.00855,-8.76,-38.58,-15.48,31.489958,-33.944931,-158.244156,0.09593554593517604,-0.22693174,-0.30789551,-0.91896611
6.1793,85162.7216,7.75243,4.05338,4.90093,-1.99325,-1.04091,0.12645,-9.18,-38.7,-15.66,29.963987,-35.562775,-159.210083,0.08832128915277511,-0.24574685,-0.29535416,-0.91900694
6.2021,85162.7415,7.81228,3.97198,6.66306,-2.43002,-0.99205,0.24923,-9.36,-38.34,-16.56,27.857449,-36.902702,-160.636505,0.07973728747416381,-0.26441643,-0.27675024,-0.92039949
6.2207,85162.7615,8.15465,4.26168,8.53533,-2.4062,-1.07024,0.36774,-9.96,-38.22,-17.64,25.39373,-37.96278,-162.363632,0.07077302182088215,-0.28169468,-0.25402772,-0.9225558
6.2429,85162.7816,9.25598,5.97832,10.06283,-1.98226,-1.57237,0.39218,-10.2,-37.44,-18.54,23.057135,-39.122139,-164.009735,0.062153932873675787,-0.29867437,-0.23212036,-0.92360741
6.2601,85162.8015,9.72285,6.8546,10.74278,-1.26022,-2.14108,0.15027,-10.8,-36.42,-19.5,21.283205,-40.828575,-165.443039,0.05279911674374775,-0.31811827,-0.21510346,-0.92181534
6.282,85162.8215,9.19373,7.01022,10.31901,-0.64691,-2.76783,-0.17715,-11.76,-35.64,-19.74,20.39949,-43.207523,-166.647507,0.041625291247467916,-0.34076872,-0.20565283,-0.91643381
6.3006,85162.8415,10.19451,8.53054,12.35408,-0.51252,-2.85641,-0.40317,-12.42,-34.62,-19.8,20.081833,-46.231693,-167.735016,0.0286895669178742,-0.36723596,-0.20073305,-0.90775597
6.3206,85162.8615,11.85369,9.16261,13.28543,-0.61697,-1.65972,-1.02442,-13.5,-33.9,-19.56,20.129623,-48.934963,-169.029816,0.013604817364420091,-0.39073071,-0.19732001,-0.89900458
6.3398,85162.8825,11.17613,8.69095,13.19205,-0.81673,-0.34697,-1.7202,-13.98,-33.9,-19.56,20.729067,-49.922138,-171.103333,0.006517197789681095,0.40121558,0.19481084,0.89500409
6.359,85162.9025,9.51216,7.86016,12.63181,-0.58032,0.31765,-2.30174,-14.16,-33.9,-19.38,21.762016,-49.269238,-173.675049,0.029318659533234353,0.39924651,0.1939097,0.89562362
6.3829,85162.9225,8.15465,6.4404,11.70286,0.00733,0.45326,-2.755,-13.92,-34.2,-19.32,23.511183,-47.936821,-176.379654,0.05446302635917392,0.39163318,0.19863907,0.89677185
6.4069,85162.9425,6.77559,5.17387,9.67257,0.59315,0.35675,-3.04516,-12.9,-34.56,-19.68,26.021269,-46.455151,-178.918579,0.08033579501743746,0.38229027,0.21050103,0.89615268
6.4238,85162.9625,5.83467,4.77164,7.98706,0.99021,0.03482,-3.21376,-11.82,-34.8,-19.86,29.072018,-45.089649,178.688889,0.10645195365314006,0.37376118,0.22754633,0.89285678
6.4429,85162.9835,5.0781,4.03184,6.2752,1.26938,-0.20769,-3.47521,-10.32,-35.52,-20.16,32.509365,-43.753143,176.122101,0.13437910913718987,0.36629784,0.24749914,0.8868553
6.4617,85163.0035,3.89537,3.30639,4.89375,1.36284,-0.49236,-3.67069,-8.58,-36.72,-19.98,35.963566,-42.547726,173.433914,0.1625848861055536,0.36101231,0.26744205,0.87847084
6.4801,85163.0236,2.85628,2.88022,4.07733,1.29198,-0.72143,-3.72689,-6.9,-37.56,-19.68,39.424305,-41.343262,170.421417,0.19219153960741037,0.35751271,0.28673127,0.86777431
6.5008,85163.0435,2.05183,2.89938,4.44124,1.22601,-0.9108,-3.72261,-4.98,-38.52,-19.2,42.679401,-39.996296,167.001419,0.22272259049260468,0.35520175,0.30370128,0.85556525
6.522,85163.0645,1.82199,2.89698,4.68306,1.28648,-0.72876,-3.75621,-3.06,-39.54,-18.36,45.931339,-38.253193,163.018555,0.25488523884406744,0.35280901,0.32005623,0.84150064
6.5447,85163.0845,1.39343,2.88501,3.89297,1.29015,-0.49541,-3.79958,-1.2,-40.68,-17.4,48.925911,-35.894577,158.814072,0.2846142336678853,0.34812072,0.33568004,0.82772315
6.6053,85163.1045,1.32878,2.99993,2.28886,1.20402,-0.1686,-3.98345,0.42,-41.04,-16.5,51.838352,-32.824032,154.096542,0.3137295794044281,0.34163323,0.35166934,0.81313539
6.6088,85163.1245,0.93853,2.81079,0.04788,0.77519,0.10629,-4.20825,1.74,-41.64,-15.18,55.227737,-28.422844,148.40715,0.3433246502005734,0.33163619,0.37313893,0.79555827
6.6128,85163.1445,0.47645,2.69827,-0.39983,0.24435,-0.03665,-4.45748,3.72,-41.52,-14.52,57.990063,-22.121023,140.95784,0.37449092958601155,0.31712154,0.39231318,0.77799797
6.6316,85163.1645,-0.14365,1.93212,-0.02873,-0.35003,0.0171,-4.72382,6.12,-40.5,-14.16,59.729111,-14.082672,131.532318,0.4089322040660015,0.29978713,0.40701124,0.75976574
6.6504,85163.1845,-2.29125,0.17238,-0.11013,-1.09528,0.18998,-4.77391,8.94,-40.2,-13.92,60.046623,-4.5238,120.667221,0.44536287298916577,0.27714849,0.41751519,0.74197149
6.6618,85163.2045,-5.69581,-1.2378,0.16999,-1.87902,-0.06658,-4.23574,11.58,-38.76,-14.22,58.558655,4.695138,110.29451,0.48160381191606255,0.24993308,0.42142135,0.72663283
6.6825,85163.2245,-9.22246,-1.10852,2.9736,-2.27303,-0.82284,-3.17039,14.04,-37.5,-14.1,55.633469,11.037334,102.628807,0.5152261088753425,0.22392839,0.41573346,0.7152369
6.6997,85163.2445,-10.82658,-0.08859,6.66546,-2.05067,-1.1973,-2.0635,15.78,-36.24,-14.46,51.009869,16.975466,95.6539,0.5522080297533916,0.18719152,0.4050591,0.70423913
6.7203,85163.2645,-10.87686,0.67756,8.16662,-1.62673,-1.06535,-0.97372,17.52,-34.98,-15.42,46.877014,19.688963,92.140656,0.5781787190521321,0.15892145,0.39107904,0.69821954
6.7426,85163.2845,-10.29507,1.79086,8.08043,-1.51861,-0.90103,0.16188,18.96,-33.6,-16.26,43.606007,20.834187,90.822044,0.5932286502660179,0.13688627,0.37800196,0.69746429
6.7603,85163.3045,-9.01656,3.81157,9.4164,-1.71348,-0.66768,1.06963,19.5,-32.4,-17.82,40.965576,20.668743,91.458961,0.5983570360772249,0.11996917,0.36380771,0.70371884
6.783,85163.3245,-6.36139,5.90889,11.22641,-1.88513,-0.19853,1.60108,19.92,-31.56,-18.84,38.655418,19.672806,93.657547,0.5948937594930213,0.10554452,0.34812769,0.71677673
6.8093,85163.3445,-4.37181,7.45076,12.29423,-1.85947,0.34086,1.60047,19.2,-30.84,-19.74,36.568432,18.57416,96.661385,0.585169250402795,0.09137928,0.33315754,0.73364353
6.8373,85163.3646,-5.14514,8.14986,11.89679,-1.73913,0.57177,1.55343,18.78,-30.66,-20.7,34.710106,18.049891,99.615433,0.5726059083301568,0.07575011,0.32166392,0.75027776
6.8412,85163.3843,-4.58011,9.59117,13.04122,-1.51067,0.49175,1.71714,18.12,-30.36,-21.18,33.215046,17.564337,102.620193,0.5579449421269969,0.06236892,0.31193274,0.76648909
6.8622,85163.4045,-3.14598,10.81221,13.26388,-1.11361,0.72876,1.65056,17.34,-30.36,-21.96,32.227051,16.669905,105.886238,0.5407114717405425,0.05434342,0.30307111,0.78283191
6.8853,85163.4246,-3.1795,11.30542,11.94467,-0.88637,0.82406,1.52228,17.16,-30.42,-22.56,31.595217,16.227411,108.849434,0.5229428666495767,0.0463373,0.29821923,0.79715049
6.9055,85163.4456,-2.90656,11.42274,12.54083,-0.68722,0.7141,1.6194,16.62,-30.6,-22.56,31.145611,15.959971,111.607208,0.5053300891462043,0.03881244,0.29506046,0.80998421
6.9225,85163.4655,-0.93374,11.91115,14.60942,-0.19792,0.8265,1.60047,16.74,-30.9,-23.16,30.990664,15.568814,114.514999,0.48596589579403654,0.03338166,0.29323512,0.82263964
6.9428,85163.4855,0.18435,11.38204,14.65251,0.41783,1.25777,1.26632,16.62,-30.9,-23.4,31.412472,15.607574,116.928062,0.4675136801382202,0.02886991,0.29695493,0.83211493
6.9664,85163.5056,-0.97683,9.47625,12.27986,0.92546,1.37933,1.05069,16.5,-31.08,-23.4,32.398418,16.424383,118.66127,0.45053348490893264,0.0228607,0.3074626,0.83783275
6.9827,85163.5255,-2.94008,7.50822,10.70448,1.2877,0.92057,1.14171,16.5,-31.38,-23.16,33.857471,17.364729,120.000252,0.4347835508212597,0.01885468,0.32148889,0.84098315
7.0059,85163.5455,-4.33111,5.48033,10.06044,1.8326,0.31398,1.53083,16.2,-31.98,-22.44,35.813663,17.652269,121.36969,0.41924251870504564,0.02145228,0.33640605,0.84297478
7.0257,85163.5655,-4.79798,4.03902,8.14029,2.2938,-0.15821,2.08122,16.08,-33.0,-21.6,38.376606,17.014187,123.102737,0.40220500974842477,0.03200581,0.35236043,0.84442222
7.0429,85163.5855,-3.62003,3.10289,6.38294,2.33167,-0.36652,2.55036,15.48,-34.14,-20.46,41.215443,15.55466,125.387749,0.3831185447118243,0.04742804,0.3679772,0.84590989
7.0676,85163.6055,-1.45089,2.77488,5.64553,2.03296,-0.24923,2.83808,14.94,-35.22,-19.44,43.905312,13.313363,128.473434,0.36139308075536064,0.06456824,0.38114166,0.84850281
7.0821,85163.6255,0.59616,3.53863,5.24809,1.62734,0.13195,2.78371,14.22,-36.54,-18.6,46.129658,10.536501,132.324829,0.3373647233290877,0.08039169,0.39098021,0.85255891
7.1014,85163.6455,1.14443,3.9624,4.4197,1.17958,0.5058,2.46606,13.26,-37.68,-17.94,47.75853,7.839205,136.440628,0.31278797408692877,0.09180558,0.39822683,0.85740936
7.1217,85163.6655,0.15802,3.24654,4.03184,0.84727,0.6127,2.25715,12.0,-38.52,-17.04,48.740574,5.616171,140.256775,0.2902433193857011,0.09812248,0.40276545,0.86250263
7.1417,85163.6855,-0.76136,2.14999,4.28802,0.62919,0.71105,2.39459,10.74,-39.42,-16.62,49.17556,3.623034,143.934387,0.2688441350428989,0.10140685,0.40434909,0.86829793
7.1658,85163.7055,-0.5363,1.62087,4.40054,0.49786,0.88453,2.65665,9.48,-39.9,-15.84,49.197903,1.54954,147.949478,0.2455740532144661,0.10308695,0.40344569,0.87538451
7.1827,85163.7255,0.00239,0.89783,4.01029,0.35736,1.13499,2.95903,8.16,-40.8,-14.76,49.205746,-0.780135,152.535233,0.21858417401214955,0.10484126,0.40294692,0.88253218
7.203,85163.7455,1.25456,0.22745,3.36625,0.15211,1.24372,3.36709,7.02,-41.34,-14.1,49.435802,-3.528477,157.918747,0.18651119859694495,0.10748851,0.40486142,0.88867712
7.2241,85163.7655,3.71341,1.10133,2.92571,-0.22052,1.38483,3.60105,5.1,-41.7,-13.56,49.187592,-6.648609,163.90332,0.15098840599911637,0.11037864,0.40400741,0.89543122
7.2427,85163.7855,6.72292,2.78446,4.11084,-0.70983,1.35734,3.4856,3.36,-41.94,-13.14,47.93874,-10.016557,170.190338,0.11316447122983199,0.11408105,0.3963947,0.90390849
7.2651,85163.8055,9.40921,4.79798,5.89213,-0.86193,1.72875,2.93154,1.68,-41.82,-13.56,45.608242,-14.004185,176.631348,0.07412114029137298,0.12363551,0.38122189,0.91317588
7.2825,85163.8256,8.83221,5.33189,4.85544,-0.74587,2.04518,2.05251,-0.42,-41.46,-13.92,43.401566,-16.404686,-178.372421,0.039687090421228005,0.1273468,0.36782277,0.92027938
7.304,85163.8466,7.1036,4.88896,3.20823,-0.79168,1.48624,1.52961,-1.5,-41.28,-14.4,41.683197,-17.653048,-174.790619,0.012562579362366839,0.12727782,0.35772586,0.92502689
7.3263,85163.8665,7.49625,5.00628,3.54102,-1.00548,0.83444,1.40804,-2.94,-41.1,-15.18,40.018982,-19.093082,-171.944962,0.00847305416335128,-0.13175252,-0.34754908,-0.92832059
7.3431,85163.8865,8.29591,6.05254,4.29999,-1.18935,0.41172,1.37567,-3.9,-40.86,-15.9,38.299755,-20.860989,-169.621246,0.024882089267621626,-0.1411431,-0.336766,-0.93061709
7.3718,85163.9066,9.40203,7.56568,6.05733,-1.2254,-0.20403,1.21012,-4.08,-41.16,-16.5,36.478413,-22.814394,-167.738678,0.03787887419096647,-0.15400402,-0.32510862,-0.9322834
7.3838,85163.9265,10.6111,8.78433,7.73567,-1.07085,-0.50396,0.9108,-5.28,-40.92,-17.1,34.785698,-24.959579,-166.427658,0.045953677658611455,-0.17028278,-0.31418136,-0.93283552
7.4035,85163.9465,10.54646,9.36612,7.3095,-1.01465,-0.72876,0.48808,-5.94,-40.56,-17.82,33.463505,-26.983208,-165.648605,0.0496829476822581,-0.18670681,-0.30566272,-0.93233174
7.4272,85163.9665,10.53688,9.50737,8.80109,-1.00671,-1.32863,0.09591,-6.84,-39.66,-18.54,32.336609,-28.636211,-165.732254,0.04723880236658182,-0.20217778,-0.29721916,-0.93196213
7.4453,85163.9865,10.50097,9.34457,11.03248,-0.6689,-1.50151,-0.31765,-7.68,-39.0,-19.44,31.378664,-29.914227,-166.677216,0.03857187752044724,-0.2164959,-0.28831944,-0.93194079
7.4639,85164.0065,9.4978,9.07163,11.2743,-0.12095,-1.64262,-0.74953,-7.8,-38.58,-19.68,31.090656,-31.21701,-167.858109,0.026426835434168378,-0.23046787,-0.28408495,-0.93031281
7.4838,85164.0265,8.54012,8.32464,10.49857,0.2364,-1.63101,-1.11055,-8.34,-38.28,-19.8,31.570253,-32.611897,-169.161774,0.011181827138225905,-0.24431334,-0.28543717,-0.92666692
7.5092,85164.0465,7.75721,7.41724,9.29669,0.281,-1.38239,-1.36528,-8.4,-38.52,-19.26,32.568771,-33.817303,-170.633423,0.006294719801826916,0.25634155,0.2901817,0.92197829
7.5233,85164.0665,7.44836,7.12275,8.68138,0.22174,-1.23456,-1.5913,-8.34,-38.4,-18.36,33.72871,-34.596142,-172.34259,0.02505716985270159,0.26542485,0.29536819,0.91743088
7.5433,85164.0865,7.19458,7.21373,8.6694,0.31643,-1.18752,-1.92056,-8.58,-38.28,-18.12,35.009911,-35.087307,-174.298843,0.04533182005139409,0.27285472,0.30073947,0.91271633
7.5647,85164.1065,6.57448,6.65109,8.38928,0.55589,-1.21684,-2.3164,-7.92,-38.82,-17.76,36.59169,-35.415634,-176.495468,0.06778278851756292,0.27950764,0.30774063,0.90696013
7.5955,85164.1265,5.54737,5.85861,7.63272,0.8265,-1.33169,-2.6707,-7.56,-39.18,-17.58,38.562469,-35.571999,-178.951477,0.09263673428188536,0.28543991,0.31704783,0.89967948
7.6115,85164.1475,4.81713,5.4109,6.74447,0.98533,-1.42087,-2.92299,-7.08,-39.9,-17.1,40.994068,-35.62014,178.234436,0.12082666302484875,0.29160082,0.32892412,0.89004427
7.6244,85164.1675,4.33351,5.25527,6.19619,1.07757,-1.52411,-3.18749,-5.64,-40.44,-16.74,43.480545,-35.473598,175.280533,0.1491711197423502,0.29726192,0.34084287,0.8793233
7.6544,85164.1876,3.36625,4.87459,6.03099,1.1808,-1.55282,-3.41046,-4.44,-40.44,-15.84,46.130943,-34.980122,171.874542,0.17962133509465528,0.3022936,0.35314056,0.86697549
7.6722,85164.2075,2.82037,4.60644,5.62159,1.25166,-1.41415,-3.57723,-2.88,-40.38,-14.82,48.868927,-34.020699,168.028595,0.21113839531902398,0.30613932,0.36562464,0.85323966
7.6877,85164.2285,2.50433,4.50349,4.07972,1.08734,-0.96089,-3.74705,-0.66,-40.44,-14.16,51.849445,-32.188511,163.425446,0.2444828435407708,0.30726343,0.37973246,0.83762795
7.7058,85164.2485,2.36068,4.80277,3.03345,0.73548,-0.69272,-4.05492,0.84,-41.04,-13.08,54.448009,-29.219238,158.189636,0.27609263827034264,0.30398837,0.39225262,0.82310498
7.7236,85164.2685,1.63045,3.87382,2.44687,0.36224,-0.33109,-4.39151,2.76,-41.7,-12.42,56.641144,-24.719572,151.644989,0.3090665538025769,0.29619151,0.40314281,0.80884135
7.7445,85164.2885,-0.19632,2.49236,1.26893,-0.03543,-0.24679,-4.52407,5.28,-41.94,-12.18,58.270233,-18.388384,143.562653,0.343471098166766,0.28283015,0.41288838,0.79470617
7.7646,85164.3085,-1.72383,1.97282,0.90501,-0.4612,-0.52962,-4.39029,7.14,-42.06,-12.12,59.403728,-10.400309,133.899643,0.380018484249164,0.26564485,0.42322713,0.77839422
7.7843,85164.3285,-2.80122,2.03268,2.60729,-0.76297,-0.78069,-4.29744,9.96,-41.34,-12.36,59.344852,-2.549885,124.169357,0.4164076934968432,0.24878678,0.42827865,0.76242191
7.8043,85164.3485,-5.20499,0.95768,4.1276,-0.7703,-0.98655,-4.0702,12.84,-40.44,-12.96,58.353207,4.593477,114.866585,0.45314236611177233,0.23271443,0.42935526,0.74576139
7.8244,85164.3685,-7.21373,0.17238,3.65595,-0.64446,-1.22234,-3.45566,14.82,-38.88,-13.2,56.923927,10.308681,106.857033,0.487306609594582,0.21937703,0.42825508,0.72869992
7.8522,85164.3893,-8.03494,0.79248,2.80361,-0.84177,-1.42454,-2.62977,17.16,-37.26,-13.8,54.53788,16.08707,99.099854,0.522224181427936,0.19968231,0.4259153,0.71134031
7.8776,85164.4095,-8.3007,1.48201,3.12443,-1.45691,-1.11727,-1.96882,18.66,-35.88,-14.76,51.441494,20.496395,93.005783,0.5542163373657674,0.17768207,0.42012143,0.69625521
7.8877,85164.4295,-9.76595,1.36948,3.41174,-2.09466,-0.99388,-1.29687,19.8,-34.74,-15.18,47.897892,23.436047,89.326836,0.5785171618434907,0.15222158,0.41140771,0.68767011
7.9107,85164.4495,-10.60631,2.05422,4.60644,-2.49905,-1.27854,-0.29749,20.76,-34.32,-16.86,44.102886,24.809685,87.777802,0.5964588105710125,0.12622583,0.39769199,0.68567121
7.9259,85164.4695,-8.56885,3.86185,7.56807,-2.58457,-1.61879,0.55528,21.12,-33.3,-18.0,40.55415,24.160757,88.421783,0.6068934376757822,0.10601595,0.37701899,0.69159067
7.9534,85164.4895,-5.51863,6.01423,10.75954,-2.47889,-1.02931,0.76175,21.18,-32.46,-18.96,37.491146,22.259953,90.406593,0.6106482934165384,0.09245986,0.35255271,0.70304084
7.9836,85164.5095,-6.54335,6.46913,11.08276,-2.57052,-0.41233,0.82955,21.0,-31.44,-20.76,34.68856,20.96265,92.574661,0.609415701361565,0.07705903,0.33187965,0.71591222
7.9959,85164.5295,-7.46273,6.36379,12.56238,-2.62611,-0.17959,1.41965,20.7,-30.72,-21.36,31.954348,20.075607,95.113777,0.6034539985562948,0.05925991,0.31309667,0.73095965
8.0074,85164.5496,-5.533,7.31189,14.46098,-2.06595,-0.38607,2.14597,19.92,-30.0,-22.68,29.552204,18.836199,98.496849,0.5910689900514173,0.04437893,0.29388925,0.7498647
8.027,85164.5695,-3.25611,8.9591,14.77462,-1.17469,-0.69761,2.4624,19.32,-29.22,-23.82,28.286715,16.661386,102.516403,0.572825358642611,0.04172092,0.27649781,0.77050596
8.049,85164.5895,-0.03591,11.50893,15.10262,-0.43249,-0.26939,2.23516,18.6,-28.92,-24.48,27.968235,14.306028,106.415375,0.5525459410695619,0.04684201,0.26437891,0.78905171
8.0661,85164.6096,0.47645,10.16578,14.38676,-0.02382,0.30788,1.64201,17.28,-28.5,-25.14,28.155281,12.905072,109.544762,0.5336290475402846,0.05037382,0.26031011,0.80308229
8.0864,85164.6295,-1.38864,7.69018,12.50252,0.34819,0.52779,1.6475,16.62,-28.68,-25.44,28.621105,12.366844,111.960793,0.5168949702186765,0.05097924,0.26207244,0.81335032
8.1117,85164.6505,-1.61609,6.24887,10.12508,0.71899,0.43005,2.00547,15.9,-29.04,-25.38,29.537855,11.96061,114.421349,0.49848213372671824,0.05260916,0.26769614,0.82285273
8.1304,85164.6705,-0.19393,6.20338,9.31344,0.97311,0.06414,2.15635,15.06,-29.82,-25.44,30.963312,11.036109,117.368248,0.47664747221693643,0.05892578,0.27515134,0.83284253
8.1497,85164.6905,1.78368,6.94079,9.07881,1.02809,0.22419,1.923,14.52,-30.84,-25.08,32.569721,9.622824,120.331337,0.4554484311068075,0.06917144,0.28244588,0.84143114
8.1663,85164.7105,2.4756,7.07726,7.72369,0.79412,0.50457,1.43248,14.1,-31.62,-24.66,34.098873,8.418037,123.029892,0.43582556149193724,0.07778206,0.2904737,0.84831071
8.1868,85164.7305,1.2785,6.61757,7.45315,0.47159,0.57238,0.93096,13.44,-32.52,-24.78,35.202618,7.693115,125.126373,0.4202051657097903,0.08226762,0.29723746,0.85341054
8.2183,85164.7505,-0.83797,5.00388,7.59201,0.40989,0.45082,0.79718,12.9,-33.06,-24.06,35.861149,7.440745,126.612267,0.40865658957144135,0.08285268,0.30220541,0.85720891
8.2348,85164.7704,-2.44687,3.94804,8.03015,0.54306,0.24374,1.09223,12.9,-33.3,-23.7,36.428707,7.177316,127.987282,0.39810023735869343,0.083349,0.30644256,0.86061728
8.2515,85164.7905,-2.28886,3.85466,8.12831,0.73731,0.24312,1.49967,12.42,-34.08,-23.52,37.128353,6.497882,129.783035,0.3852696159793128,0.08622784,0.31061706,0.86466706
8.2678,85164.8105,-1.10852,4.10366,7.69018,0.8094,0.45509,1.79167,12.06,-34.62,-23.04,37.951263,5.569689,132.096741,0.36901243032454983,0.08986131,0.31546664,0.86961806
8.2887,85164.8305,0.84515,4.76925,7.08444,0.69211,0.60903,1.84176,11.82,-35.28,-22.68,38.803329,4.531685,134.863632,0.34957793144908844,0.09295312,0.32082248,0.87534446
8.3127,85164.8505,1.76213,5.23373,6.92882,0.49175,0.76358,1.6585,11.1,-36.0,-22.8,39.479965,3.492073,137.68396,0.32997557136191025,0.09510656,0.32518893,0.88109195
8.3317,85164.8705,1.19231,5.14993,7.25922,0.46853,0.73793,1.46302,10.92,-36.24,-22.5,39.909992,2.656558,140.270721,0.3118717491024668,0.09544366,0.32829267,0.88648206
8.3516,85164.8905,0.13408,4.55377,6.91685,0.62797,0.65851,1.45447,10.5,-36.72,-21.78,40.3241,1.947453,142.554153,0.29573101356483017,0.09551404,0.33151034,0.89079803
8.3688,85164.9105,-0.59855,3.65116,6.09324,0.69455,0.55405,1.6811,9.84,-36.9,-21.54,40.843216,1.164828,144.854477,0.27954544540419823,0.09625956,0.33550152,0.89444238
8.3865,85164.9305,-0.72544,3.05021,5.36541,0.62369,0.49541,2.1423,9.24,-36.84,-21.0,41.296379,0.063147,147.52153,0.261498140233381,0.09811708,0.33870387,0.89848286
8.4086,85164.9506,0.66559,3.08613,5.35104,0.42516,0.43982,2.60778,8.16,-37.74,-20.4,41.517349,-1.657601,150.951035,0.239450937383606,0.10197368,0.3396771,0.9038164
8.4296,85164.9705,3.19147,3.93846,6.53138,0.26328,0.51801,2.80387,7.02,-37.98,-20.22,41.384892,-4.105621,155.184662,0.21323798391700982,0.10860173,0.33767679,0.91033489
8.4589,85164.9905,5.05177,4.35984,6.14592,0.08674,1.07451,2.62855,5.64,-38.88,-19.56,40.981018,-6.732933,159.740479,0.18470127662371597,0.11560962,0.33432645,0.91692185
8.4688,85165.0105,4.02705,3.32555,4.29999,-0.21075,1.29626,2.5467,4.74,-39.48,-19.2,40.296703,-8.669927,164.014725,0.15594632810301295,0.11802988,0.33026323,0.92340451
8.496,85165.0305,2.77727,2.28886,3.53863,-0.53512,0.70433,2.87962,4.02,-39.3,-18.84,39.180767,-10.464933,168.153885,0.12722841351207134,0.11991485,0.32324758,0.93002385
8.5128,85165.0505,5.00149,3.04303,5.95199,-0.37751,-0.41111,3.20338,3.24,-39.78,-18.78,37.552364,-13.426299,172.623367,0.09803644124263892,0.13101211,0.31188348,0.93592381
8.5346,85165.0706,8.17141,4.64715,7.09881,0.04887,-0.58948,3.0134,2.16,-39.54,-18.78,35.972633,-17.551212,177.329346,0.0690032030067254,0.1521816,0.30171052,0.93864268
8.553,85165.0905,9.31105,5.92804,5.8634,0.15333,-0.55589,2.46728,0.42,-39.48,-18.78,34.800465,-21.50452,-178.432404,0.04295939341774491,0.17398991,0.29620212,0.93816113
8.5714,85165.1105,9.56962,6.45716,5.21457,-0.06903,-0.5455,1.91018,-1.5,-39.18,-19.14,33.789951,-25.006605,-175.02153,0.022282723462894286,0.19463356,0.29245505,0.93599749
8.5896,85165.1305,9.25838,6.26802,5.04937,-0.40073,-0.55833,1.45936,-3.48,-38.58,-18.84,32.71965,-27.888353,-172.608795,0.007706061544412173,0.21311876,0.28770319,0.9336744
8.6104,85165.1515,9.5385,7.01501,6.55532,-0.59132,-0.75442,1.02564,-4.92,-37.92,-18.78,31.487316,-30.364649,-171.02034,0.0018774342708979667,-0.23079392,-0.28079236,-0.93160415
8.6384,85165.1715,10.5273,7.69975,8.16423,-0.55955,-0.54367,0.40928,-6.3,-37.68,-18.42,30.432926,-32.401775,-170.281296,0.005515845898984617,-0.246906,-0.27394381,-0.92949545
8.6504,85165.1915,9.98622,7.50103,7.89368,-0.48808,-0.2193,-0.19364,-7.5,-37.08,-18.6,29.82485,-33.682869,-170.285019,0.004019795107851345,-0.25810418,-0.26912722,-0.9278667
8.6726,85165.2115,9.35654,7.61596,7.35738,-0.44715,-0.27367,-0.69761,-8.16,-37.02,-18.84,29.671503,-34.331532,-170.919922,0.002192519581803509,0.26503831,0.26645863,0.92668748
8.6904,85165.2315,9.10036,7.73806,7.32147,-0.34208,-0.38729,-1.23578,-8.82,-36.84,-19.2,29.920853,-34.792606,-172.081894,0.013342726759574946,0.27114734,0.26569891,0.92504334
8.7072,85165.2515,7.96072,7.11078,7.19218,-0.18387,-0.71777,-1.77579,-8.7,-36.24,-19.56,30.627258,-35.083828,-173.762085,0.02944379628433043,0.27656996,0.26726466,0.92261136
8.7293,85165.2715,7.04853,6.82826,7.82904,0.01527,-1.03786,-2.18201,-7.92,-36.36,-19.62,31.788086,-35.447659,-175.930359,0.050789585525518,0.28334388,0.27109206,0.91850191
8.7503,85165.2915,6.74447,6.81869,9.07642,0.25412,-1.12338,-2.63405,-7.08,-36.18,-19.8,33.326221,-35.690655,-178.517227,0.0760647327928384,0.29002354,0.27672356,0.91297567
8.769,85165.3115,5.75806,6.08606,9.48583,0.60659,-0.97677,-3.07693,-6.06,-36.66,-19.86,35.365395,-35.552582,178.451294,0.10498602560923707,0.29475918,0.2852858,0.90592879
8.7894,85165.3315,4.63039,5.26485,7.56807,0.69455,-0.56322,-3.36403,-5.1,-37.14,-19.8,37.836979,-34.84679,175.09877,0.13558604752064052,0.29622355,0.29695231,0.89760089
8.8107,85165.3516,3.6751,4.956,5.4899,0.43433,-0.25168,-3.6096,-4.26,-37.62,-19.08,40.354843,-33.283535,171.284851,0.16682775233881444,0.2931442,0.30910084,0.88920844
8.8315,85165.3715,2.35111,4.38378,4.98712,0.1405,-0.22969,-3.77637,-3.3,-38.1,-18.84,42.55368,-30.820765,166.778046,0.19920858977189873,0.28624645,0.31899443,0.88126129
8.8538,85165.3934,1.08936,4.23055,5.52821,0.0843,-0.3769,-3.86372,-1.32,-38.16,-18.78,44.491428,-27.556093,161.25383,0.23536221094200727,0.27737391,0.32687634,0.87225008
8.8814,85165.4145,0.29449,4.10127,5.35344,0.05437,-0.1686,-3.992,0.72,-38.52,-18.78,46.276794,-23.585735,154.894287,0.274028177367761,0.26704353,0.33461878,0.86117744
8.9126,85165.4345,-1.03669,3.19147,4.34308,-0.2584,0.25962,-4.00178,2.88,-38.82,-19.2,47.498562,-18.975861,148.469009,0.3091793034751891,0.25313133,0.34128854,0.85079658
8.9233,85165.4545,-2.4349,2.96402,3.49314,-0.83444,0.54184,-3.79042,5.82,-38.58,-19.5,47.950115,-13.284273,141.523407,0.3434242633183432,0.23277524,0.34624839,0.84141994
8.9332,85165.4755,-3.73735,3.07176,4.83868,-1.19546,0.43982,-3.42818,7.86,-38.46,-19.44,47.260998,-7.15316,134.481766,0.37678737257439576,0.20746665,0.34679785,0.83349872
8.9541,85165.4955,-4.07733,3.16753,5.92565,-1.15392,0.3543,-3.0189,10.14,-38.16,-19.44,45.69458,-1.353169,127.943771,0.40847593305078805,0.18014675,0.34409744,0.82600939
8.9784,85165.5155,-4.57053,3.37582,6.45956,-0.9896,0.17715,-2.68231,12.06,-36.96,-19.74,43.903393,3.359361,122.653259,0.4352238245860837,0.15543728,0.34088597,0.81866735
8.9953,85165.5355,-5.31034,3.70622,6.51223,-0.98655,-0.03299,-2.3219,13.2,-35.7,-19.62,42.059059,7.293558,118.206718,0.4587338435622015,0.1329484,0.33778849,0.81104064
9.0122,85165.5555,-6.38773,3.45244,7.36696,-1.00182,-0.20403,-1.78556,14.58,-34.44,-20.28,40.053841,10.381004,114.624924,0.4792452150594005,0.11265451,0.33294678,0.80422598
9.0358,85165.5765,-6.59842,3.45244,7.42921,-0.96211,-0.25717,-1.11544,15.66,-33.42,-20.7,38.071049,12.629869,112.094971,0.4950029266190469,0.09480342,0.3269763,0.79941911
9.0544,85165.5966,-5.9448,3.80678,7.62074,-0.96944,-0.31337,-0.55222,16.92,-32.58,-20.94,36.216019,14.070481,110.66777,0.5052417371139976,0.07970726,0.31992525,0.79751199
9.074,85165.6165,-5.22415,4.34069,7.83862,-1.01892,-0.21441,-0.24374,17.76,-32.34,-21.54,34.612499,14.886333,110.152664,0.5103653422467178,0.06746159,0.31265625,0.798262
9.0984,85165.6365,-5.9041,4.25689,7.94396,-1.15331,-0.17776,0.01283,18.3,-31.68,-21.84,33.05912,15.536217,110.129837,0.5124183638576908,0.05520057,0.3053039,0.80073082
9.1159,85165.6566,-6.59363,3.58891,8.60955,-1.24067,-0.11118,0.4331,18.54,-30.9,-22.2,31.455086,15.989705,110.580078,0.5117853215287624,0.04279634,0.296893,0.80504584
9.1423,85165.6765,-6.44519,3.23935,9.11233,-1.27304,0.05376,0.92241,18.6,-30.78,-22.62,29.905569,16.21413,111.691818,0.5068777828523361,0.0306622,0.28788051,0.811948
9.1694,85165.6965,-5.93283,4.12042,10.38365,-1.33535,0.20281,1.34451,18.72,-30.12,-23.28,28.487967,16.26219,113.48632,0.49708866761227694,0.0189388,0.27886423,0.82144928
9.1774,85165.7175,-4.38139,4.55138,12.41394,-1.22784,0.50824,1.72325,18.18,-29.58,-23.58,27.178808,16.096857,115.888565,0.4829224250473468,0.00813544,0.26940581,0.8331508
9.1984,85165.7375,-2.43011,5.14275,13.70441,-0.87232,0.81306,1.98959,18.0,-29.52,-24.42,26.181719,15.849253,118.922295,0.4632958226357912,-0.00167097,0.26144898,0.84675771
9.2137,85165.7575,-0.67756,6.61278,12.82095,-0.44471,1.13743,2.03174,17.28,-29.16,-24.78,25.911625,15.722004,122.048691,0.4408436766413212,-0.00901415,0.25886241,0.85939854
9.2351,85165.7775,0.52194,8.26239,12.45703,-0.17165,1.09345,1.9114,17.04,-29.58,-24.66,26.118916,15.807256,125.053375,0.4175671183229481,-0.01559055,0.26037121,0.87040305
9.2542,85165.7983,1.61369,9.35654,12.25113,0.21991,1.08367,1.52105,17.1,-30.24,-24.96,26.735037,15.686822,127.84951,0.3953024285094371,-0.01858345,0.26408058,0.87957495
9.2781,85165.8185,1.04387,9.70849,10.63983,0.63286,0.87354,1.14476,16.68,-30.72,-24.9,27.811285,15.72897,130.089859,0.37587697861656694,-0.0199795,0.27187535,0.88566422
9.2976,85165.8395,-0.26336,9.31344,9.47146,0.9108,0.38546,0.97738,16.62,-31.26,-25.02,29.330175,15.589783,131.747681,0.3604400696233317,-0.01722166,0.28254989,0.8887924
9.3241,85165.8596,-1.6496,8.78193,9.06205,1.09284,0.06353,1.04824,16.26,-31.62,-24.66,31.011902,15.077612,133.088364,0.34806279143276575,-0.01048363,0.2934491,0.89029771
9.3379,85165.8795,-2.83473,8.32943,8.28154,1.19058,-0.02321,1.24983,16.08,-32.46,-24.06,32.848873,14.353103,134.406097,0.3361797228284223,-0.00177061,0.30505097,0.89102411
9.3608,85165.8995,-3.11246,8.03734,6.66785,1.02748,-0.07758,1.48318,16.02,-33.06,-23.28,34.74527,13.521661,135.939163,0.32291406557454505,0.00706885,0.31700322,0.89173174
9.3822,85165.9196,-3.83072,7.66623,6.608,0.67684,-0.43921,1.69882,15.48,-33.66,-22.5,36.412212,12.416046,137.760391,0.30875710953828256,0.0160917,0.32675418,0.89310795
9.3977,85165.9395,-3.12443,7.99903,10.58237,0.75931,-0.57971,1.64139,15.0,-34.32,-21.96,37.621479,10.657578,139.923859,0.29480864856400785,0.02741701,0.33173692,0.89570463
9.4179,85165.9605,-2.02789,6.74447,13.27345,1.4282,-0.23824,1.34696,14.16,-34.68,-21.78,38.951878,8.802912,141.994736,0.28188223309044846,0.03983214,0.3378706,0.89710605
9.4366,85165.9805,-1.74058,5.10683,11.92312,2.08549,0.14844,1.17103,13.32,-35.4,-21.54,40.665974,7.788103,143.400391,0.27134032816605225,0.04839215,0.34913573,0.89562094
9.4569,85166.0005,-2.45645,3.60327,8.96868,2.25654,0.45815,1.16003,12.9,-36.54,-21.24,42.769787,7.434586,144.466064,0.26102702729177124,0.05354128,0.36493149,0.89208925
9.477,85166.0205,-3.32076,2.98078,6.95037,2.08183,0.45693,1.38789,12.18,-37.26,-20.76,44.794865,7.386515,145.514313,0.250050936341723,0.05583195,0.38080215,0.88845205
9.5001,85166.0405,-2.23618,2.81798,6.74686,1.88818,0.6805,1.58886,11.64,-37.92,-19.74,46.506393,7.029402,146.977036,0.23742512321715828,0.05799054,0.39381084,0.88610351
9.5225,85166.0605,-1.43652,2.27449,5.81073,1.62612,1.14354,1.70676,10.98,-38.7,-18.48,47.886486,6.702501,148.789185,0.22259213458534022,0.05752914,0.40457532,0.88513386
9.5377,85166.0805,-1.10373,1.6496,4.76446,1.27365,1.55526,1.94255,10.14,-39.18,-16.86,48.896317,6.587824,151.038376,0.20423412748233144,0.05267518,0.4131391,0.88590622
9.5592,85166.1005,-0.577,1.42694,3.56257,0.86743,1.86131,2.21255,9.12,-40.26,-15.9,49.44733,6.426548,153.881973,0.18208211635190197,0.04475715,0.41828948,0.88875014
9.5787,85166.1205,-0.08619,1.09894,2.72221,0.44043,1.95599,2.52898,8.52,-41.34,-14.94,49.711224,5.951315,157.475159,0.1555726725009153,0.03578557,0.42088208,0.89295846
9.5971,85166.1406,1.16119,1.22823,1.94888,0.02566,1.83932,2.8338,7.62,-41.94,-14.46,50.390675,4.681849,161.996994,0.12428290320289613,0.03004617,0.42589459,0.89569235
9.6178,85166.1605,3.56018,2.48279,2.48279,-0.34697,1.40927,2.99141,6.48,-42.72,-14.22,50.527416,2.695416,167.088516,0.09167933926221268,0.02683724,0.4263531,0.89949858
9.6403,85166.1805,6.14352,4.05099,3.73256,-0.46487,1.16431,2.76661,5.88,-43.14,-13.62,50.065998,-0.198589,172.527451,0.059772756865592816,0.02914038,0.4221378,0.90408945
9.6794,85166.2015,6.93361,5.00628,3.64876,-0.46792,1.06657,2.1924,4.56,-42.66,-13.56,49.102818,-4.530795,178.756378,0.026283398920647648,0.04045821,0.4147701,0.90864629
9.6855,85166.2216,6.37336,5.18345,3.02627,-0.57116,0.66462,1.82404,3.12,-42.9,-12.96,48.163254,-8.121454,-176.394882,0.0,0.05181574,0.40884554,0.9111315
9.71,85166.2415,6.83545,5.36541,3.74453,-0.66279,0.18998,1.71164,1.92,-42.36,-12.66,47.052715,-11.648911,-172.294632,0.020870302450700796,-0.06615283,-0.40246457,-0.91280365
9.7185,85166.2615,7.66384,6.42843,4.34069,-0.697,-0.06048,1.4899,0.6,-42.06,-13.26,45.807346,-15.235297,-168.732346,0.038288768217913674,-0.08365165,-0.39587268,-0.9136855
9.7416,85166.2815,7.49864,7.04614,4.15155,-0.78985,-0.18387,1.22601,-0.78,-42.12,-12.96,44.559143,-18.461535,-165.915085,0.05162413268288974,-0.10143507,-0.38959235,-0.91392761
9.7616,85166.3015,7.43639,7.31668,3.79002,-0.96578,-0.51068,1.02686,-1.86,-41.94,-13.68,43.301956,-21.314955,-163.787735,0.061246748217829335,-0.11904488,-0.38320225,-0.91391093
9.7785,85166.3225,8.53772,8.19056,5.31273,-1.16553,-0.90042,0.79962,-2.7,-41.94,-14.58,41.814968,-24.127665,-162.329483,0.06661295979414918,-0.13932243,-0.37482566,-0.91414315
9.7983,85166.3425,9.39724,9.11712,6.74447,-1.2315,-0.85827,0.40928,-3.72,-41.28,-14.76,40.33667,-26.612129,-161.667282,0.0671810703950036,-0.15983234,-0.36565468,-0.91445994
9.8179,85166.3625,9.05966,9.54089,7.3909,-1.19852,-0.87965,-0.13195,-4.68,-40.86,-15.12,39.053696,-28.401201,-161.847458,0.06316282916064048,-0.17719698,-0.35645053,-0.91518015
9.8412,85166.3825,8.1762,9.39006,8.01339,-1.06963,-1.00854,-0.55833,-5.1,-40.08,-15.9,38.12516,-29.65803,-162.820435,0.0538139642415859,-0.19203101,-0.34831142,-0.91591883
9.8616,85166.4025,7.30471,8.88009,9.00938,-0.84422,-1.10811,-0.88514,-5.4,-39.48,-16.5,37.583359,-30.626247,-164.351822,0.04001878561953257,-0.20539407,-0.34183469,-0.91616637
9.8862,85166.4246,6.17943,8.30549,9.42358,-0.56872,-1.19852,-1.06901,-5.76,-39.24,-16.92,37.416779,-31.384306,-166.287369,0.022724419218291134,-0.21748178,-0.33717105,-0.91569698
9.9117,85166.4445,5.54018,8.07804,9.2919,-0.35003,-1.22173,-1.14171,-5.16,-38.94,-17.76,37.588158,-31.976463,-168.365372,0.003955745588760482,-0.22802046,-0.33454013,-0.91437078
9.9253,85166.4654,5.31752,8.16423,9.35654,-0.20769,-1.29748,-1.23334,-4.98,-38.88,-17.94,38.011345,-32.480263,-170.491928,0.015529783417616325,0.23759513,0.33350611,0.91218477
9.9464,85166.4855,5.43723,8.16902,9.90002,-0.01038,-1.248,-1.39216,-4.56,-39.12,-18.24,38.613125,-32.93145,-172.587662,0.035012002596249106,0.24644747,0.33369163,0.90922368
9.9645,85166.5065,5.1619,8.14747,10.1993,0.28466,-1.1637,-1.61818,-3.78,-39.36,-18.78,39.577202,-33.251152,-174.842407,0.05620025364684687,0.25435206,0.33618221,0.90505695
9.9857,85166.5265,4.72615,7.75482,9.73722,0.59437,-1.01465,-1.82832,-3.48,-39.72,-18.48,40.872013,-33.323509,-177.115265,0.0774820191533423,0.26017061,0.34115809,0.89995497
10.0074,85166.5465,4.23055,7.24246,8.5042,0.84544,-0.92913,-2.01341,-3.06,-40.08,-18.18,42.521606,-33.121265,-179.442459,0.09900756469047206,0.26393634,0.34886032,0.89377379
10.0242,85166.5665,4.42209,7.15387,7.05332,0.93096,-0.85338,-2.21255,-3.18,-40.2,-17.58,44.429768,-32.723206,178.155777,0.12078651956304085,0.26659307,0.3585262,0.88645232
10.0454,85166.5865,4.02465,6.69419,5.85622,0.89736,-0.84971,-2.52837,-2.94,-40.38,-16.5,46.48505,-31.972988,175.45549,0.1436195001868046,0.26790115,0.36903098,0.87830436
10.0626,85166.6065,3.07894,5.92325,5.15232,0.81978,-0.94257,-2.71957,-1.98,-40.86,-16.2,48.584682,-30.788271,172.224411,0.16853810165538313,0.26828936,0.37931499,0.8693307
10.0838,85166.6265,2.26252,5.27443,4.84347,0.73976,-1.07512,-2.81487,-0.84,-41.1,-15.84,50.55925,-29.251444,168.506805,0.19489254876877338,0.26854831,0.38826036,0.85973984
10.1036,85166.6465,1.49159,4.70461,4.73573,0.67928,-1.08551,-2.81731,0.96,-41.52,-15.42,52.381248,-27.396933,164.336151,0.22234278080320205,0.26894882,0.3958481,0.84943187
10.124,85166.6665,1.10133,4.53462,4.43406,0.58093,-1.07573,-2.74828,2.46,-41.58,-14.64,54.000916,-25.168627,159.845795,0.2495453133209,0.26866245,0.40228817,0.83887535
10.1468,85166.6865,0.77572,4.45561,4.60166,0.55344,-1.21318,-2.72568,3.9,-41.22,-14.04,55.339287,-22.655706,155.060364,0.27656835776210054,0.26817268,0.40702295,0.8282063
10.1644,85166.7065,0.61531,4.65433,4.43406,0.6463,-1.25594,-2.78921,5.4,-40.98,-13.8,56.563049,-19.961557,150.008743,0.3037324665486152,0.26817051,0.41125062,0.8165195
10.1892,85166.7266,0.36152,4.47716,3.33273,0.49969,-1.06596,-2.9572,6.42,-40.98,-13.14,57.793186,-16.870739,144.558884,0.3311185094823498,0.26782763,0.4162319,0.8033554
10.2035,85166.7476,-0.53151,3.73495,2.21224,-0.09407,-0.57055,-3.05982,8.1,-40.86,-13.02,58.7383,-12.472323,138.038086,0.3599350851756448,0.26295418,0.42131299,0.78980833
10.2235,85166.7675,-3.11964,2.62405,2.2314,-0.75992,-0.34453,-2.90344,9.6,-40.68,-12.96,58.876045,-6.960944,131.044662,0.38733208461967233,0.25138259,0.4245775,0.77879047
10.2604,85166.7875,-4.50828,2.87783,3.17471,-1.00854,-0.53084,-2.34633,10.92,-40.44,-12.84,58.029621,-1.575405,124.445992,0.41340313304440796,0.23665741,0.42350087,0.77054405
10.2726,85166.8085,-4.14915,3.74932,3.7589,-0.91691,-0.85216,-1.77762,12.72,-40.02,-13.38,56.610489,2.785995,119.015694,0.43668521075626293,0.22208858,0.41933027,0.76429367
10.2898,85166.8285,-3.20105,4.67348,3.47638,-1.05496,-0.90164,-1.4673,13.98,-39.0,-14.28,55.066734,6.14664,114.428314,0.45864470415000996,0.20998849,0.41381133,0.75783247
10.3105,85166.8485,-1.49877,5.82988,3.08134,-1.56381,-0.77946,-1.46302,15.12,-38.22,-14.94,53.456146,8.374094,111.145248,0.47651916401055333,0.19980712,0.40685663,0.75330889
10.3264,85166.8685,0.06704,5.89452,4.03662,-2.069,-0.84299,-1.79839,16.2,-37.68,-15.96,51.324432,9.859303,108.599869,0.49381638883718315,0.18887576,0.39558268,0.75098979
10.349,85166.8885,-1.12767,4.26647,5.3247,-2.37199,-0.76297,-2.29197,16.56,-36.54,-16.8,48.481628,11.168712,105.992065,0.5142910534025924,0.17507863,0.37972918,0.74877095
10.3678,85166.9085,-3.24654,3.03106,4.18267,-2.62977,-0.87659,-2.38665,17.1,-35.94,-17.46,45.180332,13.024987,102.91552,0.5374960342007091,0.15590295,0.36376229,0.74462694
10.3841,85166.9285,-4.98712,2.36308,6.30393,-2.98835,-1.39705,-2.17529,17.94,-34.5,-18.48,41.288982,14.387662,100.199013,0.5616698554533198,0.13447727,0.34351623,0.74056697
10.4045,85166.9485,-6.76601,1.7741,9.30147,-3.01706,-1.3494,-1.80999,18.42,-32.88,-19.68,36.88102,14.868056,98.19622,0.5849903282863851,0.11260293,0.31744155,0.73779249
10.4245,85166.9685,-8.51618,1.86748,10.60631,-2.88023,-1.22845,-1.16797,19.02,-31.26,-21.12,32.535175,15.042093,96.930084,0.6036076970370184,0.09009008,0.29119861,0.73671222
10.4579,85166.9885,-8.16423,2.10929,12.1003,-2.67437,-0.98533,-0.41172,19.5,-29.52,-22.62,28.575962,14.793681,96.67469,0.6150842041334449,0.06948701,0.26577228,0.73905891
10.4735,85167.0085,-8.07325,2.6025,13.06037,-2.43674,-0.94562,0.26817,18.9,-28.02,-24.42,25.101631,14.357631,97.327003,0.6192533985721669,0.05081277,0.24244878,0.74509186
10.492,85167.0285,-7.59201,4.18267,15.59344,-1.94499,-0.85582,0.93707,18.54,-26.7,-25.56,22.256701,13.545382,98.809837,0.6167351186807457,0.03685108,0.2208288,0.7546618
10.5109,85167.0505,-6.22253,5.27203,17.16643,-1.2706,-0.39462,1.40804,18.0,-25.38,-26.88,20.442896,11.955289,101.188004,0.6070606360767582,0.03284797,0.20142698,0.76800102
10.5352,85167.0706,-4.03662,5.75327,17.27177,-0.84177,0.26939,1.7764,17.22,-23.94,-27.72,19.427408,10.911191,103.865997,0.5923604394911406,0.02978377,0.19001463,0.78237873
10.5513,85167.0905,-2.07098,6.4835,16.51999,-0.44776,0.75869,1.92056,16.68,-23.52,-27.84,18.961075,10.600018,106.664291,0.5742967386971395,0.02486213,0.18596098,0.79685861
10.5686,85167.1115,-1.76692,6.6487,15.19121,0.15149,0.80512,1.85092,16.14,-22.92,-28.38,19.006744,10.750456,109.440056,0.5545145169283232,0.01951769,0.18755275,0.81052864
10.6128,85167.1315,-1.99198,6.14831,13.98693,0.78985,0.59865,1.9511,15.48,-23.04,-27.9,19.781868,10.91962,112.112679,0.5340237955336748,0.01771922,0.19419287,0.82267475
10.616,85167.1515,-1.63285,5.75327,12.78504,1.26144,0.53145,2.0519,15.18,-23.88,-27.78,21.242863,10.815131,114.677681,0.513438985819078,0.02104974,0.20447023,0.83314419
10.6362,85167.1715,-1.18992,5.34386,10.55843,1.53449,0.44532,2.13925,14.94,-24.24,-27.54,23.198572,10.58326,117.267654,0.49186934925037906,0.02707081,0.21797329,0.84250778
10.6492,85167.1915,-0.35674,4.87699,9.65103,1.62551,0.23274,2.15147,14.7,-25.2,-26.94,25.370495,10.063757,119.884018,0.47009678827744106,0.03550439,0.23219065,0.85078549
10.67,85167.2115,-0.42617,4.57293,9.05248,1.68416,0.27428,2.16307,14.7,-26.34,-26.76,27.582241,9.240769,122.517815,0.4486355733761933,0.04566123,0.24595296,0.85799086
10.6869,85167.2315,-0.16041,4.44843,7.85538,1.56015,0.34575,2.18568,14.22,-27.06,-26.28,29.757568,8.340282,125.201134,0.42700621493982965,0.05545644,0.25970873,0.86437356
10.7081,85167.2515,-0.32561,3.83791,7.30232,1.39033,0.20647,2.19484,13.8,-28.56,-25.8,31.659056,7.329647,127.979156,0.405371713390065,0.06411015,0.27161437,0.87051094
10.7313,85167.2715,-0.67038,3.16992,7.34302,1.42026,0.12645,2.32312,13.14,-30.3,-24.96,33.255791,6.004693,130.874329,0.3841297678668887,0.07314367,0.28076446,0.87650764
10.7518,85167.2915,-0.83797,2.71502,6.15789,1.40804,0.06414,2.46362,12.3,-31.26,-24.06,34.721741,4.482722,134.004532,0.36186887583400795,0.08212911,0.28904667,0.88247252
10.7765,85167.3115,-0.63446,2.4756,5.9472,1.27671,-0.17593,2.63283,11.52,-33.06,-23.4,35.989807,2.676264,137.376144,0.3388515073374551,0.09155785,0.2958,0.88842511
10.7882,85167.3315,0.52194,2.30801,6.77559,1.23822,-0.20097,2.69208,10.62,-34.14,-22.8,36.934635,0.332324,141.095795,0.3150021735299313,0.10289411,0.29959762,0.89466625
10.8159,85167.3516,0.47645,1.69031,6.29914,1.23517,-0.10263,2.71163,9.66,-34.8,-22.68,37.617363,-2.067886,144.934143,0.2906679333685055,0.11339884,0.30223542,0.9007256
10.8306,85167.3715,0.02634,1.38624,6.53617,1.30053,-0.2645,2.89306,8.64,-35.52,-22.56,38.059879,-4.491711,148.815567,0.2662111416413747,0.12325715,0.30386403,0.90642482
10.8505,85167.3915,1.0726,1.29287,6.22014,1.36589,-0.18815,3.15023,7.08,-36.12,-22.26,38.333492,-7.294808,153.076569,0.23975820497853362,0.13471512,0.30466279,0.91189277
10.8691,85167.4125,3.08134,2.0231,7.07487,1.4166,-0.24801,3.29073,5.76,-37.14,-21.9,38.446297,-10.725968,158.109039,0.2087164398493907,0.1488906,0.30508631,0.91716486
10.8903,85167.4326,5.53539,2.31759,6.6056,1.47341,0.42822,3.24064,4.2,-37.92,-21.24,38.343399,-14.354955,163.272614,0.17690712309496454,0.1641521,0.30519566,0.92120224
10.9101,85167.4525,6.2345,2.79643,4.34308,1.14049,0.93096,3.02256,2.1,-39.18,-20.16,38.129105,-17.447245,168.539139,0.14257229047554384,0.17486963,0.30692789,0.92460209
10.9307,85167.4725,6.48829,3.36385,3.6751,0.6915,0.79351,2.89672,0.54,-39.72,-19.26,37.537853,-20.107071,173.543625,0.10857708318077584,0.18286365,0.30700132,0.9276433
10.9488,85167.4926,7.74285,3.95762,5.17148,0.58093,0.66096,2.69575,-1.38,-39.66,-18.36,36.516716,-22.823915,178.153442,0.07698078258246872,0.19282444,0.30404067,0.92975909
10.9808,85167.5125,9.53611,4.79319,6.52899,0.72571,0.98777,2.39459,-3.36,-39.96,-17.52,35.494125,-25.341007,-177.61113,0.0474737667572383,0.20266104,0.30168256,0.93040979
10.99,85167.5325,10.79067,6.34463,5.1595,0.66523,1.42698,1.73669,-4.74,-39.78,-17.16,34.819351,-27.222237,-173.772781,0.019935336250896375,0.20842367,0.30256632,0.92984718
11.0149,85167.5525,9.79468,6.75644,2.60489,0.2645,1.63468,0.96211,-5.52,-39.66,-16.74,34.515404,-28.218904,-170.873489,0.001608515905375635,-0.20917141,-0.30532944,-0.92898798
11.0313,85167.5725,7.98706,5.89213,1.43413,-0.36591,1.19302,0.43982,-6.54,-39.54,-16.08,34.262306,-28.55274,-169.164673,0.015122467976429197,-0.20765367,-0.30643779,-0.92884183
11.0553,85167.5935,6.29436,4.73094,2.28886,-0.79168,0.47831,0.39095,-6.54,-39.36,-16.26,33.697815,-29.024218,-168.361679,0.02168456337326508,-0.2101419,-0.30347103,-0.9291262
11.0702,85167.6135,5.80594,4.52744,3.43568,-0.92485,-0.26328,0.5565,-6.78,-39.12,-16.32,32.737591,-30.019054,-167.893677,0.02514541638196186,-0.21839295,-0.29688916,-0.92926264
11.091,85167.6335,6.56251,5.43963,4.93445,-0.85216,-1.00732,0.70616,-7.02,-39.12,-16.56,31.66342,-31.745192,-167.461868,0.026881728085608746,-0.23289645,-0.28957438,-0.92799962
11.1096,85167.6535,8.73644,6.79474,6.28239,-0.65729,-1.48685,0.60476,-6.72,-39.12,-17.4,30.619144,-34.171722,-167.029846,0.02704984024677478,-0.25306004,-0.28277224,-0.92480743
11.1297,85167.6735,9.74919,7.57765,6.63433,-0.49052,-1.59253,0.1124,-7.38,-38.64,-17.58,29.910704,-36.801216,-166.891678,0.02370544324012132,-0.2750234,-0.27808127,-0.92003858
11.1497,85167.6935,9.15064,7.67821,6.62476,-0.55344,-1.51678,-0.40378,-8.4,-38.16,-18.3,29.6796,-39.124699,-167.343307,0.01516559972104222,-0.29509085,-0.27553931,-0.91475105
11.1782,85167.7136,8.837,7.45554,6.88572,-0.85216,-1.20524,-0.77458,-9.3,-37.68,-18.84,29.683859,-40.865692,-168.483063,0.0018804131837108675,-0.31167462,-0.27268454,-0.91021895
11.1908,85167.7335,8.55688,7.34541,7.513,-1.11849,-0.82161,-1.09467,-9.84,-37.44,-18.48,29.696362,-41.799255,-170.292374,0.014679552264503343,0.32332698,0.26771662,0.90750867
11.216,85167.7535,8.12113,7.42921,8.63589,-1.14293,-0.57788,-1.43798,-10.02,-37.14,-18.54,29.7374,-41.886154,-172.690247,0.033992279322545664,0.32949224,0.26118767,0.90667546
11.2336,85167.7736,7.42681,7.30471,8.91122,-0.93401,-0.52534,-1.74891,-9.18,-37.02,-18.18,30.014174,-41.437817,-175.416031,0.05540337563366046,0.33175817,0.25566447,0.90636784
11.2517,85167.7935,7.02698,7.31189,9.06684,-0.64141,-0.56505,-2.05129,-8.46,-36.54,-18.24,30.675964,-40.845375,-178.246567,0.07846054353630263,0.33268228,0.25300619,0.90507144
11.274,85167.8135,6.66067,7.14909,8.64067,-0.47953,-0.48381,-2.35672,-8.1,-36.54,-18.96,31.74744,-40.116714,178.823166,0.10308425158826746,0.33251944,0.25352603,0.90251261
11.2902,85167.8336,6.49068,7.17782,8.50899,-0.36285,-0.39645,-2.71713,-7.14,-36.48,-19.32,33.131287,-39.098354,175.646545,0.1296409468203219,0.33070064,0.25630245,0.89896572
11.3105,85167.8535,5.70059,6.81629,8.29351,-0.18204,-0.33537,-3.0867,-6.54,-36.96,-19.5,34.828072,-37.695576,172.112381,0.1585596849690965,0.3269985,0.26135597,0.8942169
11.3327,85167.8745,4.91051,6.1938,7.63272,0.02627,-0.20036,-3.44895,-5.88,-37.56,-19.8,36.835453,-35.924686,168.246063,0.1893346178139261,0.32183105,0.26900408,0.88781416
11.3526,85167.8945,3.58173,5.17866,6.3159,0.06903,-0.06292,-3.68596,-4.68,-38.1,-20.04,39.151058,-33.512489,163.768402,0.2229938573618733,0.31420842,0.27926168,0.87952244
11.3736,85167.9145,2.46842,4.73573,5.62398,-0.04643,-0.08369,-3.76965,-3.0,-38.22,-20.22,41.274261,-30.640324,159.024673,0.25585611722867796,0.30500188,0.28923815,0.87054741
11.3937,85167.9355,2.61926,5.14993,6.32788,-0.15882,-0.15882,-3.93947,-1.02,-38.22,-20.58,43.121674,-27.241575,153.569122,0.2908868346586974,0.29486656,0.29762506,0.86014992
11.4123,85167.9555,1.74298,4.05817,6.40688,-0.09713,0.135,-4.2168,1.38,-38.22,-20.64,44.523567,-23.463686,147.774704,0.32547906126809656,0.28372529,0.30413052,0.84915721
11.4321,85167.9755,-0.67038,2.69348,5.10204,-0.15149,0.22113,-4.2559,4.02,-37.8,-20.7,45.686577,-18.710884,141.307999,0.3607735078623917,0.26824346,0.31179196,0.83706254
11.4523,85167.9955,-2.25534,2.29604,4.91051,-0.36591,0.02505,-3.99811,6.12,-37.56,-20.52,46.268398,-13.428933,134.405273,0.39621970754299196,0.25030887,0.31804895,0.82413608
11.4749,85168.0155,-3.10767,1.98,5.7796,-0.5058,0.06414,-3.64503,8.4,-37.2,-20.7,46.021675,-8.200373,127.61013,0.4303421159159594,0.23116674,0.32080948,0.81144863
11.4994,85168.0355,-3.96719,2.0662,5.86101,-0.60964,0.03787,-3.23575,10.68,-36.72,-20.46,45.130951,-3.098871,121.347672,0.4611646924249502,0.20964861,0.32220927,0.79972231
11.5162,85168.0555,-4.98952,2.92571,7.58962,-0.54428,-0.16554,-2.77272,12.24,-35.88,-20.58,43.757545,1.432093,115.775673,0.4893081971037626,0.18825133,0.32177287,0.78841686
11.5386,85168.0756,-5.58328,3.0143,8.76517,-0.18998,-0.19548,-2.28891,14.04,-35.16,-20.88,42.271259,5.109382,111.137985,0.5135973718295993,0.16938139,0.32061779,0.77764511
11.5584,85168.0966,-5.89931,3.10767,7.18979,0.0281,0.00061,-1.64995,15.42,-33.84,-20.76,41.122063,8.22458,107.407578,0.5325256780728631,0.15324868,0.3220771,0.76759207
11.5753,85168.1165,-5.17866,4.31435,5.58328,-0.21197,-0.02321,-1.19607,16.2,-32.82,-21.06,40.216606,10.922051,104.571342,0.545946887362282,0.13865782,0.32540065,0.75949353
11.5944,85168.1375,-4.15394,4.88417,6.31351,-0.56383,-0.12889,-1.03908,17.1,-32.16,-20.76,39.095551,12.876701,102.638939,0.5559518824287984,0.12530276,0.32559207,0.75445777
11.615,85168.1575,-5.20978,4.35505,7.41963,-0.70494,-0.11973,-0.97189,17.64,-31.68,-21.36,37.716129,14.434302,101.173363,0.5646969433690199,0.11174268,0.32322285,0.75110447
11.635,85168.1775,-6.52659,3.68468,7.2688,-0.71227,-0.12278,-0.6298,18.48,-31.26,-21.84,36.245869,15.886305,99.996933,0.5721301006336095,0.09742529,0.32041514,0.74867189
11.6621,85168.1975,-7.21373,3.26809,6.8115,-0.77152,-0.13806,-0.13011,19.14,-30.24,-22.32,34.864876,17.042158,99.402908,0.5763977905169411,0.08380225,0.31739619,0.7483331
11.6737,85168.2175,-7.73806,3.12922,6.21295,-0.96761,-0.22663,0.39279,19.44,-29.88,-22.86,33.568745,17.874079,99.525177,0.5766841922444051,0.07073126,0.31383759,0.75095832
11.6947,85168.2385,-7.11557,3.77805,7.97748,-1.20402,-0.24862,0.93646,19.5,-29.46,-22.92,32.247169,18.119223,100.505524,0.5729664376747524,0.05904729,0.30758116,0.75737488
11.7174,85168.2585,-5.32231,4.06057,10.09156,-1.22723,0.2193,1.18447,19.02,-29.4,-22.86,30.844984,17.850536,102.421959,0.5644248337093009,0.04800339,0.29846704,0.76813912
11.7342,85168.2786,-4.88896,3.91213,10.21366,-1.21929,0.74831,1.37628,18.54,-29.52,-23.16,29.574947,17.961596,104.648148,0.5521717615330728,0.03462483,0.29178599,0.78023612
11.7564,85168.2985,-4.73573,3.89058,10.17057,-1.18202,1.00365,1.73119,17.82,-29.34,-23.52,28.424612,18.380531,107.251022,0.5359565911084334,0.01907792,0.28696191,0.79375023
11.777,85168.3195,-4.46758,4.51546,10.39562,-0.95234,0.8937,2.07083,17.82,-29.22,-23.76,27.541666,18.721148,110.34919,0.5154944679518761,0.00445023,0.28301755,0.80879337
11.8003,85168.3395,-2.94726,5.27921,10.87925,-0.62858,0.77091,2.25043,17.94,-28.98,-23.88,27.180899,18.545052,113.928108,0.49123521366866024,-0.00486914,0.2797997,0.82484931
11.8194,85168.3595,-1.62327,5.46836,10.50097,-0.5455,0.94195,2.17712,17.64,-28.98,-24.18,27.264894,18.148733,117.392258,0.4668585106304405,-0.01003245,0.27849802,0.83927429
11.8362,85168.3795,-1.03908,5.79397,10.87686,-0.61575,1.13377,2.06778,17.82,-29.04,-24.06,27.381878,17.946529,120.711281,0.4425949902175969,-0.01607197,0.27814266,0.85234267
11.8562,85168.3995,-1.60651,5.66708,11.11388,-0.45509,1.34451,1.98226,17.04,-29.28,-24.3,27.422123,17.955688,123.861015,0.41889503834196296,-0.02360916,0.27792066,0.86413521
11.877,85168.4195,-2.478,5.31513,9.55765,-0.30482,1.31031,2.08244,16.62,-29.52,-24.9,27.662264,18.238808,126.86731,0.394888137998169,-0.03208319,0.27994555,0.87445098
11.8968,85168.4395,-3.06697,5.05895,8.53294,-0.3146,0.9725,2.39154,16.62,-29.82,-24.96,28.093897,18.329359,129.972229,0.369925287119346,-0.03869791,0.28247622,0.88423127
11.9169,85168.4595,-1.84593,5.56412,10.04846,-0.24984,0.46059,2.83686,16.02,-30.0,-25.14,28.621674,17.719763,133.509903,0.3428741704681517,-0.04073472,0.28330675,0.89471519
11.937,85168.4795,0.9912,6.73968,11.8106,0.13317,0.36408,3.01951,15.72,-30.6,-24.78,29.38862,16.145681,137.56958,0.31335925497668293,-0.03574919,0.28328356,0.90569222
11.9587,85168.5005,4.22577,8.59279,11.00136,0.35919,0.4667,2.71224,15.0,-31.32,-24.78,30.65773,14.060909,141.9832,0.2811653669411171,-0.02614967,0.28651166,0.91551805
11.9802,85168.5205,5.28161,9.80426,11.3126,0.42944,0.71838,1.96332,14.22,-32.34,-24.78,31.919168,12.185017,145.694077,0.25406996436684487,-0.01687044,0.29134026,0.92210883
12.0011,85168.5414,2.67672,8.28633,10.46984,0.76725,0.64263,1.33413,13.74,-33.24,-24.72,33.105854,11.020545,148.432465,0.23320403811980736,-0.01143703,0.29792875,0.92559361
12.0267,85168.5625,0.73981,6.90248,9.53371,1.16064,0.14294,1.33474,12.9,-34.2,-24.3,34.533981,9.9753,150.480499,0.21740843809789254,-0.00494853,0.30709484,0.92649978
12.0442,85168.5835,-0.15562,5.67426,8.29112,1.50029,-0.30116,1.40621,12.18,-34.62,-23.82,36.295387,8.421939,152.453217,0.20341535360640975,0.00618468,0.31830713,0.9258858
12.0601,85168.6035,-1.41737,4.12521,6.91206,1.62063,-0.69028,1.68477,11.58,-35.64,-23.04,38.139011,6.569489,154.322189,0.19141900428900444,0.0196803,0.33005685,0.92413956
12.084,85168.6245,-1.33118,3.34231,6.44759,1.57298,-0.93096,2.04823,11.16,-36.54,-22.44,39.950958,4.0554,156.62851,0.17840208046952089,0.03658451,0.3410632,0.92223108
12.1042,85168.6445,-0.28491,3.02627,6.68701,1.42759,-0.60353,2.24004,10.38,-37.32,-21.9,41.478931,0.860647,159.665894,0.1624576253106586,0.0555934,0.34978846,0.9209587
12.1246,85168.6655,-0.06704,2.09253,5.29119,1.02748,0.11118,2.37199,8.88,-38.4,-20.88,42.505943,-1.979192,163.011017,0.14383896996783488,0.06945613,0.35607877,0.92070305
12.1438,85168.6855,-0.3711,1.39103,4.19943,0.63408,0.45815,2.63466,7.38,-38.88,-19.86,42.793709,-4.080741,166.408173,0.12300486551121718,0.07606037,0.35810995,0.92241091
12.1629,85168.7065,-0.4956,1.05824,3.91691,0.32315,0.32498,3.0189,5.7,-39.36,-18.36,42.411552,-6.019758,170.169891,0.09868930297127712,0.07972152,0.35569707,0.92595059
12.1883,85168.7275,0.77812,1.56341,4.81953,0.3207,0.29627,3.30112,4.02,-39.84,-17.46,41.548168,-8.651559,174.710663,0.0697428189875319,0.08676759,0.35004291,0.93009531
12.2074,85168.7475,1.76932,1.86748,4.30477,0.23213,0.45021,3.33899,2.94,-40.5,-16.92,40.709515,-11.55234,179.676529,0.03763746024049366,0.09533457,0.34579802,0.9326942
12.2275,85168.7675,2.91374,1.51074,4.22577,-0.04948,0.86682,3.3506,1.44,-40.8,-16.74,39.677914,-14.159643,-175.644714,0.006322965803062163,0.10305595,0.3409521,0.93439347
12.2441,85168.7875,3.86903,1.42694,2.65517,-0.59926,1.37445,3.36159,-0.48,-40.62,-17.16,38.415287,-16.002089,-171.174606,0.026288420484901553,-0.1059868,-0.33493751,-0.93589133
12.2635,85168.8075,4.85544,2.35829,3.43568,-1.30786,1.18141,3.39641,-2.16,-40.26,-17.52,36.259335,-17.375996,-166.942642,0.06011794133030773,-0.10764962,-0.32192558,-0.93870193
12.2902,85168.8275,7.46512,4.59687,6.61757,-1.38178,0.76419,3.14351,-4.2,-39.24,-17.64,33.251755,-19.357075,-162.81369,0.09356998601040317,-0.11714033,-0.30295232,-0.94113904
12.3191,85168.8475,9.70849,6.10043,8.32464,-0.86193,0.78435,2.41597,-6.0,-38.7,-18.24,30.538143,-21.261757,-159.343292,0.12219537985386313,-0.12867929,-0.28654608,-0.94148886
12.3269,85168.8675,9.71088,6.86657,7.53934,-0.4386,0.62797,1.45936,-7.08,-37.92,-19.02,28.826368,-22.574972,-156.822861,0.14306961524523876,-0.13667208,-0.27720389,-0.94021797
12.3454,85168.8885,8.95192,6.97431,7.00304,-0.3207,0.2248,0.67867,-7.92,-36.9,-19.98,27.943903,-23.647266,-155.326691,0.1546051725953201,-0.14375436,-0.27334991,-0.93846244
12.367,85168.9085,8.90882,6.06212,6.47153,-0.45693,0.11057,0.03421,-8.94,-36.54,-20.64,27.464092,-24.70252,-154.740738,0.1579333819415409,-0.15206088,-0.27170932,-0.93707448
12.3909,85168.9285,8.3821,5.75087,6.82347,-0.79718,-0.04459,-0.36408,-9.78,-35.94,-20.82,27.081114,-25.489391,-155.01239,0.15471068448879544,-0.15999313,-0.26935565,-0.93697083
12.41,85168.9485,8.17859,5.41568,7.9296,-0.97189,-0.0733,-0.75075,-10.2,-35.94,-20.82,26.536325,-26.070518,-155.9552,0.14687926211319516,-0.16814128,-0.26441732,-0.93821025
12.4257,85168.9685,7.53455,4.85784,8.37252,-0.95784,-0.08613,-1.08917,-10.44,-35.7,-21.18,26.019726,-26.35614,-157.444382,0.13519675742987083,-0.17497082,-0.2583985,-0.94039208
12.4446,85168.9885,6.9791,4.39815,8.22169,-0.91447,-0.22052,-1.26571,-10.2,-35.34,-21.66,25.644793,-26.473707,-159.284286,0.12066560175544204,-0.18078671,-0.25265533,-0.94282621
12.4678,85169.0085,6.53617,4.23055,8.05649,-0.88392,-0.38423,-1.37445,-9.66,-34.92,-22.32,25.369015,-26.631788,-161.316177,0.1042023056857133,-0.18703282,-0.24731928,-0.94498348
12.4903,85169.0305,6.21056,4.24492,8.01579,-0.89553,-0.66401,-1.51617,-9.12,-34.32,-23.34,25.150755,-26.876535,-163.61264,0.08520936437876142,-0.19432665,-0.24192773,-0.94680911
12.5097,85169.0505,6.10282,4.13718,8.44196,-0.88148,-0.76908,-1.66949,-8.7,-34.2,-23.16,24.98312,-27.263979,-166.137405,0.06389850452322496,-0.20305677,-0.23643535,-0.9480418
12.5276,85169.0705,5.93523,3.72059,8.67898,-0.81978,-0.79901,-1.8106,-7.56,-34.26,-23.58,24.900211,-27.607904,-168.740784,0.04183134810324856,-0.21132796,-0.23120846,-0.94875354
12.5504,85169.0905,5.67665,3.39977,8.55209,-0.70677,-0.81612,-1.84787,-6.96,-34.14,-24.18,24.923178,-27.863361,-171.472046,0.018649645070414632,-0.21886975,-0.22633725,-0.94895715
12.5714,85169.1105,6.28717,4.13718,8.32464,-0.65607,-0.81795,-1.89674,-6.66,-33.9,-24.12,25.076471,-28.127392,-174.177399,0.004592128001262082,0.2262035,0.2223599,0.9483496
12.5989,85169.1315,6.56011,4.93206,7.79791,-0.67684,-0.84544,-2.22111,-6.18,-33.84,-24.3,25.3661,-28.356602,-176.939987,0.028503552711049245,0.23319463,0.21917404,0.9469797
12.608,85169.1515,6.28478,4.89614,7.38132,-0.76358,-1.05802,-2.61756,-6.06,-33.72,-24.36,25.868397,-28.478033,179.76297,0.05700965585382477,0.24017499,0.21645901,0.94456941
12.6375,85169.1725,5.93044,4.33351,7.71412,-0.80084,-1.47524,-2.93032,-5.04,-33.66,-24.48,26.451262,-28.632763,176.155212,0.08818375291450282,0.24801852,0.21348156,0.9408167
12.6573,85169.1925,6.42604,4.80516,8.6718,-0.60476,-2.08183,-3.19849,-4.32,-33.66,-24.78,27.239204,-29.081926,172.013306,0.12449134688482794,0.25929296,0.21038541,0.93434846
12.6704,85169.2125,7.06529,5.15711,10.15381,-0.14966,-2.73118,-3.73116,-3.18,-33.36,-25.44,28.392918,-29.993322,167.85817,0.16214224164529606,0.27450716,0.2090352,0.92447823
12.6939,85169.2325,6.14352,4.05099,10.36211,0.4105,-3.18139,-4.35303,-2.7,-33.66,-25.44,30.32548,-31.266809,163.291306,0.2047866522023402,0.29393736,0.21142121,0.90937579
12.7148,85169.2525,4.01508,1.98719,9.4978,0.48197,-3.1429,-4.5485,-2.4,-33.6,-25.2,32.887074,-32.412235,158.302551,0.25093622803437454,0.31405583,0.21658255,0.88965833
12.729,85169.2725,2.90177,1.27132,8.69574,0.07391,-2.49966,-4.42938,-1.62,-34.08,-25.08,35.309742,-32.833405,153.009659,0.29665373786285343,0.32976371,0.22003883,0.86881262
12.7545,85169.2925,1.72383,0.82361,8.04691,-0.56505,-1.67011,-4.25651,-1.2,-34.92,-24.48,37.019859,-31.929955,147.277069,0.3406043014277,0.33623925,0.21939138,0.85017604
12.7723,85169.3125,0.06943,0.39504,7.9296,-1.21257,-0.76725,-3.97612,-0.06,-34.86,-24.3,37.734875,-29.472601,141.054718,0.38262230714145984,0.33119002,0.21461394,0.83537668
12.7932,85169.3325,-2.23379,-0.02155,8.03255,-1.56381,-0.17349,-3.53752,0.78,-35.28,-24.36,37.366158,-25.678995,134.656067,0.42169696983106303,0.31463051,0.20704713,0.82480955
12.8275,85169.3525,-4.31675,0.19872,8.51618,-1.6304,0.08247,-2.78249,1.92,-35.1,-24.36,36.162678,-21.346668,128.720901,0.45604586031687017,0.29070163,0.19878145,0.81731308
12.8488,85169.3725,-5.01585,1.20189,9.47146,-1.44531,0.13989,-1.91384,3.12,-34.38,-24.84,34.448093,-17.390957,123.914658,0.4833951130926821,0.26505896,0.19045308,0.81228107
12.8521,85169.3925,-4.51546,1.94888,10.1179,-1.1918,0.2645,-1.20279,4.56,-33.78,-25.44,32.609016,-14.180919,120.528221,0.5025050018840963,0.24105574,0.18314768,0.80983812
12.8705,85169.4125,-3.5937,2.69827,10.35971,-0.96639,0.55711,-0.59743,5.7,-32.94,-26.16,30.875259,-11.561433,118.390182,0.5141577205593864,0.21901666,0.17775139,0.80998641
12.8911,85169.4325,-2.57377,3.37104,9.75877,-0.85155,0.91874,-0.14783,6.66,-32.16,-26.7,29.320425,-9.22114,117.25589,0.5193845355412923,0.19772546,0.1749026,0.81274438
12.9166,85169.4523,-1.39821,4.13957,9.03332,-0.86254,1.21073,0.10812,7.44,-31.68,-27.36,27.932018,-7.016532,116.897392,0.5194274642891726,0.17665567,0.17420988,0.81770337
12.9344,85169.4725,-0.33758,4.69503,8.03973,-0.92607,1.15209,0.18692,7.8,-30.9,-27.54,26.65283,-4.923759,117.023636,0.5162318488602413,0.1559266,0.17454351,0.82384837
12.954,85169.4925,-0.48123,5.43484,8.2169,-0.83017,0.38362,0.06842,8.52,-30.18,-27.54,25.510391,-3.292286,117.355904,0.5122281015415788,0.13866211,0.17396548,0.82953674
12.9694,85169.5125,-0.73981,5.45878,10.00537,-0.36408,-0.51618,-0.17104,8.7,-29.88,-27.72,24.697144,-2.700562,117.592667,0.510265615210868,0.13045475,0.17094308,0.83269984
12.9902,85169.5325,-1.1157,4.66869,10.76194,0.18326,-0.89736,-0.40012,8.88,-29.28,-27.84,24.477745,-2.925429,117.586555,0.510814814645359,0.13113753,0.16832955,0.83278829
13.0097,85169.5525,-1.72861,3.47399,9.39964,0.19303,-0.69822,-0.41844,8.88,-29.34,-27.9,24.719776,-3.23778,117.353836,0.512777224737844,0.13480733,0.16843404,0.83097321
13.0442,85169.5735,-2.9329,2.4349,8.76996,-0.18204,-0.5846,-0.21014,9.12,-29.16,-27.96,24.753248,-3.207151,117.072922,0.5147419315133466,0.13514544,0.16848484,0.8296923
13.0553,85169.5945,-4.01986,1.97282,9.9096,-0.33781,-0.41905,0.27855,9.06,-28.74,-28.32,24.251179,-3.065091,117.083107,0.5148463025940974,0.13188924,0.16547081,0.83075744
13.0934,85169.6145,-4.43646,1.53468,10.36929,-0.22785,-0.13683,0.98105,8.82,-28.5,-28.08,23.554861,-2.807439,117.733459,0.5102739324749315,0.12602691,0.16226029,0.83511037
13.103,85169.6345,-4.72855,1.51553,9.89045,-0.03054,-0.17654,1.93766,9.24,-28.62,-28.5,22.92161,-2.570383,119.34227,0.49861616548472854,0.11928291,0.16036093,0.84346777
13.1205,85169.6545,-1.64721,2.63123,10.52252,0.27794,-0.43494,2.87046,8.76,-28.5,-28.8,22.493111,-3.056617,122.210609,0.47830785275456955,0.11710807,0.15805109,0.855878
13.1354,85169.6745,3.76368,5.4492,10.99178,0.4215,0.08186,3.047,8.1,-28.68,-28.68,22.459915,-4.433979,126.167351,0.4504064777701616,0.12192689,0.15634343,0.8705312
13.1539,85169.6955,6.55054,7.41724,10.14663,0.17043,0.82222,2.62672,7.56,-29.4,-29.1,22.601828,-5.572504,130.248856,0.4206476610232614,0.1255789,0.15751962,0.88457507
13.1726,85169.7155,6.76362,8.47547,10.08917,0.00916,0.9896,2.04334,6.24,-29.64,-29.1,22.652563,-6.052361,133.910812,0.3928293151757437,0.12440483,0.16020863,0.89696252
13.193,85169.7355,6.04296,8.72926,10.78827,0.24679,0.89492,1.41415,5.52,-30.06,-28.92,22.810163,-6.322962,136.723862,0.37104783083039605,0.12305734,0.16359514,0.90576875
13.213,85169.7555,4.82192,7.94396,10.84573,0.7367,0.50702,0.97922,4.92,-30.3,-28.68,23.418043,-6.557189,138.847519,0.35444281834919267,0.12363616,0.17000219,0.91114414
13.234,85169.7755,4.07972,7.17542,10.57758,1.15881,0.12278,0.86621,4.44,-30.3,-28.14,24.567554,-7.130586,140.605255,0.34115423233191644,0.12877713,0.17943692,0.91369176
13.2653,85169.7965,3.73017,6.79953,10.29267,1.4447,-0.12889,0.77458,3.9,-30.6,-27.54,26.181726,-8.143744,142.371414,0.3285513497034063,0.13832799,0.19154783,0.91445547
13.2741,85169.8165,3.00712,5.97114,9.94312,1.63284,-0.0843,0.78374,3.42,-30.9,-27.3,27.903042,-9.260932,143.994507,0.3174772160439744,0.14878374,0.20433424,0.91395795
13.3028,85169.8365,2.69587,5.18345,9.39964,1.78006,-0.01955,0.99021,3.42,-31.92,-27.3,29.662029,-10.292388,145.72142,0.3056695397159594,0.15798733,0.21806297,0.91326594
13.3141,85169.8565,2.45885,4.42209,8.32464,1.93889,0.05131,1.21135,3.06,-32.4,-26.76,31.441105,-11.40286,147.713791,0.29216888298549915,0.16681832,0.23238666,0.91258174
13.3374,85169.8765,1.62327,3.52666,6.78517,1.96027,0.07575,1.50517,3.18,-33.18,-26.1,33.229,-12.648956,150.058121,0.2764658411610457,0.17539155,0.24727519,0.91195363
13.3633,85169.8965,1.50595,2.72221,6.38294,1.8497,0.12401,1.85642,2.82,-34.02,-25.14,34.753937,-14.187289,152.812073,0.2584438496965017,0.18421264,0.2603679,0.91185582
13.3734,85169.9165,2.52109,2.45645,5.69102,1.61085,0.46792,2.13009,2.58,-34.92,-24.12,35.802402,-15.958412,156.064804,0.2371498795062864,0.19234245,0.27039385,0.91304517
13.3935,85169.9365,4.61602,3.18908,5.2457,1.18813,0.60048,2.25837,2.04,-35.76,-23.76,36.346996,-17.765625,159.670425,0.2130703823736031,0.19879164,0.27742633,0.91548759
13.4137,85169.9575,7.53455,4.9967,6.18183,0.97433,0.72143,2.02013,1.38,-36.24,-23.1,36.403484,-19.829113,163.529419,0.1872671919198316,0.20595165,0.28109723,0.91842216
13.4369,85169.9775,9.05966,6.37576,4.97276,0.96822,0.80084,1.28221,0.24,-36.96,-22.86,36.489971,-21.678959,166.886078,0.1650072883167693,0.21254861,0.28508839,0.91995668
13.4551,85169.9975,8.44196,6.90248,3.52187,0.78924,0.47281,0.37202,-0.84,-36.6,-22.2,36.966698,-23.112146,169.274826,0.15007192239968922,0.21818992,0.29148674,0.91918826
13.4824,85170.0175,7.18261,6.45477,3.04303,0.551,0.0226,-0.33903,-1.5,-37.14,-21.18,37.687141,-24.348091,170.485733,0.14459911577918355,0.2250756,0.2980828,0.91628528
13.4976,85170.0375,5.71257,5.73651,3.14119,0.29627,-0.2248,-0.75869,-2.16,-37.56,-20.88,38.501411,-25.486191,170.76181,0.14664435810922058,0.23346709,0.30376655,0.91198379
13.5164,85170.0575,4.40294,5.16669,3.30879,-0.08308,-0.25534,-0.88698,-2.16,-37.86,-19.68,39.219425,-26.36972,170.373016,0.15324268937441315,0.24152613,0.30758199,0.9075104
13.5347,85170.0775,3.6751,5.14275,3.80918,-0.44166,-0.26756,-0.83566,-2.16,-38.46,-19.26,39.61002,-26.914022,169.582565,0.16159216005016216,0.24796171,0.30827981,0.90408325
13.5659,85170.0975,3.57454,5.4109,4.70461,-0.71654,-0.25107,-0.77152,-1.92,-38.64,-19.5,39.624432,-27.18886,168.544067,0.17053569611669744,0.25291079,0.30572742,0.90193373
13.5766,85170.1175,3.77805,5.69341,6.12676,-0.86621,-0.2419,-0.75075,-1.68,-38.52,-19.32,39.326977,-27.185802,167.275208,0.18002772388623814,0.25619808,0.30053005,0.90090746
13.6088,85170.1375,3.90015,5.9855,7.09163,-0.88087,0.05803,-0.78435,-1.2,-38.34,-20.52,38.862293,-26.882505,165.823837,0.18991746665472053,0.25745904,0.29403946,0.9006592
13.6153,85170.1575,3.5937,6.06691,7.32386,-0.84666,0.26878,-0.82833,-0.66,-38.04,-20.4,38.383938,-26.029985,164.207611,0.19974171799473558,0.25467399,0.28803366,0.90126634
13.6398,85170.1785,3.47159,6.07648,7.20655,-0.78679,0.45265,-0.85582,0.0,-37.44,-21.24,37.943008,-24.856514,162.532608,0.20938407585295246,0.24937332,0.2828944,0.90218735
13.6601,85170.1985,3.68946,6.20817,6.92643,-0.79962,0.52779,-0.95539,0.66,-37.2,-21.96,37.535332,-23.457928,160.772736,0.21930615624684083,0.24237925,0.27844599,0.90311956
13.6793,85170.2185,3.32555,6.24647,6.66546,-0.89919,0.54734,-1.09467,1.26,-36.9,-21.72,37.155865,-21.978764,158.954178,0.22964883670187247,0.23477231,0.27449229,0.90376842
13.6998,85170.2385,3.06697,6.21295,7.11796,-0.9841,0.51924,-1.19913,2.04,-36.9,-22.86,36.697906,-20.392599,156.977173,0.24103083789723947,0.22647209,0.27006879,0.90425515
13.7159,85170.2585,3.31836,6.33985,8.00142,-0.96517,0.59498,-1.35551,2.4,-36.54,-22.62,36.160015,-18.743334,154.848709,0.2535384935004923,0.21775305,0.2651526,0.90443128
13.7363,85170.2786,3.68946,6.43561,8.6311,-0.90958,0.86132,-1.58214,3.3,-36.18,-23.22,35.659698,-16.907848,152.629776,0.2665115609713918,0.20763314,0.26115531,0.90424442
13.7547,85170.2985,3.08373,5.78918,8.28873,-0.8827,1.16675,-1.87475,4.02,-35.52,-24.12,35.217339,-14.648717,150.174591,0.28055488167176507,0.19463611,0.25866887,0.90360177
13.7742,85170.3185,1.84114,4.75488,7.29992,-0.95051,1.33474,-1.97126,4.92,-34.68,-24.48,34.739544,-11.9149,147.437866,0.2958623636095527,0.17832728,0.25724709,0.90249032
13.7942,85170.3385,0.79727,4.01747,6.59363,-1.01037,1.14232,-1.94194,6.0,-34.38,-25.38,34.069901,-9.047575,144.671616,0.31123755480944265,0.16047356,0.2553899,0.90119666
13.8176,85170.3585,-0.56024,3.23935,6.12916,-1.00976,0.56016,-1.82282,6.9,-33.66,-25.8,33.218121,-6.450714,141.97728,0.3268746166857975,0.14394148,0.25225693,0.89933324
13.8376,85170.3785,-2.47082,2.27689,7.01262,-0.80695,-0.42394,-1.45447,8.16,-33.18,-25.68,32.259735,-4.668965,139.521606,0.34266374510073644,0.13274144,0.24690928,0.89665884
13.87,85170.3995,-3.19865,2.22661,8.59997,-0.28955,-1.49173,-0.76541,9.96,-32.88,-26.1,31.329744,-4.180934,137.558319,0.35746888336629573,0.13040981,0.23882076,0.8934058
13.8814,85170.4195,-2.22661,2.68151,9.35654,0.05925,-1.84603,-0.25595,10.98,-32.52,-26.28,30.839058,-5.018013,136.460602,0.3679936791340492,0.13770698,0.23103438,0.89007896
13.8984,85170.4395,-1.05105,3.49553,9.42358,0.04093,-1.59619,0.08125,11.52,-31.92,-26.04,30.610321,-6.374278,135.981888,0.3745088778422482,0.14848438,0.22424884,0.8873601
13.9187,85170.4595,-0.01437,4.34787,10.1179,-0.19609,-1.09772,0.24435,11.52,-31.68,-26.58,30.269121,-7.627127,135.866531,0.3779455107652788,0.15736969,0.21730539,0.88609838
13.9374,85170.4795,1.01993,5.25288,10.44351,-0.34819,-0.33598,0.17837,10.2,-31.5,-26.7,29.723101,-8.371376,135.905075,0.3792014613626193,0.16140939,0.21061257,0.88645113
13.9671,85170.5005,1.01035,5.88495,10.1993,-0.34086,-0.02138,-0.03115,9.42,-31.2,-27.06,29.160229,-8.410363,135.885727,0.379567389604721,0.16005211,0.20603067,0.88761663
13.9862,85170.5205,0.60573,5.66708,10.05565,-0.13317,-0.07147,-0.19731,8.64,-31.38,-27.48,28.775316,-8.158037,135.677338,0.38082878723309116,0.15730481,0.2035512,0.88813937
14.0098,85170.5405,-0.2059,5.3271,9.64384,0.09407,-0.31948,-0.22785,7.74,-31.32,-27.6,28.68428,-7.939855,135.368439,0.3828596059650846,0.15588474,0.2031403,0.88761055
14.0217,85170.5605,-0.46926,5.22415,9.56723,0.26145,-0.5058,-0.09835,7.44,-31.2,-27.48,28.846834,-7.981161,135.132401,0.38471431689716384,0.1571229,0.20395645,0.88640231
14.0393,85170.5815,-0.03112,5.5737,9.73961,0.35736,-0.47892,-0.00672,7.62,-31.08,-27.48,29.179375,-8.297865,135.103622,0.385410010074611,0.16064441,0.20546219,0.88512021
14.0573,85170.6015,0.45011,5.97593,9.95988,0.44227,-0.24801,-0.07391,7.44,-30.9,-27.36,29.597878,-8.575662,135.156631,0.3853895294841632,0.16397469,0.20788544,0.88395184
14.08,85170.6215,0.03352,5.64792,9.51216,0.52351,-0.06658,-0.1295,7.5,-30.9,-27.3,30.121372,-8.533975,135.113693,0.38550052409199326,0.1653306,0.21206625,0.88265681
