AppTimestamp(s),SensorTimestamp(s),acc_x,acc_y,acc_z,gyro_x,gyro_y,gyro_z,mag_x,mag_y,mag_z,yaw_deg_ori,yaw_deg_ori_cal,yaw_deg,yaw_error,Quat_w,Quat_x,Quat_y,Quat_z,q_w,q_x,q_y,q_z,quat_angle_error_deg
0.0512,85387.6861,-0.42826781093486854,0.07875250505705811,0.42110301179372733,0.991411146380749,0.39280354917175375,-1.0920023478580312,-4.046260852810059,8.75330982291665,-31.051770515170766,159.275146,163.31524351969986,0.0,159.275146,0.1550048983445382,0.00798518,0.31460455,0.93644738,1.0,0.0,0.0,0.0,162.16583931815606
0.0583,85387.7061,-0.3473003766277374,0.18941884881377025,1.1547049529097322,0.617729763540956,0.8489002304783287,-0.9129445408560615,-4.107588820415134,9.130928218105966,-30.9603614535945,158.260437,162.2633195979307,0.0,158.26043700000002,0.1672291173765339,0.01905338,0.30609429,0.93700463,1.0,0.0,0.0,0.0,160.7464940274919
0.0639,85387.726,-0.426811550537906,0.2202021543651469,1.5973720912730318,0.31208999241674856,1.2660548041083035,-0.7262047485299796,-4.288379767889643,9.197356765049806,-30.87601659570458,157.499329,161.5189754219039,0.0,157.499329,0.1772011547259457,0.03175431,0.30218372,0.93609637,1.0,0.0,0.0,0.0,159.58644552952637
0.0695,85387.746,-0.7588358129795449,0.18079943992465175,1.680705785285582,0.10145506215132044,1.5860917192626025,-0.555615545526176,-4.65711747770047,8.945385733764605,-30.75879267619578,157.255829,161.31607248449288,0.0,157.255829,0.1835348523981551,0.04770337,0.30329365,0.93383741,1.0,0.0,0.0,0.0,158.84855384334853
0.083,85387.7661,-1.2988492681833588,0.11834908359788798,1.5730465982518957,-0.00712024675444739,1.75079406088997,-0.42381928450172235,-5.107206181978964,8.522178678221366,-30.590154968230785,157.54628,161.61372442075307,0.0,157.54628000000002,0.1864878957967593,0.06631633,0.30754146,0.93072158,1.0,0.0,0.0,0.0,158.50421532606916
0.1012,85387.786,-1.7839785675437128,0.010901549862826876,1.4773751949346625,-0.03370652162172261,1.7247440186111536,-0.33833703494776124,-5.593130075978538,8.215707523915626,-30.35164766241196,158.358398,162.28425797245282,0.0,158.35839799999997,0.1871460558873457,0.08846962,0.31131652,0.92748666,1.0,0.0,0.0,0.0,158.42744415694503
0.1207,85387.8061,-1.977643859805982,-0.15513871326163375,1.4329132087589187,-0.013141286211379943,1.5164641534251841,-0.3029084631842388,-5.8933932370564905,8.077809274468674,-30.15048831970168,159.292984,162.9803845887672,0.0,159.292984,0.1874062420429941,0.11053178,0.3135621,0.92430538,1.0,0.0,0.0,0.0,158.39709200836796
0.161,85387.8261,-1.7496988068327135,-0.3588389650123913,1.3456752068955744,0.02444766998161768,1.1873993402787872,-0.31092297112566947,-5.874895983608556,8.001057392129702,-30.106491589105616,159.856018,163.35848952364788,0.0,159.856018,0.1894485401762825,0.12905225,0.31543511,0.92084497,1.0,0.0,0.0,0.0,158.15879321766
0.1648,85387.846,-1.1527620891598545,-0.5557149547914468,1.1405600989783053,0.05591893238359416,0.831592445416502,-0.33579241121508935,-5.490748724366357,7.900053389961473,-30.268761030770502,159.8396,163.30175239045246,0.0,159.83960000000002,0.1934154583044282,0.14063604,0.3174642,0.91762108,1.0,0.0,0.0,0.0,157.69565215303226
0.1929,85387.8661,-0.25099525630893216,-0.7425646425428667,0.8300434662055984,0.06504816584989874,0.5427878049902436,-0.3399974966848677,-5.002541448550992,7.933040415857263,-30.523993878409264,159.426682,162.88389564255715,0.0,159.42668200000003,0.1991526509806439,0.14894953,0.31758398,0.91503698,1.0,0.0,0.0,0.0,157.0251744990214
0.2049,85387.8861,0.7860400041947941,-0.9319063171084556,0.43860290302561467,0.03855176122521756,0.3880332307264582,-0.30156159581911984,-4.5478691048777025,8.129503197320412,-30.796133913310012,158.688507,162.12907702073406,0.0,158.68850699999996,0.2067342857970409,0.15586866,0.31529781,0.91299134,1.0,0.0,0.0,0.0,156.13791727716486
0.2193,85387.906,1.7169948997479385,-1.1254963147009711,0.011150685887994172,-0.02314091794251452,0.39654157615746893,-0.22391679577528298,-4.1013373303752365,8.248858346297535,-31.08587737330288,157.753616,161.2561866213826,0.0,157.75361599999997,0.2143670574155865,0.15897028,0.31358829,0.91128349,1.0,0.0,0.0,0.0,155.24320677238424
0.2413,85387.9261,2.382598297459151,-1.3604602837342465,-0.38688971368838665,-0.1056901228341798,0.554639408863328,-0.13931608430540093,-3.739809128382645,8.20248905732702,-31.334533465194582,156.833984,160.4801491480023,0.0,156.833984,0.2210433803440288,0.15975159,0.31387717,0.90945059,1.0,0.0,0.0,0.0,154.45935375222578
0.2655,85387.9461,2.7318437419260344,-1.6489561711704335,-0.711384071020225,-0.19231117357959965,0.8036608529113518,-0.09581831130241703,-3.573217231201032,8.086437780548446,-31.45201667798304,156.283707,160.0471549722086,0.0,156.283707,0.2253366064712752,0.1612844,0.31541711,0.90759176,1.0,0.0,0.0,0.0,153.95465476584658
0.2821,85387.966,2.848777489741237,-1.8333695135806467,-0.9224925384576892,-0.27797621484564977,1.0496652268321323,-0.13066630073227464,-3.6014039558878492,7.776649921230577,-31.46021216250289,156.425781,160.32025569154212,0.0,156.42578100000003,0.2246579722248387,0.16271503,0.32058856,0.90569067,1.0,0.0,0.0,0.0,154.03446695729664
0.3051,85387.9861,2.9767118965163215,-1.810216386030019,-1.0123883460170937,-0.3505009576237169,1.195780537852166,-0.2212460378284652,-3.80180410001019,7.3815122188131035,-31.370652174910983,156.75206,160.7834444132098,0.0,156.75206000000003,0.2241168498210559,0.16828357,0.32835004,0.90201914,1.0,0.0,0.0,0.0,154.09809759813632
0.322,85388.0061,3.3336319180364047,-1.510521758431393,-0.9897219173899838,-0.40609713234874345,1.1718258851476127,-0.2798278476921352,-4.039620739426074,6.987661406914263,-31.24742376631273,156.700424,160.91458851928166,0.0,156.700424,0.2280468540537052,0.17883328,0.33729076,0.89568311,1.0,0.0,0.0,0.0,153.63578179304312
0.3381,85388.026,3.9204728648577545,-1.0267837863921514,-0.8969118962322504,-0.4607348315479666,0.9621373012015826,-0.198562481102721,-4.024187318219987,6.7531392154011005,-31.163904040780693,155.998978,160.43772616950028,0.0,155.99897799999997,0.2365804064021627,0.1896174,0.344028,0.88866174,1.0,0.0,0.0,0.0,152.6303987051709
0.3581,85388.0461,4.543043126344239,-0.6588897150910915,-0.8128093729728629,-0.5251312669837193,0.6179507578103772,0.07041791061383926,-3.663070996466975,6.8894822288686814,-31.126612921531574,154.360123,158.95334316705046,0.0,154.360123,0.2514766276718143,0.20065762,0.34479865,0.88182193,1.0,0.0,0.0,0.0,150.87018276675673
0.3814,85388.0661,4.801280494641661,-0.29356906223168044,-0.6818328267512346,-0.6245397458930224,0.20486655455755443,0.44824861898047197,-2.775288973171188,6.78745306739741,-31.276579071516046,152.996689,158.07531005599387,0.0,152.996689,0.2582205768207185,0.19562553,0.34827611,0.87963432,1.0,0.0,0.0,0.0,150.07099274526658
0.3985,85388.0861,4.6554872136350225,-0.05031273494541422,-0.5251902655454259,-0.7172462651843952,-0.18229426740225163,0.82297675078529,-1.7416220262119797,6.6474161720834815,-31.482884669849614,152.093689,157.7915781598695,0.0,152.09368900000004,0.2587423810078587,0.18265943,0.35347524,0.88019496,1.0,0.0,0.0,0.0,150.00909486472568
0.4185,85388.1061,4.205697945623768,0.1372040004297932,-0.3107487282938397,-0.7753676683541139,-0.47640750195488346,1.086283987937528,-0.6919367076140421,6.489392630620165,-31.684322529432293,151.431732,157.8435604173604,0.0,151.431732,0.2556287857748804,0.16502772,0.36050397,0.88173503,1.0,0.0,0.0,0.0,150.3783063066695
0.4383,85388.1261,3.626639934444343,0.3552319361031073,-0.06107116898082765,-0.7949175195899617,-0.6592862604491005,1.1881845277839505,0.25252872927412184,6.513148730256669,-31.788773024935786,151.296051,158.259397162916,0.0,151.29605100000003,0.2480687638528764,0.14465283,0.36659315,0.88495588,1.0,0.0,0.0,0.0,151.27347808410977
0.4613,85388.1461,3.0801584493350918,0.6466154100063317,0.1369674647489365,-0.7949973885798715,-0.7294878168591724,1.1533034907997788,1.0353371540859655,6.728578110711638,-31.758882325093808,151.256897,158.58837019850225,0.0,151.25689699999998,0.2403257241502278,0.12480286,0.3703936,0.88852483,1.0,0.0,0.0,0.0,152.18846868802177
0.4778,85388.166,2.631839741143761,1.0464630801744885,0.19814115014724365,-0.7956777270062418,-0.7004163864719473,1.0597407873375833,1.65192577390975,6.926799754958596,-31.627628688269894,150.88089,158.58440372619276,0.0,150.88089000000002,0.2355823164701107,0.10707106,0.37362507,0.89075309,1.0,0.0,0.0,0.0,152.74809837463934
0.5,85388.1861,2.255924429872067,1.5169084026887414,0.07921730599822396,-0.8002155576904224,-0.6091150644847791,0.9877710625296071,2.0749455528347465,7.0678712501455365,-31.433104342000902,150.477188,158.52276238473092,0.0,150.477188,0.23190722351532,0.09186187,0.37690657,0.89203244,1.0,0.0,0.0,0.0,153.1812319710218
0.524,85388.208,1.8615365209207035,2.0000633967607886,-0.21532529392448296,-0.8069103811704987,-0.4935392541005698,0.9872630726513789,2.375682262941151,7.186711625378088,-31.223228559896953,150.397446,158.6781603504419,0.0,150.397446,0.2265536342402028,0.07790805,0.38025627,0.89331347,1.0,0.0,0.0,0.0,153.81149144709897
0.5422,85388.2281,1.390135936514581,2.4228666358359554,-0.6528050374383554,-0.8116359030482091,-0.3763882582144215,1.0741010244191418,2.6396896428403984,7.364144119492433,-31.03269801767742,150.662888,159.03399186082063,0.0,150.662888,0.2197288762083127,0.06575312,0.383001,0.89482176,1.0,0.0,0.0,0.0,154.61378181112536
0.5734,85388.248,0.7826665514360189,2.7570890877812904,-1.1755494920572769,-0.804999578731082,-0.2678657993434652,1.2363041115259432,2.9606883079955812,7.616875581083555,-30.879235548326477,151.21962,159.56848437328284,0.0,151.21961999999996,0.2112986708269348,0.05426564,0.38541421,0.89658463,1.0,0.0,0.0,0.0,155.6030629416427
0.5972,85388.268,0.020935719234573158,2.997671265955598,-1.7141786443342788,-0.7758863075508022,-0.1716608177725003,1.4458679123089189,3.290851520367105,7.931351474140138,-30.77187857428283,152.237061,160.44364833210372,0.0,152.23706100000004,0.1995369718161511,0.04242354,0.38841367,0.8986212,1.0,0.0,0.0,0.0,156.9802325637858
0.6042,85388.2881,-0.8098778359283303,3.0877536221004376,-2.1885098113573562,-0.7131310850786244,-0.09465928419617675,1.6718468769403092,3.392282113101021,8.459894471665521,-30.685555692675266,154.145737,161.8860081929427,0.0,154.145737,0.1831037251116518,0.03297205,0.3902747,0.90170479,1.0,0.0,0.0,0.0,158.89880904518162
0.6643,85388.3081,-1.639019725976676,3.0199890831367715,-2.568350851299855,-0.6202889853733086,-0.03257952957112187,1.8830518546294672,3.2570015218036676,9.166619853679713,-30.610181935098304,156.716858,163.7195316458341,0.0,156.716858,0.1634497431122744,0.02557646,0.3905336,0.9056012,1.0,0.0,0.0,0.0,161.18562255165287
0.6659,85388.328,-2.4411913320894283,2.8209986441911115,-2.8747618284291416,-0.5059388209705075,0.027163398233479574,2.0558911236780117,2.969780664426474,9.91608778657796,-30.552275864416032,159.598114,165.73187118579813,0.0,159.598114,0.1419397683305841,0.01841068,0.38986024,0.90968299,1.0,0.0,0.0,0.0,163.6797842756317
0.6684,85388.3481,-3.2100264712131126,2.5082647045367943,-3.1050096756009182,-0.36196857199653354,0.08946396634080278,2.1786356820609267,2.4847260187873355,10.660564006731088,-30.50835165967044,162.815613,167.95216557095793,0.0,162.81561299999998,0.1188552232819856,0.01274284,0.38815174,0.91381031,1.0,0.0,0.0,0.0,166.3479222453567
0.704,85388.3681,-3.9607468356190276,2.12007027453527,-3.2223456227865412,-0.17196980030369513,0.1596913132360247,2.2428890396322876,1.7493175381437074,11.279165175245158,-30.49670654952662,166.460175,170.48939402629233,0.0,166.460175,0.0940193271023856,0.01029336,0.38669443,0.91734499,1.0,0.0,0.0,0.0,169.21024248267423
0.7062,85388.388,-4.708946018823787,1.6838261691107874,-3.170942398550242,0.06389898618324158,0.2401514678547304,2.2378375370895145,0.8456363686062072,11.748640548270654,-30.493898764597276,170.442352,173.2746276594237,0.0,170.44235200000003,0.0681744317865886,0.01124573,0.3853803,0.92016727,1.0,0.0,0.0,0.0,172.1817213432964
0.7218,85388.408,-5.461879708700142,1.1959428406547556,-2.9212205982005734,0.31492965366603926,0.3297162278771505,2.1549173278720355,-0.039272169169816795,12.194270597421259,-30.429224940136073,174.482895,176.09191017595734,0.0,174.48289499999998,0.0425332241624962,0.01371338,0.382065,0.92305428,1.0,0.0,0.0,0.0,175.12458077866293
0.7397,85388.4281,-6.172983283078656,0.6389059745898993,-2.4665904142201764,0.5449164964593248,0.42961275971398516,1.991887243025706,-0.8698161042516808,12.693788102693643,-30.264533704091818,178.448074,178.885550266384,0.0,178.44807400000002,0.0176743199460817,0.01772903,0.37563193,0.92643076,1.0,0.0,0.0,0.0,177.97456666197021
0.7591,85388.4481,-6.748462616947263,0.005878706756364593,-1.8157762249902056,0.727738273479018,0.5401518081494854,1.7509340374171027,-1.730457505928673,13.157557028193724,-30.030667551520622,-177.612564,-178.25468730132206,0.0,177.612564,0.0065271757500338,-0.02489265,-0.36746004,-0.92968321,1.0,0.0,0.0,0.0,179.25203544365186
0.7842,85388.468,-7.1078188816817365,-0.6648938137870384,-1.0157898698167855,0.8485241621411409,0.6485140307016881,1.4446221612243413,-2.5647817883414645,13.46914728794526,-29.79655201637511,-173.952118,-175.49766481107653,0.0,173.952118,0.0283046135063501,-0.03569072,-0.35935196,-0.93208969,1.0,0.0,0.0,0.0,176.75609696954191
0.8012,85388.4881,-7.220806075404132,-1.3379241173420104,-0.13876000245216957,0.9063377771386207,0.735540405394451,1.099103499895072,-3.2656193270882534,13.619167645436896,-29.626962995194795,-170.789474,-173.02093566487017,0.0,170.789474,0.0467376764107197,-0.04836857,-0.35180286,-0.93365455,1.0,0.0,0.0,0.0,174.64230501880377
0.8225,85388.5081,-7.042710500940633,-1.9647020344250405,0.7989082975559505,0.9201375170067295,0.7882028080530791,0.7398729620588971,-3.888844926758471,13.653701694526546,-29.558844408428524,-168.127243,-170.84334186590627,0.0,168.127243,0.0614482349248933,-0.0635507,-0.34476775,-0.93451625,1.0,0.0,0.0,0.0,172.95411212986434
0.8389,85388.528,-6.564330449779755,-2.4967594453874824,1.794064185133177,0.903244787516609,0.8105240477303287,0.38789653831132836,-4.457642689671246,13.575538437537562,-29.619756999642988,-165.994202,-169.01793072129888,0.0,165.994202,0.0721020290002854,-0.08074127,-0.33900899,-0.93453467,1.0,0.0,0.0,0.0,171.73054042889063
0.8595,85388.548,-5.822171833870664,-2.931336534132364,2.8402450782067206,0.852729682290722,0.8246853591987895,0.0584542344169523,-4.946475762143367,13.44204263919201,-29.766132252598776,-164.45137,-167.6135809111015,0.0,164.45137,0.0786001135093067,-0.0984612,-0.33420485,-0.93404204,1.0,0.0,0.0,0.0,170.9837904940711
0.8793,85388.5681,-4.937074157892748,-3.312641662491944,3.912331349608264,0.7465389195959367,0.8682142275871698,-0.23705904145397047,-5.237755026410959,13.353069598593388,-29.916967540106313,-163.613968,-166.7352650174616,0.0,163.613968,0.0811711193277966,-0.1138453,-0.32898745,-0.93392599,1.0,0.0,0.0,0.0,170.68823024622725
0.8991,85388.588,-3.9929789729408354,-3.6355175204024723,5.012036850933445,0.5566255950778255,0.9706879420594184,-0.49958989816858645,-5.380807014212433,13.285969199099116,-30.024276751495023,-163.321091,-166.27412830193867,0.0,163.321091,0.0805250175380549,-0.12783611,-0.32328206,-0.93416399,1.0,0.0,0.0,0.0,170.7625112223947
0.9193,85388.6081,-3.1421867347274253,-3.9249033841779646,6.045713837947394,0.27326384463971093,1.1334075923644131,-0.7263749601305091,-5.29567274064101,13.295676284721623,-30.063053205122344,-163.688065,-166.33011621569221,0.0,163.688065,0.0760997617566533,-0.14008558,-0.31587979,-0.93531001,1.0,0.0,0.0,0.0,171.27117076565116
0.9392,85388.628,-2.355352908196784,-4.074303654362068,6.908203581047918,-0.09134377145331707,1.322956008008012,-0.9293115553941581,-5.24483603887119,13.182766960794718,-30.097526161854763,-164.171951,-166.49400028511786,0.0,164.171951,0.07000883835463,-0.1541456,-0.30945873,-0.93572068,1.0,0.0,0.0,0.0,171.97101027221703
0.9591,85388.648,-1.616519171548355,-3.885135529735594,7.474314577047235,-0.4990955017852456,1.4793570809726686,-1.122665536330767,-5.3574756528205825,12.720169436392501,-30.236329990202304,-164.438004,-166.5398293797315,0.0,164.438004,0.0631406688988028,-0.17121209,-0.30808306,-0.93369401,1.0,0.0,0.0,0.0,172.75979606090306
0.9789,85388.668,-0.9411121170499857,-3.293218424447983,7.630803424466084,-0.8960853982247163,1.5509925401932856,-1.306183770043979,-5.584786494567989,12.010072502364409,-30.452921639895592,-164.694626,-166.62550552166974,0.0,164.694626,0.0537159483011052,-0.19128805,-0.31146649,-0.92925352,1.0,0.0,0.0,0.0,173.84164175718251
0.9989,85388.6881,-0.29959532776027764,-2.381985102046883,7.305568221282883,-1.2470040841180483,1.5148061699467144,-1.4646401921511647,-5.903668506482282,11.28196157138038,-30.650895593137662,-165.075531,-166.8203526095348,0.0,165.075531,0.0410293222545174,-0.21434066,-0.31759387,-0.92277235,1.0,0.0,0.0,0.0,175.2970658764793
1.019,85388.708,0.24366123552128682,-1.3037643556325982,6.476202461633278,-1.5377019552638151,1.3795115792233092,-1.5914285128686292,-6.13320640200614,10.689839704766072,-30.798254639435577,-165.72139,-167.26555087040015,0.0,165.72139,0.0250448242521097,-0.23726694,-0.32544157,-0.91496718,1.0,0.0,0.0,0.0,177.12977443515004
1.0469,85388.7281,0.6117725114667865,-0.2247074083596523,5.207521127137129,-1.7692155092553317,1.1825025235415816,-1.6966012079688646,-6.099446522163748,10.27785335661503,-30.914371827302666,-166.706879,-168.07376746872234,0.0,166.706879,0.0062623603082774,-0.25692463,-0.33464149,-0.90662318,1.0,0.0,0.0,0.0,179.28238167854713
1.0636,85388.7481,0.8223034668851028,0.7556847085138081,3.657421276005195,-1.9522259018249946,0.9715239449757235,-1.79774569785782,-5.819598277658667,9.950663641455108,-31.034345007953483,-167.983917,-169.21999943660714,0.0,167.983917,0.0150768382866789,0.27325356,0.3457281,0.89753956,1.0,0.0,0.0,0.0,178.2722561354485
1.0848,85388.768,0.940925097799444,1.551827118463577,2.0240456519591206,-2.1028212842473577,0.7867764749615163,-1.9085936609753356,-5.434695442116583,9.699272053427952,-31.142455071564573,-169.372528,-170.51322747389008,0.0,169.372528,0.0373693497324295,0.28712755,0.35774708,0.88779408,1.0,0.0,0.0,0.0,175.7167906653037
1.1056,85388.7881,1.0123309897398305,2.1350123352289856,0.4820010374525019,-2.2281492266160807,0.655771282091625,-2.0439059178991146,-4.965352948981597,9.634026561068637,-31.213527853925243,-171.03067,-172.04122176715362,0.0,171.03067,0.0603772183781856,0.29856092,0.36832029,0.87838268,1.0,0.0,0.0,0.0,173.07706991246843
1.1201,85388.8081,1.1115027961129538,2.5823484911130254,-0.8853757282704251,-2.3352855802242134,0.5769911783632181,-2.2031862173121963,-4.465904982045959,9.732017398250651,-31.25512187877932,-173.038315,-173.85561404377663,0.0,173.038315,0.0848743428729499,0.30881047,0.37736428,0.86892384,1.0,0.0,0.0,0.0,170.26240173001855
1.14,85388.828,1.2735219202310228,2.9498137744895794,-2.0721906328516315,-2.4260538663613347,0.5275262921740612,-2.366797124182674,-3.971051855095002,9.938585404457639,-31.27535291665384,-175.425232,-175.97652374747423,0.0,175.425232,0.1116307448389571,0.31913328,0.38534313,0.85860538,1.0,0.0,0.0,0.0,167.18134118550225
1.163,85388.8481,1.4553797857468085,3.2227397489473653,-3.1020464101874126,-2.4946756147993927,0.4711822307338691,-2.5104625875236533,-3.448517566501328,10.23521824432489,-31.270068350264946,-178.242874,-178.4563825690047,0.0,178.242874,0.1405845969414347,0.3293916,0.39206648,0.84736121,1.0,0.0,0.0,0.0,163.83664849061395
1.1839,85388.8681,1.5798765056831616,3.344787960853429,-4.013992130447094,-2.5403840380486424,0.36802958920663653,-2.613324780982767,-2.9124229713778815,10.624982486873002,-31.22139802468658,178.583405,178.75242476970277,0.0,178.58340499999997,0.1705345780293407,0.33937225,0.39702669,0.83553231,1.0,0.0,0.0,0.0,160.36219600443647
1.2015,85388.8891,1.5651858461124788,3.2705870383411577,-4.869542296771652,-2.565455386683822,0.18052361547367535,-2.6730309278442888,-2.3771256404697225,11.06099859707899,-31.13358056818696,175.108154,175.67262792799107,0.0,175.108154,0.2003610813603796,0.34805626,0.40047669,0.82360834,1.0,0.0,0.0,0.0,156.883850247657
1.2223,85388.9091,1.3910441518638716,2.9826792045840227,-5.739047490068207,-2.571237140408933,-0.10705372860051687,-2.7060270093856547,-1.7887418393168741,11.415405788743215,-31.049028152673603,170.966248,171.98960464588225,0.0,170.966248,0.2318876125787305,0.35462946,0.40320295,0.81110632,1.0,0.0,0.0,0.0,153.1835421949541
1.2417,85388.9291,1.089705401824527,2.4654214804886623,-6.623748170086573,-2.555181685948202,-0.4825025990728177,-2.7433139918544764,-1.1312166560146233,11.808808616732769,-30.9115997575641,166.095032,167.66793224431055,0.0,166.095032,0.2631695044072012,0.35726666,0.40382954,0.80001503,1.0,0.0,0.0,0.0,149.48357444154996
1.2637,85388.9491,0.819499904697847,1.7499800905110023,-7.499847874343914,-2.522084800199826,-0.9225649579802959,-2.8054052507933673,-0.4741819132741609,12.079612599761692,-30.758445608308406,160.329941,162.71427660938522,0.0,160.32994099999996,0.2954064784861161,0.35594517,0.40462577,0.7888701,1.0,0.0,0.0,0.0,145.63617361029887
1.2816,85388.9691,0.806044500320432,0.8499520990363909,-8.298352087756907,-2.476641019072507,-1.4161674020380097,-2.8728580221804645,-0.07829143700767904,11.889669752464235,-30.706444139131047,153.680954,157.75588610246226,0.0,153.68095400000004,0.3283728666838361,0.35030645,0.41155046,0.77465016,1.0,0.0,0.0,0.0,141.65991030722284
1.314,85388.989,1.2382866057127269,-0.31000898945870553,-8.865050365975504,-2.3686917106085614,-1.8557304881756707,-2.9723511935810074,0.4440666786195706,11.753188297776221,-30.562529105029697,145.073349,151.6485373526534,0.0,145.073349,0.36381079611197,0.33909169,0.41521412,0.76174521,1.0,0.0,0.0,0.0,137.331169243591
1.3258,85389.0091,2.1649344955202863,-1.7633754876418009,-9.051637902254685,-2.188463429371861,-2.21108442573045,-3.0441277566644613,0.9968753937665387,11.64373296530254,-30.368964140730473,134.846176,144.45950914154267,0.0,134.846176,0.4023350286931709,0.3243655,0.41549173,0.74851865,1.0,0.0,0.0,0.0,132.55153243536222
1.3425,85389.0291,3.391307196013983,-3.5102399451169894,-8.718948560581435,-1.9456195702274444,-2.477759164982838,-3.007874130299867,1.4391551069390278,11.66120481543151,-30.14885670724224,124.349144,136.57669970580315,0.0,124.34914400000002,0.4422929305124028,0.30926493,0.41154557,0.73441297,1.0,0.0,0.0,0.0,127.49945822592709
1.3622,85389.049,4.588035108947374,-5.472167313839205,-7.8407956245990285,-1.664577691941662,-2.6802845823460713,-2.79665134514988,1.6865282573146487,11.889789465957078,-29.920170532205294,114.985748,128.5420262180996,0.0,114.985748,0.481191872582216,0.2959407,0.40329802,0.7198779,1.0,0.0,0.0,0.0,122.47345188269914
1.3821,85389.0691,5.463091751548408,-7.398870647682427,-6.260497686677204,-1.3135202357085387,-2.901644282569632,-2.355475404907068,2.2219443309287996,11.792704428122775,-29.865944515829213,105.609726,120.5158956062418,0.0,105.60972600000002,0.5214732155512254,0.27284601,0.39401585,0.70595485,1.0,0.0,0.0,0.0,117.13775227954964
1.4022,85389.0891,5.9048227646086895,-8.911268809994326,-3.9445696817223492,-0.9404691664453334,-3.122262696693266,-1.6624716722848671,2.8879268706345123,11.202590877438736,-29.998063833159858,97.166451,113.64863088146545,0.0,97.166451,0.5598177037282936,0.23948565,0.38664237,0.69264597,1.0,0.0,0.0,0.0,111.91361664202145
1.4316,85389.109,6.011194631437233,-9.685628441247111,-1.1394695727142405,-0.5828210978857126,-3.232312459951003,-0.8111641827625639,3.3693463859595028,10.531487870997012,-30.106888158756025,91.418488,108.76884589973301,0.0,91.41848800000002,0.5899706198730015,0.20255134,0.37927952,0.68341398,1.0,0.0,0.0,0.0,107.6901533481475
1.4436,85389.1291,5.813204831882789,-9.497135740868938,1.9445471832172423,-0.2444095631364755,-3.1405491942535693,0.0821781038032498,3.7956203018547114,9.89645958895015,-30.10441534526459,88.423775,105.78316939764014,0.0,88.42377499999998,0.6108742123012145,0.16147083,0.3696512,0.68126196,1.0,0.0,0.0,0.0,104.69451783591613
1.4607,85389.1491,5.204640411193124,-8.457332459433962,4.8912462821648095,0.027491206438251037,-2.7941929204315277,0.9010008656864104,4.173417614318078,9.512013337414256,-29.943834073020497,87.940414,104.29420926080189,0.0,87.94041400000003,0.622493954940575,0.12025613,0.35544202,0.68680471,1.0,0.0,0.0,0.0,103.0030282370286
1.4805,85389.169,4.337653559964934,-7.244566292455366,7.046432389213916,0.19751135120880747,-2.251805715327889,1.537045104559272,3.9925852937513078,9.960033684260411,-29.573894023729554,89.842712,104.24926747953639,0.0,89.842712,0.6231776779155017,0.09452011,0.33579734,0.69996834,1.0,0.0,0.0,0.0,102.90288299337514
1.5004,85389.1891,3.2007003659022573,-5.787077244294684,8.409664141632305,0.25204940272332066,-1.5797073499566623,2.0568476526569306,3.4703952595969394,10.294066355222984,-29.317875997868853,92.218826,105.20379773937972,0.0,92.21882600000004,0.6173082303767101,0.07430444,0.32056499,0.71459603,1.0,0.0,0.0,0.0,103.76033491109207
1.5199,85389.2091,2.03472770033943,-4.3065679309175025,8.884632929170177,0.21659133955750154,-0.8844137729031823,2.4464594828162323,2.558164794017145,10.464724160839355,-29.208798053529073,95.111237,107.3046535896141,0.0,95.11123700000002,0.6039169241123105,0.06038968,0.31223723,0.73085248,1.0,0.0,0.0,0.0,105.69811046176113
1.5464,85389.229,0.9893788148467815,-2.9369782474741593,8.651488662919427,0.1171097475460412,-0.2558707635038717,2.6977890304982974,1.4505730425519285,10.40690754354843,-29.217157689568907,98.333626,110.29214699783249,0.0,98.33362599999998,0.5845250350559974,0.05144368,0.31089255,0.74768299,1.0,0.0,0.0,0.0,108.46111399934799
1.5664,85389.2491,0.06385683326920777,-1.729410896574168,7.989992253098329,-0.03833089667044276,0.2667902478275836,2.8111348792782502,0.5469480784049345,10.141805611817002,-29.285097726738424,101.743408,113.74179103397505,0.0,101.74340799999999,0.5614846058331244,0.04311131,0.31353232,0.76457435,1.0,0.0,0.0,0.0,111.68293914332321
1.5885,85389.2691,-0.7042720822802258,-0.7440054651533696,7.091298385487612,-0.23806016504926597,0.6775779683699696,2.8053317824285475,0.05444972178412222,9.864889606157604,-29.35695933784572,105.143745,117.19672406050633,0.0,105.14374499999997,0.5374597321364599,0.03471581,0.31712711,0.78061658,1.0,0.0,0.0,0.0,114.97824267166365
1.6085,85389.289,-1.1955984896146203,0.01790030656618491,6.051468329179183,-0.444031945609885,0.9898666328631809,2.7225518511395266,-0.19694694235021615,9.706685746924833,-29.434315046821148,108.248299,120.46935585751824,0.0,108.24829899999997,0.5142332614299234,0.02926342,0.32253021,0.79415494,1.0,0.0,0.0,0.0,118.10756225148972
1.6202,85389.3091,-1.3828240830706289,0.5673549078540345,4.913671844908958,-0.6236457390187989,1.2136201530200426,2.608422520896623,-0.47552634512982017,9.649686708454125,-29.562255465354472,111.149124,123.81506470361305,0.0,111.14912400000003,0.4906155375156005,0.0275232,0.33162972,0.8053326,1.0,0.0,0.0,0.0,121.23790579840728
1.6399,85389.3291,-1.336145684493819,0.8799417687200135,3.7072734970883587,-0.7566635074313777,1.3492093669314875,2.4933726763728714,-0.8523092808454944,9.652113785185488,-29.766791671503388,114.059952,127.38217190613537,0.0,114.05995200000001,0.4654258796117355,0.02757231,0.3438459,0.81510031,1.0,0.0,0.0,0.0,124.52442454640739
1.6601,85389.349,-1.0697859050088132,1.032577750931467,2.4887750819895196,-0.8103978717474724,1.4261158838436567,2.3877564209776776,-1.267670452774384,9.585235339156219,-30.069109869443203,116.728264,130.94308136391368,0.0,116.72826399999997,0.4402316171360231,0.0279722,0.35905266,0.82249308,1.0,0.0,0.0,0.0,127.76267969394034
1.6799,85389.3691,-0.6322719855068799,1.156966308072632,1.3539287308255972,-0.7774689868098048,1.4920642421272947,2.2946122177236075,-1.5516652974788308,9.446625881497072,-30.429442787819106,119.017532,134.20643013800995,0.0,119.01753200000002,0.4167965667590946,0.02735479,0.37500957,0.82758695,1.0,0.0,0.0,0.0,130.7349881912568
1.6998,85389.389,-0.13874834140660575,1.3897333704067845,0.39804968808353003,-0.6953253925551832,1.5858408856751778,2.2234958011616985,-1.6288537663540055,9.389718501766172,-30.750490316798032,121.274513,137.17592572240025,0.0,121.27451300000001,0.3945374255338542,0.02540059,0.38841072,0.83236539,1.0,0.0,0.0,0.0,133.52574479525245
1.7258,85389.4091,0.2792141147349372,1.763659807147965,-0.3741954149053939,-0.6170788731067295,1.7140134903880102,2.1986086475836144,-1.6270769333507538,9.613545925332124,-30.924465525552183,123.967041,140.0464177048191,0.0,123.967041,0.3722937363968217,0.02496705,0.39723417,0.83843845,1.0,0.0,0.0,0.0,136.2857046559219
1.7439,85389.429,0.5443185316853993,2.1127402153551955,-1.087859565714762,-0.5688472238501333,1.841657064832432,2.2515202136481864,-1.7334673043782498,10.236806994749095,-30.881467370706574,127.37912,143.00748831675608,0.0,127.37912,0.3496686255124001,0.02988639,0.40105417,0.84616441,1.0,0.0,0.0,0.0,139.06590376893283
1.7678,85389.45,0.6957266653541896,2.3085554111307918,-1.9521311806068224,-0.526934973958467,1.947504442469588,2.3742881386389905,-2.168108308648133,10.79605592450967,-30.749730457912406,131.426025,146.53243655936873,0.0,131.42602499999998,0.3236826834686077,0.03917119,0.40690109,0.85330337,1.0,0.0,0.0,0.0,142.22843028512332
1.7825,85389.4701,0.7453752359969699,2.269270482032646,-3.0495411687171075,-0.449377417313783,2.0236278279037245,2.5375592726612295,-2.565035449791692,11.07798772550286,-30.642484721102115,135.537354,150.17826461618745,0.0,135.537354,0.2964154838624464,0.04699599,0.41558746,0.85861301,1.0,0.0,0.0,0.0,145.51512919305256
1.8026,85389.4901,0.7483276790289677,2.097302247954517,-4.2499751490674775,-0.2936446919981665,2.0806637782174473,2.7160810922586034,-2.7692838631980354,11.217390436910499,-30.55634868041268,139.82283,153.7949422062816,0.0,139.82283,0.2680760586560535,0.0519281,0.42444894,0.86329705,1.0,0.0,0.0,0.0,148.9003736984243
1.8367,85389.51,0.6577687494262687,2.0581560182510255,-5.310224302568571,-0.07401678029398284,2.1410013938967953,2.888466707130523,-2.7375398486275024,11.397246335946583,-30.45916003311102,144.585373,157.39278840532535,0.0,144.585373,0.2377189113362703,0.05364738,0.43064582,0.86899704,1.0,0.0,0.0,0.0,152.49610465180132
1.8541,85389.5301,0.3433291050709468,2.320839542513203,-6.0226109196588675,0.16138648659042265,2.1938497233293255,3.05877325744142,-2.5252904132267435,11.87305864382487,-30.2765360535691,150.073669,161.00141886872962,0.0,150.073669,0.2054916786375377,0.05481218,0.43100703,0.87692744,1.0,0.0,0.0,0.0,156.28343408749103
1.8679,85389.5511,-0.2873840056580518,2.8181261997271543,-6.33053362063738,0.39844454752306485,2.208828541876339,3.224863507721411,-2.4559339343381987,12.588946097234675,-30.023104369869742,156.464508,164.97240214360525,0.0,156.46450800000002,0.1712787771235394,0.0615343,0.42765298,0.88543212,1.0,0.0,0.0,0.0,160.27564364200242
1.8881,85389.5711,-1.2635227278517314,3.2335238710676473,-6.283436198606974,0.6128074437540312,2.123597494208681,3.387231834092897,-2.6168317715667744,13.580935477801887,-29.676989669580955,163.833603,169.46006925177707,0.0,163.83360300000004,0.1331444621518008,0.07244462,0.41964865,0.89494097,1.0,0.0,0.0,0.0,164.69732642811508
1.9051,85389.591,-2.461593650388082,3.270351809135006,-6.014387990738717,0.8224364280272478,1.9168274550911846,3.5116852638454397,-2.872805046637405,14.749001448396829,-29.253536064429383,171.320755,174.14720313814115,0.0,171.32075499999996,0.0925611872335173,0.0836,0.40757364,0.90461439,1.0,0.0,0.0,0.0,169.37806490003317
1.9239,85389.6111,-3.6806216241025203,2.8770085030834474,-5.651162956870205,1.0729835280933717,1.6573954953963805,3.5255778952093237,-3.334574476299964,15.73562991669824,-28.870912756747103,178.794373,179.16040465492554,0.0,178.794373,0.0482454554293455,0.09292307,0.39642349,0.9120779,1.0,0.0,0.0,0.0,174.4693310768249
1.9477,85389.6311,-4.768941621983814,2.226728830200478,-5.202639856218441,1.3748900194947222,1.409804448307239,3.4052556622975008,-3.8285893537336877,16.518035400450856,-28.537411690946257,-174.28537,-175.89752778610386,0.0,174.28537,0.003271975036342,0.09889182,0.38588697,0.91722459,1.0,0.0,0.0,0.0,179.62505861047964
1.9673,85389.6521,-5.6367268362840495,1.56437112834013,-4.537504111514583,1.7375034577068398,1.187762534136746,3.168134310493724,-4.345918094975845,17.30732404299535,-28.123273033349108,-168.240158,-171.2485256853956,0.0,168.240158,0.0381831619623793,-0.10701931,-0.37195081,-0.92127168,1.0,0.0,0.0,0.0,175.62346803894084
1.9914,85389.6721,-6.30936767462425,0.9378324228038981,-3.5646069327870205,2.1024301900643643,0.9938970328894627,2.854858455537456,-4.865312403693267,18.128019282842523,-27.61309018203236,-163.216141,-166.9350654791374,0.0,163.216141,0.0756154887699839,-0.11766619,-0.353028,-0.92509902,1.0,0.0,0.0,0.0,171.32682472074967
2.008,85389.692,-6.763635114159974,0.24890790119874584,-2.3133245709227834,2.4101939927142424,0.8175585570449961,2.489248292507294,-5.295123433262568,18.844853194398766,-27.123249491559363,-159.405899,-163.17621569598217,0.0,159.405899,0.1068632184492129,-0.13104916,-0.33051726,-0.92852825,1.0,0.0,0.0,0.0,167.73094961622047
2.0288,85389.7121,-6.96680819895417,-0.7273290550820473,-0.991024182248827,2.585048543437305,0.6872245247421658,2.078422003344251,-5.754286464793353,19.340190004320203,-26.73966219052202,-156.149719,-159.6192924488219,0.0,156.149719,0.137208293928976,-0.14202814,-0.30623001,-0.9312492,1.0,0.0,0.0,0.0,164.22733143969674
2.0471,85389.7321,-6.916354428608799,-1.9481046540059817,0.1420835710547017,2.586446525932333,0.6223091597521717,1.6195026123708778,-6.125888530644685,19.610665858148245,-26.516814935522593,-153.448517,-156.4375644769999,0.0,153.448517,0.1658649790897926,-0.14803068,-0.28152341,-0.93344539,1.0,0.0,0.0,0.0,160.90502692229015
2.102,85389.752,-6.5945414444642445,-3.0868671649002466,1.026093333149328,2.431335525456685,0.6220552648936029,1.0943172741258462,-6.3959502626103575,19.628473209237942,-26.495520658565102,-151.485748,-153.8745895607245,0.0,151.485748,0.1884595395541365,-0.15452923,-0.25831568,-0.93481374,1.0,0.0,0.0,0.0,158.2742033521519
2.109,85389.7721,-6.043658444233459,-3.853746159426583,1.7496783196321886,2.1489849157417686,0.6934049726395822,0.5265054695804227,-6.609593616967416,19.291597013132893,-26.73823391990925,-150.171112,-151.94313898535182,0.0,150.171112,0.2037653136524977,-0.16453862,-0.23971707,-0.9348489,1.0,0.0,0.0,0.0,156.48553753915212
2.1111,85389.7921,-5.40835890043142,-4.171694288369792,2.4414677678188426,1.7767211678233839,0.8237631403487102,-0.015344588633892264,-6.563408706439167,18.687895770529135,-27.213742455049204,-149.670135,-150.88215811015667,0.0,149.670135,0.2107673306326322,-0.17529893,-0.22605203,-0.93474483,1.0,0.0,0.0,0.0,155.66535287933627
2.1248,85389.812,-4.700142681489455,-4.201970690753917,3.2849944098794257,1.356585546392012,0.9860473634267015,-0.4867820342023938,-6.311597705102095,18.079190963352772,-27.71065410453847,-150.001343,-150.61378481461074,0.0,150.001343,0.2103615068421565,-0.1876699,-0.21339615,-0.93540907,1.0,0.0,0.0,0.0,155.71292339220608
2.146,85389.833,-3.805099503122666,-4.178842617516992,4.357020410250145,0.9107294595948089,1.1409774843538998,-0.8741804775361282,-6.157431036475727,17.60220947346605,-28.065128350206585,-150.908051,-150.7545509554656,0.0,150.908051,0.2049216879386079,-0.20566539,-0.19918114,-0.9359678,1.0,0.0,0.0,0.0,156.35017045053078
2.1701,85389.8531,-2.8098985986275014,-4.20116237026993,5.467366770592729,0.4619475760646742,1.2408861311876695,-1.185006848466143,-6.069864452949563,17.104158266975862,-28.375086724896775,-151.91127,-151.01470584770271,0.0,151.91127,0.1977300217884317,-0.22529301,-0.18754925,-0.93539894,1.0,0.0,0.0,0.0,157.19150363849724
2.1853,85389.8731,-1.9226338061802708,-4.26715338866932,6.338226459140653,0.05486593486225022,1.2537648592850186,-1.4534554222429357,-5.797583939162075,16.655061300230862,-28.643410347019135,-152.992081,-151.52483790662927,0.0,152.992081,0.1893617440641666,-0.24111377,-0.179143,-0.93483371,1.0,0.0,0.0,0.0,158.16892267249335
2.2099,85389.893,-1.1397320858226898,-4.117937777095047,6.889959571420203,-0.2856385583160443,1.1692855317927677,-1.723813159830088,-5.386454763588888,16.092210564313696,-28.96052028320457,-154.386856,-152.49034954734609,0.0,154.386856,0.1763720825277728,-0.2565794,-0.17618892,-0.9338187,1.0,0.0,0.0,0.0,159.68297055451941
2.2264,85389.9131,-0.46414820908291343,-3.826609270505671,7.084720489232847,-0.5683942811941782,1.0301344393249845,-1.9875300868815915,-4.8456029507595275,15.664598824940747,-29.204456999025933,-156.376114,-154.1302665108383,0.0,156.376114,0.1578660526557015,-0.27172112,-0.1738494,-0.93328577,1.0,0.0,0.0,0.0,161.83388813877514
2.2455,85389.9331,0.07009002385825935,-3.496532620407752,6.952529912917029,-0.8292579025054526,0.8832179281304503,-2.2364032680945702,-4.207399200958909,15.409121939928944,-29.37617895508225,-158.947021,-156.46987211810568,0.0,158.947021,0.1344840429009995,-0.28575093,-0.17066787,-0.93334502,1.0,0.0,0.0,0.0,164.54242868572666
2.266,85389.953,0.3806926581865855,-3.1859229929599313,6.538906874529744,-1.0984296089993144,0.7577540294423717,-2.4876363136372523,-3.536879310913016,15.21293311800589,-29.534279394359796,-161.801819,-159.28496411561946,0.0,161.801819,0.108476685679703,-0.29723862,-0.16803595,-0.9336198,1.0,0.0,0.0,0.0,167.54497876426407
2.2879,85389.9731,0.50643761898685,-2.826349859172934,5.89099096398804,-1.3940328470233503,0.649495290130074,-2.773766620154846,-3.094602990943401,14.901393397679742,-29.73323372011897,-164.532974,-162.10423055828207,0.0,164.532974,0.0821821439439142,-0.30813786,-0.16864511,-0.9326607,1.0,0.0,0.0,0.0,170.5719869717334
2.3071,85389.993,0.5423397664421015,-2.267271481367964,5.056653323800127,-1.7114540440262949,0.5347325016454512,-3.1140229839222133,-2.993835149065978,14.359606183661269,-30.012123832465534,-167.185608,-164.92964202640525,0.0,167.185608,0.0540583669193954,-0.32070366,-0.17433059,-0.92942762,1.0,0.0,0.0,0.0,173.80234637873454
2.3249,85390.013,0.5070961730009418,-1.4793355744620555,4.070839366307506,-2.0113916156813554,0.41594378902166484,-3.5000678354148875,-2.91432150318435,13.75952181655719,-30.30675112988856,-170.29068,-168.42559501613601,0.0,170.29068,0.0208005918526719,-0.33173025,-0.18246391,-0.92532659,1.0,0.0,0.0,0.0,177.61625583623086
2.356,85390.0331,0.5530607570219945,-0.559051744238733,2.935995619623588,-2.278309405585639,0.3303064683664645,-3.8737763252541164,-2.7079663666022853,13.377752151266332,-30.496159922653398,-174.370728,-173.1867378757118,0.0,174.370728,0.0200576139930924,0.34146112,0.18809307,0.92066443,1.0,0.0,0.0,0.0,177.70141260131126
2.3716,85390.054,0.867473572791307,0.3895525012090393,1.6148818169344707,-2.5256265886826057,0.29728948463624794,-4.148245818475118,-2.5710682555774342,13.177710164630994,-30.57146735063299,-179.44046,-179.30563019569246,0.0,179.44046,0.0693620559901147,0.35437256,0.19128509,0.91269875,1.0,0.0,0.0,0.0,172.04530668654945
2.3869,85390.074,1.2730598581369839,1.23853392687076,0.10922964348437603,-2.6626954936929295,0.2620794284193517,-4.311363355544215,-2.419116332648077,12.96055110512756,-30.619121108788264,175.425598,174.2314049279991,0.0,175.42559800000004,0.1189336042423214,0.3631449,0.19721033,0.90282261,1.0,0.0,0.0,0.0,166.33887628503902
2.4055,85390.0941,1.658134996748081,1.8949678430135213,-1.410189123939782,-2.5966992353821414,0.18805308526759834,-4.375074975553195,-2.031079056462588,12.59468196193367,-30.717445899780135,169.924316,167.32228613157787,0.0,169.92431599999998,0.1696265816553182,0.36421844,0.20639832,0.89217234,1.0,0.0,0.0,0.0,160.46778311606576
2.4335,85390.114,2.1648078568202926,2.258235789087215,-2.6387431773084904,-2.3966860282665503,0.07167838564763351,-4.2870285873622525,-1.8205554266751633,12.360568268296237,-30.747288497546457,164.188828,160.10542184248666,0.0,164.188828,0.2200437525786177,0.366171,0.21409824,0.87844265,1.0,0.0,0.0,0.0,154.57679438823345
2.4466,85390.1341,2.759001865647663,2.335457443106504,-3.296166339409833,-2.1603462245280003,-0.10203034990094229,-4.034460797342126,-1.7677311987864819,12.603729156838678,-30.606108562125875,158.505234,152.6649569749785,0.0,158.50523399999997,0.2668748008394691,0.37064609,0.21513389,0.86320144,1.0,0.0,0.0,0.0,149.04323283355382
2.4693,85390.1541,3.3163524133081554,2.2401979680914508,-3.316365866491643,-1.9908598806653623,-0.3623128321940454,-3.6424143815490506,-1.5376671768545656,13.268141093454188,-30.334015110765947,153.082626,145.52236757872026,0.0,153.082626,0.3073649874572005,0.37164915,0.20939966,0.85062063,1.0,0.0,0.0,0.0,144.19899211949163
2.4914,85390.174,3.8181246851272217,2.0328273484679817,-2.920159422633816,-2.032791504714775,-0.6600772785977808,-3.1210596318494304,-1.1443538057682758,14.111583821527944,-29.995551895397494,147.917572,138.87154061947592,0.0,147.917572,0.3431837967124007,0.36935794,0.19956498,0.84022224,1.0,0.0,0.0,0.0,139.85806533876354
2.5089,85390.195,4.17910417447026,1.804329265932393,-2.4584907074910705,-2.3351078129989107,-0.9018419218179965,-2.512196936833733,-0.4702313073840916,14.657622922707741,-29.779954598025782,142.401093,132.57095752464548,0.0,142.401093,0.3793491771253428,0.36059624,0.1911083,0.83038676,1.0,0.0,0.0,0.0,135.41324995785553
2.5313,85390.216,4.282532355976252,1.6877292230390477,-2.2466365688821472,-2.8372527600206765,-0.98337678530658,-1.900766316471849,0.2200792771481037,14.788570320380087,-29.717598491813952,137.291183,128.06412362770854,0.0,137.291183,0.4103644034077884,0.34306636,0.18887798,0.8235482,1.0,0.0,0.0,0.0,131.544543784854
2.5599,85390.2361,4.079566299171432,1.7497513978034491,-2.512564375563196,-3.423444341884818,-0.8305969710189758,-1.4184362669596586,0.9920207002106753,14.297707512783447,-29.87879640635729,132.078354,124.95702576879142,0.0,132.078354,0.4391014968799718,0.31464747,0.19574013,0.81845748,1.0,0.0,0.0,0.0,127.90686569816175
2.5708,85390.2561,3.7018529491667467,1.7598600309909487,-3.4161266239762798,-3.9851871731224335,-0.4526450019954944,-1.169441587550354,1.4512710902866601,13.693049660923887,-29.983086961317973,127.492882,122.96701528642673,0.0,127.49288200000001,0.4621772011356759,0.28471413,0.20864944,0.81350815,1.0,0.0,0.0,0.0,124.94462442401664
2.5948,85390.2771,3.266304021366246,1.4028432306379792,-4.965055337722787,-4.41029115180441,0.03753443123343003,-1.2002160204853083,1.5722501554435446,13.193472158753188,-29.915269349189476,123.190552,121.21034486818353,0.0,123.19055200000003,0.4825778964120157,0.25886923,0.22598262,0.80562842,1.0,0.0,0.0,0.0,122.29219143589742
2.6155,85390.2971,2.836828333047427,0.39931039995319445,-6.956046704382063,-4.588500188859094,0.4263381764200913,-1.4956593242153753,1.38539354153108,12.722674719680032,-29.721664561160473,118.737076,119.55219365995883,0.0,118.737076,0.5016990673709987,0.23718388,0.25014666,0.79339051,1.0,0.0,0.0,0.0,119.77505359869976
2.6295,85390.317,2.4825791317352786,-1.481841644200229,-8.894711981362835,-4.432613959660013,0.5179347948764705,-1.971915198354332,1.0094919113645435,12.485310235288381,-29.36971867334684,114.073837,117.9791607175914,0.0,114.07383700000003,0.5192226268502692,0.22029966,0.27829969,0.77744788,1.0,0.0,0.0,0.0,117.4397574442884
2.6479,85390.3371,2.3340821079824803,-4.130521240808578,-10.027565934720581,-3.966239164058235,0.15936196303082642,-2.37396553249067,0.0004587764034216235,11.655945077223482,-29.301610796327868,107.796303,116.89854841163738,0.0,107.79630299999997,0.5357107262137712,0.20704381,0.32458133,0.75152767,1.0,0.0,0.0,0.0,115.21575207959125
2.6686,85390.3571,2.5927645621351987,-6.957535527882617,-9.716230802631928,-3.20788301835789,-0.4681118890944873,-2.53123822162501,-0.88174277269332,11.189149246742913,-29.18027077332457,100.856209,115.97466477460762,0.0,100.85620900000004,0.5501669809944659,0.1949738,0.3668901,0.72435707,1.0,0.0,0.0,0.0,113.24306136713663
2.6882,85390.377,2.429628604623432,-9.353654130009383,-8.083662047972991,-2.171894344578887,-0.7634334836695644,-2.4723918513800385,1.3217540758909774,12.06997393720931,-28.69362149866643,90.96759,106.39854973407425,0.0,90.96758999999997,0.6026943013910979,0.18697065,0.36182478,0.68621016,1.0,0.0,0.0,0.0,105.87378508132956
2.7084,85390.397,2.5360675067245873,-10.06482392019663,-4.719378952946965,-1.1084911049627524,-1.1743744321269316,-1.9146512171886945,3.008255339946265,10.879687247974893,-29.07401534550717,81.901772,100.87193922945072,0.0,81.901772,0.6396230248502077,0.14536418,0.37756866,0.65360045,1.0,0.0,0.0,0.0,100.47256969357782
2.7281,85390.417,2.447771708998927,-9.311681616951846,-1.5493241760811074,-0.202824584399929,-1.18105531123599,-1.2048806170594555,3.9957140313607553,10.917457925174434,-29.05894017020158,78.868286,98.13106693366,0.0,78.86828600000001,0.657986296233782,0.11293812,0.37660968,0.64223373,1.0,0.0,0.0,0.0,97.7070469529737
2.7488,85390.437,1.885864020287356,-8.065258468710148,0.7096726939712354,0.3817476294946598,-0.9372648643458561,-0.5972772367949557,4.164225330948497,11.768399685624729,-28.842832162074316,79.293289,97.3742219298319,0.0,79.29328900000002,0.6635096408187431,0.09358621,0.36641148,0.64555341,1.0,0.0,0.0,0.0,96.8638191245639
2.7723,85390.4571,0.98949228852713,-7.198279882128808,1.8302580651873477,0.600025086721214,-0.7242942914421157,-0.17256160609461388,3.561772625390198,12.60579271822649,-28.694032065349795,79.657761,96.87529866409697,0.0,79.657761,0.6660422481527413,0.09148489,0.35925436,0.64726698,1.0,0.0,0.0,0.0,96.47533282589531
2.7924,85390.477,0.16989062466620553,-6.878872845625734,2.030502870767844,0.5969842563358613,-0.7215234590171441,0.09900463739794063,2.6867214358421254,12.953891177727565,-28.724914289442083,79.004585,96.09850420245142,0.0,79.00458500000002,0.6695451350182406,0.09704453,0.35863379,0.64317453,1.0,0.0,0.0,0.0,95.93606438349063
2.8187,85390.497,-0.12671171649500668,-6.603629298704671,1.9475717037512474,0.5611037305067381,-0.9122212717125103,0.30309185189027577,1.8429659651970756,12.194413807087882,-29.169425554578176,78.329369,96.58130634567455,0.0,78.32936899999999,0.6684276416049199,0.08629043,0.36759606,0.64080542,1.0,0.0,0.0,0.0,96.10834976010604
2.8327,85390.5171,0.2512107500850016,-6.3429020325133365,1.9196524146322318,0.5758308373834744,-1.19022581813636,0.4936983589170665,1.4305505206215283,11.192957464265534,-29.593908753210414,78.102028,97.10734366164534,0.0,78.10202800000002,0.6671934436610071,0.06898984,0.37349799,0.64077497,1.0,0.0,0.0,0.0,96.29835751942875
2.8546,85390.5371,1.1460662808585402,-6.0492712059083615,2.1392686299897257,0.618004844533091,-1.4072037647513405,0.7257927205369418,1.7043218252040209,10.703844469018259,-29.718291971503604,78.983688,97.02313658562319,0.0,78.98368800000003,0.6682183276245044,0.05137916,0.36582825,0.64576632,1.0,0.0,0.0,0.0,96.14059407208912
2.8821,85390.5581,2.0396540883734025,-5.632587253338777,2.670955025589926,0.5990783671005666,-1.469700733047119,1.0591956638948097,2.6581345627703694,10.603944129464255,-29.602321085352578,79.792343,95.64037950570446,0.0,79.79234300000002,0.6757186815756018,0.03580318,0.34670302,0.64955324,1.0,0.0,0.0,0.0,94.98003030032166
2.8915,85390.578,2.8242294358278044,-4.778643681123844,3.3970500606714573,0.5457990072021334,-1.3352157350963623,1.5180340259208693,3.18860406024352,10.141265878770664,-29.597508850760825,80.689766,95.24786875015413,0.0,80.68976600000002,0.6778599843546609,0.01872707,0.33492929,0.6541999,1.0,0.0,0.0,0.0,94.64671967684319
2.9169,85390.5991,3.2695269133016995,-3.619535617575925,3.9609001106213526,0.5161622299296889,-1.0686028149518407,2.0211952878475143,3.0930082115539115,9.754940683958479,-29.604481213500403,83.044533,96.75331571872721,0.0,83.044533,0.6687677884066876,0.00332234,0.32723433,0.66757494,1.0,0.0,0.0,0.0,96.05593356873176
2.933,85390.6191,2.979565798632954,-2.2767538151098883,4.254519904715259,0.5121581361264882,-0.7487632793927693,2.4980705808009276,3.128372438894898,9.372239897148054,-29.5967351691624,85.979805,98.61899318834458,0.0,85.979805,0.6565493714937145,-0.01398244,0.31752032,0.68405282,1.0,0.0,0.0,0.0,97.9255276550522
2.9557,85390.6391,2.2809592552780105,-0.9059662407611969,4.143786889165657,0.6444447193373549,-0.4302604160991368,2.871366221362787,2.7745104618568472,9.111400362106963,-29.622500594598534,89.667419,101.50501329505693,0.0,89.667419,0.6373235780749704,-0.02669293,0.31060249,0.70472139,1.0,0.0,0.0,0.0,100.81493252738221
2.972,85390.6591,1.284830345933956,0.7098517838868679,3.782020350906162,0.9348302754730965,-0.06511465496912787,3.1080145496113203,2.132635643097382,8.395339697617148,-29.86641125523786,93.432907,105.1313335821032,0.0,93.432907,0.6122289432888117,-0.04095472,0.31269595,0.72506529,1.0,0.0,0.0,0.0,104.49830968033787
2.9963,85390.6791,0.028351069189416656,2.3854780982384054,3.4880441653511802,1.235707510368177,0.3289718172083326,3.2135761842461923,1.5950695673508477,7.695304486082815,-30.162534553529937,97.689873,109.07854237423503,0.0,97.68987300000003,0.5831489591709477,-0.05622194,0.31421545,0.74702412,1.0,0.0,0.0,0.0,108.65534035831959
3.0177,85390.6991,-1.079144677380219,3.606770510263882,3.6102496301458853,1.3426831231760397,0.6022896292532187,3.2612513136884056,1.1257696011274696,8.15400804405614,-30.235808646477096,102.140762,112.47944369163716,0.0,102.140762,0.5585730843343039,-0.05530785,0.30306721,0.77012169,1.0,0.0,0.0,0.0,112.08565130263368
3.0354,85390.7191,-1.73828214038345,4.032826000735204,4.135115066358509,1.0839562335896578,0.6924865025501835,3.3388614034483126,0.490177905575635,9.993263851951832,-29.951969186869345,107.251869,115.80697161826882,0.0,107.251869,0.5361592130229706,-0.03552431,0.27723032,0.79650152,1.0,0.0,0.0,0.0,115.15487883120744
3.0539,85390.739,-2.096870881599174,4.03687302266286,4.354439147074167,0.44434377351344045,0.7591995123668738,3.439852449889468,-0.006400169891811913,11.462782899847253,-29.730112878034216,111.808189,118.970697431299,0.0,111.80818899999997,0.5139713774216087,-0.01834214,0.25618485,0.81845361,1.0,0.0,0.0,0.0,118.14254964468317
3.0735,85390.7591,-2.5699101055728812,4.141636791774825,3.636908686667848,-0.41029142697969856,1.0076892485276074,3.4382305362195753,-0.2050040334492227,10.930997422070002,-30.232448423845764,115.979286,123.03251892909205,0.0,115.979286,0.4821638030160387,-0.02734887,0.25998959,0.83616716,1.0,0.0,0.0,0.0,122.3463619733257
3.0925,85390.7791,-2.7793930237632902,3.773431643326467,2.3679075491368202,-1.135398274567628,1.284968462863298,3.257901612292744,-0.5185686540376935,9.787227824126154,-30.876424736743182,120.219032,127.75215925114095,0.0,120.21903199999997,0.4439790417555719,-0.03998506,0.27614793,0.85148466,1.0,0.0,0.0,0.0,127.2839267224605
3.1227,85390.799,-2.528748629696351,3.026715936233875,1.050945262971883,-1.5797676683829476,1.552917119380125,2.9151133941410143,-0.8531696378711757,8.785524107508989,-31.350573707677846,124.005363,132.23924905293896,0.0,124.00536299999999,0.4073478824249225,-0.04737571,0.29583943,0.86272955,1.0,0.0,0.0,0.0,131.9233171043186
3.1676,85390.82,-1.8383352530585102,2.2023547248744704,-0.061887652109351876,-1.7690142035090812,1.7834521781561368,2.5114156947918156,-1.2660507609598,8.347048943578288,-31.551238887771675,127.408279,136.32580699375802,0.0,127.408279,0.3750168416207665,-0.0459618,0.31385168,0.87106085,1.0,0.0,0.0,0.0,135.94929248878557
3.1766,85390.841,-0.8208003537650654,1.53831752208604,-1.0148547195644522,-1.7549023466188176,1.9636148689147954,2.1954576985695557,-2.0222719380170027,8.530040190656173,-31.489376076609894,130.357666,140.0200144611006,0.0,130.357666,0.3494222745123624,-0.03010242,0.33056295,0.87619978,1.0,0.0,0.0,0.0,139.09603415689946
3.1838,85390.8631,0.05746211335201723,1.2084202189286972,-1.9793803674415145,-1.6522903166496954,2.1126060958231543,1.9803816608175038,-2.525945395158411,8.677752669950468,-31.406199436981616,132.542618,143.1157507996147,0.0,132.542618,0.329279352478618,-0.01395107,0.34936634,0.87711096,1.0,0.0,0.0,0.0,141.54991806623804
3.2008,85390.8831,0.5823335803864451,1.1740348911518639,-2.9532059188946826,-1.5410260573422003,2.2346674487667646,1.8534070753467056,-2.7011344439279803,8.635910065051503,-31.395358873299422,135.074631,146.41185116893982,0.0,135.074631,0.3051364110741998,-0.00619938,0.36877549,0.87798518,1.0,0.0,0.0,0.0,144.46725818186997
3.2225,85390.9041,0.7829973611445158,1.3076628136567656,-3.8706702534754935,-1.4262822488898004,2.382642013154803,1.8084659899078979,-2.478925881610113,8.824214049917526,-31.366180066442862,137.803436,149.42690488647736,0.0,137.80343600000003,0.2811169177627962,-0.00345763,0.38298041,0.87993598,1.0,0.0,0.0,0.0,147.34624568749044
3.2368,85390.9251,0.8010753124913035,1.5377246483413165,-4.7180317859407035,-1.310719943849782,2.5683112767428042,1.8471951924632746,-2.271276278285935,9.254415884948635,-31.275822871691524,140.972107,152.5022084767264,0.0,140.972107,0.2567181329874206,0.00150191,0.39413717,0.88246781,1.0,0.0,0.0,0.0,150.24916703269224
3.2565,85390.945,0.7721037871532473,1.7278039386932738,-5.541424143538463,-1.153703475645274,2.736957823757285,2.0077008119204818,-2.5723293238827853,9.972704694033347,-31.062286588564127,145.20137,156.18282007895186,0.0,145.20137,0.2311290083997178,0.01871169,0.40393236,0.88491124,1.0,0.0,0.0,0.0,153.2728994070694
3.2781,85390.9651,0.6085121963555062,1.777128276605004,-6.408310950543441,-0.9614178492533185,2.8334871736976943,2.260047084106686,-2.7736015864001615,10.806150765570198,-30.820515113743618,149.924332,159.9129646543836,0.0,149.924332,0.2059064061244889,0.03839826,0.4117915,0.88687986,1.0,0.0,0.0,0.0,156.23487131748425
3.2975,85390.9851,0.23469065515105506,1.65213994068955,-7.3451175895551835,-0.7017451764652273,2.8629857059868105,2.550359653766917,-2.83234420112249,11.639504645086006,-30.61143962944351,155.38063,163.89323231694257,0.0,155.38063,0.1778537439014663,0.05673602,0.41863254,0.88876086,1.0,0.0,0.0,0.0,159.51045730863996
3.32,85391.005,-0.48448681516925945,1.4586868904104775,-8.24168660289397,-0.3757912011258497,2.944053894115708,2.721894993763656,-2.7635165726567736,11.83710992892027,-30.699657978420127,161.27916,168.2440810918768,0.0,161.27916,0.1445789215289838,0.0680825,0.43328172,0.88697726,1.0,0.0,0.0,0.0,163.37420753248372
3.3386,85391.0251,-1.6255107241399596,1.2619113534300286,-8.787326760743007,-0.019855534515155607,3.072673630839591,2.760186824779674,-2.5307941678804893,12.231831957388248,-30.76016013269435,167.939651,172.6467937142018,0.0,167.93965100000003,0.1071589513930281,0.07368667,0.44355053,0.88676387,1.0,0.0,0.0,0.0,167.69686539955512
3.3665,85391.0451,-3.1184267355541686,1.1679200750874839,-8.715034590992163,0.3684675850991665,3.216494850420583,2.663483881419159,-2.6518517562944948,13.018841532671185,-30.618679150503468,175.919739,177.52671333431283,0.0,175.919739,0.0660566443777632,0.08404312,0.44696477,0.88814175,1.0,0.0,0.0,0.0,172.4249503806784
3.3845,85391.065,-4.758623317626845,1.1951633065824414,-7.908384142239752,0.777657146201703,3.2994989139106754,2.4695091467608146,-3.153638573884023,14.033651774678802,-30.275231859758414,-175.579498,-177.26223140795722,0.0,175.579498,0.0254948560658818,0.10370146,0.44401899,0.88963091,1.0,0.0,0.0,0.0,177.07818811432713
3.4098,85391.085,-6.30487991624607,1.3187730078320439,-6.497606158691685,1.1968982810183684,3.253847841463665,2.2305941713528687,-3.5342381806340795,14.856573713109103,-29.93613549778221,-168.287216,-172.48525045781102,0.0,168.287216,0.0082038146727707,-0.12873954,-0.43860444,-0.88937336,1.0,0.0,0.0,0.0,179.05990154130987
3.4224,85391.1061,-7.507015517072912,1.3933848995286229,-4.5078462441735,1.651670289345712,3.0349847646648254,1.9739104057546715,-4.3197655755029025,15.51805513317792,-29.524638640317477,-161.062332,-167.1131309863789,0.0,161.062332,0.0423427600475204,-0.16385798,-0.42882884,-0.88739139,1.0,0.0,0.0,0.0,175.1464260389078
3.4389,85391.1261,-8.253659789523063,1.183587868820727,-2.1665717647349947,2.0507441169950797,2.6722431573671956,1.6930083222610695,-5.160936027580702,16.171355192182055,-28.992101539499366,-154.950424,-161.56255794411126,0.0,154.950424,0.078759501716533,-0.19842288,-0.41187587,-0.88588011,1.0,0.0,0.0,0.0,170.96546915361716
3.4587,85391.1461,-8.513885837517538,0.5740168611179255,0.16901739686288586,2.2937471435075256,2.252198772075664,1.3465167362803399,-5.759772904661011,16.804604223423354,-28.40975576982838,-150.352997,-156.35845465870895,0.0,150.352997,0.1165714740749858,-0.22501905,-0.38890618,-0.8857367,1.0,0.0,0.0,0.0,166.61145285350906
3.4782,85391.166,-8.304581836992405,-0.2282050873471353,2.13379238471499,2.3398226124320836,1.8419727151648688,0.9161084669137548,-5.906436825916694,17.3476311394439,-27.921556205793756,-147.435699,-152.09227936663476,0.0,147.435699,0.1493998310060773,-0.24492277,-0.3623226,-0.88680035,1.0,0.0,0.0,0.0,162.81570500166868
3.4982,85391.1861,-7.774710648562513,-0.8235101358037715,3.538963443254076,2.2032277118408135,1.4757399083730214,0.4265917553149862,-5.472959464691019,17.562274059226418,-27.780501735961607,-146.286331,-149.3144398211667,0.0,146.286331,0.1690901932297561,-0.26281834,-0.33704492,-0.88810796,1.0,0.0,0.0,0.0,160.53014961606695
3.5267,85391.2061,-7.078507141894766,-1.176307920899926,4.501500709214884,1.9089269250403567,1.1976732294056582,-0.07086343187160585,-4.872875859266927,17.284935926275132,-28.04170925855309,-145.84903,-147.4076035125125,0.0,145.84903,0.1803065622632234,-0.27973068,-0.31722698,-0.88803566,1.0,0.0,0.0,0.0,159.22476661199812
3.5452,85391.226,-6.310021092851985,-1.480699786080279,5.262602335268845,1.5068036623265626,1.0058953957124404,-0.5293094017469738,-4.364340134819361,16.796437744828566,-28.45306408585426,-145.714523,-145.93768538537077,0.0,145.714523,0.1879321887861688,-0.29496819,-0.30026346,-0.88742161,1.0,0.0,0.0,0.0,158.33573273636796
3.5598,85391.246,-5.573775327098562,-1.7908346469714647,5.94764745063566,1.052267635663828,0.8649622919078125,-0.9258255905932923,-3.759230346005195,16.358622332347753,-28.832092352858478,-146.305084,-145.30679510014815,0.0,146.305084,0.1898531333268104,-0.3073588,-0.28347132,-0.8883301,1.0,0.0,0.0,0.0,158.11157329118788
3.5787,85391.2661,-4.886738361795628,-2.0763615475297215,6.5190371692657365,0.5933577808247056,0.7482627359900572,-1.2614627493662218,-3.0278653405630696,16.008342921185964,-29.126761769519362,-147.606003,-145.58504705696282,0.0,147.606003,0.1855909715422434,-0.31708494,-0.26724005,-0.89083999,1.0,0.0,0.0,0.0,158.60882146348496
3.5971,85391.286,-4.14581664127779,-2.1327995173061565,6.91016146891479,0.1726808522584048,0.6219018952467622,-1.551632188157209,-2.420460187429926,15.425446606278342,-29.493677596244126,-149.148224,-146.34451000234938,0.0,149.148224,0.1755386879920318,-0.32783854,-0.25696033,-0.89200866,1.0,0.0,0.0,0.0,159.7799841287678
3.6168,85391.3061,-3.388893329876751,-1.9408824233019422,7.084487208038009,-0.1701468019926322,0.46729401478537425,-1.797604900712118,-1.9335764026155182,14.634803548006579,-29.948097322380974,-150.856964,-147.5591435645003,0.0,150.856964,0.1603006930913705,-0.33839133,-0.25327557,-0.89199018,1.0,0.0,0.0,0.0,161.5513001037282
3.6371,85391.3261,-2.597745684874554,-1.648591967201884,7.121148607374312,-0.4470059803577775,0.29561035037631933,-2.000254832748954,-1.6394924410689402,13.94324815735214,-30.35776584430149,-152.784149,-149.1290864675047,0.0,152.784149,0.1418234650060325,-0.34864569,-0.25171375,-0.89161229,1.0,0.0,0.0,0.0,163.69324785745522
3.6599,85391.346,-1.812684448804807,-1.3963519140388492,7.08834889666009,-0.7170330355079312,0.13985673540910037,-2.166144205021563,-1.4756114895027777,13.613605635342674,-30.61438801472513,-155.083191,-151.16258130042038,0.0,155.083191,0.1211526939421247,-0.35754848,-0.24821475,-0.89211577,1.0,0.0,0.0,0.0,166.08273504091517
3.6769,85391.3661,-1.0568101919828745,-1.1434429140944982,6.980303449809238,-1.0558671841046134,0.026433151553615364,-2.3084461445320987,-1.412082378506434,13.521303091859052,-30.75451643619044,-157.526718,-153.52093234325523,0.0,157.526718,0.0994559393738481,-0.36443481,-0.24466603,-0.89299178,1.0,0.0,0.0,0.0,168.58431616367085
3.6971,85391.3861,-0.3157227810412495,-0.8122465505676013,6.700201964061403,-1.509080953344386,-0.014173821073383275,-2.43622563971344,-1.3946823796835215,13.477515609232022,-30.829267845320445,-160.103638,-156.20621492785338,0.0,160.103638,0.0757131955742612,-0.37010473,-0.24287547,-0.8934772,1.0,0.0,0.0,0.0,171.31559615729574
3.7203,85391.406,0.3594132120710538,-0.38902828826412605,6.103291870681215,-2.0500876672743025,0.04171885764902483,-2.5602245377866546,-1.247357117573773,13.37739939435993,-30.869903003048236,-163.0439,-159.50384216218393,0.0,163.0439,0.0476601979427284,-0.3742826,-0.2434081,-0.8935287,1.0,0.0,0.0,0.0,174.53647388660187
3.7398,85391.426,1.0532568918970837,0.20125371633566758,5.106487140637654,-2.616697215250704,0.14874576450960886,-2.670060507170598,-1.2182187751224225,12.911509777684248,-30.994846920851884,-165.985901,-162.9101951540758,0.0,165.985901,0.015053366594555,-0.3810294,-0.25096154,-0.88972372,1.0,0.0,0.0,0.0,178.27494609851271
3.7574,85391.446,1.6939408200478863,0.920855235397724,3.7957472111579946,-3.1159132005696595,0.21581922407066267,-2.762882941182057,-1.3733256753688368,11.951096005509328,-31.25308773784638,-168.644348,-166.11968058051144,0.0,168.644348,0.0215862155033307,0.3901549,0.26868671,0.88040936,1.0,0.0,0.0,0.0,177.5262097701417
3.7769,85391.466,2.2034302873001685,1.505360769087841,2.4351035092012907,-3.4994486109896448,0.20772755524027042,-2.8282660823415413,-1.6430879811071475,11.075836588378685,-31.42899779389048,-171.190353,-169.21212128734518,0.0,171.190353,0.0595590716095704,0.40059906,0.28877982,0.8675133,1.0,0.0,0.0,0.0,173.17099166063457
3.7995,85391.4861,2.511538553895777,1.9097480661365918,1.2435063012767937,-3.7744393383283263,0.11522193474346398,-2.86712682990422,-1.7487095825996128,10.72377341824978,-31.422234984682824,-174.0401,-172.6832803250388,0.0,174.0401,0.0973623578289629,0.40899935,0.30490485,0.8545602,1.0,0.0,0.0,0.0,168.82539316066462
3.823,85391.5061,2.671715034191004,2.2348507478460613,0.15641938069301276,-3.9913730382397064,-0.05915905636827068,-2.8698474250213497,-1.5616885211507037,10.80702121079829,-31.289747490980055,-177.467209,-176.89118992393193,0.0,177.467209,0.1358284303840217,0.41386864,0.31718847,0.84241015,1.0,0.0,0.0,0.0,164.38694655813754
3.8403,85391.5271,2.7454788354992496,2.4816731379674057,-1.0631634965750862,-4.178865889538611,-0.31640452498825455,-2.8219748457528375,-1.0987520753477886,10.953128500337481,-31.131686967487536,178.504257,178.19126888155736,0.0,178.504257,0.1757462924725498,0.41375044,0.32986933,0.83012652,1.0,0.0,0.0,0.0,159.7558187328516
3.8604,85391.5471,2.7966065014428705,2.4784595265707976,-2.571468879003879,-4.331217591172432,-0.6292809082302151,-2.689473616524423,-0.48915233085891696,10.875471008265087,-31.012570834950246,173.670761,172.60559471239415,0.0,173.67076099999997,0.2189628485977644,0.40969005,0.34570926,0.81528795,1.0,0.0,0.0,0.0,154.7037531694194
3.8803,85391.5681,2.792573469884022,1.9683485135705179,-4.264398797931161,-4.403547832143145,-0.9603993444044701,-2.467334203747611,0.1991861107905395,10.797168098042807,-30.85162162743731,167.886459,166.58177732458364,0.0,167.886459,0.2624244511976088,0.40148056,0.36204311,0.79929441,1.0,0.0,0.0,0.0,149.5720614699647
3.9004,85391.588,2.700533920520198,0.8785868062167099,-5.892372038706891,-4.346532622581604,-1.2902225468174537,-2.1790017413558602,0.9026802707836703,10.967118816162024,-30.59767512141176,161.16864,160.5489290439777,0.0,161.16863999999998,0.3023769577086274,0.38853198,0.37656695,0.78473461,1.0,0.0,0.0,0.0,144.79915041687315
3.9467,85391.6081,2.555279804276178,-0.6454318587121329,-7.2070791902046745,-4.1335239086023305,-1.5940073119539881,-1.861072343439114,1.6629463980842054,11.218807585575554,-30.356918678882955,152.871628,154.41670022668717,0.0,152.871628,0.3405829619483468,0.36913973,0.39052004,0.77151358,1.0,0.0,0.0,0.0,140.1752095340453
3.9633,85391.6281,2.4551216803916796,-2.360124599483027,-8.034965418044825,-3.784072998438047,-1.838829960064684,-1.4954953146795624,2.053575965326199,11.311045315592747,-30.27902094179689,143.477081,149.22386535813064,0.0,143.477081,0.3753403253929451,0.34649765,0.408503,0.75642866,1.0,0.0,0.0,0.0,135.90930283662613
3.9666,85391.6479,2.4320095620035724,-4.017452447920068,-8.299374905159091,-3.2912645873365367,-1.9660178342099146,-1.1853291842672116,2.2120396919148195,11.611007093082778,-30.2288236669317,133.518265,144.80752960308774,0.0,133.51826500000004,0.4043549068227888,0.32073224,0.42431751,0.74403131,1.0,0.0,0.0,0.0,132.29858279880196
3.9862,85391.6681,2.4680310304581043,-5.388567513347235,-8.042774111022727,-2.686943018921596,-1.9490825744667364,-0.9704392902471074,2.2028004164779436,12.034670771604826,-30.201811104019598,123.744774,140.83344255257452,0.0,123.744774,0.4295285800694467,0.29423961,0.43694752,0.73348832,1.0,0.0,0.0,0.0,129.1247072553038
4.0016,85391.6881,2.49273496759276,-6.336555080969169,-7.37384843573215,-2.0163732619335692,-1.8039594597869235,-0.8636232983845988,2.0946550402109114,12.588633000523993,-30.14086615436966,115.366798,137.13307083184222,0.0,115.36679800000002,0.4516201102081305,0.27044386,0.44491223,0.72453606,1.0,0.0,0.0,0.0,126.30464771686745
4.0209,85391.708,2.4432207642819215,-6.755038990150074,-6.293329771920133,-1.3168537045841087,-1.6035005153580113,-0.8315816623890059,2.1840365107348454,12.719848785409784,-30.207170632069566,107.257736,133.43560894249578,0.0,107.25773600000002,0.4735469400060505,0.24329123,0.45243657,0.71544659,1.0,0.0,0.0,0.0,123.4704329362001
4.0396,85391.7281,2.2722620397465256,-6.690063702864431,-4.997594691702675,-0.6474923216132672,-1.3992154479228405,-0.8285624186191238,2.4536192923251683,12.49357416801647,-30.336318091012348,100.309959,129.84918158610185,0.0,100.30995899999999,0.4944655281197331,0.21622078,0.45826331,0.70622033,1.0,0.0,0.0,0.0,120.73097433691413
4.0615,85391.7481,2.01322234269764,-6.341148888233816,-3.742017793167654,-0.059327593604134754,-1.2396329549444522,-0.8065175474229145,2.741655811500884,12.249514745103847,-30.3747885600245,95.587341,126.64361372929706,0.0,95.58734099999998,0.512285350665887,0.19549929,0.45972475,0.69856775,1.0,0.0,0.0,0.0,118.36764789107194
4.0827,85391.7689,1.7549850632968385,-5.871895901777878,-2.584054555527141,0.41137802217630925,-1.1740648162787741,-0.7056834340707372,3.008348873813352,11.95032140974778,-30.349841173464405,92.234978,123.62754353430627,0.0,92.23497800000001,0.5285110150656431,0.18236269,0.45790645,0.69118857,1.0,0.0,0.0,0.0,116.19018957181275
4.1015,85391.789,1.747065876711154,-5.317293813752801,-1.463250490665562,0.7559243961143091,-1.212057694776653,-0.49089853183376253,2.985836042361843,11.539797981928077,-30.339518006111327,89.998795,121.47302771123631,0.0,89.99879499999997,0.5401228696140119,0.17430693,0.45636979,0.68528169,1.0,0.0,0.0,0.0,114.61599299139192
4.122,85391.8091,2.0584060326254083,-4.708409476408048,-0.28343908519828354,0.9797399641412228,-1.2977744398473503,-0.16696842216792973,2.8940338887927375,11.140539337562297,-30.309682566638656,88.840904,119.66779278146346,0.0,88.84090400000002,0.5491526972962021,0.16769087,0.4521952,0.68251783,1.0,0.0,0.0,0.0,113.38219227100798
4.1426,85391.8291,2.549340061759205,-4.041126607308717,1.0506123799702145,1.1026807215718275,-1.32707297573524,0.22859771145653235,2.9792389250253013,10.811523358063548,-30.246730253768938,88.92691,118.01023715070515,0.0,88.92691000000002,0.5563789705247784,0.15691654,0.44303659,0.68522859,1.0,0.0,0.0,0.0,112.3885050764448
4.1667,85391.8491,2.921648072249959,-3.247072351665706,2.5399136775466182,1.1427106427967042,-1.195198305720247,0.6307717179062559,3.191598124476492,10.427498889963312,-30.218287612750807,89.936813,116.8799493023489,0.0,89.93681300000003,0.5605110886352874,0.1395642,0.43149653,0.69293571,1.0,0.0,0.0,0.0,111.81769940281498
4.1813,85391.8691,2.8693074299377512,-2.3730580793911003,3.9842440310061935,1.1060929214836772,-0.8660423541546083,0.9642599383321842,3.359429270170878,10.050647143481378,-30.223843653479978,91.589127,116.43293349659523,0.0,91.58912700000002,0.5607746693711394,0.12035688,0.41950715,0.70360482,1.0,0.0,0.0,0.0,111.78122352971585
4.2044,85391.8891,2.34317214965428,-1.5853437154819532,5.098939755650008,1.0013115098583518,-0.393062835848481,1.1880831644924033,3.211048836344176,9.835547802533469,-30.241420873653205,93.905281,116.97046909261597,0.0,93.905281,0.5553589046520939,0.10596326,0.40912431,0.71621615,1.0,0.0,0.0,0.0,112.52912240093971
4.221,85391.9091,1.5270273052484473,-0.9857301386344475,5.731456005570665,0.8355536251040315,0.11644647315190042,1.3209295756805386,2.6460860455334636,9.69485637501453,-30.29913528412275,96.458199,118.4525811154285,0.0,96.45819899999998,0.5448167986091936,0.09944075,0.40348262,0.72834605,1.0,0.0,0.0,0.0,113.975709640384
4.2433,85391.9291,0.6305403996877406,-0.5837646230109643,5.910181234978875,0.6182122777925492,0.5551543805482232,1.4120925216412894,1.8662444222804133,9.52450880005285,-30.39497133887466,98.814178,120.43789936699149,0.0,98.81417799999997,0.5319681787930127,0.09990647,0.4029589,0.73800588,1.0,0.0,0.0,0.0,115.72293311805916
4.2604,85391.9491,-0.22795018215550655,-0.34429565925573313,5.7384251913552635,0.36038318417523796,0.8578722301202607,1.5059382209048318,1.1527222748921595,9.358659910997472,-30.505945288595644,101.147247,122.73657312297715,0.0,101.147247,0.5175680250888054,0.10338717,0.40528101,0.74644607,1.0,0.0,0.0,0.0,117.66147928589857
4.2813,85391.9691,-0.9589323041831683,-0.22690404459784985,5.297420332110857,0.08387766565230081,1.0061733823423669,1.6161504299641338,0.6428595880510635,9.228539249245053,-30.63710061205515,103.560287,125.24538940779887,0.0,103.56028700000002,0.5019142676810612,0.1072828,0.40906128,0.75448084,1.0,0.0,0.0,0.0,119.74654410179618
4.3028,85391.989,-1.476152690169017,-0.10484154909819843,4.659954222971818,-0.17919900599508942,1.0298488072814087,1.721246063725662,0.30569295712681566,8.954447554499088,-30.840450544726238,105.744576,127.97895996453772,0.0,105.744576,0.4850604250689055,0.10890629,0.41641831,0.76121718,1.0,0.0,0.0,0.0,121.9671372594111
4.3238,85392.0091,-1.709428336271901,0.06862571029486508,3.931389215226801,-0.40438256568159664,0.9729265124254246,1.7958330073639481,0.06901264155428422,8.557611433213452,-31.076017635871406,107.77803,130.9468225335324,0.0,107.77803,0.4665980768647538,0.10759915,0.4269031,0.76711303,1.0,0.0,0.0,0.0,124.37260808357776
4.3448,85392.0291,-1.6149435788853639,0.31191414067551637,3.216795310396325,-0.584950856673703,0.8897977552741632,1.823548923685868,-0.09033923680260791,8.150774591613423,-31.271079783715315,109.725014,133.93128715426388,0.0,109.72501399999999,0.4474491368129073,0.10428334,0.43847722,0.77243251,1.0,0.0,0.0,0.0,126.83971875139547
4.3742,85392.049,-1.2362496793410225,0.4663288389068607,2.5190786719062466,-0.7278023024677344,0.8302934897419831,1.8052802219036876,-0.12487087812673714,8.015316796364967,-31.329711870798505,111.955505,136.63658408047948,0.0,111.95550500000002,0.4289037074593619,0.10093558,0.4467603,0.77862626,1.0,0.0,0.0,0.0,129.203986469009
4.382,85392.0691,-0.7457756110860174,0.4163828166824457,1.710004961269572,-0.8264820160104257,0.8572153547784321,1.739663134926499,0.08695995573958726,7.9471307516764575,-31.306421592098594,113.85141,138.79938640423057,0.0,113.85140999999999,0.4128093482368559,0.0951153,0.45334291,0.78423321,1.0,0.0,0.0,0.0,131.2371274642939
4.4427,85392.0891,-0.2575753580391327,0.08258051616404227,0.6744221788616755,-0.8262776064519645,0.9969898828062401,1.639671264442656,0.320855644851445,7.673085946893994,-31.28539619942572,115.085022,140.864541498531,0.0,115.08502199999998,0.3973480123540622,0.08778582,0.4633956,0.78719294,1.0,0.0,0.0,0.0,133.17501146667422
4.444,85392.109,0.11999492333421102,-0.5130601499181318,-0.546969017474698,-0.6686190942838681,1.2148220003671248,1.5288734606148457,0.3760956081463682,7.2980230862703825,-31.264080502920038,116.060013,143.20478722520022,0.0,116.06001300000003,0.380811753816731,0.08298267,0.47713378,0.78767991,1.0,0.0,0.0,0.0,135.23205275926702
4.4454,85392.1291,0.2717070701762583,-1.116710622647545,-1.766153539764563,-0.34669936684183417,1.4488696578991922,1.4268897971057508,0.3317428607478625,7.022613008880247,-31.224720382864465,117.200066,145.76656673563707,0.0,117.20006599999999,0.3633053162148253,0.08161203,0.49157232,0.78721368,1.0,0.0,0.0,0.0,137.393347753592
4.4806,85392.1491,0.19582334827561754,-1.4079357994606567,-2.790841297271605,0.09075220303987458,1.6376247021968229,1.3639816219022793,0.3102579412883646,7.047268173497871,-31.164526928163518,119.08683,148.442601921391,0.0,119.08683000000002,0.3448903297915543,0.08345359,0.50322878,0.78793842,1.0,0.0,0.0,0.0,139.64979752909048
4.4843,85392.169,0.03891907875252221,-1.220629361824885,-3.5418514820307285,0.5719010636005848,1.7414770272629045,1.381586228169812,0.28917213311403955,7.439618062614699,-31.10569490967392,122.277611,151.30644926218972,0.0,122.27761099999998,0.3251626285108088,0.08962134,0.51062894,0.79088265,1.0,0.0,0.0,0.0,142.04914384785627
4.4999,85392.189,0.0044593878126066855,-0.6759275301134654,-4.069971828120577,1.0409809027441046,1.7421375111958879,1.5224224960515516,0.24111099036270467,8.266202795342437,-31.033734850342277,127.348495,154.345592365114,0.0,127.34849500000001,0.3045998143621441,0.10191712,0.51163495,0.79690748,1.0,0.0,0.0,0.0,144.5318211857244
4.5198,85392.2091,0.19892532446413513,0.003870407485707883,-4.505919419434563,1.4624873694447078,1.6700809072902627,1.7980052467619148,0.31896781966422694,9.284579045896326,-30.97308925867233,133.720566,157.28332374444784,0.0,133.72056599999996,0.2837167894033682,0.11556222,0.50685149,0.80576158,1.0,0.0,0.0,0.0,147.03567963720744
4.5474,85392.229,0.5408753340598811,0.6894840454483775,-5.001133107048878,1.8292612833741506,1.6080881835698422,2.1775781466091346,0.5667806797022426,10.120509577060439,-30.985687281397755,140.303085,160.04567651280934,0.0,140.303085,0.2611777298831349,0.12425069,0.49969,0.81649119,1.0,0.0,0.0,0.0,149.72008811648925
4.5619,85392.249,0.7620269194946107,1.3785715145342283,-5.61842032842628,2.146452691851005,1.6331706394930003,2.607000074547832,0.9323623249137718,10.750241845979204,-31.032262276652197,146.809128,162.6983960703723,0.0,146.809128,0.2351645824563493,0.12545171,0.49034178,0.82977372,1.0,0.0,0.0,0.0,152.79735091688207
4.5798,85392.2691,0.5953580808730249,2.1095778083372867,-6.27158406286607,2.442279443333612,1.75998817054356,2.9946086293843632,1.1045279590549502,11.394143881317842,-30.99790640549462,153.949188,165.70014529239234,0.0,153.949188,0.2039603650053232,0.12502119,0.47699437,0.84572232,1.0,0.0,0.0,0.0,156.4627068435647
4.5999,85392.289,-0.11838499637685138,2.912637687324668,-6.770289113352739,2.7325148971147715,2.0124854175567375,3.2069823673410154,0.69588777227208,11.83995253106259,-30.94199709864097,162.213104,169.72553818687427,0.0,162.213104,0.1651265592262993,0.12827593,0.46359348,0.86102241,1.0,0.0,0.0,0.0,160.99082674445145
4.6326,85392.309,-1.3829510092986521,3.708498510276911,-6.84697398934131,2.9380828112453696,2.379472670353394,3.1971033219813165,-0.047024569728362664,12.123345861127873,-30.828273477903416,170.969666,174.48241892637577,0.0,170.96966599999996,0.1198429775262089,0.13316214,0.44859013,0.87559831,1.0,0.0,0.0,0.0,166.23391908722428
4.6484,85392.3291,-2.9579157275491195,4.4086022206683335,-6.30803848418838,2.9802905846620367,2.8077084174984384,2.9891842682016563,-0.9349368013033185,12.380386815363014,-30.609949533666494,179.635178,179.76164456798372,0.0,179.635178,0.0702758766606687,0.14090872,0.42946821,0.88924861,1.0,0.0,0.0,0.0,171.94033438133982
4.6643,85392.3491,-4.488509158813301,5.003375957552633,-5.1123135988258435,2.8551063742139604,3.18283252416717,2.6917447327972877,-1.6800189229242117,12.742216097196437,-30.286749238409193,-173.080917,-175.090117041017,0.0,173.080917,0.0246153172260628,0.15596749,0.40387124,0.90108615,1.0,0.0,0.0,0.0,177.17900749448512
4.6814,85392.369,-5.65671842674411,5.46304988554657,-3.270715717560103,2.6330206323528693,3.4265898718783014,2.3917439614409868,-2.6675507102675424,13.176960524470344,-29.913441126184072,-166.730408,-169.64289690343418,0.0,166.730408,0.0169743838021064,-0.18633506,-0.37329686,-0.90864766,1.0,0.0,0.0,0.0,178.0547854766332
4.7018,85392.389,-6.471102379291735,5.615297369397123,-1.077384885989579,2.278871993623264,3.5269299176971676,2.198124156486449,-3.6513054070504802,13.414294586109714,-29.679440276107293,-161.323837,-164.05224200953685,0.0,161.323837,0.0566612264687143,-0.22178425,-0.34407121,-0.91061312,1.0,0.0,0.0,0.0,173.5036224579023
4.7221,85392.4091,-6.979725288337887,5.1770026026695035,1.097320902326702,1.8212650022277275,3.4357865168477644,2.172167094173162,-4.502653585822444,13.665954565469505,-29.548337828693,-156.646423,-158.36010030873553,0.0,156.646423,0.0969390574145525,-0.25542113,-0.31584856,-0.90862674,1.0,0.0,0.0,0.0,168.87413035790328
4.7462,85392.429,-7.135068528048948,4.128114045105171,2.757637162946523,1.3698633046408868,3.1557528022972674,2.2552652719403414,-5.180195172809879,13.91165342966103,-29.537796935373624,-152.675385,-152.80810150969432,0.0,152.675385,0.1351279084514338,-0.2866334,-0.29055953,-0.9028604,1.0,0.0,0.0,0.0,164.46796744600513
4.7739,85392.449,-6.960492900804504,2.7786645766881324,3.4774111793193416,1.0185718734416835,2.8061544973413017,2.316169023219468,-5.7778517339929945,13.73880249605028,-29.787733282014113,-148.983124,-147.33862388139144,0.0,148.983124,0.1690917867629027,-0.31662589,-0.27513373,-0.89188421,1.0,0.0,0.0,0.0,160.52996434276622
4.7868,85392.4691,-6.853734730307489,1.2608313658756667,3.154736972790225,0.7373672889247309,2.5278567136200705,2.3000780474342237,-5.850340800262729,13.209472623303892,-30.29410184356379,-145.356308,-142.4503682197432,0.0,145.356308,0.2003511060699087,-0.33529365,-0.270814,-0.87982804,1.0,0.0,0.0,0.0,156.88501698960414
4.8066,85392.489,-6.6748710436558385,-0.31393275478017707,2.3522056859640266,0.5431016018837185,2.4021160961773695,2.163963344185965,-5.780041250723513,12.81865380655563,-30.716907911276582,-141.95787,-137.88645343347284,0.0,141.95787,0.2303066025260806,-0.34964323,-0.26798987,-0.86769229,1.0,0.0,0.0,0.0,153.36975322930837
4.8227,85392.509,-6.403991489322675,-1.694743125189151,1.6884682369523283,0.3665316146373383,2.4591455701941,1.8981796417068189,-5.751743165164452,12.619491855209851,-30.990353198043778,-138.944458,-133.54546457294973,0.0,138.944458,0.2582215570871532,-0.36362469,-0.26384026,-0.85527015,1.0,0.0,0.0,0.0,150.07087647168868
4.8457,85392.5291,-5.967130044826799,-2.6884685119943232,1.6491054197066788,0.1673682239108939,2.6248012232399285,1.5384147183736905,-5.969129151467093,12.53071319684911,-31.118267535656507,-136.636169,-129.26201200142327,0.0,136.636169,0.2815493471227507,-0.38306552,-0.25653923,-0.84153336,1.0,0.0,0.0,0.0,147.2946072650711
4.8617,85392.549,-5.262777327532207,-3.2415732635762624,2.3585394102731474,-0.058853399968010534,2.763760159266658,1.1218727939021838,-6.4545740499705,12.27858791747058,-31.209871852562664,-134.973358,-124.81903998244745,0.0,134.973358,0.2991379464224559,-0.40976125,-0.24902803,-0.82498318,1.0,0.0,0.0,0.0,145.18833289194612
4.8868,85392.569,-4.167312670978906,-3.379049194095499,3.6168353432157296,-0.2833889531035334,2.7325484964053564,0.6591027172118558,-7.082043817848867,11.636102655107198,-31.364385509737865,-133.705872,-120.07315441491956,0.0,133.705872,0.3109444232616628,-0.44219482,-0.24565263,-0.80463165,1.0,0.0,0.0,0.0,143.7676899366221
4.9027,85392.5891,-2.7732752359915636,-3.246579862041621,5.029194767273507,-0.47646150939840337,2.436967819932196,0.17174495742319665,-7.4138975723505345,10.86020945430883,-31.570195306894753,-133.013992,-115.66705614817796,0.0,133.013992,0.3161216605198518,-0.47435433,-0.24537767,-0.78412044,1.0,0.0,0.0,0.0,143.1429186098333
4.9204,85392.609,-1.4018827019161875,-3.202177347218012,6.262514709825613,-0.6558303522684111,1.8831400205478135,-0.2952713168622708,-7.002410044299797,10.599139447884319,-31.730794038544843,-133.12001,-112.59409888904003,0.0,133.12001,0.3163918498293149,-0.49827257,-0.24228863,-0.77001095,1.0,0.0,0.0,0.0,143.1102820810873
4.9413,85392.629,-0.2949355368602484,-3.325945503708782,7.215367335872738,-0.8883970490972423,1.157866219537403,-0.7407648389377034,-5.881196002836381,10.86714933739378,-31.83377857489158,-133.999832,-111.11553716971287,0.0,133.999832,0.3119022544758213,-0.51374102,-0.23593386,-0.76362449,1.0,0.0,0.0,0.0,143.65218673173297
4.961,85392.6491,0.48059414241028175,-3.352908423092208,7.851808642071568,-1.245826204416098,0.3496214298978111,-1.1639181286524307,-4.434424264957577,11.212344236406409,-31.905406079925797,-135.295914,-110.79913496964379,0.0,135.295914,0.3026253981213203,-0.52430463,-0.23076285,-0.76175523,1.0,0.0,0.0,0.0,144.76928187167297
4.9827,85392.669,0.8783857736737013,-2.870071364452464,8.1372134644674,-1.7368686610631139,-0.48335560034226144,-1.533851739790068,-2.8950697794459535,11.13952642856297,-32.037219887134555,-136.811523,-111.6099239807199,0.0,136.811523,0.2860741770184497,-0.53176886,-0.23253059,-0.76243883,1.0,0.0,0.0,0.0,146.75386399027818
5.0032,85392.689,0.9196568452708931,-1.7639965180729216,8.023419796849296,-2.3350290058683827,-1.2792566712129476,-1.798279932549235,-1.368001593510038,10.571264885561371,-32.198337398976655,-138.761368,-113.83761948313429,0.0,138.761368,0.2596278578993806,-0.53625542,-0.24118556,-0.76606333,1.0,0.0,0.0,0.0,149.90403659632943
5.0294,85392.7091,0.7074307179629353,-0.34969311756844723,7.462274227500835,-3.02484244495131,-1.9514393826843304,-1.9436906679945065,-0.0013477246687587652,9.861365843752422,-32.2330144838994,-141.218231,-117.52635757642317,0.0,141.218231,0.2254555278790155,-0.5364365,-0.2524235,-0.77310288,1.0,0.0,0.0,0.0,153.94066744361442
5.0444,85392.729,0.2620129300435634,1.0749492494899267,6.443712450261387,-3.76465957625359,-2.456763595721842,-2.0206731028275033,1.1063643584704081,9.186066393032885,-32.118264120887844,-143.788727,-122.49946223203462,0.0,143.788727,0.1873408927333736,-0.53037858,-0.26699394,-0.78250635,1.0,0.0,0.0,0.0,158.4047155095388
5.0616,85392.749,-0.347278835823996,2.467650799762425,4.90299838149569,-4.483053595539644,-2.825926518812431,-2.062361249599608,1.7747226087262096,8.275241840741334,-32.006823637126374,-146.077347,-128.06187920869704,0.0,146.077347,0.1452906019511339,-0.52049828,-0.28978032,-0.78993642,1.0,0.0,0.0,0.0,163.29178467616183
5.0814,85392.7691,-1.0093591756418658,3.643286062988628,2.7222124106374004,-5.069186919460699,-3.1034049365745755,-2.112594562269585,2.002889803448804,7.194618506691442,-31.93602333271507,-148.016418,-133.758156219234,0.0,148.016418,0.1001536030884067,-0.50813413,-0.31996253,-0.79334289,1.0,0.0,0.0,0.0,168.50396861708916
5.1014,85392.789,-1.4608662519230264,4.372732848541779,-0.17004017595398402,-5.404975119566189,-3.3188540090875263,-2.167537336221967,1.902906750170816,6.05114556161106,-31.899242000944046,-149.933838,-139.5064777440588,0.0,149.933838,0.0505756696207597,-0.49518055,-0.35409233,-0.79174298,1.0,0.0,0.0,0.0,174.20198158530908
5.1219,85392.809,-1.3900525563341977,4.25158865263166,-3.5116407867521913,-5.379064126841018,-3.4804692856827484,-2.1962732836763244,1.4990804085208076,5.371519886425315,-31.82101760787106,-152.03392,-145.0317469269208,0.0,152.03392,0.0008572883272359,-0.4828409,-0.38514888,-0.78646314,1.0,0.0,0.0,0.0,179.90176198201388
5.1436,85392.8291,-0.7035713558098894,3.1797029965020025,-6.69472818719597,-4.939094915193383,-3.594519255871204,-2.142506760180916,1.1366172321794474,5.054804631030393,-31.75020239882171,-154.740082,-151.02599420382833,0.0,154.740082,0.0511750451372815,0.46840063,0.41372198,0.77898401,1.0,0.0,0.0,0.0,174.13320914980855
5.1682,85392.8491,0.4576796857124838,1.3494705500870632,-8.828671863878126,-4.164260296960356,-3.587067725236832,-2.035371881217798,0.9545329476832469,5.69430008451384,-31.61540303913764,-158.95253,-157.77524027973905,0.0,158.95253,0.1001465037472461,0.45126453,0.43121472,0.77484506,1.0,0.0,0.0,0.0,168.50478625244952
5.1817,85392.869,1.7022628530900623,-0.540119264303653,-9.432743105231456,-3.190855215464094,-3.495370458875816,-1.828258784429027,1.2725223249851512,6.3503944327224,-31.549780581819345,-164.928406,-165.95148442654568,0.0,164.928406,0.1496448430176688,0.42410302,0.44826111,0.77253157,1.0,0.0,0.0,0.0,162.78730948063765
5.2023,85392.8891,2.657584601706181,-1.8543379143408485,-8.58712649991972,-2.25539691386748,-3.2277828709176877,-1.6174646477111467,1.4691157105262693,7.747736151290205,-31.36626179075902,-172.357437,-173.60806410830588,0.0,172.357437,0.1871025366010856,0.39503658,0.4550541,0.77579927,1.0,0.0,0.0,0.0,158.43252077188959
5.2234,85392.9091,3.0926010056335302,-2.376090859931698,-6.838767727846737,-1.5539483432228727,-2.8010973493195093,-1.437002423988118,1.2952418595730395,9.326574041387552,-31.096680800679597,179.927765,179.9438215375651,0.0,179.92776500000002,0.2164524551286606,0.37023944,0.45530954,0.7802335,1.0,0.0,0.0,0.0,154.99849277864453
5.2492,85392.929,2.9902071734837063,-2.276436365515799,-4.7246692810467295,-1.149831258072319,-2.308544337090119,-1.3261600530059043,0.8232416673602376,10.704020178432998,-30.80748141567335,172.73233,174.57558521635053,0.0,172.73233,0.2413499378422814,0.35114861,0.45236918,0.78345835,1.0,0.0,0.0,0.0,152.067543036107
5.2676,85392.95,2.4833082702282763,-1.8473154523093012,-2.6816953105488075,-1.0184687846323701,-1.8688907942004522,-1.2822968578117377,0.13721915711639854,11.709362234603711,-30.58376270945256,166.578049,170.1989544035541,0.0,166.57804899999996,0.263413370360488,0.33817354,0.44908828,0.78394628,1.0,0.0,0.0,0.0,149.45460739841224
5.286,85392.971,1.6185718485478588,-1.3109153691436473,-0.9938121013590653,-1.0809909302649576,-1.5898638468887847,-1.2804002025715724,-0.15227723442156993,12.157971463664458,-30.550449709537162,159.492523,165.36577001971875,0.0,159.492523,0.2894580890346545,0.32511547,0.44658625,0.78171265,1.0,0.0,0.0,0.0,146.34896921964014
5.3034,85392.991,0.7091561680901939,-0.8782964353980391,0.08832269741201593,-1.2753043118509357,-1.5308829803801864,-1.2797932275500834,-0.569801323804513,12.308042176734077,-30.63539157699194,153.529068,161.4662031766885,0.0,153.529068,0.3127039541645257,0.3172701,0.44630629,0.77612281,1.0,0.0,0.0,0.0,143.55548177163686
5.3234,85393.0111,-0.08761793747526347,-0.5933881081271153,0.5304134565843359,-1.5365061445202375,-1.6932348718976835,-1.263414273714949,-0.9237382312956894,12.072322885427171,-30.848884474925484,147.484436,157.90119636548843,0.0,147.48443599999996,0.3358860056641157,0.31073654,0.44951546,0.76717615,1.0,0.0,0.0,0.0,140.74715101677282
5.3434,85393.031,-0.5982733734991883,-0.5394863908562342,0.3817964640353768,-1.8010421044772724,-1.9982230312309903,-1.2762720774889948,-1.0792632976716217,11.656587162641507,-31.06185913019773,140.764191,154.27511654084552,0.0,140.76419099999998,0.3586375754994418,0.30131754,0.45368925,0.75812459,1.0,0.0,0.0,0.0,137.96690314959085
5.3678,85393.051,-0.5853419490906036,-0.8301116795250665,-0.23979106361310443,-1.988366758042623,-2.317677681113859,-1.3980849624492302,-0.9867777373799456,11.272683478385146,-31.148533833463574,133.475098,150.4655273762197,0.0,133.475098,0.3797120414283131,0.28519318,0.45647591,0.75240505,1.0,0.0,0.0,0.0,135.36830602974365
5.4046,85393.0711,0.2257726545563261,-1.4669479350446943,-1.073254860290998,-2.024521633423376,-2.5019000221809278,-1.6465688972317243,-0.7554827159172106,10.846957901351812,-31.115561567101302,125.540405,146.35356665573835,0.0,125.54040500000002,0.401549266070741,0.26327661,0.45896664,0.74752474,1.0,0.0,0.0,0.0,132.64986726519192
5.4094,85393.091,1.8020960553410688,-2.309524763585262,-1.6711729609876063,-1.8710215846707015,-2.4293452288450825,-1.9484477030429033,-0.4476082261272474,10.204534897226361,-31.05298541089177,116.183456,141.3794682141283,0.0,116.18345599999998,0.4296258514037281,0.23923099,0.4626036,0.73769104,1.0,0.0,0.0,0.0,129.11236384229645
5.4262,85393.111,3.547637908122145,-3.1328941022907615,-1.6053055714841236,-1.5120045854225637,-2.07262740090996,-2.2188960531769006,0.05019559760410175,9.477282121331916,-30.993971670765255,105.860252,135.0119217632106,0.0,105.860252,0.4659679483682319,0.21472818,0.46436501,0.72189391,1.0,0.0,0.0,0.0,124.45423198528668
5.4436,85393.1311,4.64505634427953,-3.660742354716096,-0.8681356659252089,-0.9936128742518391,-1.5057889608736186,-2.3875534002728367,0.6832788514116093,9.094408611062546,-30.902454162910722,97.121864,127.7848627193792,0.0,97.12186400000002,0.5054421416529277,0.19283153,0.45946887,0.70443779,1.0,0.0,0.0,0.0,119.27858578106267
5.4645,85393.151,4.79357853251938,-3.8443592894215537,-0.07208909710782052,-0.48769887127801004,-0.8557044787470576,-2.3956071121099725,0.7373813577866102,9.61312171960241,-30.696975148570356,92.477676,121.95369132453251,0.0,92.47767599999997,0.5353429341534847,0.18477646,0.4482989,0.69158781,1.0,0.0,0.0,0.0,115.26565729846132
5.4838,85393.171,4.160353853128692,-3.763506479540847,0.3338921398857373,-0.14753093605894363,-0.3274481306210407,-2.222313229926371,0.09262280692222724,10.51416087407926,-30.500184189303862,89.896423,117.99465585700737,0.0,89.89642300000003,0.5545841019298838,0.19035985,0.43928087,0.68061143,1.0,0.0,0.0,0.0,112.63585293308833
5.5074,85393.192,3.095246180421178,-3.481898221221608,0.392141189348024,0.011900854228298119,-0.09004740572890389,-1.9110871822062325,-0.6957331578303982,10.938911984040386,-30.49679598866093,86.548203,114.66343444684252,0.0,86.548203,0.5708593707818945,0.19991465,0.43788388,0.66514015,1.0,0.0,0.0,0.0,110.37965188882765
5.5284,85393.212,2.021333527963583,-3.116915852176284,0.2819509455724578,0.05132804316839479,-0.12845096494772887,-1.5204425069132474,-1.1668544920985138,10.939621469569133,-30.61258723354798,83.045395,111.62291710719765,0.0,83.04539499999998,0.5853067601622537,0.20642491,0.43902692,0.64966154,1.0,0.0,0.0,0.0,108.35067166682114
5.5439,85393.2321,1.238757746571176,-2.7283965050484236,0.17164394771648261,0.026330861326919974,-0.3293867561441212,-1.1091767088781206,-1.1039716048573958,10.716812304434775,-30.752328408770623,80.245178,108.69975563103033,0.0,80.24517800000001,0.5987348945550209,0.20717756,0.4377147,0.63796538,1.0,0.0,0.0,0.0,106.44131045488943
5.5638,85393.252,0.9172257706186047,-2.3310695608916756,0.16614342392192327,-0.020322710740977135,-0.5629087920023985,-0.7418711011230431,-0.7648115567425045,10.343580894712417,-30.878041824029854,78.642853,106.65596500743426,0.0,78.642853,0.6087201202173036,0.20124717,0.434953,0.63227785,1.0,0.0,0.0,0.0,105.0059665019512
5.5849,85393.2719,1.0106441639980623,-1.9716423699723629,0.3103370814548079,-0.05263945977263251,-0.7249861335574531,-0.45717129227522013,-0.3569945707828861,9.91402361586331,-30.965723894643332,77.691895,105.13857037367097,0.0,77.69189499999999,0.6168504962610576,0.19184813,0.43148795,0.62968874,1.0,0.0,0.0,0.0,103.82699192805636
5.6047,85393.293,1.3604790383760559,-1.6764787534463204,0.5954825504247303,-0.05375932666802988,-0.7556236357513676,-0.253697883072314,0.002684534507364944,9.53907114387989,-30.99490025954026,76.806396,103.49933093065063,0.0,76.806396,0.6254617428838732,0.18279172,0.42709774,0.62687504,1.0,0.0,0.0,0.0,102.56782763331952
5.6238,85393.313,1.7952230152918585,-1.3971967074215184,0.9803801850912279,-0.017379217738988165,-0.6381460051401576,-0.1064043746114306,0.1621981923926903,9.228195686799396,-30.97829893713272,76.172203,102.20563514507445,0.0,76.17220299999997,0.6326005149613221,0.17379124,0.42311803,0.62496746,1.0,0.0,0.0,0.0,101.51550904449377
5.6445,85393.333,2.1338459030453283,-1.1088685353804761,1.39824110231865,0.040880008565076294,-0.38633455323172594,0.010936738048191015,0.14336940230121797,9.006793578815874,-30.92271733834168,76.017876,101.46373412449897,0.0,76.017876,0.6372231553049521,0.16487092,0.41943076,0.62517363,1.0,0.0,0.0,0.0,100.8298650954984
5.6639,85393.353,2.278398472504655,-0.8812658537111135,1.7456189649568614,0.0896054549183579,-0.03935379645746788,0.12818439013660987,-0.03145609090742063,8.930888787980761,-30.825904540830102,76.283173,101.18503189206733,0.0,76.28317300000003,0.6392009264802765,0.15891679,0.41605318,0.62695086,1.0,0.0,0.0,0.0,100.53547924938071
5.689,85393.3731,2.1680652052331153,-0.7764420614526955,1.9233981829727895,0.10576333465994761,0.3438417382158433,0.2835661133432924,-0.22659039601716024,8.90826510466246,-30.73357492890664,76.507057,101.01307831720683,0.0,76.50705700000003,0.6401393943648341,0.15684535,0.41367555,0.62808728,1.0,0.0,0.0,0.0,100.39557085728384
5.7051,85393.393,1.8652518151941573,-0.7955721729016334,1.8896426316169581,0.09058054836451662,0.7024516199872349,0.5009202185015932,-0.4651239961067528,8.811525789290993,-30.705423652948827,76.345039,101.0424175003302,0.0,76.34503899999999,0.6397901885982128,0.15883107,0.41489327,0.62714016,1.0,0.0,0.0,0.0,100.44764765820172
5.7253,85393.413,1.4756561959020589,-0.9134531946369773,1.7139457218855778,0.05042281084880773,0.9962908104915686,0.7764867642508704,-0.7681158069344391,8.599799361232451,-30.768730890651337,76.489494,102.19361083023622,0.0,76.48949399999998,0.6345109535932445,0.16090295,0.42059943,0.62817371,1.0,0.0,0.0,0.0,101.232555519489
5.7468,85393.434,1.114251049939285,-1.17271540798879,1.5037367017460035,-0.0033649749414481622,1.210657004103187,1.0952657470313216,-0.9691345679403298,8.352433408059586,-30.904923660306277,77.220695,104.32340010804467,0.0,77.22069499999998,0.6250604703410209,0.16118641,0.42814979,0.63246036,1.0,0.0,0.0,0.0,102.62674809346679
5.7695,85393.455,0.9743592443167453,-1.5645118491846897,1.3030829916384192,-0.038571658587251756,1.3533244846977706,1.448567781488973,-1.176384704699391,8.111938147400517,-31.07523557670198,78.196411,107.1575622620038,0.0,78.19641100000001,0.6124284887481162,0.16182058,0.43791434,0.63794708,1.0,0.0,0.0,0.0,104.46938717763895
5.7965,85393.4749,1.053969880989027,-1.9925001422156159,1.1003085858314954,-0.017845739777888614,1.4441263385910081,1.8306759805417434,-1.2701508142348423,7.921361919228144,-31.232987643848176,79.006668,109.93899137076964,0.0,79.00666799999999,0.6000143535578136,0.16349509,0.4479163,0.64235747,1.0,0.0,0.0,0.0,106.25814869876916
5.8105,85393.4951,1.2712216993953946,-2.235602338680885,0.8727515271570745,0.07331446829040633,1.5183715400194875,2.203613916000616,-1.2769004229088345,7.654614501258925,-31.38432984407191,79.840248,113.10050520066478,0.0,79.84024799999997,0.5861741997916585,0.16242442,0.4593733,0.64729768,1.0,0.0,0.0,0.0,108.22802955073814
5.8272,85393.515,1.488342062733624,-2.1613690998879616,0.6013387211261758,0.22535146273426188,1.6012757468330097,2.5076192604269787,-1.2208589448909208,7.403563949674158,-31.512313268036262,81.573875,117.17331144451984,0.0,81.57387499999999,0.5675140663114369,0.1563434,0.47140032,0.65670866,1.0,0.0,0.0,0.0,110.84588933966477
5.8477,85393.535,1.5872853538263927,-1.7304698657750928,0.27263279929275797,0.43053964040206205,1.7040739182164406,2.686661961284046,-1.1807576633689152,7.25787679894564,-31.62551398667123,84.254562,121.92532707034155,0.0,84.25456200000002,0.5438031189337622,0.14785825,0.48346204,0.66983622,1.0,0.0,0.0,0.0,114.11417827886059
5.8674,85393.5551,1.492817755885281,-1.050538347367419,-0.1233292127997565,0.676275347622306,1.8035333770193827,2.73416838694164,-1.1888788427328993,7.343974660670771,-31.72186403480767,87.550003,126.67162252712667,0.0,87.550003,0.5180462914622351,0.14282435,0.49372631,0.68371308,1.0,0.0,0.0,0.0,117.59741679675213
5.8901,85393.575,1.2074411635556386,-0.32503967312530313,-0.5741794931954427,0.9346978359187804,1.8589558899467835,2.6934917009075847,-1.2050567913783752,7.745320717952192,-31.772897427807603,91.553909,131.07349878148344,0.0,91.55390899999998,0.4926031362561106,0.14457047,0.49998268,0.69746602,1.0,0.0,0.0,0.0,120.97635551448786
5.9193,85393.596,0.8007622792500193,0.26827850449379276,-1.0574888770147481,1.1716038827736175,1.8677011488875828,2.608817797810741,-1.2301893742874235,8.323840079372411,-31.762648328017928,96.79863,135.5323874118938,0.0,96.79863,0.4652856063411791,0.14998738,0.50295591,0.71277517,1.0,0.0,0.0,0.0,124.54258486918951
5.9395,85393.616,0.31246348348170105,0.6828217014699026,-1.5674878759738515,1.3837210515015106,1.8617465008594114,2.496709789877701,-0.9920852791151518,8.71728417064859,-31.747166406466278,102.298271,139.55508813290967,0.0,102.298271,0.4391143741803922,0.1541304,0.50448984,0.72726363,1.0,0.0,0.0,0.0,127.90522325207056
5.9501,85393.6361,-0.11461536917221693,0.9737692105983784,-2.0926783383978362,1.599494785124636,1.861055106804215,2.3597189729553003,-0.6915174383792735,8.949161556234227,-31.692523377521425,108.341972,143.64260804662368,0.0,108.341972,0.4116976870685253,0.15892851,0.50597519,0.74110448,1.0,0.0,0.0,0.0,131.37694889935221
5.9788,85393.656,-0.47267966328349686,1.33898655330073,-2.559660846940816,1.8073436574160033,1.8746026195811356,2.212437309626458,-0.30082275655305857,9.148547244865512,-31.57242026557886,115.194901,147.63805143588095,0.0,115.19490100000002,0.3838873806634902,0.16534737,0.50562251,0.75474274,1.0,0.0,0.0,0.0,134.85063030243492
5.9913,85393.676,-0.8511585518418956,1.9739263771401423,-2.8518654826847785,1.9602257309257203,1.8965222369513746,2.0760090984265087,0.22532213851505922,9.356671917992836,-31.408563029822197,122.58149,151.2391718761367,0.0,122.58149000000003,0.3577808712422176,0.17353362,0.50206977,0.76798755,1.0,0.0,0.0,0.0,138.0720517512954
6.0085,85393.6961,-1.3225779525248456,2.8314047765261687,-2.841413609393501,1.9934846103962702,1.9060850806690048,1.965062309712255,0.5967638555522132,9.723561351678836,-31.203531526178818,131.33374,154.98424671490918,0.0,131.33374000000003,0.3296343202871096,0.18451394,0.49466306,0.78269041,1.0,0.0,0.0,0.0,141.50683653702595
6.0298,85393.716,-1.8875831167851833,3.6480227989498895,-2.5009307760489445,1.8636352065295518,1.8690791945344782,1.8855946738279195,0.6858040096955147,10.272370918895959,-30.99649039315911,141.188248,159.02388623774237,0.0,141.188248,0.2983435370735106,0.1980601,0.48352405,0.79872888,1.0,0.0,0.0,0.0,145.28372148748196
6.0491,85393.736,-2.398531175241835,4.145963743039174,-1.9973947633429656,1.5929348787989939,1.7592478146253574,1.8251007586108314,0.4909433883885974,10.792871735537338,-30.87489282932799,150.775101,163.20786607856274,0.0,150.775101,0.266425829319841,0.21410178,0.47152027,0.81292456,1.0,0.0,0.0,0.0,149.0966139315847
6.0674,85393.7561,-2.76139355687816,4.201522389260685,-1.632013766577515,1.2345584054354464,1.5926835591031496,1.7767101330516817,0.20671624714919457,11.055428365262106,-30.900199265941083,158.935486,167.2413408999233,0.0,158.93548599999997,0.2359536597074644,0.22828738,0.46232313,0.82369173,1.0,0.0,0.0,0.0,152.7043111854782
6.0885,85393.776,-2.958550815794994,3.8601360542040033,-1.6030704073675945,0.8754063832582145,1.3957174964814842,1.7363186576430407,0.013533030247677047,11.084815001047588,-31.02031350748723,165.433243,170.83911044451443,0.0,165.433243,0.2088167111320638,0.2389811,0.4567351,0.83106959,1.0,0.0,0.0,0.0,155.89396497689444
6.1092,85393.796,-3.0363763046439187,3.2501985846905614,-1.8858927772548997,0.5961736096164811,1.1992413692580697,1.6959033437287743,-0.12720675096114187,11.072331381257932,-31.120260576699298,170.911026,174.13250255759868,0.0,170.911026,0.1840479256667864,0.24733441,0.45386201,0.83603907,1.0,0.0,0.0,0.0,158.78874108273655
6.1278,85393.8161,-3.0978041610919655,2.5445271621836754,-2.3143163625397456,0.4367351759177742,1.0288728507732556,1.6444705719719175,-0.244766813826109,11.123631959066284,-31.141188371582693,175.714523,177.18532050993207,0.0,175.71452299999999,0.1609132950346525,0.2536509,0.45305091,0.83935273,1.0,0.0,0.0,0.0,161.48017781220597
6.1478,85393.8361,-3.204475274635552,1.8828943701084633,-2.666856728359119,0.3986220301595868,0.8897164531997139,1.5736385880319443,-0.4334102744647005,11.324637412028448,-31.066398130462154,-179.818008,-179.87866524238368,0.0,179.818008,0.1384556291965013,0.2592248,0.45294699,0.84170753,1.0,0.0,0.0,0.0,164.0830199744115
6.1727,85393.856,-3.340818062056175,1.3485778869917944,-2.789948221562491,0.4547437701407417,0.7721130644574681,1.4812929103869958,-0.7696762337138423,11.68366677849677,-30.920673783213452,-175.570374,-176.99260195804874,0.0,175.570374,0.1164246729933651,0.26557052,0.45207891,0.84352964,1.0,0.0,0.0,0.0,166.62839034712383
6.192,85393.876,-3.417095202535106,0.9451669435306695,-2.668859108822052,0.5684235786143413,0.6659815212827049,1.3725510148590692,-1.2942122292904612,12.150583976583025,-30.733923035226695,-171.525879,-174.0936185866221,0.0,171.525879,0.0945025712260133,0.27349779,0.44947591,0.84512699,1.0,0.0,0.0,0.0,169.15461912295075
6.2109,85393.8961,-3.345643079021238,0.6605370659787182,-2.427020377951286,0.7115099325256994,0.580435985751775,1.2561293992222122,-1.904674909258122,12.562739618413266,-30.560825465148447,-167.988297,-171.36872684886072,0.0,167.988297,0.0744640529394715,0.28256196,0.44571754,0.84613812,1.0,0.0,0.0,0.0,171.45914261993744
6.2289,85393.916,-3.1398347649419573,0.472394148023215,-2.2197486919952114,0.8663095384373479,0.5458812621915954,1.1428676213053144,-2.431858701614699,12.832964632428713,-30.42395449221645,-165.239868,-169.0793187974189,0.0,165.239868,0.0574823927551543,0.29055846,0.44134191,0.84704715,1.0,0.0,0.0,0.0,173.4093701060657
6.2538,85393.936,-2.908316614321003,0.3638649837907839,-2.100846566071965,1.021392989541705,0.6025893280446657,1.0377797000097295,-2.819408118971826,12.980812600804448,-30.299490728040084,-163.159912,-167.22958777066233,0.0,163.159912,0.0422970526504069,0.29555714,0.43652821,0.84870493,1.0,0.0,0.0,0.0,175.15166841738935
6.2702,85393.957,-2.7511814583584075,0.329227966210516,-1.9914615312215407,1.1691724903174818,0.7680068590439186,0.9365217587250371,-3.193377164677959,13.109776420513663,-30.122667457639935,-161.370895,-165.4968200329079,0.0,161.370895,0.027085655808501,0.29973963,0.43023953,0.85106784,1.0,0.0,0.0,0.0,176.89583284161802
6.2912,85393.9771,-2.695961143462405,0.34719402644238784,-1.774084946475945,1.30380757917819,1.0206569730262303,0.8328417917524327,-3.7598952224068505,13.31479865258046,-29.83719500123999,-159.460052,-163.3986056968768,0.0,159.460052,0.0102117507028863,0.30757651,0.42118302,0.85316896,1.0,0.0,0.0,0.0,178.82979922790815
6.3154,85393.9981,-2.763635939180008,0.42834528678387196,-1.371549166099328,1.4195475083874591,1.3145126664960116,0.7293837062950763,-4.405211416126887,13.4597019774251,-29.54016966054155,-157.560944,-161.05357623697643,0.0,157.560944,0.0063135574170766,-0.31922796,-0.41116086,-0.8538152,1.0,0.0,0.0,0.0,179.27651480604695
6.3315,85394.018,-2.9110080103809537,0.5478550416893553,-0.6795680041445138,1.5150043893331062,1.592333054641053,0.6248098524729907,-5.094200752052174,13.493436413164535,-29.296009056414132,-155.661087,-158.43627657290082,0.0,155.661087,0.0220581286966795,-0.33475178,-0.40125209,-0.85232121,1.0,0.0,0.0,0.0,177.47211962049522
6.3494,85394.038,-3.092277477127439,0.6226246569522536,0.40057436340677555,1.573221020563279,1.7985932294086278,0.5184310552058042,-5.7292155718776305,13.544360650435546,-29.09498692996952,-154.023438,-155.7034471030975,0.0,154.023438,0.0366977619589039,-0.35301945,-0.38998747,-0.84967071,1.0,0.0,0.0,0.0,175.79380178463748
6.3694,85394.0581,-3.1911372927767374,0.49453161757387853,1.8601116306288947,1.5480310066659315,1.906555789049225,0.4000961046430507,-6.38380321249255,13.805339971628612,-28.851334683762243,-152.570068,-152.65470471766892,0.0,152.570068,0.0530057179015836,-0.37345338,-0.37517643,-0.84673822,1.0,0.0,0.0,0.0,173.92314428465036
6.391,85394.078,-3.1696021400015306,0.11970055819713554,3.4740241795081914,1.3833747699670071,1.926125932106078,0.25630510283438634,-6.870354497265887,14.159977169620774,-28.66164467394579,-151.327438,-149.62064287940203,0.0,151.327438,0.0703499761624322,-0.39192212,-0.35920978,-0.84404755,1.0,0.0,0.0,0.0,171.93182213595853
6.4115,85394.098,-3.0069953374373144,-0.35578185273711416,4.95756186316145,1.0713962561806938,1.8696706662937652,0.0726841918269499,-7.0039484235891,14.399044151486839,-28.677190183602914,-150.4841,-147.03780477590902,0.0,150.4841,0.084254543006052,-0.40805867,-0.34502986,-0.84103727,1.0,0.0,0.0,0.0,170.33368088528655
6.4332,85394.1179,-2.6555036903165274,-0.7589535280820527,6.126872309521387,0.6455550961429914,1.7406286788796388,-0.14677889433873115,-6.859378363264663,14.41393634235677,-28.93736042223184,-150.029434,-144.82399588973865,0.0,150.029434,0.092446965655352,-0.42487344,-0.33380973,-0.83636546,1.0,0.0,0.0,0.0,169.39121009131787
6.4527,85394.1381,-2.1831986454935817,-1.0296193392360307,6.884707344172387,0.15281430553468422,1.5349971793960626,-0.37418121403984195,-6.488840528493777,14.204598501450453,-29.41429358800594,-149.949509,-142.9758238558346,0.0,149.949509,0.0946941987395078,-0.44243309,-0.32568836,-0.83018857,1.0,0.0,0.0,0.0,169.13256130951365
6.4733,85394.158,-1.6861700811208586,-1.1561914702112057,7.2266420435631,-0.3717695095774835,1.2543230477099063,-0.5936003295743453,-6.007470780385428,13.736412620465757,-30.05535399764873,-150.028885,-141.40083480705286,0.0,150.028885,0.0920830144676573,-0.45966029,-0.32188007,-0.82257301,1.0,0.0,0.0,0.0,169.43309448392125
6.4935,85394.1781,-1.3100599653485383,-1.1499170337750177,7.23373140197279,-0.9146305690852254,0.9192331258261044,-0.8062971212097096,-5.372356482150187,13.0452492969332,-30.777374238202263,-150.303528,-140.4266658156178,0.0,150.303528,0.0844638264597336,-0.4739092,-0.3226155,-0.8149817,1.0,0.0,0.0,0.0,170.3096129757962
6.5125,85394.1981,-1.087815204883757,-1.0998255053526913,7.0099235449867265,-1.488144512359504,0.5743503534321703,-1.0218063640021608,-4.599605045831637,12.396686618230333,-31.382242614470176,-150.90271,-140.238846505613,0.0,150.90271,0.073360564584244,-0.48406798,-0.32476366,-0.80921257,1.0,0.0,0.0,0.0,171.58593990044693
6.5466,85394.218,-0.953037661615201,-0.8999787166603692,6.592716982704605,-2.1049650245734957,0.2558864215118939,-1.255776630041559,-3.768097454439733,11.771653567713948,-31.818469502790983,-151.83284,-140.81514212121795,0.0,151.83284,0.0579182221310461,-0.49129865,-0.32869229,-0.80450761,1.0,0.0,0.0,0.0,173.35934439264233
6.5566,85394.238,-0.8428582086585901,-0.4042444923822286,5.939508793982007,-2.7445896539426453,-0.03568533024637466,-1.5085775621194937,-2.9479818547973,10.987536033754708,-32.13354469436776,-152.992172,-142.07213090999596,0.0,152.992172,0.0361539662943846,-0.49677941,-0.33699566,-0.79895997,1.0,0.0,0.0,0.0,175.85615756030992
6.5832,85394.2581,-0.7134036221935682,0.38874633471824804,4.998097659151613,-3.3524077020182377,-0.3335143469461517,-1.755146207570757,-2.222550295120442,9.95424315880826,-32.36507338415015,-154.322327,-143.84796850734514,0.0,154.322327,0.0064185456474425,-0.50196153,-0.35084602,-0.79050648,1.0,0.0,0.0,0.0,179.26448379725392
6.5937,85394.2791,-0.5773682041651811,1.257862958452728,3.7462208031424566,-3.862889706171469,-0.6982955443836942,-1.9564000430046984,-1.6768442655972606,8.881186170612274,-32.484731006055725,-155.623413,-145.87020048690627,0.0,155.623413,0.028548415415968,0.5063836,0.36885527,0.77891362,1.0,0.0,0.0,0.0,176.72814803397125
6.6126,85394.299,-0.4820351968947967,1.9964483419295664,2.1697663142443187,-4.224640607614846,-1.1701561916700398,-2.072125319387551,-1.2373223578419905,7.959562473110335,-32.51804548131598,-157.096542,-148.36936425657612,0.0,157.096542,0.0682793801738372,0.5090158,0.38849142,0.76505899,1.0,0.0,0.0,0.0,172.16966705543638
6.6302,85394.319,-0.4148936261925642,2.331945717019322,0.2731753204772165,-4.409461549608382,-1.7511917222712032,-2.069818773728532,-0.886467978908116,7.578127238331888,-32.447325276206676,-158.921967,-151.4741876163625,0.0,158.921967,0.1081563244851254,0.50852865,0.40542907,0.75188303,1.0,0.0,0.0,0.0,167.58190672029758
6.6625,85394.3391,-0.33131467376115054,2.225927305439866,-1.9129442466846935,-4.409677891225522,-2.4050972181564916,-1.9272983543947348,-0.4297447317430967,7.438358653973385,-32.38385490626496,-161.588455,-156.076200992412,0.0,161.588455,0.1513273988864129,0.502325,0.42136034,0.73974663,1.0,0.0,0.0,0.0,162.5922818041799
6.6798,85394.359,-0.12255280964833726,1.5267078650347496,-4.185440944105442,-4.238242015362909,-3.0379809977107195,-1.6610022924781254,0.15614800829544695,7.6227092473747575,-32.28506006091954,-165.64949,-162.5922397143935,0.0,165.64949,0.195118805634057,0.48894858,0.43452832,0.73078251,1.0,0.0,0.0,0.0,157.49667206301066
6.6941,85394.379,0.2982744282589954,0.2528862167583028,-6.2243416695004825,-3.904033327547058,-3.5499682629529596,-1.3446331891860324,0.865690271546586,8.171034153704465,-32.08844122822388,-171.78479,-171.0640055164677,0.0,171.78479,0.2362136567105696,0.46662164,0.4444702,0.72726446,1.0,0.0,0.0,0.0,152.673651045102
6.7134,85394.4,1.0041175589056648,-1.3527136140168055,-7.696097766086531,-3.4284318295871627,-3.8466778731382236,-1.0491495264328718,1.5658636742941672,8.946177054692715,-31.781800990680754,179.455856,179.48902745818054,0.0,179.45585600000004,0.2734057034072725,0.43595091,0.45210308,0.72855949,1.0,0.0,0.0,0.0,148.26594599173177
6.7324,85394.4201,1.9523632178226475,-2.891844727407514,-8.278457088522655,-2.8453464452326807,-3.8763663052824304,-0.7827098513680989,2.3551640906453004,9.269247393070284,-31.54707472151806,166.416275,169.53294489007692,0.0,166.41627500000004,0.3123281900429524,0.39456677,0.46235698,0.73006451,1.0,0.0,0.0,0.0,143.60081162902182
6.7567,85394.44,2.973546131316587,-4.006364147782305,-7.942966333265642,-2.213717254635352,-3.626059467398984,-0.6135632041534681,2.652059709667362,9.81019077853015,-31.272545160327354,152.086288,161.42347060491215,0.0,152.08628799999997,0.3443997794954621,0.35504985,0.46841583,0.73206216,1.0,0.0,0.0,0.0,139.7096792202746
6.7777,85394.46,3.7287344073979765,-4.453416280135839,-6.8903170088197445,-1.6056604787368742,-3.17714740796131,-0.5389040470458597,2.5624700097928965,10.483920602035804,-31.01152118173067,139.09169,154.62432432238595,0.0,139.09168999999997,0.372580536170888,0.32172474,0.46918058,0.73317564,1.0,0.0,0.0,0.0,136.25029215596808
6.7975,85394.481,3.9529145534492334,-4.269103182311286,-5.514614041903737,-1.0722768662487887,-2.672819117486745,-0.5332883158942014,2.1723056158149827,11.33175982394322,-30.74393001229019,129.708267,148.98729275542553,0.0,129.70826699999998,0.3960974697048383,0.29608032,0.46430483,0.73475456,1.0,0.0,0.0,0.0,133.33112394158772
6.8186,85394.502,3.5011768445802747,-3.6167221231614146,-4.134909558455796,-0.6585606746822398,-2.261298676898031,-0.5294411287320839,1.9526899822594324,11.72797964363107,-30.650214341160346,121.361687,143.5458662461941,0.0,121.36168700000002,0.4204072861740558,0.27014458,0.45888081,0.73464823,1.0,0.0,0.0,0.0,130.2793923293848
6.839,85394.522,2.6008691206712578,-2.76857026408711,-3.181516172575452,-0.37815800076660633,-2.0461434273287176,-0.530690876259946,1.5470940405937892,11.828391345242984,-30.682934076042258,115.520981,139.51765426896165,0.0,115.520981,0.4390943646611067,0.24695139,0.45482272,0.73440278,1.0,0.0,0.0,0.0,127.90777537805268
6.8592,85394.543,1.5588917301699392,-2.000843353826923,-2.792849337171087,-0.2300707771289312,-2.0704142973531696,-0.5506932374035457,1.1396059779662622,11.762965706473755,-30.75603995766804,111.433746,136.25222096097235,0.0,111.43374599999999,0.4544950080527996,0.22730544,0.45009246,0.73429102,1.0,0.0,0.0,0.0,125.93510626727449
6.8808,85394.5631,0.7261161827525546,-1.4636047588232435,-2.8789335341569373,-0.17963582857000232,-2.3244461658932445,-0.5875272668075259,0.8854906988842046,11.654369168889112,-30.814039677736936,108.374359,133.18741574389819,0.0,108.37435900000003,0.4691009227995246,0.2107857,0.44339982,0.73410511,1.0,0.0,0.0,0.0,124.04809739179424
6.8952,85394.583,0.36528677581975,-1.1444566815138872,-3.1796283042233586,-0.18120573657751557,-2.7454837159718077,-0.6205395349022604,0.9160319728706288,11.419813224659741,-30.894235899182558,105.271309,129.83473639216373,0.0,105.27130899999997,0.4858849725298679,0.19448397,0.43579391,0.73224002,1.0,0.0,0.0,0.0,121.85906063576473
6.9144,85394.603,0.5950201946248286,-0.9645919933335657,-3.3341484891375517,-0.17936021528608265,-3.2176472768867366,-0.6527331101133149,1.222727443580208,11.087133375102823,-30.97891058436351,102.092789,126.18380085877425,0.0,102.09278899999998,0.5047317808758279,0.1755873,0.42713198,0.72936493,1.0,0.0,0.0,0.0,119.37290200002776
6.9355,85394.6231,1.306743364113939,-0.8020423018971623,-2.9683792622158602,-0.10190708733863668,-3.591592336446485,-0.7287618289700127,1.806451376963846,10.770234335790922,-30.997616545237992,99.489044,122.45341894916263,0.0,99.48904400000004,0.5238293340867733,0.15044843,0.4150362,0.72850055,1.0,0.0,0.0,0.0,116.82106403022445
6.9547,85394.643,2.113884072045797,-0.508073193433582,-1.8436380722942491,0.0981547378699816,-3.7329081755141025,-0.8830437175230427,2.827346145086569,10.408479203466209,-30.920513936719686,97.405769,118.38658131863586,0.0,97.40576900000002,0.5446762696721638,0.11530013,0.39701325,0.72966713,1.0,0.0,0.0,0.0,113.99491237789066
6.9749,85394.663,2.6690216039380075,-0.12595328600823885,-0.06216487518211444,0.42379446936743215,-3.5686690607862457,-1.1345782569441922,3.784350602291262,10.216270234667192,-30.699240011271968,96.416031,114.67635678462015,0.0,96.41603099999998,0.5634960970463031,0.07747548,0.3732034,0.73293173,1.0,0.0,0.0,0.0,111.40415470107658
6.9975,85394.6831,3.022548457109001,0.016474435605300597,1.9818345140914353,0.7625031076111047,-3.1143008503609835,-1.441779191491043,3.9740639835111793,10.41335144098956,-30.39952541731803,96.163185,111.64437639770064,0.0,96.163185,0.5791347648527297,0.05248527,0.34721807,0.73572266,1.0,0.0,0.0,0.0,109.22058081210483
7.0218,85394.703,3.3765502002758843,-0.3394762734069779,3.941612442377961,0.9737339145664262,-2.4736331000162064,-1.6497179084924978,3.520337699347822,10.731141901356807,-30.150970788826097,95.206245,108.44064335138613,0.0,95.20624499999997,0.5973961579352535,0.0439698,0.32332283,0.73256183,1.0,0.0,0.0,0.0,106.63272414076967
7.0484,85394.723,3.543143420320089,-1.1332808482254721,5.610220690922693,1.034930055191579,-1.7492093445017256,-1.6032803491954541,3.1123811934522436,11.005698789555655,-29.94384143684951,93.286293,104.51817104051409,0.0,93.286293,0.6206696252112809,0.04310939,0.29955456,0.72331035,1.0,0.0,0.0,0.0,103.26989888137703
7.066,85394.744,3.2011053329523964,-1.9224655881643964,6.760587860379481,0.9656146429981911,-1.005938404991092,-1.2693648569616018,3.0269562384318665,11.104301849280507,-29.806467409374203,90.961945,100.38973581138843,0.0,90.96194500000001,0.6451599533803493,0.04233199,0.27615467,0.71113658,1.0,0.0,0.0,0.0,99.64466143394051
7.0787,85394.765,2.7519775109054905,-2.3272786848472133,7.091628198762045,0.775390027463946,-0.2673766577961775,-0.7923337603250225,2.2278510982833897,11.23161197935735,-29.750579663473406,90.373695,98.70208224059434,0.0,90.373695,0.6547991910033467,0.04676403,0.26133427,0.70764083,1.0,0.0,0.0,0.0,98.19114938505784
7.1033,85394.785,2.2384599759551973,-2.222675815114679,6.648198275492653,0.5081928136552011,0.38090482278474863,-0.31285713470201404,1.0148389663924426,11.081092335937798,-29.816517177388917,91.14785,99.13294946326137,0.0,91.14785,0.65186658199458,0.05097064,0.25697777,0.71164203,1.0,0.0,0.0,0.0,98.63503512796544
7.1228,85394.8051,1.741414708903708,-1.9143420777384157,5.659617798906611,0.24039729665210183,0.8762913326389807,0.07410818856073828,-0.12057615638679131,10.570662810415934,-29.986415600470693,91.84269,100.11667000787085,0.0,91.84269,0.6458764072571926,0.05455305,0.26161569,0.71513975,1.0,0.0,0.0,0.0,99.53716536330897
7.1396,85394.825,1.416922991980866,-1.8014668642203508,4.401518879401062,0.039087963445354174,1.2067530148628733,0.3810103788267794,-0.9994297157263858,10.09834461887881,-30.12994687511328,92.04335,100.87581823806583,0.0,92.04335000000003,0.6412920862464453,0.06133792,0.27011755,0.71555477,1.0,0.0,0.0,0.0,100.22353054559932
7.1572,85394.845,1.2874108670682967,-1.9573614496124712,3.1110646401382045,-0.08379975502246334,1.386151213576656,0.6755366297987784,-1.551582110142549,9.861077826786033,-30.210576407120104,92.133881,101.50854055724801,0.0,92.13388099999997,0.6373827020069269,0.0701292,0.27836707,0.71507829,1.0,0.0,0.0,0.0,100.80614022131732
7.1773,85394.8651,1.337717645825939,-2.2551281320275285,1.913768367104188,-0.13705865242483312,1.4511966038771305,1.0001356048498482,-1.8468177707444067,9.705231672601698,-30.28896530809907,92.524391,102.4749229156922,0.0,92.52439099999998,0.6315533807746917,0.07721604,0.28665906,0.71624339,1.0,0.0,0.0,0.0,101.67035727633696
7.202,85394.885,1.5444152979291914,-2.5366819421934683,0.8774103052706863,-0.10403684146941583,1.4625702311971183,1.353128307117715,-1.97490141303218,9.358137032671888,-30.440559289689908,93.14949,103.9598201564691,0.0,93.14949000000001,0.6230346824980023,0.0798483,0.29746553,0.71900368,1.0,0.0,0.0,0.0,102.92383336717782
7.2179,85394.906,1.860321446727344,-2.671730784674757,0.05631170062880386,0.0303936920653074,1.4804319618207964,1.7162231517717674,-1.9963383186657833,8.83779491175571,-30.64487183861873,94.215576,106.12798038531355,0.0,94.215576,0.610715527585356,0.07830199,0.3101773,0.7243517,1.0,0.0,0.0,0.0,104.71748346423036
7.2375,85394.926,2.1609503158775247,-2.495747942974965,-0.5161514773005162,0.24969431100127004,1.5397886735097819,2.0679988381970698,-1.8211857292871212,8.357169855258721,-30.84898360442167,95.646828,108.58096889932206,0.0,95.64682800000003,0.5964881331673888,0.07498828,0.32162425,0.73153025,1.0,0.0,0.0,0.0,106.76241880191849
7.2579,85394.9461,2.356489943684013,-1.9042753577104248,-0.8824842989633019,0.4936597762679611,1.6329877359131486,2.3955581224653253,-1.5816107227335596,8.189445306371086,-30.9885891093818,97.864204,111.45788729969792,0.0,97.86420399999997,0.5790117976629089,0.07375325,0.32979405,0.74198496,1.0,0.0,0.0,0.0,109.23786454268112
7.2798,85394.966,2.394845434341051,-1.0220519861483273,-1.1444784129006553,0.7214164812924877,1.7212365620734347,2.6888434459460386,-1.4932468618136046,8.564818481050105,-31.00574151210079,101.115143,114.8114595106914,0.0,101.11514299999999,0.5577340027070644,0.07982214,0.33369118,0.75578529,1.0,0.0,0.0,0.0,112.20153332594757
7.3067,85394.986,2.1807220264923592,-0.025008776399911614,-1.367630327862523,0.9058219410455169,1.823364627389894,2.90662118473414,-1.3744900973391623,9.073627344757504,-31.014426937204583,104.909286,118.422513618516,0.0,104.90928600000001,0.5342119921909685,0.08737046,0.33584103,0.77084029,1.0,0.0,0.0,0.0,115.41902712932709
7.3203,85395.0061,1.6707508705757146,0.8617721000449414,-1.6474532311828032,1.0408810258987278,1.9894594186157644,3.009857712109592,-1.1210537143322625,9.439173359583197,-31.08677057629866,109.379326,122.5919980117069,0.0,109.37932599999999,0.5061857041399944,0.09026406,0.33784121,0.78834748,1.0,0.0,0.0,0.0,119.17981255929531
7.3403,85395.0271,0.8849499867841089,1.4983390630569418,-2.0544032536174566,1.153134728412392,2.2350435936069006,2.987030510782792,-0.7986636640225235,9.676456727761874,-31.19468154349022,114.510155,127.30314370251996,0.0,114.510155,0.4732347328011915,0.08944783,0.3400566,0.80771869,1.0,0.0,0.0,0.0,123.51104848868057
7.3752,85395.0471,-0.08385254520755758,1.9247110150177604,-2.5453644666479693,1.3051465465470589,2.479904177681665,2.871811289783072,-0.4755326036649592,9.933449651764157,-31.25772684407461,119.328552,131.56392698086816,0.0,119.328552,0.4429450362480874,0.09378815,0.34188223,0.82348043,1.0,0.0,0.0,0.0,127.41612489206605
7.3884,85395.067,-1.1180902065772984,2.2477288447095845,-2.916659696901359,1.5038583477825793,2.5955935803860135,2.728866705021858,-0.620039789654804,10.494298323923465,-31.145563289858416,124.771721,135.9799530320536,0.0,124.77172100000001,0.4122915054894162,0.11181515,0.34203109,0.8369754,1.0,0.0,0.0,0.0,131.302269789912
