AppTimestamp(s),SensorTimestamp(s),acc_x,acc_y,acc_z,gyro_x,gyro_y,gyro_z,mag_x,mag_y,mag_z,yaw_deg_ori,yaw_deg_ori_cal,yaw_deg,yaw_error,Quat_w,Quat_x,Quat_y,Quat_z,q_w,q_x,q_y,q_z,quat_angle_error_deg
0.0559,42.9581,-6.558385342934638,1.9931332784284974,4.446661527200471,-0.6093140745780921,-0.30720833278992515,0.3972628471696473,-44.62045467132559,1.5756033715272544,-76.13970370126017,9.502011,5.611629748925759,0.0,9.50201100000001,0.8572359672660027,0.46378046,0.17110486,0.14414336,1.0,0.0,0.0,0.0,61.98472058245526
0.0605,42.9781,-5.3154079664731215,-1.1419656030101155,4.468019287649,-0.24572759238865982,-0.6588901700914647,0.2670122460332683,-44.93607370237939,0.5935902812208127,-76.32324388284934,9.683366,5.857759687903888,0.0,9.683366000000007,0.8595977987752913,0.457344,0.17463523,0.14639203,1.0,0.0,0.0,0.0,61.457092573945005
0.0652,42.9982,-4.163493353412763,-3.7263260806514458,4.160114153426353,0.13321522991887882,-0.8835192677403091,0.23640229981788008,-43.65444403437837,0.29166420210316346,-77.507509068762,11.330235,6.9318782338223235,0.0,11.330234999999988,0.8632556641290903,0.45221144,0.16630717,0.15045397,1.0,0.0,0.0,0.0,60.6317643830071
0.0698,43.018,-2.945812594639654,-5.441640755214887,3.3962248009022993,0.5221500405642373,-0.909894083739387,0.3672609854642812,-41.82449018165034,0.8652348976158208,-79.07614900117095,13.479897,8.203602724783503,0.0,13.479896999999994,0.8656557703975055,0.4512637,0.15193848,0.15464753,1.0,0.0,0.0,0.0,60.084659573434664
0.0794,43.038,-1.4578310188010026,-5.939701190854713,2.2904219821852525,0.9009088378349794,-0.7201645269534059,0.6434412070424749,-41.17627110299411,0.6158098223353718,-80.09691329262806,14.987696,9.138391005974624,0.0,14.987696,0.8667894320563867,0.4495604,0.14533615,0.15952721,1.0,0.0,0.0,0.0,59.82466521523505
0.1014,43.0582,0.030497534427130102,-5.234023076728544,0.9152340006074642,1.1963759178858786,-0.34843822560164806,0.9771830226683149,-41.27052230770252,-0.6661763655284716,-80.74795749808253,16.598099,10.202083513768633,0.0,16.59809899999999,0.8664399869970836,0.44682392,0.14558774,0.16862486,1.0,0.0,0.0,0.0,59.90491618891377
0.1349,43.0782,1.2396305303097583,-3.7650537872019427,-0.6501327797299741,1.3018010056555809,0.10439105885548755,1.27486615267068,-41.790274956527696,-1.675371499647163,-81.05968707409652,18.734032,11.415371637351168,0.0,18.734032000000013,0.8613454162735535,0.44972679,0.15009317,0.18248816,1.0,0.0,0.0,0.0,61.064033136215386
0.1429,43.0981,2.0526929456053638,-2.0529110412189135,-2.1843746952053618,1.1526857727675413,0.5207325940479118,1.4986710575726963,-42.961274679137944,-2.413064574893184,-80.80478383797862,20.823324,12.376571300720325,0.0,20.823324000000014,0.8516556983877178,0.45793766,0.16023289,0.19824503,1.0,0.0,0.0,0.0,63.21557697344228
0.1638,43.1182,2.4531136218789276,-0.6466011085003474,-3.5054409856176223,0.7697130924392774,0.8125281674645592,1.6746662338400282,-44.26116032419517,-3.4371151368742794,-80.1754594742113,22.38273,12.96661247895047,0.0,22.38273000000001,0.84132235288131,0.46616229,0.17284285,0.2121197,1.0,0.0,0.0,0.0,65.43995725147727
0.18,43.1382,2.5900530773443378,0.14641129136270115,-4.565567153817683,0.2564277081543469,0.9619790008281015,1.8457916053202639,-44.99485501051757,-5.5708923883786525,-79.51219951267342,23.314587,13.481275441887485,0.0,23.31458699999999,0.8349830951217555,0.46778294,0.18498383,0.22307697,1.0,0.0,0.0,0.0,66.77184403323224
0.1983,43.1581,2.6442678218685223,0.38311204086526107,-5.369179990882462,-0.2564663142133734,0.9890193914100117,2.039609482744383,-44.989207035629,-9.006475316710503,-78.88128393578913,23.924541,14.255434848365345,0.0,23.924541000000005,0.8331933504474657,0.46115431,0.19696727,0.23308676,1.0,0.0,0.0,0.0,67.143632989357
0.2195,43.1782,2.7330649013976194,0.37430269304261254,-5.888880786166746,-0.6717585198864229,0.9102836914243881,2.257673958907388,-44.38320192742178,-13.213261228848065,-78.19007284579084,24.744999,15.493768334390152,0.0,24.744999000000007,0.8330609042675108,0.44931084,0.21001174,0.24499871,1.0,0.0,0.0,0.0,67.17107417739025
0.2407,43.1982,2.9184450075057575,0.4785164442313041,-6.122505763960403,-0.9507334409916719,0.7519634836401914,2.462397294546376,-43.360561037156984,-17.92671214148072,-77.30663244821594,25.943977,17.285557297353023,0.0,25.94397699999999,0.8325291224569824,0.43398157,0.22555317,0.26015577,1.0,0.0,0.0,0.0,67.28115322829228
0.2628,43.2181,3.191900380679503,0.8746606020979222,-6.136161553251069,-1.1077102117574096,0.5376560825382584,2.6025886444450625,-42.078626918510096,-22.609838056759564,-76.23769862777662,27.628874,19.634479561849727,0.0,27.628873999999996,0.829406226380335,0.4182153,0.24367532,0.27893299,1.0,0.0,0.0,0.0,67.92441734434504
0.2789,43.2382,3.397610711267201,1.5035475140524162,-5.985617387097852,-1.2292405895408147,0.2952129978538569,2.620342060920594,-39.593458687397415,-26.778147499621497,-75.71226634278042,30.67622,23.14112185781035,0.0,30.67622,0.8251065655207829,0.40211153,0.25682524,0.30256614,1.0,0.0,0.0,0.0,68.8014061500376
0.2979,43.2582,3.3865010238204123,2.1020179448426806,-5.702749083495393,-1.3766310121149954,0.03097666467633098,2.4946384521084335,-35.73179048693355,-29.672779073769345,-76.17342171310877,35.072105,27.579802689039667,0.0,35.07210499999999,0.8211601069796658,0.38770759,0.25924581,0.32889286,1.0,0.0,0.0,0.0,69.59781182998793
0.3182,43.2781,3.211030190702947,2.493428801843143,-5.345563268153276,-1.4999948097429594,-0.24410016927856293,2.2680275395134926,-32.16364832362283,-32.00019602435689,-76.64083573547225,38.965321,31.745012560773386,0.0,38.96532100000002,0.8169993579378649,0.37453237,0.26065814,0.3525548,1.0,0.0,0.0,0.0,70.42892745108017
0.3399,43.2981,2.994226029594766,2.697841725117107,-4.823401523064019,-1.5606967565577663,-0.5142813975665012,1.9847007453671814,-29.159928481362442,-34.57568188077964,-76.76379218020071,41.792976,35.474961625156574,0.0,41.79297600000001,0.8142074643250448,0.35909334,0.26412958,0.37195933,1.0,0.0,0.0,0.0,70.9818540589293
0.3868,43.3182,2.8172503328475953,2.8708540589185247,-3.9715471526187605,-1.5489151824949792,-0.7518580291588766,1.6610009218409911,-26.11986118331205,-37.21024679105179,-76.84483923212893,43.926338,38.83440988039232,0.0,43.92633799999999,0.8149567535208649,0.34052837,0.26448753,0.38721088,1.0,0.0,0.0,0.0,70.83382800002195
0.3899,43.3381,2.5987599362511205,3.1192884359065562,-2.707815098560806,-1.4545944274398632,-0.9461266494122168,1.2801539447911159,-22.34286051114664,-38.88920777797104,-77.52327211901452,46.633671,42.27388540455369,0.0,46.63367099999999,0.8166936670989048,0.32291406,0.25678486,0.4034842,1.0,0.0,0.0,0.0,70.4896525696501
0.4001,43.3581,2.2985355895742106,3.501379082174072,-1.1921064395904004,-1.2524439000500553,-1.060484272920079,0.8557322295840215,-18.770764620565664,-40.19680506737678,-78.15469350772707,49.147354,45.45828547453135,0.0,49.14735400000001,0.817857269093847,0.30598423,0.24857654,0.4191573,1.0,0.0,0.0,0.0,70.25826032806363
0.4197,43.3782,1.9159852627529235,3.896505064499032,0.39895839299823344,-0.9641223336528496,-1.0922489588610518,0.39617005331533584,-15.916558943251935,-41.240784923394855,-78.5977160069649,51.106812,48.06023822257791,0.0,51.10681199999999,0.8187007533295837,0.29067361,0.24178925,0.43217576,1.0,0.0,0.0,0.0,70.09011025290921
0.4411,43.3981,1.5001588345873849,3.966134627212908,2.012364983455459,-0.643473994028975,-1.05928834561244,-0.08393076453433812,-13.963023107809555,-40.80633681386345,-79.56023019562956,52.649662,49.443333708148785,0.0,52.649662000000006,0.8201864274634013,0.28359684,0.23029339,0.44026357,1.0,0.0,0.0,0.0,69.79307957621424
0.4591,43.4182,1.2405045144662,3.719643491820587,3.5978459207267903,-0.331937557540131,-0.9791388695173653,-0.5160983084214814,-13.561009880871005,-39.617889885065004,-80.64107448333093,53.168762,49.43678849840937,0.0,53.168762000000015,0.8228668302721477,0.2833783,0.21934676,0.44099197,1.0,0.0,0.0,0.0,69.25437445113346
0.478,43.4381,1.1267336822041703,3.4213444567745723,5.155151693540136,-0.05432359522791985,-0.8569235997435785,-0.8580089546493175,-13.993291307760714,-38.63315669070485,-81.5281110821887,52.710892,48.561476694721264,0.0,52.710892,0.827936384929177,0.28381369,0.20974211,0.43586624,1.0,0.0,0.0,0.0,68.22533050780395
0.499,43.4581,0.8136123373130575,3.111607941320985,6.608706326039883,0.20191713276767875,-0.6595289335193021,-1.1163599421136206,-13.404394200132678,-37.300008579239176,-82.79171344094397,52.603516,47.85118574756059,0.0,52.60351600000001,0.8341396677040254,0.28356284,0.19361362,0.43164441,1.0,0.0,0.0,0.0,66.94727897866956
0.5225,43.4781,0.31256800097507753,2.761610101199655,7.63592971668179,0.44036971798629393,-0.37601830211833187,-1.3145231164278053,-12.552634087357106,-35.59729471151323,-84.23886385732298,52.677181,47.227897485278824,0.0,52.67718099999999,0.8393098474317043,0.28519005,0.17629442,0.42795548,1.0,0.0,0.0,0.0,65.8653743706412
0.5381,43.4981,0.02760582486859331,2.4475112164270576,7.98128241686657,0.6552962340622419,-0.06622943044426188,-1.493319099115817,-13.616357160768871,-34.431169418766785,-85.08217120389733,51.838409,46.02532034240675,0.0,51.83840900000001,0.8425847538012851,0.28967354,0.17144531,0.42041251,1.0,0.0,0.0,0.0,65.17184352573993
0.5578,43.5182,-0.18210765051352418,2.0910017580237223,7.733332396964009,0.8919313175055215,0.2025765812025938,-1.671056067500631,-15.804778774680095,-33.32789141066744,-85.54262582327313,49.97332,43.895846700409784,0.0,49.97332,0.847171457044872,0.29626089,0.17076331,0.40665698,1.0,0.0,0.0,0.0,64.1893172641624
0.5792,43.5381,-0.5796292490328385,1.5482510981793833,7.113157498786386,1.1905787368364276,0.41732153384398807,-1.831422317040463,-17.343838250464593,-30.915868250582225,-86.35422007825994,48.213905,41.40559860501961,0.0,48.21390500000001,0.8525226450739657,0.30717811,0.16212039,0.39059407,1.0,0.0,0.0,0.0,63.025768964916125
0.5981,43.5581,-0.8525956468589992,1.043985186170274,6.259463324343109,1.4879919197880604,0.5788433813295181,-2.004143321879938,-19.057731391152892,-28.004888334298197,-86.97584251567451,46.707783,39.01990006054807,0.0,46.707783000000006,0.8552163873640087,0.32148314,0.15544279,0.3756209,1.0,0.0,0.0,0.0,62.432702895154286
0.6212,43.5782,-0.921193391969096,0.5628389162557825,5.285089560723705,1.724204204955003,0.7019801855093517,-2.217016442359728,-21.173038516426725,-24.62390713972307,-87.31888313441881,45.331619,36.582777704207764,0.0,45.33161899999999,0.8553292321791539,0.33947405,0.15121758,0.3609744,1.0,0.0,0.0,0.0,62.407748026396774
0.6401,43.5981,-0.9224063624069672,-0.00349819574611665,4.228436561324322,1.8775214817068768,0.7979717379303544,-2.446169956770892,-22.98286595672564,-20.43145634791873,-87.63659489629381,43.985565,33.910626500377134,0.0,43.98556500000001,0.855160271725492,0.36052281,0.14255312,0.34409711,1.0,0.0,0.0,0.0,62.44510915164028
0.6608,43.6182,-0.8622013442096104,-0.6594444748728066,3.044911090731521,1.9113573552650267,0.8760330766534561,-2.661506944891749,-24.660709432862813,-15.782563935412629,-87.77894475747475,42.412098,30.972182293067164,0.0,42.412098000000015,0.8549225534738939,0.38316482,0.13141781,0.32407022,1.0,0.0,0.0,0.0,62.49764024153533
0.6795,43.6382,-0.7686809771078709,-1.3074107283705612,1.6765674797794716,1.8056119982416903,0.9225839079784464,-2.838133647896222,-26.736071088562525,-10.901252479234952,-87.51703729398577,39.948109,27.424040472958062,0.0,39.94810899999999,0.8549692988131445,0.40679356,0.12098849,0.29817492,1.0,0.0,0.0,0.0,62.4873135702444
0.6982,43.6581,-0.7530886029726258,-1.6919701832493685,0.1643459932485527,1.5815995192475354,0.9061372717927003,-2.967978716419176,-28.845524734070924,-6.553286532404236,-86.83174095619142,36.360138,23.556549319797615,0.0,36.360138000000006,0.8565549621898022,0.42679131,0.11216359,0.26754832,1.0,0.0,0.0,0.0,62.136105582053986
0.718,43.6782,-0.8551195039477595,-1.6625941407411755,-1.340368831193917,1.2697920020128914,0.8191501761431106,-3.067643862364733,-30.178503976856522,-3.67417622984793,-86.01736753717421,32.76083,20.451924828462623,0.0,32.76083,0.8593557138973857,0.43852711,0.10570381,0.24089092,1.0,0.0,0.0,0.0,61.51136145512954
0.7397,43.6982,-0.980414794461137,-1.4309125064719823,-2.6763424421454207,0.868010868547807,0.6870090559911151,-3.1560033772528,-31.37733846486694,-0.7032234684851169,-85.04212983318277,29.184685,17.551755562234497,0.0,29.184685,0.8607345340571307,0.44994378,0.10090396,0.21565029,1.0,0.0,0.0,0.0,61.20168673460592
0.7607,43.7181,-1.1189070150404945,-1.161378511914509,-3.703784589099657,0.4006958214508737,0.4924203251007826,-3.225594512629959,-32.28422596559329,2.6124575821219977,-83.98507211476021,24.660482,14.331537348099463,0.0,24.660482000000002,0.8635261211642855,0.45982638,0.09324828,0.18489753,1.0,0.0,0.0,0.0,60.570337404894005
0.7816,43.7382,-1.1677422403541882,-1.0389850938187966,-4.399448177596122,-0.12593804784704932,0.25137824369951844,-3.247739458312928,-33.126723235566004,5.097036333487704,-82.87463956754424,19.47707,11.175481573955011,0.0,19.477069999999998,0.8685031305246708,0.46324176,0.08733124,0.15324046,1.0,0.0,0.0,0.0,59.429686376977976
0.8013,43.7582,-1.1686202489912116,-1.2295502358549772,-4.848431419854444,-0.6255680936572787,0.03853435272251393,-3.1874718513093168,-33.07714587298612,7.401970848363767,-82.15823655809618,14.536342,8.373185201922205,0.0,14.53634199999999,0.8753710593732501,0.46171063,0.07672641,0.12108617,1.0,0.0,0.0,0.0,57.82215831975993
0.8197,43.7781,-1.1621789213283296,-1.7767551256949685,-5.066578470072461,-1.0336593642874452,-0.0875081889518734,-3.0350671776352645,-32.52933973235408,9.22581242688311,-81.81751971187839,10.273921,6.034437250492214,0.0,10.273921000000001,0.8831629645065064,0.45535514,0.06506386,0.09187801,1.0,0.0,0.0,0.0,55.94740803999322
0.8403,43.7981,-1.2238149041987905,-2.6018153451414516,-5.003472427769596,-1.2710956996526848,-0.095139473766513,-2.7850567111028575,-32.14056874035784,10.33167336064151,-81.69904719211331,6.237092,3.792553268089338,0.0,6.23709199999999,0.8920447610325863,0.44383222,0.05586174,0.0644094,1.0,0.0,0.0,0.0,53.73734806475827
0.861,43.8182,-1.4886679543500747,-3.523977588594434,-4.674590799452249,-1.210137775407667,0.0299939905319746,-2.459504845811453,-31.29505622274872,10.879653063466485,-82.04623964777848,2.79639,1.777790761134367,0.0,2.7963900000000024,0.9019543491898134,0.42780071,0.04470654,0.03829138,1.0,0.0,0.0,0.0,51.16768240365727
0.8777,43.8381,-1.9804749064640241,-4.255628787258403,-4.205253054628339,-0.7875070433193805,0.2339775233420196,-2.085813721298355,-30.325029118924977,10.873320281636872,-82.66722459750198,-0.236836,-0.1580304770304839,0.0,0.23683600000001093,0.911940152319754,0.40872991,0.0335044,0.01350831,1.0,0.0,0.0,0.0,48.45028328402798
0.8986,43.8582,-2.564298562121855,-4.401995937838993,-3.8046161743256457,-0.0486824032237442,0.3903726785639725,-1.7195559671527152,-30.40917052341562,10.31916264317421,-83.02322926783984,-3.600226,-2.521814389534681,0.0,3.600225999999992,0.921127386075384,0.38800839,0.02894251,-0.01166872,1.0,0.0,0.0,0.0,45.817082913812
0.9179,43.8782,-2.9706297313302286,-3.6879579999197145,-3.788527244573541,0.8258260996620318,0.3871023378466035,-1.4740688066390077,-32.67795942618546,9.973299409510119,-82.45483662105539,-7.093983,-5.150293733187144,0.0,7.093983000000009,0.9266538962501792,0.37243059,0.03933367,-0.03257107,1.0,0.0,0.0,0.0,44.1618306245848
0.9395,43.8981,-3.358111542089476,-1.950245485434876,-4.463219547208505,1.5862052805495321,0.17394940578932222,-1.4287109560941178,-34.407081183524916,11.333661305616168,-81.66011209083268,-10.037625,-7.356276561959899,0.0,10.037624999999991,0.9267584165502692,0.36922395,0.04804223,-0.04984432,1.0,0.0,0.0,0.0,44.12995844147105
0.9578,43.9181,-3.6748132536843516,0.6187456464831023,-5.555100587648715,1.8861836557436928,-0.19449436429457123,-1.604023286515392,-35.150502157055286,15.179396605610854,-80.58495291537173,-12.838022,-9.164786367144123,0.0,12.838021999999995,0.9199500748173014,0.38309497,0.05249248,-0.06461148,1.0,0.0,0.0,0.0,46.162431388879206
0.9815,43.9382,-3.7927331010492935,3.137839678982175,-6.081534184332513,1.4787290400037465,-0.487212144913701,-1.9980519479364824,-37.36371206415604,20.1438430582472,-78.16011801570147,-15.815634,-10.700121589185606,0.0,15.815633999999989,0.9067890378542977,0.40981737,0.0688127,-0.07105052,1.0,0.0,0.0,0.0,49.869350667004284
0.9983,43.9581,-3.8913347530332283,4.035581358732792,-5.199534587688568,0.5102000823095176,-0.4124292204505976,-2.332910315805589,-38.70337375625912,29.397450226761496,-74.11358887202431,-19.51672,-11.41074033506106,0.0,19.516719999999992,0.8782849699749686,0.46597126,0.08238149,-0.06855353,1.0,0.0,0.0,0.0,57.127665214473375
1.0193,43.9782,-3.7985047798369944,3.711933083513049,-3.9310780587442746,-0.6087589843562825,-0.2534705737630405,-2.2327672198459503,-32.96803144308977,33.920577838875445,-74.71233799898252,-24.596401,-13.892709252199877,0.0,24.596401000000014,0.871942025539501,0.47414273,0.04273835,-0.11436437,1.0,0.0,0.0,0.0,58.629788651785454
1.043,43.9982,-4.203715238108691,2.212595542528642,-2.1082138163872264,-1.5343610195630386,0.1998408682082301,-1.6940217875826484,-30.44052719934583,33.92276534603198,-75.80359352637672,-28.845652,-17.137556559281165,0.0,28.845652,0.8749413433817171,0.45772481,0.0205595,-0.1566619,1.0,0.0,0.0,0.0,57.923931204767044
1.0582,44.0181,-4.729147649082165,0.5392817473150924,0.16353633962387804,-2.0661603928667382,0.6045301529946504,-0.8930784178741917,-33.581841976943466,31.396154511640383,-75.87314801592876,-30.819225,-19.78169437792024,0.0,30.81922499999999,0.883936232716781,0.43257874,0.03294399,-0.17449087,1.0,0.0,0.0,0.0,55.75820664456416
1.0818,44.0381,-4.840537067641691,-0.5679816310629455,2.5141775253437295,-2.1971632205323046,0.7621941053528823,-0.15739877506937044,-38.5592700682529,28.534829339943236,-75.13473091531912,-31.316681,-21.603036232378635,0.0,31.31668099999999,0.8937981916644238,0.40695858,0.05868219,-0.17906956,1.0,0.0,0.0,0.0,53.29104769733048
1.0985,44.0582,-4.707182596184885,-1.0787616943956113,4.605518272536212,-2.044787379765915,0.6890358051413559,0.3223434786842924,-42.16483571950411,27.101807478118367,-74.29531628643974,-31.370214,-22.69303501826943,0.0,31.370214000000004,0.9000517945504345,0.38884124,0.07931743,-0.18005,1.0,0.0,0.0,0.0,51.67024753097842
1.1201,44.0782,-4.6264740215149445,-0.9006246243984677,6.289023541806646,-1.753778210330156,0.48593175567285846,0.5694663736380496,-43.61534988452428,25.59890694941205,-74.52643540304663,-30.625509,-23.0490345816327,0.0,30.625508999999994,0.9071511443454536,0.37015405,0.08743854,-0.180048,1.0,0.0,0.0,0.0,49.77083486461264
1.1398,44.0981,-4.542464467311062,-0.3878114747527892,7.5316087400432075,-1.407694485162037,0.27222427228516766,0.7530811871861401,-43.92417847793335,24.282188520020576,-75.21985806549402,-29.753809,-23.080816722250322,0.0,29.75380899999999,0.9136367735534092,0.35348326,0.08916418,-0.17990881,1.0,0.0,0.0,0.0,47.97426670930688
1.1578,44.1182,-4.520981126103507,0.016727561369633825,8.343561699140821,-1.0610251132416344,0.122261356180939,0.970386121743347,-42.90225642672878,23.74832699042348,-76.290216615683,-28.818228,-22.656752334211387,0.0,28.818228000000005,0.9181195229643166,0.3438811,0.08351623,-0.17840227,1.0,0.0,0.0,0.0,46.69460188579933
1.1784,44.1382,-4.181908364839304,0.17402977770747707,8.873206345158504,-0.7295892877067188,0.02684199044082014,1.2463224319346513,-42.489149251784866,22.79191241567524,-76.99405318087554,-27.58473,-21.944894446010593,0.0,27.584730000000008,0.9223935095501872,0.33569273,0.08147006,-0.17280982,1.0,0.0,0.0,0.0,45.442912581828594
1.1982,44.1582,-3.4738380108581723,0.12445217596561253,9.04831535683562,-0.41639221529831383,-0.0689032959736472,1.5124635051052095,-43.36579408405924,20.530831286252912,-77.18779179914563,-25.5473,-20.678052122931437,0.0,25.547300000000007,0.928014395335754,0.32527411,0.08691224,-0.15947507,1.0,0.0,0.0,0.0,43.74523775948609
1.2179,44.1782,-2.508681389035604,-0.2951175933508967,8.70669146478209,-0.1256341514866324,-0.23514973640105485,1.7068735864378177,-45.361194461218226,18.063368828140483,-76.59188041243611,-23.139212,-19.00421169570152,0.0,23.139211999999986,0.9322429738645978,0.31840172,0.10038715,-0.1395199,1.0,0.0,0.0,0.0,42.42560518806386
1.2391,44.1982,-1.716274576202601,-1.0545290081105927,7.770387985282678,0.10167003634919505,-0.47582972629907827,1.8432695937509813,-46.55625417099962,16.298691044668544,-76.16828910156336,-20.722754,-17.087015989074274,0.0,20.72275400000001,0.9343245714505292,0.3176696,0.10985757,-0.11855351,1.0,0.0,0.0,0.0,41.76140531890255
1.2587,44.2192,-1.1622993663217795,-2.0596607493939585,6.386031984190716,0.2501986120887568,-0.731495135926186,2.00923937442131,-46.22175088067299,15.41911191304306,-76.52904367329769,-18.601765,-15.233351131226073,0.0,18.601765,0.9351691547625895,0.32120842,0.10944277,-0.10151888,1.0,0.0,0.0,0.0,41.48901944783592
1.2945,44.2391,-0.5892025908555278,-3.1485503452994594,4.775437475141523,0.36740835939706257,-0.9191965621883802,2.2783733863002262,-45.03911024728902,14.459442669816603,-77.57828925860201,-16.259943,-13.188809296633869,0.0,16.259942999999993,0.9363240587052072,0.32469329,0.10331371,-0.08483986,1.0,0.0,0.0,0.0,41.1137609832452
1.3007,44.2592,0.2926321006548207,-4.135354392367761,3.1094502197881138,0.5513276502338276,-0.9769636042582399,2.6509660638296175,-44.128859978203515,12.308103228672458,-78.86664000887795,-12.826903,-10.355918761023178,0.0,12.826902999999987,0.9382992868135488,0.32558528,0.09990423,-0.06006512,1.0,0.0,0.0,0.0,40.46424477123821
1.3262,44.2792,1.4623823796498945,-4.837172328283355,1.4746417146281665,0.8547485564007244,-0.8837745090915444,3.0701454186117743,-43.52636922128271,9.337881300279257,-80.207208698112,-8.749672,-7.057522340127205,0.0,8.749672000000004,0.9399935140719308,0.32496005,0.09956171,-0.03001042,1.0,0.0,0.0,0.0,39.89906557391509
1.3391,44.2991,2.819433424941236,-5.040835764005279,-0.08068480885448359,1.297434168270717,-0.6131262403992312,3.465326029013297,-43.34651321753152,5.233045395959074,-81.3736830105745,-4.288361,-3.4815760409411247,0.0,4.288361000000009,0.941430435298675,0.32093692,0.10341672,0.00363468,1.0,0.0,0.0,0.0,39.413632491483135
1.3671,44.3191,4.034390462747407,-4.702018231581557,-1.626649639900343,1.79157085568205,-0.20116056344244804,3.785459039592161,-42.58564722914947,0.70863106054545,-82.58964337394164,0.900361,0.7344291270477012,0.0,0.9003610000000037,0.9411142355118944,0.31796876,0.10667243,0.04267149,1.0,0.0,0.0,0.0,39.52094491143053
1.3806,44.3392,4.830768053501847,-3.8076735084926496,-3.3071454231267126,2.2382206886008467,0.25457894375929113,3.997499887866248,-41.48713447634745,-3.4631791865630532,-83.56402250894335,6.318175,5.1452531871320915,0.0,6.3181749999999965,0.937406736976434,0.31938997,0.11057683,0.08385357,1.0,0.0,0.0,0.0,40.758970049587106
1.3991,44.3591,5.018872519307217,-2.463310548706389,-5.183061905773302,2.547095953547326,0.579325281750138,4.066489809818376,-40.68835069460962,-6.555660446330869,-84.04316070070612,11.464547,9.214484960514143,0.0,11.46454700000001,0.9288504994020452,0.3287175,0.11764253,0.12386198,1.0,0.0,0.0,0.0,43.48733589930474
1.4445,44.3792,4.6672625489855095,-0.8086173487531628,-7.0443860154118685,2.680892790934649,0.6546556308702232,3.9339045790637392,-40.87122122482564,-9.126395757175725,-83.80593626954457,16.642195,13.076679028191116,0.0,16.642195000000015,0.9140112133540556,0.3452369,0.13358139,0.16598493,1.0,0.0,0.0,0.0,47.868611551597105
1.4461,44.3992,3.9909780015931395,0.7938119783943209,-8.38763311928988,2.5973241111414613,0.42485838501097417,3.6257005691990187,-40.3676715591636,-11.290805406707769,-83.80170979352171,22.444378,17.08628558333319,0.0,22.444378,0.8951378692514547,0.36469629,0.147921,0.20939004,1.0,0.0,0.0,0.0,52.94771167590274
1.4619,44.4191,3.5074488279812015,1.9872568171942468,-8.983142414315036,2.4407711614921994,-0.05936082657364539,3.1477394956295344,-40.01890879389582,-12.57104412434867,-83.85796384609469,27.251583,19.92598436946408,0.0,27.25158300000001,0.8759482082170862,0.38548756,0.15942819,0.24227408,1.0,0.0,0.0,0.0,57.68520970245654
1.4815,44.4392,3.4831546553486477,2.7748899655507975,-8.810507038302603,2.238868932483328,-0.5683894100194421,2.6356491120529206,-37.85349045091179,-14.281527910551311,-84.82432159204447,32.406139,23.022694601626423,0.0,32.406138999999996,0.8619157139411667,0.3975094,0.15965438,0.27128962,1.0,0.0,0.0,0.0,60.935271167017255
1.499,44.4592,3.7823517079424778,3.3385838797092564,-8.13452540180103,2.0955558524745386,-0.9647070742843455,2.157211101548167,-34.44924959644965,-16.102263893380158,-86.40309292385126,38.130867,26.639134297038936,0.0,38.130866999999995,0.8505900016332653,0.40355644,0.15294391,0.3004114,1.0,0.0,0.0,0.0,63.44820138621407
1.5222,44.4791,4.05519726245214,3.798522572671165,-7.169625102558191,2.009699017567256,-1.2300509800350699,1.7747183878086068,-29.44150489674107,-16.370853545622694,-88.86265236944195,45.401577,31.081269347507206,0.0,45.401577,0.8380032829610787,0.41068774,0.13499051,0.33296192,1.0,0.0,0.0,0.0,66.14026400244471
1.5396,44.4991,4.125063772756698,4.086958217095948,-6.149123171342189,1.9392236721135347,-1.425327460922601,1.5128869762521047,-23.956500749307487,-14.088933595634128,-91.72231361896232,53.297661,35.342086035138095,0.0,53.297661000000005,0.8229994431975676,0.42393091,0.1068396,0.36268416,1.0,0.0,0.0,0.0,69.22762687242086
1.5607,44.5192,4.039765144648101,4.261314590622515,-5.319167638103316,1.857912391003743,-1.5903226075856822,1.4012120462451072,-19.59019957182057,-11.444242744609102,-94.07395256313069,60.274841,38.950345481787956,0.0,60.27484100000001,0.807248654841301,0.43744737,0.08163673,0.38771749,1.0,0.0,0.0,0.0,72.34403597844046
1.5786,44.5392,3.919126949125956,4.29827465008661,-4.540334259477869,1.709760161478547,-1.8255882142807547,1.4443860007251148,-15.267785705859765,-7.944869913522346,-96.25201710941411,66.898415,42.35683202114168,0.0,66.898415,0.790696798406193,0.45162776,0.05310101,0.40989172,1.0,0.0,0.0,0.0,75.49864771600201
1.5992,44.5592,3.8772595071324307,4.320072235511064,-3.674310479171883,1.5259284096032497,-2.144839559333613,1.5760517746130944,-11.19566079386523,-4.344219951940824,-98.09601407657402,72.901482,45.690305856157615,0.0,72.90148199999999,0.7734647790915036,0.46428245,0.02524321,0.43076307,1.0,0.0,0.0,0.0,78.66789851053538
1.6194,44.5792,3.731111564174563,4.619122964123731,-2.5402888235055183,1.3704926671075033,-2.468679224044415,1.7586285205864545,-5.689009738711199,-2.4898644558621523,-99.7079457473698,78.297844,50.362991725960065,0.0,78.297844,0.7563911953758429,0.46511337,-0.00072232,0.45993629,1.0,0.0,0.0,0.0,81.70584345938033
1.6387,44.5991,3.3818219568731474,5.1934204691569725,-1.0338575045261358,1.2748238487151873,-2.7708612050609642,1.8725030279537256,0.5969585727888145,-1.0813247322118613,-100.98355439502336,82.930389,55.57302963277319,0.0,82.93038899999999,0.7388246955955078,0.4600738,-0.02712407,0.49166498,1.0,0.0,0.0,0.0,84.73721264063616
1.6593,44.6191,2.7700337016470664,5.899008316728272,0.8073387309861335,1.260858922112048,-3.0200722524037897,1.8117836147111412,6.197792739997574,1.0487318572465836,-101.90576470799178,87.277618,60.55976366410543,0.0,87.27761800000002,0.7185165087556181,0.45686725,-0.05186223,0.52183968,1.0,0.0,0.0,0.0,88.13572782048414
1.6787,44.6392,1.8542213774846035,6.3650820469057035,2.959474545870952,1.2867970932677086,-3.1864421408530994,1.522391072881419,11.3460102816764,4.79322283105452,-102.49687177801245,91.637093,65.38375936461166,0.0,91.637093,0.6940905298440965,0.45794749,-0.07933678,0.54975277,1.0,0.0,0.0,0.0,92.09042314272753
1.6994,44.6592,0.7644846493540696,6.387458565472587,5.196162427879216,1.3271899670147733,-3.188737907917469,1.0593667276458745,15.983707969422305,8.727221304831096,-102.81129781883043,95.335258,69.9293530221102,0.0,95.33525800000001,0.6694144335620031,0.45859396,-0.1067294,0.57461703,1.0,0.0,0.0,0.0,95.9562268407767
1.7224,44.6792,-0.37272243293053453,5.909795539209314,7.217383988093008,1.3451618287652887,-2.980980741260639,0.5292219565071603,20.834469882950614,11.660327527298548,-102.91186312397932,97.473557,73.97805892501005,0.0,97.47355700000003,0.6501593842694048,0.4537949,-0.13611619,0.59399945,1.0,0.0,0.0,0.0,98.89276031621007
1.739,44.6991,-1.5007072486685074,5.171246949819155,8.686755827352808,1.3672249163794756,-2.554754291029518,0.045513499870526386,25.92669119230885,12.696926258088993,-102.95418591051978,98.081306,77.47223989484716,0.0,98.08130599999998,0.6383494582390264,0.44156501,-0.16441298,0.60868603,1.0,0.0,0.0,0.0,100.66229484775788
1.7594,44.7192,-2.343261122395635,4.160064611252094,9.538577604338002,1.41231867391228,-1.9540139068978812,-0.3830245624987353,29.7124082668548,13.42742344806138,-103.1769671959376,98.009659,79.82723164984091,0.0,98.009659,0.6307136884417899,0.43200994,-0.18970887,0.61609918,1.0,0.0,0.0,0.0,101.79440635235807
1.7788,44.7391,-2.760501495920643,2.966902958952426,9.879435114730558,1.456935323274961,-1.2351589553493763,-0.7486563064326734,31.493101816199058,14.806717818681756,-103.72884495453725,97.564903,80.78500987165854,0.0,97.56490300000002,0.6260279808660589,0.43048444,-0.21182466,0.61473769,1.0,0.0,0.0,0.0,102.48464329375679
1.8005,44.7592,-2.983201525846746,1.8409322930203935,9.864470768289678,1.49512689586519,-0.43497194554466245,-1.0343157269740435,32.211661253852085,16.668564714455805,-104.32400685521245,97.053139,81.05954823558227,0.0,97.05313899999999,0.6224147016075555,0.43360397,-0.23084761,0.60934138,1.0,0.0,0.0,0.0,103.01463200874355
1.8215,44.7792,-3.057641006858695,1.0478507958339276,9.644889270426034,1.5233408339272076,0.41672808929768695,-1.2643168535385203,32.301040669918834,17.942237499988018,-104.93079257069776,96.290138,80.78663846278981,0.0,96.29013800000001,0.6220574805585646,0.43716753,-0.2449303,0.60161299,1.0,0.0,0.0,0.0,103.06692246352586
1.8425,44.7991,-2.870793956371058,0.4153365197630464,9.264258037883486,1.5396428478883677,1.3125486434653009,-1.4772299187329192,31.670703201983404,19.37612448573475,-105.40715189784385,95.230644,79.75851705763097,0.0,95.23064399999998,0.6244623367835794,0.44396645,-0.25677767,0.58907199,1.0,0.0,0.0,0.0,102.7145294482615
1.865,44.8191,-2.228155229970806,-0.14474599790220205,8.596224775322103,1.5232616549322708,2.2278256059122454,-1.6917331726074332,29.583181139250797,21.334365980507,-105.8287748681667,93.974968,77.60360918820567,0.0,93.97496799999999,0.6296790594435352,0.45710596,-0.26489535,0.56955147,1.0,0.0,0.0,0.0,101.94710381700494
1.8802,44.8391,-1.1216630266251002,-0.5862294374127461,7.4503955554673205,1.4451450748686052,3.1066400891723323,-1.9195366363820248,25.777297514441454,23.59665322279666,-106.15926798293228,92.639481,74.22940324753843,0.0,92.63948099999999,0.6379104633456335,0.4762581,-0.26690331,0.54314923,1.0,0.0,0.0,0.0,100.72763221398846
1.9016,44.8591,0.3011386635925808,-0.8622640847069641,5.7414712875339795,1.2851424623894212,3.883319025395752,-2.1730193811037504,20.328820925834215,25.794029368214556,-106.25762918169438,91.19519,69.62406755004494,0.0,91.19519000000003,0.649649968614356,0.49951226,-0.26137769,0.51002365,1.0,0.0,0.0,0.0,98.96956759164469
1.9334,44.8792,1.7343129882041266,-0.9947207070595019,3.5502646876434785,1.0513211260430442,4.509093598035412,-2.450691952304651,14.146082714988431,27.5063310628913,-105.89340023097206,89.450508,64.16016896642955,0.0,89.45050800000001,0.6647717133338397,0.52264416,-0.2496759,0.47178766,1.0,0.0,0.0,0.0,96.67037150566436
1.941,44.8992,2.9445577994115673,-1.1341129916599024,1.0536319247707446,0.7708765711134571,4.971060094537793,-2.7195244241748178,8.070613306982864,28.77724661717822,-104.94680962140811,87.102516,58.145751293165034,0.0,87.10251599999998,0.6827213413441103,0.54312551,-0.23486181,0.42865625,1.0,0.0,0.0,0.0,93.88666798722365
1.9602,44.9191,3.7194468105687237,-1.3785153794820912,-1.5298080595488521,0.48129096925458725,5.27427610669553,-2.9395808394331473,3.4185697260182195,29.46090461673559,-103.52400710192347,83.924957,52.32300617681361,0.0,83.924957,0.7021250802884219,0.55721867,-0.22100681,0.38429639,1.0,0.0,0.0,0.0,90.80450176507648
1.9787,44.9391,4.0927605220482866,-1.7909648901888375,-4.0473208444843225,0.16425740142606815,5.4525940673349655,-3.0526943897214514,-0.7785578415732459,29.95547006318984,-101.7579632410926,79.864189,46.292195502759554,0.0,79.86418900000001,0.7224599285969432,0.56771886,-0.20599759,0.33661839,1.0,0.0,0.0,0.0,87.48409610306217
1.9988,44.9592,3.969253196858187,-2.289112151943542,-6.2991855003481,-0.132903440446287,5.534225688120326,-3.037681632682912,-3.8539917548615534,30.01416858669849,-99.8235939760448,74.576775,40.49546324585602,0.0,74.576775,0.7433132470334686,0.57213956,-0.19228975,0.28838584,1.0,0.0,0.0,0.0,83.97115303498313
2.0396,44.9792,3.341552990309323,-2.7273135911577984,-8.193375968861163,-0.3976389646386997,5.53875095350941,-2.9260220858682704,-6.0247778066008735,29.21816800816581,-97.93345756196672,67.849419,35.060595465932735,0.0,67.84941900000001,0.7649042226887321,0.56937838,-0.17845111,0.2426623,1.0,0.0,0.0,0.0,80.20305601108446
2.0421,44.9992,2.1863507838790044,-2.98711450993085,-9.757920792926116,-0.6372700826831359,5.47304327614502,-2.7509002666461213,-7.754785387462512,27.748536313857436,-96.04177835159786,59.965057,30.00365513043511,0.0,59.965057,0.7861372882509783,0.56106776,-0.16273403,0.20176414,1.0,0.0,0.0,0.0,76.34802759433258
2.0616,45.0192,0.44075315940680854,-3.014652943889557,-10.993178671228748,-0.8241347158437666,5.312923133794229,-2.5603960397616685,-9.728173129899503,25.793532683989287,-94.03937112406871,50.233746,24.746030535542285,0.0,50.233746,0.8081502660863596,0.5479477,-0.1441676,0.16081719,1.0,0.0,0.0,0.0,72.16880178146126
2.0821,45.0392,-1.868395466203523,-2.7138531800958674,-11.787728753458088,-1.0446667914385988,5.095734056179828,-2.195055594833284,-14.71988327575892,26.69207277102037,-90.6016471375826,38.951683,17.80154079812693,0.0,38.951683,0.822279294561025,0.54678148,-0.11213026,0.11096657,1.0,0.0,0.0,0.0,69.37276983922716
2.101,45.0592,-4.389909066937806,-2.259096132418578,-11.801512444115088,-1.2494647335192979,4.674926537418028,-1.9406284775080993,-19.04747674684264,26.715312879826037,-87.16090931612757,26.299971,11.64739578075975,0.0,26.299971,0.8354021626950511,0.53953093,-0.07778556,0.07042023,1.0,0.0,0.0,0.0,66.68452526021906
2.123,45.0792,-6.797877702730061,-1.8342552942489667,-11.088838336475447,-1.4236569102015877,4.058890697625452,-1.7771596651087653,-22.615047678356063,26.43384898041244,-83.79219197651847,13.656587,6.135582436421985,0.0,13.656587000000002,0.8472247401217537,0.52818334,-0.04465688,0.03519037,1.0,0.0,0.0,0.0,64.17782459752245
2.1388,45.0992,-8.841645754223348,-1.4488673125054976,-9.811221865769136,-1.551785491432607,3.3012142381498393,-1.6169875506148932,-25.320230059721467,26.782740345753158,-80.45884725089724,1.975714,0.9229073650316817,0.0,1.9757140000000106,0.8562133422646637,0.51636535,-0.01628987,-0.00042188,1.0,0.0,0.0,0.0,62.21192156768574
2.1593,45.1192,-10.256188756981636,-1.011434950554357,-7.740100290784726,-1.7220348212691887,2.43132269547524,-1.38597741762577,-30.319536795022152,25.769855081668812,-76.86978485405012,-11.4117,-5.900505857649278,0.0,11.411699999999996,0.8683787889816976,0.49321988,0.02381323,-0.04566573,1.0,0.0,0.0,0.0,59.45842519180292
2.1787,45.1392,-10.961904484217532,-0.46155258866210225,-5.734837465823124,-1.86690200605179,1.5654664750264193,-1.0419350177808282,-33.22803082599554,24.718482698065575,-74.2051477040896,-19.182695,-11.010321550812057,0.0,19.182694999999995,0.878503283896173,0.46794435,0.05182274,-0.0810831,1.0,0.0,0.0,0.0,57.07532162942717
2.2012,45.1592,-11.087167951441952,0.05225521615557027,-3.9633315088234085,-2.016898201329437,0.7760867350795599,-0.5624847357699589,-35.36918284939325,23.91063066006356,-72.10254152049836,-23.623768,-14.727592049290926,0.0,23.623767999999984,0.8859173142117065,0.44539574,0.0745758,-0.10588483,1.0,0.0,0.0,0.0,55.27076295051266
2.2206,45.1792,-10.795668261850778,0.2835414830186984,-2.4284837530799983,-2.1739934842263473,0.09155372653945604,0.006388631868121497,-37.12910356002194,23.376958279327344,-70.45802956175321,-26.049095,-17.258787940824448,0.0,26.049094999999994,0.8911397043394158,0.42708796,0.09356403,-0.12129169,1.0,0.0,0.0,0.0,53.96637436867032
2.2386,45.1991,-10.16930390386321,0.054249289147984436,-0.9545489907639251,-2.3181071540440805,-0.48921220867152165,0.6076402787368491,-38.64035552256206,22.57156813341702,-69.41980557980328,-27.072109,-18.874935725722565,0.0,27.07210900000001,0.8963983617694014,0.40959907,0.10829746,-0.13026987,1.0,0.0,0.0,0.0,52.622772618719495
2.2592,45.2192,-9.189585194559335,-0.7151277064144055,0.6740852934959989,-2.3829304383428376,-0.9936060524533044,1.1882426433862268,-40.109913493993744,20.605362085620225,-69.15918451533821,-26.35885,-19.327326524786464,0.0,26.35884999999999,0.9041026246973964,0.38894773,0.11974967,-0.13030013,1.0,0.0,0.0,0.0,50.594616820570074
2.2865,45.2391,-7.715518180025938,-1.6516068692019412,2.6165680234659625,-2.272714028216856,-1.4119877466333437,1.7116769025137961,-41.77039547366767,16.908823798585384,-69.59246605255069,-24.166168,-18.754709143393875,0.0,24.166168,0.9152155021161976,0.36141846,0.1292617,-0.12267312,1.0,0.0,0.0,0.0,47.5273004798556
2.3004,45.2612,-5.787998329564223,-2.224044640138722,4.721740340689541,-1.9443112064740273,-1.7132422862965224,2.117973235601058,-43.01245834099329,11.852665770098874,-70.73704395566577,-20.693737,-16.953639253654327,0.0,20.693737,0.9283423370833364,0.32982385,0.13403788,-0.10691389,1.0,0.0,0.0,0.0,43.644254736353474
2.3235,45.2811,-3.8338365231007643,-2.25098859822259,6.625488952130148,-1.458443175118715,-1.8847000197022798,2.3320381804958927,-42.601506080485464,7.207461704717431,-72.85310046114263,-16.199949,-13.690431329947161,0.0,16.199949000000004,0.9399195399579584,0.30566999,0.1280725,-0.08194236,1.0,0.0,0.0,0.0,39.923902824515835
2.3432,45.3012,-2.089846777726974,-1.7210595890029987,8.168670696553178,-0.8807683980675902,-1.8901114796209795,2.3952552244183156,-41.168498838961824,3.7019657208549717,-75.46793731524075,-11.517509,-9.853823242761074,0.0,11.51750899999999,0.9481118014012108,0.29126194,0.11593296,-0.05300984,1.0,0.0,0.0,0.0,37.076432809726214
2.3625,45.3212,-0.702333803376375,-0.7369896329589976,9.238997143932561,-0.2842621501176576,-1.6980343717024868,2.387066244374407,-39.51638651961319,0.9487846064363126,-78.12539966636658,-7.078077,-6.080960581125549,0.0,7.0780770000000075,0.953384870352076,0.2827599,0.10255651,-0.02421343,1.0,0.0,0.0,0.0,35.12632682479942
2.3813,45.3412,0.26142858367596794,0.2764424356913864,9.72877788924271,0.2560322869763888,-1.353921594839327,2.351216978035135,-38.03744754518319,-0.7547849990097575,-80.57288664138125,-3.14729,-2.693726081144488,0.0,3.147289999999998,0.9553497431844892,0.28133175,0.09029786,0.00236878,1.0,0.0,0.0,0.0,34.37232791247529
2.4025,45.3622,1.0174673575205073,1.0202407960709898,9.618991490945053,0.7187368963818344,-0.9436657168348068,2.3020654085675596,-37.37271320356743,-1.5595765632636827,-82.47912444710423,0.044924,0.03809325358833291,0.0,0.044924000000008846,0.9543033592822536,0.28596288,0.08303067,0.02522375,1.0,0.0,0.0,0.0,34.77583866616231
2.4219,45.3822,1.7912204905350093,1.5022909980333967,8.975635389374915,1.1340207440376742,-0.5374931646917743,2.2065169134521745,-37.73074191050622,-2.5774068460441697,-83.68354340209395,3.12641,2.6266841244272023,0.0,3.126409999999993,0.9512336653363256,0.29258564,0.08421548,0.04955714,1.0,0.0,0.0,0.0,35.93425045954449
2.4442,45.4022,2.635725037304968,1.8688646569570118,7.9049839481835384,1.5250632358712104,-0.16241958170490722,2.012286989428102,-38.84577788749435,-4.433576488894438,-84.19031676630243,6.218169,5.197515096793751,0.0,6.218168999999989,0.9468939359620596,0.29814586,0.09337464,0.0760401,1.0,0.0,0.0,0.0,37.512900673988106
2.4619,45.4222,3.2530954931044076,2.060711137780978,6.523196305002468,1.8653592297236286,0.17338792122830005,1.7325307116532072,-39.590803876494036,-6.148634268030506,-84.47951073736917,9.214961,7.639253217751799,0.0,9.214960999999988,0.941081186553939,0.30582333,0.10253417,0.10161218,1.0,0.0,0.0,0.0,39.53214497836493
2.482,45.4421,3.3207873821837266,1.9384750047126085,4.9137599323912,2.102498581001101,0.455938337437496,1.475048746181876,-39.159813250540005,-6.058827846883219,-85.06495791845079,11.676479,9.45364346416296,0.0,11.676479,0.9338961862686772,0.32072204,0.10282628,0.12000851,1.0,0.0,0.0,0.0,41.898916653262916
2.5014,45.4621,3.0152477280642405,1.595020914981526,3.0767171098475004,2.2162173950349406,0.6800847244754132,1.3073956100849695,-39.28469440280222,-4.136845716841911,-85.17047249562309,13.068431,10.155505677748417,0.0,13.068431000000004,0.924031265017771,0.34430727,0.10340283,0.13010219,1.0,0.0,0.0,0.0,44.9545431204809
2.5215,45.4822,2.4244835778496086,1.2906404231059154,1.187302251100128,2.186623084470715,0.8324487450788359,1.2451755849602038,-40.422532069781845,-2.1583850471462327,-84.49726877605494,13.795682,10.22285566574288,0.0,13.795682,0.9123623177223856,0.36966661,0.10998338,0.13727802,1.0,0.0,0.0,0.0,48.33224942065421
2.5422,45.5021,1.6296669572642766,1.038397198385936,-0.47783755053116295,2.0422090208478916,0.8869522125999499,1.255668432156762,-41.604662586005524,-1.6336461000563247,-83.54522302577752,14.851493,10.573051497393497,0.0,14.851493000000005,0.901020154943528,0.38955078,0.12036029,0.14807522,1.0,0.0,0.0,0.0,51.415024519723495
2.5634,45.5222,0.8256256978814869,0.6062599273032045,-1.8335998225000711,1.871174639393865,0.8215554018267779,1.2738065899712514,-42.343258762135534,-2.326925299886412,-82.67689144302098,16.439812,11.352079360950828,0.0,16.43981199999999,0.890576853086563,0.40390581,0.13158628,0.1625362,1.0,0.0,0.0,0.0,54.10835258778984
2.5816,45.5422,0.07131331934622231,-0.14138103973455607,-3.023267323800952,1.75326363757418,0.6484691261736187,1.2721178741508492,-42.32568155459789,-3.461017975793016,-82.13828854592138,18.546209,12.48489192085484,0.0,18.546209000000005,0.8810632185536386,0.41488168,0.14022097,0.17871451,1.0,0.0,0.0,0.0,56.45822802108991
2.6033,45.5621,-0.6900993919178862,-1.1551014513060212,-4.286814885422725,1.720243529310077,0.38413205647335286,1.2811797439181523,-41.584225968593174,-4.5012520408623615,-81.9655471457076,20.930889,13.758280707593157,0.0,20.930889000000008,0.8727819187382042,0.42394736,0.14447349,0.19403033,1.0,0.0,0.0,0.0,58.432912864622104
2.623,45.5822,-1.4737475744593986,-2.265539971102528,-5.798577137981537,1.7513651558460654,0.010658272667174618,1.367332118435332,-40.54253862310493,-5.279731860533715,-81.96681812696683,23.267994,14.927674009194787,0.0,23.267993999999987,0.8655065120551927,0.43227711,0.14556685,0.20699099,1.0,0.0,0.0,0.0,60.11881455731155
2.6427,45.6021,-2.125208354338221,-3.269947633159595,-7.543205599232101,1.799860992114542,-0.5212082516066114,1.5849035099298807,-39.78815930492438,-6.149894863362629,-81.85976435255051,25.332954,15.887088939092566,0.0,25.332954,0.8585755242260659,0.43984488,0.14743969,0.21827984,1.0,0.0,0.0,0.0,61.6859657990509
2.6616,45.6221,-2.335938970444297,-4.045323644760299,-9.341553514095976,1.829546860970035,-1.274238488787537,1.9447150936579578,-39.21956787656279,-6.848191034759807,-81.7889700062275,27.819689,16.94949264660502,0.0,27.81968900000001,0.8499862506092646,0.4490048,0.14985491,0.23121758,1.0,0.0,0.0,0.0,63.57965208968929
2.6822,45.6422,-1.6810010178174963,-4.499805613767616,-10.979202358844827,1.8459690908756528,-2.2757939834530507,2.374820198464977,-37.72768044802524,-6.431109877473894,-82.48195553934814,33.103172,19.150349065176403,0.0,33.103172,0.836115129451894,0.46382168,0.14676851,0.253456,1.0,0.0,0.0,0.0,66.5357354801299
2.7031,45.6622,0.16790367836338382,-4.5193857986547625,-11.986502449084629,1.9154274435941527,-3.3511890995596616,2.833484267334855,-34.67613972998241,-7.2241377651237,-84.11266497091826,40.877277,23.106589851355718,0.0,40.87727699999999,0.8229787441617127,0.47064042,0.13891053,0.28619477,1.0,0.0,0.0,0.0,69.23180239365897
2.7215,45.6821,3.096589499376617,-3.8772274201632237,-11.95055211832302,2.028586417613516,-4.256629991047024,3.3239725176880914,-28.99427788054414,-9.113719106546785,-86.96322066665857,50.431076,29.24655088718719,0.0,50.43107599999999,0.8124904753032473,0.46602178,0.12021065,0.32898682,1.0,0.0,0.0,0.0,71.32004762226572
2.7426,45.7021,6.392023325486978,-2.2379425826489414,-10.568553408826551,2.1190805513099225,-4.7886860922494385,3.7626297166079796,-20.357496613494675,-10.136784766236183,-90.77116732907042,61.529896,37.60857580296865,0.0,61.52989600000001,0.797846662749024,0.45683578,0.08757498,0.38350019,1.0,0.0,0.0,0.0,74.15007399427651
2.7614,45.7221,8.811672729676454,0.3730582621592544,-7.603627703428651,1.9701658608110568,-4.785381839861727,4.18657484287903,-7.738234311725492,-10.710845180565055,-94.70023737871841,71.854057,48.15894980998363,0.0,71.85405700000001,0.7793510163279503,0.43607846,0.03904153,0.44824472,1.0,0.0,0.0,0.0,77.59761316606244
2.7824,45.7421,9.255545723318745,3.536847845720882,-3.770747171653966,1.5791453136378415,-4.341454440846088,4.413574874232558,5.967886465139159,-9.92084507508957,-97.43853106813191,80.618538,59.12341009012227,0.0,80.618538,0.7514229741405098,0.41209781,-0.01217109,0.51516092,1.0,0.0,0.0,0.0,82.57241781176708
2.8059,45.7632,7.7951551981250065,6.5996868470981935,-0.3381834365289489,1.1410188517539468,-3.6542777796657413,4.314854407807234,16.187965046312243,-8.204949748511414,-99.24105743459988,88.026886,68.56018200201093,0.0,88.02688599999999,0.7159513997777472,0.3949807,-0.04695059,0.57375908,1.0,0.0,0.0,0.0,88.55755165037483
2.8253,45.7831,5.172584515009637,8.994128507043895,2.225063750299519,0.704335014765072,-2.942483379218598,3.9080072432450743,23.160183977562532,-6.160133789942497,-100.84043138860089,94.570053,76.56877881501684,0.0,94.57005300000003,0.6779322566299916,0.38405019,-0.06756316,0.62317616,1.0,0.0,0.0,0.0,94.63545434877717
2.8424,45.8032,2.4817005899892086,10.421690493776682,3.9361171885133412,0.3140914708132567,-2.341465761240504,3.2436399359436296,26.983537142956976,-4.427832949829748,-102.58013822418175,99.580315,82.39190599144798,0.0,99.58031499999998,0.6456804230253665,0.37929779,-0.07941569,0.65796894,1.0,0.0,0.0,0.0,99.56657912509425
2.8653,45.8232,0.10913563254854486,10.923699555674098,5.1039227222604815,-0.009020972235395552,-1.8564095623501358,2.3926436924479524,30.29506099819804,-2.388610909716924,-103.89038562168436,103.446846,87.15778723376424,0.0,103.446846,0.6179316992516916,0.37536097,-0.09309569,0.684542,1.0,0.0,0.0,0.0,103.66949397847611
2.8833,45.8432,-1.6259258870477036,11.203348637051112,5.408562144604906,-0.19190115198664193,-1.354115159853879,1.4916068978282921,33.34085409172678,-3.536465180171687,-104.57206716915633,105.863708,91.13219452213815,0.0,105.86370799999997,0.6002142643477884,0.36148155,-0.09627645,0.70696872,1.0,0.0,0.0,0.0,106.22951051774983
2.9026,45.8631,-2.3592092605214185,10.999184622686293,5.293375746999777,-0.21570208262742607,-0.8813597076189637,0.5709228105778892,35.272729436329186,-5.233829498957373,-105.01289223740193,107.030128,93.53330006402891,0.0,107.03012799999999,0.5911618346256168,0.34945819,-0.09802932,0.72027558,1.0,0.0,0.0,0.0,107.52100214774619
2.9247,45.8832,-2.164755037328302,10.34875383057205,5.029365522670345,-0.10380808032412733,-0.4291628585920725,-0.2810609082231088,35.658466811537544,-7.0286148524192775,-105.50635269928563,107.056137,94.234168426793,0.0,107.05613700000004,0.5904217371030503,0.34239945,-0.09910934,0.72411472,1.0,0.0,0.0,0.0,107.62611668358537
2.9424,45.9031,-1.5470591537284466,9.30690351393128,4.785729052210035,0.09869575974804945,0.000431149372246295,-0.9994218258357624,35.47192194675557,-8.46800965257094,-105.87689840205262,106.2584,93.8715083129137,0.0,106.2584,0.5951251824051378,0.33825383,-0.10230401,0.72176468,1.0,0.0,0.0,0.0,106.95688683381177
2.9634,45.9232,-0.8971707823381894,7.9877991684379905,4.601850558999216,0.35482155624803163,0.4002252224658356,-1.5494700050700998,35.21501032540006,-9.189589643752221,-106.08902488033777,104.684166,92.65190138995314,0.0,104.684166,0.6042234684595519,0.33647904,-0.11029804,0.71381384,1.0,0.0,0.0,0.0,105.65403212838577
2.9838,45.9441,-0.316751619657039,6.6002662003984645,4.401707941480284,0.617608060127351,0.7437716821863536,-1.9433916790318624,33.80181756892442,-9.08471663177904,-106.58131366439933,102.511955,90.33228100660428,0.0,102.511955,0.6171720908663237,0.34111643,-0.11967907,0.69886702,1.0,0.0,0.0,0.0,103.78016325182986
3.0036,45.9642,0.031502208404516896,5.470341272897513,4.122654084927454,0.8454129548728848,0.9889957002211924,-2.2482025452140073,31.220561134762043,-8.808669235082936,-107.29337310775699,100.471626,87.5930868031757,0.0,100.47162600000001,0.6303366274603227,0.3500824,-0.12349772,0.68181109,1.0,0.0,0.0,0.0,101.85007466354944
3.0235,45.9841,0.1296667489525274,4.546424015052924,3.9871654448756555,1.035630040982833,1.1532126766109612,-2.5205874810679876,28.419641766283743,-7.913832050474268,-107.94461794468701,98.451775,84.63213736561835,0.0,98.451775,0.6431533194165086,0.3615728,-0.12716092,0.66290951,1.0,0.0,0.0,0.0,99.94528300913012
3.0446,46.0041,0.02027503357878313,3.6355541185513465,4.165909649106723,1.195336400693194,1.3021457976672808,-2.7744427290150533,26.52194004858655,-6.035613898454692,-108.27094996955113,96.368912,81.78428826303896,0.0,96.36891200000002,0.6548182065888268,0.3732776,-0.13619374,0.64290607,1.0,0.0,0.0,0.0,98.18826629299373
3.0643,46.0242,-0.11049290696568548,2.658415466067068,4.530426416415077,1.3082893469909287,1.4755425967555336,-3.001470329081319,25.304413562856993,-4.202994450051998,-108.31355932253662,93.742706,78.77232242587425,0.0,93.742706,0.668573384133519,0.38287613,-0.14889602,0.61987537,1.0,0.0,0.0,0.0,96.08589366039804
3.0864,46.0452,-0.05946184217246042,1.4494829184381801,4.776194560722946,1.3271698149268716,1.7164101798393794,-3.165523505472842,23.352423108969255,-2.024074960971925,-108.44913275052414,90.563919,75.01633150565124,0.0,90.563919,0.6848223261216451,0.39544716,-0.16250604,0.59011161,1.0,0.0,0.0,0.0,93.5567285843761
3.1051,46.0652,0.08366975631762852,0.10311539479970555,4.574822605926331,1.2417273393152366,2.02048749857209,-3.229676111060125,20.56225921606155,0.40382962292761615,-108.64444768631792,87.309746,70.84372550083374,0.0,87.30974600000002,0.7011947411967802,0.41060206,-0.17321812,0.55653155,1.0,0.0,0.0,0.0,90.95412596016588
3.1273,46.0851,0.1858307564402244,-1.163142376727794,3.8091820325211643,1.099730976958882,2.3494567409911498,-3.1860659724774822,17.153603530858618,2.8278391898720283,-108.75720497601706,83.97155,66.36067979876238,0.0,83.97154999999998,0.7176926344296514,0.42654508,-0.18014829,0.52011842,1.0,0.0,0.0,0.0,88.27138565826222
3.1458,46.1062,0.16944935199692068,-2.0726530930832805,2.6133229051617803,0.9662754395529158,2.6533102141213574,-3.0828454469897206,13.58527952262051,4.526938018196319,-108.63351905566894,80.709175,61.97939833547011,0.0,80.70917500000002,0.7338113098998539,0.43972054,-0.18107355,0.48515892,1.0,0.0,0.0,0.0,85.5862628911015
3.166,46.1261,0.12227277604099207,-2.5494762102608988,1.2383961975713778,0.8908046631991274,2.9016877621536925,-2.9871249457378983,9.649913663964341,5.229652327526601,-108.23931422075799,77.240356,57.51067980011303,0.0,77.24035600000002,0.7508623931761822,0.4494988,-0.17533289,0.45101538,1.0,0.0,0.0,0.0,82.66972727219242
3.1875,46.1462,0.044623746448414714,-2.6922872450817334,-0.1323624117621094,0.8940115182179984,3.105346976010036,-2.9118231495070406,6.176917296829245,5.63684348698335,-107.4255599967484,73.70195,53.28406621210565,0.0,73.70195000000001,0.7669195613699534,0.45651627,-0.16763446,0.41871944,1.0,0.0,0.0,0.0,79.84386338529288
3.2061,46.1661,0.0013989810823025195,-2.6097984429320924,-1.4604098834478538,0.9255369569849465,3.283248756048148,-2.821129920749086,2.881825295305667,6.637475187598881,-106.2142872030345,69.907326,48.891057458261095,0.0,69.90732600000001,0.7818346680114595,0.46438029,-0.16054852,0.38380942,1.0,0.0,0.0,0.0,77.14227166807275
3.2306,46.1861,-0.024941698746285823,-2.3287469836861696,-2.8013212078163416,0.8659791707144491,3.444716526369486,-2.656312940688457,-0.439213840157187,8.256226143112347,-104.67621606836283,66.155418,44.41456945168014,0.0,66.155418,0.794324157105143,0.47412211,-0.15198816,0.34807608,1.0,0.0,0.0,0.0,74.81706576940861
3.2456,46.2062,-0.21471441516954903,-1.8698276932295272,-4.215656139092147,0.6509933384640515,3.5856556074875083,-2.3335429305808195,-3.5780612040011093,10.36339349480878,-102.88179387295533,62.241531,39.85359735919668,0.0,62.24153100000001,0.8048187554834759,0.4849079,-0.14310005,0.31089142,1.0,0.0,0.0,0.0,72.81448964302612
3.2657,46.2261,-0.7345830400582611,-1.1774648033170265,-5.622842333238944,0.29673928656271,3.6925535234667506,-1.8085275050311458,-6.654526269822618,12.68687092183211,-100.88033594876492,57.395267,34.86863435257515,0.0,57.39526699999999,0.8151661509462369,0.49527511,-0.13471957,0.268435,1.0,0.0,0.0,0.0,70.79241233934296
3.2887,46.2461,-1.5452748170871577,-0.1513441176926975,-6.798280770265334,-0.20819112575310222,3.748762509053173,-1.1989604967898426,-10.372209939252592,13.195783804296312,-98.85427700140632,51.416233,29.816158096653687,0.0,51.416233000000005,0.827281569922883,0.49916086,-0.11762207,0.22936584,1.0,0.0,0.0,0.0,68.35901236566508
3.3099,46.2662,-2.5558199370135526,0.9539437055720581,-7.624312529299141,-0.8656799226831908,3.7566568163825957,-0.6161345351407694,-14.770331474194975,12.597330185227683,-96.61251785286265,46.371655,25.66538850810128,0.0,46.371655000000004,0.8356481437428142,0.50156718,-0.08808278,0.20582509,1.0,0.0,0.0,0.0,66.63322443058564
3.329,46.2861,-3.743512601532262,1.749058605895525,-8.139265654928769,-1.6125865858049684,3.652802940196209,-0.2301450942575527,-19.51405913108205,10.01839877555308,-94.1694243554854,41.786865,22.519893599781703,0.0,41.786865000000006,0.8429503067255999,0.49813321,-0.04738921,0.19761667,1.0,0.0,0.0,0.0,65.09402256886587
3.3481,46.3062,-5.073827389776799,1.9488619819239184,-8.44166585016617,-2.309507558296201,3.454071364281379,-0.019641906021759636,-23.768882458535394,6.749107537809259,-91.4699039980717,36.26585,19.54903110673981,0.0,36.26585,0.851218052378576,0.48943537,-0.00753562,0.18927245,1.0,0.0,0.0,0.0,63.31120071783943
3.3656,46.3262,-6.537911496957882,1.6471772721704485,-8.629512625985264,-2.8569433883880704,3.2533218642610855,0.11584938031971292,-26.71264500230267,3.488717567022814,-88.82338064951209,28.876743,16.149535542462452,0.0,28.876743000000005,0.8642643710828384,0.47343779,0.0200507,0.16882454,1.0,0.0,0.0,0.0,60.40237618502013
3.3891,46.3461,-8.250600885843683,0.9336917310736275,-8.59362924409097,-3.3291571910135604,2.999705581847156,0.33052479385624256,-29.37897590276762,0.12045968976712373,-86.163268068104,21.566631,12.789038252632587,0.0,21.566631,0.8785077619090037,0.45266211,0.04448696,0.14608914,1.0,0.0,0.0,0.0,57.07424750781387
3.4053,46.3661,-10.066639183933022,-0.06068326729710671,-7.773022449847491,-3.712064754284927,2.57602985563981,0.781805444631307,-34.78921751518824,-3.6722822384806832,-82.40146073253614,13.668059,8.679574826663828,0.0,13.668059,0.8900663606147455,0.43024173,0.0861408,0.12350583,1.0,0.0,0.0,0.0,54.23682617923116
3.4255,46.386,-11.443569263468943,-1.180559729592293,-5.9206528692844005,-3.913679220151023,1.8923946712543664,1.3518185763827302,-41.518819764957215,-8.979048861380289,-77.47195298271009,6.984562,4.908872836686398,0.0,6.984562000000011,0.8989331819176678,0.40015063,0.14195511,0.10792291,1.0,0.0,0.0,0.0,51.96361768124599
3.4459,46.4061,-11.713504389636178,-2.192643111340942,-3.3482091086676604,-3.8616918691061635,0.958110564729604,1.848339082340068,-46.969791241522465,-15.130948878622256,-72.27561678835204,3.394947,2.69066010707386,0.0,3.394947000000002,0.904820148145474,0.36368588,0.19636141,0.1023488,1.0,0.0,0.0,0.0,50.401858153366
3.4668,46.4261,-10.563393666472324,-2.9234504103650942,-0.5983815065873728,-3.5482036980679688,-0.14046988360157786,2.1487011107481386,-49.896721977258025,-20.942085991224364,-67.85890284890826,2.755238,2.439414529313049,0.0,2.7552379999999914,0.9084155833616272,0.32641557,0.23872942,0.10602956,1.0,0.0,0.0,0.0,49.42538595602732
3.4858,46.4462,-8.31009084606573,-3.281141866386663,1.900172263129777,-2.9973917316897882,-1.25651929946329,2.196517330253301,-49.30155853892711,-26.002174200034723,-65.04573608435439,4.605608,4.437741064510261,0.0,4.6056079999999895,0.913097961548776,0.28940246,0.26167619,0.11842255,1.0,0.0,0.0,0.0,48.125919520215064
3.5054,46.4662,-5.547601547157201,-3.101504793356539,4.1418678590327875,-2.191904540432697,-2.208867582391448,2.0947984973964626,-45.387897412341516,-29.82836230681731,-62.999141002939005,7.525599,7.670957585698714,0.0,7.525599,0.9203152827427394,0.25218374,0.26762235,0.13342196,1.0,0.0,0.0,0.0,46.05556456073602
3.5258,46.4861,-2.8415724180344135,-2.3839652258998507,6.042131850052801,-1.128723053896568,-2.895784607063008,1.9845525843979832,-38.11913392467032,-31.46459919190396,-60.47764171634384,10.844543,11.392663855292126,0.0,10.844542999999987,0.928349183571722,0.21730611,0.26160803,0.15002362,1.0,0.0,0.0,0.0,43.64214413066521
3.5461,46.5062,-0.6405559710550652,-1.357830339330997,7.301062775929388,0.08559034767267171,-3.278601079678908,1.9490943161214642,-27.412455982659218,-29.114744538150077,-56.76231921138437,14.27571,15.01553800951985,0.0,14.275710000000004,0.9354409367007976,0.19266655,0.24385619,0.16841619,1.0,0.0,0.0,0.0,41.40100306138752
3.5658,46.5262,0.9446985435343245,-0.38129927180301504,7.707230730744435,1.2657753061794095,-3.377880393395911,2.0363006339278398,-14.203945955969719,-22.216218827692067,-51.161172606680914,18.08913,18.568982822929296,0.0,18.08913000000001,0.9396537158697514,0.1850957,0.214783,0.19146472,1.0,0.0,0.0,0.0,40.01303279546948
3.5875,46.5472,2.2177125520947802,0.5700814997105628,7.315610781191939,2.202772167738055,-3.2358417376080624,2.2817383922968517,-1.5732614990715224,-13.035471619137212,-43.23823373207675,22.17272,21.96835937744309,0.0,22.172719999999998,0.9396597292461998,0.19244708,0.18098564,0.21736585,1.0,0.0,0.0,0.0,40.01101863468832
3.6083,46.5671,3.377718603188283,1.6110012624337227,6.412949795865014,2.7694902085724706,-2.9134854572025572,2.617771365553376,7.715105106701756,-4.680645777524685,-34.64114982390253,27.154812,25.89689915551015,0.0,27.154811999999993,0.9335920412335552,0.2101815,0.14813864,0.24956879,1.0,0.0,0.0,0.0,41.99628592082538
3.6266,46.5872,4.274937826747708,2.8570926542867943,5.374098677377686,2.9043131144288665,-2.4808130021885453,2.942812941235405,12.749850243351702,0.7846994471598077,-27.592857411588746,33.05751,30.435532682563434,0.0,33.05751000000001,0.9223596427452544,0.2305702,0.11779384,0.28673103,1.0,0.0,0.0,0.0,45.452958999426066
3.6499,46.6072,4.655939943326899,4.104948365281809,4.425096118756006,2.6853977241592895,-2.0232787183050274,3.117811065446622,14.435164317811452,3.242211047871576,-23.292364868813653,39.64959,35.4715513383818,0.0,39.64958999999999,0.9068937694680422,0.24939273,0.09093438,0.32722759,1.0,0.0,0.0,0.0,49.840875801246
3.6667,46.6271,4.494164052085913,5.123716116300638,3.480396495502914,2.3336957841728987,-1.5903780790979898,3.036673875422124,14.120668815457684,3.341999557686357,-21.771390106127956,46.112991,40.562298356942826,0.0,46.112990999999994,0.8891250180551911,0.26245388,0.07338371,0.36768124,1.0,0.0,0.0,0.0,54.472995681281546
3.6866,46.6472,3.881640000443567,5.592582560563302,2.4455185323828736,2.0487479892909355,-1.2493330966241727,2.69380824291578,13.147570331727628,1.985932845984312,-22.09507047831975,51.719887,45.112889542827844,0.0,51.719887,0.8720546828826036,0.27038831,0.0618474,0.40321916,1.0,0.0,0.0,0.0,58.60341613152116
3.7073,46.6671,3.081006503931409,5.391834594703664,1.3466897578210517,1.9658220010491716,-1.044214342117228,2.158638770641165,12.287875466592181,0.09188409073107806,-23.18059358992295,56.260242,48.711520317902284,0.0,56.260242000000005,0.8573482171025523,0.27776685,0.04908394,0.43056983,1.0,0.0,0.0,0.0,61.95973587728393
3.7266,46.6871,2.3876455194096895,4.835314844645,0.21944882285951195,2.144836864342095,-0.9549369603339569,1.5256974094414986,11.667091971042604,-1.7105876419470452,-24.407942925694798,59.919594,51.39584573592664,0.0,59.91959399999999,0.8446515606701497,0.28709191,0.03464891,0.45049021,1.0,0.0,0.0,0.0,64.73075462830413
3.7473,46.7072,1.9695355470500413,4.259311951663009,-0.7922380937168754,2.5375906771689967,-0.9680311854238558,0.8586125062874432,11.172417679046045,-2.986603901358805,-25.533499019432103,63.155037,53.299196058486395,0.0,63.15503699999999,0.8320816563186142,0.30244824,0.0190365,0.46454579,1.0,0.0,0.0,0.0,67.37365592917925
3.7685,46.7281,1.8263199936649097,3.838613028421181,-1.4662165765701083,3.02323835074235,-1.047863516531308,0.18764389900621925,10.698488021656004,-3.5841883347247983,-26.51984738629702,66.360016,54.539239227199644,0.0,66.360016,0.8181643258814987,0.32595733,0.00165352,0.47366256,1.0,0.0,0.0,0.0,70.19708865953065
3.7875,46.7481,1.7481458927494677,3.548418344044997,-1.6426020252742006,3.4667913289400967,-1.128069312118479,-0.40432439690890654,10.47292976504785,-3.837056358703146,-27.25305902563546,69.403564,55.45742740614733,0.0,69.40356400000002,0.8044391749616527,0.35105595,-0.02183023,0.4787074,1.0,0.0,0.0,0.0,72.88774384549423
3.8073,46.7681,1.4627783218756427,3.0414679650199523,-1.3685393215011246,3.7837983648431632,-1.13873335696873,-0.8046136448097543,10.710429747466321,-3.692493161634726,-27.732827905574496,72.410095,56.43747813352358,0.0,72.41009500000001,0.7897575717552552,0.37754196,-0.05924422,0.47982827,1.0,0.0,0.0,0.0,75.6742760627283
3.8279,46.7881,0.8761932905611847,2.170135911169705,-1.116150822940721,3.946357619142833,-1.0817519349996023,-0.957833501281139,11.094958117805966,-3.3411018697884423,-28.127337044164786,74.672218,57.09595880808973,0.0,74.67221799999999,0.7749921774661426,0.40575939,-0.10840718,0.47222275,1.0,0.0,0.0,0.0,78.39135327686286
3.8476,46.8082,0.18912353250150948,1.4462112723924854,-1.44699109247723,4.0228995155027025,-0.9888709868434926,-0.9321640403161844,10.931703422270296,-3.4848292183808933,-28.69782698401704,75.92646,57.16490525557005,0.0,75.92646000000002,0.762967255106145,0.43012527,-0.14714949,0.45958704,1.0,0.0,0.0,0.0,80.54702503039381
3.8694,46.8282,-0.3851014276148783,1.2665626474622482,-2.382200215745664,4.163486263776935,-0.8954215660324348,-0.8333957702888668,10.336762337882906,-4.043374898548538,-29.460365361592054,77.269295,57.089296522545105,0.0,77.269295,0.7516632081722411,0.4511506,-0.16953646,0.45024765,1.0,0.0,0.0,0.0,82.53068753954655
3.8884,46.8481,-0.7125555934733758,1.6350780906303393,-3.5361587315961387,4.476973622748936,-0.857710644885331,-0.7616263235836715,9.938149943778216,-4.386798119011494,-30.312271934060426,79.335167,57.24569353604822,0.0,79.33516700000001,0.7367504029810233,0.47428584,-0.18861248,0.44348294,1.0,0.0,0.0,0.0,85.08933891918596
3.9099,46.8682,-0.6798162158241623,2.4485707597031356,-4.3989747430855255,4.9800064489864715,-0.8797778742687934,-0.7801711120911965,10.169450584134127,-4.115591010072489,-31.213618792223322,82.075165,57.80007998864507,0.0,82.07516499999997,0.7157985591851391,0.50180256,-0.21454236,0.43565834,1.0,0.0,0.0,0.0,88.5826354766209
3.9275,46.8882,-0.21240191404206366,3.451818130986803,-4.561983643096814,5.629749079975118,-0.8924715106384178,-0.937220307655187,10.844145999519439,-3.182614052817976,-32.18253998499644,85.253502,58.37151887536458,0.0,85.25350200000003,0.6888301623636978,0.53482229,-0.24624299,0.42289776,1.0,0.0,0.0,0.0,92.92484544738275
3.9483,46.9081,0.5627028570159478,4.2433852448824165,-3.9552561419976113,6.382285888316954,-0.8017070463250567,-1.1817598939557739,11.750264096316666,-1.8379470728598395,-33.098622338188775,88.69828,58.926421932973895,0.0,88.69828000000001,0.656278529045694,0.57116461,-0.28104591,0.4050712,1.0,0.0,0.0,0.0,97.96666792768055
3.969,46.9291,1.362880104325591,4.408755733018062,-2.829827180650609,7.200111837826616,-0.5973553542005141,-1.3517754077092254,12.872243472051965,-0.19218893771683876,-33.76283275042488,92.121986,59.86321272914208,0.0,92.12198599999999,0.6161364797559599,0.60898608,-0.32309213,0.38095048,1.0,0.0,0.0,0.0,103.93090916008907
3.9889,46.949,1.889870433948006,3.89683732849659,-1.7069159856292018,8.027449670303154,-0.32053870103431004,-1.325712599321422,13.91155915553878,1.3115867419138105,-34.16072512712498,95.206001,61.086304415438335,0.0,95.20600100000001,0.5700197791912899,0.64551109,-0.36772624,0.35095626,1.0,0.0,0.0,0.0,110.49678994345432
4.0112,46.9692,2.0025632692290696,2.994639553211408,-1.0589504204327511,8.774634475376272,0.03530405219532895,-1.0767932349363591,14.485146501518598,2.733354324243698,-34.44348648968961,98.679756,62.011287248433085,0.0,98.679756,0.5170130878401822,0.68361473,-0.40657097,0.31633592,1.0,0.0,0.0,0.0,117.73578449242146
4.0286,46.9891,1.8154677266536035,2.0823764176379864,-1.0842612077327143,9.347985803639977,0.2606763815560178,-0.56645851603743,14.69088135654541,4.148295420279021,-34.59117228581102,102.15406,62.7784759539722,0.0,102.15406000000002,0.4559310430981801,0.72168803,-0.44314006,0.27371547,1.0,0.0,0.0,0.0,125.7502896119766
4.0491,47.0091,1.535571839369321,1.6288595370819308,-1.6813600149222037,9.685784930012618,0.21624227186591805,0.13057230024224253,14.599339751373673,5.569710933877116,-34.60247329195548,105.628021,63.39496355898662,0.0,105.62802099999999,0.3861945447118303,0.75808394,-0.47522917,0.22432064,1.0,0.0,0.0,0.0,134.56416180322577
4.073,47.0292,1.2836857745936996,2.0297129667512737,-2.485694219690198,9.784122145415983,0.0436641932632571,0.8777155208838336,14.324628914377156,6.664913422801092,-34.54907857778899,109.844635,63.11769750011349,0.0,109.84463499999998,0.3120249893150453,0.79288399,-0.49165887,0.17957433,1.0,0.0,0.0,0.0,143.637383590268
4.0888,47.0491,1.1023501704277723,3.105939448281963,-3.0771962218148525,9.69500584879289,-0.2704764536154878,1.5490295858093588,14.179403402101618,7.356750829871922,-34.441413369488465,114.405197,61.94050149743563,0.0,114.40519699999999,0.234350966009902,0.82478702,-0.49485427,0.14115682,1.0,0.0,0.0,0.0,152.8932649192855
4.1088,47.0691,1.050704314231592,4.393349646014315,-3.1356499180034083,9.477429108779276,-0.8398885848389996,1.9724359799420252,14.24136810745132,7.9229870872078205,-34.323547180748506,118.271515,60.500181753327844,0.0,118.27151500000002,0.1505361625786866,0.85056901,-0.49333146,0.10244654,1.0,0.0,0.0,0.0,162.68400153345763
4.1334,47.0892,1.0141346508619544,5.518041443867525,-2.5302078794607814,9.170973072557663,-1.4478566493739362,2.1130760248169325,14.565033745160054,8.460025490364334,-34.23913526172937,121.6119,58.466739023936455,0.0,121.61189999999999,0.0613543443337781,0.87022328,-0.48412621,0.06759364,1.0,0.0,0.0,0.0,172.96489153809284
4.1488,47.1091,0.8791105225925762,6.090334699064512,-1.3784584669256237,8.802603250652073,-1.9586406107660728,2.0523635440829935,15.321197051625209,8.911959007693204,-34.14398879887243,124.180061,55.88150742851094,0.0,124.18006100000002,0.0314101954183501,-0.88206619,0.46833733,-0.04040769,1.0,0.0,0.0,0.0,176.4000646225395
4.1707,47.1291,0.7825643580030999,5.812790241413658,-0.030895525810150204,8.418436348199204,-2.346858065217418,1.7692794737733988,16.014728734954552,9.270150241354646,-34.220592360000445,125.363564,53.22583478976754,0.0,125.363564,0.1231238265997917,-0.88395196,0.45084602,-0.01439868,1.0,0.0,0.0,0.0,165.8551559751603
4.1893,47.1492,0.6362013898175691,4.829918358284632,1.018392726505681,7.997287647427245,-2.587024017817261,1.5477588265725242,16.96743240696625,9.08601017432961,-34.37977509599091,125.153328,50.677262054647564,0.0,125.15332799999999,0.2091881688947841,-0.8763814,0.43381003,0.00219308,1.0,0.0,0.0,0.0,155.85043775903654
4.2098,47.1691,0.49491904633557393,3.4421418611033925,1.5079617036230282,7.523706361132875,-2.751810257354815,1.4542369628909841,17.940606089354393,8.518457682958834,-34.59049769737738,123.529266,48.25991846300594,0.0,123.529266,0.2893203429632479,-0.86079299,0.41853666,0.01249927,1.0,0.0,0.0,0.0,146.36545934420113
4.2312,47.1892,0.46347170589228615,1.9893111411029643,1.4403404877865924,7.016838058367011,-2.8465715778952845,1.407824868899525,18.499590419298166,8.237602579502362,-34.80749347138349,120.822685,45.49083308810888,0.0,120.82268499999998,0.366011060417203,-0.83982855,0.40013278,0.02485294,1.0,0.0,0.0,0.0,137.06036332386844
4.2516,47.21,0.5776583952471812,0.9760069615381188,0.9624591134135372,6.5009277502151726,-2.85995890014948,1.4367463580849058,18.886573279755346,7.825363347020514,-34.94435731026895,118.309357,41.80531348528962,0.0,118.30935699999998,0.4330418489143059,-0.81966424,0.37331331,0.03553116,1.0,0.0,0.0,0.0,128.67848202440106
4.2707,47.2302,0.9562741473389691,0.4075905759584364,0.3307511518447086,5.99172648126917,-2.8780209126682443,1.4866577366862685,19.40950624436829,7.096661615894401,-34.86959256188695,116.042343,37.45592386886941,0.0,116.04234300000002,0.4911165250398693,-0.80089533,0.33994901,0.04249588,1.0,0.0,0.0,0.0,121.17201205138439
4.2909,47.2502,1.7789975030927412,0.07227188594158385,-0.297299650941266,5.472991765660618,-3.0411513512008295,1.4337791797028032,19.777697430251692,5.7757961290725985,-34.85028720355676,112.38765,33.85388336410318,0.0,112.38765000000001,0.5402847402225985,-0.78005266,0.3121829,0.04639056,1.0,0.0,0.0,0.0,114.59395110058504
4.3099,47.2702,0.8649445043193389,2.657534029780714,-0.8050942324795951,4.372017891128633,4.015943762873453,1.2926719011193792,0.5496279573172499,20.550108689630413,-34.807713049206654,-176.242889,-3.3924371684209915,0.0,176.242889,0.4309771444796183,-0.77242166,-0.24363865,0.39782369,1.0,0.0,0.0,0.0,128.94082364226094
4.3345,47.2902,1.0836247115277404,3.4360918776176375,-1.0722528908966442,4.259813939081311,3.6796265430166626,1.077204037834941,0.48977962219709836,20.88071859414753,-34.57608711620907,-178.374313,-1.5154624811990967,0.0,178.374313,0.4526490608671329,-0.72661299,-0.27937117,0.43484956,1.0,0.0,0.0,0.0,126.17245520858383
4.3504,47.3102,1.2948689274766585,3.7311528204517446,-1.0590018997583925,4.312319397852395,3.0684468264176683,0.7312189835676408,1.310472090118124,21.576643328756823,-34.13403645805204,174.576462,4.64913164867294,0.0,174.576462,0.4858464701820381,-0.68406099,-0.29871827,0.45473197,1.0,0.0,0.0,0.0,121.86410854781053
4.3732,47.3302,1.0495809112014318,3.659353606445962,-0.8186191960253666,4.111805004792046,2.650193846780738,0.2071809359076393,1.042214448854308,22.56106148300112,-33.56925609204334,167.297211,10.612832001930467,0.0,167.297211,0.5061373835150157,-0.63300633,-0.33678237,0.47927609,1.0,0.0,0.0,0.0,119.18623288322587
4.3899,47.3502,0.5952946274527267,3.3097550097151487,-0.4396425578263621,3.875092359001692,2.145104594793698,-0.48823201630947166,1.7661319876800223,23.61938833253279,-32.946790050224024,153.075394,18.078955086536606,0.0,153.07539399999996,0.5315711689236486,-0.58998489,-0.36531359,0.48569116,1.0,0.0,0.0,0.0,115.77665205839024
4.4105,47.3702,-0.15711882906169572,3.1055977436187225,-0.05603256158214798,3.4555669157507674,1.9281340516954177,-1.3311934332280353,1.59557306272177,24.490474752884875,-32.533733752633125,131.355728,28.66275340383128,0.0,131.355728,0.5418745553583116,-0.54464859,-0.40365326,0.49678358,1.0,0.0,0.0,0.0,114.37732130057188
4.431,47.3901,-0.6075619720260355,3.345085385474021,0.24616412211410577,3.0739765629761773,1.7375853064624807,-2.26833897880167,1.641551214235455,24.625941160992024,-32.70054433646516,101.983322,42.116003054936655,0.0,101.98332199999999,0.5532812397428398,-0.51067227,-0.42548922,0.50204843,1.0,0.0,0.0,0.0,112.815175482363
4.4498,47.4101,-0.4924550101212488,3.917322687888211,0.49242214892884206,2.7930013094390165,1.5520304282582522,-3.1717144126499153,1.5398247036336512,24.169106767557814,-33.325777491662436,82.606537,52.86128833679094,0.0,82.606537,0.5666196414094543,-0.48551902,-0.43436357,0.50452131,1.0,0.0,0.0,0.0,110.97032429056183
4.4698,47.4302,0.2742597486181262,4.221459817897509,0.7836678030151436,2.63311273677502,1.386384884860287,-3.9302057378024697,0.8410491639486795,23.836378632219795,-33.834078180233796,70.041275,60.466442300863406,0.0,70.04127499999998,0.583577466411005,-0.46017876,-0.43929365,0.50467211,1.0,0.0,0.0,0.0,108.5948840362262
4.4906,47.4501,1.715246726162971,3.7256003320072253,1.1152042418376844,2.653849476550067,1.0751320288111685,-4.494606111824058,0.960215615774195,23.825558121194288,-34.009956281339484,57.785034,53.704868586227754,0.0,57.785033999999996,0.6162326857751799,-0.44518918,-0.43257469,0.4847092,1.0,0.0,0.0,0.0,103.91691173389714
4.5099,47.4702,3.081499056620706,2.260544272464647,1.3934160820025099,2.7826470597945274,0.7498705752744537,-4.827313774858172,1.3124203290466365,24.29179694234096,-33.74631529711367,45.371555,45.42659043454688,0.0,45.371555,0.6482353486911753,-0.43176275,-0.43200022,0.45469514,1.0,0.0,0.0,0.0,99.18262703643838
4.5307,47.4902,4.060538871491771,0.3315850218350791,1.503936280482531,2.9914246760124827,0.3482512580525995,-4.939859164084537,2.097075173119439,24.707205596177268,-33.3936194717995,33.449955,35.264303256397106,0.0,33.44995499999999,0.6756968732659498,-0.42440432,-0.43558547,0.41662934,1.0,0.0,0.0,0.0,94.98342035906553
4.5506,47.5101,4.886122117456921,-1.1370937354793202,1.50704402993129,3.1802604574473126,-0.04864634670840484,-4.909511211523913,1.3630555925520316,24.626361285868057,-33.431616516331104,27.277735,31.869476121441508,0.0,27.277735000000007,0.6881950041813624,-0.41200721,-0.44635984,0.39673743,1.0,0.0,0.0,0.0,93.02520579859197
4.5733,47.5302,5.632515959500369,-2.345783212502533,1.672630541901313,3.345480995249515,-0.6591043368190443,-4.820951221774066,0.8671185815677775,24.214930112917244,-33.71123157566955,21.047104,25.060765943337174,0.0,21.04710399999999,0.7050737827830643,-0.40770173,-0.44873795,0.36781043,1.0,0.0,0.0,0.0,90.32898968543648
4.5908,47.5501,6.001723326703979,-3.384504138308235,2.2487414721256354,3.5095637423297923,-1.2865182508350799,-4.763183851314564,0.20645786799425458,24.100926880767595,-33.8691911254729,14.358945,18.068977713138214,0.0,14.358945000000006,0.7198656464549801,-0.40028712,-0.45738676,0.33520296,1.0,0.0,0.0,0.0,87.91322185047063
4.6118,47.5701,5.552377797869377,-4.454183552947519,3.2735617458689106,3.6713719639383773,-1.9194622397155379,-4.7844058623568255,0.26470308248312335,24.205071958917916,-34.016198954985875,5.726923,7.64886932340126,0.0,5.726922999999999,0.7322373416931325,-0.39616707,-0.47163293,0.29058993,1.0,0.0,0.0,0.0,85.85142462046865
4.6304,47.5902,4.061392143667894,-5.5102215591057675,4.452907694161187,3.7885875682433507,-2.5744803038560162,-4.821262249613141,1.644896746916241,24.15312900425208,-34.38775361438675,-5.345723,-7.175624989206167,0.0,5.3457229999999925,0.7409590688420217,-0.40347549,-0.48576164,0.22852312,1.0,0.0,0.0,0.0,84.37364455309566
4.6501,47.6102,2.670767165150809,-6.247955030388207,5.186668782749024,4.0391667598119625,-2.8269338337137344,-4.835805873737321,1.4244180821627177,24.326923377966725,-34.732387093048686,-11.515034,-17.21344152262011,0.0,11.515034000000014,0.7413618480165675,-0.39336374,-0.5110231,0.18574975,1.0,0.0,0.0,0.0,84.30489261314182
4.6701,47.6301,1.7063150916743872,-7.0642891365790845,5.212012865521492,4.14114146588647,-3.0763046770553926,-4.796052188063513,1.1424426167827324,24.57256984383701,-35.01508168036697,-17.005566,-26.309925204234414,0.0,17.005565999999988,0.7466652886282885,-0.38551649,-0.52511376,0.13462363,1.0,0.0,0.0,0.0,83.39533059623238
4.6928,47.6501,1.4581834355403807,-8.05789964597592,4.577218734181356,4.156646791491705,-3.252674901245558,-4.752038596200627,0.4887002008624908,25.268529254394792,-34.886903819879194,-21.224545,-34.19176231737943,0.0,21.224545000000006,0.7527701126176743,-0.37022591,-0.53826731,0.08085936,1.0,0.0,0.0,0.0,82.33818650993926
4.7107,47.6702,1.5504263788897594,-9.104600795247745,3.67646384395956,4.1261945610140485,-3.3717479076179124,-4.784512889957363,-0.058181674294754515,26.224323422316903,-34.40018980385125,-24.977287,-42.66389333962047,0.0,24.97728699999999,0.7545901854518087,-0.34869206,-0.55539262,0.02337813,1.0,0.0,0.0,0.0,82.02085208886555
4.7316,47.6902,1.1749876549750908,-9.881210652243144,3.10642143507334,3.9543345106527736,-3.6169589735366325,-4.938293660522794,0.30620199485715105,26.637150439253258,-34.17006112707388,-30.503725,-52.03595871205886,0.0,30.503725000000003,0.749093868134559,-0.33904418,-0.56738883,-0.04446725,1.0,0.0,0.0,0.0,82.97610638926525
4.7498,47.7101,0.23364398167341616,-10.254843241950311,3.0008975448721706,3.8921882982586173,-3.778004622824587,-5.1727863729919195,0.27264329127086384,26.396971122126896,-34.342767869807545,-35.211689,-60.492416019482334,0.0,35.21168900000001,0.7366852136555911,-0.33033374,-0.58088213,-0.10368446,1.0,0.0,0.0,0.0,85.1003861580597
4.7697,47.7302,-1.7649946345339895,-10.310889023179957,2.9074189552914955,3.9053429010111156,-3.9546843704643653,-5.3900874548873,0.6599453976135408,25.91202467706271,-34.605003689229875,-40.717525,-68.63933765001644,0.0,40.717524999999995,0.718350600067463,-0.32677442,-0.59060365,-0.16845837,1.0,0.0,0.0,0.0,88.16305941319979
4.7899,47.7502,-4.322830777333361,-10.014732739825131,2.279769064392868,3.9246480055687014,-4.148016713503195,-5.544184485453181,1.0560367312564694,25.632167857798436,-34.59834805114789,-46.587223,-75.73700765806626,0.0,46.587222999999994,0.6976989578240256,-0.32287174,-0.59329367,-0.23868939,1.0,0.0,0.0,0.0,91.51463727225483
4.8105,47.7701,-6.557492973547535,-9.439537659079758,0.9635077439074173,3.9572196727853726,-4.283522263703156,-5.617517531182372,0.7818038075845255,25.732314554389923,-34.182685862140296,-51.3801,-81.992216519781,0.0,51.3801,0.6780444865665849,-0.30842561,-0.59316349,-0.30542821,1.0,0.0,0.0,0.0,94.61795865792492
4.8298,47.7902,-8.250594547823736,-8.424023745889443,-0.7663245644714447,3.865952401969974,-4.470890786494312,-5.612088337700605,0.5562258450870701,25.845587175619205,-33.58912815132181,-56.440411,-88.34282529823696,0.0,56.440411,0.6536473584242258,-0.29116604,-0.5904631,-0.37325701,1.0,0.0,0.0,0.0,98.36567017918424
4.8498,47.8102,-9.225943662253066,-6.923306569036368,-2.509134861401865,3.677809382759522,-4.698935854061064,-5.527472195805296,0.637488573979816,25.508208735515726,-33.2082252889637,-61.837654,-95.41126133275293,0.0,61.837654,0.6194970322086433,-0.2741141,-0.59026831,-0.43893987,1.0,0.0,0.0,0.0,103.44117120520379
4.871,47.8301,-9.162512155810035,-5.441346213139129,-3.838556483762604,3.5521631470202273,-4.756541939594504,-5.4411918548730975,-0.1853011353070665,24.78895864359433,-33.093108518532944,-65.818626,-102.02464831520156,0.0,65.818626,0.5867198518300684,-0.25047648,-0.59317219,-0.49108869,1.0,0.0,0.0,0.0,108.15083439113444
4.8916,47.8501,-8.422220046612312,-3.5716968982942676,-4.229332138558112,3.0989735994667917,-4.9304600792631055,-5.345689039347221,-1.2653704399809804,23.31121909196612,-33.563847611154166,-72.346375,-107.03777265348054,0.0,72.346375,0.5468197689808658,-0.25412181,-0.58536291,-0.54199678,1.0,0.0,0.0,0.0,113.7017835841829
4.9104,47.8702,-7.28038280951694,-1.7755113312810367,-4.146613550528652,2.467286968918896,-5.137066237562692,-5.186735173177767,-1.600107353529209,22.06117258373618,-33.98922916343916,-82.379196,-112.26822852650606,0.0,82.379196,0.4881450969367616,-0.27728802,-0.56754386,-0.60226214,1.0,0.0,0.0,0.0,121.56252614865392
4.9298,47.8901,-5.954218749330421,-0.6937585995920286,-3.931328512491592,1.9346043827984114,-5.291225458242262,-4.951446091100136,-2.0425154313158878,21.271619498236166,-34.237891684792935,-93.423744,-117.53837945376848,0.0,93.423744,0.4205157186307136,-0.30393896,-0.54468912,-0.65886372,1.0,0.0,0.0,0.0,130.2656975182722
4.9514,47.9101,-4.832382998740424,-0.09329618780452004,-3.927564958055955,1.4174780318932443,-5.474129167027779,-4.673805615865061,-1.8338994915630877,21.101020838867946,-34.23162948923936,-106.394402,-123.7760135454263,0.0,106.394402,0.3373099707560935,-0.33246484,-0.51473373,-0.71465957,1.0,0.0,0.0,0.0,140.57386511349438
4.9713,47.9302,-3.8659114747255954,0.13028827923094805,-4.193538757657501,1.1009029544443711,-5.605001690610397,-4.409875069635266,-1.9620295992170007,21.33333782246035,-33.97905446925273,-118.330711,-130.5707066552775,0.0,118.330711,0.2586844334335863,-0.34710166,-0.4860504,-0.75918233,1.0,0.0,0.0,0.0,150.01596921072445
4.9988,47.9501,-2.7846143172983155,0.2358459759338445,-4.537025579892781,0.8054296557935805,-5.619732913171542,-4.2435656176648315,-2.0297739305604168,22.085781184063677,-33.36376843564382,-130.604492,-138.34671709422182,0.0,130.604492,0.1820739231766489,-0.35213661,-0.4532328,-0.79839146,1.0,0.0,0.0,0.0,159.0188333454322
5.0099,47.9702,-1.4478169158574914,0.20421019404501806,-4.699059686561808,0.464822345637406,-5.457683095582,-4.160710772637017,-1.5678640666144048,23.139146813405233,-32.52490828626759,-144.077774,-147.93347843339697,0.0,144.077774,0.1010639062614949,-0.35059172,-0.41537213,-0.83326918,1.0,0.0,0.0,0.0,168.39912357682223
5.0544,47.9902,0.06559110139054547,-0.013133873548668795,-4.501752864385564,0.3525007674938958,-5.156415653094223,-3.9997578645631906,-1.1175890554968078,23.747480900523446,-32.00269991767275,-156.664719,-158.70914316039597,0.0,156.664719,0.0253555363810706,-0.33443949,-0.38639688,-0.85918844,1.0,0.0,0.0,0.0,177.0941581368956
5.0569,48.0101,1.8526867385313408,-0.4065234411916654,-3.9005846822791614,0.2954361498739733,-4.747013176528086,-3.6930581281714145,-1.264404460243953,24.15982685056362,-31.696038101193622,-168.159592,-168.93456871889992,0.0,168.159592,0.0443371667310089,0.32162377,0.36048007,0.87444067,1.0,0.0,0.0,0.0,174.9176688852915
5.0707,48.0302,3.796486328471613,-1.2133682671315116,-3.006509813875507,0.1637849589316533,-4.216744098750658,-3.203496840211451,-1.0998837955801894,24.937055135786537,-31.247581972469607,179.809265,179.8115326174907,0.0,179.80926499999998,0.1205981329508209,0.32045805,0.32748106,0.8806355,1.0,0.0,0.0,0.0,166.14675244607605
5.0956,48.0502,5.286730464104312,-2.1612680766965426,-1.609765778682016,0.2909233708587326,-3.5947156699621123,-2.4280375202597706,-0.19907679026187886,25.345684384416906,-31.216818877780273,167.828583,167.7741361976248,0.0,167.82858299999998,0.1947452299437888,0.30436233,0.30154768,0.88233036,1.0,0.0,0.0,0.0,157.54031795384478
5.1099,48.0701,6.010004002109157,-2.3859233378510636,0.4189743287239729,0.7671359786753265,-2.7404301554810884,-1.5166003095463134,-0.44258620929663905,25.360598156272815,-31.54381997282274,160.223648,160.8689157467006,0.0,160.22364800000003,0.2331320125762815,0.26644024,0.29015443,0.8890835,1.0,0.0,0.0,0.0,153.03692629997371
5.1304,48.0902,5.654981887381356,-2.1265551747920894,2.7081202155567965,1.123092479316936,-1.599065212918931,-0.7485309154899304,-0.4855870279428256,25.65479492901734,-31.62010223048102,154.218811,155.42270574875172,0.0,154.21881099999996,0.2631450806475355,0.23300079,0.27255523,0.89564443,1.0,0.0,0.0,0.0,149.48647545026958
5.1514,48.1102,4.623324703220234,-1.3963416691247303,4.698619889541874,1.297414715140116,-0.27144918330525053,-0.2660149190983311,-1.3801587760966285,26.22444372673847,-31.334687715007654,151.862656,153.08102727777913,0.0,151.86265600000002,0.2731841037982755,0.21183135,0.25320512,0.90354031,1.0,0.0,0.0,0.0,148.29234441668214
5.1716,48.1301,3.758642142901176,-0.9232544292384031,5.8960010036464965,1.255628353961497,0.9597487898399484,-0.0443157247600755,-1.7592627184777179,27.13542276511762,-30.595759361564316,149.290771,149.46932420400336,0.0,149.290771,0.2944769780932273,0.22245227,0.22817104,0.90096408,1.0,0.0,0.0,0.0,145.7476453063016
5.1913,48.1501,3.693015635158444,-0.956275358835768,6.015768820619478,1.2189298322824431,1.9460865786661117,0.09949612864052182,-1.1655025867283797,28.177168915392258,-29.594460772918588,145.466263,143.16844528082007,0.0,145.46626300000003,0.3317075378444799,0.26183242,0.20038751,0.88388842,1.0,0.0,0.0,0.0,141.25510220642283
5.212,48.1701,4.042700914798871,-0.8931139086612854,4.996478007859199,1.189226062548649,2.7694178734795942,0.262659543962094,-1.1924322751794776,28.164320896284146,-29.448224935989302,143.814362,139.08313661810755,0.0,143.81436199999996,0.3527049382834157,0.2994386,0.19183446,0.86552602,1.0,0.0,0.0,0.0,138.69429849723602
5.2323,48.1902,4.057593489633773,-0.8943709261332145,3.0973664177973728,1.2801504673148643,3.4732981880161695,0.4395906905624798,-0.746933274451596,27.269625134632626,-30.119425495526308,142.548721,135.87741827872503,0.0,142.548721,0.3691344503950149,0.32620332,0.19473818,0.84817934,1.0,0.0,0.0,0.0,136.67550699331295
5.2499,48.2101,3.5189701711254777,-1.1104853343064924,0.7465988187103303,1.47200522692626,4.173168891928099,0.6227400175838791,-0.3386985519146677,26.51221150520903,-30.636333661467667,143.179214,134.85742435368465,0.0,143.179214,0.3711796284667633,0.34868836,0.19797014,0.83752608,1.0,0.0,0.0,0.0,136.42322713867404
5.2712,48.2302,2.3946343313694753,-1.26210301967834,-1.6300208077182408,1.6617436056498731,4.947094551814354,0.7326571743407762,-0.2128396755779125,26.20463905415695,-30.75498239452823,146.110001,136.27405233687256,0.0,146.110001,0.3576456790963566,0.37285477,0.20053235,0.83237952,1.0,0.0,0.0,0.0,138.08864133870344
5.291,48.2512,0.7319685663679107,-1.1704411838071465,-3.676211907549189,1.7764678779088483,5.764610954858941,0.6753617202661619,-0.17940964567148043,26.18410379936077,-30.63360145114067,150.402924,138.76218551249264,0.0,150.40292399999998,0.3368439131888438,0.40366071,0.20363601,0.82590955,1.0,0.0,0.0,0.0,140.6305911494441
5.3115,48.2712,-1.2010594266113104,-0.9225279159637645,-5.099351077455037,1.8335214205770822,6.48218806911634,0.47418832369733277,-0.2919001314574263,26.54799273945376,-30.198895769347843,155.641434,140.45491853201747,0.0,155.641434,0.3148064305452575,0.45158133,0.20417863,0.80949509,1.0,0.0,0.0,0.0,143.3017428364592
5.3309,48.2911,-2.9847297633045144,-0.6523506280695743,-5.716795857650531,1.6383863259179474,7.022718034473364,0.1477166225502966,-1.1288235242448348,26.751259196829317,-29.941591782105597,162.834366,144.19687969361001,0.0,162.834366,0.2853964941695283,0.50869405,0.2131785,0.7837947,1.0,0.0,0.0,0.0,146.83489920017988
5.3506,48.3112,-4.203578839192618,-0.4361207657974795,-5.7282951301362,1.4108722976529011,7.259926029790604,-0.22271677667714052,-1.7867968797742764,26.473088082006917,-30.213111058396994,170.059357,148.0280460598617,0.0,170.05935699999998,0.2628809288660167,0.56955224,0.2271086,0.74493325,1.0,0.0,0.0,0.0,149.51784962785194
5.3758,48.3312,-4.766122928099818,-0.22905816702336734,-5.586985193879411,1.307882910314579,7.198465923404054,-0.4364692459347972,-1.7792584956166058,26.033924226260304,-30.80561933396238,176.433533,152.32149508178705,0.0,176.433533,0.2474915001295646,0.62716824,0.2379176,0.6991446,1.0,0.0,0.0,0.0,151.3417568195022
5.4071,48.3511,-4.89671847939092,0.05590119854457409,-5.523924239185618,1.427780517145134,6.925982686938065,-0.3930190308517938,-1.2954914464167357,25.837622786835908,-31.371977469288307,-178.117737,-32.92510997926539,0.0,178.117737,0.2334702257997258,0.68201935,0.24109882,0.6497789,1.0,0.0,0.0,0.0,152.99707006810112
5.4114,48.3712,-4.94480112663152,0.44330008947495725,-5.528599988450564,1.670362563421931,6.586645634971564,-0.185081129803486,-0.8395178436012096,25.87432961121082,-31.860120033430288,-172.945526,-31.684341423076535,0.0,172.945526,0.2136444998443436,0.73049515,0.24288036,0.60144991,1.0,0.0,0.0,0.0,155.32796952309826
5.4332,48.3912,-5.16269057423399,0.9141031871825,-5.4815190912627685,1.9416388818001173,6.34255234247486,0.09110774402809341,-0.43390754515472363,26.24409406005085,-32.10689296228749,-168.166428,-33.57338962243749,0.0,168.166428,0.1852910983058571,0.77056473,0.24466421,0.55860239,1.0,0.0,0.0,0.0,158.64379093705546
5.4535,48.4111,-5.589204131899549,1.400693890890633,-5.214602226566305,2.153853540928414,6.32176711741668,0.3467430413690229,-0.14643134222477094,26.8103661853847,-32.11189947124927,-163.865982,-35.40512133931854,0.0,163.865982,0.1500542869913424,0.80438936,0.24668726,0.51921755,1.0,0.0,0.0,0.0,162.73985483753603
5.474,48.4312,-6.079785819949917,1.800358050328209,-4.551404920692407,2.2750948342877177,6.544492291443165,0.5736419694470045,-0.30034801274448775,27.455847424372628,-31.881359457955092,-160.087692,-35.826758155475744,0.0,160.087692,0.1088891467596129,0.83823019,0.24632493,0.47417015,1.0,0.0,0.0,0.0,167.4974325642791
5.4924,48.4512,-6.479854207912443,2.0222315449405825,-3.4530535679337833,2.317451224181636,6.93034101540591,0.8077475196472246,-1.0449868208550033,27.940121115688317,-31.571437286356378,-156.977234,-34.836362408897415,0.0,156.977234,0.0639460853890445,0.87328088,0.24311399,0.41735715,1.0,0.0,0.0,0.0,172.66731523049904
5.5108,48.4711,-6.755633376747208,1.9523838008840682,-2.0636430067497145,2.2930960005187324,7.3650035978620165,1.084587238803398,-2.2371106072839417,28.0526568666682,-31.34411322686054,-154.381714,-33.61646739512956,0.0,154.381714,0.0178564031589639,0.9045375,0.24102935,0.35128039,1.0,0.0,0.0,0.0,177.95369816931245
5.5316,48.4912,-6.954269222915146,1.5218710177701877,-0.5692410886074235,2.230067733118501,7.729058584786889,1.3811091853149358,-3.4979771282280563,27.752998993911323,-31.26409200801699,-152.062393,-32.86709836736263,0.0,152.062393,0.0267202104932801,-0.9276017,-0.24343675,-0.28209868,1.0,0.0,0.0,0.0,176.9377249530867
5.5508,48.5112,-6.833598832844859,0.8156117699777128,1.0832929510386542,2.227297285416105,7.912102999677761,1.5613722995828807,-4.969762934651826,27.154522813644448,-31.26413044092125,-150.252426,-31.983717509384963,0.0,150.252426,0.0698530644309203,-0.94456792,-0.24742308,-0.20419063,1.0,0.0,0.0,0.0,171.9889044569389
5.5719,48.5311,-6.197229587418834,-0.1386490463707286,2.8202914960825876,2.191889766278578,7.881978615033914,1.5753819195481125,-6.620716631257826,26.45316288218428,-31.238098246161847,-148.817505,-31.28322134926852,0.0,148.817505,0.1131846683056985,-0.95296264,-0.25410295,-0.12034587,1.0,0.0,0.0,0.0,167.0021389003277
5.5917,48.5522,-5.171805228951019,-1.2589840960734398,4.301551244780573,2.0916699884549295,7.610413815661092,1.547201726471774,-7.320132736394535,26.06879265206163,-31.17157860076163,-148.344131,-30.309033358777004,0.0,148.344131,0.1564323845808004,-0.9524591,-0.25743392,-0.04558891,1.0,0.0,0.0,0.0,162.00024137477388
5.6308,48.5722,-3.653246680044326,-2.3495439535616587,5.358515542816786,1.9362856993039292,7.126136066805628,1.4731525462575585,-7.357392659557979,25.8801802769453,-31.209667550422942,-149.375992,-28.338919465118458,0.0,149.375992,0.1983077986306477,-0.94654006,-0.25321472,0.02486438,1.0,0.0,0.0,0.0,157.12395775828904
5.6326,48.5921,-1.9041674075404815,-3.151486156320149,5.870192357404095,1.5857165810987874,6.513160744709374,1.327304304744968,-7.068654874811352,25.160720015120965,-31.8584555988292,-151.093842,-26.346058087201992,0.0,151.093842,0.2291531937946035,-0.93653888,-0.24934663,0.09060904,1.0,0.0,0.0,0.0,153.5055562737114
5.6557,48.6122,-0.12382946832797392,-3.8456100665731974,5.84166400143188,1.0885862306426684,5.767394482598893,1.2594548193817752,-6.56665679632766,24.3250915790509,-32.6811363593027,-153.383484,-24.240222990552656,0.0,153.383484,0.254876594907248,-0.92324889,-0.24504343,0.15034336,1.0,0.0,0.0,0.0,150.46745410987887
5.6773,48.6322,1.2963400024958083,-4.571646764602971,5.368237132491373,0.5065315397211325,4.912031988479298,1.3232533329614669,-5.574451563547536,23.722100343121888,-33.41720832403084,-156.056015,-21.911956842361622,0.0,156.056015,0.2787050228539734,-0.90840614,-0.23955229,0.19934015,1.0,0.0,0.0,0.0,147.6341367444248
5.6931,48.6522,2.290035898007554,-5.047104067506853,4.722799498185818,-0.1840697994185585,4.029761489496209,1.4042851904078808,-4.746676198022801,22.86384261460721,-34.24663156859977,-158.460312,-20.195497219576893,0.0,158.460312,0.2932283733326069,-0.89294922,-0.23827232,0.24471435,1.0,0.0,0.0,0.0,145.89733351149548
5.7138,48.6722,2.761328372792783,-5.14591633287925,4.127579666821912,-0.9214882099111207,3.1647515831901427,1.4761190102486175,-3.9000770275439653,21.825583191320685,-35.08271092588004,-159.609283,-20.011480240071055,0.0,159.609283,0.2959374651378937,-0.8788079,-0.24457026,0.28337798,1.0,0.0,0.0,0.0,145.57247921464014
5.7324,48.6921,2.93144244070744,-4.774857555519844,3.641852791226764,-1.529193176857584,2.3928179069684696,1.5285046118246222,-2.767779928798233,20.675451394842856,-35.86218770925979,-160.584549,-20.26704108544188,0.0,160.584549,0.2883423795215533,-0.86937857,-0.24848126,0.31511369,1.0,0.0,0.0,0.0,146.48251460215266
5.7543,48.7122,3.1168536563506413,-3.8399078852877775,3.2132703556074773,-1.926697712471173,1.8087611543800755,1.5999395467919655,-1.5280234085360056,19.221862404687204,-36.66352061360262,-161.70224,-20.67084700622337,0.0,161.70224,0.2689090187093667,-0.86556178,-0.24669576,0.34297514,1.0,0.0,0.0,0.0,148.80128514680925
5.7726,48.7322,3.384649321071546,-2.4665619363353994,2.7838243751004708,-2.1447880787308726,1.4665542952856194,1.7349457302599618,-0.19116549084001466,17.50194836087462,-37.479846669538425,-162.069321,-22.100156283624315,0.0,162.069321,0.2364008658039082,-0.8664515,-0.24358895,0.3661159,1.0,0.0,0.0,0.0,152.6515731824024
5.7915,48.7521,3.4473952340285328,-1.4576931480844846,2.3488920138768243,-2.3061655753693593,1.3295572872509245,1.953437600682864,2.0758661069584026,17.225804450852245,-37.54356974317026,-161.305222,-23.844409679675792,0.0,161.305222,0.2119185607513101,-0.87058192,-0.24404062,0.37097415,1.0,0.0,0.0,0.0,155.53038291086122
5.8125,48.7721,3.6939102460795046,-0.6022164890712678,1.9092256785424357,-2.5060819562759535,1.263797166003973,2.2595743318546497,3.2015483858855944,17.733977172411297,-37.2867294790578,-159.881638,-26.799214854031685,0.0,159.881638,0.1897188517582728,-0.86852455,-0.25231725,0.38210976,1.0,0.0,0.0,0.0,158.127245663298
5.8325,48.7921,3.8301630141771073,0.1310365365508983,1.4303574498845286,-2.7781379967785877,1.0984928311770799,2.564584516672121,3.3566050121282425,18.682745763804107,-36.89398454676472,-157.834885,-31.210891616284876,0.0,157.834885,0.1678407517636519,-0.86083394,-0.26730463,0.39917746,1.0,0.0,0.0,0.0,160.67540107038303
5.8534,48.8121,3.6562966247527857,0.8960746445302261,0.8148161301772845,-3.0299176269108514,0.7455729884869264,2.782613696984941,2.9741338883253317,19.232573773754506,-36.7106012257306,-155.322052,-37.196037216108266,0.0,155.322052,0.1378816353999374,-0.85043246,-0.28437164,0.42057824,1.0,0.0,0.0,0.0,164.14943179388206
5.872,48.8321,3.1522811193490634,1.7428367787692793,0.03220213802197591,-3.113822915009374,0.29519383401726307,2.9121978296963427,2.583563281616756,18.726496850412403,-37.04603556656006,-152.73381,-44.02965890736719,0.0,152.73381,0.0935659342981015,-0.84036803,-0.2967039,0.44383982,1.0,0.0,0.0,0.0,169.26242751584607
5.8928,48.8521,2.190647439505713,2.305790773727308,-0.6299899428601048,-3.0642257681539053,-0.10123396420685182,2.953509125570602,3.5494709508470037,18.048530043539508,-37.36835424697148,-149.960175,-49.08029515563454,0.0,149.960175,0.0442941492789846,-0.83747625,-0.30399022,0.45195299,1.0,0.0,0.0,0.0,174.92260316973105
5.9441,48.8721,0.8459616018207581,2.2041750655631827,-0.8282596659928316,-3.014998098541365,-0.4300542528390623,2.917923782120952,5.857423922168826,19.05444007170145,-36.694300585778215,-146.806763,-51.33228712134905,0.0,146.806763,0.010899303628779,-0.84214771,-0.3162739,0.43662256,1.0,0.0,0.0,0.0,178.75100707506476
5.9457,48.8922,-0.37934788177031775,1.9809694891568572,-0.6376260978048904,-2.9219537162682236,-0.6520717181536289,2.9575814353152996,6.520366180807064,20.2072460903277,-36.12644434831424,-143.053726,-55.29926550323696,0.0,143.053726,0.0216569863765187,0.83716196,0.33611944,-0.43094611,1.0,0.0,0.0,0.0,177.51809812915585
5.9556,48.9122,-1.4219233961649613,1.7759860018040863,-0.12375727629478384,-2.8610712840703822,-0.8356260775874169,3.0077467540792053,6.083664254256413,21.099731358223796,-35.8370616750711,-139.253586,-59.850394741732806,0.0,139.253586,0.0534458989581696,0.82583869,0.35737941,-0.43291333,1.0,0.0,0.0,0.0,173.87263164915115
5.9716,48.9321,-2.3104638377725397,1.740595747534361,0.4406125556564753,-2.834892751658936,-1.0584346269522615,3.0221089821750717,5.524463994575488,21.464812967647287,-35.7620726686427,-136.025833,-63.591772414927156,0.0,136.025833,0.0850765386081087,0.81368375,0.37330943,-0.43740234,1.0,0.0,0.0,0.0,170.2391476966901
5.9942,48.9522,-3.100163558321581,1.943766231167689,0.7921448346870292,-2.766484455800588,-1.327321125024434,3.02636050580986,4.958121888343375,21.009933818908223,-36.04076921215301,-132.996262,-66.87910462648664,0.0,132.996262,0.1232392212255261,0.79956895,0.38395953,-0.44505805,1.0,0.0,0.0,0.0,165.84183124602177
6.0845,48.9722,-4.048464104079663,1.9073137899768624,0.8646400597849961,-2.702760864023464,-1.660825006380596,2.927102664171257,5.165420581522074,20.896618139745335,-35.917173825510254,-129.582489,-68.7233429600651,0.0,129.582489,0.1625102639060669,0.78931409,0.39540702,-0.44071189,1.0,0.0,0.0,0.0,161.29473788343313
6.0863,48.9922,-4.9568697539111035,1.329452902375229,0.7976763172623595,-2.655503226984348,-2.039536196603305,2.6829546421062247,5.628089590633285,21.966453324531166,-35.01865299978212,-125.842659,-69.67179391499297,0.0,125.842659,0.1933014388016658,0.7827028,0.41253027,-0.42406327,1.0,0.0,0.0,0.0,157.70896914139627
6.0879,49.0122,-5.465778094176999,0.8542124927265817,0.6727055081055049,-2.6006533977196744,-2.321734964469268,2.4218046326889358,5.46136036286919,22.5435086206839,-34.52730040645327,-122.189117,-70.81631604884018,0.0,122.189117,0.2281737092516584,0.77146423,0.42612082,-0.41376412,1.0,0.0,0.0,0.0,153.62085162884233
6.09,49.0322,-5.61453144626664,0.6304537575117952,0.47789210828754847,-2.5659760180807427,-2.561427937719197,2.1480701909453677,5.086465248649413,22.80289522226509,-34.31509263411543,-119.193764,-71.4984072199696,0.0,119.193764,0.2617416140331159,0.75987351,0.43341553,-0.40771872,1.0,0.0,0.0,0.0,149.65314302645618
6.092,49.0522,-5.600726509710397,0.6498575972904357,0.1649537581088012,-2.5360458390334037,-2.811960828761717,1.8966053322175371,4.80382957554445,22.785322528926244,-34.30364691897625,-116.809868,-71.45395399709139,0.0,116.809868,0.2945341366752449,0.74988711,0.43438056,-0.40278095,1.0,0.0,0.0,0.0,145.74079144492438
6.171,49.0722,-5.689906162554376,0.6939805228062632,-0.2584460644386475,-2.493182152867782,-3.1200965879312776,1.6789786780711082,4.850810442678197,22.67700373348302,-34.329170993392125,-114.521774,-70.44532030005772,0.0,114.521774,0.3295457580842839,0.74238503,0.43156204,-0.39245161,1.0,0.0,0.0,0.0,141.51758563281334
6.1725,49.0922,-5.888051537125891,0.48426301453098364,-0.6318073465437433,-2.4250091426475575,-3.5350200601215316,1.487620652235841,4.983433851951029,23.035217788757098,-34.06219910340045,-112.34903,-68.87293564492848,0.0,112.34903,0.3603133337608624,0.73817283,0.42926922,-0.37550381,1.0,0.0,0.0,0.0,137.76111966939968
6.1742,49.1122,-6.0190584602334605,0.12109853028185547,-0.8150152701535323,-2.3094938871150523,-4.082009458251958,1.4096102109922029,4.710203351388303,23.430435820783057,-33.85738733550345,-110.20594,-67.49292078718223,0.0,110.20594,0.3883161101161925,0.73272705,0.42721063,-0.36029536,1.0,0.0,0.0,0.0,134.3004732806951
6.177,49.1322,-6.1093611089774065,-0.21499884667107705,-0.9217361542786531,-2.1231316180716115,-4.798273355564657,1.4966082753660073,4.41407907664874,23.482013487719918,-33.90286162009526,-107.855904,-65.64998007609566,0.0,107.855904,0.4207158864037194,0.72594261,0.42165554,-0.34381983,1.0,0.0,0.0,0.0,130.24041471977546
6.197,49.1522,-6.152761967053209,-0.4515114102921701,-1.1207270464638022,-1.821473394701105,-5.693852152080977,1.7889893988875833,4.1542493898904524,23.406172916704904,-34.00505520579335,-105.243446,-63.114791050211025,0.0,105.243446,0.4560411917740688,0.71922535,0.41346434,-0.32216233,1.0,0.0,0.0,0.0,125.73610725864062
6.222,49.1722,-6.203689878395255,-0.5869070376717996,-1.6584104955939072,-1.4322319653916975,-6.7000056764699085,2.3274969427665884,4.043384182287703,23.395952045521817,-33.989205655563026,-102.609291,-59.614922650124264,0.0,102.609291,0.4920233939210503,0.71466798,0.40181229,-0.29276192,1.0,0.0,0.0,0.0,121.05267927347471
6.2329,49.1922,-6.302485368690027,-0.8080061420468883,-2.738722104130707,-1.0398093226091127,-7.688248979360861,3.138726807998131,4.137176597196314,23.45243703408317,-33.856318482670794,-99.736549,-54.89810879042929,0.0,99.736549,0.5299521773907432,0.71155518,0.38606498,-0.25257424,1.0,0.0,0.0,0.0,115.99555259213835
6.2555,49.2121,-6.3510427963770155,-1.61578805394072,-4.385736163886377,-0.6804888901045651,-8.584463246292628,4.018811160790408,4.186792619426889,24.160584136708586,-33.26355379809969,-96.383415,-48.943702612099294,0.0,96.383415,0.5658932255938948,0.71035725,0.37153918,-0.19265532,1.0,0.0,0.0,0.0,111.07131699359502
6.2738,49.2322,-6.030545207514521,-3.1002553069454075,-6.301631492209437,-0.3624888941123472,-9.231696492586224,4.935853250347904,3.6900073757978316,24.890324470095987,-32.75295885614684,-91.355888,-42.31915284602174,0.0,91.355888,0.6022852541343312,0.70254296,0.35996288,-0.11879641,1.0,0.0,0.0,0.0,105.93251431592655
6.307,49.2521,-5.052888637394065,-5.039078648408924,-8.004143840114518,-0.08846460041835646,-9.455766009568931,5.883978093823593,2.580012259263677,24.850640985704032,-32.9529629715323,-82.174126,-35.09564357617199,0.0,82.174126,0.6423751431509136,0.67995024,0.35152519,-0.03810364,1.0,0.0,0.0,0.0,100.0616863859992
6.3125,49.2722,-3.2961504112301983,-6.983088618609913,-9.112894210732765,0.17540434234036817,-9.305028486780955,6.579554691307791,1.1609094878837887,24.31834289161589,-33.56254405181429,-66.210342,-26.353465610665054,0.0,66.210342,0.6798405652196838,0.64404422,0.34661734,0.05366813,1.0,0.0,0.0,0.0,94.3376289927261
6.3317,49.2922,-1.0076141119853508,-8.28591368930639,-9.328782928209964,0.4657063116819755,-8.848640112399286,6.93606320044379,-0.3335406045258775,23.235859463851035,-34.47265846572918,-38.567135,-15.20708248152434,0.0,38.56713500000001,0.7100424873092018,0.59566355,0.34382963,0.15101585,1.0,0.0,0.0,0.0,89.52325536436972
6.3529,49.3121,1.0549333422629503,-8.57607104193497,-8.587091419687342,0.5322759083079677,-8.10256836669837,7.121464571372973,-0.7449839553165009,21.242946338916262,-35.774949990013674,-0.240688,-0.1125885605517684,0.0,0.2406880000000058,0.7383357588086199,0.53573537,0.33201665,0.2400268,1.0,0.0,0.0,0.0,84.82031986953014
6.3714,49.3321,2.4849858589442158,-7.856102310989773,-7.405325758153974,0.4679731265809166,-7.296367017546686,7.098630781483875,-0.231270457269245,19.17690120518207,-36.84407112850182,29.231283,18.066379103587735,0.0,29.23128299999999,0.7593826125389285,0.47127038,0.31223392,0.32210597,1.0,0.0,0.0,0.0,81.18039887040486
6.3929,49.3522,3.2035380817077628,-6.2956956636428,-6.439965368351748,0.35078579278036215,-6.650895140953207,6.8411865642526415,0.6278875950071541,17.768265910839375,-37.336239159239206,47.140987,35.699834636462015,0.0,47.140986999999996,0.7690919073837883,0.41108996,0.28669068,0.39662468,1.0,0.0,0.0,0.0,79.4551743621159
6.4119,49.3721,3.5927045135241027,-4.0466969106284045,-5.9768610828660504,0.44880096507101674,-6.192574897654489,6.4110362676814985,0.6906595574750263,16.678596261539806,-37.58052452921098,59.468563,51.76508147943915,0.0,59.46856300000002,0.7642706107587556,0.35223794,0.26781136,0.46914384,1.0,0.0,0.0,0.0,80.31570820126487
6.4315,49.3922,3.795011505593772,-1.4148457000269614,-5.932740849717679,0.7638499544056527,-5.888442515095984,5.846719418471627,0.2952857096882173,15.380694824163495,-37.90410976708537,69.569946,66.69449722192708,0.0,69.56994600000002,0.7476229158505854,0.28935504,0.25381595,0.54121262,1.0,0.0,0.0,0.0,83.23023009793019
6.4538,49.4122,3.9372546345790815,0.9470721336338513,-6.079692455113142,1.2435848045251254,-5.880136188511623,4.994470588175337,-0.2522569595865818,15.181408555771831,-37.802472019928224,79.408508,78.73557616738329,0.0,79.40850799999998,0.7201158840996208,0.24026901,0.23035282,0.60880333,1.0,0.0,0.0,0.0,87.8719022563592
6.4729,49.4321,4.258132115418485,2.5125842430626286,-5.891785075074036,1.4748645025141784,-6.070623465409496,4.010634652848704,0.43546472592744756,16.247266968503492,-37.1958503135014,86.478897,85.22966515150199,0.0,86.47889700000002,0.7022830575533804,0.20541656,0.18138023,0.65704167,1.0,0.0,0.0,0.0,90.77907553161496
6.4939,49.4521,4.842154308560734,3.4210903794864556,-5.24768781091326,1.5548337971537087,-6.202712984049517,3.203632733802528,1.779434042068047,17.380208992622702,-36.459544544418385,91.261307,89.55407311110301,0.0,91.26130699999999,0.6894165182199623,0.1681404,0.12089719,0.69413078,1.0,0.0,0.0,0.0,92.83212207917218
6.5136,49.4722,5.538226184658216,3.8980610527614568,-4.22068139333987,1.5656357465097945,-6.256289912317952,2.552861373310848,2.8856265716697838,18.490639855991045,-35.61182822150339,95.020126,93.36258656743,0.0,95.020126,0.6741846976401416,0.131183,0.05670978,0.72460335,1.0,0.0,0.0,0.0,95.21826148754255
6.5331,49.4922,6.075115416503821,4.329269777359048,-2.8948021407761217,1.5522835633084597,-6.190537217752058,2.075664733402834,3.6197695236022236,18.886493084621073,-35.09006067848413,98.176857,97.280858102833,0.0,98.17685699999998,0.6552269541093656,0.08855107,-0.00287468,0.75021869,1.0,0.0,0.0,0.0,98.12627788538586
6.5515,49.5122,6.25142802198395,4.799973446234147,-1.2674874946452483,1.5598561144588645,-6.014968662268843,1.6469754329004276,4.09532628581421,18.77568607921844,-34.897567285486424,101.069626,101.24740904634946,0.0,101.06962599999997,0.6329452647483368,0.04313063,-0.05866057,0.77076519,1.0,0.0,0.0,0.0,101.46449069700844
6.5727,49.5321,6.039403841877937,4.92777314417458,0.6727443308490297,1.6149263789936423,-5.727938227178549,1.1133672938542825,4.393452065131678,19.014188842197747,-34.64234294138196,103.545097,105.11165467706965,0.0,103.545097,0.60899245809382,0.00401768,-0.11807954,0.78432727,1.0,0.0,0.0,0.0,104.96662654514795
6.5921,49.5522,5.582623556875504,4.444742584020361,2.689087843352354,1.6287167261146451,-5.301592073213577,0.6132146344108147,4.868888998783408,19.240091866322285,-34.498448570435876,104.739304,108.1883501767039,0.0,104.739304,0.5900949261476977,-0.03272618,-0.1763745,0.78715247,1.0,0.0,0.0,0.0,107.67251052533736
6.6118,49.5722,5.037614709888237,3.3728478758040943,4.505244069677396,1.5715351964937885,-4.765109413825402,0.24215962953644665,5.299038678959062,19.395534864703343,-34.499736270533155,104.846497,110.60863323105436,0.0,104.846497,0.5761770689246949,-0.06534245,-0.2293264,0.78176707,1.0,0.0,0.0,0.0,109.63579041915693
6.6316,49.5921,4.550194196322568,2.017736927130114,5.962195365292434,1.4065041792252828,-4.190988687227291,0.04392392508919049,5.2630495317916814,19.38375196244294,-34.71223430242716,104.272125,112.49719658719522,0.0,104.27212500000002,0.5663874935243542,-0.09054603,-0.27234408,0.77255118,1.0,0.0,0.0,0.0,111.00260617697376
6.6518,49.6122,4.025855465483111,0.6786379583977746,7.149324394486868,1.124240163921235,-3.6356582741405035,0.0018848672373555503,4.714628914158876,19.25320679360711,-35.05588940067612,103.486938,114.18903781829813,0.0,103.48693800000001,0.5583549839995386,-0.1084927,-0.30662107,0.7631858,1.0,0.0,0.0,0.0,112.11577980390659
6.6724,49.6322,3.1544200397778237,-0.3458392091762983,8.253938333081347,0.760205634430132,-3.096496358994463,0.10534042411099284,4.039412890324407,18.808029736377257,-35.53339658053183,103.193634,116.13072164100645,0.0,103.19363399999997,0.548829900360814,-0.1257529,-0.3336862,0.75605917,1.0,0.0,0.0,0.0,113.42644755048798
6.6919,49.6522,1.747643124488551,-0.8470595338192042,9.37871470442808,0.3651191108508222,-2.5130804229092063,0.3180729876106524,3.5397089928595555,17.81874041940201,-36.197682583316606,103.822899,118.24438019881671,0.0,103.822899,0.5376731006427234,-0.14755009,-0.35253149,0.75157046,1.0,0.0,0.0,0.0,114.94924645595376
6.7133,49.6722,-0.05661390571199121,-1.012384129245297,10.430193557754851,0.012812969312336983,-1.8103561715062466,0.5478071097972939,2.9285004561778987,16.86110823049819,-36.77284490066226,105.308411,120.87216536310225,0.0,105.30841099999998,0.5234966910855094,-0.16726105,-0.36783776,0.75011355,1.0,0.0,0.0,0.0,116.86580747416242
6.7315,49.6921,-1.8684174231370854,-0.9659380772092705,11.184478441583607,-0.28119324627631626,-0.9690588458392887,0.7569988789274722,2.032289394778857,16.23352608011362,-37.15638951085582,106.934441,123.47000131658817,0.0,106.93444099999999,0.509806378811876,-0.18088201,-0.38025048,0.75019246,1.0,0.0,0.0,0.0,118.69813281224404
6.7559,49.7121,-3.177234808112278,-0.654989158637858,11.421668263104554,-0.4886997181881223,-0.026809187591216588,0.9456907407313992,0.6354029174206062,15.86789614120776,-37.40186825642941,108.515221,125.52871699828489,0.0,108.515221,0.4986556580765878,-0.18595615,-0.38688537,0.75304884,1.0,0.0,0.0,0.0,120.17780232274306
6.7755,49.7322,-3.5920666868225624,-0.02440851953371581,11.067608254934541,-0.5480469219969133,0.9532099018684412,1.1062383550499701,-1.4413338897351569,15.4936245748529,-37.57406769700384,109.95591,126.33461791772287,0.0,109.95591000000002,0.4926242776423926,-0.18073842,-0.38264209,0.76042092,1.0,0.0,0.0,0.0,120.97357168256012
6.7918,49.7521,-3.4235402348313517,0.7988296679062921,10.179782479776744,-0.4114694157687925,1.9313153536375747,1.1781417250041,-3.611683830614158,14.879276387677315,-37.697722611462495,111.62822,126.29200119433133,0.0,111.62822,0.489442055415566,-0.17022876,-0.36806372,0.7720089,1.0,0.0,0.0,0.0,121.39216781475697
6.8118,49.7722,-2.543515972737577,1.2060695024197843,9.102456641185125,-0.09906007341200573,2.888143420077575,1.133098381393322,-6.568720249668678,14.52318822335322,-37.421660919798995,112.904678,125.78083338860834,0.0,112.90467799999999,0.4878441378207038,-0.14066027,-0.34642026,0.78880656,1.0,0.0,0.0,0.0,121.60203752802246
6.832,49.7922,-2.4594288248008755,1.0396240163382275,7.932549966470546,0.3257497870662971,3.844506316793911,1.011522943130114,-6.696873458573446,15.077263770986583,-37.122714556670616,112.905838,125.49123408134035,0.0,112.90583800000002,0.4883044799878537,-0.12624718,-0.34060588,0.79347843,1.0,0.0,0.0,0.0,121.54159847880663
6.8516,49.8121,-1.468193990257756,0.5534296493906257,6.954498384615935,0.8265251120807668,4.824183209881383,0.8637150773874953,-7.643907441346098,16.076588657872133,-36.424853559171794,111.644981,123.82351396117015,0.0,111.64498100000003,0.4962045702596806,-0.08924664,-0.32892814,0.79851258,1.0,0.0,0.0,0.0,120.5015750578044
6.873,49.8321,-0.07098832937548494,0.09855789742225252,5.86921650437311,1.3757689408631981,5.819997566278404,0.7270069855271917,-8.345778941900416,17.222714075098224,-35.62652041962773,109.733124,121.19540728401664,0.0,109.73312399999998,0.5095081608359953,-0.04269994,-0.31475091,0.7996937,1.0,0.0,0.0,0.0,118.73785172930579
6.8932,49.8522,1.5072836620045855,-0.07149272937856699,4.399052583939163,2.0076750658429123,6.790968676016823,0.5851585271951083,-8.880558423627518,18.135477978503477,-34.91829683684644,107.684471,117.63927635279539,0.0,107.68447100000003,0.5273198126325662,0.01147836,-0.29476216,0.796817,1.0,0.0,0.0,0.0,116.3509128235104
6.9115,49.8721,2.8801234389902426,-0.004543000544852349,2.4436486755008655,2.750112371739574,7.670591042805574,0.4404831563253435,-9.414272692003504,19.01569189198291,-34.19526366646623,105.570564,113.22070409733563,0.0,105.57056399999999,0.5479493972012397,0.07592236,-0.27158427,0.78754634,1.0,0.0,0.0,0.0,113.5471070499073
6.9315,49.8921,3.561398790609251,0.3067312038949661,0.23884066593668685,3.5267122441507204,8.410800766867656,0.26470502859316003,-9.781245432986815,19.960147957734275,-33.45110195615357,103.919914,108.41503359614678,0.0,103.919914,0.5659039818860253,0.14842607,-0.2496901,0.77160692,1.0,0.0,0.0,0.0,111.06982200524958
6.9532,49.9121,3.3207388724182785,0.8468824715726331,-1.7465613205666362,4.144294992080019,8.99390376294866,0.037453701062700184,-9.515652439242796,20.80282063421604,-32.896527268613426,103.365494,103.97563939051369,0.0,103.36549400000001,0.5750901161883366,0.2208354,-0.23287234,0.7525115,1.0,0.0,0.0,0.0,109.78811333794776
6.9728,49.9321,2.6173154359399824,1.2401048447500067,-3.2948922151958424,4.451363343420167,9.36457207425089,-0.21123097727306117,-9.266919233359323,21.873808337835577,-32.0875121673469,103.759163,98.78973065664748,0.0,103.759163,0.5774916658187377,0.30240473,-0.21827649,0.72623008,1.0,0.0,0.0,0.0,109.45137504934436
6.9925,49.9521,1.8457770980784713,1.1211078021417409,-4.397224852569486,4.442292500843985,9.405173371007836,-0.3584669208281468,-8.905545559810026,23.23953474676291,-30.967193189695767,104.749207,91.70656724588302,0.0,104.74920700000001,0.5764881833447715,0.39174405,-0.20544216,0.68701637,1.0,0.0,0.0,0.0,109.59216532945025
7.0114,49.9722,1.2377174176298888,0.437428734587994,-5.2738439771408885,4.2843296880624,9.005110491381549,-0.3208839417778617,-8.051271274277093,24.486260956211414,-29.996236527736407,105.919243,82.25444507666008,0.0,105.919243,0.5763949181039134,0.47956368,-0.19315982,0.63283241,1.0,0.0,0.0,0.0,109.6052443985243
7.0348,49.9922,0.6900324692449145,-0.4118419389975748,-6.072810107222511,4.162811752581615,8.198392533482714,-0.1772022784261318,-6.3461595794282,24.62230586470662,-30.22878914692297,106.887657,72.2508771200725,0.0,106.88765699999999,0.5805149203906246,0.54876149,-0.17884482,0.57434988,1.0,0.0,0.0,0.0,109.02646490033148
7.0539,50.0121,0.1927454939800397,-0.958463068136381,-6.672073439157466,4.13579016006892,7.223638377499069,0.007037331875391573,-5.134267857154057,23.78695399892953,-31.311417743716337,108.879173,62.08900439679165,0.0,108.87917299999998,0.5832426678660932,0.60786462,-0.15643016,0.51561439,1.0,0.0,0.0,0.0,108.64212134115185
7.0741,50.0321,-0.30516477004916975,-0.8703300126180564,-6.845684320409493,4.257459693083616,6.352498333210612,0.29219968751141323,-4.0322240562737655,22.950083926223567,-32.49285603553585,113.14888,53.81806953690405,0.0,113.14888000000002,0.5725967581436427,0.65902609,-0.137381,0.46791455,1.0,0.0,0.0,0.0,110.13699033544546
7.0918,50.0522,-0.6841186371951671,-0.17487423768890764,-6.464663566576492,4.4705088053269595,5.831025572495175,0.4333067777381987,-3.2541697386187884,22.72473071011209,-33.20631257884604,120.276169,46.690298589840054,0.0,120.27616899999998,0.5466002872056683,0.70904046,-0.12042986,0.42893636,1.0,0.0,0.0,0.0,113.7318207248763
7.1118,50.0722,-0.7975701121737422,0.6992918853567229,-5.597427818946992,4.624753846932659,5.862986105050944,0.2925492890095578,-2.766913505337044,23.08839882451483,-33.38439911494025,129.439728,39.87955390819566,0.0,129.439728,0.5095280916710178,0.7579776,-0.10357597,0.3938567,1.0,0.0,0.0,0.0,118.73519744478064
7.1331,50.0922,-0.42736529914065113,1.312372554947528,-4.672046709050157,4.662165386319525,6.471895318083919,-0.05891098484493984,-2.2988197404544053,23.636722332004435,-33.26132439853458,138.557175,32.90063879597857,0.0,138.55717500000003,0.4716437895559603,0.80339295,-0.08942489,0.35229972,1.0,0.0,0.0,0.0,123.71789704614424
7.1516,50.1122,0.4448274764665945,1.5564606835200796,-4.3550249868261055,4.621670767010316,7.524272431461266,-0.42074518755018175,-1.6732934413459954,23.816717195543127,-33.246171400735655,146.397354,26.13710690579081,0.0,146.397354,0.4412972263792278,0.84263641,-0.07957865,0.2981407,1.0,0.0,0.0,0.0,127.62664278142506
7.1716,50.1321,1.395838000225519,1.5243115839593553,-5.136135919650901,4.52226710915531,8.830434611258097,-0.4553579977409319,-1.4962573509659087,23.99706593300846,-33.086664006048096,154.763962,19.201276201519306,0.0,154.763962,0.4099624380040462,0.8802256,-0.06857416,0.22897877,1.0,0.0,0.0,0.0,131.59504952454668
7.1928,50.1522,1.6828481166305163,1.6294614555683784,-7.028405924035024,4.437053605757892,10.068022347123286,-0.0033024155800953636,-2.206161455983734,24.244591755617574,-32.71686183453682,164.621231,11.683174525282439,0.0,164.62123099999997,0.3732983457270165,0.91500133,-0.04848335,0.14515604,1.0,0.0,0.0,0.0,136.16164160347537
7.2116,50.1721,0.6999370441475374,2.2623181336732294,-9.343938570973572,4.630299098505523,10.835603336967846,0.5813372562033177,-4.348703832088583,24.079553202220378,-32.32589930661235,176.087051,3.0334165426854867,0.0,176.08705099999997,0.3370987900963116,0.94062757,-0.01484472,0.03692986,1.0,0.0,0.0,0.0,140.59957014033486
7.2337,50.1921,-1.6261109321040026,3.4110736994557147,-10.737816026854667,5.097593272153302,11.002823818023767,1.0668971482982235,-6.937279801873757,23.40362855653435,-31.889539978703198,-172.772873,-6.005496530787641,0.0,172.772873,0.299615442552615,0.95056951,0.03080494,-0.07549337,1.0,0.0,0.0,0.0,145.13098563309228
7.2535,50.2121,-4.285245123218383,4.802088724206937,-10.260106432734052,5.7514536208277685,10.5697518308552,1.4754868823540144,-8.755575041881782,22.949328986205742,-31.13154216412314,-164.194061,-14.757994366784649,0.0,164.194061,0.2510060998764481,0.94836074,0.08191555,-0.17577738,1.0,0.0,0.0,0.0,150.92588805783816
7.2718,50.2322,-5.984361912681649,6.163870289175845,-7.888886178587623,6.565471321380897,9.555995259521906,1.6650651104807186,-9.342622838001388,23.132984422328636,-30.127106702835192,-159.152023,-22.451701358051526,0.0,159.152023,0.1869259609907506,0.93713623,0.12937367,-0.26475805,1.0,0.0,0.0,0.0,158.45311824344046
7.2966,50.2521,-5.984824917704703,6.833477167308378,-4.082010679972384,7.197029631151389,8.135242929478958,1.7201693110931477,-9.367567346539344,24.57607042705407,-28.36342100164465,-156.474976,-29.65356199907918,0.0,156.474976,0.0962478984931562,0.91695517,0.18144614,-0.34206265,1.0,0.0,0.0,0.0,168.9537034281476
7.3133,50.2722,-4.2975577398004,6.365458528300298,-0.2946688520210401,7.467879030084203,6.508372407276571,1.476908052202301,-8.564357717038336,26.186540718383178,-26.878642681546047,-155.529999,-35.316253784818706,0.0,155.529999,0.0018307004149927,-0.88722408,-0.23013571,0.39983451,1.0,0.0,0.0,0.0,179.79021706815604
7.3342,50.2922,-1.6882635846197305,5.044709807467458,2.263784827773156,7.328965650435565,4.865846528573823,0.9600264947908844,-7.286417730255985,27.271743011820007,-26.341016119326866,-155.413406,-39.20768265161615,0.0,155.413406,0.0918545150649346,-0.85199046,-0.27160171,0.4380725,1.0,0.0,0.0,0.0,169.45939003012958
7.3529,50.3121,0.8378241063565794,3.5259732292819512,3.2899920339071365,6.8841600467222985,3.337919644429017,0.33439276241518945,-5.767853465704207,27.6363407288962,-26.858948478524024,-155.300247,-41.46380291486925,0.0,155.300247,0.1662740586127475,-0.81824577,-0.30587989,0.45745414,1.0,0.0,0.0,0.0,160.85748976289253
7.3737,50.332,2.5801307261761157,2.147815806718885,3.2846005903628175,6.340066639486194,1.928773901944624,-0.21463610571861946,-3.4783769852533464,27.5969337160215,-27.903060247964728,-154.75592,-40.94201120347488,0.0,154.75592,0.2296452681794035,-0.79407263,-0.33171457,0.45461759,1.0,0.0,0.0,0.0,153.44762378254876
7.3919,50.3522,3.516463258004355,1.1679112419805842,2.834804511817879,5.789319561176185,0.796917561680796,-0.7387030627586724,-1.0446866811972948,27.019062844326776,-29.141255446474958,-153.066162,-39.444599098920385,0.0,153.066162,0.2814154135050478,-0.77707845,-0.35270733,0.43880746,1.0,0.0,0.0,0.0,147.31060163724578
7.4136,50.3721,3.831376037640687,0.5920929800929056,2.368617343001869,5.302055001828151,-0.04486154695394373,-1.213607340615597,1.4301049145025426,25.99090709917985,-30.339369659465966,-150.196548,-37.510225624154884,0.0,150.196548,0.3245898308829293,-0.76667923,-0.36849272,0.413591,1.0,0.0,0.0,0.0,142.11854624866288
7.4336,50.3921,3.7685539853000836,0.24888491069577645,2.083783652416045,4.882527835492548,-0.6310221445356452,-1.6469084971446388,3.6802540098885936,24.74283496006793,-31.342825579230627,-146.114441,-35.71180270828447,0.0,146.114441,0.3624224447280423,-0.76028013,-0.38017711,0.38221651,1.0,0.0,0.0,0.0,137.50191724136639
