AppTimestamp(s),SensorTimestamp(s),acc_x,acc_y,acc_z,gyro_x,gyro_y,gyro_z,mag_x,mag_y,mag_z
43.0117,85.9721,0.12900225423614534,0.8446816706131324,-0.4966783211277832,-0.05131,0.06597,-0.03848,19.02,-34.98,-14.1
43.0314,85.9922,0.15417335648851754,0.6926862429292363,-0.30966893540790963,-0.12278,0.02505,-0.01161,18.6,-35.16,-14.76
43.0514,86.0121,0.1779748108518792,0.5705806555702214,-0.13703795796614848,-0.15455,0.02505,-0.01283,18.78,-35.04,-14.88
43.0727,86.0322,0.2040327382957153,0.48990200434348163,0.011429126615412954,-0.17104,0.04215,-0.02382,19.32,-34.8,-15.3
43.0922,86.0522,0.23061402111131288,0.44326032327165127,0.13291162816844881,-0.16738,0.03176,-0.02199,19.5,-34.92,-15.18
43.1114,86.0721,0.252576830185589,0.4167537244551052,0.23167366430257452,-0.1405,0.0226,0.01833,19.62,-34.5,-15.12
43.1332,86.0922,0.2612999844280868,0.38392900122652046,0.31754885523914034,-0.08613,-0.02138,0.03238,19.14,-34.74,-15.06
43.1523,86.1122,0.2516821885251112,0.306929212482831,0.40125512499023763,-0.04948,-0.07208,0.02016,18.96,-34.74,-14.94
43.1769,86.1321,0.21531305141650212,0.16609906450124445,0.4880916957938979,-0.03787,-0.09285,-0.02871,19.14,-34.86,-14.82
43.1932,86.1521,0.15237133512949408,-0.04787549441397971,0.5737122534432899,-0.04948,-0.03726,-0.07269,19.5,-35.28,-14.64
43.2127,86.1722,0.06804016123579454,-0.307966929085912,0.6423537664045096,-0.08796,0.01344,-0.11606,19.68,-35.1,-14.52
43.2313,86.1921,-0.025943598059669767,-0.5750202221626804,0.6689801717922297,-0.09957,0.0672,-0.14539,19.62,-35.1,-14.64
43.2515,86.2122,-0.10252686024779728,-0.7916582126756493,0.6256351655613628,-0.04643,0.07758,-0.15638,19.8,-35.04,-15.24
43.2715,86.2322,-0.13782710173742457,-0.9010365116520495,0.49225693015992,0.08308,0.11423,-0.14416,19.68,-34.98,-15.12
43.2914,86.2521,-0.10669443930498852,-0.8543271339265281,0.2688029822926197,0.21441,0.09346,-0.07025,19.68,-34.92,-15.12
43.3121,86.2722,0.005270232335278671,-0.6324361947916225,-0.020366319196019944,0.25962,0.09163,0.00428,19.98,-35.1,-15.24
43.3355,86.2922,0.19088609333252393,-0.259744157742226,-0.3323947883282834,0.25901,0.12401,0.08125,20.22,-35.22,-14.7
43.3547,86.3122,0.41974175095717886,0.22272598557053525,-0.6176798737620448,0.24801,0.15821,0.11362,20.58,-35.04,-14.82
43.3736,86.3321,0.6502071235984778,0.7213731794908627,-0.8337839986548765,0.2248,0.07391,0.07453,20.88,-35.16,-14.58
43.3925,86.3522,0.839476479942989,1.153153167152236,-0.9514213270061944,0.16616,0.00733,0.04215,20.46,-34.68,-14.16
43.4117,86.3722,0.9563771797089219,1.4552265912575115,-0.959438329660502,0.06964,0.00855,-0.00183,20.04,-34.56,-14.04
43.4315,86.3922,0.9883894373790839,1.5942875572083102,-0.8637094228002518,-0.0226,0.0452,-0.06903,20.04,-34.32,-13.68
43.4657,86.4122,0.9602875316286036,1.5856399474514091,-0.6874479846700705,-0.14539,0.02871,-0.16127,20.16,-34.56,-13.56
43.4723,86.4322,0.8348038716910154,1.3911310655443474,-0.44088331394345204,-0.24374,0.00489,-0.19731,20.22,-34.62,-13.2
43.4933,86.4521,0.7042712695116574,1.1380250243885368,-0.1783034291868706,-0.25045,-0.04337,-0.21625,19.92,-34.5,-13.08
43.5115,86.4722,0.570150398408981,0.8623949674565499,0.06840917756374232,-0.2584,-0.08063,-0.22358,19.62,-34.68,-13.08
43.5332,86.4922,0.46189585590479787,0.652789292912696,0.25903143052162747,-0.32987,-0.09468,-0.20159,19.26,-34.26,-13.32
43.5521,86.5122,0.37870921893621773,0.5322428464009015,0.36854966206080775,-0.33414,-0.11912,-0.16982,18.96,-34.14,-13.62
43.5716,86.5322,0.3144251692437002,0.5180022948192599,0.3878644872089776,-0.23518,-0.10629,-0.13011,18.84,-33.72,-13.86
43.5938,86.5522,0.24954833599566653,0.5865499492792902,0.33277093737201824,-0.08858,-0.06903,-0.1014,18.66,-33.84,-13.62
43.6127,86.5722,0.16360771823261255,0.6861587866295582,0.24043173142396057,-0.0281,-0.1124,-0.08552,18.78,-33.72,-13.32
43.6316,86.5921,0.04975386419098098,0.7629708481891158,0.15673234567697136,-0.11179,-0.11118,-0.09957,19.38,-33.9,-13.44
43.6514,86.6121,-0.08406707761254542,0.7606006828511742,0.12241968292394212,-0.20403,-0.08125,-0.16005,19.5,-34.14,-13.5
43.6722,86.6321,-0.21735977711995594,0.6425241802597845,0.1603214891113467,-0.26878,-0.03604,-0.19303,19.68,-33.78,-14.1
43.6918,86.6522,-0.3285704905516819,0.4038949804361684,0.2668991991040439,-0.29077,0.02749,-0.19242,19.68,-33.84,-14.76
43.712,86.6722,-0.3927716216542676,0.09473584212480242,0.4100592009872699,-0.28772,0.09652,-0.16616,19.32,-33.72,-15.12
43.7318,86.6922,-0.40017529947291863,-0.21637146779892266,0.5386837589616942,-0.28466,0.1631,-0.09957,19.56,-33.42,-15.24
43.7515,86.7122,-0.3525674335730365,-0.45670784248606333,0.5973713300197918,-0.22663,0.14355,-0.04948,19.86,-33.42,-15.0
43.7719,86.7322,-0.2632980042940032,-0.5713882353731724,0.5441842654554652,-0.10201,0.05742,-0.02932,20.1,-33.3,-15.42
43.7919,86.7522,-0.15327402616680802,-0.5271881622752796,0.366754333113402,0.11973,0.04154,-0.03665,20.34,-33.06,-15.54
43.8117,86.7721,-0.04182747553888849,-0.3100819386189318,0.08989742599615802,0.24374,0.08369,0.01283,20.82,-33.18,-15.54
43.8327,86.7922,0.05564576186889764,0.05747370195278361,-0.2322471266035464,0.18143,0.10079,0.08552,20.82,-33.06,-15.84
43.8566,86.8122,0.12951611748914585,0.5125646178335572,-0.5324605239790614,0.08125,0.08735,0.10385,20.76,-33.0,-15.66
43.8729,86.8322,0.17633527897131618,0.9729851571851305,-0.7469097563061187,0.05559,0.14783,0.0898,20.76,-32.88,-15.0
43.8928,86.8522,0.1974700554582865,1.3388078378795374,-0.825758203334237,0.04948,0.15211,0.09163,20.52,-32.88,-15.0
43.9154,86.8722,0.19859632263427185,1.554660914430623,-0.7472824950839918,0.01466,0.0843,0.10873,20.58,-33.12,-15.18
43.9325,86.8922,0.19998864861088222,1.6022154664881012,-0.5229627136016379,-0.1179,0.00061,0.13073,20.52,-33.3,-14.7
43.9522,86.9122,0.213025836187968,1.5062546479089733,-0.19423407017947092,-0.31215,0.00244,0.13561,20.58,-33.24,-14.94
43.9716,86.9322,0.25405336191813227,1.2980941902187906,0.18097932698532482,-0.41783,0.06353,0.11606,20.64,-33.6,-14.94
43.9916,86.9522,0.32067027668802633,1.0210211096763662,0.5362932708180068,-0.34819,0.14844,0.09957,20.58,-33.42,-14.7
44.0115,86.9722,0.3938576734440203,0.7158603269056115,0.8110192187467913,-0.1686,0.15272,0.12034,20.52,-33.36,-15.24
44.0323,86.9922,0.4490244706878521,0.43197810959151933,0.9625682780703251,-0.04948,0.04459,0.13989,20.7,-33.54,-15.6
44.0514,87.0121,0.47721309351649255,0.21527573276160888,0.9748082258855177,0.02871,-0.03971,0.12401,20.64,-33.24,-15.6
44.0718,87.0322,0.47858691828526884,0.09376201231380649,0.856576173099036,0.02932,0.0,0.06475,20.52,-33.36,-15.96
44.0921,87.0522,0.4588270659142696,0.06928784234480821,0.6340220709320654,-0.03604,0.12584,0.01283,20.94,-33.36,-15.96
44.1137,87.0722,0.4166170827720235,0.12360432983564391,0.34420836256137477,0.011,0.19242,-0.02077,20.58,-33.36,-16.02
44.1331,87.0922,0.3446797899856426,0.2370807476895557,0.03069544164114113,0.09041,0.18448,-0.00183,20.34,-33.06,-16.26
44.1519,87.1122,0.254831763024478,0.39343141106643764,-0.26203156069808564,0.14783,0.14966,0.02077,20.16,-33.06,-15.72
44.1716,87.1322,0.17016035110045077,0.5736602823711041,-0.49408073724566925,0.08858,0.11668,0.02566,19.74,-33.12,-15.42
44.1917,87.1522,0.11398688716108712,0.7540463137271118,-0.6360060920521171,-0.00122,0.10507,0.04032,19.8,-33.12,-14.7
44.2123,87.1722,0.10037238868284082,0.9056127196350812,-0.6729125663075166,-0.03115,0.15333,0.05742,19.92,-34.02,-14.04
44.2323,87.1921,0.12957529416516295,1.0045829738620156,-0.606462874624377,-0.0562,0.19426,0.09529,19.8,-33.72,-13.92
44.2519,87.2121,0.19455721880512242,1.0422037593406919,-0.45452371825727234,-0.07147,0.12584,0.13439,20.1,-33.78,-13.5
44.2719,87.2322,0.2870705716437756,1.0264108932681872,-0.24781792340581887,-0.09529,-0.00183,0.13806,19.62,-34.02,-14.04
44.2914,87.2522,0.40162539481035153,0.9748859793972501,-0.023889174035572225,-0.13134,0.02016,0.13317,19.56,-33.42,-14.52
44.3272,87.2732,0.5203194375713772,0.9310539100469067,0.17853256607422807,-0.13011,0.11301,0.11057,19.56,-33.66,-14.28
44.3339,87.2932,0.6375717462911447,0.8549501271021862,0.3350974917707781,-0.13195,0.17226,0.07636,19.32,-33.96,-14.52
44.3549,87.3131,0.7204145924967309,0.8119368610956279,0.4253233614290437,-0.09224,0.07269,0.06048,19.68,-33.78,-14.04
44.3743,87.3332,0.7567433138869311,0.7888388736996336,0.4491506513731327,-0.03421,-0.03421,0.05986,19.56,-33.78,-13.62
44.3945,87.3532,0.7467552019545315,0.787168407679266,0.4173753132197522,-0.00794,0.02321,0.05131,19.38,-33.72,-13.92
44.4125,87.3732,0.6972006499955906,0.802471866319182,0.34993829564178647,0.0055,0.08674,0.00977,19.32,-33.18,-14.04
44.4325,87.3932,0.6143948925447931,0.8277605586442162,0.26947782722088753,-0.00183,0.13317,-0.05437,19.2,-33.66,-14.16
44.4531,87.4131,0.5026994741167458,0.8590251885228093,0.19225236285240044,-0.01344,0.11545,-0.05681,19.32,-33.66,-14.16
44.4727,87.4332,0.3733267691934986,0.9004379021347406,0.11931789929582592,-0.00611,0.01405,-0.05315,19.14,-33.6,-14.46
44.4927,87.4532,0.24908758492039895,0.9679315730382534,0.033778707454287016,0.00733,-0.02749,-0.02199,18.78,-33.9,-14.46
44.5124,87.4731,0.15133778651908003,1.0838904760387311,-0.09216475975220462,0.01222,0.00611,0.00733,18.48,-33.48,-14.16
44.5324,87.4931,0.09412822187860434,1.2631580147778407,-0.28293964059900567,0.02443,0.01405,0.03971,18.72,-33.66,-14.52
44.5535,87.5131,0.08568743963438856,1.494318285953913,-0.5422505252905125,-0.00733,-0.04337,0.05131,19.08,-34.02,-14.4
44.5736,87.5331,0.13596091561371504,1.7281698299056223,-0.8392677949242024,-0.08796,-0.13867,0.05925,19.08,-34.02,-13.8
44.5923,87.5531,0.24497874575990555,1.8945153043593785,-1.108784731220517,-0.03482,-0.09224,0.0733,19.68,-34.08,-14.1
44.6124,87.5732,0.3911536615149556,1.9318122739263062,-1.2696418870167925,0.04337,-0.03665,0.07025,19.32,-34.08,-13.98
44.6347,87.5931,0.5325252546141989,1.814644579666713,-1.254437430275333,0.0391,-0.10324,0.01344,19.02,-33.66,-13.56
44.6545,87.6132,0.6303837500300182,1.5601645569145697,-1.0358341353444906,-0.21625,-0.49052,0.0226,19.32,-33.36,-14.1
44.6904,87.6332,0.5941956278177848,1.2888329395881257,-0.6469311062893883,-0.55589,-0.70799,0.12584,18.84,-33.66,-13.8
44.6951,87.6531,0.6034976550504618,0.8675408554445567,-0.15488210436518557,-0.55711,-0.45693,0.13073,18.9,-33.66,-13.56
44.7124,87.6731,0.5309838569135427,0.5611473333400496,0.31210146957051954,-0.46487,-0.1069,0.01527,18.84,-34.02,-14.34
44.7332,87.6932,0.42655368986866077,0.3626363250641984,0.6630839537789992,-0.38973,-0.00367,-0.03054,18.6,-34.38,-14.64
44.7546,87.7132,0.29710411396634645,0.2687807340403773,0.8470354148342096,-0.28039,-0.12156,0.02382,18.42,-33.72,-15.12
44.7732,87.7331,0.17179899485623265,0.2596693945460795,0.8637305056070623,-0.20647,-0.31276,0.07575,18.18,-33.6,-15.78
44.7939,87.7531,0.08535836414594918,0.31662776873563986,0.7525404423318083,-0.15821,-0.27489,0.04765,18.42,-33.12,-15.66
44.813,87.7732,0.06984916215784978,0.4000729990898851,0.5709223797029779,-0.13989,-0.03848,0.00428,18.3,-32.88,-16.08
44.8323,87.7932,0.10966659746016115,0.4884572449385236,0.37315837345076197,-0.16921,0.03604,0.03971,18.0,-33.36,-16.26
44.8525,87.8132,0.17300451614101883,0.5712315573811741,0.1984694850550106,-0.14478,-0.0733,0.08613,18.0,-33.66,-16.2
44.8724,87.8332,0.23739627089859977,0.6488393283822321,0.06838726946080875,-0.09224,-0.15088,0.09041,17.88,-33.72,-16.74
44.8932,87.8532,0.29341652793432754,0.7328090973432286,-0.010051862608330353,-0.00611,-0.03665,0.07941,18.0,-33.72,-16.74
44.9139,87.8732,0.3386019129466743,0.8297977796266331,-0.03770932395957871,-0.03054,0.05681,0.08491,18.3,-33.6,-16.8
44.934,87.8932,0.36709599393634446,0.9299795672403977,-0.01813968426213286,-0.13989,0.07758,0.09041,17.94,-33.42,-16.62
44.9525,87.9131,0.3765904922613773,1.0070512085116141,0.043179196265338504,-0.15516,0.05009,0.10568,17.58,-33.48,-16.8
44.9724,87.9332,0.3723318094894077,1.0411094826357759,0.1355388611241235,-0.09346,0.01588,0.08613,17.28,-33.42,-16.62
44.9931,87.9532,0.36649428892457186,1.0248503420418356,0.24196207990162932,-0.08491,0.03604,0.04215,16.98,-33.36,-16.74
45.0151,87.9731,0.36820880289519603,0.9709293917780942,0.34072770538705655,-0.12523,0.09285,0.02077,16.92,-33.42,-17.04
45.0331,87.9931,0.3787295020169826,0.8933776256672646,0.4111987219019717,-0.135,0.11973,0.03604,17.4,-33.42,-16.86
45.0548,88.0132,0.4006862746290225,0.8198152664883387,0.4370019932471614,-0.06903,0.07391,0.05131,17.58,-33.78,-17.22
45.0722,88.0331,0.43453019872147125,0.7619443174888542,0.4131439713034375,0.01649,0.07147,0.06109,17.7,-33.96,-17.52
45.0926,88.0532,0.48336586634454626,0.733549131431968,0.34622595345702223,0.07269,0.14783,0.0617,17.82,-33.72,-17.76
45.1134,88.0732,0.54338980861768,0.7409335470879574,0.2533603700198128,0.05498,0.14844,0.07514,17.76,-33.66,-17.94
45.1325,88.0932,0.6088978678887027,0.7857582957683948,0.15514331825151295,0.07636,0.08552,0.07391,18.0,-33.42,-17.7
45.1537,88.1131,0.6770348350939456,0.8626107735205536,0.06774250757944245,0.05864,0.05009,0.0898,17.94,-33.24,-17.28
45.1746,88.1332,0.7468492449184695,0.9703645567020357,-0.0027932664242165117,0.02016,0.06475,0.08919,18.12,-33.54,-16.98
45.1923,88.1531,0.8152426344165554,1.1072562342003323,-0.059313724262114675,0.02443,0.11973,0.10018,17.88,-33.96,-17.1
45.2136,88.1732,0.8717297470947581,1.2650889015521474,-0.10733450721948579,0.08186,0.08735,0.09346,17.82,-34.02,-17.34
45.2341,88.1932,0.9053148900546225,1.433487832693475,-0.15015607948835452,0.1179,0.06048,0.08369,18.0,-34.14,-17.76
45.2538,88.2132,0.9075619449177078,1.5932227382924689,-0.18559335427138812,0.12401,0.04581,0.05498,18.42,-34.32,-17.7
45.2739,88.2331,0.8767573799273206,1.7187346484741342,-0.207685916011485,0.10201,0.00183,0.00733,18.54,-34.32,-17.22
45.2982,88.2532,0.8195364754698343,1.7866912652408677,-0.21127905191697316,0.03787,-0.01161,-0.04826,18.9,-34.68,-16.98
45.313,88.2732,0.7346070038740006,1.7855293640279424,-0.195084992199547,-0.01344,0.02077,-0.09041,18.9,-34.86,-16.98
45.3348,88.2931,0.6416768184960832,1.7180597827344302,-0.16561773438310112,-0.07941,0.05192,-0.15638,18.54,-35.1,-16.8
45.3547,88.3132,0.5339888555307069,1.5939982965441586,-0.13144551422408135,-0.09163,0.05498,-0.15027,18.42,-34.98,-16.8
45.3724,88.3332,0.41617157936230775,1.4428500119287646,-0.10608668730000836,-0.05986,0.00916,-0.14111,18.0,-34.5,-17.04
45.3923,88.3532,0.30292083709538853,1.3061904815839334,-0.10139838180781702,-0.00672,-0.04154,-0.12034,18.12,-34.08,-16.74
45.4149,88.3732,0.20783881210798835,1.220142926982178,-0.12010934799390682,-0.00428,-0.03665,-0.12828,18.12,-33.6,-16.92
45.4378,88.3932,0.1413987435164613,1.2011511653410338,-0.15342556925112127,-0.06475,0.00977,-0.11545,18.06,-33.48,-16.8
45.4525,88.4131,0.1018233908101975,1.229882267784736,-0.18198479690828862,-0.09591,0.05681,-0.06048,18.12,-33.6,-16.8
45.4731,88.4332,0.09857096749841926,1.2812275493746896,-0.18482534054646216,-0.03665,0.03054,-0.02871,18.12,-33.78,-16.74
45.4928,88.4532,0.12493522212979662,1.3120767798202233,-0.14353096463609738,0.02382,-0.03543,-0.01527,18.18,-33.84,-17.04
45.5124,88.4731,0.17930957154344004,1.2953880882558149,-0.052940552031460086,0.01038,-0.06842,0.011,18.6,-33.84,-17.52
45.5331,88.4932,0.2560417843639899,1.222558431893396,0.07506534501596995,-0.05803,-0.01283,-0.00122,18.48,-33.84,-17.4
45.5524,88.5132,0.3395533944054981,1.1011752001452393,0.21319574103331185,-0.09835,0.05192,-0.0672,18.18,-34.08,-17.22
45.5725,88.5332,0.4065715398081568,0.9560431747516609,0.3245664472050933,-0.12767,0.07269,-0.08552,18.0,-34.2,-16.86
45.6018,88.5532,0.44178568960321063,0.8272532483197473,0.37217285254328836,-0.0843,0.04337,-0.07391,17.7,-34.08,-16.02
45.613,88.5732,0.4215984048322179,0.7372022575996746,0.33393852618336517,0.00733,0.00916,-0.04337,17.52,-33.96,-15.78
45.6324,88.5931,0.3774820096845645,0.7287590501677669,0.2067997810897566,0.0843,0.02138,-0.02016,17.46,-34.08,-16.02
45.6539,88.6132,0.3314059594083562,0.818555262532047,0.01601575017179968,0.13561,0.08063,-0.03176,17.64,-34.08,-15.72
45.6737,88.6332,0.3037889377479258,0.9997594181672825,-0.1943002426281435,0.10201,0.16066,-0.02932,17.94,-34.38,-16.32
45.6931,88.6531,0.3164853706380698,1.2288555749108236,-0.3753762506332219,0.02382,0.10079,0.05986,18.12,-34.5,-16.38
45.7128,88.6731,0.38699837842877305,1.4495921404102936,-0.4892777022947481,0.00977,0.03726,0.12645,18.18,-33.96,-16.5
45.7327,88.6931,0.5212996737785901,1.6168834161380372,-0.5200274294135685,0.07636,0.04948,0.13073,17.82,-33.9,-16.38
45.7531,88.7131,0.7041415839245864,1.7130874233171638,-0.47750908905145195,0.09529,0.05192,0.1069,17.46,-33.66,-16.08
45.7724,88.7331,0.9007081643513855,1.7479136930095427,-0.39185188762351153,0.01283,-0.00733,0.09529,17.64,-33.36,-16.26
45.7924,88.7532,1.0648697238802154,1.7430252540459958,-0.30021012812188985,-0.0898,-0.10079,0.09591,17.46,-33.12,-16.08
45.813,88.7731,1.1599299700830927,1.7219307790533058,-0.23480622864908618,-0.06903,-0.12339,0.07941,17.7,-33.3,-16.38
45.8375,88.7932,1.163617674095174,1.70465061809963,-0.2116694704609685,0.02871,-0.07636,0.02688,17.76,-33.36,-16.38
45.8525,88.8132,1.0792697397694155,1.7115388837999026,-0.22596596341678676,0.05253,-0.01527,-0.01955,17.34,-33.42,-16.02
45.8724,88.8331,0.9171813561013294,1.7434458936884019,-0.2495523685084411,0.00794,-0.01283,-0.03726,17.34,-33.9,-16.02
45.8944,88.8532,0.7107069231272929,1.7931473620100873,-0.24908353506019587,-0.08796,-0.01588,-0.03726,17.28,-33.78,-16.2
45.9132,88.8732,0.4999387942304704,1.831101866032088,-0.1986190334044231,-0.19364,0.00489,-0.06414,17.16,-33.54,-16.5
45.9335,88.8931,0.3260172179738919,1.84174066807322,-0.09663864904786834,-0.24862,-0.0171,-0.07575,17.1,-33.66,-16.74
45.9537,88.9131,0.2136765374799209,1.8143297886513703,0.03622822550095961,-0.20403,-0.07575,-0.07819,17.28,-33.66,-16.74
45.9723,88.9332,0.16727899274815386,1.7567293023974817,0.163696448318289,-0.15394,-0.06048,-0.05803,17.22,-33.6,-16.62
45.9926,88.9532,0.1709974842293407,1.692843035588875,0.24890722087392092,-0.07575,0.03482,-0.02566,16.98,-33.84,-16.38
46.0136,88.9731,0.1934169926623106,1.6339548544123146,0.27249286537362316,-0.06353,0.05803,-0.03543,17.4,-34.02,-16.32
46.036,88.9932,0.2025830813074814,1.5807771048720145,0.23758749859585748,-0.05192,0.02016,-0.04704,16.98,-34.14,-16.2
46.0529,89.0132,0.17741829076172205,1.5256707740226998,0.1663609813495377,0.01955,0.00122,-0.08125,17.04,-34.2,-16.02
46.0729,89.0331,0.12987795307822503,1.4655864604453126,0.08855272880803255,0.00489,0.05559,-0.09774,16.74,-34.08,-15.9
46.0946,89.0532,0.08454416135480153,1.4039034049435308,0.030639480117569562,-0.0507,0.13622,-0.10507,16.32,-33.54,-15.9
46.1124,89.0731,0.058298054487582504,1.3474941827487463,0.0067380709217719215,-0.06475,0.19792,-0.1124,16.56,-33.3,-16.44
46.1322,89.0931,0.08069682348532864,1.3138971875234764,0.012387249271442968,-0.03482,0.20525,-0.05192,16.62,-33.54,-16.2
46.1544,89.1131,0.15455988023121414,1.3167855735732812,0.02870149420514423,-0.01833,0.10812,0.03604,17.1,-33.72,-16.14
46.1724,89.1332,0.2734883366356648,1.3675139811377393,0.029733597037408188,0.04276,0.05315,0.14478,16.98,-34.14,-16.44
46.1942,89.1531,0.4173717595275577,1.462578719099658,-0.005699224779984746,0.10507,0.06964,0.17532,17.4,-34.26,-16.08
46.213,89.1732,0.5607079115112136,1.5938396147833096,-0.0870595325682686,0.10751,0.14722,0.13989,17.1,-34.02,-16.32
46.2324,89.1932,0.6651190458765406,1.7281635986034376,-0.2035798197461549,0.09529,0.13622,0.10263,17.4,-34.32,-16.5
46.253,89.2131,0.704543115130841,1.8303162403376299,-0.3293163073860814,0.05864,0.14233,0.09163,17.94,-34.38,-16.14
46.2723,89.2331,0.6770465383306987,1.8753780937034157,-0.43346971449909333,0.02199,0.09163,0.10568,17.58,-34.56,-15.78
46.2924,89.2532,0.6064523463054331,1.8571386579011475,-0.4919301727269314,-0.01161,0.07025,0.11057,18.3,-34.8,-15.78
46.3123,89.2731,0.5308221348812298,1.7926848080444342,-0.49475872418464384,-0.07147,0.05925,0.07514,18.36,-34.92,-15.66
46.3326,89.2931,0.48339992857592384,1.7132920296909973,-0.44631264077835553,-0.13683,0.10385,0.03848,18.6,-35.22,-15.48
46.3524,89.3132,0.48058510328282283,1.6497971915276555,-0.3613045447425929,-0.1576,0.17104,0.06903,18.84,-35.7,-15.3
46.3746,89.3342,0.5202198948049747,1.628757645814376,-0.26033074979862114,-0.10934,0.17165,0.11484,18.84,-36.06,-15.18
46.3935,89.3542,0.5906063657200926,1.652740490950345,-0.16147919574021152,-0.08552,0.08919,0.13867,18.72,-35.76,-15.3
46.4135,89.3741,0.6755043356904035,1.7210959571184492,-0.0796125246853503,-0.06842,0.01466,0.12889,18.54,-35.64,-15.12
46.4356,89.3942,0.7611987074689548,1.8187104143338153,-0.02252603090539118,-0.03054,0.04093,0.10873,18.48,-35.4,-15.6
46.4545,89.4142,0.8379664912877659,1.9247312497617797,0.008173164253038934,-0.0336,0.12095,0.08919,18.42,-34.92,-15.3
46.4765,89.4341,0.8930979687581807,2.0231197577987245,0.01566868054816517,-0.06414,0.16188,0.04154,18.9,-35.34,-14.82
46.4942,89.4542,0.9178319472750637,2.092876501815114,0.008540654460459152,-0.09468,0.11606,0.00244,19.08,-35.58,-15.18
46.5142,89.4742,0.9190754130365936,2.133248941911256,-0.007459146759227764,-0.07697,0.06048,0.00183,19.14,-35.52,-14.76
46.5343,89.4941,0.9078056072774341,2.1471247441961783,-0.027114545710785976,-0.02443,0.01344,0.00305,19.02,-35.7,-15.12
46.5557,89.5142,0.8969953023826547,2.147313873104282,-0.04814110806795391,0.011,0.0281,0.02077,19.02,-35.58,-15.24
46.574,89.5342,0.8929412353244737,2.1447860078130216,-0.06855233876942535,-0.0055,0.02932,0.01161,19.08,-35.46,-15.0
46.594,89.5541,0.8918936428902521,2.1414977429903383,-0.08561183730718014,-0.02993,0.00977,0.00122,19.02,-35.28,-15.18
46.6143,89.5742,0.8831721661329214,2.1304240184582413,-0.0971495925068897,-0.02138,-0.01405,-0.01772,18.9,-35.52,-15.3
46.6343,89.5941,0.8553597392724324,2.103548194201332,-0.10459070923913316,-0.00305,-0.00916,-0.02443,18.84,-35.52,-14.94
46.6552,89.6141,0.802442548961326,2.059339442507038,-0.11483514065195877,-0.01405,-0.03482,-0.02627,18.78,-35.82,-14.64
46.6758,89.6342,0.7261140062492827,2.003245704666446,-0.13857944203950368,-0.03176,-0.04581,-0.05315,19.02,-35.88,-14.58
46.6945,89.6542,0.6327067555040153,1.9442940815075795,-0.18580506692308774,-0.04154,-0.00855,-0.08552,19.08,-35.64,-13.92
46.7141,89.6741,0.5332988168156649,1.8952341539382953,-0.26170829713615085,-0.04581,0.03848,-0.09835,18.54,-35.22,-14.22
46.7365,89.6942,0.44026741373891254,1.8686952123249525,-0.36245243664833104,-0.02077,0.00916,-0.07514,17.82,-34.86,-14.28
46.7539,89.7142,0.3614220138416947,1.8718842280228616,-0.47307863933779437,-0.00428,-0.01222,-0.05498,17.7,-35.04,-14.58
46.7741,89.7341,0.3131801421119051,1.9075827727490402,-0.5707295093993174,-0.01527,-0.01344,-0.0391,17.16,-34.8,-15.0
46.7943,89.7541,0.302815374851507,1.963606864044666,-0.6272428225207154,-0.04154,-0.06231,-0.03115,17.82,-35.22,-14.88
46.8135,89.7742,0.3315171797544585,2.0192675135235167,-0.6178237607961741,-0.02443,-0.02871,-0.011,18.24,-35.4,-14.88
46.8335,89.7941,0.39394438302968876,2.055181945751561,-0.5299131483374282,-0.02993,-0.0171,-0.00489,18.24,-35.4,-14.34
46.8534,89.814,0.4832209283855651,2.0608896193514377,-0.36922493090391484,-0.07453,-0.02749,0.01588,18.6,-35.52,-13.86
46.8736,89.8342,0.5921711764687976,2.0390434302970237,-0.16061700139195345,-0.14478,-0.0452,0.00733,18.3,-35.52,-14.34
46.8935,89.8542,0.7108340213693646,2.000992203366891,0.057636674254350595,-0.1857,0.03604,-0.02138,18.0,-35.52,-14.58
46.9147,89.8741,0.8233715804106342,1.9673500851574064,0.242042546595302,-0.15516,0.0452,-0.03971,18.0,-35.28,-14.64
46.934,89.8942,0.9113675007303642,1.9542039531353936,0.35615898301725935,-0.0898,0.01344,0.02016,18.3,-35.28,-15.18
46.9554,89.9142,0.9606630803402456,1.9832915367588528,0.3767158349112165,-0.01283,-0.0281,0.06292,17.94,-34.98,-14.88
46.9743,89.9341,0.9667489195686547,2.061575181228095,0.3019203943401294,0.03604,0.00061,0.02627,17.82,-34.98,-14.64
46.9947,89.9542,0.9277624420537051,2.1782440682624107,0.15220499164173873,0.04337,0.06292,-0.02505,17.7,-35.16,-15.06
47.0143,89.9742,0.8451947847490113,2.3074988696844185,-0.035696583104874335,0.04215,0.03543,-0.0617,17.16,-35.7,-14.76
47.0337,89.9941,0.7262078441090519,2.4153072296481053,-0.21884181148064918,0.0171,0.03604,-0.07697,17.04,-36.12,-15.24
47.0539,90.0142,0.586265656330336,2.472937714775887,-0.3603648601230276,0.00489,0.06842,-0.11057,17.16,-35.76,-15.54
47.0744,90.0342,0.44506850889274135,2.46438582339753,-0.4375763666559891,-0.04276,0.04215,-0.09468,17.04,-35.16,-15.48
47.0958,90.0541,0.32530328523077595,2.389265154953901,-0.44474603803957,-0.08186,0.00672,-0.07941,17.4,-34.74,-15.78
47.1137,90.0742,0.24189697321654954,2.2575301264689434,-0.38931127869925675,-0.07575,0.00122,-0.10996,17.52,-34.38,-15.36
47.1343,90.0942,0.20888757738141173,2.098810556898346,-0.29036560721154636,-0.05986,0.00977,-0.12523,17.82,-34.68,-15.24
47.1538,90.1141,0.22081553575167573,1.9395833463518612,-0.16859010392449214,-0.06231,0.03238,-0.10568,18.3,-35.1,-15.18
47.1736,90.1341,0.2694681098055526,1.8084387172278305,-0.045775818413172686,-0.05742,0.0452,-0.05376,18.6,-35.28,-15.18
47.1956,90.1561,0.34412357225352247,1.7255305393000524,0.0581814934514675,-0.04215,0.01466,0.00489,19.08,-35.58,-15.36
47.2209,90.1761,0.4352902073248478,1.6981496888242469,0.12606747805232033,-0.00733,0.06231,0.03054,18.9,-35.52,-15.66
47.2383,90.1962,0.530478910267503,1.7191538371662272,0.14518727613116944,0.00061,0.10629,0.01955,18.42,-35.34,-15.66
47.256,90.2162,0.6192989505295774,1.7770050011495484,0.10865801768787442,0.011,0.14355,0.00733,18.06,-34.98,-15.84
47.277,90.2361,0.6944376385159314,1.8556116755401946,0.01854407391374835,0.09346,0.13867,0.01344,18.0,-34.92,-15.66
47.2976,90.2562,0.7493818966621051,1.950512162703815,-0.1158879397472603,0.11301,0.12034,0.03054,18.06,-35.16,-15.24
47.3156,90.2762,0.7883020017969002,2.062978270084858,-0.2797742601589537,0.08858,0.1124,0.0507,18.12,-35.04,-15.24
47.3358,90.2961,0.8215622240662225,2.187945550601341,-0.45302244971953165,0.02749,0.14478,0.06781,18.0,-35.46,-14.94
47.3553,90.3162,0.8531948388399682,2.320799414653918,-0.613351891449879,0.02688,0.18326,0.07208,17.82,-35.16,-14.94
47.3755,90.3362,0.8832160573096427,2.453031546811085,-0.7380646729483331,0.06781,0.14111,0.07025,17.82,-35.16,-15.3
47.3956,90.3561,0.9074637950026047,2.578553575413971,-0.8090989738928389,0.06536,0.08613,0.05864,17.94,-35.22,-15.36
47.4173,90.3761,0.9217793060011408,2.6899867351491116,-0.8169754418126214,-0.00244,0.05925,0.04643,18.3,-35.22,-15.24
47.4377,90.3962,0.924617818666177,2.7737708576730067,-0.7627078949055104,-0.10201,0.0452,0.06536,18.12,-34.98,-14.76
47.4579,90.4161,0.9145296351252722,2.8107047717456757,-0.65693963378612,-0.16005,0.04337,0.04093,18.3,-35.16,-14.1
47.4753,90.4361,0.8887694324863762,2.7821249330684314,-0.5170930823986435,-0.16066,0.01955,-0.00611,18.24,-35.28,-13.68
47.4963,90.4562,0.84188113421846,2.698235814288612,-0.3691807778531686,-0.1124,0.01038,-0.03971,17.94,-35.04,-14.04
47.5186,90.4761,0.7709342489494462,2.576285323258952,-0.23519892251070118,-0.10996,-0.03543,-0.05437,18.06,-35.46,-14.4
47.5371,90.4961,0.6790660841159429,2.441698634304129,-0.13055193536493803,-0.14966,-0.06842,-0.05986,17.76,-34.68,-14.82
47.5554,90.5162,0.5772548454921322,2.3284962084915417,-0.06400341652702579,-0.17287,-0.05315,-0.07636,17.76,-34.62,-14.88
47.5753,90.5361,0.47879865408271227,2.2591435251196383,-0.03411329939280883,-0.14539,0.00061,-0.0733,18.12,-34.44,-14.52
47.5953,90.5561,0.3927993011933231,2.237458571212856,-0.030738723012348146,-0.12401,0.06048,-0.03971,18.0,-34.5,-14.94
47.6169,90.5761,0.3233558831145668,2.2574155897267456,-0.04082151473213713,-0.12767,0.1069,-0.00305,17.94,-34.8,-15.0
47.6359,90.5961,0.26816587656464264,2.2925737223295495,-0.0495791036386386,-0.12828,0.09346,0.00733,18.18,-34.68,-15.06
47.6555,90.6161,0.22733187477999775,2.3186227023127435,-0.0485587773955487,-0.11057,0.0733,0.00244,17.94,-34.68,-14.88
47.6753,90.6362,0.2002982636323397,2.310924742868393,-0.03531164056649594,-0.09041,0.05986,0.00672,17.76,-34.68,-14.34
47.6959,90.6561,0.18864120510330976,2.260805084983268,-0.01527156539030905,-0.04887,0.05803,0.01772,17.7,-34.62,-14.16
47.7171,90.6761,0.1961095962877125,2.1777850006122708,0.001230988523268195,-0.03604,0.10751,0.03848,17.46,-34.86,-14.16
47.7376,90.6962,0.22753958624892398,2.085001033973373,0.0035397806706320978,-0.04643,0.12889,0.04643,17.7,-35.1,-14.22
47.7554,90.7162,0.28760350693045666,2.0107903641694684,-0.015316835425183584,-0.03971,0.12706,0.06658,18.0,-34.62,-14.64
47.7766,90.7361,0.3806027339349562,1.9818384543794874,-0.05679938999509737,0.00733,0.11973,0.10568,18.12,-34.68,-14.82
47.7959,90.7562,0.5059666755577988,2.014932760157336,-0.11621114569536317,0.04704,0.15394,0.15394,17.88,-34.92,-14.82
47.8315,90.7762,0.6482742270217349,2.0996196783078305,-0.18087192076700198,0.05559,0.15027,0.20097,17.4,-34.92,-14.94
47.8377,90.7961,0.8269403873878971,2.2595589744906777,-0.25048109718408895,0.06109,0.12156,0.22724,17.16,-35.46,-14.34
47.8559,90.8162,0.9971214400521273,2.432109472361571,-0.30722800934235117,0.08125,0.12401,0.20036,16.98,-35.22,-14.1
47.8778,90.8362,1.1453521512823819,2.596140035579073,-0.35084343515068994,0.0788,0.12889,0.1576,16.98,-35.16,-13.56
47.8978,90.8561,1.2581153726617178,2.727818701041079,-0.3860946828722689,0.01955,0.08796,0.135,17.04,-35.16,-13.02
47.9156,90.8762,1.3252818537741882,2.808601226483967,-0.42011645159011124,-0.03054,0.06231,0.10079,17.22,-35.04,-12.9
47.9355,90.8962,1.344712543729782,2.8370289568164093,-0.46065039439384137,0.02505,0.05376,0.03054,17.4,-35.4,-12.54
47.9554,90.9161,1.3220722809735304,2.8299846408404985,-0.5122591206488369,0.05559,0.06475,-0.02627,17.52,-35.46,-12.54
47.977,90.9361,1.2675460138891064,2.81334200277677,-0.5722482851947834,0.00428,0.03054,-0.05559,17.7,-35.46,-12.78
47.9964,90.9562,1.1939847277402593,2.8081135257740977,-0.6297982084702287,-0.03482,-0.02077,-0.04215,17.58,-35.4,-12.42
48.0155,90.9761,1.120786297666668,2.8233118678409994,-0.6706102863796275,-0.04948,-0.04704,-0.01955,17.94,-35.4,-12.48
48.0362,90.9961,1.0623321596140336,2.8572463557749543,-0.6819179689808408,0.011,-0.02932,-0.01344,17.94,-35.4,-12.66
48.0558,91.0161,1.022666326426026,2.9007545792409855,-0.657276134830532,0.00183,-0.05131,-0.01955,18.0,-35.58,-12.54
48.0751,91.0359,0.994248941267831,2.9392676590588565,-0.5987647522340627,-0.08369,-0.05681,-0.01833,17.88,-35.58,-12.84
48.0996,91.0571,0.9623819648451076,2.959485319228199,-0.5178124158740349,-0.11851,-0.08735,-0.03421,17.76,-35.7,-12.72
48.1167,91.0771,0.9191839461446002,2.935244160764976,-0.42710889963887766,-0.11484,-0.12217,-0.07086,18.06,-35.76,-12.42
48.1364,91.0972,0.8542443562909782,2.8751596274450915,-0.3480401392478605,-0.10812,-0.13073,-0.10996,17.94,-35.76,-12.24
48.1565,91.1172,0.765064908567544,2.7916527813454883,-0.29568935827747644,-0.09468,-0.08674,-0.15272,17.64,-35.94,-12.24
48.1774,91.1371,0.6537656393564071,2.7074793739402296,-0.277462253949043,-0.12034,-0.04948,-0.16493,17.46,-35.7,-12.54
48.1988,91.1572,0.5277057210002822,2.639351219131754,-0.2892899711725967,-0.17471,-0.02688,-0.16921,17.46,-35.28,-12.96
48.2166,91.1772,0.39604276565734997,2.586445015945713,-0.3161979295220494,-0.1686,-0.03054,-0.15516,17.58,-35.22,-12.84
48.2394,91.1971,0.28288057013145124,2.561623028157794,-0.3457944456851223,-0.10873,0.02321,-0.14478,17.76,-34.98,-12.66
48.2565,91.2172,0.19426670253113892,2.5477900204023247,-0.3588840187437903,-0.08613,-0.01466,-0.11362,17.82,-34.98,-12.84
48.2783,91.2372,0.14894919834613984,2.553416115476503,-0.3491474937862513,-0.11301,0.00244,-0.07575,17.52,-35.1,-12.84
48.2989,91.2582,0.14864702508721164,2.564295635521398,-0.3114032835539504,-0.13561,0.03176,-0.02382,17.64,-35.1,-13.14
48.3178,91.2781,0.19408009524329783,2.5716177990675417,-0.24985029024185224,-0.10812,0.03482,0.00855,18.24,-35.28,-13.56
48.3374,91.2981,0.28064181736408833,2.574537501105795,-0.17686473774396028,-0.05986,-0.01466,0.06048,18.36,-35.1,-13.56
48.3585,91.3182,0.4003619189702829,2.5778461312863414,-0.10926318780387412,-0.03543,-0.02321,0.06353,18.66,-34.8,-13.74
48.3776,91.3381,0.5462830996715918,2.5916685846579113,-0.06499947642442372,-0.02993,-0.00183,0.07147,18.42,-34.68,-13.92
48.3974,91.3581,0.7048808690514835,2.6266782841815033,-0.058775167631702985,-0.02077,0.04826,0.08063,18.3,-34.5,-13.98
48.4189,91.3791,0.8624145180309472,2.6867170515228014,-0.0982654218906287,-0.01222,0.06475,0.07391,18.12,-34.98,-13.86
48.4385,91.3992,1.0051768818710187,2.76636416944356,-0.18194075574521662,-0.011,0.05131,0.06781,18.48,-35.34,-13.14
48.4588,91.4191,1.118370273657358,2.854454080766986,-0.298584993323038,0.01405,0.08491,0.0391,18.48,-35.76,-13.26
48.4789,91.4391,1.1906363172656276,2.9373063120237455,-0.42849147980098223,0.0562,0.07269,-0.00061,18.18,-35.58,-12.9
48.5001,91.4592,1.2186011180936949,3.0015520785615397,-0.5470150196875725,0.06353,-0.00855,-0.011,18.0,-35.34,-12.84
48.5201,91.4792,1.2081836781221513,3.037730767313283,-0.630277166637379,0.02627,-0.03299,-0.02566,17.34,-35.28,-13.26
48.5399,91.4991,1.17335004050758,3.0383950619910056,-0.6596749785181668,-0.00916,0.03299,-0.05009,17.28,-35.16,-13.14
48.5594,91.5192,1.1295358987389756,3.003617754306396,-0.6277731733621366,-0.02321,0.05925,-0.09407,17.82,-35.64,-12.96
48.5799,91.5392,1.0912544183504123,2.944837643541581,-0.5429833001021045,-0.0617,-0.01283,-0.09835,17.64,-35.76,-13.02
48.6011,91.5591,1.0680837207432998,2.8822994979280483,-0.4291179756995547,-0.08613,-0.04337,-0.10446,17.64,-35.94,-13.26
48.6186,91.5792,1.061295675480853,2.8349746410496492,-0.31852200693274746,-0.07758,-0.02566,-0.1124,17.46,-35.4,-13.14
48.6386,91.5991,1.0683957590269435,2.825338520752498,-0.246416349985358,-0.0617,0.0055,-0.1014,16.74,-35.1,-13.14
48.6585,91.6191,1.0706820576323755,2.857159566231754,-0.23352092786883993,-0.01588,0.00367,-0.09713,16.8,-34.8,-12.78
48.6851,91.6392,1.0513529888564086,2.9235626628960074,-0.2837112687471315,0.01955,-0.02138,-0.11301,16.5,-34.8,-12.72
48.6986,91.6592,0.9696991484654612,3.0074761145752023,-0.3801902290839667,0.02566,-0.00794,-0.1576,16.56,-35.22,-12.66
48.7272,91.6791,0.8509346023709257,3.085156522719757,-0.5006806753663984,-0.00244,0.011,-0.18937,16.8,-35.22,-13.2
48.7388,91.6991,0.6526560756893686,3.119840309750253,-0.6085512667139454,-0.05864,0.00794,-0.20708,17.04,-35.1,-14.04
48.7611,91.7192,0.4420495067175775,3.112329439292654,-0.6921482428108767,-0.08125,0.03543,-0.23091,17.4,-34.56,-14.28
48.7807,91.7391,0.22102196953925685,3.0569766732493107,-0.7386213049672037,-0.0788,0.08186,-0.2474,17.7,-34.14,-14.7
48.8012,91.7591,0.029020286498416762,2.98182424024297,-0.7557709714780554,-0.08674,0.01405,-0.21686,17.94,-33.72,-14.58
48.8206,91.7791,-0.10372481471512307,2.915419158053305,-0.7543960018633236,-0.14539,-0.08613,-0.11606,18.48,-33.9,-14.28
48.8386,91.7991,-0.1517549333543116,2.8822567376513257,-0.7425452657813683,-0.14539,-0.02627,-0.04459,18.6,-33.66,-14.34
48.8584,91.8191,-0.11070110067492703,2.8963822164560766,-0.7204810644577879,-0.06109,0.04459,0.04032,18.78,-33.48,-14.22
48.8787,91.8392,0.0012000683323020083,2.952087534306828,-0.6789899598417275,-0.03726,0.02505,0.13989,19.02,-33.54,-14.34
48.9018,91.8591,0.15013516485170056,3.032826341661536,-0.6075198643725574,-0.09774,-0.08674,0.20097,18.84,-33.12,-14.7
48.922,91.8791,0.3197475547818501,3.1072184801217473,-0.4999597248100347,-0.16616,-0.11484,0.2138,18.84,-33.18,-14.82
48.9386,91.8992,0.48810979763536294,3.140374879880124,-0.36110807374701537,-0.18692,-0.05131,0.15516,18.84,-33.06,-14.94
48.9591,91.9191,0.6203818318822266,3.1236094487845785,-0.21152530664743097,-0.18204,0.01038,0.10996,18.66,-33.18,-15.06
48.9807,91.939,0.7089706609824654,3.053353111559965,-0.07539251103360911,-0.15821,-0.0055,0.12156,18.66,-33.18,-15.06
48.9986,91.959,0.7584783693669161,2.948114292286736,0.02012627396640454,-0.09285,-0.01344,0.13561,18.54,-33.0,-14.94
49.0206,91.9792,0.7728853982530485,2.8520864512070365,0.0492684482614667,-0.0898,0.01344,0.10873,18.54,-33.48,-15.36
49.0385,91.9991,0.7758670638232174,2.7931324043375985,0.0006681517884015165,-0.10751,0.09957,0.09407,18.42,-33.54,-15.24
49.0595,92.0201,0.7739351383726881,2.7962187564866317,-0.12378180599331046,-0.09285,0.135,0.08919,18.36,-33.72,-15.06
49.0818,92.0402,0.7702685396530032,2.857380118720751,-0.3027570977950589,-0.05376,0.11423,0.08735,18.6,-34.2,-15.42
49.1028,92.0602,0.7626220163028713,2.956587145415632,-0.5001185938769197,-0.0055,0.09468,0.09041,18.84,-33.78,-15.24
49.1197,92.0801,0.7528107172978185,3.0705900342984176,-0.6741100699200366,0.06414,0.10751,0.13073,18.66,-33.48,-15.36
49.14,92.1002,0.742696090973089,3.167987681304922,-0.784287908077026,0.06292,0.0898,0.14416,18.42,-33.48,-15.24
49.1614,92.1202,0.7417193870903723,3.2305729055789807,-0.8090659003689833,0.00733,0.06231,0.10812,18.24,-33.36,-15.06
49.1805,92.1401,0.7590524547483634,3.2462902278253862,-0.7487577496160185,-0.10201,0.13073,0.0336,18.24,-33.78,-15.18
49.2002,92.1601,0.7990475051370173,3.216363492895261,-0.6272461905145779,-0.2303,0.19853,0.00916,18.36,-33.9,-15.12
49.2197,92.1802,0.8606121020317289,3.1512361404088467,-0.4841990500978035,-0.22419,0.18998,-0.00367,18.48,-33.78,-14.82
49.24,92.2001,0.9379622764005066,3.076064645810988,-0.3656861061075567,-0.12462,0.16982,-0.01222,18.36,-33.84,-14.76
49.2612,92.2201,1.0207076071650552,3.0210216600886786,-0.3071849366866868,-0.02138,0.13622,0.03604,18.06,-33.84,-14.46
49.2809,92.2402,1.0962749104311829,3.0131930076096314,-0.3218400508805548,0.00367,0.12889,0.07575,18.12,-33.66,-14.52
49.3024,92.261,1.1540030549101858,3.0629223032614243,-0.3970308122542079,-0.01588,0.12034,0.06597,18.12,-34.08,-14.76
49.3289,92.2822,1.1847591202800645,3.1589374825038767,-0.5019247342843318,-0.02566,0.12034,0.05315,18.42,-34.2,-14.82
49.3439,92.3022,1.1816830569709948,3.2636127384767297,-0.5971336758368633,-0.05803,0.1069,0.0281,18.24,-33.78,-14.76
49.3618,92.3221,1.1507873438977783,3.3536992633694274,-0.6583174478494822,-0.09896,0.07636,-0.01588,18.42,-34.2,-14.76
49.3829,92.3422,1.1030009701749381,3.4093456061163634,-0.6751865836530371,-0.10018,0.08186,-0.04581,18.42,-34.08,-14.76
49.4016,92.3622,1.0472445650812474,3.419300675623705,-0.6507141677334438,-0.08369,0.07391,-0.06414,18.3,-34.02,-14.1
49.4246,92.3844,0.9982771770829177,3.3981916899763736,-0.6038657138967043,-0.06475,0.07086,-0.07636,18.48,-34.32,-14.16
49.4422,92.4027,0.9549918520686392,3.3540076602051325,-0.5494998360715968,-0.08735,0.04643,-0.08247,18.72,-34.08,-14.28
49.4689,92.4222,0.9304936229101098,3.3170089143118378,-0.5080181823583416,-0.10201,0.03848,-0.09285,18.48,-33.78,-14.58
49.4851,92.4422,0.9039512434411434,3.274010248634928,-0.4748850481837028,-0.10629,0.07636,-0.11118,18.9,-33.9,-15.18
49.502,92.4622,0.8781808907048996,3.2407231620463146,-0.4531971994576942,-0.07453,0.05925,-0.10751,19.02,-33.96,-15.12
49.522,92.4822,0.8490750450212394,3.2197614633915523,-0.43789238693921284,-0.05192,0.03787,-0.08674,18.9,-33.84,-15.24
49.5416,92.502,0.8127955158596373,3.210106525039566,-0.4237169777536298,-0.03787,0.01649,-0.07636,19.2,-33.78,-14.94
49.5628,92.5222,0.775848680890729,3.21286020911021,-0.4114845886812617,-0.08369,0.01466,-0.08063,18.9,-33.48,-14.76
49.5817,92.5422,0.7413495596896846,3.2193304795416475,-0.4039489490393713,-0.11973,0.04337,-0.06903,18.84,-33.36,-14.94
49.6507,92.5622,0.7520554142624002,3.26514491287824,-0.42584041843185894,-0.07025,0.10201,-0.06781,18.42,-33.48,-15.06
49.6573,92.5821,0.7098370252449585,3.2684599737151903,-0.44931076434851924,-0.00122,0.08613,-0.0617,18.36,-33.84,-14.82
49.66,92.6022,0.6628458829810749,3.2819187649730006,-0.4986587210390301,-0.0055,0.01527,-0.03482,18.36,-33.36,-15.0
49.6713,92.6222,0.6181347672523344,3.3138427236433614,-0.5702519707401343,-0.05803,0.03299,-0.03115,18.3,-33.3,-14.76
49.7044,92.6421,0.5956194773787878,3.372487192202023,-0.6522546394161619,-0.04826,0.10385,-0.05192,18.78,-33.12,-14.46
49.7056,92.6622,0.5484564126864623,3.423185552286862,-0.7078480017526108,-0.02627,0.16738,-0.05315,18.84,-33.3,-14.52
49.7236,92.6822,0.5239928666135754,3.479835421067852,-0.7267613856150685,-0.0617,0.14783,-0.02871,18.84,-33.12,-14.52
49.7422,92.7022,0.4993315698082805,3.5148629633888,-0.6899849623636971,-0.11118,0.0843,0.02321,18.78,-33.12,-14.76
49.763,92.7222,0.4763379430346181,3.5122552447589253,-0.6000281480586551,-0.1295,0.04337,0.06903,18.54,-33.12,-14.64
49.791,92.7422,0.46399325552259874,3.4678347263040266,-0.47749067287754876,-0.15211,0.02871,0.07575,18.18,-32.76,-14.76
49.8035,92.7632,0.4779789869749942,3.3622056831381717,-0.34241424943536103,-0.12828,0.1124,0.03665,18.3,-33.36,-14.82
49.8225,92.7831,0.5161590312079863,3.2438548260564364,-0.23352493617798942,-0.08369,0.20586,-0.01222,17.76,-33.66,-14.64
49.8425,92.8032,0.5713086877244492,3.1384841728234814,-0.1689463563514284,-0.12401,0.15088,0.05803,17.7,-33.6,-14.76
49.863,92.8232,0.6407447856566765,3.0729342772408814,-0.15634382843120243,-0.13317,0.06781,0.17226,18.24,-33.9,-14.82
49.8828,92.8431,0.7333611485137028,3.0654475605774003,-0.19421131458494933,-0.01894,0.00122,0.27855,18.24,-33.6,-14.64
49.9038,92.8632,0.8517752386523914,3.1259303618008296,-0.27566524794417013,0.09896,0.02382,0.3146,18.66,-33.24,-15.3
49.9255,92.8832,0.9894852272546786,3.256127513844289,-0.39283024235645847,0.13683,0.04459,0.30727,18.72,-33.54,-15.3
49.9425,92.9031,1.1348619067958574,3.4494094609207364,-0.5412761490267499,0.07575,0.04581,0.28894,18.6,-33.18,-15.24
49.9623,92.9231,1.248972996617094,3.6636964902207207,-0.7073306390845069,0.02443,0.03848,0.23824,18.36,-33.54,-15.42
49.984,92.9432,1.3129589562579016,3.8603914686492122,-0.8818597494212348,0.06903,0.05864,0.15149,18.12,-33.66,-15.0
50.0035,92.9631,1.313238717048779,4.006095934672748,-1.0537857710477585,0.13073,0.06231,0.06842,17.94,-33.18,-14.64
50.0229,92.9831,1.2402244832027676,4.074366378246909,-1.205153628537074,0.13073,0.07086,0.01466,17.4,-33.42,-14.76
50.0441,93.0032,1.1014698619705003,4.051092221992726,-1.3136194928189404,0.05315,0.02688,-0.06292,17.34,-33.36,-14.1
50.0627,93.0231,0.9140013368025007,3.9394346776268403,-1.3558139245639538,0.07025,0.10018,-0.15394,17.4,-33.72,-13.74
50.0842,93.0431,0.7214179532786882,3.758956946950538,-1.3142663228353069,-0.08002,0.03971,-0.24984,17.34,-34.02,-13.62
50.1026,93.0631,0.5511731962519584,3.540457297695788,-1.1800769428458686,-0.20708,0.08858,-0.29199,17.52,-34.26,-13.38
50.1225,93.0831,0.446957850297582,3.34353238159517,-0.9746031685983354,-0.24496,0.12217,-0.25229,17.7,-34.08,-13.86
50.1424,93.1031,0.42566525294443114,3.216812386955344,-0.7347729390041096,-0.26756,0.07269,-0.13561,18.0,-33.9,-13.62
50.1644,93.1231,0.48842167476905474,3.200100278450486,-0.5114003919622334,-0.24557,0.02199,0.00733,18.18,-33.78,-14.1
50.1832,93.1431,0.6233560642622346,3.290989412562414,-0.34456052662922154,-0.13622,-0.04276,0.13317,18.66,-33.3,-14.16
50.2026,93.1631,0.7959465640644784,3.4733737955258475,-0.2594439904236161,0.01405,-0.04887,0.1912,18.96,-33.36,-13.86
50.2232,93.1832,0.9632635951724398,3.701014749485216,-0.2540711760758718,0.07514,-0.00122,0.19731,19.2,-33.42,-14.16
50.2433,93.2032,1.087550161718713,3.919722398080136,-0.3086458411176167,0.03787,0.02749,0.16616,19.32,-33.84,-14.16
50.2635,93.2242,1.1431472199029251,4.074343701832133,-0.3925343788076603,-0.02566,0.02993,0.08186,19.08,-33.9,-14.46
50.2836,93.2441,1.1279240120794476,4.126598628812459,-0.47608345856337664,-0.09468,0.00183,-0.02199,19.14,-33.96,-14.88
50.3046,93.2642,1.0581098319407578,4.069514240499415,-0.5402467052998947,-0.09774,0.03299,-0.10324,18.78,-33.9,-14.34
50.3236,93.2842,0.9550300289372725,3.927305679976121,-0.5798850125902177,-0.02443,0.07819,-0.10385,18.3,-33.78,-14.28
50.3451,93.3041,0.847653826836922,3.7530344771059707,-0.6063878890511898,0.03176,0.07819,-0.07819,18.42,-33.66,-14.34
50.3635,93.3241,0.7513868462531177,3.6003296804744855,-0.63378889880887,0.02077,0.05437,-0.06109,18.18,-33.78,-14.34
50.3872,93.3442,0.6880029607419244,3.5071825364705354,-0.6735398551548162,-0.02199,0.03604,-0.05437,18.06,-33.54,-14.82
50.4049,93.3652,0.6539273488921936,3.4802288721903656,-0.7252020914691055,-0.02627,0.06964,-0.0562,18.6,-33.66,-15.0
50.4254,93.3851,0.6494420004845677,3.5076762408135065,-0.7825056004313673,-0.00489,0.08796,-0.03665,18.78,-34.2,-14.94
50.4444,93.4051,0.660888488868959,3.563411160614253,-0.8316304058284718,0.0226,0.07697,0.00244,18.72,-34.08,-14.82
50.468,93.4251,0.6819782320152645,3.6232980457406083,-0.8586426799549738,0.03482,0.04887,0.03176,19.02,-34.32,-15.0
50.4847,93.4451,0.7093000936870126,3.6787213323846135,-0.8566931424319542,0.03176,0.02382,0.0391,18.9,-34.32,-14.94
50.5078,93.4651,0.7455794188767001,3.7237065622952668,-0.8243907956174201,0.00061,0.0055,0.02321,18.78,-34.26,-14.82
50.5254,93.4851,0.7950373095032186,3.759321568273858,-0.7698713159530239,-0.07391,0.04398,0.01833,18.84,-34.32,-14.64
50.5454,93.5052,0.854700448227642,3.791462093642406,-0.7097264082700274,-0.09529,0.04398,0.05315,18.84,-34.32,-14.04
50.5659,93.5251,0.9184937313117302,3.821791422027293,-0.6628430412457309,-0.04276,0.01588,0.07208,18.36,-33.96,-13.86
50.585,93.5451,0.9749782290068536,3.855868668753252,-0.6481189210951328,0.04276,-0.00367,0.07086,18.48,-34.02,-13.68
50.6046,93.5652,1.0080186183416535,3.898941982634097,-0.677013375957479,0.06842,-0.01222,0.06842,18.42,-34.08,-14.22
50.6247,93.5851,1.0063685043576358,3.949529041604052,-0.7484030432329796,0.00672,-0.03238,0.04215,18.12,-34.2,-14.7
50.6449,93.6051,0.9690648305791197,3.995877689168447,-0.8467833075473798,-0.04948,-0.01833,0.01222,18.72,-34.32,-14.52
50.6643,93.6252,0.9035428985618629,4.02076814908193,-0.9450034950061035,-0.01894,0.02749,-0.0391,18.24,-34.08,-14.34
50.6853,93.6451,0.8233057145359483,4.012995560149898,-1.0126943466980567,0.01161,0.09163,-0.08919,18.3,-33.84,-14.04
50.7069,93.6651,0.7415324896684213,3.9699194810670275,-1.0241824191071736,-0.02627,0.08674,-0.10079,18.72,-33.84,-13.86
50.7244,93.6852,0.6739155667735571,3.895367948167749,-0.9671959158327095,-0.07208,-0.00733,-0.04948,18.6,-33.84,-14.4
50.7453,93.7051,0.6433802744850223,3.8070420955194475,-0.8533352754082753,-0.08858,-0.09529,-0.01527,18.84,-34.08,-14.46
50.7649,93.7251,0.6637890021961222,3.7221124482246846,-0.7113002340631294,-0.07208,-0.08002,-0.01588,18.96,-33.96,-14.22
50.7847,93.7452,0.7307563144599334,3.6639820082303327,-0.5837078191484846,-0.05437,-0.01038,-0.01466,18.72,-33.96,-14.4
50.8045,93.7651,0.8218007951431375,3.6489446141129838,-0.5109429896702,-0.08125,0.03238,0.02505,18.66,-34.2,-13.86
50.8268,93.7851,0.9064881988017169,3.6811924988960927,-0.5182047094088862,-0.05315,0.01649,0.04948,18.6,-34.02,-13.98
50.8455,93.8052,0.9658915251015594,3.7533138762583547,-0.6087548648275458,0.04215,-0.01955,0.06414,18.42,-34.2,-14.1
50.8646,93.8251,0.990837082175229,3.853078937889675,-0.7640941127794978,0.10507,-0.03176,0.03848,18.18,-34.08,-13.68
50.8853,93.8451,0.9833562073803847,3.963727715309101,-0.9488198700330788,0.08735,0.04154,0.01038,18.42,-33.84,-13.62
50.9045,93.8652,0.9484220806245764,4.066637739148057,-1.1202444825846776,0.01222,0.1069,-0.01527,18.3,-34.02,-13.56
50.9244,93.8851,0.8977510116861553,4.139321879205921,-1.2379853318777752,-0.05376,0.06414,-0.02749,18.36,-34.02,-13.44
50.9456,93.9051,0.8472701683898389,4.169321293681237,-1.2778918692116612,-0.06842,-0.01466,-0.04032,18.84,-34.02,-13.38
50.9644,93.9251,0.8128966873786753,4.156418038935676,-1.2368041471108864,-0.05925,-0.011,-0.04704,18.72,-34.14,-13.5
50.9842,93.945,0.8041979933600697,4.118853501451923,-1.1344967780898383,-0.08491,0.01344,-0.03726,18.84,-34.14,-13.68
51.0044,93.9651,0.8179728625763725,4.076398122030482,-1.0006622327716492,-0.10568,0.03971,-0.03848,18.72,-34.2,-13.68
51.0245,93.9851,0.8410090494375199,4.043993037899796,-0.8665403422644857,-0.11423,0.02627,-0.04032,18.6,-33.96,-14.04
51.0443,94.0051,0.8590989068010837,4.02865098105919,-0.7586619053488981,-0.10751,-0.03482,-0.02321,18.9,-33.96,-14.1
51.0661,94.0251,0.8639861249594,4.0329624167513725,-0.6958631395716814,-0.09774,-0.03543,-0.01283,19.2,-33.9,-13.92
51.0854,94.0451,0.8555236398376923,4.048912910168805,-0.6825593165156043,-0.07697,0.00916,-0.02749,19.14,-33.96,-14.22
51.1042,94.0651,0.8334312870183432,4.070306904301871,-0.7115960975169475,-0.05192,0.07391,-0.05681,19.14,-34.38,-14.34
51.1247,94.0851,0.7993277737356307,4.088075285259741,-0.7642931750629387,-0.04337,0.07514,-0.05925,19.14,-34.44,-14.16
51.1448,94.1051,0.7543716604077334,4.091653469051245,-0.8165198858632223,-0.0562,0.03482,-0.04154,18.96,-34.32,-14.22
51.1644,94.1251,0.7065791930121773,4.077870459667108,-0.8505078843651557,-0.05681,-0.00061,-0.01894,19.26,-34.44,-14.4
51.1844,94.1451,0.6670213037222787,4.052290355597854,-0.8603588009641978,-0.05131,0.00611,-0.01161,19.62,-34.5,-14.4
51.2051,94.1651,0.6442862629891201,4.02572318718878,-0.8511552104716689,-0.07269,0.00794,-0.03238,19.38,-34.74,-14.82
51.2384,94.1851,0.6450929702233057,4.018423944868804,-0.8382805691650326,-0.09957,0.05803,-0.03726,19.5,-34.8,-15.06
51.2451,94.205,0.6493290365477737,4.002571293564646,-0.8156795627753297,-0.07269,0.10507,-0.01955,19.5,-34.2,-14.94
51.2647,94.2251,0.6672698526583233,4.00966051979591,-0.8044294348108831,-0.03848,0.09285,0.02566,19.02,-33.72,-15.12
51.2845,94.2451,0.6909519206487554,4.03039316010405,-0.8033124956595312,-0.02688,0.03482,0.05253,19.26,-33.18,-15.24
51.305,94.2651,0.7211343203271937,4.065025430692597,-0.8144530252292785,-0.04459,-0.011,0.03971,19.32,-33.3,-14.88
51.3246,94.2851,0.758278121516116,4.109897860355652,-0.8382832885170401,-0.07514,0.04581,0.02505,19.32,-33.48,-14.4
51.3456,94.3051,0.796712169443934,4.157696983644549,-0.8733371839314952,-0.1124,0.10996,0.01283,19.56,-33.9,-14.04
51.3677,94.3251,0.8272344393227736,4.195721859233336,-0.9140731054284217,-0.10201,0.10324,0.0226,19.62,-34.08,-13.74
51.3847,94.3451,0.8402265206801753,4.213900658381383,-0.9531737290922422,-0.0391,0.09407,0.0391,19.5,-34.02,-14.04
51.4044,94.3651,0.8329668919214216,4.219243518359926,-0.9890431336004646,0.02505,0.03665,0.04765,19.86,-34.44,-14.58
51.4274,94.3851,0.8069243723667433,4.221747962027172,-1.0203504356150948,-0.02382,0.0281,0.0336,19.92,-34.38,-14.88
51.4445,94.4051,0.7721832879644988,4.225031953608339,-1.043612783664699,-0.11362,0.08369,0.03665,19.68,-33.96,-14.94
51.4653,94.4251,0.7399202868019094,4.23548912081682,-1.0576500415127104,-0.12401,0.06536,0.02199,19.8,-33.66,-15.12
51.487,94.4451,0.7269742781063377,4.249334006217173,-1.0573385022974122,-0.08858,0.03848,0.02321,19.38,-33.66,-15.0
51.5043,94.4651,0.7479214960138519,4.267339603463532,-1.0396696384521888,-0.02993,0.02993,0.04032,19.08,-33.84,-15.0
51.5245,94.4851,0.8076714777804259,4.29909024061982,-1.0066395692414432,-0.01038,0.06231,0.09468,19.32,-34.08,-14.7
51.5443,94.5051,0.9046840670847145,4.345658555984561,-0.9605633765483681,-0.04704,0.02382,0.12706,19.32,-34.38,-14.52
51.5644,94.525,1.0283517867452159,4.397955518049678,-0.9066661733004917,-0.07819,-0.04826,0.11362,19.2,-33.96,-14.64
51.5843,94.5451,1.1621220873073699,4.4383800564204146,-0.8546061129229336,-0.06353,-0.07208,0.06964,19.02,-33.78,-14.64
51.6063,94.5651,1.2799090433911415,4.450895566327786,-0.8179556565428197,-0.00244,0.03787,0.00122,18.72,-34.08,-14.64
51.6242,94.585,1.3479591264915347,4.427328250771402,-0.8085573315691672,0.02993,0.11179,-0.06414,18.72,-34.38,-14.64
51.645,94.6051,1.3465046612806286,4.371757877808011,-0.8343807702163044,0.01955,0.06903,-0.12095,18.6,-34.56,-14.4
51.6656,94.6251,1.267920625638979,4.296445713454311,-0.8950945180516232,-0.02077,0.02749,-0.15149,19.02,-34.08,-14.22
51.6845,94.645,1.127155453883277,4.2177183145295745,-0.9836825699508616,-0.03971,0.06903,-0.17776,19.26,-34.14,-14.28
51.7044,94.6651,0.9572246980072566,4.156657670052008,-1.0894219739703868,-0.05253,0.16127,-0.2022,19.26,-34.08,-14.04
51.7261,94.6851,0.787557618533442,4.1311052081436666,-1.1951186138799343,-0.06353,0.19059,-0.19059,19.62,-34.08,-13.92
51.7449,94.705,0.6335091755631406,4.145504337090747,-1.2766019128952166,-0.07575,0.13744,-0.13256,19.44,-34.08,-13.92
51.7666,94.7251,0.527000097328337,4.205437896869714,-1.31758406211725,-0.07147,0.0733,-0.0562,19.98,-34.26,-13.62
51.786,94.7451,0.4841023638796175,4.296861912684706,-1.3016096755996553,-0.05925,0.01161,0.00122,20.28,-33.84,-14.22
51.8043,94.765,0.5150768932893381,4.4020036442661725,-1.2250544456635897,-0.05864,0.05009,0.02993,20.22,-34.2,-14.52
51.8243,94.7851,0.6100193267128107,4.498531778412595,-1.0978005811933809,-0.11301,0.0843,0.02627,20.7,-34.44,-14.34
51.8486,94.8051,0.7438067687213814,4.56689851959933,-0.9444227320362426,-0.15699,0.04093,0.03176,20.28,-34.08,-14.7
51.8657,94.8251,0.8880088122080694,4.576573734589057,-0.7903545327515786,-0.14111,-0.00183,-0.01588,20.1,-34.02,-14.34
51.8844,94.845,1.0074366079998738,4.5367602645521545,-0.6772096050129868,-0.1179,0.04643,-0.03238,20.34,-33.78,-13.8
51.9101,94.8651,1.0758578207160305,4.464535366996595,-0.6367544139921044,-0.06475,0.01161,-0.06109,20.1,-33.78,-14.28
51.9244,94.8851,1.0692120831390726,4.373396480943234,-0.6773710065792109,-0.01588,-0.03787,-0.07208,19.98,-33.9,-13.98
51.9442,94.905,0.9897173614217004,4.297563534643051,-0.7971999640575902,0.00977,0.02077,-0.04093,19.98,-33.84,-14.34
51.9651,94.9251,0.8500502964196558,4.256032067225255,-0.9697129758312233,0.02077,0.02627,-0.03726,19.98,-33.66,-14.64
51.9856,94.9451,0.6797696040784621,4.257822126164429,-1.1565067364277013,-0.00428,0.04826,-0.04581,19.98,-33.78,-14.34
52.0061,94.965,0.5176672105159017,4.299064051474439,-1.3156796143843863,-0.04948,0.08063,-0.04337,19.98,-33.48,-14.64
52.0254,94.9851,0.3998043774068701,4.365190678744079,-1.4109166432618174,-0.08063,0.10934,-0.02993,20.22,-33.6,-14.16
52.0443,95.0049,0.3535540332370898,4.439581805508946,-1.4213359569410748,-0.08186,0.11301,-0.00122,19.92,-33.36,-14.04
52.0644,95.0251,0.3898873052313564,4.509053926870785,-1.3462279050125883,-0.08552,0.04398,0.06353,19.86,-32.88,-13.98
52.0849,95.0451,0.5029664538156483,4.565856315725678,-1.2050112391948726,-0.08613,-0.02443,0.12706,20.22,-33.0,-13.86
52.105,95.0651,0.6721073247792423,4.609257118996563,-1.0341341849106964,-0.05803,-0.04215,0.13867,20.04,-32.94,-13.74
52.1244,95.085,0.8601543965277804,4.6395028154957805,-0.8764537529642098,-0.12462,0.03238,0.08369,20.16,-33.18,-14.04
52.146,95.1051,1.017905752965708,4.656663520187538,-0.7700796627140978,-0.13806,0.06597,0.04337,20.52,-33.6,-14.22
52.1645,95.1251,1.106122105036196,4.65361144083038,-0.7353076438441395,-0.07025,0.06903,0.04215,20.22,-33.6,-14.34
52.1844,95.145,1.1034106126998244,4.636299161452253,-0.7778484363881439,-0.0055,0.05131,0.04887,20.4,-33.72,-14.76
52.2048,95.1651,1.0195394462057137,4.6119559341495995,-0.8824635515469268,0.01344,0.06353,0.01588,20.28,-33.78,-14.52
52.2257,95.1851,0.8872529373456172,4.587781195391648,-1.0168458494212231,-0.00305,0.11973,-0.01955,19.74,-33.72,-14.7
52.2452,95.2051,0.7477136602387123,4.565414791574445,-1.138959328548811,-0.00611,0.13683,-0.02199,19.98,-33.9,-14.34
52.2646,95.2251,0.6427766273351035,4.543645300443337,-1.2123322331478494,-0.01283,0.12706,0.00489,19.8,-33.84,-14.16
52.2843,95.2451,0.6014947086150646,4.523165132478025,-1.2195770684957452,-0.04704,0.06658,0.02993,19.86,-33.48,-14.16
52.3044,95.2651,0.6325336219132277,4.507555271651358,-1.167958469281647,-0.07575,0.03421,0.04032,19.98,-33.6,-14.1
52.3251,95.285,0.7218831045482922,4.501390923350256,-1.0854683896664419,-0.08674,0.00489,0.06781,19.56,-33.72,-14.52
52.3509,95.3051,0.8350703425965236,4.50894805305577,-1.0099246563002087,-0.03665,0.00794,0.08796,19.5,-33.72,-14.46
52.3644,95.3251,0.9481485749948043,4.533064241765839,-0.9765962734379272,0.00794,0.03421,0.10201,19.38,-33.9,-14.88
52.3847,95.345,1.0207581131630061,4.571946243639506,-1.0007626579774325,0.04093,0.05864,0.09224,19.92,-33.84,-14.64
52.4044,95.3651,1.0442480491344661,4.623018246908982,-1.0783537914129973,0.03787,0.08552,0.04948,19.74,-33.66,-14.46
52.4245,95.385,1.0229187525093748,4.677691607712347,-1.1851805212416124,0.04093,0.13867,0.03665,19.98,-33.66,-14.52
52.4443,95.405,0.971889957195424,4.728013219856494,-1.290971969836047,0.01588,0.10324,0.01894,19.98,-33.9,-14.1
52.4645,95.4251,0.9105737841043197,4.769329650069808,-1.3723468200935365,-0.02016,0.03604,-0.01405,19.02,-34.38,-14.16
52.4846,95.4451,0.8548682060342009,4.800134807920941,-1.4193798145584466,-0.06842,0.03482,0.011,18.9,-34.08,-14.16
52.5097,95.4651,0.8125012442062178,4.82295209502243,-1.4356632872485946,-0.09102,0.01588,0.00916,18.84,-34.08,-13.92
52.5244,95.4851,0.7874785931858751,4.828557161360336,-1.4238649074019047,-0.05803,0.01405,-0.00916,18.6,-34.02,-13.86
52.5445,95.5051,0.7727924873780775,4.825078430629437,-1.3948079834365075,-0.00305,0.01649,-0.00733,19.38,-33.3,-13.74
52.5654,95.525,0.7626305030649275,4.813158448412087,-1.3509803698857628,0.00794,0.06658,-0.00855,19.62,-33.6,-13.8
52.5862,95.5451,0.7522401112742402,4.796475336131796,-1.294568982036001,-0.06842,0.04948,-0.00916,18.96,-33.66,-13.5
52.6044,95.5651,0.7417702496338862,4.775575187560685,-1.229133206077723,-0.13195,0.02382,-0.02871,18.84,-33.36,-13.86
52.6259,95.585,0.7337302146594414,4.759975129888433,-1.1688251454448793,-0.14844,-0.00489,-0.02382,18.3,-33.78,-13.86
52.6444,95.6051,0.7349251159265919,4.74565676907847,-1.1233567324645968,-0.146,-0.03176,-0.02443,18.48,-33.6,-13.68
52.665,95.6251,0.7464019719317186,4.742509366865914,-1.1054288028766877,-0.10446,0.01894,-0.01772,18.6,-34.02,-14.16
52.6849,95.645,0.7682824114124105,4.748742173541055,-1.1109839291984915,-0.03115,0.0898,0.0171,19.14,-33.96,-14.04
52.7047,95.6651,0.7973207152648043,4.763961349217158,-1.1265894107118317,0.01222,0.0843,0.0226,19.74,-33.9,-14.22
52.7254,95.6851,0.8304409989440739,4.7858016138233594,-1.1360972750155884,0.01527,0.04093,0.00794,19.56,-33.84,-14.22
52.7467,95.7061,0.8642568795646398,4.811076963673853,-1.1321831815958916,-0.10079,0.00305,-0.02382,19.74,-33.24,-14.22
52.7663,95.7261,0.8942987702282412,4.830798849304883,-1.1194269746454086,-0.15882,0.03848,-0.04765,19.62,-33.54,-13.92
52.7855,95.746,0.9135567246148665,4.838862661621815,-1.1151752739355434,-0.16249,0.08002,-0.0617,19.08,-33.24,-14.04
52.8057,95.7661,0.915746778073821,4.8340229393925735,-1.1387574082019967,-0.08552,0.09163,-0.02321,19.32,-33.42,-14.04
52.8255,95.7861,0.8978216202676869,4.819458451474053,-1.197804121326083,0.01466,0.09591,-0.01833,19.44,-33.48,-14.04
52.8469,95.8071,0.8659523645305576,4.8061680630359795,-1.2848084034414775,0.09529,0.13622,-0.04215,19.2,-33.48,-14.04
52.8691,95.8271,0.8303551804863135,4.805780589702076,-1.3789984874818249,0.02993,0.09407,-0.03604,19.38,-33.36,-13.86
52.8864,95.8471,0.8029175231666006,4.820980024544385,-1.4550800495175444,-0.06658,0.04765,-0.04093,19.32,-33.24,-13.62
52.9064,95.8671,0.8011783053681745,4.851334909210343,-1.4996387193129692,-0.10079,0.02016,-0.06536,19.38,-33.3,-13.32
52.927,95.887,0.8263601114583214,4.888324923370436,-1.5104671382193846,-0.13011,0.05559,-0.04826,19.68,-33.06,-13.38
52.9468,95.9071,0.8679648259157641,4.9218282841147145,-1.4959722120063539,-0.09652,0.07086,-0.011,19.5,-33.06,-13.08
52.9697,95.9271,0.9078336308393107,4.9472405273987405,-1.4701796016277253,-0.0281,0.06292,0.01955,19.62,-33.3,-13.2
52.9867,95.9471,0.9260277793374943,4.961181877307927,-1.442534557294941,0.03054,0.05803,0.0171,19.38,-33.18,-13.38
53.0065,95.9671,0.9150033579194229,4.9640892029201975,-1.4181968922045858,-0.02443,0.02016,-0.03665,19.38,-33.18,-13.74
53.0275,95.9871,0.87750652029078,4.956709550977801,-1.3979000471370604,-0.14844,-0.03787,-0.08063,19.56,-33.6,-14.34
53.0489,96.0071,0.8253310859690501,4.938901668631648,-1.380577414159184,-0.17226,-0.00183,-0.10263,19.74,-33.96,-14.7
53.0662,96.0271,0.7709480614607238,4.909379366034963,-1.3640350070160192,-0.10446,0.05315,-0.07758,19.86,-34.14,-14.7
53.0862,96.0471,0.7256599464895487,4.8881001944023925,-1.3568925386813167,-0.06964,0.02443,-0.02505,19.5,-34.38,-14.76
53.1067,96.0671,0.6944454679468959,4.882734772408481,-1.3570812429814367,-0.08247,0.03604,0.02199,19.86,-34.08,-14.58
53.1294,96.0871,0.6784683884860546,4.8968194365296185,-1.3578789041937398,-0.0788,0.05131,0.01772,19.56,-33.42,-14.4
53.1498,96.1071,0.6766399210179567,4.920600879668267,-1.346331414734065,-0.09163,0.0171,-0.00489,19.62,-33.0,-14.52
53.1664,96.1271,0.6847899920391931,4.938630624919145,-1.3112959608956132,-0.13256,0.00489,-0.02749,19.92,-32.88,-14.82
53.1866,96.1471,0.696765441808145,4.9504053960499395,-1.2568877059706338,-0.16371,0.03238,-0.03421,19.68,-32.88,-14.76
53.2063,96.1671,0.7117099310388612,4.948584939651896,-1.1887149984885195,-0.17471,0.04093,-0.01833,19.8,-33.0,-14.58
53.2278,96.1869,0.7296105887376817,4.9412216055135465,-1.1228453945470598,-0.10324,0.04032,0.00733,20.04,-33.18,-14.58
53.2467,96.207,0.7515893457132085,4.9346979351459614,-1.0724972550736336,-0.04887,0.05498,0.02505,20.4,-32.76,-14.22
53.2663,96.2271,0.7765900243778542,4.940647274152411,-1.0501166621158156,-0.0452,0.06353,0.06658,20.82,-32.7,-14.82
53.2875,96.2471,0.8035401703371254,4.961783746350527,-1.060123887987272,-0.0336,0.0336,0.07697,20.76,-32.76,-15.3
53.3068,96.2671,0.8339560323832003,4.993863305366591,-1.1015116467334298,-0.02321,0.01649,0.05437,20.64,-32.76,-15.54
53.3263,96.2871,0.8660348751542489,5.029600711577163,-1.16953004216451,-0.02443,0.01772,0.02566,20.22,-32.88,-15.78
53.3485,96.3071,0.8959175625957964,5.062232529709711,-1.2566105195165456,-0.01283,0.05009,0.02932,19.86,-32.88,-15.24
53.3664,96.327,0.9162177325591946,5.085800825288821,-1.351486772358328,-0.00061,0.09896,0.0452,20.22,-33.0,-15.12
53.3873,96.3471,0.9206560356407495,5.097694098547659,-1.4420404238175433,-0.00611,0.08125,0.03726,20.1,-33.24,-15.3
53.4069,96.3671,0.9045473624919028,5.097466661607086,-1.5171026032213977,-0.01283,0.02688,0.0336,20.4,-33.66,-15.18
53.4264,96.387,0.8672383341836547,5.087348671085644,-1.5693179493707206,-0.00122,0.01222,0.01038,20.76,-33.84,-15.42
53.4463,96.4071,0.8112258810587039,5.070543159353043,-1.5945969056581983,-0.03787,0.06048,-0.00916,20.76,-33.6,-15.3
53.4668,96.4271,0.7432593432188784,5.048923181671814,-1.5897632947550484,-0.10873,0.07758,-0.0171,20.82,-33.6,-14.94
53.4862,96.447,0.6749877087728897,5.022610142739739,-1.5512984296839196,-0.1014,0.07147,-0.00977,20.52,-33.66,-14.46
53.5064,96.4671,0.6229694894600808,4.998680904821835,-1.4813156619768808,-0.02138,0.05864,-0.01222,20.52,-33.78,-14.22
53.5265,96.4871,0.6029964749915557,4.987598229682233,-1.3877483130762354,-0.02993,0.02688,0.00794,20.7,-33.72,-14.34
53.5475,96.5071,0.6242762962951114,5.000552586980925,-1.2862704019145799,-0.07086,0.02993,0.04765,21.0,-33.78,-14.88
53.5685,96.5271,0.684576901517276,5.040265204068171,-1.1967577183322042,-0.08796,0.05803,0.07697,21.12,-33.84,-15.0
53.6036,96.5471,0.757358042048918,5.104656554829557,-1.141931099258727,-0.07208,0.01955,0.08491,20.4,-33.84,-14.94
53.6067,96.5669,0.8616757139404481,5.168436106977506,-1.1347744060055653,-0.03054,-0.02077,0.08552,20.04,-33.84,-14.58
53.6301,96.5871,0.9344120293595392,5.224991430367934,-1.1812994897707458,0.011,0.00244,0.0898,19.14,-33.36,-14.1
53.6483,96.6071,0.9803095834065728,5.267618042895035,-1.2755927967698018,0.0507,0.07269,0.07697,18.96,-32.7,-14.16
53.6677,96.627,0.9933146211863582,5.289066310802682,-1.392374235613259,0.06109,0.12278,0.04093,19.02,-32.7,-14.34
53.6865,96.6471,0.9773923685347254,5.290006887324278,-1.5027829661172287,0.0391,0.08858,-0.00183,18.72,-32.46,-14.46
53.7062,96.6671,0.9434470068586613,5.274743240909011,-1.5848029772673602,-0.00977,0.04826,-0.02199,18.9,-32.82,-14.46
53.7278,96.687,0.9013288264454682,5.251822292312685,-1.633338350831357,-0.06597,0.01038,-0.01344,19.2,-33.36,-14.1
53.7465,96.707,0.856631717622385,5.226823670060051,-1.6571697699152548,-0.05559,0.05131,-0.00367,19.08,-33.54,-13.98
53.7671,96.7271,0.8096213565471616,5.207802079420201,-1.6747100360625904,-0.02382,0.01283,-0.00061,19.32,-33.78,-13.92
53.7864,96.7471,0.7591985932253149,5.196203774568169,-1.6964604349678698,0.00489,0.04215,0.00428,19.5,-33.9,-13.5
53.8078,96.767,0.7085309103121817,5.1904019938364145,-1.7192977055140535,0.02382,0.08308,-0.01588,19.26,-33.72,-13.74
53.8267,96.7871,0.6612795269727146,5.185090471082773,-1.726511721602094,-0.00244,0.11118,-0.03054,19.44,-33.72,-13.86
53.8462,96.8071,0.6294537920777907,5.174558152980902,-1.6998283658722304,-0.06292,0.07697,-0.0391,19.74,-33.9,-14.16
53.8662,96.827,0.6222012879673072,5.1566703535002905,-1.6324738288189575,-0.13867,0.01038,-0.01466,20.22,-34.2,-13.98
53.8864,96.8471,0.6444057164680153,5.1354137980377965,-1.5374447375183316,-0.14661,-0.02993,-0.00367,20.94,-34.26,-13.92
53.9081,96.8671,0.6924010488142053,5.122600530832489,-1.4460217859800917,-0.11301,-0.0507,0.02932,21.06,-33.9,-13.5
53.9264,96.887,0.7584338549143568,5.128630788879907,-1.3919648851942785,-0.06109,0.02505,0.04093,20.88,-33.84,-13.44
53.9474,96.9071,0.8224904463520241,5.165648987015596,-1.3997842577315147,-0.01772,0.07697,0.03971,20.52,-33.3,-14.1
53.9663,96.9271,0.8686986273132957,5.231717371719496,-1.4685236109310136,-0.01344,0.09285,0.04032,20.04,-33.3,-14.34
53.9863,96.9471,0.8879620202021726,5.315192698475595,-1.5757623328087416,-0.02505,0.09285,0.02932,20.46,-33.24,-14.76
54.0068,96.9671,0.8796492529717417,5.397948447845076,-1.6875894614592255,-0.04643,0.04704,-0.01894,20.46,-33.3,-14.52
54.0263,96.9871,0.8509425489856061,5.461561220187657,-1.7715737349422636,-0.08796,0.03971,-0.02627,20.28,-33.42,-13.92
54.0462,97.007,0.8129938696795951,5.495803269216223,-1.807810487054958,-0.12584,0.02321,-0.01222,20.4,-33.36,-14.1
54.0672,97.0271,0.7774476664927414,5.499651170538502,-1.7904258496112675,-0.12034,0.09774,-0.03482,19.92,-33.6,-14.04
54.0865,97.0471,0.7520880937241544,5.477691030505442,-1.7229493357074048,-0.10263,0.1295,-0.05986,19.74,-33.6,-14.28
54.1064,97.0671,0.7432366446002219,5.447422079537002,-1.6220292188911785,-0.09163,0.06536,-0.06964,20.22,-33.66,-14.4
54.127,97.0871,0.7543445956544705,5.426005850124982,-1.5084281367541408,-0.10629,0.01405,-0.04948,20.28,-33.96,-14.16
54.1463,97.1071,0.7862495006163311,5.424099437327759,-1.4041648733106928,-0.09713,0.01527,-0.011,21.12,-33.72,-14.04
54.1674,97.1271,0.8324360607154826,5.446682570439091,-1.332124780032343,-0.08491,0.04337,0.02627,21.42,-34.2,-14.04
54.187,97.147,0.8791638091545054,5.48366484996164,-1.3060446989327392,-0.06964,0.05498,0.04276,21.3,-34.32,-14.76
54.2064,97.1671,0.9063957353743517,5.52274664586401,-1.3321281260692004,-0.03726,0.03482,0.0226,21.12,-34.08,-15.12
54.2275,97.1881,0.898847365207787,5.55190518865662,-1.405285681934135,0.00611,0.00244,-0.02566,20.52,-34.44,-15.24
54.2473,97.2081,0.8502952660738803,5.561584536921737,-1.5081962285102062,-0.02016,0.04276,-0.04643,20.22,-34.2,-15.6
54.2674,97.2281,0.7665367801207552,5.545928069895338,-1.6148193732695315,-0.04337,0.07636,-0.05986,19.92,-34.02,-15.12
54.2877,97.2481,0.6619662152920592,5.5019271334122495,-1.696300679936975,-0.02932,0.08125,-0.04765,19.68,-33.78,-14.82
54.309,97.2681,0.5578224300020429,5.433737659973244,-1.7322500648061947,-0.0226,0.02993,-0.01283,19.56,-34.08,-14.82
54.3284,97.2879,0.47793567718326024,5.354247577733596,-1.7181950071005652,-0.011,-0.01466,0.01222,20.04,-33.78,-14.46
54.3492,97.3081,0.44230601132146635,5.283712829234962,-1.6671600665502897,-0.04704,0.02199,0.01283,20.16,-34.02,-14.28
54.37,97.3281,0.4594499517367592,5.240400138077749,-1.6025600918459872,-0.08186,0.07941,-0.01344,20.58,-34.02,-14.28
54.3873,97.3481,0.5220044200231232,5.233847567575958,-1.550339316121736,-0.09774,0.10079,0.00305,20.88,-33.54,-14.16
54.4073,97.3681,0.6121091723902692,5.275227650332315,-1.5393350091354616,-0.0672,0.06536,0.06658,20.7,-33.54,-14.4
54.4286,97.3881,0.7084034779388698,5.365892292889514,-1.5862538369782868,0.00855,-0.00855,0.09896,21.3,-33.48,-14.64
54.4472,97.4081,0.7984318833838328,5.504778863068698,-1.6950683224138263,0.01649,-0.03421,0.13256,21.3,-33.6,-14.64
54.4673,97.428,0.8673284606452262,5.675159867409771,-1.8450896329393585,-0.01283,0.02382,0.12401,21.12,-33.48,-14.64
54.4878,97.4481,0.9088698692379895,5.847124680194986,-1.9948935675034312,-0.02566,0.11729,0.08735,21.12,-33.48,-14.88
54.5072,97.468,0.921824365048852,5.983446535324452,-2.091455361819275,-0.04459,0.10263,0.04032,20.88,-33.3,-14.88
54.5279,97.4881,0.9133574976507554,6.056289474894979,-2.0923549464971893,-0.06414,0.0055,-0.01527,20.7,-33.48,-14.64
54.5488,97.5091,0.8979290206785852,6.054452881072473,-1.9822081994955507,-0.10873,-0.03543,-0.05192,20.4,-33.6,-14.46
54.5686,97.5291,0.8912225712327096,5.982618910512213,-1.7784865981091826,-0.19792,-0.0391,-0.04948,20.4,-33.18,-13.86
54.5897,97.5491,0.8994301990181428,5.862825425088283,-1.5314678058140139,-0.18265,-0.02016,-0.05559,19.68,-33.36,-13.8
54.6095,97.569,0.9192131420662975,5.719367331468505,-1.3048881934390195,-0.09529,-0.05131,-0.04581,19.86,-33.48,-14.28
54.6283,97.5891,0.9370223500597644,5.585757277467719,-1.1656592542331978,-0.00794,-0.135,-0.01772,19.86,-33.36,-14.58
54.6484,97.609,0.9377586142512632,5.488805767304702,-1.156827178817176,0.06414,-0.07819,0.00428,19.62,-33.66,-14.58
54.6698,97.6291,0.9106719159060697,5.437025838965429,-1.2808185624849955,0.10201,-0.02382,0.04093,19.92,-33.48,-14.76
54.6902,97.6491,0.8465441575154194,5.4231391042202,-1.5015288091471568,0.17654,0.08369,0.06475,19.98,-33.66,-14.4
54.7084,97.669,0.7430995608742014,5.427620959832732,-1.7582456564291231,0.20036,0.06903,0.08186,20.28,-33.78,-14.28
54.7291,97.689,0.6145119789759527,5.4222597147707665,-1.9844880162007872,0.12401,-0.0226,0.01649,20.28,-33.72,-14.4
54.7485,97.7091,0.48104720719237193,5.39750715219662,-2.1380584926799324,-0.01466,-0.01222,-0.09041,20.28,-33.6,-14.1
54.7685,97.7291,0.3683081387076769,5.351191528392802,-2.1988254644287046,-0.12401,0.10079,-0.13439,20.1,-33.54,-13.8
54.7884,97.749,0.2959378037301976,5.293160479181755,-2.1707793409297933,-0.17593,0.16616,-0.10873,19.86,-33.42,-13.74
54.8088,97.7691,0.277942612667826,5.24535345179182,-2.079108769209018,-0.15394,0.11362,-0.04215,20.16,-33.36,-13.44
54.8283,97.7891,0.3216822548839215,5.233753867719466,-1.9589006408798166,-0.10263,0.03238,0.01955,20.1,-33.48,-13.2
54.8501,97.809,0.4247906721950109,5.285638932977441,-1.8476377979469163,-0.06597,-0.02566,0.07147,20.28,-33.12,-13.5
54.8685,97.8291,0.5781493316951802,5.410129839861734,-1.7711567264383028,-0.11484,0.01833,0.10324,20.7,-33.0,-13.38
54.8884,97.8491,0.7477689861348249,5.598450215414455,-1.744448611435045,-0.15638,0.06475,0.10263,20.7,-33.3,-13.74
54.9089,97.869,0.8974061144029203,5.819008144977602,-1.7683445920376162,-0.18387,0.02627,0.09774,20.58,-33.42,-14.04
54.9287,97.8891,0.9974188524624127,6.031987668676475,-1.834065359398723,-0.14661,0.00733,0.09591,20.16,-33.18,-14.58
54.9498,97.9091,1.0300536909576288,6.208677945902279,-1.9292112883626409,-0.05315,0.01833,0.07391,19.98,-33.18,-14.88
54.9685,97.9291,0.9992208910747099,6.332389123765696,-2.033914484305286,-0.04276,0.04643,0.05315,19.74,-33.36,-14.82
54.9886,97.9491,0.9210642428098472,6.399783344900701,-2.1211042348851317,-0.08369,0.08552,-0.00122,20.04,-33.3,-15.24
55.0088,97.9691,0.8272419172205362,6.4108976156575705,-2.156871598513087,-0.14539,0.05681,-0.04093,20.52,-33.84,-14.7
55.0305,97.9891,0.7554403613173969,6.372461393936346,-2.1151567976956667,-0.20769,-0.05315,-0.03299,21.0,-34.08,-14.34
55.0486,98.009,0.7444581061335468,6.287420384184704,-1.9822184510290572,-0.23946,-0.18326,0.02993,21.12,-33.96,-14.58
55.0685,98.0291,0.7963765275645481,6.177652290521325,-1.7807317658023347,-0.19487,-0.15577,0.03787,21.18,-33.84,-14.46
55.0888,98.0491,0.8915590508031518,6.054046043008345,-1.5470671315848499,-0.18692,-0.14722,0.09163,21.0,-33.66,-14.22
55.1094,98.069,0.9911954755044866,5.924610173110052,-1.3305509975311516,-0.18754,-0.34758,0.17532,20.4,-34.08,-14.94
55.1286,98.089,1.069839476598402,5.795819255820665,-1.1841512034854649,-0.135,-0.47647,0.13928,20.52,-34.08,-15.18
55.1484,98.1091,1.1025678500197633,5.677152917036885,-1.1494077697823233,-0.00794,-0.43494,0.06903,20.1,-33.96,-15.12
55.1683,98.129,1.0792629762874553,5.580060599797412,-1.2435108442847262,0.07086,-0.15882,0.0391,20.46,-33.96,-16.08
55.1884,98.149,0.9853046017838789,5.50928955748228,-1.4483827696656757,0.06231,0.0171,0.0336,19.74,-33.36,-15.84
55.2104,98.169,0.8160082842566806,5.458247457475527,-1.7193516307190642,0.02688,-0.09774,0.05253,19.26,-33.3,-16.02
55.2285,98.189,0.5994746633189753,5.4220909304861795,-2.0107285552303464,0.03787,-0.26389,0.0391,18.9,-33.48,-15.84
55.2486,98.209,0.37513504602623793,5.39121931219093,-2.277421555019088,0.07697,-0.1967,-0.01649,18.3,-33.48,-15.78
55.2691,98.2291,0.19064529334879238,5.366095538404978,-2.485596717440667,0.07697,0.04765,-0.0788,18.84,-33.84,-16.14
55.2888,98.249,0.0770628122489269,5.347170803761394,-2.6038584966671685,-0.00244,0.18448,-0.13195,19.14,-33.72,-15.96
55.3086,98.2691,0.05311871010027961,5.3380524171002115,-2.609967035098868,-0.08552,0.12401,-0.18754,19.68,-33.6,-16.32
55.329,98.2891,0.12404254369461111,5.349586918890534,-2.501995670717977,-0.01405,0.18387,-0.17165,19.8,-33.6,-16.14
55.3486,98.3091,0.2782823361150437,5.394963024201453,-2.3029643866675515,-0.17959,-0.00794,-0.0843,19.92,-33.48,-15.3
55.3717,98.3291,0.48756058883174336,5.493841366764495,-2.067341968679682,-0.36163,-0.02627,-0.03176,19.92,-33.42,-15.12
55.3902,98.3491,0.719207082973871,5.627099354318865,-1.8436626611853022,-0.29322,0.04215,-0.03176,19.92,-33.72,-15.18
55.4085,98.369,0.920876113559052,5.791631480476062,-1.6931205872060158,-0.19975,0.05437,-0.03421,20.22,-33.36,-15.3
55.4284,98.389,1.052347647328247,5.976153783396761,-1.6480551365921219,-0.13561,0.09041,-0.06292,19.74,-33.48,-15.66
55.449,98.4091,1.0969027112831342,6.168531012444897,-1.7031076566444003,-0.07636,0.13256,-0.07697,19.62,-33.36,-15.72
55.4701,98.429,1.0666918724887062,6.356808795332215,-1.821860272433744,-0.12095,0.17043,-0.06353,19.38,-33.0,-15.84
55.4886,98.4491,0.9972484067265078,6.516816872480642,-1.9476120773008292,-0.16677,0.13622,-0.07697,19.26,-32.88,-15.78
55.5086,98.4691,0.9352139472103885,6.632501909412953,-2.0415236197434687,-0.18998,-0.01038,-0.07025,19.62,-32.58,-16.14
55.5286,98.4891,0.9088685595315262,6.687718374415409,-2.087766945852165,-0.15027,-0.11851,-0.05803,19.8,-32.7,-16.32
55.5484,98.509,0.915821439651766,6.682604804597146,-2.1071823883177814,-0.11179,-0.07025,-0.03543,20.28,-32.58,-16.68
55.569,98.5291,0.922185008942696,6.628183338661799,-2.1399739794246395,-0.13989,-0.0281,-0.04643,20.22,-33.06,-16.74
55.5892,98.5491,0.8823630520769774,6.533462525000254,-2.2158946985435817,-0.23457,-0.09041,-0.10629,20.16,-32.88,-16.8
55.6084,98.569,0.7637855316602115,6.405570442526786,-2.337428140598808,-0.24862,-0.07391,-0.13195,20.4,-33.18,-17.16
55.6302,98.5891,0.5673808497552444,6.262506015316982,-2.4814201414953336,-0.13989,-0.14661,-0.19181,20.34,-33.18,-16.98
55.6487,98.6091,0.333465367832379,6.114427068029866,-2.5854001407970193,-0.14966,-0.12278,-0.20464,20.4,-32.52,-17.34
55.6684,98.629,0.12633971763022922,5.986771039534711,-2.583836936174989,-0.19242,0.06109,-0.17959,20.58,-32.7,-17.4
55.6884,98.649,0.007796669399911236,5.8905361230891256,-2.4115531056421133,-0.24374,0.10873,-0.19487,20.46,-32.22,-17.52
55.7085,98.669,0.015048347126165386,5.831871106587455,-2.0425256642421346,-0.37935,-0.01894,-0.14844,20.22,-32.1,-17.7
55.7308,98.6891,0.14678924774805208,5.823054930897361,-1.51753497774458,-0.405,-0.17593,-0.13256,20.64,-32.16,-17.82
55.7507,98.7091,0.39417083032120975,5.853825780715171,-0.9264833467213585,-0.40073,-0.41294,-0.09835,20.82,-31.68,-18.24
55.7688,98.729,0.730010265147731,5.925723172128804,-0.4156417214150405,-0.33414,-0.32315,-0.06475,20.28,-31.62,-18.0
55.7885,98.749,1.1052349908858885,6.037169578173257,-0.13111871519267737,-0.15272,-0.03299,-0.04765,20.52,-31.74,-18.12
55.8088,98.769,1.4627468136580104,6.170710448193284,-0.15804682640010448,0.17287,0.1912,-0.02871,20.28,-31.74,-18.72
55.8288,98.7891,1.7326641994717922,6.3175716643296935,-0.49965875957428985,0.38607,0.07514,0.01588,20.28,-31.68,-18.84
55.8498,98.8089,1.8765201249035144,6.460900361899685,-1.075904079701747,0.36896,0.03054,0.07941,20.94,-31.2,-19.14
55.8685,98.8291,1.8860958316781788,6.582979988630479,-1.7656394021423356,0.38973,0.05742,0.01405,21.12,-31.2,-18.84
55.8929,98.8491,1.7949843230211706,6.617778340895835,-2.412036389565916,0.45326,0.03543,-0.09713,20.94,-31.14,-18.3
55.9094,98.869,1.5825909545722898,6.578969318665995,-2.932407100858147,0.43799,-0.01283,-0.20953,21.24,-31.5,-17.58
55.9321,98.8891,1.3041767146735705,6.424118407695514,-3.241996372413115,0.35797,-0.04154,-0.33231,21.12,-31.68,-17.1
55.95,98.9091,0.9431204625718711,6.196440940614483,-3.3470850233279412,0.20342,-0.03299,-0.40989,20.82,-31.56,-17.1
55.9684,98.9291,0.5546953365060899,5.925297239845323,-3.277997907886135,0.00977,0.00794,-0.44899,21.0,-31.38,-17.28
55.9889,98.949,0.1884185317019131,5.658960371320576,-3.0950399571412035,-0.0336,0.01894,-0.43738,20.64,-30.9,-16.98
56.0108,98.9691,-0.11609231766454535,5.441156537802395,-2.8614138718418527,-0.02505,0.05253,-0.39828,20.82,-30.96,-17.1
56.0285,98.9891,-0.34202739854442293,5.295390813996115,-2.6247032937698505,-0.07941,0.06964,-0.32987,21.3,-30.72,-17.1
56.0505,99.009,-0.4581914456648391,5.250309531935274,-2.4274910871812763,-0.11179,0.04704,-0.22297,21.42,-31.08,-16.38
56.0699,99.0291,-0.4782425107239564,5.297146571519186,-2.2758021632154906,-0.07636,0.00305,-0.135,21.72,-31.26,-16.86
56.0915,99.0491,-0.41402063333661654,5.430772167523613,-2.172594693693174,-0.05192,-0.03115,-0.0452,21.6,-31.08,-16.8
56.11,99.069,-0.2875204167532722,5.632873632654344,-2.1131842655905126,-0.08308,-0.06903,0.01038,21.78,-31.2,-16.44
56.1309,99.0891,-0.12760641796136926,5.884794889586209,-2.09878583606175,-0.16066,-0.07086,0.02016,21.66,-31.2,-16.8
56.1505,99.1091,0.04669222342705616,6.149176434811557,-2.1196877380261867,-0.22235,-0.07086,0.03115,21.72,-31.14,-16.92
56.1707,99.1291,0.2165222302991865,6.386470346880514,-2.1585347935088066,-0.15088,-0.07025,0.06109,21.72,-31.38,-16.98
56.1885,99.1491,0.376521978952017,6.559059719759987,-2.185831938414589,-0.06231,-0.14355,0.12034,21.66,-31.2,-17.64
56.2083,99.169,0.5107715027028826,6.647558454717343,-2.173237877984514,-0.00244,-0.25779,0.12278,21.72,-31.14,-17.64
56.2293,99.189,0.6113402934794195,6.6505110204329245,-2.103137142065431,0.011,-0.21075,0.09835,21.84,-31.44,-17.52
56.2483,99.2091,0.6778381431540778,6.581092064809888,-1.9778795704746015,-0.09468,-0.25045,0.0788,21.72,-31.14,-17.82
56.2685,99.2291,0.6988582525520093,6.458781326385541,-1.8187561866459268,-0.22358,-0.23091,0.02688,22.08,-31.62,-18.06
56.2893,99.249,0.6779150516003514,6.306375695382198,-1.6655733465259601,-0.22541,-0.09346,-0.04459,22.08,-31.62,-18.06
56.309,99.2691,0.6216889329590309,6.148222883383474,-1.5645223962155779,-0.05376,0.05498,-0.05986,22.08,-31.08,-18.06
56.3284,99.2891,0.5422287260118563,6.014973588661019,-1.555882804508661,-0.02627,0.03726,0.00122,22.32,-31.2,-18.12
56.3601,99.309,0.46434971081586474,5.924659975278132,-1.6477845001419418,-0.01466,0.00183,0.07697,21.66,-30.84,-18.06
56.3685,99.3291,0.41759924006178983,5.90779693109229,-1.8328013782423724,0.10385,0.10812,0.14905,21.66,-30.06,-18.54
56.3899,99.3491,0.4179567936239247,5.931169549302026,-2.0414475949713786,0.1295,0.12156,0.17959,20.82,-30.48,-18.54
56.41,99.3691,0.4729910828905356,5.996034711948722,-2.229781973426152,0.05192,0.04704,0.15699,20.76,-30.66,-18.24
56.4302,99.3901,0.5705636105611687,6.0887325201582945,-2.3572424784417283,0.04459,0.03543,0.12828,20.88,-30.66,-17.88
56.4494,99.41,0.6878970845193857,6.202307035846679,-2.4114734816681933,0.03543,0.05681,0.0843,20.82,-30.96,-17.52
56.4704,99.4299,0.7951061072582672,6.331900095517119,-2.405889584457916,-0.01222,0.19303,0.07758,21.36,-31.26,-17.52
56.495,99.4501,0.8623102738375924,6.4696573415228755,-2.3706592107505458,-0.04276,0.19853,0.08552,21.12,-30.9,-17.82
56.5114,99.4721,0.8585900538558493,6.596828565020044,-2.335392365975153,-0.00305,0.15149,0.1014,21.18,-31.08,-17.82
56.5317,99.4921,0.7770319937384453,6.6910076344449045,-2.3249145607961577,-0.00794,0.19731,0.07697,21.6,-31.14,-17.82
56.5512,99.5121,0.628879727792311,6.726243628063596,-2.3450158682473594,-0.02382,0.23152,0.02138,21.72,-30.66,-17.94
56.5716,99.5321,0.45439554612935423,6.685423372423437,-2.384502304594106,-0.09285,0.14416,-0.02688,22.02,-31.32,-17.76
56.5943,99.5521,0.30967762543365257,6.569453222633148,-2.4211483463727816,-0.09224,0.23213,-0.06842,22.02,-31.08,-17.4
56.6124,99.5731,0.21701939534039305,6.395098650783523,-2.429256375890011,0.0562,0.41722,-0.19914,21.6,-30.96,-17.34
56.6322,99.593,0.20899759308209667,6.209288488621714,-2.4123035898060934,0.04093,0.37385,-0.02749,21.78,-31.32,-17.22
56.6529,99.613,0.2796114666114317,6.057862651748606,-2.3862642992833694,-0.02138,0.10079,0.12278,21.78,-30.84,-17.46
56.6733,99.6331,0.41517655663620157,5.9759221664208795,-2.3776056030810127,-0.06903,0.04459,0.28588,22.08,-31.2,-17.88
56.6932,99.6531,0.5902374400631278,5.972715901226503,-2.4084899809941316,-0.03604,0.21625,0.3427,22.32,-31.68,-17.46
56.7161,99.673,0.7579483338813755,6.027788574837657,-2.482725055101511,-0.0452,0.16677,0.27367,22.14,-31.5,-17.04
56.7324,99.6931,0.8900281236657601,6.106781400051198,-2.585310701574116,-0.01833,-0.02443,0.14539,21.66,-31.44,-16.08
56.7596,99.7131,0.9492156303189944,6.173698759054535,-2.676933284117778,0.01161,-0.11668,0.06048,21.42,-31.32,-15.72
56.7723,99.733,0.9672933826861012,6.23678200628737,-2.7441699574748357,0.04643,-0.09224,0.14844,21.0,-31.86,-15.84
56.7922,99.753,0.9461162821625437,6.293646046288647,-2.7539864284381252,0.00916,0.07086,0.25595,20.82,-32.34,-16.32
56.8123,99.7731,0.9142985404514383,6.3598699699145715,-2.7035295069433145,-0.15027,0.0391,0.22785,21.24,-32.76,-16.92
56.8335,99.7931,0.8842770945453635,6.433312337343851,-2.5957726408171604,-0.23152,-0.20159,0.21686,21.24,-33.54,-16.98
56.8526,99.813,0.8790847259714939,6.501878487605757,-2.4508199285885572,-0.12523,-0.34514,0.25656,21.72,-32.76,-17.34
56.8724,99.833,0.893986757771344,6.562323323011994,-2.306307591909275,0.12584,-0.48442,0.19242,21.72,-32.58,-17.52
56.8932,99.8531,0.9220487773439019,6.625156189694488,-2.2069570788190678,0.21136,-0.20281,0.15149,21.6,-32.58,-17.7
56.9131,99.8731,0.9452282410055347,6.702785287467854,-2.180776899271267,0.01344,0.0507,0.12828,21.42,-31.74,-17.82
56.9341,99.893,0.940024930129511,6.779338430740039,-2.2123228314240064,-0.24557,0.19792,0.08735,21.0,-32.46,-17.7
56.9523,99.913,0.9046985003105112,6.814192816597593,-2.253477933324242,-0.27917,0.05986,0.02993,20.64,-32.58,-17.34
56.9724,99.9331,0.849803009955792,6.792717885828645,-2.2739621217236934,-0.07453,-0.12156,-0.07575,20.16,-32.52,-17.16
56.9923,99.953,0.7940502520158239,6.722626199120005,-2.2645262471801892,0.04093,-0.06903,-0.05742,19.86,-33.0,-17.46
57.0149,99.973,0.7501718260598748,6.638579324702239,-2.243108300916476,-0.00244,0.00489,0.04459,19.56,-32.46,-17.04
57.0324,99.993,0.7267794449323539,6.574938078979796,-2.232168358381924,-0.06109,0.01405,0.0391,19.56,-32.4,-16.8
57.0524,100.013,0.7248821296320573,6.545945801726902,-2.242494947412272,-0.07453,0.09163,0.00794,19.92,-33.0,-16.92
57.0752,100.033,0.7402265981051628,6.548036774012833,-2.2751236768003054,-0.07086,0.06536,0.02077,19.8,-32.88,-16.68
57.0946,100.0531,0.7655803677510193,6.566360117388407,-2.323480495409841,-0.02016,-0.0055,0.02321,19.68,-33.0,-16.74
57.1124,100.073,0.7912067028891016,6.5957061999009605,-2.387159154910682,0.04215,-0.00061,0.04032,19.62,-33.24,-16.74
57.1546,100.093,0.808660282615631,6.615972051589073,-2.448323611438985,0.09652,-0.00428,0.04765,19.38,-32.94,-16.68
57.1558,100.1131,0.8065977652453358,6.6553463772079775,-2.528588305654649,0.05376,0.12034,0.07758,19.56,-33.12,-16.86
57.1722,100.133,0.7872030014367061,6.678200738441001,-2.5924876467950577,-0.04276,0.12828,0.0336,19.68,-33.48,-17.34
57.1969,100.153,0.7501111815378346,6.683224975380928,-2.6356859927098295,-0.03604,0.08002,-0.05253,19.68,-33.42,-17.52
57.214,100.1731,0.6893506969667171,6.66031672568585,-2.646720915219479,-0.00367,0.04215,-0.07514,19.74,-33.3,-17.46
57.234,100.1931,0.6187545995414419,6.62052486439702,-2.6369488752690016,-0.01833,0.05009,-0.04765,19.38,-33.18,-16.86
57.2543,100.2131,0.5484616178538566,6.5751791374746995,-2.6168662674091685,0.00672,0.05192,-0.01894,19.62,-33.06,-16.92
57.2752,100.234,0.4900085608939615,6.537492056417926,-2.5965122587586436,0.0391,0.07147,-0.01649,19.62,-33.3,-16.38
57.2939,100.254,0.45003394753258696,6.516451521495077,-2.5795744543497197,0.0226,0.05864,-0.00794,19.5,-33.78,-16.74
57.3146,100.2741,0.4342309344788184,6.51424676687969,-2.5637089925187446,-0.04337,0.02199,-0.0055,19.68,-33.72,-17.04
57.3344,100.2951,0.44430940892487386,6.526128477541067,-2.5430879965303994,-0.07819,-0.00489,0.02199,19.5,-33.78,-16.8
57.3544,100.315,0.4780301165868215,6.546291491401895,-2.515175177346995,-0.05803,0.03787,0.03543,19.5,-33.18,-17.1
57.3764,100.335,0.5266757096942329,6.571574041899538,-2.4833133127140075,-0.0226,0.05437,0.02566,19.14,-33.06,-16.68
57.4115,100.355,0.5742647901112949,6.602942793982456,-2.456127724151556,-0.01894,-0.00733,0.04032,19.26,-33.12,-16.68
57.4169,100.3751,0.6268241274758265,6.638514214244325,-2.441669685085185,-0.03848,-0.00916,0.06231,19.26,-32.94,-16.8
57.4346,100.395,0.6620191706471342,6.6799163704606626,-2.4474834750105874,-0.04276,0.08369,0.07208,19.26,-33.3,-16.8
57.458,100.4161,0.6810690324636764,6.721152763280967,-2.472886645764552,-0.02993,0.08552,0.06475,19.32,-32.88,-16.74
57.4781,100.4361,0.6854470148926151,6.753354829248334,-2.5099717256066736,-0.02138,0.0617,0.04643,19.02,-32.7,-16.5
57.496,100.456,0.6755585917969956,6.773039861109752,-2.551007444993262,-0.02016,0.06414,0.01588,18.96,-32.76,-16.08
57.5154,100.4761,0.6558426390455916,6.781701181893486,-2.5905749263243463,-0.02932,0.03726,0.00428,18.96,-32.52,-16.08
57.5355,100.4961,0.6324967297085377,6.7827325862406465,-2.625459035275111,-0.02993,0.06475,0.01466,19.08,-32.4,-16.2
57.5619,100.5161,0.6113135171061007,6.781100889487522,-2.6566775880520943,-0.05559,0.06658,0.00794,19.26,-32.88,-16.02
57.5959,100.5361,0.5939236505768196,6.77679335451115,-2.6840281599269105,-0.03482,0.08002,0.00122,18.78,-32.76,-15.96
57.5969,100.5561,0.5761758159371757,6.763747413214137,-2.704210598908932,-0.01527,0.06597,0.03176,18.36,-33.0,-15.96
57.6159,100.5761,0.5580462809906397,6.753442736456168,-2.732070420884546,-0.00428,0.00061,0.02566,18.42,-33.48,-15.84
57.6353,100.5959,0.537011919299832,6.747119115777635,-2.7709454681698373,-0.0226,0.00977,0.00183,18.48,-33.12,-15.84
57.6556,100.616,0.5127879815350717,6.745758103224321,-2.819961409334536,-0.06842,0.05376,-0.00794,18.6,-33.42,-16.02
57.6754,100.6361,0.48770064012934095,6.7469305026096835,-2.8693881336080187,-0.06842,0.0562,0.01894,18.72,-33.42,-15.6
57.696,100.656,0.4659854395302531,6.7497856809417,-2.905858490788198,-0.02382,0.05376,0.04337,18.72,-33.0,-15.72
57.7158,100.676,0.4523390788669109,6.7553775737372,-2.9161184591100326,-0.02382,0.02932,0.03299,18.6,-33.12,-15.72
57.7361,100.6961,0.4488866416763913,6.76643432103758,-2.8924816639130313,-0.06536,0.02321,0.00489,18.78,-32.88,-15.54
57.7567,100.716,0.45535778334785637,6.783579893944394,-2.8348407743537933,-0.12156,0.0171,0.01466,18.78,-32.82,-15.96
57.7758,100.736,0.4717006749417764,6.804045358756154,-2.752003954558731,-0.13011,-0.01588,0.0391,18.36,-33.12,-15.72
57.7959,100.7561,0.4935703273830386,6.8280387566840215,-2.6648162851952417,-0.13928,0.04459,0.04765,18.36,-33.06,-15.78
57.8157,100.7761,0.5169279983627167,6.853091703294701,-2.5938533222266207,-0.13683,0.08674,0.01833,18.0,-32.82,-15.96
57.8354,100.796,0.5353943766446755,6.87793888380321,-2.554956526840191,-0.09713,0.05681,0.01283,17.88,-33.06,-15.78
57.8565,100.8161,0.545388149340125,6.902392542635741,-2.554267162076558,-0.07208,0.02382,0.0055,17.88,-32.82,-15.78
57.8754,100.8361,0.5501040152621588,6.9266991886162455,-2.58747216554719,-0.04643,-0.00611,0.03543,17.7,-32.88,-15.78
57.8954,100.856,0.5535507377539105,6.954590384692318,-2.6459748586479135,0.00733,0.02993,0.05437,17.94,-32.64,-15.6
57.917,100.876,0.5594594415512943,6.986381804439601,-2.7158291171801148,-0.01466,0.13439,0.04215,18.24,-32.16,-15.78
57.9353,100.8961,0.5703355492473419,7.013255766300474,-2.7767022467761304,-0.11973,0.08125,-0.01344,18.48,-32.1,-16.14
57.9587,100.916,0.5890731864180055,7.0304341871132126,-2.817219751680814,-0.09713,0.0281,-0.01405,18.48,-31.92,-16.02
57.9765,100.936,0.6132501150943617,7.026770655043654,-2.824310815027669,-0.01955,0.15882,0.01161,18.6,-32.16,-16.32
57.9953,100.9561,0.6394812104826354,7.009784649786223,-2.8080322905870583,-0.02138,0.12523,-0.00367,18.18,-32.7,-15.96
58.0154,100.9761,0.6588173026146847,6.986428897012499,-2.7813125194473987,-0.08369,0.08735,-0.02871,17.94,-32.7,-16.02
58.0377,100.996,0.66377586896727,6.96090043810414,-2.7576572515593076,-0.10324,0.08247,0.00305,17.82,-33.12,-16.2
58.0566,101.016,0.6516718608924071,6.928917018715151,-2.743255040621947,-0.07758,0.05376,-0.0055,17.82,-33.3,-16.02
58.0764,101.0361,0.6224496723155578,6.894890639326713,-2.748387719213561,-0.01588,0.10263,-0.02505,18.0,-32.94,-16.68
58.0994,101.056,0.5781137831867499,6.8662252202574345,-2.7765552769728625,0.02199,0.13806,-0.03543,18.18,-33.48,-16.56
58.1153,101.0761,0.5162056877910376,6.847270654372065,-2.817746057072773,-0.03299,0.10018,-0.01955,18.6,-33.48,-16.56
58.1353,101.096,0.4564269299954465,6.84580747834246,-2.8622127124404555,-0.10507,0.0843,0.02932,18.72,-33.6,-16.2
58.1556,101.116,0.415259461302342,6.857654187322264,-2.890975217998532,-0.07636,0.10568,0.04459,19.14,-34.08,-16.14
58.1757,101.1361,0.40713656550275623,6.879921428333232,-2.8954387066699825,-0.02627,0.06842,0.05009,19.44,-33.96,-16.14
58.1951,101.156,0.4347623115121022,6.912706455122341,-2.8816145604559082,-0.0171,-0.01833,0.03604,19.38,-33.84,-16.32
58.2152,101.176,0.4882847197663758,6.9553432635545205,-2.8651538224493613,-0.06231,0.02871,0.03971,19.38,-33.78,-16.92
58.2361,101.1961,0.551364751241557,7.000607953165623,-2.860610713498226,-0.11301,0.10385,0.03726,19.14,-33.6,-16.68
58.2554,101.2161,0.607347448618081,7.0340629457459904,-2.8731167532145667,-0.08735,0.0617,0.02199,19.02,-33.3,-16.32
58.2766,101.236,0.6424091315435961,7.047902472408889,-2.9044099087095887,0.00367,0.02016,0.0055,18.48,-33.54,-16.08
58.2962,101.2561,0.6511666688871794,7.04404359477185,-2.9520234142301858,0.02382,0.00855,0.01649,18.3,-33.42,-15.72
58.3155,101.2761,0.6356858446770866,7.033596906493512,-3.0102265607831598,0.00367,0.02627,-0.011,18.42,-33.06,-15.48
58.3357,101.2961,0.6043513079233839,7.026362976619837,-3.065852815032663,-0.05925,0.08735,-0.04459,18.78,-33.06,-15.9
58.3561,101.3161,0.5682366018555216,7.023979884900491,-3.099275667169267,-0.10507,0.08552,-0.03787,19.32,-32.82,-15.9
58.3928,101.3361,0.5383218778357208,7.032817084064955,-3.104227802428044,-0.08858,0.02077,-0.01649,19.44,-32.88,-16.44
58.3961,101.356,0.5298741064103644,7.027115768855776,-3.052411814274296,-0.04826,0.00489,0.01222,19.44,-33.0,-16.74
58.4151,101.376,0.5381037749669865,7.030007756824619,-2.975665279974975,0.00367,0.01405,0.01222,19.08,-33.18,-16.62
58.4355,101.3961,0.5578576496471644,7.041927013999879,-2.889451383004607,-0.07208,0.05498,0.00183,19.02,-33.0,-16.56
58.4561,101.416,0.5764857039721343,7.063255823963452,-2.8129856249938623,-0.12767,0.00916,-0.00794,18.96,-32.52,-16.32
58.4753,101.436,0.58430155147749,7.088377186759664,-2.7609294767411674,-0.10629,0.00305,-0.011,19.02,-32.64,-16.38
58.4963,101.4561,0.5764490255388537,7.114591542220839,-2.7484125453833634,-0.08369,0.02443,0.01344,19.08,-32.4,-16.08
58.5158,101.476,0.556212593580215,7.138031134558831,-2.782160076221568,-0.03726,0.0452,0.04337,19.2,-32.64,-16.32
58.5358,101.496,0.5253467185524465,7.15925334774812,-2.8619644756764275,0.00672,0.1069,0.04826,19.38,-33.0,-16.8
58.5568,101.5161,0.4846443190908664,7.176848758733264,-2.9748647111027235,-0.00916,0.10873,0.00122,19.38,-32.88,-16.8
58.5763,101.536,0.4358741754911594,7.1871856737749775,-3.099012365163671,-0.03482,0.02932,-0.01527,19.5,-33.06,-16.74
58.5953,101.556,0.3870517372900781,7.187424662246694,-3.2119713950272466,-0.05864,-0.04826,-0.00916,19.32,-32.88,-16.44
58.6154,101.576,0.3473328081513061,7.177772589814661,-3.295917541547575,-0.06231,-0.02016,-0.0055,19.26,-32.88,-15.9
58.6373,101.5959,0.32197650754512974,7.160766021802668,-3.3375913456607984,-0.06292,0.07697,-0.01038,19.62,-32.58,-15.9
58.6559,101.616,0.30914862556388645,7.139150269514182,-3.3263634473857797,-0.04337,0.08552,-0.01161,19.38,-32.76,-16.2
58.6754,101.636,0.30697972006435403,7.1216729120595526,-3.2630542765985258,-0.06536,-0.02505,-0.01038,19.62,-32.64,-15.96
58.6958,101.6559,0.3192611766161257,7.116474626293181,-3.1562446974917258,-0.12706,-0.1069,0.00489,19.56,-32.64,-15.78
58.7151,101.676,0.3560260060713712,7.126868667633252,-3.0205840315151793,-0.15027,0.00672,0.01649,19.14,-32.64,-15.66
58.7352,101.696,0.4179296757169773,7.152026970583148,-2.877024494492896,-0.1576,0.08735,0.01955,19.44,-32.46,-15.78
58.7569,101.7161,0.4937052265203326,7.183879075043135,-2.746067166753746,-0.10812,0.04765,0.02321,19.56,-32.52,-16.44
58.7788,101.7371,0.5654921394221353,7.2121889547041755,-2.6474980328949655,-0.0452,-0.03787,0.05803,19.5,-32.4,-16.44
58.7962,101.757,0.6241824622285386,7.2343258101894845,-2.60486370648359,-0.02871,-0.07819,0.09224,19.68,-32.7,-16.5
58.8182,101.777,0.6555764953813806,7.24980659668347,-2.632847595292197,-0.03665,-0.03848,0.07819,19.8,-33.0,-16.32
58.837,101.7971,0.662586922256495,7.258266151681504,-2.7323764236289554,0.00489,0.06964,0.03299,20.04,-33.06,-16.2
58.8564,101.817,0.6401626798086373,7.255713686770812,-2.882265560065373,-0.01222,0.13378,0.00183,20.34,-33.36,-16.62
58.8789,101.837,0.5916549967373923,7.240437844904868,-3.0490071888622703,-0.02566,0.09041,0.00122,20.22,-33.6,-16.8
58.9016,101.8571,0.5254149772021862,7.216930775822284,-3.1989860332318996,0.07453,0.05131,-0.00977,20.34,-33.42,-16.62
58.9165,101.877,0.4548559640731766,7.197921488448914,-3.3125529036741668,0.06903,0.03176,0.02077,20.04,-33.72,-16.5
58.9362,101.897,0.40073374581127746,7.189385290864419,-3.377169835636325,-0.02138,0.08247,0.00611,20.16,-33.84,-16.26
58.9562,101.9171,0.3683157600943054,7.191580587876996,-3.39019680139364,-0.05437,0.11423,-0.0226,20.64,-33.48,-16.38
58.9763,101.937,0.3570835821081318,7.198274164254012,-3.3563193568675826,-0.04032,0.06353,-0.02321,20.4,-33.48,-16.68
58.9977,101.957,0.3632901704150136,7.2055755438641835,-3.2911479038178237,-0.02443,-0.01649,0.00061,20.4,-33.6,-16.8
59.0169,101.977,0.3825931410974241,7.213852278983655,-3.2162417274533697,-0.02627,0.0055,0.00794,20.22,-33.72,-17.16
59.0361,101.997,0.4087582993193351,7.226095339005182,-3.152049661139344,-0.05315,0.09346,-0.01527,19.8,-34.2,-16.74
59.0567,102.017,0.43311743323929525,7.241991784881579,-3.109841387676692,-0.09591,0.08613,-0.02138,19.8,-34.38,-16.86
59.0815,102.0371,0.44690535942415965,7.259215256122933,-3.094279487626645,-0.07697,0.0336,0.00183,19.92,-33.96,-16.8
59.0969,102.057,0.450545926509136,7.270428693076676,-3.1017611118368142,-0.04276,-0.02016,0.01405,19.92,-33.96,-16.68
59.1169,102.077,0.4434038228817551,7.2841714372155355,-3.1414803016189126,-0.04215,0.01649,0.01344,20.28,-33.96,-16.62
59.137,102.097,0.43134795772769685,7.301383822693202,-3.208463233401594,-0.05742,0.0843,0.01955,20.4,-33.84,-16.68
59.1563,102.1171,0.4179894390076447,7.320608153367691,-3.2874419822345047,-0.05376,0.09957,0.03176,20.28,-33.78,-16.5
59.1769,102.137,0.40719251732014683,7.339406932619657,-3.3568171549635926,-0.02321,0.08002,0.04643,20.7,-33.42,-16.74
59.1964,102.157,0.4045826398329511,7.356412581657981,-3.39707574112166,-0.01466,0.01772,0.03787,20.58,-33.3,-16.8
59.2163,102.1771,0.4145050959891468,7.373177753581455,-3.4000891866968965,-0.05559,-0.01344,0.01649,20.28,-32.94,-16.5
59.2373,102.197,0.4359122545136692,7.390276175385046,-3.3692236967376736,-0.09407,0.02016,0.00672,20.82,-33.24,-16.8
59.2566,102.217,0.46181671996249757,7.402191332002953,-3.313168376233711,-0.11606,0.05864,-0.011,20.52,-33.66,-16.8
59.278,102.2371,0.47916416261092143,7.406402417083325,-3.2508778057646825,-0.11179,0.02016,-0.01833,20.7,-33.78,-16.74
59.2963,102.257,0.4819723588872385,7.399984247848716,-3.1997511855032723,-0.05376,-0.0226,-0.00794,20.82,-34.08,-16.92
59.3174,102.2769,0.4685948766530453,7.392140080337339,-3.180894804218287,-0.03115,-0.00794,0.00305,20.1,-33.78,-16.86
59.3388,102.2971,0.44509498837138634,7.390263380204435,-3.1994896027422897,-0.03665,0.06781,-0.02138,20.4,-33.54,-16.98
59.361,102.317,0.41736354771764256,7.396501936006237,-3.2431197882891887,-0.07269,0.16005,-0.03726,20.16,-33.9,-17.34
59.377,102.337,0.39032827683289056,7.401971624216111,-3.2829379493870503,-0.09285,0.06781,-0.04398,20.34,-34.2,-17.76
59.397,102.3571,0.37521411105888836,7.4087928801407426,-3.308024085175637,-0.04276,-0.04948,-0.02749,20.94,-34.8,-17.52
59.4195,102.377,0.3786152104676054,7.416510322930599,-3.315704652526927,-0.02566,-0.05498,-0.00183,20.7,-34.56,-17.34
59.4364,102.397,0.39948487754103684,7.424056442038497,-3.314005900366398,-0.07025,0.10568,-0.02566,20.46,-33.9,-17.1
59.4565,102.4171,0.42480460614486243,7.434282673562243,-3.3214595811312897,-0.12156,0.09774,-0.0733,20.52,-33.78,-17.04
59.4788,102.437,0.4375388433364518,7.442747071533815,-3.3467051601833244,-0.09591,0.05192,-0.07147,20.04,-33.48,-17.22
59.4972,102.457,0.42632569947348303,7.443747715689647,-3.3883253642673203,-0.07575,-0.00061,-0.04643,19.98,-33.42,-16.68
59.5179,102.4771,0.39378043334028134,7.44627543581405,-3.449344471023328,-0.04581,0.03848,-0.04276,20.34,-33.9,-16.62
59.5403,102.497,0.3486542615652776,7.4547893283625015,-3.5150456448386915,-0.08308,0.09896,-0.02627,20.46,-33.6,-16.86
59.5589,102.517,0.2990579976528469,7.464788506192685,-3.553139594667459,-0.11057,0.10263,-0.05315,21.0,-33.6,-16.8
59.5776,102.5371,0.2555395569091415,7.4748323545636035,-3.5384609522120423,-0.10079,0.04581,-0.02932,21.12,-33.78,-17.64
59.5992,102.557,0.22531290288509334,7.4866523125674185,-3.464047634096767,-0.17837,0.00611,-0.00428,21.36,-33.42,-17.94
59.6168,102.577,0.22175693391184936,7.499258325674185,-3.341262185625725,-0.21747,0.00672,0.04948,21.24,-33.48,-18.06
59.6372,102.597,0.23990178847408017,7.527276404185811,-3.219279060461827,-0.30788,0.13317,0.00489,20.64,-33.18,-18.0
59.6569,102.617,0.27735767626265073,7.560443540346857,-3.1300672270948455,-0.41966,0.16616,-0.02688,20.34,-32.94,-17.52
59.6807,102.637,0.31652734885214706,7.592088208812482,-3.1065228429125087,-0.33598,0.11057,0.00794,20.28,-32.94,-17.46
59.6989,102.657,0.35940735499382376,7.591457336428749,-3.136352138666581,-0.10629,-0.07697,0.05376,20.28,-32.82,-17.4
59.7214,102.6771,0.38862594708022824,7.569638364217264,-3.225410245741112,0.01344,-0.13073,0.03726,20.64,-32.82,-18.3
59.7374,102.697,0.4079988743045652,7.548190797409077,-3.3684899305187983,0.02932,-0.22846,-0.01161,21.36,-32.88,-18.96
59.7567,102.717,0.40087714326469354,7.53473106693297,-3.532779544701274,-0.00733,-0.07208,-0.02688,21.3,-32.64,-19.38
59.7769,102.7371,0.36456871216728054,7.527711633805737,-3.677906495782013,-0.21686,0.16677,0.00733,21.12,-32.7,-19.2
59.7977,102.757,0.3080816498311524,7.512034659918983,-3.755849345555389,-0.32742,0.16738,-0.02382,20.76,-32.46,-18.3
59.8161,102.777,0.25211036335946246,7.480809139967463,-3.738527955956247,-0.0391,-0.0733,-0.09163,20.22,-32.4,-17.82
59.8367,102.7971,0.2173182976934929,7.455506546924846,-3.644167563568569,0.14844,-0.10873,-0.04459,20.16,-32.4,-17.58
59.8575,102.817,0.21326203509536057,7.464870946027185,-3.5125378392953976,0.05192,0.05803,0.03115,20.04,-32.28,-17.1
59.877,102.837,0.24085281114491525,7.523957376862301,-3.3830944562895295,-0.10385,0.04215,0.06536,20.22,-32.52,-17.16
59.897,102.8571,0.2953904075235837,7.618472681761991,-3.279106044930667,-0.12584,-0.11057,0.10385,19.92,-32.34,-17.28
59.9161,102.877,0.37170474055260416,7.717180835815723,-3.2161630897476643,-0.01833,-0.12156,0.12217,19.5,-32.4,-17.34
59.9364,102.897,0.4513300594981209,7.792398643175842,-3.20897398936443,0.1295,-0.07147,0.08369,19.38,-32.4,-17.52
59.9568,102.9171,0.5092073574730147,7.831746456358801,-3.2671269213397682,0.135,0.04215,0.0,19.38,-32.1,-17.76
59.9763,102.937,0.5200318691252084,7.829588055963357,-3.3758784685587253,0.00794,0.10873,-0.00794,20.04,-32.58,-17.82
59.9962,102.957,0.48059747371558087,7.78093613999685,-3.4938819325729593,-0.0171,0.05742,-0.00977,20.04,-32.7,-17.52
60.0163,102.9771,0.4097292498469164,7.688796544686329,-3.5751107731837246,0.0452,0.06842,0.01833,20.22,-33.0,-17.76
60.0363,102.997,0.33495984042738347,7.57109917004856,-3.5930251155553172,0.15088,-0.03848,-0.03238,19.98,-33.6,-17.88
60.0574,103.017,0.2773459269543278,7.456732659433586,-3.5491396696181727,0.12645,-0.10507,-0.04643,19.98,-33.24,-18.12
60.1078,103.0371,0.24799855846586705,7.351318470233159,-3.441206024205128,0.0898,-0.09224,-0.00367,20.04,-33.36,-18.06
60.1102,103.057,0.24883864320961818,7.340926636597333,-3.384879190690871,0.11912,-0.07391,0.06903,19.92,-33.12,-17.88
60.1164,103.077,0.27796100321932216,7.3870753574027015,-3.3698742071163004,0.13683,-0.10629,0.10201,20.34,-33.18,-17.7
60.1394,103.097,0.3223022469991777,7.462002789867047,-3.405060342176623,0.10324,-0.17043,0.10446,19.56,-33.18,-17.22
60.1588,103.1171,0.38401590737161234,7.570140556614829,-3.527386421943537,0.19609,0.04337,0.06048,19.26,-33.06,-17.04
60.1765,103.137,0.4385287697193699,7.682463680801229,-3.715903787003577,0.22907,0.13195,0.03604,19.08,-33.24,-17.16
60.1963,103.157,0.4653453112322347,7.76320538621498,-3.9225323655854467,0.12401,0.21747,0.13439,18.84,-32.76,-16.92
60.2166,103.1771,0.4532083759250128,7.780423075153933,-4.090450269267378,-0.11545,0.27978,0.11179,18.9,-33.12,-16.8
60.2362,103.197,0.4116471265426461,7.7151063076751125,-4.1726103890140545,-0.11729,0.14233,-0.05131,18.96,-32.7,-16.92
60.2577,103.217,0.35650401358619493,7.5823619929531025,-4.163697869962291,0.05498,-0.17837,-0.19487,19.08,-32.88,-16.8
60.2762,103.2371,0.2922729944625746,7.425072957725609,-4.092720947005933,0.02199,-0.03543,-0.11118,18.9,-32.94,-16.86
60.2963,103.257,0.22372512772015643,7.297698308949103,-4.003759987640514,-0.13073,0.28711,-0.03115,18.72,-32.7,-16.56
60.3176,103.277,0.147324761380944,7.234345371550394,-3.919395764361071,-0.16677,0.2364,0.02871,18.72,-33.12,-16.62
60.3377,103.297,0.06421330895669423,7.242018767726386,-3.8402146311340166,-0.19609,0.02443,0.09713,18.6,-32.94,-16.38
60.3563,103.317,-0.015695992061893663,7.3171649162352255,-3.768137673739764,-0.08796,-0.11851,0.11362,18.66,-33.36,-15.9
60.3762,103.337,-0.08515852863069412,7.449418204423106,-3.710378729299924,-0.0281,-0.17165,0.10629,19.08,-33.36,-16.56
60.3971,103.3571,-0.13205872589853332,7.617561689309573,-3.6710389687717235,-0.15149,0.07941,0.07697,18.72,-33.48,-16.44
60.4178,103.377,-0.14597042053018358,7.789348390836398,-3.6429554975590124,-0.26389,0.20586,0.08796,19.02,-33.6,-16.56
60.4387,103.397,-0.12074454022374594,7.938078925941175,-3.6194402790148885,0.06353,-0.36469,0.05131,18.9,-33.48,-16.92
60.4589,103.4171,-0.051828408604449906,8.056802572989318,-3.6075910649014977,0.28955,-0.07453,0.18998,18.42,-33.66,-16.32
60.4764,103.437,0.06214736233513279,8.149701336113127,-3.618033805311435,-0.05986,-0.04215,0.20525,18.96,-33.0,-16.26
60.4969,103.457,0.20278642046607237,8.208283176759084,-3.636605781033195,-0.21808,0.00916,0.11423,18.84,-32.88,-16.56
60.5166,103.4771,0.3555312127819031,8.222300437023558,-3.6408711750510987,-0.06414,-0.00733,-0.00916,18.72,-32.64,-16.74
60.5364,103.497,0.49204258267167233,8.190137969367516,-3.6161502307253954,-0.02566,-0.04276,-0.01772,18.66,-32.34,-16.5
60.5564,103.517,0.5889731755833159,8.128500047991276,-3.5722054800968053,-0.11545,0.04887,0.01038,18.12,-32.82,-16.68
60.5776,103.5371,0.6379860421104362,8.060770687906194,-3.5316689330282784,-0.18998,0.12523,0.00061,18.0,-32.76,-16.02
60.5961,103.557,0.6458089710982673,7.994153021144284,-3.5016165012447082,-0.16127,0.21075,-0.05315,18.12,-32.52,-16.02
60.6182,103.577,0.6277078286847455,7.93547798981478,-3.4913399732035018,-0.04887,0.08858,-0.04215,18.6,-33.12,-16.44
60.6402,103.597,0.5963813566693356,7.882211551370331,-3.4962969658294663,0.0788,-0.01222,-0.01222,18.96,-33.06,-16.26
60.6574,103.617,0.5639851171827275,7.844250838779968,-3.5247998753415786,0.0391,-0.01038,0.05437,18.78,-33.06,-16.44
60.6768,103.637,0.5412145126999989,7.825492124526855,-3.57692225127866,-0.06292,0.00855,0.01283,18.54,-33.6,-16.08
60.6964,103.657,0.5318892479253694,7.823246798647964,-3.6460564228498233,-0.06842,-0.00977,-0.04093,18.3,-33.36,-16.08
60.7163,103.677,0.5315696571031387,7.826037939207406,-3.7163771561932686,-0.09041,0.07514,0.00489,18.12,-33.48,-15.9
60.7377,103.697,0.5277950936408995,7.822983364519328,-3.7729270559429224,-0.07636,0.10018,0.00733,18.6,-33.42,-16.44
60.7571,103.717,0.5004027490578247,7.811274874073758,-3.81008616986633,0.10385,0.00183,-0.1014,18.9,-33.12,-16.32
60.7764,103.7371,0.4361026504051461,7.798780672776503,-3.8373896779054393,0.1069,0.00367,-0.02016,18.48,-32.82,-15.84
60.7979,103.757,0.3364798491011216,7.793059759041661,-3.867879188272271,0.01344,0.06414,0.01161,18.54,-32.94,-16.14
60.8163,103.777,0.2155473532361693,7.7924086963493435,-3.905545928059028,-0.0171,0.04948,-0.03787,18.3,-33.06,-15.96
60.8383,103.7971,0.10183454905054505,7.790060397534492,-3.9457612779684075,-0.05681,0.19059,-0.10201,18.6,-33.48,-16.2
60.8583,103.817,0.0072688049363826765,7.778796383229226,-3.9747176817932823,0.11545,0.1124,-0.07208,18.96,-33.42,-16.68
60.8777,103.837,-0.057462891031940154,7.767415615114975,-3.9916361027921257,0.25595,-0.02382,-0.00489,18.9,-33.48,-16.5
60.897,103.8571,-0.08566008747762165,7.770450129584674,-4.000727738386899,0.10018,-0.04887,0.05009,18.72,-33.36,-16.26
60.9164,103.877,-0.07306546722450186,7.795449279190831,-4.003336475007016,-0.0336,-0.03421,0.03421,18.54,-33.06,-16.14
60.9387,103.897,-0.023981659140192402,7.836009152823526,-3.995762691403759,-0.04337,0.0171,0.02566,18.6,-33.24,-16.02
60.9568,103.917,0.05187663229941985,7.874591059459346,-3.9736761114125274,-0.0391,0.00305,0.03176,18.72,-33.24,-16.14
60.977,103.937,0.12647085024237398,7.897500351767293,-3.9462754271216287,-0.02871,-0.05498,0.02993,18.78,-33.48,-16.32
60.9963,103.957,0.17338097711723854,7.898388535473952,-3.931480021903883,0.00977,-0.02138,0.01466,18.48,-33.54,-16.26
61.0165,103.9771,0.17251044757581346,7.879393317495724,-3.9491209852675784,0.01649,-0.02871,-0.00183,18.72,-33.72,-16.5
61.0386,103.997,0.12077466749016864,7.8468052126884285,-4.0103481430995185,0.01649,-0.09529,0.02443,18.36,-33.6,-16.02
61.0565,104.017,0.035754154222888836,7.807456218881435,-4.110720542481038,-0.04948,0.02932,0.03848,18.3,-33.3,-15.48
61.0761,104.0371,-0.05991604695599003,7.769246913944218,-4.230851309613414,-0.03604,0.15882,0.04398,18.54,-33.24,-15.6
61.0978,104.057,-0.14329719893414003,7.743039222665721,-4.3439784708727895,0.10873,0.0733,-0.02627,18.3,-33.18,-15.54
61.1163,104.077,-0.20190877308628347,7.740858759248138,-4.424315720468612,0.02566,0.04337,0.02321,18.78,-33.48,-15.84
61.1384,104.097,-0.22484561889380253,7.7719460909880205,-4.454302424550301,-0.1405,0.02321,0.07636,18.72,-33.84,-16.44
61.158,104.117,-0.1989360888653799,7.839063066889871,-4.428938846634591,-0.12156,-0.11729,0.08674,18.48,-34.38,-16.14
61.1929,104.137,-0.15328172997951073,7.9429190778911,-4.367151867998344,-0.1124,-0.12217,0.10446,18.3,-34.68,-15.96
61.1975,104.157,-0.01463904794055288,8.052031761256115,-4.259635176931721,-0.14416,-0.00916,0.09957,18.24,-34.5,-16.02
61.2168,104.1771,0.12345807755607108,8.166973030917875,-4.159064851836781,-0.22785,0.21564,0.09407,18.3,-34.86,-15.54
61.2365,104.197,0.2594208177684321,8.259480312187238,-4.072222875618627,-0.1405,0.14416,0.06658,18.78,-34.14,-15.84
61.2571,104.217,0.3719421677798852,8.319816847690818,-4.023973431529447,-0.02749,0.03971,0.07758,19.26,-34.38,-15.96
61.2785,104.238,0.4485691856096978,8.349488577065555,-4.043209043644164,-0.16371,0.08063,0.0391,18.96,-34.08,-16.38
61.2973,104.258,0.49047126141824493,8.345544305915809,-4.138689894213574,-0.28894,0.23885,0.02382,19.02,-33.72,-16.44
61.3174,104.278,0.4997704010017454,8.308531455780088,-4.303634522576028,-0.10568,0.24312,0.0672,18.72,-34.2,-16.38
61.338,104.298,0.4835215033417509,8.238188587555221,-4.501265845058598,0.02871,0.18143,0.09468,18.12,-33.72,-16.32
61.3622,104.3181,0.44967908301677895,8.149631152453486,-4.6879195851636375,0.33781,-0.07575,0.00183,18.12,-33.9,-15.66
61.3777,104.338,0.3917088282112762,8.094071221223228,-4.862246058748386,0.27184,-0.14416,0.03604,17.7,-33.66,-15.66
61.4,104.359,0.33643554527831726,8.077768976369285,-4.966948076331773,0.10629,-0.03665,0.07758,17.52,-33.78,-15.66
61.4184,104.379,0.30906623724231863,8.115245576955957,-4.99246098783526,-0.10446,0.08247,0.1179,18.0,-34.14,-15.72
61.4419,104.3991,0.3250783854170293,8.191917233006507,-4.927054265153789,-0.34819,0.20647,0.16738,17.94,-34.74,-16.02
61.4583,104.419,0.4073083662256594,8.259524870729894,-4.750844746189372,-0.33903,0.31337,0.1124,18.12,-35.16,-16.32
61.4785,104.439,0.5058485022009945,8.298963246239628,-4.527256775991996,-0.16127,0.07453,0.06842,18.24,-34.86,-16.32
61.4986,104.459,0.5733704841014007,8.281593108201841,-4.319071530534095,-0.21502,-0.13011,0.1912,17.94,-34.38,-16.2
61.5198,104.4791,0.5582204830376541,8.20174381615352,-4.20690238140922,-0.23702,-0.15944,0.2529,18.24,-33.66,-16.14
61.5394,104.499,0.441646699347739,8.069064084614514,-4.244852843354993,-0.15638,0.06231,0.27122,18.36,-33.78,-16.14
61.559,104.519,0.2104016034235545,7.907050830928768,-4.431530342730007,-0.03299,0.29749,0.31521,18.3,-34.26,-16.38
61.5897,104.5391,-0.13324332856147747,7.752350401938228,-4.71186624576026,-0.04154,0.39156,0.3372,17.94,-34.38,-16.2
61.5984,104.559,-0.5092971386343137,7.646728773587281,-4.994204262152595,-0.11851,0.36774,0.36408,17.34,-34.32,-16.5
61.6193,104.579,-0.8816889242591418,7.634325819430628,-5.199097736360514,-0.10873,0.25045,0.31582,17.16,-34.26,-16.32
61.6386,104.599,-1.1625795756768953,7.738838775615451,-5.269431989296573,-0.11362,0.21014,0.28894,16.86,-34.2,-16.32
61.6595,104.619,-1.3161297084317989,7.952446660320636,-5.189921122544659,-0.21136,0.13806,0.30299,16.68,-34.2,-16.5
61.6795,104.639,-1.3328328792514572,8.233969109057277,-4.980557348410349,-0.3317,0.17104,0.28955,16.38,-34.8,-16.44
61.6991,104.6591,-1.2434507124897891,8.517206227586044,-4.6870062846224805,-0.38179,0.13256,0.1967,16.08,-34.92,-16.32
61.7185,104.679,-1.0990346180725352,8.73202922959136,-4.365908199976589,-0.38485,0.16432,0.06658,16.14,-34.86,-16.14
61.7384,104.699,-0.9586156259393461,8.830839592355206,-4.074968135685606,-0.37935,0.20342,-0.1179,15.9,-35.1,-16.14
61.759,104.7191,-0.8697401202533517,8.80521718839966,-3.858732025418183,-0.42272,0.27428,-0.2645,16.5,-34.86,-16.14
61.7792,104.739,-0.8524360105773514,8.681335070079834,-3.733177470625228,-0.46242,0.39218,-0.29016,16.44,-34.5,-16.44
61.7985,104.759,-0.8908970707548033,8.513006445226603,-3.69724541346866,-0.45815,0.4722,-0.24557,16.32,-34.08,-16.68
61.8186,104.7791,-0.941637046134031,8.372049926767456,-3.7527787094417357,-0.34941,0.45937,-0.17654,16.74,-33.9,-16.68
61.8385,104.799,-0.9620455843160722,8.310734697927133,-3.884694993565283,-0.1631,0.36469,-0.0452,16.68,-33.66,-17.04
61.8585,104.819,-0.9252352895810305,8.358339164309488,-4.076406185927679,-0.06597,0.26512,0.09652,16.68,-33.78,-16.8
61.8807,104.8391,-0.8293770127608616,8.503927494696816,-4.2937497572244085,-0.02566,0.19303,0.29077,17.16,-33.84,-16.5
61.8984,104.859,-0.6803653231695278,8.710754445667312,-4.503133767262241,0.07697,0.03421,0.40073,17.1,-33.6,-16.68
61.9196,104.879,-0.5149124263421938,8.904489510439326,-4.64704154320994,0.2193,-0.10385,0.37813,16.86,-33.6,-16.14
61.9398,104.899,-0.3619570078155964,9.033284135165246,-4.715735785883733,0.24923,-0.17287,0.24557,16.68,-33.6,-16.2
61.9583,104.919,-0.26475021540209015,9.058954395475277,-4.707591819415959,0.20403,-0.17104,0.06048,16.2,-33.72,-16.32
61.9785,104.939,-0.2566150908347383,8.97332584253981,-4.628293687203935,0.07819,-0.09774,-0.04948,16.2,-34.2,-16.38
61.9985,104.959,-0.34840841468014244,8.810048720561563,-4.510119563342008,-0.01772,-0.11423,-0.07636,15.84,-34.2,-16.56
62.0187,104.9791,-0.5228136633642433,8.62578338624931,-4.395391253628639,0.01405,-0.17349,-0.11729,16.14,-34.44,-16.62
62.0382,104.999,-0.7447042144458732,8.482296263322034,-4.325989721523878,-0.03115,-0.14783,-0.15638,16.2,-34.26,-16.62
62.0591,105.019,-0.9731241145063113,8.424107344368439,-4.3225320516139405,-0.06475,-0.11729,-0.20647,15.9,-34.08,-16.32
62.0785,105.0391,-1.1698460324788025,8.460200112678631,-4.36682849808767,0.03176,-0.146,-0.17349,16.02,-33.84,-16.32
62.1004,105.059,-1.295332397132686,8.5683780013608,-4.4129227472746795,0.06292,-0.20464,-0.0733,16.2,-33.6,-16.56
62.1192,105.079,-1.31218811397644,8.707650752707965,-4.4087097307223955,-0.01894,-0.18754,-0.01283,16.2,-33.6,-16.74
62.1397,105.099,-1.198390811259879,8.829458574026392,-4.313481205343474,-0.16249,-0.08491,-0.07453,16.74,-33.78,-17.1
62.1619,105.119,-0.9593792360880239,8.89759021660183,-4.119703453495023,-0.33781,0.02199,-0.22602,17.1,-33.78,-16.98
62.2119,105.139,-0.6746188104444204,8.984713185028433,-3.990773399876418,-0.52412,0.0733,-0.3317,17.04,-33.78,-16.38
62.2138,105.1591,-0.26869624065571085,8.826293014318695,-3.5571300826162267,-0.65485,0.01955,-0.27184,16.92,-33.96,-16.74
62.2239,105.179,0.10821298774899538,8.644648600233998,-3.2338395962289574,-0.51985,-0.05803,-0.18998,16.98,-33.9,-16.62
62.2405,105.199,0.4182462782702788,8.462320600140702,-3.0873512868305957,-0.19731,-0.08247,-0.12217,17.04,-34.68,-17.46
62.2586,105.2191,0.6515749490140241,8.300513510710013,-3.155227405723757,0.0733,-0.1405,0.01161,17.04,-34.56,-18.12
62.2789,105.239,0.799258083590694,8.191578030406939,-3.4365317836298397,0.32681,-0.21441,0.19364,17.4,-34.14,-18.36
62.2987,105.259,0.8581788073328737,8.162047106913265,-3.8805975541990083,0.49786,-0.15088,0.24801,17.4,-34.26,-18.66
62.3193,105.2791,0.8374739743518314,8.192204489934213,-4.377702665485191,0.42516,-0.09652,0.21808,17.1,-33.54,-18.06
62.3386,105.299,0.75698716585401,8.237724288216128,-4.820704329526945,0.22907,-0.13073,0.12523,16.98,-33.18,-17.52
62.3585,105.319,0.6423763199943423,8.240844118008612,-5.119321176612104,0.16982,-0.14905,-0.03115,16.38,-33.3,-16.62
62.3787,105.3391,0.5116257457144289,8.175776236596963,-5.244819796075846,0.18387,-0.03726,-0.17349,16.38,-33.12,-16.44
62.3997,105.359,0.3752360982565511,8.05423970491343,-5.2201740775872345,0.12095,0.04093,-0.25168,16.62,-33.24,-16.44
62.4212,105.379,0.24015083990459996,7.915317609865513,-5.101019792248437,0.00489,0.02993,-0.26206,16.8,-33.6,-16.62
62.4396,105.3991,0.11424433985639433,7.80401070851108,-4.953294177823009,0.00367,-0.0507,-0.17898,17.28,-33.84,-16.8
62.4586,105.419,0.01828162371181978,7.757825093635119,-4.843589382837935,0.07636,-0.1576,-0.07391,16.98,-33.6,-16.44
62.479,105.439,-0.041998557349306465,7.79167352701623,-4.816617218379242,0.07941,-0.16799,0.00061,17.1,-33.72,-16.32
62.4985,105.459,-0.07285107839975308,7.896097673560097,-4.890514949210409,0.03115,-0.13011,0.04215,16.98,-33.72,-16.74
62.5195,105.479,-0.0929541396739546,8.03569038799227,-5.046847230034595,-0.00855,-0.06353,0.0226,16.74,-33.84,-16.92
62.5385,105.499,-0.11883274433243587,8.167844821710306,-5.246533474229996,0.00183,-0.05925,0.03543,16.68,-34.08,-16.74
62.5585,105.519,-0.16157525430910977,8.259219469317152,-5.443222372997889,0.02016,-0.12767,0.011,16.5,-34.5,-16.74
62.5785,105.539,-0.21879274743169894,8.30090356413589,-5.604140760957412,0.00916,-0.06109,0.04643,16.44,-34.74,-16.62
62.5999,105.559,-0.2800164169446511,8.306377358131583,-5.711359802179635,-0.02443,-0.03054,0.06048,16.68,-34.92,-16.86
62.6204,105.579,-0.3282604122423964,8.303238572357275,-5.757702619912822,-0.08247,-0.03971,0.02382,17.22,-34.98,-17.52
62.6385,105.599,-0.34671381024929704,8.32181175426015,-5.741552886136479,-0.13378,-0.0672,0.04276,17.22,-34.32,-17.52
62.6603,105.619,-0.3335468687420823,8.386887158571106,-5.670627604877804,-0.07086,-0.05559,0.11606,17.16,-34.2,-16.92
62.6785,105.639,-0.2794139165423975,8.508419940300659,-5.556665241927451,-0.0336,0.03176,0.15577,16.8,-34.02,-16.86
62.6997,105.6591,-0.20125942845809305,8.675944095039908,-5.413914162423691,-0.04154,0.07697,0.14355,16.14,-33.96,-16.5
62.7196,105.679,-0.11121706305560716,8.861390098715724,-5.25859667263534,0.00428,0.01405,0.10324,15.84,-34.32,-16.5
62.7402,105.699,-0.031313601747935745,9.026598434339585,-5.109886073511764,0.09407,-0.03421,0.06353,15.48,-34.5,-16.44
62.7585,105.7191,0.016026995822782147,9.140798446850988,-4.999399973328529,0.16799,-0.05437,0.03054,15.3,-34.44,-16.26
62.7792,105.739,0.015022022278528276,9.184160184166808,-4.950657357511615,0.18326,0.07269,-0.04276,15.3,-34.56,-16.14
62.7984,105.7591,-0.05448472097576641,9.161100681176157,-4.982139676850218,0.22419,0.13439,-0.05681,15.54,-34.8,-16.26
62.8184,105.7791,-0.19268069831255555,9.090677034753737,-5.080923175910102,0.26389,0.18143,-0.11729,15.84,-35.16,-16.56
62.8389,105.7991,-0.3894220593810958,9.007219451017164,-5.214519782538138,0.24007,0.11545,-0.17837,15.84,-35.4,-16.2
62.8591,105.819,-0.6162210843807766,8.949752414901777,-5.338590344152746,0.20525,-0.01283,-0.20281,16.08,-35.58,-15.9
62.8785,105.8391,-0.8245290175563004,8.948322047308398,-5.405274460281778,0.16616,-0.01772,-0.18265,16.08,-35.34,-15.9
62.8984,105.859,-0.9546684609774327,9.012318758637504,-5.369820202524807,0.06964,0.06109,-0.10385,16.2,-34.98,-15.48
62.9196,105.8791,-0.9600819334833942,9.126799502937839,-5.203073137731514,-0.04459,0.12706,-0.05498,16.68,-34.8,-15.72
62.9387,105.8991,-0.8267950347385822,9.252463674898648,-4.896423164621152,-0.16127,0.16371,-0.05986,16.86,-34.56,-15.72
62.9598,105.919,-0.5828900905695691,9.344493692056423,-4.487706868545385,-0.26817,0.15699,-0.0391,16.68,-34.62,-15.18
62.9802,105.939,-0.2917117128725444,9.352193644740558,-4.038405915283624,-0.37813,0.0562,-0.01222,16.74,-34.2,-15.18
62.9984,105.9591,-0.019845112583233692,9.237579708917126,-3.6399541178525316,-0.47586,-0.04887,0.06292,16.44,-34.26,-14.64
63.0188,105.9791,0.16193118135043633,8.996403315912007,-3.4060993653031666,-0.38118,0.03482,0.10079,16.2,-34.56,-14.76
63.0386,105.9991,0.2298635685300626,8.640789701761275,-3.3964763277379824,-0.18631,0.23885,0.14478,16.32,-34.44,-15.3
63.0585,106.0191,0.17076727570430722,8.223253008943876,-3.61592596031456,0.03787,0.32376,0.18876,16.2,-34.62,-15.42
63.0784,106.0391,0.003645859802458791,7.823344864566158,-3.9993569582365343,0.17593,0.31093,0.25717,16.5,-34.8,-16.02
63.0985,106.059,-0.2129483980233909,7.524952091717311,-4.436839988468265,0.22297,0.23946,0.33964,16.62,-34.5,-16.02
63.1185,106.0791,-0.3972423976299874,7.385717763297711,-4.811513718897852,0.17349,0.1967,0.39034,16.5,-34.8,-15.78
63.139,106.0991,-0.4810501441520025,7.415253492180163,-5.033285844012079,0.04337,0.15027,0.3653,16.32,-34.56,-15.6
63.1583,106.1191,-0.4381615551068726,7.578166371522833,-5.067618411288955,-0.08858,0.12828,0.29993,16.38,-34.62,-15.3
63.1791,106.1391,-0.3010670048762202,7.806270505655163,-4.937190469440306,-0.1295,0.05925,0.22602,16.2,-35.1,-15.54
63.1986,106.159,-0.1264777892407369,8.026173574459778,-4.714560880939021,-0.15394,-0.00672,0.13378,16.08,-35.16,-15.48
63.2194,106.179,0.01652745000894434,8.18170619029992,-4.496088231179264,-0.17776,-0.00122,0.04154,16.26,-35.7,-15.9
63.2395,106.199,0.08789887188022544,8.245687673518825,-4.363003792301037,-0.16066,0.12523,-0.06292,15.72,-35.64,-15.66
63.2597,106.219,0.07100615329206432,8.223170145154064,-4.356021582546422,-0.1405,0.32437,-0.12095,15.54,-35.22,-15.06
63.2783,106.239,-0.032290460578802443,8.13809938995323,-4.459756458924402,-0.11729,0.38668,-0.16249,15.78,-35.16,-15.0
63.2985,106.2591,-0.19524497421847223,8.035736009374721,-4.641168985086658,-0.12095,0.28405,-0.15394,15.84,-35.16,-14.94
63.3201,106.2791,-0.38435876186797163,7.95649422485276,-4.853644891358517,-0.14783,0.12462,-0.10996,15.78,-34.98,-15.42
63.3385,106.299,-0.557771200512946,7.930418804141877,-5.058758633577201,-0.15149,0.04032,-0.03665,16.08,-35.1,-15.66
63.3583,106.319,-0.6854385351035384,7.979586529123623,-5.242181078877432,-0.10079,0.05315,0.00428,15.9,-34.86,-15.66
